onset	duration	movement_onset	EV	action	block_duration	experiment_exp_id	gain_amount	gain_probability	key_press	loss_amount	loss_probability	num_cards	num_click_in_round	num_loss_cards	risk	response_time	total_cards	trial_id	trial_type	worker_id	junk	feedback
3.015	3.974	6.989	-0.734957925912471	draw_card	3.974	columbia_card_task_fmri	12.0	0.8333333333333334	89.0	-70.0	0.1666666666666666	6.0	1.0	1.0	-0.9849348868290946	3.974	n/a	stim	poldrack-single-stim	s061	False	1
6.994	1.194	8.188	-3.4682912592458037	draw_card	1.194	columbia_card_task_fmri	12.0	0.8	89.0	-70.0	0.2	6.0	2.0	1.0	1.2544999094326776	1.194	n/a	stim	poldrack-single-stim	s061	False	1
8.192	1.384	9.576	-7.568291259245805	draw_card	1.384	columbia_card_task_fmri	12.0	0.75	89.0	-70.0	0.25	6.0	3.0	1.0	3.96053315540313	1.384	n/a	stim	poldrack-single-stim	s061	False	1
9.58	1.131	10.711	-14.401624592579138	end_round	1.131	columbia_card_task_fmri	12.0	0.6666666666666667	71.0	-70.0	0.3333333333333333	6.0	4.0	1.0	7.107667233446488	1.131	3.0	stim	poldrack-single-stim	s061	False	1
11.465	1.5	10.714	n/a	-1.0	2.454	columbia_card_task_fmri	n/a	n/a	-1.0	n/a	n/a	n/a	n/a	n/a	n/a	n/a	n/a	ITI	poldrack-single-stim	s061	False	0
13.173	6.097	19.27	0.0983754074208629	draw_card	6.097	columbia_card_task_fmri	14.0	0.8333333333333334	89.0	-75.0	0.1666666666666666	6.0	1.0	1.0	1.62269470883194	6.097	n/a	stim	poldrack-single-stim	s061	False	1
19.275	1.282	20.557	-2.868291259245804	draw_card	1.282	columbia_card_task_fmri	14.0	0.8	89.0	-75.0	0.2	6.0	2.0	1.0	4.053459697273045	1.282	n/a	stim	poldrack-single-stim	s061	False	1
20.56	1.956	22.516	-7.318291259245805	end_round	1.956	columbia_card_task_fmri	14.0	0.75	71.0	-75.0	0.25	6.0	3.0	1.0	6.990661083107273	1.956	2.0	stim	poldrack-single-stim	s061	False	1
23.271	1.5	22.52	n/a	-1.0	2.454	columbia_card_task_fmri	n/a	n/a	-1.0	n/a	n/a	n/a	n/a	n/a	n/a	n/a	n/a	ITI	poldrack-single-stim	s061	False	0
24.977	4.27	29.247	1.765042074087529	draw_card	4.27	columbia_card_task_fmri	15.0	0.8333333333333334	89.0	-70.0	0.1666666666666666	6.0	1.0	1.0	0.1325981535359659	4.27	n/a	stim	poldrack-single-stim	s061	False	1
29.249	2.451	31.7	-1.068291259245805	end_round	2.451	columbia_card_task_fmri	15.0	0.8	71.0	-70.0	0.2	6.0	2.0	1.0	2.4540331369270767	2.451	1.0	stim	poldrack-single-stim	s061	False	1
32.454	1.5	31.703	n/a	-1.0	2.522	columbia_card_task_fmri	n/a	n/a	-1.0	n/a	n/a	n/a	n/a	n/a	n/a	n/a	n/a	ITI	poldrack-single-stim	s061	False	0
34.229	3.069	37.298	2.598375407420863	draw_card	3.069	columbia_card_task_fmri	17.0	0.8333333333333334	89.0	-75.0	0.1666666666666666	6.0	1.0	1.0	2.740302224745204	3.069	n/a	stim	poldrack-single-stim	s061	False	1
37.301	1.139	38.44	-0.4682912592458035	draw_card	1.139	columbia_card_task_fmri	17.0	0.8	89.0	-75.0	0.2	6.0	2.0	1.0	5.253062324660423	1.139	n/a	stim	poldrack-single-stim	s061	False	1
38.446	1.306	39.752	-5.068291259245805	end_round	1.306	columbia_card_task_fmri	17.0	0.75	71.0	-75.0	0.25	6.0	3.0	1.0	8.28933208493697	1.306	2.0	stim	poldrack-single-stim	s061	False	1
40.505	1.5	39.754	n/a	-1.0	2.454	columbia_card_task_fmri	n/a	n/a	-1.0	n/a	n/a	n/a	n/a	n/a	n/a	n/a	n/a	ITI	poldrack-single-stim	s061	False	0
42.213	3.735	45.948	3.9317087407541953	draw_card	3.735	columbia_card_task_fmri	24.0	0.75	89.0	-60.0	0.25	8.0	1.0	2.0	4.8262676565512415	3.735	1.0	stim	poldrack-single-stim	s061	False	0
46.702	1.5	45.951	n/a	-1.0	2.658	columbia_card_task_fmri	n/a	n/a	-1.0	n/a	n/a	n/a	n/a	n/a	n/a	n/a	n/a	ITI	poldrack-single-stim	s061	False	0
48.613	3.342	51.955	3.9317087407541953	draw_card	3.342	columbia_card_task_fmri	29.0	0.75	89.0	-75.0	0.25	8.0	1.0	2.0	13.484227808201265	3.342	n/a	stim	poldrack-single-stim	s061	False	1
51.959	2.385	54.344	0.2174230264684833	draw_card	2.385	columbia_card_task_fmri	29.0	0.7142857142857143	89.0	-75.0	0.2857142857142857	8.0	2.0	2.0	15.43291803937365	2.385	n/a	stim	poldrack-single-stim	s061	False	1
54.347	1.328	55.675	-4.734957925912469	end_round	1.328	columbia_card_task_fmri	29.0	0.6666666666666667	71.0	-75.0	0.3333333333333333	8.0	3.0	2.0	17.476192256861385	1.328	2.0	stim	poldrack-single-stim	s061	False	1
56.429	1.5	55.678	n/a	-1.0	2.386	columbia_card_task_fmri	n/a	n/a	-1.0	n/a	n/a	n/a	n/a	n/a	n/a	n/a	n/a	ITI	poldrack-single-stim	s061	False	0
58.067	2.397	60.464	-0.2905134814680246	draw_card	2.397	columbia_card_task_fmri	17.0	0.7777777777777778	89.0	-65.0	0.2222222222222222	9.0	1.0	2.0	2.544655398642643	2.397	1.0	stim	poldrack-single-stim	s061	False	0
61.22	1.5	60.469	n/a	-1.0	2.522	columbia_card_task_fmri	n/a	n/a	-1.0	n/a	n/a	n/a	n/a	n/a	n/a	n/a	n/a	ITI	poldrack-single-stim	s061	False	0
62.995	2.651	65.646	4.031708740754195	draw_card	2.651	columbia_card_task_fmri	14.0	0.9	89.0	-95.0	0.1	10.0	1.0	1.0	1.154540352605654	2.651	1.0	stim	poldrack-single-stim	s061	False	0
66.4	1.5	65.649	n/a	-1.0	2.59	columbia_card_task_fmri	n/a	n/a	-1.0	n/a	n/a	n/a	n/a	n/a	n/a	n/a	n/a	ITI	poldrack-single-stim	s061	False	0
68.244	1.601	69.845	-0.0682912592458049	draw_card	1.601	columbia_card_task_fmri	15.0	0.8	89.0	-65.0	0.2	10.0	1.0	2.0	0.4548305279438871	1.601	n/a	stim	poldrack-single-stim	s061	False	1
69.848	0.727	70.575	-1.8460690370235815	draw_card	0.727	columbia_card_task_fmri	15.0	0.7777777777777778	89.0	-65.0	0.2222222222222222	10.0	2.0	2.0	1.7134940954600246	0.727	2.0	stim	poldrack-single-stim	s061	False	0
71.329	1.5	70.578	n/a	-1.0	2.386	columbia_card_task_fmri	n/a	n/a	-1.0	n/a	n/a	n/a	n/a	n/a	n/a	n/a	n/a	ITI	poldrack-single-stim	s061	False	0
72.968	0.731	73.699	1.5317087407541965	draw_card	0.731	columbia_card_task_fmri	17.0	0.8	89.0	-65.0	0.2	10.0	1.0	2.0	1.2544999094326776	0.731	n/a	stim	poldrack-single-stim	s061	False	1
73.706	0.641	74.347	-0.2905134814680246	draw_card	0.641	columbia_card_task_fmri	17.0	0.7777777777777778	89.0	-65.0	0.2222222222222222	10.0	2.0	2.0	2.544655398642643	0.641	n/a	stim	poldrack-single-stim	s061	False	1
74.35	0.947	75.297	-2.5682912592458047	draw_card	0.947	columbia_card_task_fmri	17.0	0.75	89.0	-65.0	0.25	10.0	3.0	2.0	3.96053315540313	0.947	n/a	stim	poldrack-single-stim	s061	False	1
75.302	0.614	75.916	-5.496862687817232	draw_card	0.614	columbia_card_task_fmri	17.0	0.7142857142857143	89.0	-65.0	0.2857142857142857	10.0	4.0	2.0	5.496808748400039	0.614	n/a	stim	poldrack-single-stim	s061	False	1
75.919	0.959	76.878	-9.401624592579136	end_round	0.959	columbia_card_task_fmri	17.0	0.6666666666666667	71.0	-65.0	0.3333333333333333	10.0	5.0	2.0	7.107667233446481	0.959	4.0	stim	poldrack-single-stim	s061	False	1
77.632	1.5	76.881	n/a	-1.0	2.59	columbia_card_task_fmri	n/a	n/a	-1.0	n/a	n/a	n/a	n/a	n/a	n/a	n/a	n/a	ITI	poldrack-single-stim	s061	False	0
79.475	1.966	81.441	0.0983754074208629	draw_card	1.966	columbia_card_task_fmri	13.0	0.8333333333333334	89.0	-70.0	0.1666666666666666	12.0	1.0	2.0	-0.6124278943305583	1.966	n/a	stim	poldrack-single-stim	s061	False	1
81.445	2.274	83.719	-1.1592003501548984	draw_card	2.274	columbia_card_task_fmri	13.0	0.8181818181818181	89.0	-70.0	0.1818181818181818	12.0	2.0	2.0	0.4674776278540129	2.274	n/a	stim	poldrack-single-stim	s061	False	1
83.724	5.034	88.758	-2.6682912592458043	draw_card	5.034	columbia_card_task_fmri	13.0	0.8	89.0	-70.0	0.2	12.0	3.0	2.0	1.6543405716253012	5.034	n/a	stim	poldrack-single-stim	s061	False	1
88.762	1.388	90.15	-4.512735703690249	end_round	1.388	columbia_card_task_fmri	13.0	0.7777777777777778	71.0	-70.0	0.2222222222222222	12.0	4.0	2.0	2.960241796126649	1.388	3.0	stim	poldrack-single-stim	s061	False	1
90.907	1.5	90.156	n/a	-1.0	2.318	columbia_card_task_fmri	n/a	n/a	-1.0	n/a	n/a	n/a	n/a	n/a	n/a	n/a	n/a	ITI	poldrack-single-stim	s061	False	0
92.479	2.833	95.312	0.0983754074208629	draw_card	2.833	columbia_card_task_fmri	15.0	0.8333333333333334	89.0	-80.0	0.1666666666666666	12.0	1.0	2.0	3.8579366613378063	2.833	n/a	stim	poldrack-single-stim	s061	False	1
95.317	1.798	97.115	-1.34101853197308	draw_card	1.798	columbia_card_task_fmri	15.0	0.8181818181818181	89.0	-80.0	0.1818181818181818	12.0	2.0	2.0	5.094101237732456	1.798	n/a	stim	poldrack-single-stim	s061	False	1
97.12	1.311	98.431	-3.0682912592458047	end_round	1.311	columbia_card_task_fmri	15.0	0.8	71.0	-80.0	0.2	12.0	3.0	2.0	6.452690037579192	1.311	2.0	stim	poldrack-single-stim	s061	False	1
99.187	1.5	98.436	n/a	-1.0	2.25	columbia_card_task_fmri	n/a	n/a	-1.0	n/a	n/a	n/a	n/a	n/a	n/a	n/a	n/a	ITI	poldrack-single-stim	s061	False	0
100.691	2.48	103.171	-0.8682912592458039	draw_card	2.48	columbia_card_task_fmri	14.0	0.8	89.0	-65.0	0.2	15.0	1.0	3.0	0.0550021107433131	2.48	n/a	stim	poldrack-single-stim	s061	False	1
103.174	0.657	103.831	-1.996862687817232	draw_card	0.657	columbia_card_task_fmri	14.0	0.7857142857142857	89.0	-65.0	0.2142857142857142	15.0	2.0	3.0	0.8704030383060335	0.657	n/a	stim	poldrack-single-stim	s061	False	1
103.835	1.248	105.083	-3.2990604900150364	draw_card	1.248	columbia_card_task_fmri	14.0	0.7692307692307692	89.0	-65.0	0.2307692307692307	15.0	3.0	3.0	1.7389858258465445	1.248	n/a	stim	poldrack-single-stim	s061	False	1
105.087	2.215	107.302	-4.818291259245805	end_round	2.215	columbia_card_task_fmri	14.0	0.75	71.0	-65.0	0.25	15.0	4.0	3.0	2.661959006156298	2.215	3.0	stim	poldrack-single-stim	s061	False	1
108.06	1.5	107.309	n/a	-1.0	2.454	columbia_card_task_fmri	n/a	n/a	-1.0	n/a	n/a	n/a	n/a	n/a	n/a	n/a	n/a	ITI	poldrack-single-stim	s061	False	0
109.77	4.098	113.868	-0.9432912592458048	draw_card	4.098	columbia_card_task_fmri	1.0	0.9375	89.0	-45.0	0.0625	16.0	1.0	1.0	-20.384990788128476	4.098	n/a	stim	poldrack-single-stim	s061	False	1
113.874	0.636	114.51	-1.1349579259124714	draw_card	0.636	columbia_card_task_fmri	1.0	0.9333333333333332	89.0	-45.0	0.0666666666666666	16.0	2.0	1.0	-20.04654971350836	0.636	n/a	stim	poldrack-single-stim	s061	False	1
114.515	0.636	115.151	-1.3540055449600903	draw_card	0.636	columbia_card_task_fmri	1.0	0.9285714285714286	89.0	-45.0	0.0714285714285714	16.0	3.0	1.0	-19.67533775580193	0.636	n/a	stim	poldrack-single-stim	s061	False	1
115.156	1.158	116.314	-1.6067527977073432	draw_card	1.158	columbia_card_task_fmri	1.0	0.9230769230769232	89.0	-45.0	0.0769230769230769	16.0	4.0	1.0	-19.265781091647757	1.158	n/a	stim	poldrack-single-stim	s061	False	1
116.317	0.98	117.297	-1.9016245925791384	draw_card	0.98	columbia_card_task_fmri	1.0	0.9166666666666666	89.0	-45.0	0.0833333333333333	16.0	5.0	1.0	-18.81090819750117	0.98	n/a	stim	poldrack-single-stim	s061	False	1
117.301	1.222	118.523	-2.2501094410639864	draw_card	1.222	columbia_card_task_fmri	1.0	0.9090909090909092	89.0	-45.0	0.0909090909090909	16.0	6.0	1.0	-18.30187877116189	1.222	6.0	stim	poldrack-single-stim	s061	False	0
119.28	1.5	118.529	n/a	-1.0	3.27	columbia_card_task_fmri	n/a	n/a	-1.0	n/a	n/a	n/a	n/a	n/a	n/a	n/a	n/a	ITI	poldrack-single-stim	s061	False	0
121.807	1.914	123.721	-0.0057912592458049	draw_card	1.914	columbia_card_task_fmri	15.0	0.8125	89.0	-70.0	0.1875	16.0	1.0	3.0	1.6309016726017482	1.914	n/a	stim	poldrack-single-stim	s061	False	1
123.726	1.362	125.088	-1.068291259245805	draw_card	1.362	columbia_card_task_fmri	15.0	0.8	89.0	-70.0	0.2	16.0	2.0	3.0	2.4540331369270767	1.362	n/a	stim	poldrack-single-stim	s061	False	1
125.093	2.242	127.335	-2.28257697353152	draw_card	2.242	columbia_card_task_fmri	15.0	0.7857142857142857	89.0	-70.0	0.2142857142857142	16.0	3.0	3.0	3.331413840306393	2.242	3.0	stim	poldrack-single-stim	s061	False	0
128.091	1.5	127.34	n/a	-1.0	2.25	columbia_card_task_fmri	n/a	n/a	-1.0	n/a	n/a	n/a	n/a	n/a	n/a	n/a	n/a	ITI	poldrack-single-stim	s061	False	0
129.596	1.243	130.839	6.931708740754195	draw_card	1.243	columbia_card_task_fmri	30.0	0.7	89.0	-50.0	0.3	10.0	1.0	3.0	5.11371270915458	1.243	n/a	stim	poldrack-single-stim	s061	False	1
130.843	2.272	133.115	4.265042074087535	end_round	2.272	columbia_card_task_fmri	30.0	0.6666666666666667	71.0	-50.0	0.3333333333333333	10.0	2.0	3.0	6.165138779681012	2.272	1.0	stim	poldrack-single-stim	s061	False	1
133.872	1.5	133.121	n/a	-1.0	2.25	columbia_card_task_fmri	n/a	n/a	-1.0	n/a	n/a	n/a	n/a	n/a	n/a	n/a	n/a	ITI	poldrack-single-stim	s061	False	0
135.379	3.111	138.49	6.331708740754196	draw_card	3.111	columbia_card_task_fmri	17.0	0.8666666666666667	89.0	-70.0	0.1333333333333333	15.0	1.0	2.0	-1.9697445585182896	3.111	n/a	stim	poldrack-single-stim	s061	False	1
138.497	1.074	139.571	5.503137312182768	draw_card	1.074	columbia_card_task_fmri	17.0	0.8571428571428572	89.0	-70.0	0.1428571428571428	15.0	2.0	2.0	-1.100818296323613	1.074	2.0	stim	poldrack-single-stim	s061	False	0
140.326	1.5	139.575	n/a	-1.0	2.318	columbia_card_task_fmri	n/a	n/a	-1.0	n/a	n/a	n/a	n/a	n/a	n/a	n/a	n/a	ITI	poldrack-single-stim	s061	False	0
141.9	0.78	142.68	1.556708740754195	draw_card	0.78	columbia_card_task_fmri	7.0	0.9375	89.0	-95.0	0.0625	16.0	1.0	1.0	-6.850888369467359	0.78	n/a	stim	poldrack-single-stim	s061	False	1
142.685	1.939	144.624	1.1317087407541953	draw_card	1.939	columbia_card_task_fmri	7.0	0.9333333333333332	89.0	-95.0	0.0666666666666666	16.0	2.0	1.0	-6.098406701049488	1.939	n/a	stim	poldrack-single-stim	s061	False	1
144.63	0.592	145.222	0.6459944550399095	draw_card	0.592	columbia_card_task_fmri	7.0	0.9285714285714286	89.0	-95.0	0.0714285714285714	16.0	3.0	1.0	-5.273196214834286	0.592	n/a	stim	poldrack-single-stim	s061	False	1
145.227	0.811	146.038	0.0855548946003483	draw_card	0.811	columbia_card_task_fmri	7.0	0.9230769230769232	89.0	-95.0	0.0769230769230769	16.0	4.0	1.0	-4.362891653973378	0.811	n/a	stim	poldrack-single-stim	s061	False	1
146.043	1.166	147.209	-0.5682912592458049	draw_card	1.166	columbia_card_task_fmri	7.0	0.9166666666666666	89.0	-95.0	0.0833333333333333	16.0	5.0	1.0	-3.3520275966534605	1.166	n/a	stim	poldrack-single-stim	s061	False	1
147.216	0.967	148.183	-1.3410185319730783	end_round	0.967	columbia_card_task_fmri	7.0	0.9090909090909092	71.0	-95.0	0.0909090909090909	16.0	6.0	1.0	-2.220993714041242	0.967	5.0	stim	poldrack-single-stim	s061	False	1
148.941	1.5	148.19	n/a	-1.0	2.726	columbia_card_task_fmri	n/a	n/a	-1.0	n/a	n/a	n/a	n/a	n/a	n/a	n/a	n/a	ITI	poldrack-single-stim	s061	False	0
150.922	2.619	153.541	3.1192087407541957	draw_card	2.619	columbia_card_task_fmri	9.0	0.9375	89.0	-100.0	0.0625	16.0	1.0	1.0	-5.157585980347701	2.619	n/a	stim	poldrack-single-stim	s061	False	1
153.546	0.711	154.257	2.6650420740875287	draw_card	0.711	columbia_card_task_fmri	9.0	0.9333333333333332	89.0	-100.0	0.0666666666666666	16.0	2.0	1.0	-4.353394430882592	0.711	n/a	stim	poldrack-single-stim	s061	False	1
154.264	2.841	157.105	2.1459944550399106	draw_card	2.841	columbia_card_task_fmri	9.0	0.9285714285714286	89.0	-100.0	0.0714285714285714	16.0	3.0	1.0	-3.4714807441058184	2.841	n/a	stim	poldrack-single-stim	s061	False	1
157.109	2.04	159.149	1.547093356138811	draw_card	2.04	columbia_card_task_fmri	9.0	0.9230769230769232	89.0	-100.0	0.0769230769230769	16.0	4.0	1.0	-2.498630867002845	2.04	n/a	stim	poldrack-single-stim	s061	False	1
159.154	2.339	161.493	0.8483754074208629	end_round	2.339	columbia_card_task_fmri	9.0	0.9166666666666666	71.0	-100.0	0.0833333333333333	16.0	5.0	1.0	-1.4183177941209806	2.339	4.0	stim	poldrack-single-stim	s061	False	1
162.252	1.5	161.501	n/a	-1.0	2.386	columbia_card_task_fmri	n/a	n/a	-1.0	n/a	n/a	n/a	n/a	n/a	n/a	n/a	n/a	ITI	poldrack-single-stim	s061	False	0
163.892	4.009	167.901	4.056708740754195	draw_card	4.009	columbia_card_task_fmri	15.0	0.875	89.0	-80.0	0.125	16.0	1.0	2.0	-0.1266216853613961	4.009	n/a	stim	poldrack-single-stim	s061	False	1
167.905	1.154	169.059	3.265042074087529	draw_card	1.154	columbia_card_task_fmri	15.0	0.8666666666666667	89.0	-80.0	0.1333333333333333	16.0	2.0	2.0	0.7484974630559158	1.154	n/a	stim	poldrack-single-stim	s061	False	1
169.064	3.322	172.386	2.360280169325626	draw_card	3.322	columbia_card_task_fmri	15.0	0.8571428571428572	89.0	-80.0	0.1428571428571428	16.0	3.0	2.0	1.6973987220939115	3.322	n/a	stim	poldrack-single-stim	s061	False	1
172.392	0.789	173.181	1.3163241253695783	end_round	0.789	columbia_card_task_fmri	15.0	0.8461538461538461	71.0	-80.0	0.1538461538461538	16.0	4.0	2.0	2.7300455251190208	0.789	3.0	stim	poldrack-single-stim	s061	False	1
173.942	1.5	173.191	n/a	-1.0	2.318	columbia_card_task_fmri	n/a	n/a	-1.0	n/a	n/a	n/a	n/a	n/a	n/a	n/a	n/a	ITI	poldrack-single-stim	s061	False	0
175.514	3.4	178.914	6.181708740754195	draw_card	3.4	columbia_card_task_fmri	16.0	0.875	89.0	-70.0	0.125	16.0	1.0	2.0	-3.10164722106515	3.4	n/a	stim	poldrack-single-stim	s061	False	1
178.92	1.794	180.714	5.4650420740875285	draw_card	1.794	columbia_card_task_fmri	16.0	0.8666666666666667	89.0	-70.0	0.1333333333333333	16.0	2.0	2.0	-2.309508666868279	1.794	n/a	stim	poldrack-single-stim	s061	False	1
180.72	0.799	181.519	4.645994455039911	draw_card	0.799	columbia_card_task_fmri	16.0	0.8571428571428572	89.0	-70.0	0.1428571428571428	16.0	3.0	2.0	-1.4505797390437465	0.799	n/a	stim	poldrack-single-stim	s061	False	1
181.525	1.3	182.825	3.700939509984964	draw_card	1.3	columbia_card_task_fmri	16.0	0.8461538461538461	89.0	-70.0	0.1538461538461538	16.0	4.0	2.0	-0.5158409946708602	1.3	n/a	stim	poldrack-single-stim	s061	False	1
182.832	2.33	185.162	2.598375407420863	end_round	2.33	columbia_card_task_fmri	16.0	0.8333333333333334	71.0	-70.0	0.1666666666666666	16.0	5.0	2.0	0.5051169286146937	2.33	4.0	stim	poldrack-single-stim	s061	False	1
185.92	1.5	185.169	n/a	-1.0	2.25	columbia_card_task_fmri	n/a	n/a	-1.0	n/a	n/a	n/a	n/a	n/a	n/a	n/a	n/a	ITI	poldrack-single-stim	s061	False	0
187.427	3.169	190.596	7.494208740754195	draw_card	3.169	columbia_card_task_fmri	30.0	0.6875	89.0	-45.0	0.3125	16.0	1.0	5.0	3.2171833510318315	3.169	n/a	stim	poldrack-single-stim	s061	False	1
190.601	1.128	191.729	5.931708740754199	end_round	1.128	columbia_card_task_fmri	30.0	0.6666666666666667	71.0	-45.0	0.3333333333333333	16.0	2.0	5.0	3.808883083357845	1.128	1.0	stim	poldrack-single-stim	s061	False	1
192.487	1.5	191.736	n/a	-1.0	2.25	columbia_card_task_fmri	n/a	n/a	-1.0	n/a	n/a	n/a	n/a	n/a	n/a	n/a	n/a	ITI	poldrack-single-stim	s061	False	0
193.992	2.387	196.379	-0.734957925912471	draw_card	2.387	columbia_card_task_fmri	13.0	0.8333333333333334	89.0	-75.0	0.1666666666666666	6.0	1.0	1.0	1.2501653280665188	2.387	n/a	stim	poldrack-single-stim	s061	False	1
196.383	1.502	197.885	-3.668291259245804	draw_card	1.502	columbia_card_task_fmri	13.0	0.8	89.0	-75.0	0.2	6.0	2.0	1.0	3.653598172503738	1.502	2.0	stim	poldrack-single-stim	s061	False	0
198.642	1.5	197.891	n/a	-1.0	2.454	columbia_card_task_fmri	n/a	n/a	-1.0	n/a	n/a	n/a	n/a	n/a	n/a	n/a	n/a	ITI	poldrack-single-stim	s061	False	0
200.352	1.956	202.308	0.9317087407541969	draw_card	1.956	columbia_card_task_fmri	14.0	0.8333333333333334	89.0	-70.0	0.1666666666666666	6.0	1.0	1.0	-0.2399168330496266	1.956	n/a	stim	poldrack-single-stim	s061	False	1
202.312	0.846	203.158	-1.868291259245804	end_round	0.846	columbia_card_task_fmri	14.0	0.8	71.0	-70.0	0.2	6.0	2.0	1.0	2.0541850253624325	0.846	1.0	stim	poldrack-single-stim	s061	False	1
203.915	1.5	203.164	n/a	-1.0	2.454	columbia_card_task_fmri	n/a	n/a	-1.0	n/a	n/a	n/a	n/a	n/a	n/a	n/a	n/a	ITI	poldrack-single-stim	s061	False	0
205.624	1.605	207.229	0.9317087407541969	draw_card	1.605	columbia_card_task_fmri	16.0	0.8333333333333334	89.0	-80.0	0.1666666666666666	6.0	1.0	1.0	4.230487019999256	1.605	1.0	stim	poldrack-single-stim	s061	False	0
207.987	1.5	207.236	n/a	-1.0	2.522	columbia_card_task_fmri	n/a	n/a	-1.0	n/a	n/a	n/a	n/a	n/a	n/a	n/a	n/a	ITI	poldrack-single-stim	s061	False	0
209.765	1.785	211.55	3.431708740754197	draw_card	1.785	columbia_card_task_fmri	17.0	0.8333333333333334	89.0	-70.0	0.1666666666666666	6.0	1.0	1.0	0.8776393616585558	1.785	1.0	stim	poldrack-single-stim	s061	False	0
212.314	1.5	211.563	n/a	-1.0	2.386	columbia_card_task_fmri	n/a	n/a	-1.0	n/a	n/a	n/a	n/a	n/a	n/a	n/a	n/a	ITI	poldrack-single-stim	s061	False	0
213.957	1.766	215.723	3.4317087407541957	draw_card	1.766	columbia_card_task_fmri	25.0	0.75	89.0	-65.0	0.25	8.0	1.0	2.0	7.423548698923771	1.766	n/a	stim	poldrack-single-stim	s061	False	1
215.728	1.803	217.531	0.2174230264684833	draw_card	1.803	columbia_card_task_fmri	25.0	0.7142857142857143	89.0	-65.0	0.2857142857142857	8.0	2.0	2.0	9.109799304764383	1.803	2.0	stim	poldrack-single-stim	s061	False	0
218.288	1.5	217.537	n/a	-1.0	2.454	columbia_card_task_fmri	n/a	n/a	-1.0	n/a	n/a	n/a	n/a	n/a	n/a	n/a	n/a	ITI	poldrack-single-stim	s061	False	0
219.999	0.929	220.928	3.4317087407541957	draw_card	0.929	columbia_card_task_fmri	30.0	0.75	89.0	-80.0	0.25	8.0	1.0	2.0	16.081778458711145	0.929	n/a	stim	poldrack-single-stim	s061	False	1
220.934	0.783	221.717	-0.4968626878172284	draw_card	0.783	columbia_card_task_fmri	30.0	0.7142857142857143	89.0	-80.0	0.2857142857142857	8.0	2.0	2.0	18.142937977981024	0.783	n/a	stim	poldrack-single-stim	s061	False	1
221.727	1.908	223.635	-5.7349579259124654	end_round	1.908	columbia_card_task_fmri	30.0	0.6666666666666667	71.0	-80.0	0.3333333333333333	8.0	3.0	2.0	20.30413660023498	1.908	2.0	stim	poldrack-single-stim	s061	False	1
224.397	1.5	223.646	n/a	-1.0	2.522	columbia_card_task_fmri	n/a	n/a	-1.0	n/a	n/a	n/a	n/a	n/a	n/a	n/a	n/a	ITI	poldrack-single-stim	s061	False	0
226.175	1.704	227.879	3.1317087407541964	draw_card	1.704	columbia_card_task_fmri	13.0	0.9	89.0	-95.0	0.1	10.0	1.0	1.0	0.8546631790981856	1.704	n/a	stim	poldrack-single-stim	s061	False	1
227.887	0.857	228.744	1.931708740754195	draw_card	0.857	columbia_card_task_fmri	13.0	0.8888888888888888	89.0	-95.0	0.1111111111111111	10.0	2.0	1.0	2.395180765210963	0.857	n/a	stim	poldrack-single-stim	s061	False	1
228.749	1.439	230.188	0.4317087407541951	end_round	1.439	columbia_card_task_fmri	13.0	0.875	71.0	-95.0	0.125	10.0	3.0	1.0	4.171062260076578	1.439	2.0	stim	poldrack-single-stim	s061	False	1
230.944	1.5	230.193	n/a	-1.0	2.522	columbia_card_task_fmri	n/a	n/a	-1.0	n/a	n/a	n/a	n/a	n/a	n/a	n/a	n/a	ITI	poldrack-single-stim	s061	False	0
232.723	3.705	236.428	4.531708740754195	draw_card	3.705	columbia_card_task_fmri	14.0	0.9	89.0	-90.0	0.1	10.0	1.0	1.0	-0.344821909801567	3.705	n/a	stim	poldrack-single-stim	s061	False	1
236.433	0.953	237.386	3.376153185198638	draw_card	0.953	columbia_card_task_fmri	14.0	0.8888888888888888	89.0	-90.0	0.1111111111111111	10.0	2.0	1.0	1.1385936023167638	0.953	n/a	stim	poldrack-single-stim	s061	False	1
237.392	0.971	238.363	1.931708740754195	end_round	0.971	columbia_card_task_fmri	14.0	0.875	71.0	-90.0	0.125	10.0	3.0	1.0	2.848653741270031	0.971	2.0	stim	poldrack-single-stim	s061	False	1
239.121	1.5	238.37	n/a	-1.0	2.59	columbia_card_task_fmri	n/a	n/a	-1.0	n/a	n/a	n/a	n/a	n/a	n/a	n/a	n/a	ITI	poldrack-single-stim	s061	False	0
240.967	2.19	243.157	-0.2682912592458042	draw_card	2.19	columbia_card_task_fmri	16.0	0.8	89.0	-70.0	0.2	10.0	1.0	2.0	2.853884778815821	2.19	n/a	stim	poldrack-single-stim	s061	False	1
243.165	2.346	245.511	-2.1794023703569154	end_round	2.346	columbia_card_task_fmri	16.0	0.7777777777777778	71.0	-70.0	0.2222222222222222	10.0	2.0	2.0	4.207022369776187	2.346	1.0	stim	poldrack-single-stim	s061	False	1
246.268	1.5	245.517	n/a	-1.0	2.454	columbia_card_task_fmri	n/a	n/a	-1.0	n/a	n/a	n/a	n/a	n/a	n/a	n/a	n/a	ITI	poldrack-single-stim	s061	False	0
247.979	2.67	250.649	-0.984957925912471	draw_card	2.67	columbia_card_task_fmri	7.0	0.9166666666666666	89.0	-100.0	0.0833333333333333	12.0	1.0	1.0	-1.9708194900316656	2.67	n/a	stim	poldrack-single-stim	s061	False	1
250.655	1.031	251.686	-1.795563986518533	draw_card	1.031	columbia_card_task_fmri	7.0	0.9090909090909092	89.0	-100.0	0.0909090909090909	12.0	2.0	1.0	-0.7842859645116356	1.031	n/a	stim	poldrack-single-stim	s061	False	1
251.693	1.403	253.096	-2.768291259245805	end_round	1.403	columbia_card_task_fmri	7.0	0.9	71.0	-100.0	0.1	12.0	3.0	1.0	0.5547882999768525	1.403	2.0	stim	poldrack-single-stim	s061	False	1
253.854	1.5	253.103	n/a	-1.0	2.318	columbia_card_task_fmri	n/a	n/a	-1.0	n/a	n/a	n/a	n/a	n/a	n/a	n/a	n/a	ITI	poldrack-single-stim	s061	False	0
255.43	1.75	257.18	-0.7349579259124692	draw_card	1.75	columbia_card_task_fmri	14.0	0.8333333333333334	89.0	-80.0	0.1666666666666666	12.0	1.0	2.0	3.485389016944989	1.75	n/a	stim	poldrack-single-stim	s061	False	1
257.188	3.079	260.267	-2.159200350154898	draw_card	3.079	columbia_card_task_fmri	14.0	0.8181818181818181	89.0	-80.0	0.1818181818181818	12.0	2.0	2.0	4.708532586875851	3.079	n/a	stim	poldrack-single-stim	s061	False	1
260.275	2.391	262.666	-3.868291259245804	draw_card	2.391	columbia_card_task_fmri	14.0	0.8	89.0	-80.0	0.2	12.0	3.0	2.0	6.052811494158799	2.391	n/a	stim	poldrack-single-stim	s061	False	1
262.674	1.404	264.078	-5.957180148134694	end_round	1.404	columbia_card_task_fmri	14.0	0.7777777777777778	71.0	-80.0	0.2222222222222222	12.0	4.0	2.0	7.531907357610702	1.404	3.0	stim	poldrack-single-stim	s061	False	1
264.834	1.5	264.083	n/a	-1.0	2.25	columbia_card_task_fmri	n/a	n/a	-1.0	n/a	n/a	n/a	n/a	n/a	n/a	n/a	n/a	ITI	poldrack-single-stim	s061	False	0
266.34	2.144	268.484	0.9317087407541952	draw_card	2.144	columbia_card_task_fmri	15.0	0.8333333333333334	89.0	-75.0	0.1666666666666666	12.0	1.0	2.0	1.99522739023217	2.144	n/a	stim	poldrack-single-stim	s061	False	1
268.492	0.616	269.108	-0.43192762288217	draw_card	0.616	columbia_card_task_fmri	15.0	0.8181818181818181	89.0	-75.0	0.1818181818181818	12.0	2.0	2.0	3.166285959273349	0.616	2.0	stim	poldrack-single-stim	s061	False	0
269.869	1.5	269.118	n/a	-1.0	2.658	columbia_card_task_fmri	n/a	n/a	-1.0	n/a	n/a	n/a	n/a	n/a	n/a	n/a	n/a	ITI	poldrack-single-stim	s061	False	0
271.785	1.373	273.158	-0.0682912592458049	draw_card	1.373	columbia_card_task_fmri	15.0	0.8	89.0	-65.0	0.2	15.0	1.0	3.0	0.4548305279438871	1.373	n/a	stim	poldrack-single-stim	s061	False	1
273.165	0.689	273.854	-1.2111484021029473	draw_card	0.689	columbia_card_task_fmri	15.0	0.7857142857142857	89.0	-65.0	0.2142857142857142	15.0	2.0	3.0	1.2805616713853318	0.689	2.0	stim	poldrack-single-stim	s061	False	0
274.614	1.5	273.863	n/a	-1.0	2.454	columbia_card_task_fmri	n/a	n/a	-1.0	n/a	n/a	n/a	n/a	n/a	n/a	n/a	n/a	ITI	poldrack-single-stim	s061	False	0
276.325	0.545	276.87	-0.8182912592458049	draw_card	0.545	columbia_card_task_fmri	14.0	0.8125	89.0	-70.0	0.1875	16.0	1.0	3.0	1.2407449515809257	0.545	n/a	stim	poldrack-single-stim	s061	False	1
276.877	1.714	278.591	-1.868291259245804	draw_card	1.714	columbia_card_task_fmri	14.0	0.8	89.0	-70.0	0.2	16.0	2.0	3.0	2.0541850253624325	1.714	n/a	stim	poldrack-single-stim	s061	False	1
278.597	0.987	279.584	-3.0682912592458047	draw_card	0.987	columbia_card_task_fmri	14.0	0.7857142857142857	89.0	-70.0	0.2142857142857142	16.0	3.0	3.0	2.92123600731691	0.987	n/a	stim	poldrack-single-stim	s061	False	1
279.592	0.72	280.312	-4.45290664386119	end_round	0.72	columbia_card_task_fmri	14.0	0.7692307692307692	71.0	-70.0	0.2307692307692307	16.0	4.0	3.0	3.8448352708302487	0.72	3.0	stim	poldrack-single-stim	s061	False	1
281.07	1.5	280.319	n/a	-1.0	2.386	columbia_card_task_fmri	n/a	n/a	-1.0	n/a	n/a	n/a	n/a	n/a	n/a	n/a	n/a	ITI	poldrack-single-stim	s061	False	0
282.716	2.832	285.548	-0.8807912592458049	draw_card	2.832	columbia_card_task_fmri	11.0	0.6875	89.0	-30.0	0.3125	16.0	1.0	5.0	-12.531896029001825	2.832	1.0	stim	poldrack-single-stim	s061	False	0
286.307	1.5	285.556	n/a	-1.0	2.59	columbia_card_task_fmri	n/a	n/a	-1.0	n/a	n/a	n/a	n/a	n/a	n/a	n/a	n/a	ITI	poldrack-single-stim	s061	False	0
288.156	1.256	289.412	3.9317087407541953	draw_card	1.256	columbia_card_task_fmri	15.0	0.8666666666666667	89.0	-75.0	0.1333333333333333	15.0	1.0	2.0	-0.9504295129109828	1.256	n/a	stim	poldrack-single-stim	s061	False	1
289.419	0.76	290.179	3.0745658836113394	draw_card	0.76	columbia_card_task_fmri	15.0	0.8571428571428572	89.0	-75.0	0.1428571428571428	15.0	2.0	2.0	-0.0515118945894137	0.76	n/a	stim	poldrack-single-stim	s061	False	1
290.186	1.267	291.453	2.0855548946003486	draw_card	1.267	columbia_card_task_fmri	15.0	0.8461538461538461	89.0	-75.0	0.1538461538461538	15.0	3.0	2.0	0.9267425554728596	1.267	n/a	stim	poldrack-single-stim	s061	False	1
291.459	1.115	292.574	0.9317087407541952	draw_card	1.115	columbia_card_task_fmri	15.0	0.8333333333333334	89.0	-75.0	0.1666666666666666	15.0	4.0	2.0	1.99522739023217	1.115	n/a	stim	poldrack-single-stim	s061	False	1
292.581	0.934	293.515	-0.43192762288217	end_round	0.934	columbia_card_task_fmri	15.0	0.8181818181818181	71.0	-75.0	0.1818181818181818	15.0	5.0	2.0	3.166285959273349	0.934	4.0	stim	poldrack-single-stim	s061	False	1
294.273	1.5	293.522	n/a	-1.0	2.318	columbia_card_task_fmri	n/a	n/a	-1.0	n/a	n/a	n/a	n/a	n/a	n/a	n/a	n/a	ITI	poldrack-single-stim	s061	False	0
295.85	1.497	297.347	5.66504207408753	draw_card	1.497	columbia_card_task_fmri	17.0	0.8666666666666667	89.0	-75.0	0.1333333333333333	15.0	1.0	2.0	-0.2708684490520419	1.497	n/a	stim	poldrack-single-stim	s061	False	1
297.355	1.625	298.98	4.788851597897055	draw_card	1.625	columbia_card_task_fmri	17.0	0.8571428571428572	89.0	-75.0	0.1428571428571428	15.0	2.0	2.0	0.6480429026022669	1.625	n/a	stim	poldrack-single-stim	s061	False	1
298.989	1.068	300.057	3.777862586908042	end_round	1.068	columbia_card_task_fmri	17.0	0.8461538461538461	71.0	-75.0	0.1538461538461538	15.0	3.0	2.0	1.6480545779665583	1.068	2.0	stim	poldrack-single-stim	s061	False	1
300.816	1.5	300.065	n/a	-1.0	2.59	columbia_card_task_fmri	n/a	n/a	-1.0	n/a	n/a	n/a	n/a	n/a	n/a	n/a	n/a	ITI	poldrack-single-stim	s061	False	0
302.665	1.283	303.948	1.244208740754195	draw_card	1.283	columbia_card_task_fmri	2.0	0.9375	89.0	-25.0	0.0625	16.0	1.0	1.0	-24.95699385855665	1.283	n/a	stim	poldrack-single-stim	s061	False	1
303.954	0.423	304.377	1.131708740754195	draw_card	0.423	columbia_card_task_fmri	2.0	0.9333333333333332	89.0	-25.0	0.0666666666666666	16.0	2.0	1.0	-24.759606807533437	0.423	n/a	stim	poldrack-single-stim	s061	False	1
304.384	0.661	305.045	1.0031373121827667	draw_card	0.661	columbia_card_task_fmri	2.0	0.9285714285714286	89.0	-25.0	0.0714285714285714	16.0	3.0	1.0	-24.543024985985387	0.661	n/a	stim	poldrack-single-stim	s061	False	1
305.053	1.182	306.235	0.8547856638311182	draw_card	1.182	columbia_card_task_fmri	2.0	0.9230769230769232	89.0	-25.0	0.0769230769230769	16.0	4.0	1.0	-24.303980558335777	1.182	n/a	stim	poldrack-single-stim	s061	False	1
306.244	1.185	307.429	0.6817087407541953	draw_card	1.185	columbia_card_task_fmri	2.0	0.9166666666666666	89.0	-25.0	0.0833333333333333	16.0	5.0	1.0	-24.038385881750763	1.185	n/a	stim	poldrack-single-stim	s061	False	1
307.438	1.489	308.927	0.4771632862087402	end_round	1.489	columbia_card_task_fmri	2.0	0.9090909090909092	71.0	-25.0	0.0909090909090909	16.0	6.0	1.0	-23.74105711589227	1.489	5.0	stim	poldrack-single-stim	s061	False	1
309.688	1.5	308.937	n/a	-1.0	2.386	columbia_card_task_fmri	n/a	n/a	-1.0	n/a	n/a	n/a	n/a	n/a	n/a	n/a	n/a	ITI	poldrack-single-stim	s061	False	0
311.332	1.553	312.885	3.4317087407541957	draw_card	1.553	columbia_card_task_fmri	9.0	0.9375	89.0	-95.0	0.0625	16.0	1.0	1.0	-6.367103163204934	1.553	n/a	stim	poldrack-single-stim	s061	False	1
312.894	0.542	313.436	2.9983754074208626	draw_card	0.542	columbia_card_task_fmri	9.0	0.9333333333333332	89.0	-95.0	0.0666666666666666	16.0	2.0	1.0	-5.599846786798331	0.542	n/a	stim	poldrack-single-stim	s061	False	1
313.445	1.459	314.904	2.503137312182768	draw_card	1.459	columbia_card_task_fmri	9.0	0.9285714285714286	89.0	-95.0	0.0714285714285714	16.0	3.0	1.0	-4.758434915702043	1.459	n/a	stim	poldrack-single-stim	s061	False	1
314.913	0.813	315.726	1.931708740754195	draw_card	0.813	columbia_card_task_fmri	9.0	0.9230769230769232	89.0	-95.0	0.0769230769230769	16.0	4.0	1.0	-3.830259778546608	0.813	n/a	stim	poldrack-single-stim	s061	False	1
315.735	1.157	316.892	1.265042074087529	draw_card	1.157	columbia_card_task_fmri	9.0	0.9166666666666666	89.0	-95.0	0.0833333333333333	16.0	5.0	1.0	-2.7995526423702444	1.157	n/a	stim	poldrack-single-stim	s061	False	1
316.901	1.265	318.166	0.47716328620874	draw_card	1.265	columbia_card_task_fmri	9.0	0.9090909090909092	89.0	-95.0	0.0909090909090909	16.0	6.0	1.0	-1.6463185836756793	1.265	n/a	stim	poldrack-single-stim	s061	False	1
318.175	2.253	320.428	-0.4682912592458053	draw_card	2.253	columbia_card_task_fmri	9.0	0.9	89.0	-95.0	0.1	16.0	7.0	1.0	-0.344821909801567	2.253	n/a	stim	poldrack-single-stim	s061	False	1
320.437	1.336	321.773	-1.6238468148013605	end_round	1.336	columbia_card_task_fmri	9.0	0.8888888888888888	71.0	-95.0	0.1111111111111111	16.0	8.0	1.0	1.1385936023167709	1.336	7.0	stim	poldrack-single-stim	s061	False	1
322.533	1.5	321.782	n/a	-1.0	2.318	columbia_card_task_fmri	n/a	n/a	-1.0	n/a	n/a	n/a	n/a	n/a	n/a	n/a	n/a	ITI	poldrack-single-stim	s061	False	0
324.11	1.868	325.978	4.994208740754195	draw_card	1.868	columbia_card_task_fmri	11.0	0.9375	89.0	-100.0	0.0625	16.0	1.0	1.0	-4.673759194896949	1.868	n/a	stim	poldrack-single-stim	s061	False	1
325.986	0.56	326.546	4.531708740754196	draw_card	0.56	columbia_card_task_fmri	11.0	0.9333333333333332	89.0	-100.0	0.0666666666666666	16.0	2.0	1.0	-3.854794163371327	0.56	n/a	stim	poldrack-single-stim	s061	False	1
326.556	2.253	328.809	4.003137312182768	draw_card	2.253	columbia_card_task_fmri	11.0	0.9285714285714286	89.0	-100.0	0.0714285714285714	16.0	3.0	1.0	-2.9566803557140275	2.253	n/a	stim	poldrack-single-stim	s061	False	1
328.819	1.775	330.594	3.393247202292658	draw_card	1.775	columbia_card_task_fmri	11.0	0.9230769230769232	89.0	-100.0	0.0769230769230769	16.0	4.0	1.0	-1.9659612079642803	1.775	n/a	stim	poldrack-single-stim	s061	False	1
330.601	0.959	331.56	2.6817087407541957	draw_card	0.959	columbia_card_task_fmri	11.0	0.9166666666666666	89.0	-100.0	0.0833333333333333	16.0	5.0	1.0	-0.8658064076503891	0.959	n/a	stim	poldrack-single-stim	s061	False	1
331.569	1.293	332.862	1.8407996498451036	draw_card	1.293	columbia_card_task_fmri	11.0	0.9090909090909092	89.0	-100.0	0.0909090909090909	16.0	6.0	1.0	0.3651250390158544	1.293	6.0	stim	poldrack-single-stim	s061	False	0
333.622	1.5	332.871	n/a	-1.0	2.318	columbia_card_task_fmri	n/a	n/a	-1.0	n/a	n/a	n/a	n/a	n/a	n/a	n/a	n/a	ITI	poldrack-single-stim	s061	False	0
335.198	0.604	335.802	5.556708740754195	draw_card	0.604	columbia_card_task_fmri	16.0	0.875	89.0	-75.0	0.125	16.0	1.0	2.0	-1.448890510659382	0.604	n/a	stim	poldrack-single-stim	s061	False	1
335.81	0.684	336.494	4.798375407420862	draw_card	0.684	columbia_card_task_fmri	16.0	0.8666666666666667	89.0	-75.0	0.1333333333333333	16.0	2.0	2.0	-0.6106506732621853	0.684	2.0	stim	poldrack-single-stim	s061	False	0
337.253	1.5	336.502	n/a	-1.0	2.318	columbia_card_task_fmri	n/a	n/a	-1.0	n/a	n/a	n/a	n/a	n/a	n/a	n/a	n/a	ITI	poldrack-single-stim	s061	False	0
338.828	0.895	339.723	5.806708740754195	draw_card	0.895	columbia_card_task_fmri	17.0	0.875	89.0	-80.0	0.125	16.0	1.0	2.0	0.5345314830250381	0.895	n/a	stim	poldrack-single-stim	s061	False	1
339.731	0.781	340.512	4.998375407420864	draw_card	0.781	columbia_card_task_fmri	17.0	0.8666666666666667	89.0	-80.0	0.1333333333333333	16.0	2.0	2.0	1.4280897797859318	0.781	n/a	stim	poldrack-single-stim	s061	False	1
340.52	0.493	341.013	4.074565883611341	draw_card	0.493	columbia_card_task_fmri	17.0	0.8571428571428572	89.0	-80.0	0.1428571428571428	16.0	3.0	2.0	2.396983881910618	0.493	n/a	stim	poldrack-single-stim	s061	False	1
341.021	0.568	341.589	3.008631817677272	draw_card	0.568	columbia_card_task_fmri	17.0	0.8461538461538461	89.0	-80.0	0.1538461538461538	16.0	4.0	2.0	3.45138699727573	0.568	4.0	stim	poldrack-single-stim	s061	False	0
342.35	1.5	341.599	n/a	-1.0	2.386	columbia_card_task_fmri	n/a	n/a	-1.0	n/a	n/a	n/a	n/a	n/a	n/a	n/a	n/a	ITI	poldrack-single-stim	s061	False	0
354.995	1.436	356.431	0.0983754074208629	draw_card	1.436	columbia_card_task_fmri	13.0	0.8333333333333334	89.0	-70.0	0.1666666666666666	6.0	1.0	1.0	-0.6124278943305583	1.436	n/a	stim	poldrack-single-stim	s061	False	1
356.44	0.815	357.255	-2.6682912592458043	draw_card	0.815	columbia_card_task_fmri	13.0	0.8	89.0	-70.0	0.2	6.0	2.0	1.0	1.6543405716253012	0.815	n/a	stim	poldrack-single-stim	s061	False	1
357.266	0.775	358.041	-6.818291259245805	end_round	0.775	columbia_card_task_fmri	13.0	0.75	71.0	-70.0	0.25	6.0	3.0	1.0	4.393398654434503	0.775	2.0	stim	poldrack-single-stim	s061	False	1
358.801	1.5	358.05	n/a	-1.0	2.25	columbia_card_task_fmri	n/a	n/a	-1.0	n/a	n/a	n/a	n/a	n/a	n/a	n/a	n/a	ITI	poldrack-single-stim	s061	False	0
360.31	2.855	363.165	0.0983754074208629	draw_card	2.855	columbia_card_task_fmri	15.0	0.8333333333333334	89.0	-80.0	0.1666666666666666	6.0	1.0	1.0	3.8579366613378063	2.855	n/a	stim	poldrack-single-stim	s061	False	1
363.173	1.858	365.031	-3.0682912592458047	draw_card	1.858	columbia_card_task_fmri	15.0	0.8	89.0	-80.0	0.2	6.0	2.0	1.0	6.452690037579192	1.858	n/a	stim	poldrack-single-stim	s061	False	1
365.038	0.664	365.702	-7.818291259245805	end_round	0.664	columbia_card_task_fmri	15.0	0.75	71.0	-80.0	0.25	6.0	3.0	1.0	9.588026263059366	0.664	2.0	stim	poldrack-single-stim	s061	False	1
366.462	1.5	365.711	n/a	-1.0	2.386	columbia_card_task_fmri	n/a	n/a	-1.0	n/a	n/a	n/a	n/a	n/a	n/a	n/a	n/a	ITI	poldrack-single-stim	s061	False	0
368.107	3.143	371.25	1.765042074087529	draw_card	3.143	columbia_card_task_fmri	16.0	0.8333333333333334	89.0	-75.0	0.1666666666666666	6.0	1.0	1.0	2.3677632635385315	3.143	n/a	stim	poldrack-single-stim	s061	False	1
371.259	0.947	372.206	-1.2682912592458042	end_round	0.947	columbia_card_task_fmri	16.0	0.8	71.0	-75.0	0.2	6.0	2.0	1.0	4.853191872478451	0.947	1.0	stim	poldrack-single-stim	s061	False	1
372.967	1.5	372.216	n/a	-1.0	2.59	columbia_card_task_fmri	n/a	n/a	-1.0	n/a	n/a	n/a	n/a	n/a	n/a	n/a	n/a	ITI	poldrack-single-stim	s061	False	0
374.817	3.188	378.005	2.9317087407541957	draw_card	3.188	columbia_card_task_fmri	21.0	0.75	89.0	-55.0	0.25	8.0	1.0	2.0	1.3634214638598188	3.188	n/a	stim	poldrack-single-stim	s061	False	1
378.013	1.408	379.421	0.2174230264684815	end_round	1.408	columbia_card_task_fmri	21.0	0.7142857142857143	71.0	-55.0	0.2857142857142857	8.0	2.0	2.0	2.7872095877911782	1.408	1.0	stim	poldrack-single-stim	s061	False	1
380.181	1.5	379.43	n/a	-1.0	2.658	columbia_card_task_fmri	n/a	n/a	-1.0	n/a	n/a	n/a	n/a	n/a	n/a	n/a	n/a	ITI	poldrack-single-stim	s061	False	0
382.098	1.84	383.938	4.181708740754195	draw_card	1.84	columbia_card_task_fmri	26.0	0.75	89.0	-65.0	0.25	8.0	1.0	2.0	7.8564390627197405	1.84	n/a	stim	poldrack-single-stim	s061	False	1
383.948	1.173	385.121	0.9317087407541986	draw_card	1.173	columbia_card_task_fmri	26.0	0.7142857142857143	89.0	-65.0	0.2857142857142857	8.0	2.0	2.0	9.561435989343178	1.173	2.0	stim	poldrack-single-stim	s061	False	0
385.882	1.5	385.131	n/a	-1.0	2.386	columbia_card_task_fmri	n/a	n/a	-1.0	n/a	n/a	n/a	n/a	n/a	n/a	n/a	n/a	ITI	poldrack-single-stim	s061	False	0
387.528	0.547	388.075	-0.734957925912471	draw_card	0.547	columbia_card_task_fmri	15.0	0.7777777777777778	89.0	-60.0	0.2222222222222222	9.0	1.0	2.0	-0.3643349826270565	0.547	n/a	stim	poldrack-single-stim	s061	False	1
388.084	0.889	388.973	-2.8182912592458047	draw_card	0.889	columbia_card_task_fmri	15.0	0.75	89.0	-60.0	0.25	9.0	2.0	2.0	0.9305845099596476	0.889	n/a	stim	poldrack-single-stim	s061	False	1
388.981	0.575	389.556	-5.496862687817232	draw_card	0.575	columbia_card_task_fmri	15.0	0.7142857142857143	89.0	-60.0	0.2857142857142857	9.0	3.0	2.0	2.335624101665648	0.575	n/a	stim	poldrack-single-stim	s061	False	1
389.565	1.041	390.606	-9.068291259245804	end_round	1.041	columbia_card_task_fmri	15.0	0.6666666666666667	71.0	-60.0	0.3333333333333333	9.0	4.0	2.0	3.808883083357845	1.041	3.0	stim	poldrack-single-stim	s061	False	1
391.366	1.5	390.615	n/a	-1.0	2.386	columbia_card_task_fmri	n/a	n/a	-1.0	n/a	n/a	n/a	n/a	n/a	n/a	n/a	n/a	ITI	poldrack-single-stim	s061	False	0
393.01	1.428	394.438	3.631708740754197	draw_card	1.428	columbia_card_task_fmri	13.0	0.9	89.0	-90.0	0.1	10.0	1.0	1.0	-0.6446869372835522	1.428	n/a	stim	poldrack-single-stim	s061	False	1
394.447	0.708	395.155	2.4872642963097507	draw_card	0.708	columbia_card_task_fmri	13.0	0.8888888888888888	89.0	-90.0	0.1111111111111111	10.0	2.0	1.0	0.8244527734827294	0.708	n/a	stim	poldrack-single-stim	s061	False	1
395.165	1.173	396.338	1.056708740754195	draw_card	1.173	columbia_card_task_fmri	13.0	0.875	89.0	-90.0	0.125	10.0	3.0	1.0	2.5180572775839103	1.173	n/a	stim	poldrack-single-stim	s061	False	1
396.348	1.46	397.808	-0.7825769735315167	end_round	1.46	columbia_card_task_fmri	13.0	0.8571428571428572	71.0	-90.0	0.1428571428571428	10.0	4.0	1.0	4.495802020255535	1.46	3.0	stim	poldrack-single-stim	s061	False	1
398.569	1.5	397.818	n/a	-1.0	2.25	columbia_card_task_fmri	n/a	n/a	-1.0	n/a	n/a	n/a	n/a	n/a	n/a	n/a	n/a	ITI	poldrack-single-stim	s061	False	0
400.08	1.716	401.796	4.931708740754195	draw_card	1.716	columbia_card_task_fmri	15.0	0.9	89.0	-95.0	0.1	10.0	1.0	1.0	1.4544197579756108	1.716	1.0	stim	poldrack-single-stim	s061	False	0
402.558	1.5	401.807	n/a	-1.0	2.318	columbia_card_task_fmri	n/a	n/a	-1.0	n/a	n/a	n/a	n/a	n/a	n/a	n/a	n/a	ITI	poldrack-single-stim	s061	False	0
404.135	0.551	404.686	0.7317087407541958	draw_card	0.551	columbia_card_task_fmri	16.0	0.8	89.0	-65.0	0.2	10.0	1.0	2.0	0.8546631790981856	0.551	1.0	stim	poldrack-single-stim	s061	False	0
405.446	1.5	404.695	n/a	-1.0	2.25	columbia_card_task_fmri	n/a	n/a	-1.0	n/a	n/a	n/a	n/a	n/a	n/a	n/a	n/a	ITI	poldrack-single-stim	s061	False	0
406.956	0.51	407.466	-0.5682912592458049	draw_card	0.51	columbia_card_task_fmri	7.0	0.9166666666666666	89.0	-95.0	0.0833333333333333	12.0	1.0	1.0	-3.3520275966534605	0.51	n/a	stim	poldrack-single-stim	s061	False	1
407.474	0.516	407.99	-1.3410185319730783	draw_card	0.516	columbia_card_task_fmri	7.0	0.9090909090909092	89.0	-95.0	0.0909090909090909	12.0	2.0	1.0	-2.220993714041242	0.516	n/a	stim	poldrack-single-stim	s061	False	1
408.001	0.406	408.407	-2.268291259245805	draw_card	0.406	columbia_card_task_fmri	7.0	0.9	89.0	-95.0	0.1	12.0	3.0	1.0	-0.9445493200664394	0.406	n/a	stim	poldrack-single-stim	s061	False	1
408.417	0.867	409.284	-3.401624592579138	draw_card	0.867	columbia_card_task_fmri	7.0	0.8888888888888888	89.0	-95.0	0.1111111111111111	12.0	4.0	1.0	0.510314469568339	0.867	n/a	stim	poldrack-single-stim	s061	False	1
409.295	0.531	409.826	-4.818291259245805	draw_card	0.531	columbia_card_task_fmri	7.0	0.875	89.0	-95.0	0.125	12.0	5.0	1.0	2.1874632135225447	0.531	5.0	stim	poldrack-single-stim	s061	False	0
410.588	1.5	409.837	n/a	-1.0	2.25	columbia_card_task_fmri	n/a	n/a	-1.0	n/a	n/a	n/a	n/a	n/a	n/a	n/a	n/a	ITI	poldrack-single-stim	s061	False	0
412.098	0.438	412.536	0.0983754074208629	draw_card	0.438	columbia_card_task_fmri	14.0	0.8333333333333334	89.0	-75.0	0.1666666666666666	12.0	1.0	2.0	1.62269470883194	0.438	1.0	stim	poldrack-single-stim	s061	False	0
413.299	1.5	412.548	n/a	-1.0	2.386	columbia_card_task_fmri	n/a	n/a	-1.0	n/a	n/a	n/a	n/a	n/a	n/a	n/a	n/a	ITI	poldrack-single-stim	s061	False	0
414.945	0.462	415.407	1.765042074087529	draw_card	0.462	columbia_card_task_fmri	15.0	0.8333333333333334	89.0	-70.0	0.1666666666666666	12.0	1.0	2.0	0.1325981535359659	0.462	n/a	stim	poldrack-single-stim	s061	False	1
415.416	0.864	416.28	0.4771632862087382	draw_card	0.864	columbia_card_task_fmri	15.0	0.8181818181818181	89.0	-70.0	0.1818181818181818	12.0	2.0	2.0	1.238548020145959	0.864	2.0	stim	poldrack-single-stim	s061	False	0
417.041	1.5	416.29	n/a	-1.0	2.386	columbia_card_task_fmri	n/a	n/a	-1.0	n/a	n/a	n/a	n/a	n/a	n/a	n/a	n/a	ITI	poldrack-single-stim	s061	False	0
418.686	0.372	419.058	-0.2682912592458042	draw_card	0.372	columbia_card_task_fmri	16.0	0.8	89.0	-70.0	0.2	15.0	1.0	3.0	2.853884778815821	0.372	1.0	stim	poldrack-single-stim	s061	False	0
419.822	1.5	419.071	n/a	-1.0	2.726	columbia_card_task_fmri	n/a	n/a	-1.0	n/a	n/a	n/a	n/a	n/a	n/a	n/a	n/a	ITI	poldrack-single-stim	s061	False	0
421.809	1.027	422.836	0.119208740754195	end_round	1.027	columbia_card_task_fmri	14.0	0.8125	71.0	-65.0	0.1875	16.0	1.0	3.0	-0.7099795831448894	1.027	0.0	stim	poldrack-single-stim	s061	False	1
423.599	1.5	422.848	n/a	-1.0	2.454	columbia_card_task_fmri	n/a	n/a	-1.0	n/a	n/a	n/a	n/a	n/a	n/a	n/a	n/a	ITI	poldrack-single-stim	s061	False	0
425.313	1.22	426.533	-0.1307912592458049	draw_card	1.22	columbia_card_task_fmri	16.0	0.8125	89.0	-75.0	0.1875	16.0	1.0	3.0	3.9719138000273695	1.22	n/a	stim	poldrack-single-stim	s061	False	1
426.543	0.619	427.162	-1.2682912592458042	draw_card	0.619	columbia_card_task_fmri	16.0	0.8	89.0	-75.0	0.2	16.0	2.0	3.0	4.853191872478451	0.619	n/a	stim	poldrack-single-stim	s061	False	1
427.171	0.502	427.673	-2.568291259245803	draw_card	0.502	columbia_card_task_fmri	16.0	0.7857142857142857	89.0	-75.0	0.2142857142857142	16.0	3.0	3.0	5.792549144868506	0.502	n/a	stim	poldrack-single-stim	s061	False	1
427.684	0.528	428.212	-4.068291259245808	draw_card	0.528	columbia_card_task_fmri	16.0	0.7692307692307692	89.0	-75.0	0.2307692307692307	16.0	4.0	3.0	6.793167645661956	0.528	n/a	stim	poldrack-single-stim	s061	False	1
428.222	0.643	428.865	-5.818291259245805	draw_card	0.643	columbia_card_task_fmri	16.0	0.75	89.0	-75.0	0.25	16.0	5.0	3.0	7.8564390627197405	0.643	n/a	stim	poldrack-single-stim	s061	False	1
428.876	1.176	430.052	-7.886473077427621	draw_card	1.176	columbia_card_task_fmri	16.0	0.7272727272727273	89.0	-75.0	0.2727272727272727	16.0	6.0	3.0	8.979899085259628	1.176	n/a	stim	poldrack-single-stim	s061	False	1
430.064	1.657	431.721	-10.368291259245806	draw_card	1.657	columbia_card_task_fmri	16.0	0.7	89.0	-75.0	0.3	16.0	7.0	3.0	10.153115446548892	1.657	7.0	stim	poldrack-single-stim	s061	False	0
432.484	1.5	431.733	n/a	-1.0	2.318	columbia_card_task_fmri	n/a	n/a	-1.0	n/a	n/a	n/a	n/a	n/a	n/a	n/a	n/a	ITI	poldrack-single-stim	s061	False	0
434.064	0.449	434.513	4.131708740754196	draw_card	0.449	columbia_card_task_fmri	16.0	0.8666666666666667	89.0	-80.0	0.1333333333333333	15.0	1.0	2.0	1.088292179845144	0.449	1.0	stim	poldrack-single-stim	s061	False	0
435.275	1.5	434.524	n/a	-1.0	2.318	columbia_card_task_fmri	n/a	n/a	-1.0	n/a	n/a	n/a	n/a	n/a	n/a	n/a	n/a	ITI	poldrack-single-stim	s061	False	0
436.854	0.437	437.291	4.998375407420864	draw_card	0.437	columbia_card_task_fmri	17.0	0.8666666666666667	89.0	-80.0	0.1333333333333333	15.0	1.0	2.0	1.4280897797859318	0.437	n/a	stim	poldrack-single-stim	s061	False	1
437.303	0.299	437.602	4.074565883611341	draw_card	0.299	columbia_card_task_fmri	17.0	0.8571428571428572	89.0	-80.0	0.1428571428571428	15.0	2.0	2.0	2.396983881910618	0.299	2.0	stim	poldrack-single-stim	s061	False	0
438.365	1.5	437.614	n/a	-1.0	2.59	columbia_card_task_fmri	n/a	n/a	-1.0	n/a	n/a	n/a	n/a	n/a	n/a	n/a	n/a	ITI	poldrack-single-stim	s061	False	0
440.217	0.444	440.661	0.9317087407541952	draw_card	0.444	columbia_card_task_fmri	1.0	0.9375	89.0	-15.0	0.0625	16.0	1.0	1.0	-27.575254350104075	0.444	n/a	stim	poldrack-single-stim	s061	False	1
440.672	0.41	441.082	0.8650420740875284	draw_card	0.41	columbia_card_task_fmri	1.0	0.9333333333333332	89.0	-15.0	0.0666666666666666	16.0	2.0	1.0	-27.460319691376824	0.41	n/a	stim	poldrack-single-stim	s061	False	1
441.092	0.686	441.778	0.7888515978970523	end_round	0.686	columbia_card_task_fmri	1.0	0.9285714285714286	71.0	-15.0	0.0714285714285714	16.0	3.0	1.0	-27.334079728912307	0.686	2.0	stim	poldrack-single-stim	s061	False	1
442.541	1.5	441.79	n/a	-1.0	2.726	columbia_card_task_fmri	n/a	n/a	-1.0	n/a	n/a	n/a	n/a	n/a	n/a	n/a	n/a	ITI	poldrack-single-stim	s061	False	0
444.531	0.518	445.049	4.056708740754195	draw_card	0.518	columbia_card_task_fmri	10.0	0.9375	89.0	-100.0	0.0625	16.0	1.0	1.0	-4.915673932445852	0.518	n/a	stim	poldrack-single-stim	s061	False	1
445.062	0.256	445.318	3.5983754074208623	draw_card	0.256	columbia_card_task_fmri	10.0	0.9333333333333332	89.0	-100.0	0.0666666666666666	16.0	2.0	1.0	-4.10409560228965	0.256	n/a	stim	poldrack-single-stim	s061	False	1
445.33	0.252	445.582	3.0745658836113394	draw_card	0.252	columbia_card_task_fmri	10.0	0.9285714285714286	89.0	-100.0	0.0714285714285714	16.0	3.0	1.0	-3.214081814181	0.252	n/a	stim	poldrack-single-stim	s061	False	1
445.596	0.29	445.886	2.4701702792157345	draw_card	0.29	columbia_card_task_fmri	10.0	0.9230769230769232	89.0	-100.0	0.0769230769230769	16.0	4.0	1.0	-2.2322972595166526	0.29	n/a	stim	poldrack-single-stim	s061	False	1
445.9	0.515	446.415	1.765042074087529	draw_card	0.515	columbia_card_task_fmri	10.0	0.9166666666666666	89.0	-100.0	0.0833333333333333	16.0	5.0	1.0	-1.142063279200887	0.515	n/a	stim	poldrack-single-stim	s061	False	1
446.428	0.615	447.043	0.9317087407541932	end_round	0.615	columbia_card_task_fmri	10.0	0.9090909090909092	71.0	-100.0	0.0909090909090909	16.0	6.0	1.0	0.0777688257728925	0.615	5.0	stim	poldrack-single-stim	s061	False	1
447.806	1.5	447.055	n/a	-1.0	2.522	columbia_card_task_fmri	n/a	n/a	-1.0	n/a	n/a	n/a	n/a	n/a	n/a	n/a	n/a	ITI	poldrack-single-stim	s061	False	0
449.592	0.511	450.103	4.681708740754195	draw_card	0.511	columbia_card_task_fmri	15.0	0.875	89.0	-75.0	0.125	16.0	1.0	2.0	-1.7794492948432676	0.511	1.0	stim	poldrack-single-stim	s061	False	0
450.866	1.5	450.115	n/a	-1.0	3.134	columbia_card_task_fmri	n/a	n/a	-1.0	n/a	n/a	n/a	n/a	n/a	n/a	n/a	n/a	ITI	poldrack-single-stim	s061	False	0
453.263	0.447	453.71	4.931708740754195	draw_card	0.447	columbia_card_task_fmri	16.0	0.875	89.0	-80.0	0.125	16.0	1.0	2.0	0.203953417187801	0.447	n/a	stim	poldrack-single-stim	s061	False	1
453.721	0.253	453.974	4.131708740754196	draw_card	0.253	columbia_card_task_fmri	16.0	0.8666666666666667	89.0	-80.0	0.1333333333333333	16.0	2.0	2.0	1.088292179845144	0.253	n/a	stim	poldrack-single-stim	s061	False	1
453.984	0.258	454.242	3.2174230264684835	draw_card	0.258	columbia_card_task_fmri	16.0	0.8571428571428572	89.0	-80.0	0.1428571428571428	16.0	3.0	2.0	2.047189901495596	0.258	3.0	stim	poldrack-single-stim	s061	False	0
455.005	1.5	454.254	n/a	-1.0	2.386	columbia_card_task_fmri	n/a	n/a	-1.0	n/a	n/a	n/a	n/a	n/a	n/a	n/a	n/a	ITI	poldrack-single-stim	s061	False	0
456.655	0.408	457.063	2.1192087407541957	draw_card	0.408	columbia_card_task_fmri	4.0	0.6875	89.0	-5.0	0.3125	16.0	1.0	5.0	-27.284338605923946	0.408	n/a	stim	poldrack-single-stim	s061	False	1
457.075	0.335	457.41	1.9317087407541955	draw_card	0.335	columbia_card_task_fmri	4.0	0.6666666666666667	89.0	-5.0	0.3333333333333333	16.0	2.0	5.0	-27.21498990777045	0.335	n/a	stim	poldrack-single-stim	s061	False	1
457.425	0.365	457.79	1.7174230264684804	draw_card	0.365	columbia_card_task_fmri	4.0	0.6428571428571428	89.0	-5.0	0.3571428571428571	16.0	3.0	5.0	-27.146812422086377	0.365	n/a	stim	poldrack-single-stim	s061	False	1
457.802	0.399	458.201	1.4701702792157336	draw_card	0.399	columbia_card_task_fmri	4.0	0.6153846153846154	89.0	-5.0	0.3846153846153846	16.0	4.0	5.0	-27.08216038427103	0.399	n/a	stim	poldrack-single-stim	s061	False	1
458.212	0.26	458.472	1.1817087407541946	draw_card	0.26	columbia_card_task_fmri	4.0	0.5833333333333333	89.0	-5.0	0.4166666666666667	16.0	5.0	5.0	-27.024904038485857	0.26	n/a	stim	poldrack-single-stim	s061	False	1
458.484	0.302	458.786	0.8407996498451042	draw_card	0.302	columbia_card_task_fmri	4.0	0.5454545454545454	89.0	-5.0	0.4545454545454545	16.0	6.0	5.0	-26.98153408486148	0.302	n/a	stim	poldrack-single-stim	s061	False	1
458.798	0.596	459.394	0.4317087407541951	draw_card	0.596	columbia_card_task_fmri	4.0	0.5	89.0	-5.0	0.5	16.0	7.0	5.0	-26.963289019629585	0.596	7.0	stim	poldrack-single-stim	s061	False	0
460.157	1.5	459.406	n/a	-1.0	2.386	columbia_card_task_fmri	n/a	n/a	-1.0	n/a	n/a	n/a	n/a	n/a	n/a	n/a	n/a	ITI	poldrack-single-stim	s061	False	0
461.804	0.263	462.067	-0.7349579259124692	draw_card	0.263	columbia_card_task_fmri	14.0	0.8333333333333334	89.0	-80.0	0.1666666666666666	6.0	1.0	1.0	3.485389016944989	0.263	n/a	stim	poldrack-single-stim	s061	False	1
462.078	0.305	462.383	-3.868291259245804	draw_card	0.305	columbia_card_task_fmri	14.0	0.8	89.0	-80.0	0.2	6.0	2.0	1.0	6.052811494158799	0.305	n/a	stim	poldrack-single-stim	s061	False	1
462.394	0.396	462.79	-8.568291259245806	draw_card	0.396	columbia_card_task_fmri	14.0	0.75	89.0	-80.0	0.25	6.0	3.0	1.0	9.155125765444383	0.396	n/a	stim	poldrack-single-stim	s061	False	1
462.797	0.49	463.287	-16.401624592579132	end_round	0.49	columbia_card_task_fmri	14.0	0.6666666666666667	71.0	-80.0	0.3333333333333333	6.0	4.0	1.0	12.76308860208746	0.49	3.0	stim	poldrack-single-stim	s061	False	1
464.049	1.5	463.298	n/a	-1.0	2.318	columbia_card_task_fmri	n/a	n/a	-1.0	n/a	n/a	n/a	n/a	n/a	n/a	n/a	n/a	ITI	poldrack-single-stim	s061	False	0
465.625	0.593	466.218	0.9317087407541952	draw_card	0.593	columbia_card_task_fmri	15.0	0.8333333333333334	89.0	-75.0	0.1666666666666666	6.0	1.0	1.0	1.99522739023217	0.593	n/a	stim	poldrack-single-stim	s061	False	1
466.227	0.391	466.618	-2.0682912592458047	draw_card	0.391	columbia_card_task_fmri	15.0	0.8	89.0	-75.0	0.2	6.0	2.0	1.0	4.453324297707294	0.391	n/a	stim	poldrack-single-stim	s061	False	1
466.628	0.429	467.057	-6.568291259245805	draw_card	0.429	columbia_card_task_fmri	15.0	0.75	89.0	-75.0	0.25	6.0	3.0	1.0	7.423548698923771	0.429	3.0	stim	poldrack-single-stim	s061	False	0
467.82	1.5	467.069	n/a	-1.0	2.318	columbia_card_task_fmri	n/a	n/a	-1.0	n/a	n/a	n/a	n/a	n/a	n/a	n/a	n/a	ITI	poldrack-single-stim	s061	False	0
469.398	0.199	469.597	2.598375407420863	draw_card	0.199	columbia_card_task_fmri	16.0	0.8333333333333334	89.0	-70.0	0.1666666666666666	6.0	1.0	1.0	0.5051169286146937	0.199	n/a	stim	poldrack-single-stim	s061	False	1
469.609	0.524	470.133	-0.2682912592458042	draw_card	0.524	columbia_card_task_fmri	16.0	0.8	89.0	-70.0	0.2	6.0	2.0	1.0	2.853884778815821	0.524	n/a	stim	poldrack-single-stim	s061	False	1
470.144	0.476	470.62	-4.568291259245805	draw_card	0.476	columbia_card_task_fmri	16.0	0.75	89.0	-70.0	0.25	6.0	3.0	1.0	5.692015681552345	0.476	n/a	stim	poldrack-single-stim	s061	False	1
470.633	0.672	471.305	-11.73495792591247	end_round	0.672	columbia_card_task_fmri	16.0	0.6666666666666667	71.0	-70.0	0.3333333333333333	6.0	4.0	1.0	8.992763276624917	0.672	3.0	stim	poldrack-single-stim	s061	False	1
472.068	1.5	471.317	n/a	-1.0	2.862	columbia_card_task_fmri	n/a	n/a	-1.0	n/a	n/a	n/a	n/a	n/a	n/a	n/a	n/a	ITI	poldrack-single-stim	s061	False	0
474.192	0.908	475.1	3.1817087407541957	draw_card	0.908	columbia_card_task_fmri	23.0	0.75	89.0	-60.0	0.25	8.0	1.0	2.0	4.393398654434503	0.908	n/a	stim	poldrack-single-stim	s061	False	1
475.112	0.673	475.785	0.2174230264684833	draw_card	0.673	columbia_card_task_fmri	23.0	0.7142857142857143	89.0	-60.0	0.2857142857142857	8.0	2.0	2.0	5.948421597933969	0.673	n/a	stim	poldrack-single-stim	s061	False	1
475.794	0.877	476.671	-3.734957925912469	draw_card	0.877	columbia_card_task_fmri	23.0	0.6666666666666667	89.0	-60.0	0.3333333333333333	8.0	3.0	2.0	7.578936529002266	0.877	n/a	stim	poldrack-single-stim	s061	False	1
476.683	0.759	477.442	-9.268291259245808	end_round	0.759	columbia_card_task_fmri	23.0	0.6	71.0	-60.0	0.4	8.0	4.0	2.0	9.113472439995636	0.759	3.0	stim	poldrack-single-stim	s061	False	1
478.203	1.5	477.452	n/a	-1.0	2.726	columbia_card_task_fmri	n/a	n/a	-1.0	n/a	n/a	n/a	n/a	n/a	n/a	n/a	n/a	ITI	poldrack-single-stim	s061	False	0
480.189	0.478	480.667	3.6817087407541953	draw_card	0.478	columbia_card_task_fmri	27.0	0.75	89.0	-70.0	0.25	8.0	1.0	2.0	10.453834196154734	0.478	n/a	stim	poldrack-single-stim	s061	False	1
480.677	0.441	481.118	0.2174230264684797	draw_card	0.441	columbia_card_task_fmri	27.0	0.7142857142857143	89.0	-70.0	0.2857142857142857	8.0	2.0	2.0	12.27130685413078	0.441	n/a	stim	poldrack-single-stim	s061	False	1
481.131	1.0	482.131	-4.401624592579133	draw_card	1.0	columbia_card_task_fmri	27.0	0.6666666666666667	89.0	-70.0	0.3333333333333333	8.0	3.0	2.0	14.17699932064954	1.0	n/a	stim	poldrack-single-stim	s061	False	1
482.142	0.611	482.753	-10.868291259245806	end_round	0.611	columbia_card_task_fmri	27.0	0.6	71.0	-70.0	0.4	8.0	4.0	2.0	15.970503596663594	0.611	3.0	stim	poldrack-single-stim	s061	False	1
483.518	1.5	482.767	n/a	-1.0	2.25	columbia_card_task_fmri	n/a	n/a	-1.0	n/a	n/a	n/a	n/a	n/a	n/a	n/a	n/a	ITI	poldrack-single-stim	s061	False	0
485.031	0.799	485.83	-1.0682912592458031	draw_card	0.799	columbia_card_task_fmri	16.0	0.7777777777777778	89.0	-65.0	0.2222222222222222	9.0	1.0	2.0	2.1290727844984225	0.799	n/a	stim	poldrack-single-stim	s061	False	1
485.843	1.397	487.24	-3.3182912592458047	draw_card	1.397	columbia_card_task_fmri	16.0	0.75	89.0	-65.0	0.25	9.0	2.0	2.0	3.527671289111193	1.397	n/a	stim	poldrack-single-stim	s061	False	1
487.253	0.675	487.928	-6.211148402102945	end_round	0.675	columbia_card_task_fmri	16.0	0.7142857142857143	71.0	-65.0	0.2857142857142857	9.0	3.0	2.0	5.04519938119152	0.675	2.0	stim	poldrack-single-stim	s061	False	1
488.691	1.5	487.94	n/a	-1.0	2.318	columbia_card_task_fmri	n/a	n/a	-1.0	n/a	n/a	n/a	n/a	n/a	n/a	n/a	n/a	ITI	poldrack-single-stim	s061	False	0
490.27	0.461	490.731	4.131708740754196	draw_card	0.461	columbia_card_task_fmri	13.0	0.9	89.0	-85.0	0.1	10.0	1.0	1.0	-2.1439707865691204	0.461	n/a	stim	poldrack-single-stim	s061	False	1
490.742	0.578	491.32	3.042819851865306	draw_card	0.578	columbia_card_task_fmri	13.0	0.8888888888888888	89.0	-85.0	0.1111111111111111	10.0	2.0	1.0	-0.7462119523856501	0.578	n/a	stim	poldrack-single-stim	s061	False	1
491.335	0.713	492.048	1.681708740754195	draw_card	0.713	columbia_card_task_fmri	13.0	0.875	89.0	-85.0	0.125	10.0	3.0	1.0	0.8651124215134907	0.713	n/a	stim	poldrack-single-stim	s061	False	1
492.06	0.503	492.563	-0.0682912592458031	end_round	0.503	columbia_card_task_fmri	13.0	0.8571428571428572	71.0	-85.0	0.1428571428571428	10.0	4.0	1.0	2.746780577657905	0.503	3.0	stim	poldrack-single-stim	s061	False	1
493.326	1.5	492.575	n/a	-1.0	2.454	columbia_card_task_fmri	n/a	n/a	-1.0	n/a	n/a	n/a	n/a	n/a	n/a	n/a	n/a	ITI	poldrack-single-stim	s061	False	0
495.042	0.475	495.517	-0.8682912592458039	draw_card	0.475	columbia_card_task_fmri	14.0	0.8	89.0	-65.0	0.2	10.0	1.0	2.0	0.0550021107433131	0.475	n/a	stim	poldrack-single-stim	s061	False	1
495.528	1.82	497.348	-2.6238468148013583	draw_card	1.82	columbia_card_task_fmri	14.0	0.7777777777777778	89.0	-65.0	0.2222222222222222	10.0	2.0	2.0	1.297919480464433	1.82	n/a	stim	poldrack-single-stim	s061	False	1
497.36	0.522	497.882	-4.818291259245805	end_round	0.522	columbia_card_task_fmri	14.0	0.75	71.0	-65.0	0.25	10.0	3.0	2.0	2.661959006156298	0.522	2.0	stim	poldrack-single-stim	s061	False	1
498.644	1.5	497.893	n/a	-1.0	2.522	columbia_card_task_fmri	n/a	n/a	-1.0	n/a	n/a	n/a	n/a	n/a	n/a	n/a	n/a	ITI	poldrack-single-stim	s061	False	0
500.428	1.32	501.748	0.5317087407541965	draw_card	1.32	columbia_card_task_fmri	17.0	0.8	89.0	-70.0	0.2	10.0	1.0	2.0	3.2537398293820807	1.32	n/a	stim	poldrack-single-stim	s061	False	1
501.761	0.7	502.461	-1.401624592579137	draw_card	0.7	columbia_card_task_fmri	17.0	0.7777777777777778	89.0	-70.0	0.2222222222222222	10.0	2.0	2.0	4.6226226120701845	0.7	n/a	stim	poldrack-single-stim	s061	False	1
502.474	0.556	503.03	-3.8182912592458047	end_round	0.556	columbia_card_task_fmri	17.0	0.75	71.0	-70.0	0.25	10.0	3.0	2.0	6.124894474218412	0.556	2.0	stim	poldrack-single-stim	s061	False	1
503.794	1.5	503.043	n/a	-1.0	2.318	columbia_card_task_fmri	n/a	n/a	-1.0	n/a	n/a	n/a	n/a	n/a	n/a	n/a	n/a	ITI	poldrack-single-stim	s061	False	0
505.375	0.536	505.911	-0.734957925912471	draw_card	0.536	columbia_card_task_fmri	13.0	0.8333333333333334	89.0	-75.0	0.1666666666666666	12.0	1.0	2.0	1.2501653280665188	0.536	n/a	stim	poldrack-single-stim	s061	False	1
505.922	0.5	506.422	-2.0682912592458065	draw_card	0.5	columbia_card_task_fmri	13.0	0.8181818181818181	89.0	-75.0	0.1818181818181818	12.0	2.0	2.0	2.395180765210963	0.5	n/a	stim	poldrack-single-stim	s061	False	1
506.434	0.451	506.885	-3.668291259245804	draw_card	0.451	columbia_card_task_fmri	13.0	0.8	89.0	-75.0	0.2	12.0	3.0	2.0	3.653598172503738	0.451	n/a	stim	poldrack-single-stim	s061	False	1
506.897	0.934	507.831	-5.623846814801358	draw_card	0.934	columbia_card_task_fmri	13.0	0.7777777777777778	89.0	-75.0	0.2222222222222222	12.0	4.0	2.0	5.0382260225179	0.934	n/a	stim	poldrack-single-stim	s061	False	1
507.845	0.602	508.447	-8.068291259245806	end_round	0.602	columbia_card_task_fmri	13.0	0.75	71.0	-75.0	0.25	12.0	5.0	2.0	6.557776308896312	0.602	4.0	stim	poldrack-single-stim	s061	False	1
509.212	1.5	508.461	n/a	-1.0	2.522	columbia_card_task_fmri	n/a	n/a	-1.0	n/a	n/a	n/a	n/a	n/a	n/a	n/a	n/a	ITI	poldrack-single-stim	s061	False	0
510.998	0.764	511.762	0.9317087407541969	draw_card	0.764	columbia_card_task_fmri	14.0	0.8333333333333334	89.0	-70.0	0.1666666666666666	12.0	1.0	2.0	-0.2399168330496266	0.764	n/a	stim	poldrack-single-stim	s061	False	1
511.777	1.044	512.821	-0.3410185319730801	draw_card	1.044	columbia_card_task_fmri	14.0	0.8181818181818181	89.0	-70.0	0.1818181818181818	12.0	2.0	2.0	0.853010927417106	1.044	n/a	stim	poldrack-single-stim	s061	False	1
512.833	1.241	514.074	-1.868291259245804	end_round	1.241	columbia_card_task_fmri	14.0	0.8	71.0	-70.0	0.2	12.0	3.0	2.0	2.0541850253624325	1.241	2.0	stim	poldrack-single-stim	s061	False	1
514.836	1.5	514.085	n/a	-1.0	2.998	columbia_card_task_fmri	n/a	n/a	-1.0	n/a	n/a	n/a	n/a	n/a	n/a	n/a	n/a	ITI	poldrack-single-stim	s061	False	0
517.096	0.526	517.622	0.9317087407541969	draw_card	0.526	columbia_card_task_fmri	16.0	0.8333333333333334	89.0	-80.0	0.1666666666666666	12.0	1.0	2.0	4.230487019999256	0.526	n/a	stim	poldrack-single-stim	s061	False	1
517.635	0.955	518.59	-0.5228367137912617	draw_card	0.955	columbia_card_task_fmri	16.0	0.8181818181818181	89.0	-80.0	0.1818181818181818	12.0	2.0	2.0	5.479672511435918	0.955	n/a	stim	poldrack-single-stim	s061	False	1
518.603	0.785	519.388	-2.268291259245804	draw_card	0.785	columbia_card_task_fmri	16.0	0.8	89.0	-80.0	0.2	12.0	3.0	2.0	6.852571110216548	0.785	n/a	stim	poldrack-single-stim	s061	False	1
519.401	1.357	520.758	-4.401624592579139	draw_card	1.357	columbia_card_task_fmri	16.0	0.7777777777777778	89.0	-80.0	0.2222222222222222	12.0	4.0	2.0	8.363155486029921	1.357	n/a	stim	poldrack-single-stim	s061	False	1
520.772	0.698	521.47	-7.068291259245805	end_round	0.698	columbia_card_task_fmri	16.0	0.75	71.0	-80.0	0.25	12.0	5.0	2.0	10.0209290973738	0.698	4.0	stim	poldrack-single-stim	s061	False	1
522.231	1.5	521.48	n/a	-1.0	2.318	columbia_card_task_fmri	n/a	n/a	-1.0	n/a	n/a	n/a	n/a	n/a	n/a	n/a	n/a	ITI	poldrack-single-stim	s061	False	0
523.813	0.635	524.448	0.7317087407541958	draw_card	0.635	columbia_card_task_fmri	16.0	0.8	89.0	-65.0	0.2	15.0	1.0	3.0	0.8546631790981856	0.635	1.0	stim	poldrack-single-stim	s061	False	0
525.211	1.5	524.46	n/a	-1.0	2.25	columbia_card_task_fmri	n/a	n/a	-1.0	n/a	n/a	n/a	n/a	n/a	n/a	n/a	n/a	ITI	poldrack-single-stim	s061	False	0
526.723	1.076	527.799	-0.9432912592458048	draw_card	1.076	columbia_card_task_fmri	15.0	0.8125	89.0	-75.0	0.1875	16.0	1.0	3.0	3.5817371337882697	1.076	n/a	stim	poldrack-single-stim	s061	False	1
527.81	0.697	528.507	-2.0682912592458047	draw_card	0.697	columbia_card_task_fmri	15.0	0.8	89.0	-75.0	0.2	16.0	2.0	3.0	4.453324297707294	0.697	n/a	stim	poldrack-single-stim	s061	False	1
528.519	0.596	529.115	-3.3540055449600894	draw_card	0.596	columbia_card_task_fmri	15.0	0.7857142857142857	89.0	-75.0	0.2142857142857142	16.0	3.0	3.0	5.382352337461331	0.596	n/a	stim	poldrack-single-stim	s061	False	1
529.128	0.736	529.864	-4.837522028476578	draw_card	0.736	columbia_card_task_fmri	15.0	0.7692307692307692	89.0	-75.0	0.2307692307692307	16.0	4.0	3.0	6.371968330214568	0.736	4.0	stim	poldrack-single-stim	s061	False	0
530.63	1.5	529.879	n/a	-1.0	2.454	columbia_card_task_fmri	n/a	n/a	-1.0	n/a	n/a	n/a	n/a	n/a	n/a	n/a	n/a	ITI	poldrack-single-stim	s061	False	0
532.349	0.23	532.579	-0.3807912592458049	draw_card	0.23	columbia_card_task_fmri	14.0	0.6875	89.0	-35.0	0.3125	16.0	1.0	5.0	-8.827519996119118	0.23	1.0	stim	poldrack-single-stim	s061	False	0
533.345	1.5	532.594	n/a	-1.0	2.318	columbia_card_task_fmri	n/a	n/a	-1.0	n/a	n/a	n/a	n/a	n/a	n/a	n/a	n/a	ITI	poldrack-single-stim	s061	False	0
534.925	0.542	535.467	4.798375407420862	draw_card	0.542	columbia_card_task_fmri	16.0	0.8666666666666667	89.0	-75.0	0.1333333333333333	15.0	1.0	2.0	-0.6106506732621853	0.542	n/a	stim	poldrack-single-stim	s061	False	1
535.48	0.805	536.285	3.931708740754197	draw_card	0.805	columbia_card_task_fmri	16.0	0.8571428571428572	89.0	-75.0	0.1428571428571428	15.0	2.0	2.0	0.2982638599244431	0.805	n/a	stim	poldrack-single-stim	s061	False	1
536.298	0.598	536.896	2.9317087407541957	draw_card	0.598	columbia_card_task_fmri	16.0	0.8461538461538461	89.0	-75.0	0.1538461538461538	15.0	3.0	2.0	1.2873969720668477	0.598	n/a	stim	poldrack-single-stim	s061	False	1
536.912	0.478	537.39	1.765042074087529	draw_card	0.478	columbia_card_task_fmri	16.0	0.8333333333333334	89.0	-75.0	0.1666666666666666	15.0	4.0	2.0	2.3677632635385315	0.478	n/a	stim	poldrack-single-stim	s061	False	1
537.401	0.643	538.044	0.3862541952996483	draw_card	0.643	columbia_card_task_fmri	16.0	0.8181818181818181	89.0	-75.0	0.1818181818181818	15.0	5.0	2.0	3.551843235472244	0.643	n/a	stim	poldrack-single-stim	s061	False	1
538.057	0.712	538.769	-1.2682912592458042	end_round	0.712	columbia_card_task_fmri	16.0	0.8	71.0	-75.0	0.2	15.0	6.0	2.0	4.853191872478451	0.712	5.0	stim	poldrack-single-stim	s061	False	1
539.533	1.5	538.782	n/a	-1.0	2.318	columbia_card_task_fmri	n/a	n/a	-1.0	n/a	n/a	n/a	n/a	n/a	n/a	n/a	n/a	ITI	poldrack-single-stim	s061	False	0
541.12	0.771	541.891	5.4650420740875285	draw_card	0.771	columbia_card_task_fmri	16.0	0.8666666666666667	89.0	-70.0	0.1333333333333333	15.0	1.0	2.0	-2.309508666868279	0.771	n/a	stim	poldrack-single-stim	s061	False	1
541.903	0.483	542.386	4.645994455039911	draw_card	0.483	columbia_card_task_fmri	16.0	0.8571428571428572	89.0	-70.0	0.1428571428571428	15.0	2.0	2.0	-1.4505797390437465	0.483	n/a	stim	poldrack-single-stim	s061	False	1
542.399	1.195	543.594	3.700939509984964	draw_card	1.195	columbia_card_task_fmri	16.0	0.8461538461538461	89.0	-70.0	0.1538461538461538	15.0	3.0	2.0	-0.5158409946708602	1.195	3.0	stim	poldrack-single-stim	s061	False	0
544.361	1.5	543.61	n/a	-1.0	2.59	columbia_card_task_fmri	n/a	n/a	-1.0	n/a	n/a	n/a	n/a	n/a	n/a	n/a	n/a	ITI	poldrack-single-stim	s061	False	0
546.215	0.732	546.947	2.8067087407541957	draw_card	0.732	columbia_card_task_fmri	8.0	0.9375	89.0	-90.0	0.0625	16.0	1.0	1.0	-7.818417475735529	0.732	n/a	stim	poldrack-single-stim	s061	False	1
546.956	1.523	548.479	2.398375407420862	draw_card	1.523	columbia_card_task_fmri	8.0	0.9333333333333332	89.0	-90.0	0.0666666666666666	16.0	2.0	1.0	-7.095486440707532	1.523	n/a	stim	poldrack-single-stim	s061	False	1
548.494	0.498	548.992	1.931708740754196	draw_card	0.498	columbia_card_task_fmri	8.0	0.9285714285714286	89.0	-90.0	0.0714285714285714	16.0	3.0	1.0	-6.302679979518967	0.498	n/a	stim	poldrack-single-stim	s061	False	1
549.006	0.787	549.793	1.3932472022926568	draw_card	0.787	columbia_card_task_fmri	8.0	0.9230769230769232	89.0	-90.0	0.0769230769230769	16.0	4.0	1.0	-5.42811786791653	0.787	n/a	stim	poldrack-single-stim	s061	False	1
549.809	1.134	550.943	0.7650420740875281	draw_card	1.134	columbia_card_task_fmri	8.0	0.9166666666666666	89.0	-90.0	0.0833333333333333	16.0	5.0	1.0	-4.45694131048791	1.134	5.0	stim	poldrack-single-stim	s061	False	0
551.709	1.5	550.958	n/a	-1.0	2.25	columbia_card_task_fmri	n/a	n/a	-1.0	n/a	n/a	n/a	n/a	n/a	n/a	n/a	n/a	ITI	poldrack-single-stim	s061	False	0
553.222	0.481	553.703	4.369208740754195	draw_card	0.481	columbia_card_task_fmri	10.0	0.9375	89.0	-95.0	0.0625	16.0	1.0	1.0	-6.125205740535769	0.481	n/a	stim	poldrack-single-stim	s061	False	1
553.716	0.675	554.391	3.931708740754196	draw_card	0.675	columbia_card_task_fmri	10.0	0.9333333333333332	89.0	-95.0	0.0666666666666666	16.0	2.0	1.0	-5.350562152207068	0.675	n/a	stim	poldrack-single-stim	s061	False	1
554.403	2.381	556.784	3.431708740754196	draw_card	2.381	columbia_card_task_fmri	10.0	0.9285714285714286	89.0	-95.0	0.0714285714285714	16.0	3.0	1.0	-4.50104973515732	2.381	n/a	stim	poldrack-single-stim	s061	False	1
556.798	1.845	558.643	2.854785663831118	draw_card	1.845	columbia_card_task_fmri	10.0	0.9230769230769232	89.0	-95.0	0.0769230769230769	16.0	4.0	1.0	-3.563939461170968	1.845	4.0	stim	poldrack-single-stim	s061	False	0
559.408	1.5	558.657	n/a	-1.0	2.25	columbia_card_task_fmri	n/a	n/a	-1.0	n/a	n/a	n/a	n/a	n/a	n/a	n/a	n/a	ITI	poldrack-single-stim	s061	False	0
560.921	0.461	561.382	5.306708740754195	draw_card	0.461	columbia_card_task_fmri	15.0	0.875	89.0	-70.0	0.125	16.0	1.0	2.0	-3.432186744032684	0.461	1.0	stim	poldrack-single-stim	s061	False	0
562.148	1.5	561.397	n/a	-1.0	2.522	columbia_card_task_fmri	n/a	n/a	-1.0	n/a	n/a	n/a	n/a	n/a	n/a	n/a	n/a	ITI	poldrack-single-stim	s061	False	0
563.933	0.535	564.468	4.306708740754195	draw_card	0.535	columbia_card_task_fmri	16.0	0.875	89.0	-85.0	0.125	16.0	1.0	2.0	1.8568716203072988	0.535	n/a	stim	poldrack-single-stim	s061	False	1
564.481	0.279	564.76	3.4650420740875285	draw_card	0.279	columbia_card_task_fmri	16.0	0.8666666666666667	89.0	-85.0	0.1333333333333333	16.0	2.0	2.0	2.787307299610997	0.279	n/a	stim	poldrack-single-stim	s061	False	1
564.772	0.39	565.162	2.503137312182768	draw_card	0.39	columbia_card_task_fmri	16.0	0.8571428571428572	89.0	-85.0	0.1428571428571428	16.0	3.0	2.0	3.7961861509365313	0.39	3.0	stim	poldrack-single-stim	s061	False	0
565.928	1.5	565.177	n/a	-1.0	2.454	columbia_card_task_fmri	n/a	n/a	-1.0	n/a	n/a	n/a	n/a	n/a	n/a	n/a	n/a	ITI	poldrack-single-stim	s061	False	0
