onset	duration	movement_onset	block_duration	condition	correct	correct_response	experiment_exp_id	key_press	response_time	trial_id	trial_type	worker_id	junk
3.006	0.5	3.005	0.5	BY	n/a	n/a	dot_pattern_expectancy	-1.0	n/a	cue	BY	s061	False
5.509	0.5	6.294	1.636	BY	1.0	71.0	dot_pattern_expectancy	71.0	0.785	probe	BY	s061	False
7.148	0.5	7.147	0.5	AY	n/a	n/a	dot_pattern_expectancy	-1.0	n/a	cue	AY	s061	False
9.651	0.5	10.449	1.5	AY	1.0	71.0	dot_pattern_expectancy	71.0	0.798	probe	AY	s061	False
11.154	0.5	11.153	0.5	AX	n/a	n/a	dot_pattern_expectancy	-1.0	n/a	cue	AX	s061	False
13.656	0.5	14.171	2.044	AX	1.0	89.0	dot_pattern_expectancy	89.0	0.515	probe	AX	s061	False
15.702	0.5	15.701	0.5	BY	n/a	n/a	dot_pattern_expectancy	-1.0	n/a	cue	BY	s061	False
18.206	0.5	18.753	1.772	BY	1.0	71.0	dot_pattern_expectancy	71.0	0.547	probe	BY	s061	False
19.98	0.5	19.979	0.5	BX	n/a	n/a	dot_pattern_expectancy	-1.0	n/a	cue	BX	s061	False
22.483	0.5	23.3	1.636	BX	1.0	71.0	dot_pattern_expectancy	71.0	0.817	probe	BX	s061	False
24.121	0.5	24.12	0.5	AX	n/a	n/a	dot_pattern_expectancy	-1.0	n/a	cue	AX	s061	False
26.625	0.5	27.37	1.636	AX	1.0	89.0	dot_pattern_expectancy	89.0	0.745	probe	AX	s061	False
28.263	0.5	28.262	0.5	AX	n/a	n/a	dot_pattern_expectancy	-1.0	n/a	cue	AX	s061	False
30.766	0.5	31.559	1.5	AX	1.0	89.0	dot_pattern_expectancy	89.0	0.793	probe	AX	s061	False
32.268	0.5	32.267	0.5	AX	n/a	n/a	dot_pattern_expectancy	-1.0	n/a	cue	AX	s061	False
34.771	0.5	35.641	1.5	AX	1.0	89.0	dot_pattern_expectancy	89.0	0.87	probe	AX	s061	False
36.273	0.5	36.272	0.5	AY	n/a	n/a	dot_pattern_expectancy	-1.0	n/a	cue	AY	s061	False
38.777	0.5	39.557	2.044	AY	1.0	71.0	dot_pattern_expectancy	71.0	0.78	probe	AY	s061	False
40.824	0.5	40.823	0.5	AX	n/a	n/a	dot_pattern_expectancy	-1.0	n/a	cue	AX	s061	False
43.328	0.5	43.9	2.452	AX	1.0	89.0	dot_pattern_expectancy	89.0	0.572	probe	AX	s061	False
45.783	0.5	45.782	0.5	AX	n/a	n/a	dot_pattern_expectancy	-1.0	n/a	cue	AX	s061	False
48.287	0.5	49.023	1.908	AX	1.0	89.0	dot_pattern_expectancy	89.0	0.736	probe	AX	s061	False
50.198	0.5	50.197	0.5	AX	n/a	n/a	dot_pattern_expectancy	-1.0	n/a	cue	AX	s061	False
52.702	0.5	53.401	1.5	AX	1.0	89.0	dot_pattern_expectancy	89.0	0.699	probe	AX	s061	False
54.205	0.5	54.204	0.5	AX	n/a	n/a	dot_pattern_expectancy	-1.0	n/a	cue	AX	s061	False
56.709	0.5	57.425	1.908	AX	1.0	89.0	dot_pattern_expectancy	89.0	0.716	probe	AX	s061	False
58.621	0.5	58.62	0.5	BX	n/a	n/a	dot_pattern_expectancy	-1.0	n/a	cue	BX	s061	False
61.124	0.5	61.904	2.18	BX	1.0	71.0	dot_pattern_expectancy	71.0	0.78	probe	BX	s061	False
63.307	0.5	63.306	0.5	AX	n/a	n/a	dot_pattern_expectancy	-1.0	n/a	cue	AX	s061	False
65.81	0.5	66.426	1.5	AX	1.0	89.0	dot_pattern_expectancy	89.0	0.616	probe	AX	s061	False
67.313	0.5	67.312	0.5	BY	n/a	n/a	dot_pattern_expectancy	-1.0	n/a	cue	BY	s061	False
69.816	0.5	70.199	1.908	BY	1.0	71.0	dot_pattern_expectancy	71.0	0.383	probe	BY	s061	False
71.727	0.5	71.726	0.5	BX	n/a	n/a	dot_pattern_expectancy	-1.0	n/a	cue	BX	s061	False
74.229	0.5	74.845	2.316	BX	1.0	71.0	dot_pattern_expectancy	71.0	0.616	probe	BX	s061	False
76.548	0.5	76.547	0.5	AY	n/a	n/a	dot_pattern_expectancy	-1.0	n/a	cue	AY	s061	False
79.05	0.5	79.87	2.316	AY	1.0	71.0	dot_pattern_expectancy	71.0	0.82	probe	AY	s061	False
81.368	0.5	81.367	0.5	BX	n/a	n/a	dot_pattern_expectancy	-1.0	n/a	cue	BX	s061	False
83.873	0.5	84.585	1.636	BX	1.0	71.0	dot_pattern_expectancy	71.0	0.712	probe	BX	s061	False
85.512	0.5	85.511	0.5	AY	n/a	n/a	dot_pattern_expectancy	-1.0	n/a	cue	AY	s061	False
88.015	0.5	88.811	1.5	AY	1.0	71.0	dot_pattern_expectancy	71.0	0.796	probe	AY	s061	False
89.518	0.5	89.517	0.5	BY	n/a	n/a	dot_pattern_expectancy	-1.0	n/a	cue	BY	s061	False
92.021	0.5	92.527	1.908	BY	1.0	71.0	dot_pattern_expectancy	71.0	0.506	probe	BY	s061	False
93.932	0.5	93.931	0.5	AX	n/a	n/a	dot_pattern_expectancy	-1.0	n/a	cue	AX	s061	False
96.435	0.5	96.984	1.5	AX	1.0	89.0	dot_pattern_expectancy	89.0	0.549	probe	AX	s061	False
97.938	0.5	97.937	0.5	AY	n/a	n/a	dot_pattern_expectancy	-1.0	n/a	cue	AY	s061	False
100.444	0.5	101.244	2.316	AY	1.0	71.0	dot_pattern_expectancy	71.0	0.8	probe	AY	s061	False
102.763	0.5	102.762	0.5	AX	n/a	n/a	dot_pattern_expectancy	-1.0	n/a	cue	AX	s061	False
105.266	0.5	105.92	1.5	AX	1.0	89.0	dot_pattern_expectancy	89.0	0.654	probe	AX	s061	False
106.769	0.5	106.768	0.5	AY	n/a	n/a	dot_pattern_expectancy	-1.0	n/a	cue	AY	s061	False
109.272	0.5	109.963	2.724	AY	1.0	71.0	dot_pattern_expectancy	71.0	0.691	probe	AY	s061	False
111.998	0.5	111.997	0.5	AX	n/a	n/a	dot_pattern_expectancy	-1.0	n/a	cue	AX	s061	False
114.503	0.5	115.068	1.5	AX	1.0	89.0	dot_pattern_expectancy	89.0	0.565	probe	AX	s061	False
116.005	0.5	116.004	0.5	AX	n/a	n/a	dot_pattern_expectancy	-1.0	n/a	cue	AX	s061	False
118.51	0.5	119.057	1.636	AX	1.0	89.0	dot_pattern_expectancy	89.0	0.547	probe	AX	s061	False
120.148	0.5	120.147	0.5	AX	n/a	n/a	dot_pattern_expectancy	-1.0	n/a	cue	AX	s061	False
122.653	0.5	123.179	1.636	AX	1.0	89.0	dot_pattern_expectancy	89.0	0.526	probe	AX	s061	False
124.291	0.5	124.29	0.5	AX	n/a	n/a	dot_pattern_expectancy	-1.0	n/a	cue	AX	s061	False
126.794	0.5	127.556	1.772	AX	1.0	89.0	dot_pattern_expectancy	89.0	0.762	probe	AX	s061	False
128.568	0.5	128.567	0.5	BY	n/a	n/a	dot_pattern_expectancy	-1.0	n/a	cue	BY	s061	False
131.072	0.5	131.49	1.772	BY	1.0	71.0	dot_pattern_expectancy	71.0	0.418	probe	BY	s061	False
132.848	0.5	132.847	0.5	AX	n/a	n/a	dot_pattern_expectancy	-1.0	n/a	cue	AX	s061	False
135.351	0.5	135.97	1.5	AX	1.0	89.0	dot_pattern_expectancy	89.0	0.619	probe	AX	s061	False
136.853	0.5	136.852	0.5	BY	n/a	n/a	dot_pattern_expectancy	-1.0	n/a	cue	BY	s061	False
139.356	0.5	140.085	2.452	BY	1.0	71.0	dot_pattern_expectancy	71.0	0.729	probe	BY	s061	False
141.811	0.5	141.81	0.5	AX	n/a	n/a	dot_pattern_expectancy	-1.0	n/a	cue	AX	s061	False
144.314	0.5	145.04	1.636	AX	1.0	89.0	dot_pattern_expectancy	89.0	0.726	probe	AX	s061	False
145.952	0.5	145.951	0.5	AX	n/a	n/a	dot_pattern_expectancy	-1.0	n/a	cue	AX	s061	False
148.455	0.5	149.082	1.636	AX	1.0	89.0	dot_pattern_expectancy	89.0	0.627	probe	AX	s061	False
150.094	0.5	150.093	0.5	BX	n/a	n/a	dot_pattern_expectancy	-1.0	n/a	cue	BX	s061	False
152.597	0.5	152.966	1.5	BX	1.0	71.0	dot_pattern_expectancy	71.0	0.369	probe	BX	s061	False
154.1	0.5	154.099	0.5	BX	n/a	n/a	dot_pattern_expectancy	-1.0	n/a	cue	BX	s061	False
156.604	0.5	157.345	1.5	BX	1.0	71.0	dot_pattern_expectancy	71.0	0.741	probe	BX	s061	False
158.106	0.5	158.105	0.5	AX	n/a	n/a	dot_pattern_expectancy	-1.0	n/a	cue	AX	s061	False
160.609	0.5	161.178	2.316	AX	1.0	89.0	dot_pattern_expectancy	89.0	0.569	probe	AX	s061	False
162.928	0.5	162.927	0.5	AY	n/a	n/a	dot_pattern_expectancy	-1.0	n/a	cue	AY	s061	False
165.432	0.5	166.201	2.044	AY	1.0	71.0	dot_pattern_expectancy	71.0	0.769	probe	AY	s061	False
167.478	0.5	167.477	0.5	AX	n/a	n/a	dot_pattern_expectancy	-1.0	n/a	cue	AX	s061	False
169.981	0.5	170.638	3.948	AX	1.0	89.0	dot_pattern_expectancy	89.0	0.657	probe	AX	s061	False
173.932	0.5	173.931	0.5	AX	n/a	n/a	dot_pattern_expectancy	-1.0	n/a	cue	AX	s061	False
176.435	0.5	177.153	1.636	AX	1.0	89.0	dot_pattern_expectancy	89.0	0.718	probe	AX	s061	False
188.58	0.5	188.579	0.5	AY	n/a	n/a	dot_pattern_expectancy	-1.0	n/a	cue	AY	s061	False
191.083	0.5	191.768	1.636	AY	1.0	71.0	dot_pattern_expectancy	71.0	0.685	probe	AY	s061	False
192.721	0.5	192.72	0.5	AX	n/a	n/a	dot_pattern_expectancy	-1.0	n/a	cue	AX	s061	False
195.224	0.5	195.8	1.636	AX	1.0	89.0	dot_pattern_expectancy	89.0	0.576	probe	AX	s061	False
196.863	0.5	196.862	0.5	AX	n/a	n/a	dot_pattern_expectancy	-1.0	n/a	cue	AX	s061	False
199.367	0.5	199.98	1.5	AX	1.0	89.0	dot_pattern_expectancy	89.0	0.613	probe	AX	s061	False
200.87	0.5	200.869	0.5	AX	n/a	n/a	dot_pattern_expectancy	-1.0	n/a	cue	AX	s061	False
203.374	0.5	204.066	1.5	AX	1.0	89.0	dot_pattern_expectancy	89.0	0.692	probe	AX	s061	False
204.876	0.5	204.875	0.5	AX	n/a	n/a	dot_pattern_expectancy	-1.0	n/a	cue	AX	s061	False
207.381	0.5	207.98	1.908	AX	1.0	89.0	dot_pattern_expectancy	89.0	0.599	probe	AX	s061	False
209.292	0.5	209.291	0.5	BX	n/a	n/a	dot_pattern_expectancy	-1.0	n/a	cue	BX	s061	False
211.795	0.5	212.133	1.636	BX	1.0	71.0	dot_pattern_expectancy	71.0	0.338	probe	BX	s061	False
213.433	0.5	213.432	0.5	AX	n/a	n/a	dot_pattern_expectancy	-1.0	n/a	cue	AX	s061	False
215.936	0.5	216.459	2.044	AX	1.0	89.0	dot_pattern_expectancy	89.0	0.523	probe	AX	s061	False
217.982	0.5	217.981	0.5	AX	n/a	n/a	dot_pattern_expectancy	-1.0	n/a	cue	AX	s061	False
220.485	0.5	220.986	1.772	AX	1.0	89.0	dot_pattern_expectancy	89.0	0.501	probe	AX	s061	False
222.26	0.5	222.259	0.5	AX	n/a	n/a	dot_pattern_expectancy	-1.0	n/a	cue	AX	s061	False
224.763	0.5	225.47	1.5	AX	1.0	89.0	dot_pattern_expectancy	89.0	0.707	probe	AX	s061	False
226.265	0.5	226.264	0.5	AX	n/a	n/a	dot_pattern_expectancy	-1.0	n/a	cue	AX	s061	False
228.768	0.5	229.447	2.18	AX	1.0	89.0	dot_pattern_expectancy	89.0	0.679	probe	AX	s061	False
230.953	0.5	230.952	0.5	AX	n/a	n/a	dot_pattern_expectancy	-1.0	n/a	cue	AX	s061	False
233.455	0.5	233.954	1.5	AX	1.0	89.0	dot_pattern_expectancy	89.0	0.499	probe	AX	s061	False
234.958	0.5	234.957	0.5	BX	n/a	n/a	dot_pattern_expectancy	-1.0	n/a	cue	BX	s061	False
237.461	0.5	238.12	3.676	BX	1.0	71.0	dot_pattern_expectancy	71.0	0.659	probe	BX	s061	False
241.139	0.5	241.138	0.5	BY	n/a	n/a	dot_pattern_expectancy	-1.0	n/a	cue	BY	s061	False
243.642	0.5	244.105	1.636	BY	1.0	71.0	dot_pattern_expectancy	71.0	0.463	probe	BY	s061	False
245.28	0.5	245.279	0.5	BY	n/a	n/a	dot_pattern_expectancy	-1.0	n/a	cue	BY	s061	False
247.783	0.5	248.415	1.636	BY	1.0	71.0	dot_pattern_expectancy	71.0	0.632	probe	BY	s061	False
249.422	0.5	249.421	0.5	BX	n/a	n/a	dot_pattern_expectancy	-1.0	n/a	cue	BX	s061	False
251.925	0.5	252.301	1.5	BX	1.0	71.0	dot_pattern_expectancy	71.0	0.376	probe	BX	s061	False
253.428	0.5	253.427	0.5	AX	n/a	n/a	dot_pattern_expectancy	-1.0	n/a	cue	AX	s061	False
255.931	0.5	256.453	1.908	AX	1.0	89.0	dot_pattern_expectancy	89.0	0.522	probe	AX	s061	False
257.842	0.5	257.841	0.5	AX	n/a	n/a	dot_pattern_expectancy	-1.0	n/a	cue	AX	s061	False
260.344	0.5	260.84	1.636	AX	1.0	89.0	dot_pattern_expectancy	89.0	0.496	probe	AX	s061	False
261.982	0.5	261.981	0.5	BX	n/a	n/a	dot_pattern_expectancy	-1.0	n/a	cue	BX	s061	False
264.485	0.5	264.847	1.5	BX	1.0	71.0	dot_pattern_expectancy	71.0	0.362	probe	BX	s061	False
265.987	0.5	265.986	0.5	AX	n/a	n/a	dot_pattern_expectancy	-1.0	n/a	cue	AX	s061	False
268.491	0.5	269.022	1.908	AX	1.0	89.0	dot_pattern_expectancy	89.0	0.531	probe	AX	s061	False
270.401	0.5	270.4	0.5	BY	n/a	n/a	dot_pattern_expectancy	-1.0	n/a	cue	BY	s061	False
272.905	0.5	273.41	2.18	BY	1.0	71.0	dot_pattern_expectancy	71.0	0.505	probe	BY	s061	False
275.087	0.5	275.086	0.5	AX	n/a	n/a	dot_pattern_expectancy	-1.0	n/a	cue	AX	s061	False
277.59	0.5	278.03	1.772	AX	1.0	89.0	dot_pattern_expectancy	89.0	0.44	probe	AX	s061	False
279.365	0.5	279.364	0.5	AX	n/a	n/a	dot_pattern_expectancy	-1.0	n/a	cue	AX	s061	False
281.869	0.5	282.417	1.5	AX	1.0	89.0	dot_pattern_expectancy	89.0	0.548	probe	AX	s061	False
283.371	0.5	283.37	0.5	AX	n/a	n/a	dot_pattern_expectancy	-1.0	n/a	cue	AX	s061	False
285.875	0.5	286.342	1.5	AX	1.0	89.0	dot_pattern_expectancy	89.0	0.467	probe	AX	s061	False
287.377	0.5	287.376	0.5	AX	n/a	n/a	dot_pattern_expectancy	-1.0	n/a	cue	AX	s061	False
289.882	0.5	290.484	2.044	AX	1.0	89.0	dot_pattern_expectancy	89.0	0.602	probe	AX	s061	False
291.928	0.5	291.927	0.5	AX	n/a	n/a	dot_pattern_expectancy	-1.0	n/a	cue	AX	s061	False
294.431	0.5	295.3	2.86	AX	1.0	89.0	dot_pattern_expectancy	89.0	0.869	probe	AX	s061	False
297.294	0.5	297.293	0.5	BX	n/a	n/a	dot_pattern_expectancy	-1.0	n/a	cue	BX	s061	False
299.798	0.5	300.331	1.5	BX	1.0	71.0	dot_pattern_expectancy	71.0	0.533	probe	BX	s061	False
301.3	0.5	301.299	0.5	BY	n/a	n/a	dot_pattern_expectancy	-1.0	n/a	cue	BY	s061	False
303.803	0.5	304.246	1.772	BY	1.0	71.0	dot_pattern_expectancy	71.0	0.443	probe	BY	s061	False
305.578	0.5	305.577	0.5	AX	n/a	n/a	dot_pattern_expectancy	-1.0	n/a	cue	AX	s061	False
308.082	0.5	308.593	1.772	AX	1.0	89.0	dot_pattern_expectancy	89.0	0.511	probe	AX	s061	False
309.856	0.5	309.855	0.5	AX	n/a	n/a	dot_pattern_expectancy	-1.0	n/a	cue	AX	s061	False
312.358	0.5	312.857	2.86	AX	1.0	89.0	dot_pattern_expectancy	89.0	0.499	probe	AX	s061	False
315.221	0.5	315.22	0.5	AX	n/a	n/a	dot_pattern_expectancy	-1.0	n/a	cue	AX	s061	False
317.723	0.5	318.248	1.772	AX	1.0	89.0	dot_pattern_expectancy	89.0	0.525	probe	AX	s061	False
319.498	0.5	319.497	0.5	BX	n/a	n/a	dot_pattern_expectancy	-1.0	n/a	cue	BX	s061	False
322.001	0.5	322.568	1.636	BX	1.0	71.0	dot_pattern_expectancy	71.0	0.567	probe	BX	s061	False
323.639	0.5	323.638	0.5	BX	n/a	n/a	dot_pattern_expectancy	-1.0	n/a	cue	BX	s061	False
326.142	0.5	326.663	2.452	BX	1.0	71.0	dot_pattern_expectancy	71.0	0.521	probe	BX	s061	False
328.596	0.5	328.595	0.5	AX	n/a	n/a	dot_pattern_expectancy	-1.0	n/a	cue	AX	s061	False
331.098	0.5	331.642	1.636	AX	1.0	89.0	dot_pattern_expectancy	89.0	0.544	probe	AX	s061	False
332.736	0.5	332.735	0.5	BX	n/a	n/a	dot_pattern_expectancy	-1.0	n/a	cue	BX	s061	False
335.24	0.5	335.609	1.5	BX	1.0	71.0	dot_pattern_expectancy	71.0	0.369	probe	BX	s061	False
336.742	0.5	336.741	0.5	AX	n/a	n/a	dot_pattern_expectancy	-1.0	n/a	cue	AX	s061	False
339.246	0.5	339.746	1.636	AX	1.0	89.0	dot_pattern_expectancy	89.0	0.5	probe	AX	s061	False
340.885	0.5	340.884	0.5	AX	n/a	n/a	dot_pattern_expectancy	-1.0	n/a	cue	AX	s061	False
343.387	0.5	343.868	1.636	AX	1.0	89.0	dot_pattern_expectancy	89.0	0.481	probe	AX	s061	False
345.027	0.5	345.026	0.5	BY	n/a	n/a	dot_pattern_expectancy	-1.0	n/a	cue	BY	s061	False
347.53	0.5	347.834	2.18	BY	1.0	71.0	dot_pattern_expectancy	71.0	0.304	probe	BY	s061	False
349.713	0.5	349.712	0.5	AX	n/a	n/a	dot_pattern_expectancy	-1.0	n/a	cue	AX	s061	False
352.215	0.5	352.712	1.5	AX	1.0	89.0	dot_pattern_expectancy	89.0	0.497	probe	AX	s061	False
353.717	0.5	353.716	0.5	AY	n/a	n/a	dot_pattern_expectancy	-1.0	n/a	cue	AY	s061	False
356.221	0.5	356.963	1.636	AY	1.0	71.0	dot_pattern_expectancy	71.0	0.742	probe	AY	s061	False
357.858	0.5	357.857	0.5	AX	n/a	n/a	dot_pattern_expectancy	-1.0	n/a	cue	AX	s061	False
360.361	0.5	361.06	1.636	AX	1.0	89.0	dot_pattern_expectancy	89.0	0.699	probe	AX	s061	False
372.505	0.5	372.504	0.5	AX	n/a	n/a	dot_pattern_expectancy	-1.0	n/a	cue	AX	s061	False
375.009	0.5	375.564	2.18	AX	1.0	89.0	dot_pattern_expectancy	89.0	0.555	probe	AX	s061	False
377.191	0.5	377.19	0.5	AY	n/a	n/a	dot_pattern_expectancy	-1.0	n/a	cue	AY	s061	False
379.695	0.5	380.297	2.316	AY	1.0	71.0	dot_pattern_expectancy	71.0	0.602	probe	AY	s061	False
382.013	0.5	382.012	0.5	AY	n/a	n/a	dot_pattern_expectancy	-1.0	n/a	cue	AY	s061	False
384.517	0.5	385.333	1.636	AY	1.0	71.0	dot_pattern_expectancy	71.0	0.816	probe	AY	s061	False
386.155	0.5	386.154	0.5	BX	n/a	n/a	dot_pattern_expectancy	-1.0	n/a	cue	BX	s061	False
388.658	0.5	389.347	1.908	BX	1.0	71.0	dot_pattern_expectancy	71.0	0.689	probe	BX	s061	False
390.568	0.5	390.567	0.5	AX	n/a	n/a	dot_pattern_expectancy	-1.0	n/a	cue	AX	s061	False
393.071	0.5	393.502	3.54	AX	1.0	89.0	dot_pattern_expectancy	89.0	0.431	probe	AX	s061	False
396.614	0.5	396.613	0.5	BX	n/a	n/a	dot_pattern_expectancy	-1.0	n/a	cue	BX	s061	False
399.117	0.5	399.509	1.636	BX	1.0	71.0	dot_pattern_expectancy	71.0	0.392	probe	BX	s061	False
400.756	0.5	400.755	0.5	BY	n/a	n/a	dot_pattern_expectancy	-1.0	n/a	cue	BY	s061	False
403.258	0.5	404.057	1.5	BY	1.0	71.0	dot_pattern_expectancy	71.0	0.799	probe	BY	s061	False
404.761	0.5	404.76	0.5	AX	n/a	n/a	dot_pattern_expectancy	-1.0	n/a	cue	AX	s061	False
407.264	0.5	408.316	1.5	AX	1.0	89.0	dot_pattern_expectancy	89.0	1.052	probe	AX	s061	False
408.767	0.5	408.766	0.5	AX	n/a	n/a	dot_pattern_expectancy	-1.0	n/a	cue	AX	s061	False
411.27	0.5	411.797	1.772	AX	1.0	89.0	dot_pattern_expectancy	89.0	0.527	probe	AX	s061	False
413.045	0.5	413.044	0.5	BY	n/a	n/a	dot_pattern_expectancy	-1.0	n/a	cue	BY	s061	False
415.548	0.5	415.838	2.452	BY	1.0	71.0	dot_pattern_expectancy	71.0	0.29	probe	BY	s061	False
418.005	0.5	418.004	0.5	AX	n/a	n/a	dot_pattern_expectancy	-1.0	n/a	cue	AX	s061	False
420.508	0.5	421.37	1.908	AX	1.0	89.0	dot_pattern_expectancy	89.0	0.862	probe	AX	s061	False
422.42	0.5	422.419	0.5	BX	n/a	n/a	dot_pattern_expectancy	-1.0	n/a	cue	BX	s061	False
424.923	0.5	425.322	1.636	BX	1.0	71.0	dot_pattern_expectancy	71.0	0.399	probe	BX	s061	False
426.561	0.5	426.56	0.5	AX	n/a	n/a	dot_pattern_expectancy	-1.0	n/a	cue	AX	s061	False
429.064	0.5	429.648	1.5	AX	1.0	89.0	dot_pattern_expectancy	89.0	0.584	probe	AX	s061	False
430.566	0.5	430.565	0.5	AX	n/a	n/a	dot_pattern_expectancy	-1.0	n/a	cue	AX	s061	False
433.07	0.5	433.537	1.636	AX	1.0	89.0	dot_pattern_expectancy	89.0	0.467	probe	AX	s061	False
434.709	0.5	434.708	0.5	AX	n/a	n/a	dot_pattern_expectancy	-1.0	n/a	cue	AX	s061	False
437.212	0.5	437.71	1.636	AX	1.0	89.0	dot_pattern_expectancy	89.0	0.498	probe	AX	s061	False
438.851	0.5	438.85	0.5	BY	n/a	n/a	dot_pattern_expectancy	-1.0	n/a	cue	BY	s061	False
441.354	0.5	441.672	2.452	BY	1.0	71.0	dot_pattern_expectancy	71.0	0.318	probe	BY	s061	False
443.808	0.5	443.807	0.5	AX	n/a	n/a	dot_pattern_expectancy	-1.0	n/a	cue	AX	s061	False
446.312	0.5	446.831	1.5	AX	1.0	89.0	dot_pattern_expectancy	89.0	0.519	probe	AX	s061	False
447.816	0.5	447.815	0.5	BY	n/a	n/a	dot_pattern_expectancy	-1.0	n/a	cue	BY	s061	False
450.32	0.5	451.112	1.5	BY	1.0	71.0	dot_pattern_expectancy	71.0	0.792	probe	BY	s061	False
451.823	0.5	451.822	0.5	AX	n/a	n/a	dot_pattern_expectancy	-1.0	n/a	cue	AX	s061	False
454.328	0.5	454.822	1.636	AX	1.0	89.0	dot_pattern_expectancy	89.0	0.494	probe	AX	s061	False
455.967	0.5	455.966	0.5	AX	n/a	n/a	dot_pattern_expectancy	-1.0	n/a	cue	AX	s061	False
458.471	0.5	458.938	1.636	AX	1.0	89.0	dot_pattern_expectancy	89.0	0.467	probe	AX	s061	False
460.111	0.5	460.11	0.5	AY	n/a	n/a	dot_pattern_expectancy	-1.0	n/a	cue	AY	s061	False
462.615	0.5	463.497	1.636	AY	1.0	71.0	dot_pattern_expectancy	71.0	0.882	probe	AY	s061	False
464.255	0.5	464.254	0.5	AX	n/a	n/a	dot_pattern_expectancy	-1.0	n/a	cue	AX	s061	False
466.759	0.5	467.378	1.5	AX	1.0	89.0	dot_pattern_expectancy	89.0	0.619	probe	AX	s061	False
468.261	0.5	468.26	0.5	AX	n/a	n/a	dot_pattern_expectancy	-1.0	n/a	cue	AX	s061	False
470.765	0.5	471.483	1.5	AX	1.0	89.0	dot_pattern_expectancy	89.0	0.718	probe	AX	s061	False
472.268	0.5	472.267	0.5	AX	n/a	n/a	dot_pattern_expectancy	-1.0	n/a	cue	AX	s061	False
474.772	0.5	475.315	1.772	AX	1.0	89.0	dot_pattern_expectancy	89.0	0.543	probe	AX	s061	False
476.548	0.5	476.547	0.5	AX	n/a	n/a	dot_pattern_expectancy	-1.0	n/a	cue	AX	s061	False
479.05	0.5	479.519	2.18	AX	1.0	89.0	dot_pattern_expectancy	89.0	0.469	probe	AX	s061	False
481.232	0.5	481.231	0.5	BX	n/a	n/a	dot_pattern_expectancy	-1.0	n/a	cue	BX	s061	False
483.736	0.5	484.097	1.772	BX	1.0	71.0	dot_pattern_expectancy	71.0	0.361	probe	BX	s061	False
485.511	0.5	485.51	0.5	BY	n/a	n/a	dot_pattern_expectancy	-1.0	n/a	cue	BY	s061	False
488.016	0.5	488.665	1.5	BY	1.0	71.0	dot_pattern_expectancy	71.0	0.649	probe	BY	s061	False
489.519	0.5	489.518	0.5	AX	n/a	n/a	dot_pattern_expectancy	-1.0	n/a	cue	AX	s061	False
492.022	0.5	492.507	1.5	AX	1.0	89.0	dot_pattern_expectancy	89.0	0.485	probe	AX	s061	False
493.526	0.5	493.525	0.5	AX	n/a	n/a	dot_pattern_expectancy	-1.0	n/a	cue	AX	s061	False
496.031	0.5	496.639	1.636	AX	1.0	89.0	dot_pattern_expectancy	89.0	0.608	probe	AX	s061	False
497.67	0.5	497.669	0.5	AY	n/a	n/a	dot_pattern_expectancy	-1.0	n/a	cue	AY	s061	False
500.174	0.5	500.966	2.18	AY	1.0	71.0	dot_pattern_expectancy	71.0	0.792	probe	AY	s061	False
502.357	0.5	502.356	0.5	AY	n/a	n/a	dot_pattern_expectancy	-1.0	n/a	cue	AY	s061	False
504.861	0.5	505.609	2.316	AY	1.0	71.0	dot_pattern_expectancy	71.0	0.748	probe	AY	s061	False
507.18	0.5	507.179	0.5	BX	n/a	n/a	dot_pattern_expectancy	-1.0	n/a	cue	BX	s061	False
509.684	0.5	510.718	1.636	BX	1.0	71.0	dot_pattern_expectancy	71.0	1.034	probe	BX	s061	False
511.323	0.5	511.322	0.5	BX	n/a	n/a	dot_pattern_expectancy	-1.0	n/a	cue	BX	s061	False
513.828	0.5	514.632	2.18	BX	1.0	71.0	dot_pattern_expectancy	71.0	0.804	probe	BX	s061	False
516.011	0.5	516.01	0.5	AY	n/a	n/a	dot_pattern_expectancy	-1.0	n/a	cue	AY	s061	False
518.516	0.5	519.187	2.044	AY	1.0	71.0	dot_pattern_expectancy	71.0	0.671	probe	AY	s061	False
520.562	0.5	520.561	0.5	AX	n/a	n/a	dot_pattern_expectancy	-1.0	n/a	cue	AX	s061	False
523.066	0.5	523.584	1.772	AX	1.0	89.0	dot_pattern_expectancy	89.0	0.518	probe	AX	s061	False
524.841	0.5	524.84	0.5	AX	n/a	n/a	dot_pattern_expectancy	-1.0	n/a	cue	AX	s061	False
527.346	0.5	528.662	1.5	AX	1.0	89.0	dot_pattern_expectancy	89.0	1.316	probe	AX	s061	False
528.85	0.5	528.849	0.5	AX	n/a	n/a	dot_pattern_expectancy	-1.0	n/a	cue	AX	s061	False
531.354	0.5	531.726	2.18	AX	1.0	89.0	dot_pattern_expectancy	89.0	0.372	probe	AX	s061	False
533.537	0.5	533.536	0.5	AY	n/a	n/a	dot_pattern_expectancy	-1.0	n/a	cue	AY	s061	False
536.043	0.5	536.66	2.452	AY	1.0	71.0	dot_pattern_expectancy	71.0	0.617	probe	AY	s061	False
538.498	0.5	538.497	0.5	AX	n/a	n/a	dot_pattern_expectancy	-1.0	n/a	cue	AX	s061	False
541.001	0.5	541.747	1.636	AX	1.0	89.0	dot_pattern_expectancy	89.0	0.746	probe	AX	s061	False
542.641	0.5	542.64	0.5	AX	n/a	n/a	dot_pattern_expectancy	-1.0	n/a	cue	AX	s061	False
545.144	0.5	545.736	1.908	AX	1.0	89.0	dot_pattern_expectancy	89.0	0.592	probe	AX	s061	False
557.56	0.5	557.559	0.5	AX	n/a	n/a	dot_pattern_expectancy	-1.0	n/a	cue	AX	s061	False
560.064	0.5	560.601	1.772	AX	1.0	89.0	dot_pattern_expectancy	89.0	0.537	probe	AX	s061	False
561.838	0.5	561.837	0.5	AX	n/a	n/a	dot_pattern_expectancy	-1.0	n/a	cue	AX	s061	False
564.343	0.5	564.822	1.5	AX	1.0	89.0	dot_pattern_expectancy	89.0	0.479	probe	AX	s061	False
565.846	0.5	565.845	0.5	AY	n/a	n/a	dot_pattern_expectancy	-1.0	n/a	cue	AY	s061	False
568.35	0.5	569.02	2.452	AY	1.0	71.0	dot_pattern_expectancy	71.0	0.67	probe	AY	s061	False
570.804	0.5	570.803	0.5	AY	n/a	n/a	dot_pattern_expectancy	-1.0	n/a	cue	AY	s061	False
573.307	0.5	573.956	1.772	AY	1.0	71.0	dot_pattern_expectancy	71.0	0.649	probe	AY	s061	False
575.081	0.5	575.08	0.5	AX	n/a	n/a	dot_pattern_expectancy	-1.0	n/a	cue	AX	s061	False
577.586	0.5	578.212	1.908	AX	1.0	89.0	dot_pattern_expectancy	89.0	0.626	probe	AX	s061	False
579.497	0.5	579.496	0.5	AX	n/a	n/a	dot_pattern_expectancy	-1.0	n/a	cue	AX	s061	False
582.001	0.5	582.724	1.908	AX	1.0	89.0	dot_pattern_expectancy	89.0	0.723	probe	AX	s061	False
583.912	0.5	583.911	0.5	AX	n/a	n/a	dot_pattern_expectancy	-1.0	n/a	cue	AX	s061	False
586.416	0.5	586.928	2.588	AX	1.0	89.0	dot_pattern_expectancy	89.0	0.512	probe	AX	s061	False
589.007	0.5	589.006	0.5	AY	n/a	n/a	dot_pattern_expectancy	-1.0	n/a	cue	AY	s061	False
591.511	0.5	592.204	1.5	AY	1.0	71.0	dot_pattern_expectancy	71.0	0.693	probe	AY	s061	False
593.013	0.5	593.012	0.5	BY	n/a	n/a	dot_pattern_expectancy	-1.0	n/a	cue	BY	s061	False
595.518	0.5	596.246	1.5	BY	1.0	71.0	dot_pattern_expectancy	71.0	0.728	probe	BY	s061	False
597.021	0.5	597.02	0.5	BY	n/a	n/a	dot_pattern_expectancy	-1.0	n/a	cue	BY	s061	False
599.525	0.5	599.859	1.5	BY	1.0	71.0	dot_pattern_expectancy	71.0	0.334	probe	BY	s061	False
601.028	0.5	601.027	0.5	AX	n/a	n/a	dot_pattern_expectancy	-1.0	n/a	cue	AX	s061	False
603.533	0.5	603.975	1.636	AX	1.0	89.0	dot_pattern_expectancy	89.0	0.442	probe	AX	s061	False
605.172	0.5	605.171	0.5	BX	n/a	n/a	dot_pattern_expectancy	-1.0	n/a	cue	BX	s061	False
607.676	0.5	607.982	2.044	BX	1.0	71.0	dot_pattern_expectancy	71.0	0.306	probe	BX	s061	False
609.722	0.5	609.721	0.5	AX	n/a	n/a	dot_pattern_expectancy	-1.0	n/a	cue	AX	s061	False
612.226	0.5	612.67	1.772	AX	1.0	89.0	dot_pattern_expectancy	89.0	0.444	probe	AX	s061	False
614.0	0.5	613.999	0.5	BX	n/a	n/a	dot_pattern_expectancy	-1.0	n/a	cue	BX	s061	False
616.504	0.5	616.784	2.588	BX	1.0	71.0	dot_pattern_expectancy	71.0	0.28	probe	BX	s061	False
619.093	0.5	619.092	0.5	AY	n/a	n/a	dot_pattern_expectancy	-1.0	n/a	cue	AY	s061	False
621.597	0.5	622.464	1.5	AY	1.0	71.0	dot_pattern_expectancy	71.0	0.867	probe	AY	s061	False
623.099	0.5	623.098	0.5	AX	n/a	n/a	dot_pattern_expectancy	-1.0	n/a	cue	AX	s061	False
625.602	0.5	626.412	2.452	AX	1.0	89.0	dot_pattern_expectancy	89.0	0.81	probe	AX	s061	False
628.058	0.5	628.057	0.5	BY	n/a	n/a	dot_pattern_expectancy	-1.0	n/a	cue	BY	s061	False
630.562	0.5	630.819	1.636	BY	1.0	71.0	dot_pattern_expectancy	71.0	0.257	probe	BY	s061	False
632.201	0.5	632.2	0.5	AX	n/a	n/a	dot_pattern_expectancy	-1.0	n/a	cue	AX	s061	False
634.704	0.5	635.249	1.636	AX	1.0	89.0	dot_pattern_expectancy	89.0	0.545	probe	AX	s061	False
636.342	0.5	636.341	0.5	AX	n/a	n/a	dot_pattern_expectancy	-1.0	n/a	cue	AX	s061	False
638.846	0.5	639.351	1.5	AX	1.0	89.0	dot_pattern_expectancy	89.0	0.505	probe	AX	s061	False
640.349	0.5	640.348	0.5	BY	n/a	n/a	dot_pattern_expectancy	-1.0	n/a	cue	BY	s061	False
642.852	0.5	643.113	1.636	BY	1.0	71.0	dot_pattern_expectancy	71.0	0.261	probe	BY	s061	False
644.492	0.5	644.491	0.5	AX	n/a	n/a	dot_pattern_expectancy	-1.0	n/a	cue	AX	s061	False
646.996	0.5	647.495	1.5	AX	1.0	89.0	dot_pattern_expectancy	89.0	0.499	probe	AX	s061	False
648.497	0.5	648.496	0.5	AY	n/a	n/a	dot_pattern_expectancy	-1.0	n/a	cue	AY	s061	False
651.002	0.5	651.576	2.18	AY	1.0	71.0	dot_pattern_expectancy	71.0	0.574	probe	AY	s061	False
653.185	0.5	653.184	0.5	AX	n/a	n/a	dot_pattern_expectancy	-1.0	n/a	cue	AX	s061	False
655.689	0.5	656.357	1.5	AX	1.0	89.0	dot_pattern_expectancy	89.0	0.668	probe	AX	s061	False
657.191	0.5	657.19	0.5	AX	n/a	n/a	dot_pattern_expectancy	-1.0	n/a	cue	AX	s061	False
659.695	0.5	660.187	1.908	AX	1.0	89.0	dot_pattern_expectancy	89.0	0.492	probe	AX	s061	False
661.606	0.5	661.605	0.5	BY	n/a	n/a	dot_pattern_expectancy	-1.0	n/a	cue	BY	s061	False
664.112	0.5	664.409	1.636	BY	1.0	71.0	dot_pattern_expectancy	71.0	0.297	probe	BY	s061	False
665.751	0.5	665.75	0.5	BY	n/a	n/a	dot_pattern_expectancy	-1.0	n/a	cue	BY	s061	False
668.255	0.5	668.985	1.636	BY	1.0	71.0	dot_pattern_expectancy	71.0	0.73	probe	BY	s061	False
669.895	0.5	669.894	0.5	AX	n/a	n/a	dot_pattern_expectancy	-1.0	n/a	cue	AX	s061	False
672.399	0.5	672.912	1.636	AX	1.0	89.0	dot_pattern_expectancy	89.0	0.513	probe	AX	s061	False
674.038	0.5	674.037	0.5	AX	n/a	n/a	dot_pattern_expectancy	-1.0	n/a	cue	AX	s061	False
676.542	0.5	677.051	1.5	AX	1.0	89.0	dot_pattern_expectancy	89.0	0.509	probe	AX	s061	False
678.045	0.5	678.044	0.5	BY	n/a	n/a	dot_pattern_expectancy	-1.0	n/a	cue	BY	s061	False
680.549	0.5	680.873	2.044	BY	1.0	71.0	dot_pattern_expectancy	71.0	0.324	probe	BY	s061	False
682.594	0.5	682.593	0.5	AY	n/a	n/a	dot_pattern_expectancy	-1.0	n/a	cue	AY	s061	False
685.099	0.5	685.841	2.18	AY	1.0	71.0	dot_pattern_expectancy	71.0	0.742	probe	AY	s061	False
687.282	0.5	687.281	0.5	AY	n/a	n/a	dot_pattern_expectancy	-1.0	n/a	cue	AY	s061	False
689.786	0.5	690.446	1.636	AY	1.0	71.0	dot_pattern_expectancy	71.0	0.66	probe	AY	s061	False
691.426	0.5	691.425	0.5	AY	n/a	n/a	dot_pattern_expectancy	-1.0	n/a	cue	AY	s061	False
693.931	0.5	694.617	1.772	AY	1.0	71.0	dot_pattern_expectancy	71.0	0.686	probe	AY	s061	False
695.704	0.5	695.703	0.5	BY	n/a	n/a	dot_pattern_expectancy	-1.0	n/a	cue	BY	s061	False
698.208	0.5	698.733	1.5	BY	1.0	71.0	dot_pattern_expectancy	71.0	0.525	probe	BY	s061	False
699.71	0.5	699.709	0.5	BX	n/a	n/a	dot_pattern_expectancy	-1.0	n/a	cue	BX	s061	False
702.214	0.5	702.653	1.908	BX	1.0	71.0	dot_pattern_expectancy	71.0	0.439	probe	BX	s061	False
704.126	0.5	704.125	0.5	AX	n/a	n/a	dot_pattern_expectancy	-1.0	n/a	cue	AX	s061	False
706.63	0.5	707.08	2.044	AX	1.0	89.0	dot_pattern_expectancy	89.0	0.45	probe	AX	s061	False
708.676	0.5	708.675	0.5	AX	n/a	n/a	dot_pattern_expectancy	-1.0	n/a	cue	AX	s061	False
711.18	0.5	711.953	1.636	AX	1.0	89.0	dot_pattern_expectancy	89.0	0.773	probe	AX	s061	False
712.818	0.5	712.817	0.5	AX	n/a	n/a	dot_pattern_expectancy	-1.0	n/a	cue	AX	s061	False
715.322	0.5	715.83	1.772	AX	1.0	89.0	dot_pattern_expectancy	89.0	0.508	probe	AX	s061	False
717.097	0.5	717.096	0.5	AX	n/a	n/a	dot_pattern_expectancy	-1.0	n/a	cue	AX	s061	False
719.601	0.5	720.191	1.636	AX	1.0	89.0	dot_pattern_expectancy	89.0	0.59	probe	AX	s061	False
721.24	0.5	721.239	0.5	BX	n/a	n/a	dot_pattern_expectancy	-1.0	n/a	cue	BX	s061	False
723.745	0.5	724.1	1.772	BX	1.0	71.0	dot_pattern_expectancy	71.0	0.355	probe	BX	s061	False
725.52	0.5	725.519	0.5	AX	n/a	n/a	dot_pattern_expectancy	-1.0	n/a	cue	AX	s061	False
728.024	0.5	728.478	1.5	AX	1.0	89.0	dot_pattern_expectancy	89.0	0.454	probe	AX	s061	False
