duration	onset	block_duration	movement_onset	planning	condition	exp_stage	experiment_exp_id	key_press	problem_id	response_time	trial_id	trial_type	worker_id	junk
4.689	3.007	4.689	7.696	1	UA_with_intermediate	practice	ward_and_allport	71	0.0	4.689	to_hand	poldrack-single-stim	s130	False
0.1	7.697	4.064	11.761	0	UA_with_intermediate	practice	ward_and_allport	82	0.0	4.064	to_board	poldrack-single-stim	s130	False
0.1	11.764	1.518	13.282	0	UA_with_intermediate	practice	ward_and_allport	71	0.0	1.518	to_hand	poldrack-single-stim	s130	False
0.1	13.282	1.29	14.572	0	UA_with_intermediate	practice	ward_and_allport	89	0.0	1.29	to_board	poldrack-single-stim	s130	False
0.1	14.573	1.43	16.003	0	UA_with_intermediate	practice	ward_and_allport	82	0.0	1.43	to_hand	poldrack-single-stim	s130	False
0.1	16.005	1.125	17.13	0	UA_with_intermediate	practice	ward_and_allport	89	0.0	1.125	to_board	poldrack-single-stim	s130	False
1.0	17.133	2.5	17.132	0	UA_with_intermediate	practice	ward_and_allport	-1	0.0	n/a	feedback	poldrack-single-stim	s130	False
5.824	19.635	5.824	25.459	1	UA_with_intermediate	practice	ward_and_allport	89	1.0	5.824	to_hand	poldrack-single-stim	s130	False
0.1	25.46	1.397	26.857	0	UA_with_intermediate	practice	ward_and_allport	82	1.0	1.397	to_board	poldrack-single-stim	s130	False
0.1	26.859	3.586	30.445	0	UA_with_intermediate	practice	ward_and_allport	71	1.0	3.586	to_hand	poldrack-single-stim	s130	False
0.1	30.447	1.02	31.467	0	UA_with_intermediate	practice	ward_and_allport	82	1.0	1.02	to_board	poldrack-single-stim	s130	False
0.1	31.468	6.373	37.841	0	UA_with_intermediate	practice	ward_and_allport	82	1.0	6.373	to_hand	poldrack-single-stim	s130	False
0.1	37.842	0.507	38.349	0	UA_with_intermediate	practice	ward_and_allport	89	1.0	0.507	to_board	poldrack-single-stim	s130	False
0.1	38.35	3.304	41.654	0	UA_with_intermediate	practice	ward_and_allport	82	1.0	3.304	to_hand	poldrack-single-stim	s130	False
0.1	41.655	0.771	42.426	0	UA_with_intermediate	practice	ward_and_allport	89	1.0	0.771	to_board	poldrack-single-stim	s130	False
1.0	42.429	2.1	42.428	0	UA_with_intermediate	practice	ward_and_allport	-1	1.0	n/a	feedback	poldrack-single-stim	s130	False
3.731	44.531	3.731	48.262	1	UA_without_intermediate	practice	ward_and_allport	82	2.0	3.731	to_hand	poldrack-single-stim	s130	False
0.1	48.263	0.507	48.77	0	UA_without_intermediate	practice	ward_and_allport	89	2.0	0.507	to_board	poldrack-single-stim	s130	False
0.1	48.774	3.194	51.968	0	UA_without_intermediate	practice	ward_and_allport	71	2.0	3.194	to_hand	poldrack-single-stim	s130	False
0.1	51.97	0.914	52.884	0	UA_without_intermediate	practice	ward_and_allport	89	2.0	0.914	to_board	poldrack-single-stim	s130	False
0.1	52.888	1.473	54.361	0	UA_without_intermediate	practice	ward_and_allport	71	2.0	1.473	to_hand	poldrack-single-stim	s130	False
0.1	54.363	0.64	55.003	0	UA_without_intermediate	practice	ward_and_allport	89	2.0	0.64	to_board	poldrack-single-stim	s130	False
1.0	55.006	2.2	55.005	0	UA_without_intermediate	practice	ward_and_allport	-1	2.0	n/a	feedback	poldrack-single-stim	s130	False
3.53	57.208	3.53	60.738	1	UA_without_intermediate	practice	ward_and_allport	71	3.0	3.53	to_hand	poldrack-single-stim	s130	False
0.1	60.74	0.476	61.216	0	UA_without_intermediate	practice	ward_and_allport	89	3.0	0.476	to_board	poldrack-single-stim	s130	False
0.1	61.219	1.61	62.829	0	UA_without_intermediate	practice	ward_and_allport	82	3.0	1.61	to_hand	poldrack-single-stim	s130	False
0.1	62.83	0.533	63.363	0	UA_without_intermediate	practice	ward_and_allport	89	3.0	0.533	to_board	poldrack-single-stim	s130	False
0.1	63.367	1.372	64.739	0	UA_without_intermediate	practice	ward_and_allport	71	3.0	1.372	to_hand	poldrack-single-stim	s130	False
0.1	64.74	0.5	65.24	0	UA_without_intermediate	practice	ward_and_allport	89	3.0	0.5	to_board	poldrack-single-stim	s130	False
1.0	65.243	2.0	65.242	0	UA_without_intermediate	practice	ward_and_allport	-1	3.0	n/a	feedback	poldrack-single-stim	s130	False
5.732	69.25	5.732	74.982	1	PA_with_intermediate	test	ward_and_allport	89	0.0	5.732	to_hand	poldrack-single-stim	s130	False
0.1	74.983	1.313	76.296	0	PA_with_intermediate	test	ward_and_allport	82	0.0	1.313	to_board	poldrack-single-stim	s130	False
0.1	76.299	1.09	77.389	0	PA_with_intermediate	test	ward_and_allport	89	0.0	1.09	to_hand	poldrack-single-stim	s130	False
0.1	77.389	0.775	78.164	0	PA_with_intermediate	test	ward_and_allport	71	0.0	0.775	to_board	poldrack-single-stim	s130	False
0.1	78.166	0.732	78.898	0	PA_with_intermediate	test	ward_and_allport	82	0.0	0.732	to_hand	poldrack-single-stim	s130	False
0.1	78.9	0.605	79.505	0	PA_with_intermediate	test	ward_and_allport	71	0.0	0.605	to_board	poldrack-single-stim	s130	False
1.0	79.508	2.408	79.507	0	PA_with_intermediate	test	ward_and_allport	-1	0.0	n/a	feedback	poldrack-single-stim	s130	False
5.207	81.918	5.207	87.125	1	PA_without_intermediate	test	ward_and_allport	71	1.0	5.207	to_hand	poldrack-single-stim	s130	False
0.1	87.126	0.568	87.694	0	PA_without_intermediate	test	ward_and_allport	82	1.0	0.568	to_board	poldrack-single-stim	s130	False
0.1	87.696	2.866	90.562	0	PA_without_intermediate	test	ward_and_allport	71	1.0	2.866	to_hand	poldrack-single-stim	s130	False
0.1	90.562	0.437	90.999	0	PA_without_intermediate	test	ward_and_allport	89	1.0	0.437	to_board	poldrack-single-stim	s130	False
0.1	91.001	1.719	92.72	0	PA_without_intermediate	test	ward_and_allport	71	1.0	1.719	to_hand	poldrack-single-stim	s130	False
0.1	92.722	0.472	93.194	0	PA_without_intermediate	test	ward_and_allport	82	1.0	0.472	to_board	poldrack-single-stim	s130	False
1.0	93.198	2.68	93.197	0	PA_without_intermediate	test	ward_and_allport	-1	1.0	n/a	feedback	poldrack-single-stim	s130	False
5.452	95.881	5.452	101.333	1	PA_with_intermediate	test	ward_and_allport	71	2.0	5.452	to_hand	poldrack-single-stim	s130	False
0.1	101.333	0.536	101.869	0	PA_with_intermediate	test	ward_and_allport	89	2.0	0.536	to_board	poldrack-single-stim	s130	False
0.1	101.871	1.34	103.211	0	PA_with_intermediate	test	ward_and_allport	71	2.0	1.34	to_hand	poldrack-single-stim	s130	False
0.1	103.212	0.492	103.704	0	PA_with_intermediate	test	ward_and_allport	82	2.0	0.492	to_board	poldrack-single-stim	s130	False
0.1	103.707	1.118	104.825	0	PA_with_intermediate	test	ward_and_allport	89	2.0	1.118	to_hand	poldrack-single-stim	s130	False
0.1	104.825	0.483	105.308	0	PA_with_intermediate	test	ward_and_allport	71	2.0	0.483	to_board	poldrack-single-stim	s130	False
1.0	105.312	4.72	105.311	0	PA_with_intermediate	test	ward_and_allport	-1	2.0	n/a	feedback	poldrack-single-stim	s130	False
4.804	110.035	4.804	114.839	1	PA_without_intermediate	test	ward_and_allport	82	3.0	4.804	to_hand	poldrack-single-stim	s130	False
0.1	114.839	0.481	115.32	0	PA_without_intermediate	test	ward_and_allport	89	3.0	0.481	to_board	poldrack-single-stim	s130	False
0.1	115.323	2.719	118.042	0	PA_without_intermediate	test	ward_and_allport	82	3.0	2.719	to_hand	poldrack-single-stim	s130	False
0.1	118.043	0.439	118.482	0	PA_without_intermediate	test	ward_and_allport	89	3.0	0.439	to_board	poldrack-single-stim	s130	False
0.1	118.486	1.556	120.042	0	PA_without_intermediate	test	ward_and_allport	82	3.0	1.556	to_hand	poldrack-single-stim	s130	False
0.1	120.043	0.408	120.451	0	PA_without_intermediate	test	ward_and_allport	71	3.0	0.408	to_board	poldrack-single-stim	s130	False
1.0	120.455	3.224	120.454	0	PA_without_intermediate	test	ward_and_allport	-1	3.0	n/a	feedback	poldrack-single-stim	s130	False
5.043	123.682	5.043	128.725	1	PA_without_intermediate	test	ward_and_allport	89	4.0	5.043	to_hand	poldrack-single-stim	s130	False
0.1	128.726	0.848	129.574	0	PA_without_intermediate	test	ward_and_allport	71	4.0	0.848	to_board	poldrack-single-stim	s130	False
0.1	129.576	1.788	131.364	0	PA_without_intermediate	test	ward_and_allport	89	4.0	1.788	to_hand	poldrack-single-stim	s130	False
0.1	131.366	0.385	131.751	0	PA_without_intermediate	test	ward_and_allport	71	4.0	0.385	to_board	poldrack-single-stim	s130	False
0.1	131.754	0.938	132.692	0	PA_without_intermediate	test	ward_and_allport	89	4.0	0.938	to_hand	poldrack-single-stim	s130	False
0.1	132.692	0.454	133.146	0	PA_without_intermediate	test	ward_and_allport	82	4.0	0.454	to_board	poldrack-single-stim	s130	False
1.0	133.15	2.272	133.149	0	PA_without_intermediate	test	ward_and_allport	-1	4.0	n/a	feedback	poldrack-single-stim	s130	False
7.94	135.425	7.94	143.365	1	PA_with_intermediate	test	ward_and_allport	89	5.0	7.94	to_hand	poldrack-single-stim	s130	False
0.1	143.366	1.192	144.558	0	PA_with_intermediate	test	ward_and_allport	71	5.0	1.192	to_board	poldrack-single-stim	s130	False
0.1	144.562	0.783	145.345	0	PA_with_intermediate	test	ward_and_allport	89	5.0	0.783	to_hand	poldrack-single-stim	s130	False
0.1	145.347	0.509	145.856	0	PA_with_intermediate	test	ward_and_allport	82	5.0	0.509	to_board	poldrack-single-stim	s130	False
0.1	145.86	0.99	146.85	0	PA_with_intermediate	test	ward_and_allport	71	5.0	0.99	to_hand	poldrack-single-stim	s130	False
0.1	146.851	0.478	147.329	0	PA_with_intermediate	test	ward_and_allport	82	5.0	0.478	to_board	poldrack-single-stim	s130	False
1.0	147.333	3.632	147.332	0	PA_with_intermediate	test	ward_and_allport	-1	5.0	n/a	feedback	poldrack-single-stim	s130	False
5.039	150.968	5.039	156.007	1	PA_without_intermediate	test	ward_and_allport	82	6.0	5.039	to_hand	poldrack-single-stim	s130	False
0.1	156.008	0.526	156.534	0	PA_without_intermediate	test	ward_and_allport	71	6.0	0.526	to_board	poldrack-single-stim	s130	False
0.1	156.538	1.29	157.828	0	PA_without_intermediate	test	ward_and_allport	82	6.0	1.29	to_hand	poldrack-single-stim	s130	False
0.1	157.829	0.421	158.25	0	PA_without_intermediate	test	ward_and_allport	71	6.0	0.421	to_board	poldrack-single-stim	s130	False
0.1	158.253	1.165	159.418	0	PA_without_intermediate	test	ward_and_allport	82	6.0	1.165	to_hand	poldrack-single-stim	s130	False
0.1	159.418	0.456	159.874	0	PA_without_intermediate	test	ward_and_allport	89	6.0	0.456	to_board	poldrack-single-stim	s130	False
1.0	159.879	2.408	159.878	0	PA_without_intermediate	test	ward_and_allport	-1	6.0	n/a	feedback	poldrack-single-stim	s130	False
2.515	162.29	2.515	164.805	1	PA_without_intermediate	test	ward_and_allport	89	7.0	2.515	to_hand	poldrack-single-stim	s130	False
0.1	164.805	0.736	165.541	0	PA_without_intermediate	test	ward_and_allport	71	7.0	0.736	to_board	poldrack-single-stim	s130	False
0.1	165.545	0.897	166.442	0	PA_without_intermediate	test	ward_and_allport	89	7.0	0.897	to_hand	poldrack-single-stim	s130	False
0.1	166.443	0.398	166.841	0	PA_without_intermediate	test	ward_and_allport	71	7.0	0.398	to_board	poldrack-single-stim	s130	False
0.1	166.843	0.656	167.499	0	PA_without_intermediate	test	ward_and_allport	89	7.0	0.656	to_hand	poldrack-single-stim	s130	False
0.1	167.501	0.39	167.891	0	PA_without_intermediate	test	ward_and_allport	82	7.0	0.39	to_board	poldrack-single-stim	s130	False
1.0	167.896	2.0	167.895	0	PA_without_intermediate	test	ward_and_allport	-1	7.0	n/a	feedback	poldrack-single-stim	s130	False
5.036	169.899	5.036	174.935	1	PA_with_intermediate	test	ward_and_allport	82	8.0	5.036	to_hand	poldrack-single-stim	s130	False
0.1	174.937	0.403	175.34	0	PA_with_intermediate	test	ward_and_allport	71	8.0	0.403	to_board	poldrack-single-stim	s130	False
0.1	175.343	1.877	177.22	0	PA_with_intermediate	test	ward_and_allport	82	8.0	1.877	to_hand	poldrack-single-stim	s130	False
0.1	177.221	0.362	177.583	0	PA_with_intermediate	test	ward_and_allport	89	8.0	0.362	to_board	poldrack-single-stim	s130	False
0.1	177.587	1.282	178.869	0	PA_with_intermediate	test	ward_and_allport	71	8.0	1.282	to_hand	poldrack-single-stim	s130	False
0.1	178.87	0.385	179.255	0	PA_with_intermediate	test	ward_and_allport	82	8.0	0.385	to_board	poldrack-single-stim	s130	False
1.0	179.259	2.0	179.258	0	PA_with_intermediate	test	ward_and_allport	-1	8.0	n/a	feedback	poldrack-single-stim	s130	False
4.136	181.263	4.136	185.399	1	PA_with_intermediate	test	ward_and_allport	82	9.0	4.136	to_hand	poldrack-single-stim	s130	False
0.1	185.401	0.427	185.828	0	PA_with_intermediate	test	ward_and_allport	71	9.0	0.427	to_board	poldrack-single-stim	s130	False
0.1	185.832	0.899	186.731	0	PA_with_intermediate	test	ward_and_allport	82	9.0	0.899	to_hand	poldrack-single-stim	s130	False
0.1	186.732	0.398	187.13	0	PA_with_intermediate	test	ward_and_allport	89	9.0	0.398	to_board	poldrack-single-stim	s130	False
0.1	187.134	0.721	187.855	0	PA_with_intermediate	test	ward_and_allport	71	9.0	0.721	to_hand	poldrack-single-stim	s130	False
0.1	187.856	0.4	188.256	0	PA_with_intermediate	test	ward_and_allport	89	9.0	0.4	to_board	poldrack-single-stim	s130	False
1.0	188.261	2.0	188.26	0	PA_with_intermediate	test	ward_and_allport	-1	9.0	n/a	feedback	poldrack-single-stim	s130	False
3.273	190.264	3.273	193.537	1	PA_with_intermediate	test	ward_and_allport	82	10.0	3.273	to_hand	poldrack-single-stim	s130	False
0.1	193.539	0.371	193.91	0	PA_with_intermediate	test	ward_and_allport	89	10.0	0.371	to_board	poldrack-single-stim	s130	False
0.1	193.914	1.767	195.681	0	PA_with_intermediate	test	ward_and_allport	82	10.0	1.767	to_hand	poldrack-single-stim	s130	False
0.1	195.681	0.377	196.058	0	PA_with_intermediate	test	ward_and_allport	71	10.0	0.377	to_board	poldrack-single-stim	s130	False
0.1	196.062	1.236	197.298	0	PA_with_intermediate	test	ward_and_allport	89	10.0	1.236	to_hand	poldrack-single-stim	s130	False
0.1	197.3	0.413	197.713	0	PA_with_intermediate	test	ward_and_allport	71	10.0	0.413	to_board	poldrack-single-stim	s130	False
1.0	197.718	2.408	197.717	0	PA_with_intermediate	test	ward_and_allport	-1	10.0	n/a	feedback	poldrack-single-stim	s130	False
5.098	200.132	5.098	205.23	1	PA_without_intermediate	test	ward_and_allport	71	11.0	5.098	to_hand	poldrack-single-stim	s130	False
0.1	205.231	0.395	205.626	0	PA_without_intermediate	test	ward_and_allport	89	11.0	0.395	to_board	poldrack-single-stim	s130	False
0.1	205.63	0.974	206.604	0	PA_without_intermediate	test	ward_and_allport	71	11.0	0.974	to_hand	poldrack-single-stim	s130	False
0.1	206.605	0.433	207.038	0	PA_without_intermediate	test	ward_and_allport	82	11.0	0.433	to_board	poldrack-single-stim	s130	False
0.1	207.042	1.092	208.134	0	PA_without_intermediate	test	ward_and_allport	71	11.0	1.092	to_hand	poldrack-single-stim	s130	False
0.1	208.136	0.381	208.517	0	PA_without_intermediate	test	ward_and_allport	89	11.0	0.381	to_board	poldrack-single-stim	s130	False
1.0	208.523	2.816	208.522	0	PA_without_intermediate	test	ward_and_allport	-1	11.0	n/a	feedback	poldrack-single-stim	s130	False
4.087	211.342	4.087	215.429	1	PA_with_intermediate	test	ward_and_allport	89	12.0	4.087	to_hand	poldrack-single-stim	s130	False
0.1	215.43	0.661	216.091	0	PA_with_intermediate	test	ward_and_allport	82	12.0	0.661	to_board	poldrack-single-stim	s130	False
0.1	216.095	2.286	218.381	0	PA_with_intermediate	test	ward_and_allport	89	12.0	2.286	to_hand	poldrack-single-stim	s130	False
0.1	218.382	0.388	218.77	0	PA_with_intermediate	test	ward_and_allport	71	12.0	0.388	to_board	poldrack-single-stim	s130	False
0.1	218.775	1.493	220.268	0	PA_with_intermediate	test	ward_and_allport	82	12.0	1.493	to_hand	poldrack-single-stim	s130	False
0.1	220.269	0.426	220.695	0	PA_with_intermediate	test	ward_and_allport	89	12.0	0.426	to_board	poldrack-single-stim	s130	False
1.0	220.699	4.176	220.698	0	PA_with_intermediate	test	ward_and_allport	-1	12.0	n/a	feedback	poldrack-single-stim	s130	False
5.123	224.879	5.123	230.002	1	PA_with_intermediate	test	ward_and_allport	82	13.0	5.123	to_hand	poldrack-single-stim	s130	False
0.1	230.003	0.36	230.363	0	PA_with_intermediate	test	ward_and_allport	89	13.0	0.36	to_board	poldrack-single-stim	s130	False
0.1	230.367	4.009	234.376	0	PA_with_intermediate	test	ward_and_allport	82	13.0	4.009	to_hand	poldrack-single-stim	s130	False
0.1	234.377	0.495	234.872	0	PA_with_intermediate	test	ward_and_allport	71	13.0	0.495	to_board	poldrack-single-stim	s130	False
0.1	234.875	1.479	236.354	0	PA_with_intermediate	test	ward_and_allport	89	13.0	1.479	to_hand	poldrack-single-stim	s130	False
0.1	236.356	0.396	236.752	0	PA_with_intermediate	test	ward_and_allport	82	13.0	0.396	to_board	poldrack-single-stim	s130	False
1.0	236.758	3.36	236.757	0	PA_with_intermediate	test	ward_and_allport	-1	13.0	n/a	feedback	poldrack-single-stim	s130	False
4.6	240.122	4.6	244.722	1	PA_with_intermediate	test	ward_and_allport	89	14.0	4.6	to_hand	poldrack-single-stim	s130	False
0.1	244.723	0.453	245.176	0	PA_with_intermediate	test	ward_and_allport	82	14.0	0.453	to_board	poldrack-single-stim	s130	False
0.1	245.18	1.486	246.666	0	PA_with_intermediate	test	ward_and_allport	89	14.0	1.486	to_hand	poldrack-single-stim	s130	False
0.1	246.666	0.364	247.03	0	PA_with_intermediate	test	ward_and_allport	71	14.0	0.364	to_board	poldrack-single-stim	s130	False
0.1	247.034	1.832	248.866	0	PA_with_intermediate	test	ward_and_allport	82	14.0	1.832	to_hand	poldrack-single-stim	s130	False
0.1	248.867	0.406	249.273	0	PA_with_intermediate	test	ward_and_allport	89	14.0	0.406	to_board	poldrack-single-stim	s130	False
1.0	249.278	2.0	249.277	0	PA_with_intermediate	test	ward_and_allport	-1	14.0	n/a	feedback	poldrack-single-stim	s130	False
3.988	256.287	3.988	260.275	1	PA_without_intermediate	test	ward_and_allport	71	15.0	3.988	to_hand	poldrack-single-stim	s130	False
0.1	260.276	0.617	260.893	0	PA_without_intermediate	test	ward_and_allport	89	15.0	0.617	to_board	poldrack-single-stim	s130	False
0.1	260.896	0.784	261.68	0	PA_without_intermediate	test	ward_and_allport	71	15.0	0.784	to_hand	poldrack-single-stim	s130	False
0.1	261.682	0.388	262.07	0	PA_without_intermediate	test	ward_and_allport	89	15.0	0.388	to_board	poldrack-single-stim	s130	False
0.1	262.074	0.677	262.751	0	PA_without_intermediate	test	ward_and_allport	71	15.0	0.677	to_hand	poldrack-single-stim	s130	False
0.1	262.752	0.444	263.196	0	PA_without_intermediate	test	ward_and_allport	82	15.0	0.444	to_board	poldrack-single-stim	s130	False
1.0	263.201	2.408	263.2	0	PA_without_intermediate	test	ward_and_allport	-1	15.0	n/a	feedback	poldrack-single-stim	s130	False
4.811	265.615	4.811	270.426	1	PA_with_intermediate	test	ward_and_allport	71	16.0	4.811	to_hand	poldrack-single-stim	s130	False
0.1	270.427	0.384	270.811	0	PA_with_intermediate	test	ward_and_allport	89	16.0	0.384	to_board	poldrack-single-stim	s130	False
0.1	270.816	0.714	271.53	0	PA_with_intermediate	test	ward_and_allport	71	16.0	0.714	to_hand	poldrack-single-stim	s130	False
0.1	271.531	0.491	272.022	0	PA_with_intermediate	test	ward_and_allport	82	16.0	0.491	to_board	poldrack-single-stim	s130	False
0.1	272.026	0.645	272.671	0	PA_with_intermediate	test	ward_and_allport	89	16.0	0.645	to_hand	poldrack-single-stim	s130	False
0.1	272.672	0.422	273.094	0	PA_with_intermediate	test	ward_and_allport	82	16.0	0.422	to_board	poldrack-single-stim	s130	False
1.0	273.101	2.816	273.1	0	PA_with_intermediate	test	ward_and_allport	-1	16.0	n/a	feedback	poldrack-single-stim	s130	False
4.244	275.921	4.244	280.165	1	PA_without_intermediate	test	ward_and_allport	89	17.0	4.244	to_hand	poldrack-single-stim	s130	False
0.1	280.167	0.775	280.942	0	PA_without_intermediate	test	ward_and_allport	82	17.0	0.775	to_board	poldrack-single-stim	s130	False
0.1	280.947	2.093	283.04	0	PA_without_intermediate	test	ward_and_allport	89	17.0	2.093	to_hand	poldrack-single-stim	s130	False
0.1	283.041	0.545	283.586	0	PA_without_intermediate	test	ward_and_allport	82	17.0	0.545	to_board	poldrack-single-stim	s130	False
0.1	283.59	0.742	284.332	0	PA_without_intermediate	test	ward_and_allport	89	17.0	0.742	to_hand	poldrack-single-stim	s130	False
0.1	284.333	0.482	284.815	0	PA_without_intermediate	test	ward_and_allport	71	17.0	0.482	to_board	poldrack-single-stim	s130	False
1.0	284.821	3.088	284.82	0	PA_without_intermediate	test	ward_and_allport	-1	17.0	n/a	feedback	poldrack-single-stim	s130	False
3.481	287.915	3.481	291.396	1	PA_without_intermediate	test	ward_and_allport	82	18.0	3.481	to_hand	poldrack-single-stim	s130	False
0.1	291.396	0.416	291.812	0	PA_without_intermediate	test	ward_and_allport	89	18.0	0.416	to_board	poldrack-single-stim	s130	False
0.1	291.817	1.579	293.396	0	PA_without_intermediate	test	ward_and_allport	82	18.0	1.579	to_hand	poldrack-single-stim	s130	False
0.1	293.396	0.385	293.781	0	PA_without_intermediate	test	ward_and_allport	71	18.0	0.385	to_board	poldrack-single-stim	s130	False
0.1	293.787	1.501	295.288	0	PA_without_intermediate	test	ward_and_allport	82	18.0	1.501	to_hand	poldrack-single-stim	s130	False
0.1	295.289	0.376	295.665	0	PA_without_intermediate	test	ward_and_allport	89	18.0	0.376	to_board	poldrack-single-stim	s130	False
1.0	295.67	2.136	295.669	0	PA_without_intermediate	test	ward_and_allport	-1	18.0	n/a	feedback	poldrack-single-stim	s130	False
3.543	297.811	3.543	301.354	1	PA_without_intermediate	test	ward_and_allport	71	19.0	3.543	to_hand	poldrack-single-stim	s130	False
0.1	301.355	0.485	301.84	0	PA_without_intermediate	test	ward_and_allport	82	19.0	0.485	to_board	poldrack-single-stim	s130	False
0.1	301.844	1.535	303.379	0	PA_without_intermediate	test	ward_and_allport	71	19.0	1.535	to_hand	poldrack-single-stim	s130	False
0.1	303.381	0.395	303.776	0	PA_without_intermediate	test	ward_and_allport	89	19.0	0.395	to_board	poldrack-single-stim	s130	False
0.1	303.78	1.088	304.868	0	PA_without_intermediate	test	ward_and_allport	71	19.0	1.088	to_hand	poldrack-single-stim	s130	False
0.1	304.87	0.43	305.3	0	PA_without_intermediate	test	ward_and_allport	82	19.0	0.43	to_board	poldrack-single-stim	s130	False
1.0	305.306	7.168	305.305	0	PA_without_intermediate	test	ward_and_allport	-1	19.0	n/a	feedback	poldrack-single-stim	s130	False
4.468	312.479	4.468	316.947	1	PA_without_intermediate	test	ward_and_allport	82	20.0	4.468	to_hand	poldrack-single-stim	s130	False
0.1	316.948	0.433	317.381	0	PA_without_intermediate	test	ward_and_allport	89	20.0	0.433	to_board	poldrack-single-stim	s130	False
0.1	317.386	1.154	318.54	0	PA_without_intermediate	test	ward_and_allport	82	20.0	1.154	to_hand	poldrack-single-stim	s130	False
0.1	318.542	0.407	318.949	0	PA_without_intermediate	test	ward_and_allport	71	20.0	0.407	to_board	poldrack-single-stim	s130	False
0.1	318.953	1.385	320.338	0	PA_without_intermediate	test	ward_and_allport	82	20.0	1.385	to_hand	poldrack-single-stim	s130	False
0.1	320.34	0.389	320.729	0	PA_without_intermediate	test	ward_and_allport	89	20.0	0.389	to_board	poldrack-single-stim	s130	False
1.0	320.734	2.816	320.733	0	PA_without_intermediate	test	ward_and_allport	-1	20.0	n/a	feedback	poldrack-single-stim	s130	False
3.981	323.556	3.981	327.537	1	PA_with_intermediate	test	ward_and_allport	71	21.0	3.981	to_hand	poldrack-single-stim	s130	False
0.1	327.538	0.433	327.971	0	PA_with_intermediate	test	ward_and_allport	82	21.0	0.433	to_board	poldrack-single-stim	s130	False
0.1	327.977	0.682	328.659	0	PA_with_intermediate	test	ward_and_allport	71	21.0	0.682	to_hand	poldrack-single-stim	s130	False
0.1	328.66	0.388	329.048	0	PA_with_intermediate	test	ward_and_allport	89	21.0	0.388	to_board	poldrack-single-stim	s130	False
0.1	329.053	0.647	329.7	0	PA_with_intermediate	test	ward_and_allport	82	21.0	0.647	to_hand	poldrack-single-stim	s130	False
0.1	329.701	0.494	330.195	0	PA_with_intermediate	test	ward_and_allport	89	21.0	0.494	to_board	poldrack-single-stim	s130	False
1.0	330.201	2.952	330.2	0	PA_with_intermediate	test	ward_and_allport	-1	21.0	n/a	feedback	poldrack-single-stim	s130	False
2.942	333.158	2.942	336.1	1	PA_with_intermediate	test	ward_and_allport	82	22.0	2.942	to_hand	poldrack-single-stim	s130	False
0.1	336.101	0.394	336.495	0	PA_with_intermediate	test	ward_and_allport	89	22.0	0.394	to_board	poldrack-single-stim	s130	False
0.1	336.502	1.355	337.857	0	PA_with_intermediate	test	ward_and_allport	82	22.0	1.355	to_hand	poldrack-single-stim	s130	False
0.1	337.857	0.37	338.227	0	PA_with_intermediate	test	ward_and_allport	71	22.0	0.37	to_board	poldrack-single-stim	s130	False
0.1	338.233	0.695	338.928	0	PA_with_intermediate	test	ward_and_allport	89	22.0	0.695	to_hand	poldrack-single-stim	s130	False
0.1	338.929	0.395	339.324	0	PA_with_intermediate	test	ward_and_allport	71	22.0	0.395	to_board	poldrack-single-stim	s130	False
1.0	339.332	2.136	339.331	0	PA_with_intermediate	test	ward_and_allport	-1	22.0	n/a	feedback	poldrack-single-stim	s130	False
4.007	341.472	4.007	345.479	1	PA_without_intermediate	test	ward_and_allport	71	23.0	4.007	to_hand	poldrack-single-stim	s130	False
0.1	345.48	0.465	345.945	0	PA_without_intermediate	test	ward_and_allport	89	23.0	0.465	to_board	poldrack-single-stim	s130	False
0.1	345.952	0.703	346.655	0	PA_without_intermediate	test	ward_and_allport	71	23.0	0.703	to_hand	poldrack-single-stim	s130	False
0.1	346.655	0.412	347.067	0	PA_without_intermediate	test	ward_and_allport	82	23.0	0.412	to_board	poldrack-single-stim	s130	False
0.1	347.074	0.761	347.835	0	PA_without_intermediate	test	ward_and_allport	71	23.0	0.761	to_hand	poldrack-single-stim	s130	False
0.1	347.836	0.57	348.406	0	PA_without_intermediate	test	ward_and_allport	89	23.0	0.57	to_board	poldrack-single-stim	s130	False
1.0	348.413	2.68	348.412	0	PA_without_intermediate	test	ward_and_allport	-1	23.0	n/a	feedback	poldrack-single-stim	s130	False
2.815	351.1	2.815	353.915	1	PA_without_intermediate	test	ward_and_allport	89	24.0	2.815	to_hand	poldrack-single-stim	s130	False
0.1	353.916	0.802	354.718	0	PA_without_intermediate	test	ward_and_allport	71	24.0	0.802	to_board	poldrack-single-stim	s130	False
0.1	354.724	0.817	355.541	0	PA_without_intermediate	test	ward_and_allport	89	24.0	0.817	to_hand	poldrack-single-stim	s130	False
0.1	355.542	0.384	355.926	0	PA_without_intermediate	test	ward_and_allport	82	24.0	0.384	to_board	poldrack-single-stim	s130	False
0.1	355.933	0.547	356.48	0	PA_without_intermediate	test	ward_and_allport	89	24.0	0.547	to_hand	poldrack-single-stim	s130	False
0.1	356.48	0.335	356.815	0	PA_without_intermediate	test	ward_and_allport	71	24.0	0.335	to_board	poldrack-single-stim	s130	False
1.0	356.823	3.088	356.822	0	PA_without_intermediate	test	ward_and_allport	-1	24.0	n/a	feedback	poldrack-single-stim	s130	False
3.637	359.918	3.637	363.555	1	PA_with_intermediate	test	ward_and_allport	71	25.0	3.637	to_hand	poldrack-single-stim	s130	False
0.1	363.556	0.99	364.546	0	PA_with_intermediate	test	ward_and_allport	89	25.0	0.99	to_board	poldrack-single-stim	s130	False
0.1	364.553	0.51	365.063	0	PA_with_intermediate	test	ward_and_allport	71	25.0	0.51	to_hand	poldrack-single-stim	s130	False
0.1	365.064	0.394	365.458	0	PA_with_intermediate	test	ward_and_allport	82	25.0	0.394	to_board	poldrack-single-stim	s130	False
0.1	365.464	0.594	366.058	0	PA_with_intermediate	test	ward_and_allport	89	25.0	0.594	to_hand	poldrack-single-stim	s130	False
0.1	366.059	0.335	366.394	0	PA_with_intermediate	test	ward_and_allport	71	25.0	0.335	to_board	poldrack-single-stim	s130	False
1.0	366.402	2.0	366.401	0	PA_with_intermediate	test	ward_and_allport	-1	25.0	n/a	feedback	poldrack-single-stim	s130	False
2.741	368.408	2.741	371.149	1	PA_without_intermediate	test	ward_and_allport	82	26.0	2.741	to_hand	poldrack-single-stim	s130	False
0.1	371.15	0.608	371.758	0	PA_without_intermediate	test	ward_and_allport	71	26.0	0.608	to_board	poldrack-single-stim	s130	False
0.1	371.764	1.456	373.22	0	PA_without_intermediate	test	ward_and_allport	82	26.0	1.456	to_hand	poldrack-single-stim	s130	False
0.1	373.222	0.325	373.547	0	PA_without_intermediate	test	ward_and_allport	89	26.0	0.325	to_board	poldrack-single-stim	s130	False
0.1	373.553	1.715	375.268	0	PA_without_intermediate	test	ward_and_allport	82	26.0	1.715	to_hand	poldrack-single-stim	s130	False
0.1	375.269	0.371	375.64	0	PA_without_intermediate	test	ward_and_allport	71	26.0	0.371	to_board	poldrack-single-stim	s130	False
1.0	375.648	2.0	375.647	0	PA_without_intermediate	test	ward_and_allport	-1	26.0	n/a	feedback	poldrack-single-stim	s130	False
2.337	377.654	2.337	379.991	1	PA_without_intermediate	test	ward_and_allport	82	27.0	2.337	to_hand	poldrack-single-stim	s130	False
0.1	379.992	0.363	380.355	0	PA_without_intermediate	test	ward_and_allport	89	27.0	0.363	to_board	poldrack-single-stim	s130	False
0.1	380.361	2.159	382.52	0	PA_without_intermediate	test	ward_and_allport	82	27.0	2.159	to_hand	poldrack-single-stim	s130	False
0.1	382.522	0.325	382.847	0	PA_without_intermediate	test	ward_and_allport	89	27.0	0.325	to_board	poldrack-single-stim	s130	False
0.1	382.854	0.475	383.329	0	PA_without_intermediate	test	ward_and_allport	82	27.0	0.475	to_hand	poldrack-single-stim	s130	False
0.1	383.33	0.331	383.661	0	PA_without_intermediate	test	ward_and_allport	71	27.0	0.331	to_board	poldrack-single-stim	s130	False
1.0	383.669	2.0	383.668	0	PA_without_intermediate	test	ward_and_allport	-1	27.0	n/a	feedback	poldrack-single-stim	s130	False
4.291	385.677	4.291	389.968	1	PA_with_intermediate	test	ward_and_allport	89	28.0	4.291	to_hand	poldrack-single-stim	s130	False
0.1	389.968	0.339	390.307	0	PA_with_intermediate	test	ward_and_allport	71	28.0	0.339	to_board	poldrack-single-stim	s130	False
0.1	390.315	0.689	391.004	0	PA_with_intermediate	test	ward_and_allport	89	28.0	0.689	to_hand	poldrack-single-stim	s130	False
0.1	391.006	0.403	391.409	0	PA_with_intermediate	test	ward_and_allport	82	28.0	0.403	to_board	poldrack-single-stim	s130	False
0.1	391.416	0.677	392.093	0	PA_with_intermediate	test	ward_and_allport	71	28.0	0.677	to_hand	poldrack-single-stim	s130	False
0.1	392.094	0.34	392.434	0	PA_with_intermediate	test	ward_and_allport	82	28.0	0.34	to_board	poldrack-single-stim	s130	False
1.0	392.441	2.544	392.44	0	PA_with_intermediate	test	ward_and_allport	-1	28.0	n/a	feedback	poldrack-single-stim	s130	False
2.764	394.992	2.764	397.756	1	PA_without_intermediate	test	ward_and_allport	89	29.0	2.764	to_hand	poldrack-single-stim	s130	False
0.1	397.757	0.362	398.119	0	PA_without_intermediate	test	ward_and_allport	71	29.0	0.362	to_board	poldrack-single-stim	s130	False
0.1	398.127	0.923	399.05	0	PA_without_intermediate	test	ward_and_allport	89	29.0	0.923	to_hand	poldrack-single-stim	s130	False
0.1	399.052	0.368	399.42	0	PA_without_intermediate	test	ward_and_allport	82	29.0	0.368	to_board	poldrack-single-stim	s130	False
0.1	399.428	0.789	400.217	0	PA_without_intermediate	test	ward_and_allport	89	29.0	0.789	to_hand	poldrack-single-stim	s130	False
0.1	400.217	0.315	400.532	0	PA_without_intermediate	test	ward_and_allport	71	29.0	0.315	to_board	poldrack-single-stim	s130	False
1.0	400.542	2.272	400.541	0	PA_without_intermediate	test	ward_and_allport	-1	29.0	n/a	feedback	poldrack-single-stim	s130	False
4.973	407.824	4.973	412.797	1	PA_with_intermediate	test	ward_and_allport	71	30.0	4.973	to_hand	poldrack-single-stim	s130	False
0.1	412.798	0.383	413.181	0	PA_with_intermediate	test	ward_and_allport	82	30.0	0.383	to_board	poldrack-single-stim	s130	False
0.1	413.187	0.987	414.174	0	PA_with_intermediate	test	ward_and_allport	71	30.0	0.987	to_hand	poldrack-single-stim	s130	False
0.1	414.175	0.399	414.574	0	PA_with_intermediate	test	ward_and_allport	89	30.0	0.399	to_board	poldrack-single-stim	s130	False
0.1	414.581	1.115	415.696	0	PA_with_intermediate	test	ward_and_allport	82	30.0	1.115	to_hand	poldrack-single-stim	s130	False
0.1	415.698	0.356	416.054	0	PA_with_intermediate	test	ward_and_allport	71	30.0	0.356	to_board	poldrack-single-stim	s130	False
1.0	416.062	4.04	416.061	0	PA_with_intermediate	test	ward_and_allport	-1	30.0	n/a	feedback	poldrack-single-stim	s130	False
2.92	420.111	2.92	423.031	1	PA_with_intermediate	test	ward_and_allport	82	31.0	2.92	to_hand	poldrack-single-stim	s130	False
0.1	423.033	0.364	423.397	0	PA_with_intermediate	test	ward_and_allport	71	31.0	0.364	to_board	poldrack-single-stim	s130	False
0.1	423.404	0.927	424.331	0	PA_with_intermediate	test	ward_and_allport	82	31.0	0.927	to_hand	poldrack-single-stim	s130	False
0.1	424.331	0.352	424.683	0	PA_with_intermediate	test	ward_and_allport	89	31.0	0.352	to_board	poldrack-single-stim	s130	False
0.1	424.691	0.545	425.236	0	PA_with_intermediate	test	ward_and_allport	71	31.0	0.545	to_hand	poldrack-single-stim	s130	False
0.1	425.236	0.331	425.567	0	PA_with_intermediate	test	ward_and_allport	89	31.0	0.331	to_board	poldrack-single-stim	s130	False
1.0	425.577	2.272	425.576	0	PA_with_intermediate	test	ward_and_allport	-1	31.0	n/a	feedback	poldrack-single-stim	s130	False
4.177	427.857	4.177	432.034	1	PA_with_intermediate	test	ward_and_allport	89	32.0	4.177	to_hand	poldrack-single-stim	s130	False
0.1	432.035	0.4	432.435	0	PA_with_intermediate	test	ward_and_allport	82	32.0	0.4	to_board	poldrack-single-stim	s130	False
0.1	432.444	0.47	432.914	0	PA_with_intermediate	test	ward_and_allport	89	32.0	0.47	to_hand	poldrack-single-stim	s130	False
0.1	432.915	0.337	433.252	0	PA_with_intermediate	test	ward_and_allport	71	32.0	0.337	to_board	poldrack-single-stim	s130	False
0.1	433.26	0.494	433.754	0	PA_with_intermediate	test	ward_and_allport	82	32.0	0.494	to_hand	poldrack-single-stim	s130	False
0.1	433.755	0.332	434.087	0	PA_with_intermediate	test	ward_and_allport	71	32.0	0.332	to_board	poldrack-single-stim	s130	False
1.0	434.097	2.136	434.096	0	PA_with_intermediate	test	ward_and_allport	-1	32.0	n/a	feedback	poldrack-single-stim	s130	False
3.189	436.239	3.189	439.428	1	PA_with_intermediate	test	ward_and_allport	89	33.0	3.189	to_hand	poldrack-single-stim	s130	False
0.1	439.43	0.395	439.825	0	PA_with_intermediate	test	ward_and_allport	71	33.0	0.395	to_board	poldrack-single-stim	s130	False
0.1	439.83	0.446	440.276	0	PA_with_intermediate	test	ward_and_allport	89	33.0	0.446	to_hand	poldrack-single-stim	s130	False
0.1	440.277	0.396	440.673	0	PA_with_intermediate	test	ward_and_allport	82	33.0	0.396	to_board	poldrack-single-stim	s130	False
0.1	440.682	0.735	441.417	0	PA_with_intermediate	test	ward_and_allport	71	33.0	0.735	to_hand	poldrack-single-stim	s130	False
0.1	441.417	0.324	441.741	0	PA_with_intermediate	test	ward_and_allport	89	33.0	0.324	to_board	poldrack-single-stim	s130	False
1.0	441.751	2.0	441.75	0	PA_with_intermediate	test	ward_and_allport	-1	33.0	n/a	feedback	poldrack-single-stim	s130	False
4.842	443.762	4.842	448.604	1	PA_with_intermediate	test	ward_and_allport	71	34.0	4.842	to_hand	poldrack-single-stim	s130	False
0.1	448.605	0.387	448.992	0	PA_with_intermediate	test	ward_and_allport	82	34.0	0.387	to_board	poldrack-single-stim	s130	False
0.1	448.999	0.524	449.523	0	PA_with_intermediate	test	ward_and_allport	71	34.0	0.524	to_hand	poldrack-single-stim	s130	False
0.1	449.525	0.329	449.854	0	PA_with_intermediate	test	ward_and_allport	89	34.0	0.329	to_board	poldrack-single-stim	s130	False
0.1	449.863	0.622	450.485	0	PA_with_intermediate	test	ward_and_allport	82	34.0	0.622	to_hand	poldrack-single-stim	s130	False
0.1	450.486	0.338	450.824	0	PA_with_intermediate	test	ward_and_allport	71	34.0	0.338	to_board	poldrack-single-stim	s130	False
1.0	450.835	2.0	450.834	0	PA_with_intermediate	test	ward_and_allport	-1	34.0	n/a	feedback	poldrack-single-stim	s130	False
2.332	452.843	2.332	455.175	1	PA_without_intermediate	test	ward_and_allport	89	35.0	2.332	to_hand	poldrack-single-stim	s130	False
0.1	455.176	0.374	455.55	0	PA_without_intermediate	test	ward_and_allport	82	35.0	0.374	to_board	poldrack-single-stim	s130	False
0.1	455.557	2.314	457.871	0	PA_without_intermediate	test	ward_and_allport	89	35.0	2.314	to_hand	poldrack-single-stim	s130	False
0.1	457.872	0.395	458.267	0	PA_without_intermediate	test	ward_and_allport	71	35.0	0.395	to_board	poldrack-single-stim	s130	False
0.1	458.272	0.468	458.74	0	PA_without_intermediate	test	ward_and_allport	89	35.0	0.468	to_hand	poldrack-single-stim	s130	False
0.1	458.742	0.395	459.137	0	PA_without_intermediate	test	ward_and_allport	82	35.0	0.395	to_board	poldrack-single-stim	s130	False
1.0	459.147	2.408	459.146	0	PA_without_intermediate	test	ward_and_allport	-1	35.0	n/a	feedback	poldrack-single-stim	s130	False
4.304	461.563	4.304	465.867	1	PA_with_intermediate	test	ward_and_allport	82	36.0	4.304	to_hand	poldrack-single-stim	s130	False
0.1	465.869	0.658	466.527	0	PA_with_intermediate	test	ward_and_allport	89	36.0	0.658	to_board	poldrack-single-stim	s130	False
0.1	466.535	0.836	467.371	0	PA_with_intermediate	test	ward_and_allport	82	36.0	0.836	to_hand	poldrack-single-stim	s130	False
0.1	467.373	0.4	467.773	0	PA_with_intermediate	test	ward_and_allport	71	36.0	0.4	to_board	poldrack-single-stim	s130	False
0.1	467.782	1.928	469.71	0	PA_with_intermediate	test	ward_and_allport	89	36.0	1.928	to_hand	poldrack-single-stim	s130	False
0.1	469.711	0.399	470.11	0	PA_with_intermediate	test	ward_and_allport	82	36.0	0.399	to_board	poldrack-single-stim	s130	False
1.0	470.12	3.768	470.119	0	PA_with_intermediate	test	ward_and_allport	-1	36.0	n/a	feedback	poldrack-single-stim	s130	False
5.551	473.899	5.551	479.45	1	PA_with_intermediate	test	ward_and_allport	71	37.0	5.551	to_hand	poldrack-single-stim	s130	False
0.1	479.452	0.423	479.875	0	PA_with_intermediate	test	ward_and_allport	82	37.0	0.423	to_board	poldrack-single-stim	s130	False
0.1	479.884	0.441	480.325	0	PA_with_intermediate	test	ward_and_allport	71	37.0	0.441	to_hand	poldrack-single-stim	s130	False
0.1	480.327	0.35	480.677	0	PA_with_intermediate	test	ward_and_allport	89	37.0	0.35	to_board	poldrack-single-stim	s130	False
0.1	480.686	0.706	481.392	0	PA_with_intermediate	test	ward_and_allport	82	37.0	0.706	to_hand	poldrack-single-stim	s130	False
0.1	481.393	0.336	481.729	0	PA_with_intermediate	test	ward_and_allport	89	37.0	0.336	to_board	poldrack-single-stim	s130	False
1.0	481.74	2.68	481.739	0	PA_with_intermediate	test	ward_and_allport	-1	37.0	n/a	feedback	poldrack-single-stim	s130	False
2.703	484.428	2.703	487.131	1	PA_without_intermediate	test	ward_and_allport	71	38.0	2.703	to_hand	poldrack-single-stim	s130	False
0.1	487.132	0.421	487.553	0	PA_without_intermediate	test	ward_and_allport	82	38.0	0.421	to_board	poldrack-single-stim	s130	False
0.1	487.56	1.29	488.85	0	PA_without_intermediate	test	ward_and_allport	71	38.0	1.29	to_hand	poldrack-single-stim	s130	False
0.1	488.851	0.307	489.158	0	PA_without_intermediate	test	ward_and_allport	82	38.0	0.307	to_board	poldrack-single-stim	s130	False
0.1	489.167	1.206	490.373	0	PA_without_intermediate	test	ward_and_allport	71	38.0	1.206	to_hand	poldrack-single-stim	s130	False
0.1	490.373	0.312	490.685	0	PA_without_intermediate	test	ward_and_allport	89	38.0	0.312	to_board	poldrack-single-stim	s130	False
1.0	490.696	3.224	490.695	0	PA_without_intermediate	test	ward_and_allport	-1	38.0	n/a	feedback	poldrack-single-stim	s130	False
3.291	493.928	3.291	497.219	1	PA_without_intermediate	test	ward_and_allport	71	39.0	3.291	to_hand	poldrack-single-stim	s130	False
0.1	497.22	0.381	497.601	0	PA_without_intermediate	test	ward_and_allport	82	39.0	0.381	to_board	poldrack-single-stim	s130	False
0.1	497.607	0.606	498.213	0	PA_without_intermediate	test	ward_and_allport	71	39.0	0.606	to_hand	poldrack-single-stim	s130	False
0.1	498.215	0.401	498.616	0	PA_without_intermediate	test	ward_and_allport	82	39.0	0.401	to_board	poldrack-single-stim	s130	False
0.1	498.626	0.634	499.26	0	PA_without_intermediate	test	ward_and_allport	71	39.0	0.634	to_hand	poldrack-single-stim	s130	False
0.1	499.261	0.335	499.596	0	PA_without_intermediate	test	ward_and_allport	89	39.0	0.335	to_board	poldrack-single-stim	s130	False
1.0	499.606	3.36	499.605	0	PA_without_intermediate	test	ward_and_allport	-1	39.0	n/a	feedback	poldrack-single-stim	s130	False
3.473	502.973	3.473	506.446	1	PA_without_intermediate	test	ward_and_allport	82	40.0	3.473	to_hand	poldrack-single-stim	s130	False
0.1	506.446	0.402	506.848	0	PA_without_intermediate	test	ward_and_allport	71	40.0	0.402	to_board	poldrack-single-stim	s130	False
0.1	506.855	0.973	507.828	0	PA_without_intermediate	test	ward_and_allport	82	40.0	0.973	to_hand	poldrack-single-stim	s130	False
0.1	507.828	0.343	508.171	0	PA_without_intermediate	test	ward_and_allport	89	40.0	0.343	to_board	poldrack-single-stim	s130	False
0.1	508.182	1.088	509.27	0	PA_without_intermediate	test	ward_and_allport	82	40.0	1.088	to_hand	poldrack-single-stim	s130	False
0.1	509.272	0.308	509.58	0	PA_without_intermediate	test	ward_and_allport	71	40.0	0.308	to_board	poldrack-single-stim	s130	False
1.0	509.59	2.0	509.589	0	PA_without_intermediate	test	ward_and_allport	-1	40.0	n/a	feedback	poldrack-single-stim	s130	False
2.737	511.598	2.737	514.335	1	PA_without_intermediate	test	ward_and_allport	71	41.0	2.737	to_hand	poldrack-single-stim	s130	False
0.1	514.336	0.32	514.656	0	PA_without_intermediate	test	ward_and_allport	89	41.0	0.32	to_board	poldrack-single-stim	s130	False
0.1	514.663	0.608	515.271	0	PA_without_intermediate	test	ward_and_allport	71	41.0	0.608	to_hand	poldrack-single-stim	s130	False
0.1	515.271	0.355	515.626	0	PA_without_intermediate	test	ward_and_allport	89	41.0	0.355	to_board	poldrack-single-stim	s130	False
0.1	515.636	0.525	516.161	0	PA_without_intermediate	test	ward_and_allport	71	41.0	0.525	to_hand	poldrack-single-stim	s130	False
0.1	516.162	0.338	516.5	0	PA_without_intermediate	test	ward_and_allport	82	41.0	0.338	to_board	poldrack-single-stim	s130	False
1.0	516.509	2.408	516.508	0	PA_without_intermediate	test	ward_and_allport	-1	41.0	n/a	feedback	poldrack-single-stim	s130	False
3.424	518.924	3.424	522.348	1	PA_with_intermediate	test	ward_and_allport	71	42.0	3.424	to_hand	poldrack-single-stim	s130	False
0.1	522.348	0.339	522.687	0	PA_with_intermediate	test	ward_and_allport	89	42.0	0.339	to_board	poldrack-single-stim	s130	False
0.1	522.694	0.495	523.189	0	PA_with_intermediate	test	ward_and_allport	71	42.0	0.495	to_hand	poldrack-single-stim	s130	False
0.1	523.19	0.332	523.522	0	PA_with_intermediate	test	ward_and_allport	82	42.0	0.332	to_board	poldrack-single-stim	s130	False
0.1	523.532	0.606	524.138	0	PA_with_intermediate	test	ward_and_allport	89	42.0	0.606	to_hand	poldrack-single-stim	s130	False
0.1	524.138	0.396	524.534	0	PA_with_intermediate	test	ward_and_allport	82	42.0	0.396	to_board	poldrack-single-stim	s130	False
1.0	524.546	2.136	524.545	0	PA_with_intermediate	test	ward_and_allport	-1	42.0	n/a	feedback	poldrack-single-stim	s130	False
2.105	526.69	2.105	528.795	1	PA_without_intermediate	test	ward_and_allport	89	43.0	2.105	to_hand	poldrack-single-stim	s130	False
0.1	528.797	0.424	529.221	0	PA_without_intermediate	test	ward_and_allport	82	43.0	0.424	to_board	poldrack-single-stim	s130	False
0.1	529.229	2.114	531.343	0	PA_without_intermediate	test	ward_and_allport	89	43.0	2.114	to_hand	poldrack-single-stim	s130	False
0.1	531.343	0.383	531.726	0	PA_without_intermediate	test	ward_and_allport	82	43.0	0.383	to_board	poldrack-single-stim	s130	False
0.1	531.734	1.088	532.822	0	PA_without_intermediate	test	ward_and_allport	89	43.0	1.088	to_hand	poldrack-single-stim	s130	False
0.1	532.823	0.316	533.139	0	PA_without_intermediate	test	ward_and_allport	71	43.0	0.316	to_board	poldrack-single-stim	s130	False
1.0	533.149	5.128	533.148	0	PA_without_intermediate	test	ward_and_allport	-1	43.0	n/a	feedback	poldrack-single-stim	s130	False
2.364	538.287	2.364	540.651	1	PA_without_intermediate	test	ward_and_allport	89	44.0	2.364	to_hand	poldrack-single-stim	s130	False
0.1	540.652	0.336	540.988	0	PA_without_intermediate	test	ward_and_allport	82	44.0	0.336	to_board	poldrack-single-stim	s130	False
0.1	540.999	0.771	541.77	0	PA_without_intermediate	test	ward_and_allport	89	44.0	0.771	to_hand	poldrack-single-stim	s130	False
0.1	541.77	0.312	542.082	0	PA_without_intermediate	test	ward_and_allport	71	44.0	0.312	to_board	poldrack-single-stim	s130	False
0.1	542.094	0.559	542.653	0	PA_without_intermediate	test	ward_and_allport	89	44.0	0.559	to_hand	poldrack-single-stim	s130	False
0.1	542.654	0.32	542.974	0	PA_without_intermediate	test	ward_and_allport	82	44.0	0.32	to_board	poldrack-single-stim	s130	False
1.0	542.983	2.136	542.982	0	PA_without_intermediate	test	ward_and_allport	-1	44.0	n/a	feedback	poldrack-single-stim	s130	False
2.807	550.128	2.807	552.935	1	PA_without_intermediate	test	ward_and_allport	82	45.0	2.807	to_hand	poldrack-single-stim	s130	False
0.1	552.936	0.446	553.382	0	PA_without_intermediate	test	ward_and_allport	71	45.0	0.446	to_board	poldrack-single-stim	s130	False
0.1	553.393	1.735	555.128	0	PA_without_intermediate	test	ward_and_allport	82	45.0	1.735	to_hand	poldrack-single-stim	s130	False
0.1	555.128	0.383	555.511	0	PA_without_intermediate	test	ward_and_allport	71	45.0	0.383	to_board	poldrack-single-stim	s130	False
0.1	555.522	0.402	555.924	0	PA_without_intermediate	test	ward_and_allport	82	45.0	0.402	to_hand	poldrack-single-stim	s130	False
0.1	555.925	0.308	556.233	0	PA_without_intermediate	test	ward_and_allport	89	45.0	0.308	to_board	poldrack-single-stim	s130	False
1.0	556.243	5.264	556.242	0	PA_without_intermediate	test	ward_and_allport	-1	45.0	n/a	feedback	poldrack-single-stim	s130	False
