onset	duration	movement_onset	block_duration	condition	correct	correct_response	experiment_exp_id	key_press	response_time	trial_id	trial_type	worker_id	junk
3.007	0.5	3.006	0.5	AX	n/a	n/a	dot_pattern_expectancy	-1.0	n/a	cue	AX	s130	False
5.511	0.5	6.454	2.18	AX	1.0	89.0	dot_pattern_expectancy	89.0	0.943	probe	AX	s130	False
7.693	0.5	7.692	0.5	AY	n/a	n/a	dot_pattern_expectancy	-1.0	n/a	cue	AY	s130	False
10.197	0.5	11.12	2.316	AY	1.0	71.0	dot_pattern_expectancy	71.0	0.923	probe	AY	s130	False
12.516	0.5	12.515	0.5	AY	n/a	n/a	dot_pattern_expectancy	-1.0	n/a	cue	AY	s130	False
15.019	0.5	16.092	1.636	AY	1.0	71.0	dot_pattern_expectancy	71.0	1.073	probe	AY	s130	False
16.657	0.5	16.656	0.5	BX	n/a	n/a	dot_pattern_expectancy	-1.0	n/a	cue	BX	s130	False
19.161	0.5	20.06	1.908	BX	1.0	71.0	dot_pattern_expectancy	71.0	0.899	probe	BX	s130	False
21.072	0.5	21.071	0.5	AX	n/a	n/a	dot_pattern_expectancy	-1.0	n/a	cue	AX	s130	False
23.576	0.5	24.635	3.54	AX	1.0	89.0	dot_pattern_expectancy	89.0	1.059	probe	AX	s130	False
27.119	0.5	27.118	0.5	BX	n/a	n/a	dot_pattern_expectancy	-1.0	n/a	cue	BX	s130	False
29.624	0.5	30.452	1.636	BX	1.0	71.0	dot_pattern_expectancy	71.0	0.828	probe	BX	s130	False
31.262	0.5	31.261	0.5	BY	n/a	n/a	dot_pattern_expectancy	-1.0	n/a	cue	BY	s130	False
33.766	0.5	34.688	1.5	BY	1.0	71.0	dot_pattern_expectancy	71.0	0.922	probe	BY	s130	False
35.268	0.5	35.267	0.5	AX	n/a	n/a	dot_pattern_expectancy	-1.0	n/a	cue	AX	s130	False
37.772	0.5	38.62	1.5	AX	1.0	89.0	dot_pattern_expectancy	89.0	0.848	probe	AX	s130	False
39.275	0.5	39.274	0.5	AX	n/a	n/a	dot_pattern_expectancy	-1.0	n/a	cue	AX	s130	False
41.779	0.5	42.765	1.772	AX	1.0	89.0	dot_pattern_expectancy	89.0	0.986	probe	AX	s130	False
43.553	0.5	43.552	0.5	BY	n/a	n/a	dot_pattern_expectancy	-1.0	n/a	cue	BY	s130	False
46.058	0.5	46.993	2.452	BY	1.0	71.0	dot_pattern_expectancy	71.0	0.935	probe	BY	s130	False
48.512	0.5	48.511	0.5	AX	n/a	n/a	dot_pattern_expectancy	-1.0	n/a	cue	AX	s130	False
51.017	0.5	51.908	1.908	AX	1.0	89.0	dot_pattern_expectancy	89.0	0.891	probe	AX	s130	False
52.927	0.5	52.926	0.5	BX	n/a	n/a	dot_pattern_expectancy	-1.0	n/a	cue	BX	s130	False
55.431	0.5	55.936	1.636	BX	1.0	71.0	dot_pattern_expectancy	71.0	0.505	probe	BX	s130	False
57.068	0.5	57.067	0.5	AX	n/a	n/a	dot_pattern_expectancy	-1.0	n/a	cue	AX	s130	False
59.572	0.5	60.617	1.5	AX	1.0	89.0	dot_pattern_expectancy	89.0	1.045	probe	AX	s130	False
61.074	0.5	61.073	0.5	AX	n/a	n/a	dot_pattern_expectancy	-1.0	n/a	cue	AX	s130	False
63.579	0.5	64.702	1.636	AX	1.0	89.0	dot_pattern_expectancy	89.0	1.123	probe	AX	s130	False
65.217	0.5	65.216	0.5	AX	n/a	n/a	dot_pattern_expectancy	-1.0	n/a	cue	AX	s130	False
67.722	0.5	68.973	1.636	AX	1.0	89.0	dot_pattern_expectancy	89.0	1.251	probe	AX	s130	False
69.36	0.5	69.359	0.5	BY	n/a	n/a	dot_pattern_expectancy	-1.0	n/a	cue	BY	s130	False
71.864	0.5	72.936	2.452	BY	1.0	71.0	dot_pattern_expectancy	71.0	1.072	probe	BY	s130	False
74.318	0.5	74.317	0.5	AX	n/a	n/a	dot_pattern_expectancy	-1.0	n/a	cue	AX	s130	False
76.823	0.5	77.97	1.5	AX	1.0	89.0	dot_pattern_expectancy	89.0	1.147	probe	AX	s130	False
78.325	0.5	78.324	0.5	BY	n/a	n/a	dot_pattern_expectancy	-1.0	n/a	cue	BY	s130	False
80.83	0.5	82.048	1.5	BY	1.0	71.0	dot_pattern_expectancy	71.0	1.218	probe	BY	s130	False
82.332	0.5	82.331	0.5	AX	n/a	n/a	dot_pattern_expectancy	-1.0	n/a	cue	AX	s130	False
84.835	0.5	85.739	1.636	AX	1.0	89.0	dot_pattern_expectancy	89.0	0.904	probe	AX	s130	False
86.472	0.5	86.471	0.5	AX	n/a	n/a	dot_pattern_expectancy	-1.0	n/a	cue	AX	s130	False
88.977	0.5	89.85	1.636	AX	1.0	89.0	dot_pattern_expectancy	89.0	0.873	probe	AX	s130	False
90.615	0.5	90.614	0.5	AY	n/a	n/a	dot_pattern_expectancy	-1.0	n/a	cue	AY	s130	False
93.118	0.5	94.0	1.636	AY	1.0	71.0	dot_pattern_expectancy	71.0	0.882	probe	AY	s130	False
94.755	0.5	94.754	0.5	AX	n/a	n/a	dot_pattern_expectancy	-1.0	n/a	cue	AX	s130	False
97.259	0.5	98.136	1.5	AX	1.0	89.0	dot_pattern_expectancy	89.0	0.877	probe	AX	s130	False
98.761	0.5	98.76	0.5	AX	n/a	n/a	dot_pattern_expectancy	-1.0	n/a	cue	AX	s130	False
101.268	0.5	102.26	1.5	AX	1.0	89.0	dot_pattern_expectancy	89.0	0.992	probe	AX	s130	False
102.77	0.5	102.769	0.5	AX	n/a	n/a	dot_pattern_expectancy	-1.0	n/a	cue	AX	s130	False
105.274	0.5	106.269	1.772	AX	1.0	89.0	dot_pattern_expectancy	89.0	0.995	probe	AX	s130	False
107.049	0.5	107.048	0.5	AX	n/a	n/a	dot_pattern_expectancy	-1.0	n/a	cue	AX	s130	False
109.553	0.5	110.671	2.18	AX	1.0	89.0	dot_pattern_expectancy	89.0	1.118	probe	AX	s130	False
111.735	0.5	111.734	0.5	BX	n/a	n/a	dot_pattern_expectancy	-1.0	n/a	cue	BX	s130	False
114.24	0.5	115.221	1.772	BX	1.0	71.0	dot_pattern_expectancy	71.0	0.981	probe	BX	s130	False
116.015	0.5	116.014	0.5	BY	n/a	n/a	dot_pattern_expectancy	-1.0	n/a	cue	BY	s130	False
118.519	0.5	119.295	1.5	BY	1.0	71.0	dot_pattern_expectancy	71.0	0.776	probe	BY	s130	False
120.021	0.5	120.02	0.5	AX	n/a	n/a	dot_pattern_expectancy	-1.0	n/a	cue	AX	s130	False
122.525	0.5	123.379	1.5	AX	1.0	89.0	dot_pattern_expectancy	89.0	0.854	probe	AX	s130	False
124.026	0.5	124.025	0.5	AX	n/a	n/a	dot_pattern_expectancy	-1.0	n/a	cue	AX	s130	False
126.53	0.5	127.359	1.636	AX	1.0	89.0	dot_pattern_expectancy	89.0	0.829	probe	AX	s130	False
128.169	0.5	128.168	0.5	AY	n/a	n/a	dot_pattern_expectancy	-1.0	n/a	cue	AY	s130	False
130.672	0.5	131.668	2.18	AY	1.0	71.0	dot_pattern_expectancy	71.0	0.996	probe	AY	s130	False
132.853	0.5	132.852	0.5	AY	n/a	n/a	dot_pattern_expectancy	-1.0	n/a	cue	AY	s130	False
135.357	0.5	136.293	2.316	AY	1.0	71.0	dot_pattern_expectancy	71.0	0.936	probe	AY	s130	False
137.675	0.5	137.674	0.5	BX	n/a	n/a	dot_pattern_expectancy	-1.0	n/a	cue	BX	s130	False
140.179	0.5	141.099	1.636	BX	1.0	71.0	dot_pattern_expectancy	71.0	0.92	probe	BX	s130	False
141.818	0.5	141.817	0.5	BX	n/a	n/a	dot_pattern_expectancy	-1.0	n/a	cue	BX	s130	False
144.321	0.5	145.212	2.18	BX	1.0	71.0	dot_pattern_expectancy	71.0	0.891	probe	BX	s130	False
146.502	0.5	146.501	0.5	AY	n/a	n/a	dot_pattern_expectancy	-1.0	n/a	cue	AY	s130	False
149.006	0.5	149.869	2.044	AY	1.0	71.0	dot_pattern_expectancy	71.0	0.863	probe	AY	s130	False
151.052	0.5	151.051	0.5	AX	n/a	n/a	dot_pattern_expectancy	-1.0	n/a	cue	AX	s130	False
153.556	0.5	154.352	1.772	AX	1.0	89.0	dot_pattern_expectancy	89.0	0.796	probe	AX	s130	False
155.329	0.5	155.328	0.5	AX	n/a	n/a	dot_pattern_expectancy	-1.0	n/a	cue	AX	s130	False
157.833	0.5	158.758	1.5	AX	1.0	89.0	dot_pattern_expectancy	89.0	0.925	probe	AX	s130	False
159.335	0.5	159.334	0.5	AX	n/a	n/a	dot_pattern_expectancy	-1.0	n/a	cue	AX	s130	False
161.839	0.5	162.418	2.18	AX	1.0	89.0	dot_pattern_expectancy	89.0	0.579	probe	AX	s130	False
164.021	0.5	164.02	0.5	AY	n/a	n/a	dot_pattern_expectancy	-1.0	n/a	cue	AY	s130	False
166.524	0.5	167.398	2.452	AY	1.0	71.0	dot_pattern_expectancy	71.0	0.874	probe	AY	s130	False
168.978	0.5	168.977	0.5	AX	n/a	n/a	dot_pattern_expectancy	-1.0	n/a	cue	AX	s130	False
171.482	0.5	172.273	1.636	AX	1.0	89.0	dot_pattern_expectancy	89.0	0.791	probe	AX	s130	False
173.121	0.5	173.12	0.5	AX	n/a	n/a	dot_pattern_expectancy	-1.0	n/a	cue	AX	s130	False
175.623	0.5	176.883	1.908	AX	1.0	89.0	dot_pattern_expectancy	89.0	1.26	probe	AX	s130	False
188.04	0.5	188.039	0.5	AX	n/a	n/a	dot_pattern_expectancy	-1.0	n/a	cue	AX	s130	False
190.543	0.5	191.512	1.772	AX	1.0	89.0	dot_pattern_expectancy	89.0	0.969	probe	AX	s130	False
192.318	0.5	192.317	0.5	AX	n/a	n/a	dot_pattern_expectancy	-1.0	n/a	cue	AX	s130	False
194.822	0.5	195.685	1.5	AX	1.0	89.0	dot_pattern_expectancy	89.0	0.863	probe	AX	s130	False
196.323	0.5	196.322	0.5	AY	n/a	n/a	dot_pattern_expectancy	-1.0	n/a	cue	AY	s130	False
198.828	0.5	199.828	2.452	AY	1.0	71.0	dot_pattern_expectancy	71.0	1.0	probe	AY	s130	False
201.282	0.5	201.281	0.5	AY	n/a	n/a	dot_pattern_expectancy	-1.0	n/a	cue	AY	s130	False
203.786	0.5	204.697	1.772	AY	1.0	71.0	dot_pattern_expectancy	71.0	0.911	probe	AY	s130	False
205.56	0.5	205.559	0.5	AX	n/a	n/a	dot_pattern_expectancy	-1.0	n/a	cue	AX	s130	False
208.065	0.5	209.161	1.908	AX	1.0	89.0	dot_pattern_expectancy	89.0	1.096	probe	AX	s130	False
209.975	0.5	209.974	0.5	AX	n/a	n/a	dot_pattern_expectancy	-1.0	n/a	cue	AX	s130	False
212.479	0.5	213.594	1.908	AX	1.0	89.0	dot_pattern_expectancy	89.0	1.115	probe	AX	s130	False
214.388	0.5	214.387	0.5	AX	n/a	n/a	dot_pattern_expectancy	-1.0	n/a	cue	AX	s130	False
216.892	0.5	218.094	2.588	AX	1.0	89.0	dot_pattern_expectancy	89.0	1.202	probe	AX	s130	False
219.482	0.5	219.481	0.5	AY	n/a	n/a	dot_pattern_expectancy	-1.0	n/a	cue	AY	s130	False
221.986	0.5	222.604	1.5	AY	0.0	71.0	dot_pattern_expectancy	89.0	0.618	probe	AY	s130	False
223.487	0.5	223.486	0.5	BY	n/a	n/a	dot_pattern_expectancy	-1.0	n/a	cue	BY	s130	False
225.992	0.5	226.871	1.5	BY	1.0	71.0	dot_pattern_expectancy	71.0	0.879	probe	BY	s130	False
227.493	0.5	227.492	0.5	BY	n/a	n/a	dot_pattern_expectancy	-1.0	n/a	cue	BY	s130	False
229.997	0.5	230.879	1.5	BY	1.0	71.0	dot_pattern_expectancy	71.0	0.882	probe	BY	s130	False
231.498	0.5	231.497	0.5	AX	n/a	n/a	dot_pattern_expectancy	-1.0	n/a	cue	AX	s130	False
234.003	0.5	234.892	1.636	AX	1.0	89.0	dot_pattern_expectancy	89.0	0.889	probe	AX	s130	False
235.641	0.5	235.64	0.5	BX	n/a	n/a	dot_pattern_expectancy	-1.0	n/a	cue	BX	s130	False
238.145	0.5	239.01	2.044	BX	1.0	71.0	dot_pattern_expectancy	71.0	0.865	probe	BX	s130	False
240.192	0.5	240.191	0.5	AX	n/a	n/a	dot_pattern_expectancy	-1.0	n/a	cue	AX	s130	False
242.696	0.5	243.559	1.772	AX	1.0	89.0	dot_pattern_expectancy	89.0	0.863	probe	AX	s130	False
244.47	0.5	244.469	0.5	BX	n/a	n/a	dot_pattern_expectancy	-1.0	n/a	cue	BX	s130	False
246.974	0.5	247.796	2.588	BX	1.0	71.0	dot_pattern_expectancy	71.0	0.822	probe	BX	s130	False
249.564	0.5	249.563	0.5	AY	n/a	n/a	dot_pattern_expectancy	-1.0	n/a	cue	AY	s130	False
252.069	0.5	252.992	1.5	AY	1.0	71.0	dot_pattern_expectancy	71.0	0.923	probe	AY	s130	False
253.571	0.5	253.57	0.5	AX	n/a	n/a	dot_pattern_expectancy	-1.0	n/a	cue	AX	s130	False
256.075	0.5	256.935	2.452	AX	1.0	89.0	dot_pattern_expectancy	89.0	0.86	probe	AX	s130	False
258.529	0.5	258.528	0.5	BY	n/a	n/a	dot_pattern_expectancy	-1.0	n/a	cue	BY	s130	False
261.034	0.5	261.882	1.636	BY	1.0	71.0	dot_pattern_expectancy	71.0	0.848	probe	BY	s130	False
262.672	0.5	262.671	0.5	AX	n/a	n/a	dot_pattern_expectancy	-1.0	n/a	cue	AX	s130	False
265.175	0.5	266.101	1.636	AX	1.0	89.0	dot_pattern_expectancy	89.0	0.926	probe	AX	s130	False
266.812	0.5	266.811	0.5	AX	n/a	n/a	dot_pattern_expectancy	-1.0	n/a	cue	AX	s130	False
269.316	0.5	270.178	1.5	AX	1.0	89.0	dot_pattern_expectancy	89.0	0.862	probe	AX	s130	False
270.818	0.5	270.817	0.5	BY	n/a	n/a	dot_pattern_expectancy	-1.0	n/a	cue	BY	s130	False
273.322	0.5	274.292	1.636	BY	1.0	71.0	dot_pattern_expectancy	71.0	0.97	probe	BY	s130	False
274.96	0.5	274.959	0.5	AX	n/a	n/a	dot_pattern_expectancy	-1.0	n/a	cue	AX	s130	False
277.464	0.5	278.364	1.5	AX	1.0	89.0	dot_pattern_expectancy	89.0	0.9	probe	AX	s130	False
278.967	0.5	278.966	0.5	AY	n/a	n/a	dot_pattern_expectancy	-1.0	n/a	cue	AY	s130	False
281.471	0.5	282.189	2.18	AY	1.0	71.0	dot_pattern_expectancy	71.0	0.718	probe	AY	s130	False
283.654	0.5	283.653	0.5	AX	n/a	n/a	dot_pattern_expectancy	-1.0	n/a	cue	AX	s130	False
286.158	0.5	286.844	1.5	AX	1.0	89.0	dot_pattern_expectancy	89.0	0.686	probe	AX	s130	False
287.661	0.5	287.66	0.5	AX	n/a	n/a	dot_pattern_expectancy	-1.0	n/a	cue	AX	s130	False
290.165	0.5	291.219	1.908	AX	1.0	89.0	dot_pattern_expectancy	89.0	1.054	probe	AX	s130	False
292.074	0.5	292.073	0.5	BY	n/a	n/a	dot_pattern_expectancy	-1.0	n/a	cue	BY	s130	False
294.579	0.5	295.479	1.636	BY	1.0	71.0	dot_pattern_expectancy	71.0	0.9	probe	BY	s130	False
296.216	0.5	296.215	0.5	BY	n/a	n/a	dot_pattern_expectancy	-1.0	n/a	cue	BY	s130	False
298.721	0.5	299.625	1.636	BY	1.0	71.0	dot_pattern_expectancy	71.0	0.904	probe	BY	s130	False
300.359	0.5	300.358	0.5	AX	n/a	n/a	dot_pattern_expectancy	-1.0	n/a	cue	AX	s130	False
302.862	0.5	303.713	1.636	AX	1.0	89.0	dot_pattern_expectancy	89.0	0.851	probe	AX	s130	False
304.5	0.5	304.499	0.5	AX	n/a	n/a	dot_pattern_expectancy	-1.0	n/a	cue	AX	s130	False
307.004	0.5	307.939	1.5	AX	1.0	89.0	dot_pattern_expectancy	89.0	0.935	probe	AX	s130	False
308.505	0.5	308.504	0.5	BY	n/a	n/a	dot_pattern_expectancy	-1.0	n/a	cue	BY	s130	False
311.009	0.5	311.858	2.044	BY	1.0	71.0	dot_pattern_expectancy	71.0	0.849	probe	BY	s130	False
313.055	0.5	313.054	0.5	AY	n/a	n/a	dot_pattern_expectancy	-1.0	n/a	cue	AY	s130	False
315.558	0.5	316.576	2.18	AY	1.0	71.0	dot_pattern_expectancy	71.0	1.018	probe	AY	s130	False
317.74	0.5	317.739	0.5	AY	n/a	n/a	dot_pattern_expectancy	-1.0	n/a	cue	AY	s130	False
320.244	0.5	321.308	1.636	AY	1.0	71.0	dot_pattern_expectancy	71.0	1.064	probe	AY	s130	False
321.882	0.5	321.881	0.5	AY	n/a	n/a	dot_pattern_expectancy	-1.0	n/a	cue	AY	s130	False
324.386	0.5	325.336	1.772	AY	1.0	71.0	dot_pattern_expectancy	71.0	0.95	probe	AY	s130	False
326.159	0.5	326.158	0.5	BY	n/a	n/a	dot_pattern_expectancy	-1.0	n/a	cue	BY	s130	False
328.663	0.5	329.63	1.5	BY	1.0	71.0	dot_pattern_expectancy	71.0	0.967	probe	BY	s130	False
330.165	0.5	330.164	0.5	BX	n/a	n/a	dot_pattern_expectancy	-1.0	n/a	cue	BX	s130	False
332.669	0.5	333.609	1.908	BX	1.0	71.0	dot_pattern_expectancy	71.0	0.94	probe	BX	s130	False
334.579	0.5	334.578	0.5	AX	n/a	n/a	dot_pattern_expectancy	-1.0	n/a	cue	AX	s130	False
337.083	0.5	338.147	2.044	AX	1.0	89.0	dot_pattern_expectancy	89.0	1.064	probe	AX	s130	False
339.13	0.5	339.129	0.5	AX	n/a	n/a	dot_pattern_expectancy	-1.0	n/a	cue	AX	s130	False
341.635	0.5	341.634	1.636	AX	0.0	89.0	dot_pattern_expectancy	-1.0	n/a	probe	AX	s130	False
343.273	0.5	343.272	0.5	AX	n/a	n/a	dot_pattern_expectancy	-1.0	n/a	cue	AX	s130	False
345.777	0.5	346.887	1.772	AX	1.0	89.0	dot_pattern_expectancy	89.0	1.11	probe	AX	s130	False
347.552	0.5	347.551	0.5	AX	n/a	n/a	dot_pattern_expectancy	-1.0	n/a	cue	AX	s130	False
350.056	0.5	350.903	1.636	AX	1.0	89.0	dot_pattern_expectancy	89.0	0.847	probe	AX	s130	False
351.695	0.5	351.694	0.5	BX	n/a	n/a	dot_pattern_expectancy	-1.0	n/a	cue	BX	s130	False
354.199	0.5	355.114	1.772	BX	1.0	71.0	dot_pattern_expectancy	71.0	0.915	probe	BX	s130	False
355.972	0.5	355.971	0.5	AX	n/a	n/a	dot_pattern_expectancy	-1.0	n/a	cue	AX	s130	False
358.477	0.5	359.401	1.5	AX	1.0	89.0	dot_pattern_expectancy	89.0	0.924	probe	AX	s130	False
370.486	0.5	370.485	0.5	BY	n/a	n/a	dot_pattern_expectancy	-1.0	n/a	cue	BY	s130	False
372.988	0.5	373.373	1.636	BY	1.0	71.0	dot_pattern_expectancy	71.0	0.385	probe	BY	s130	False
374.626	0.5	374.625	0.5	AY	n/a	n/a	dot_pattern_expectancy	-1.0	n/a	cue	AY	s130	False
377.13	0.5	378.101	1.5	AY	1.0	71.0	dot_pattern_expectancy	71.0	0.971	probe	AY	s130	False
378.632	0.5	378.631	0.5	AX	n/a	n/a	dot_pattern_expectancy	-1.0	n/a	cue	AX	s130	False
381.136	0.5	382.403	2.044	AX	1.0	89.0	dot_pattern_expectancy	89.0	1.267	probe	AX	s130	False
383.181	0.5	383.18	0.5	BY	n/a	n/a	dot_pattern_expectancy	-1.0	n/a	cue	BY	s130	False
385.685	0.5	386.632	1.772	BY	1.0	71.0	dot_pattern_expectancy	71.0	0.947	probe	BY	s130	False
387.459	0.5	387.458	0.5	BX	n/a	n/a	dot_pattern_expectancy	-1.0	n/a	cue	BX	s130	False
389.963	0.5	390.818	1.636	BX	1.0	71.0	dot_pattern_expectancy	71.0	0.855	probe	BX	s130	False
391.601	0.5	391.6	0.5	AX	n/a	n/a	dot_pattern_expectancy	-1.0	n/a	cue	AX	s130	False
394.104	0.5	394.826	1.636	AX	1.0	89.0	dot_pattern_expectancy	89.0	0.722	probe	AX	s130	False
395.742	0.5	395.741	0.5	AX	n/a	n/a	dot_pattern_expectancy	-1.0	n/a	cue	AX	s130	False
398.246	0.5	399.532	1.5	AX	1.0	89.0	dot_pattern_expectancy	89.0	1.286	probe	AX	s130	False
399.747	0.5	399.746	0.5	AX	n/a	n/a	dot_pattern_expectancy	-1.0	n/a	cue	AX	s130	False
402.251	0.5	403.163	1.5	AX	1.0	89.0	dot_pattern_expectancy	89.0	0.912	probe	AX	s130	False
403.753	0.5	403.752	0.5	AY	n/a	n/a	dot_pattern_expectancy	-1.0	n/a	cue	AY	s130	False
406.256	0.5	407.565	2.044	AY	1.0	71.0	dot_pattern_expectancy	71.0	1.309	probe	AY	s130	False
408.302	0.5	408.301	0.5	AX	n/a	n/a	dot_pattern_expectancy	-1.0	n/a	cue	AX	s130	False
410.806	0.5	411.705	2.452	AX	1.0	89.0	dot_pattern_expectancy	89.0	0.899	probe	AX	s130	False
413.261	0.5	413.26	0.5	AX	n/a	n/a	dot_pattern_expectancy	-1.0	n/a	cue	AX	s130	False
415.764	0.5	417.026	1.908	AX	1.0	89.0	dot_pattern_expectancy	89.0	1.262	probe	AX	s130	False
417.675	0.5	417.674	0.5	AX	n/a	n/a	dot_pattern_expectancy	-1.0	n/a	cue	AX	s130	False
420.18	0.5	420.179	1.5	AX	0.0	89.0	dot_pattern_expectancy	-1.0	n/a	probe	AX	s130	False
421.683	0.5	421.682	0.5	AX	n/a	n/a	dot_pattern_expectancy	-1.0	n/a	cue	AX	s130	False
424.186	0.5	425.36	1.908	AX	1.0	89.0	dot_pattern_expectancy	89.0	1.174	probe	AX	s130	False
426.095	0.5	426.094	0.5	BX	n/a	n/a	dot_pattern_expectancy	-1.0	n/a	cue	BX	s130	False
428.599	0.5	429.553	2.18	BX	1.0	71.0	dot_pattern_expectancy	71.0	0.954	probe	BX	s130	False
430.782	0.5	430.781	0.5	AX	n/a	n/a	dot_pattern_expectancy	-1.0	n/a	cue	AX	s130	False
433.286	0.5	433.968	1.5	AX	1.0	89.0	dot_pattern_expectancy	89.0	0.682	probe	AX	s130	False
434.788	0.5	434.787	0.5	BY	n/a	n/a	dot_pattern_expectancy	-1.0	n/a	cue	BY	s130	False
437.293	0.5	437.767	1.908	BY	1.0	71.0	dot_pattern_expectancy	71.0	0.474	probe	BY	s130	False
439.203	0.5	439.202	0.5	BX	n/a	n/a	dot_pattern_expectancy	-1.0	n/a	cue	BX	s130	False
441.707	0.5	442.162	2.316	BX	1.0	71.0	dot_pattern_expectancy	71.0	0.455	probe	BX	s130	False
444.026	0.5	444.025	0.5	AY	n/a	n/a	dot_pattern_expectancy	-1.0	n/a	cue	AY	s130	False
446.53	0.5	447.505	2.316	AY	1.0	71.0	dot_pattern_expectancy	71.0	0.975	probe	AY	s130	False
448.848	0.5	448.847	0.5	BX	n/a	n/a	dot_pattern_expectancy	-1.0	n/a	cue	BX	s130	False
451.353	0.5	452.216	1.636	BX	1.0	71.0	dot_pattern_expectancy	71.0	0.863	probe	BX	s130	False
452.991	0.5	452.99	0.5	AY	n/a	n/a	dot_pattern_expectancy	-1.0	n/a	cue	AY	s130	False
455.495	0.5	456.474	1.5	AY	1.0	71.0	dot_pattern_expectancy	71.0	0.979	probe	AY	s130	False
456.998	0.5	456.997	0.5	BY	n/a	n/a	dot_pattern_expectancy	-1.0	n/a	cue	BY	s130	False
459.501	0.5	460.26	1.908	BY	1.0	71.0	dot_pattern_expectancy	71.0	0.759	probe	BY	s130	False
461.412	0.5	461.411	0.5	AX	n/a	n/a	dot_pattern_expectancy	-1.0	n/a	cue	AX	s130	False
463.916	0.5	465.026	1.5	AX	1.0	89.0	dot_pattern_expectancy	89.0	1.11	probe	AX	s130	False
465.419	0.5	465.418	0.5	AY	n/a	n/a	dot_pattern_expectancy	-1.0	n/a	cue	AY	s130	False
467.922	0.5	469.161	2.316	AY	1.0	71.0	dot_pattern_expectancy	71.0	1.239	probe	AY	s130	False
470.241	0.5	470.24	0.5	AX	n/a	n/a	dot_pattern_expectancy	-1.0	n/a	cue	AX	s130	False
472.745	0.5	473.834	1.5	AX	1.0	89.0	dot_pattern_expectancy	89.0	1.089	probe	AX	s130	False
474.247	0.5	474.246	0.5	AY	n/a	n/a	dot_pattern_expectancy	-1.0	n/a	cue	AY	s130	False
476.751	0.5	478.099	2.724	AY	1.0	71.0	dot_pattern_expectancy	71.0	1.348	probe	AY	s130	False
479.478	0.5	479.477	0.5	AX	n/a	n/a	dot_pattern_expectancy	-1.0	n/a	cue	AX	s130	False
481.982	0.5	483.063	1.5	AX	1.0	89.0	dot_pattern_expectancy	89.0	1.081	probe	AX	s130	False
483.484	0.5	483.483	0.5	AX	n/a	n/a	dot_pattern_expectancy	-1.0	n/a	cue	AX	s130	False
485.989	0.5	486.926	1.636	AX	1.0	89.0	dot_pattern_expectancy	89.0	0.937	probe	AX	s130	False
487.627	0.5	487.626	0.5	AX	n/a	n/a	dot_pattern_expectancy	-1.0	n/a	cue	AX	s130	False
490.131	0.5	491.027	1.636	AX	1.0	89.0	dot_pattern_expectancy	89.0	0.896	probe	AX	s130	False
491.77	0.5	491.769	0.5	AX	n/a	n/a	dot_pattern_expectancy	-1.0	n/a	cue	AX	s130	False
494.276	0.5	495.288	1.772	AX	1.0	89.0	dot_pattern_expectancy	89.0	1.012	probe	AX	s130	False
496.051	0.5	496.05	0.5	BY	n/a	n/a	dot_pattern_expectancy	-1.0	n/a	cue	BY	s130	False
498.555	0.5	499.237	1.772	BY	1.0	71.0	dot_pattern_expectancy	71.0	0.682	probe	BY	s130	False
500.328	0.5	500.327	0.5	AX	n/a	n/a	dot_pattern_expectancy	-1.0	n/a	cue	AX	s130	False
502.833	0.5	503.725	1.5	AX	1.0	89.0	dot_pattern_expectancy	89.0	0.892	probe	AX	s130	False
504.334	0.5	504.333	0.5	BY	n/a	n/a	dot_pattern_expectancy	-1.0	n/a	cue	BY	s130	False
506.839	0.5	507.785	2.452	BY	1.0	71.0	dot_pattern_expectancy	71.0	0.946	probe	BY	s130	False
509.293	0.5	509.292	0.5	AX	n/a	n/a	dot_pattern_expectancy	-1.0	n/a	cue	AX	s130	False
511.796	0.5	512.791	1.636	AX	1.0	89.0	dot_pattern_expectancy	89.0	0.995	probe	AX	s130	False
513.433	0.5	513.432	0.5	AX	n/a	n/a	dot_pattern_expectancy	-1.0	n/a	cue	AX	s130	False
515.937	0.5	517.315	1.636	AX	1.0	89.0	dot_pattern_expectancy	89.0	1.378	probe	AX	s130	False
517.575	0.5	517.574	0.5	BX	n/a	n/a	dot_pattern_expectancy	-1.0	n/a	cue	BX	s130	False
520.079	0.5	521.125	1.5	BX	1.0	71.0	dot_pattern_expectancy	71.0	1.046	probe	BX	s130	False
521.582	0.5	521.581	0.5	BX	n/a	n/a	dot_pattern_expectancy	-1.0	n/a	cue	BX	s130	False
524.087	0.5	525.131	1.5	BX	1.0	71.0	dot_pattern_expectancy	71.0	1.044	probe	BX	s130	False
525.588	0.5	525.587	0.5	AX	n/a	n/a	dot_pattern_expectancy	-1.0	n/a	cue	AX	s130	False
528.092	0.5	529.316	2.316	AX	1.0	89.0	dot_pattern_expectancy	89.0	1.224	probe	AX	s130	False
530.41	0.5	530.409	0.5	AY	n/a	n/a	dot_pattern_expectancy	-1.0	n/a	cue	AY	s130	False
532.913	0.5	534.009	2.044	AY	1.0	71.0	dot_pattern_expectancy	71.0	1.096	probe	AY	s130	False
534.96	0.5	534.959	0.5	AX	n/a	n/a	dot_pattern_expectancy	-1.0	n/a	cue	AX	s130	False
537.464	0.5	538.343	3.948	AX	1.0	89.0	dot_pattern_expectancy	89.0	0.879	probe	AX	s130	False
541.413	0.5	541.412	0.5	AX	n/a	n/a	dot_pattern_expectancy	-1.0	n/a	cue	AX	s130	False
543.918	0.5	544.803	1.636	AX	1.0	89.0	dot_pattern_expectancy	89.0	0.885	probe	AX	s130	False
556.063	0.5	556.062	0.5	AY	n/a	n/a	dot_pattern_expectancy	-1.0	n/a	cue	AY	s130	False
558.566	0.5	559.921	1.636	AY	1.0	71.0	dot_pattern_expectancy	71.0	1.355	probe	AY	s130	False
560.204	0.5	560.203	0.5	AX	n/a	n/a	dot_pattern_expectancy	-1.0	n/a	cue	AX	s130	False
562.708	0.5	563.614	1.636	AX	1.0	89.0	dot_pattern_expectancy	89.0	0.906	probe	AX	s130	False
564.347	0.5	564.346	0.5	AX	n/a	n/a	dot_pattern_expectancy	-1.0	n/a	cue	AX	s130	False
566.85	0.5	568.009	1.5	AX	1.0	89.0	dot_pattern_expectancy	89.0	1.159	probe	AX	s130	False
568.352	0.5	568.351	0.5	AX	n/a	n/a	dot_pattern_expectancy	-1.0	n/a	cue	AX	s130	False
570.856	0.5	571.744	1.5	AX	1.0	89.0	dot_pattern_expectancy	89.0	0.888	probe	AX	s130	False
572.358	0.5	572.357	0.5	AX	n/a	n/a	dot_pattern_expectancy	-1.0	n/a	cue	AX	s130	False
574.863	0.5	575.95	1.908	AX	1.0	89.0	dot_pattern_expectancy	89.0	1.087	probe	AX	s130	False
576.773	0.5	576.772	0.5	BX	n/a	n/a	dot_pattern_expectancy	-1.0	n/a	cue	BX	s130	False
579.277	0.5	580.35	1.636	BX	1.0	71.0	dot_pattern_expectancy	71.0	1.073	probe	BX	s130	False
580.914	0.5	580.913	0.5	AX	n/a	n/a	dot_pattern_expectancy	-1.0	n/a	cue	AX	s130	False
583.418	0.5	584.554	2.044	AX	1.0	89.0	dot_pattern_expectancy	89.0	1.136	probe	AX	s130	False
585.464	0.5	585.463	0.5	AX	n/a	n/a	dot_pattern_expectancy	-1.0	n/a	cue	AX	s130	False
587.968	0.5	589.086	1.772	AX	1.0	89.0	dot_pattern_expectancy	89.0	1.118	probe	AX	s130	False
589.741	0.5	589.74	0.5	AX	n/a	n/a	dot_pattern_expectancy	-1.0	n/a	cue	AX	s130	False
592.245	0.5	593.125	1.5	AX	1.0	89.0	dot_pattern_expectancy	89.0	0.88	probe	AX	s130	False
593.747	0.5	593.746	0.5	AX	n/a	n/a	dot_pattern_expectancy	-1.0	n/a	cue	AX	s130	False
596.25	0.5	597.45	2.18	AX	1.0	89.0	dot_pattern_expectancy	89.0	1.2	probe	AX	s130	False
598.432	0.5	598.431	0.5	AX	n/a	n/a	dot_pattern_expectancy	-1.0	n/a	cue	AX	s130	False
600.937	0.5	601.751	1.5	AX	1.0	89.0	dot_pattern_expectancy	89.0	0.814	probe	AX	s130	False
602.439	0.5	602.438	0.5	BX	n/a	n/a	dot_pattern_expectancy	-1.0	n/a	cue	BX	s130	False
604.943	0.5	605.474	3.676	BX	1.0	71.0	dot_pattern_expectancy	71.0	0.531	probe	BX	s130	False
608.621	0.5	608.62	0.5	BY	n/a	n/a	dot_pattern_expectancy	-1.0	n/a	cue	BY	s130	False
611.126	0.5	612.053	1.636	BY	1.0	71.0	dot_pattern_expectancy	71.0	0.927	probe	BY	s130	False
612.764	0.5	612.763	0.5	BY	n/a	n/a	dot_pattern_expectancy	-1.0	n/a	cue	BY	s130	False
615.268	0.5	616.312	1.636	BY	1.0	71.0	dot_pattern_expectancy	71.0	1.044	probe	BY	s130	False
616.905	0.5	616.904	0.5	BX	n/a	n/a	dot_pattern_expectancy	-1.0	n/a	cue	BX	s130	False
619.409	0.5	620.398	1.5	BX	1.0	71.0	dot_pattern_expectancy	71.0	0.989	probe	BX	s130	False
620.911	0.5	620.91	0.5	AX	n/a	n/a	dot_pattern_expectancy	-1.0	n/a	cue	AX	s130	False
623.415	0.5	624.415	1.908	AX	1.0	89.0	dot_pattern_expectancy	89.0	1.0	probe	AX	s130	False
625.325	0.5	625.324	0.5	AX	n/a	n/a	dot_pattern_expectancy	-1.0	n/a	cue	AX	s130	False
627.828	0.5	628.691	1.636	AX	1.0	89.0	dot_pattern_expectancy	89.0	0.863	probe	AX	s130	False
629.466	0.5	629.465	0.5	BX	n/a	n/a	dot_pattern_expectancy	-1.0	n/a	cue	BX	s130	False
631.97	0.5	633.234	1.5	BX	1.0	71.0	dot_pattern_expectancy	71.0	1.264	probe	BX	s130	False
633.471	0.5	633.47	0.5	AX	n/a	n/a	dot_pattern_expectancy	-1.0	n/a	cue	AX	s130	False
635.976	0.5	636.902	1.908	AX	1.0	89.0	dot_pattern_expectancy	89.0	0.926	probe	AX	s130	False
637.887	0.5	637.886	0.5	BY	n/a	n/a	dot_pattern_expectancy	-1.0	n/a	cue	BY	s130	False
640.389	0.5	641.235	2.18	BY	1.0	71.0	dot_pattern_expectancy	71.0	0.846	probe	BY	s130	False
642.571	0.5	642.57	0.5	AX	n/a	n/a	dot_pattern_expectancy	-1.0	n/a	cue	AX	s130	False
645.075	0.5	645.906	1.772	AX	1.0	89.0	dot_pattern_expectancy	89.0	0.831	probe	AX	s130	False
646.848	0.5	646.847	0.5	AX	n/a	n/a	dot_pattern_expectancy	-1.0	n/a	cue	AX	s130	False
649.352	0.5	650.087	1.5	AX	1.0	89.0	dot_pattern_expectancy	89.0	0.735	probe	AX	s130	False
650.854	0.5	650.853	0.5	AX	n/a	n/a	dot_pattern_expectancy	-1.0	n/a	cue	AX	s130	False
653.358	0.5	654.018	1.5	AX	1.0	89.0	dot_pattern_expectancy	89.0	0.66	probe	AX	s130	False
654.859	0.5	654.858	0.5	AX	n/a	n/a	dot_pattern_expectancy	-1.0	n/a	cue	AX	s130	False
657.363	0.5	658.232	2.044	AX	1.0	89.0	dot_pattern_expectancy	89.0	0.869	probe	AX	s130	False
659.409	0.5	659.408	0.5	AX	n/a	n/a	dot_pattern_expectancy	-1.0	n/a	cue	AX	s130	False
661.913	0.5	662.833	2.86	AX	1.0	89.0	dot_pattern_expectancy	89.0	0.92	probe	AX	s130	False
664.774	0.5	664.773	0.5	BX	n/a	n/a	dot_pattern_expectancy	-1.0	n/a	cue	BX	s130	False
667.278	0.5	667.706	1.5	BX	1.0	71.0	dot_pattern_expectancy	71.0	0.428	probe	BX	s130	False
668.78	0.5	668.779	0.5	BY	n/a	n/a	dot_pattern_expectancy	-1.0	n/a	cue	BY	s130	False
671.284	0.5	671.932	1.772	BY	1.0	71.0	dot_pattern_expectancy	71.0	0.648	probe	BY	s130	False
673.057	0.5	673.056	0.5	AX	n/a	n/a	dot_pattern_expectancy	-1.0	n/a	cue	AX	s130	False
675.562	0.5	676.435	1.772	AX	1.0	89.0	dot_pattern_expectancy	89.0	0.873	probe	AX	s130	False
677.335	0.5	677.334	0.5	AX	n/a	n/a	dot_pattern_expectancy	-1.0	n/a	cue	AX	s130	False
679.839	0.5	680.683	2.86	AX	1.0	89.0	dot_pattern_expectancy	89.0	0.844	probe	AX	s130	False
682.701	0.5	682.7	0.5	AX	n/a	n/a	dot_pattern_expectancy	-1.0	n/a	cue	AX	s130	False
685.205	0.5	685.907	1.772	AX	1.0	89.0	dot_pattern_expectancy	89.0	0.702	probe	AX	s130	False
686.978	0.5	686.977	0.5	BX	n/a	n/a	dot_pattern_expectancy	-1.0	n/a	cue	BX	s130	False
689.482	0.5	690.839	1.636	BX	1.0	71.0	dot_pattern_expectancy	71.0	1.357	probe	BX	s130	False
691.121	0.5	691.12	0.5	BX	n/a	n/a	dot_pattern_expectancy	-1.0	n/a	cue	BX	s130	False
693.624	0.5	694.374	2.452	BX	1.0	71.0	dot_pattern_expectancy	71.0	0.75	probe	BX	s130	False
696.079	0.5	696.078	0.5	AX	n/a	n/a	dot_pattern_expectancy	-1.0	n/a	cue	AX	s130	False
698.583	0.5	699.559	1.636	AX	1.0	89.0	dot_pattern_expectancy	89.0	0.976	probe	AX	s130	False
700.222	0.5	700.221	0.5	BX	n/a	n/a	dot_pattern_expectancy	-1.0	n/a	cue	BX	s130	False
702.725	0.5	703.682	1.5	BX	1.0	71.0	dot_pattern_expectancy	71.0	0.957	probe	BX	s130	False
704.227	0.5	704.226	0.5	AX	n/a	n/a	dot_pattern_expectancy	-1.0	n/a	cue	AX	s130	False
706.731	0.5	707.68	1.636	AX	1.0	89.0	dot_pattern_expectancy	89.0	0.949	probe	AX	s130	False
708.369	0.5	708.368	0.5	AX	n/a	n/a	dot_pattern_expectancy	-1.0	n/a	cue	AX	s130	False
710.873	0.5	711.823	1.636	AX	1.0	89.0	dot_pattern_expectancy	89.0	0.95	probe	AX	s130	False
712.51	0.5	712.509	0.5	BY	n/a	n/a	dot_pattern_expectancy	-1.0	n/a	cue	BY	s130	False
715.014	0.5	715.931	2.18	BY	1.0	71.0	dot_pattern_expectancy	71.0	0.917	probe	BY	s130	False
717.197	0.5	717.196	0.5	AX	n/a	n/a	dot_pattern_expectancy	-1.0	n/a	cue	AX	s130	False
719.701	0.5	720.549	1.5	AX	1.0	89.0	dot_pattern_expectancy	89.0	0.848	probe	AX	s130	False
721.203	0.5	721.202	0.5	AY	n/a	n/a	dot_pattern_expectancy	-1.0	n/a	cue	AY	s130	False
723.707	0.5	724.33	1.636	AY	0.0	71.0	dot_pattern_expectancy	89.0	0.623	probe	AY	s130	False
725.345	0.5	725.344	0.5	AX	n/a	n/a	dot_pattern_expectancy	-1.0	n/a	cue	AX	s130	False
727.85	0.5	728.727	1.636	AX	1.0	89.0	dot_pattern_expectancy	89.0	0.877	probe	AX	s130	False
