onset	duration	movement_onset	EV	action	block_duration	experiment_exp_id	gain_amount	gain_probability	key_press	loss_amount	loss_probability	num_cards	num_click_in_round	num_loss_cards	risk	response_time	total_cards	trial_id	trial_type	worker_id	junk	feedback
3.009	2.088	5.097	-1.0643419929812334	draw_card	2.088	columbia_card_task_fmri	12.0	0.8333333333333334	89.0	-70.0	0.1666666666666666	6.0	1.0	1.0	-2.0839538627258136	2.088	n/a	stim	poldrack-single-stim	s144	False	1
5.1	1.198	6.298	-3.797675326314566	draw_card	1.198	columbia_card_task_fmri	12.0	0.8	89.0	-70.0	0.2	6.0	2.0	1.0	0.1560451059615388	1.198	n/a	stim	poldrack-single-stim	s144	False	1
6.299	2.352	8.651	-7.897675326314567	end_round	2.352	columbia_card_task_fmri	12.0	0.75	71.0	-70.0	0.25	6.0	3.0	1.0	2.862665123600685	2.352	2.0	stim	poldrack-single-stim	s144	False	1
9.404	1.5	8.653	n/a	-1.0	2.25	columbia_card_task_fmri	n/a	n/a	-1.0	n/a	n/a	n/a	n/a	n/a	n/a	n/a	n/a	ITI	poldrack-single-stim	s144	False	0
10.905	1.522	12.427	-0.2310086596478994	draw_card	1.522	columbia_card_task_fmri	14.0	0.8333333333333334	89.0	-75.0	0.1666666666666666	6.0	1.0	1.0	0.5243253711368041	1.522	n/a	stim	poldrack-single-stim	s144	False	1
12.429	0.524	12.953	-3.1976753263145663	draw_card	0.524	columbia_card_task_fmri	14.0	0.8	89.0	-75.0	0.2	6.0	2.0	1.0	2.9556102313142887	0.524	n/a	stim	poldrack-single-stim	s144	False	1
12.955	1.304	14.259	-7.647675326314567	draw_card	1.304	columbia_card_task_fmri	14.0	0.75	89.0	-75.0	0.25	6.0	3.0	1.0	5.893352303097998	1.304	n/a	stim	poldrack-single-stim	s144	False	1
14.26	1.081	15.341	-15.064341992981234	end_round	1.081	columbia_card_task_fmri	14.0	0.6666666666666667	71.0	-75.0	0.3333333333333333	6.0	4.0	1.0	9.3098409084433	1.081	3.0	stim	poldrack-single-stim	s144	False	1
16.097	1.5	15.346	n/a	-1.0	2.386	columbia_card_task_fmri	n/a	n/a	-1.0	n/a	n/a	n/a	n/a	n/a	n/a	n/a	n/a	ITI	poldrack-single-stim	s144	False	0
17.734	1.177	18.911	1.4356580070187666	draw_card	1.177	columbia_card_task_fmri	15.0	0.8333333333333334	89.0	-70.0	0.1666666666666666	6.0	1.0	1.0	-0.9661293160530492	1.177	n/a	stim	poldrack-single-stim	s144	False	1
18.912	0.472	19.384	-1.3976753263145674	draw_card	0.472	columbia_card_task_fmri	15.0	0.8	89.0	-70.0	0.2	6.0	2.0	1.0	1.3558499625896443	0.472	2.0	stim	poldrack-single-stim	s144	False	0
20.139	1.5	19.388	n/a	-1.0	2.59	columbia_card_task_fmri	n/a	n/a	-1.0	n/a	n/a	n/a	n/a	n/a	n/a	n/a	n/a	ITI	poldrack-single-stim	s144	False	0
21.979	1.308	23.287	2.2689913403521005	draw_card	1.308	columbia_card_task_fmri	17.0	0.8333333333333334	89.0	-75.0	0.1666666666666666	6.0	1.0	1.0	1.6421810657557216	1.308	n/a	stim	poldrack-single-stim	s144	False	1
23.288	1.035	24.323	-0.7976753263145658	draw_card	1.035	columbia_card_task_fmri	17.0	0.8	89.0	-75.0	0.2	6.0	2.0	1.0	4.155444110320836	1.035	n/a	stim	poldrack-single-stim	s144	False	1
24.325	0.919	25.244	-5.397675326314567	end_round	0.919	columbia_card_task_fmri	17.0	0.75	71.0	-75.0	0.25	6.0	3.0	1.0	7.192236948098959	0.919	2.0	stim	poldrack-single-stim	s144	False	1
25.996	1.5	25.245	n/a	-1.0	2.658	columbia_card_task_fmri	n/a	n/a	-1.0	n/a	n/a	n/a	n/a	n/a	n/a	n/a	n/a	ITI	poldrack-single-stim	s144	False	0
27.905	1.311	29.216	3.6023246736854326	draw_card	1.311	columbia_card_task_fmri	24.0	0.75	89.0	-60.0	0.25	8.0	1.0	2.0	3.728568915497519	1.311	n/a	stim	poldrack-single-stim	s144	False	1
29.217	0.786	30.003	0.6023246736854327	draw_card	0.786	columbia_card_task_fmri	24.0	0.7142857142857143	89.0	-60.0	0.2857142857142857	8.0	2.0	2.0	5.302627025335809	0.786	n/a	stim	poldrack-single-stim	s144	False	1
30.004	1.107	31.111	-3.397675326314568	draw_card	1.107	columbia_card_task_fmri	24.0	0.6666666666666667	89.0	-60.0	0.3333333333333333	8.0	3.0	2.0	6.95307562065851	1.107	n/a	stim	poldrack-single-stim	s144	False	1
31.112	1.113	32.225	-8.99767532631457	draw_card	1.113	columbia_card_task_fmri	24.0	0.6	89.0	-60.0	0.4	8.0	4.0	2.0	8.506350651959032	1.113	n/a	stim	poldrack-single-stim	s144	False	1
32.226	2.065	34.291	-17.397675326314566	end_round	2.065	columbia_card_task_fmri	24.0	0.5	71.0	-60.0	0.5	8.0	5.0	2.0	9.35483392654811	2.065	4.0	stim	poldrack-single-stim	s144	False	1
35.046	1.5	34.295	n/a	-1.0	2.386	columbia_card_task_fmri	n/a	n/a	-1.0	n/a	n/a	n/a	n/a	n/a	n/a	n/a	n/a	ITI	poldrack-single-stim	s144	False	0
36.683	1.403	38.086	3.6023246736854326	draw_card	1.403	columbia_card_task_fmri	29.0	0.75	89.0	-75.0	0.25	8.0	1.0	2.0	12.387864050047895	1.403	n/a	stim	poldrack-single-stim	s144	False	1
38.088	1.304	39.392	-0.111961040600279	draw_card	1.304	columbia_card_task_fmri	29.0	0.7142857142857143	89.0	-75.0	0.2857142857142857	8.0	2.0	2.0	14.336786919108173	1.304	2.0	stim	poldrack-single-stim	s144	False	0
40.144	1.5	39.393	n/a	-1.0	2.386	columbia_card_task_fmri	n/a	n/a	-1.0	n/a	n/a	n/a	n/a	n/a	n/a	n/a	n/a	ITI	poldrack-single-stim	s144	False	0
41.782	1.337	43.119	-0.6198975485367869	draw_card	1.337	columbia_card_task_fmri	17.0	0.7777777777777778	89.0	-65.0	0.2222222222222222	9.0	1.0	2.0	1.446491968744617	1.337	1.0	stim	poldrack-single-stim	s144	False	0
43.871	1.5	43.12	n/a	-1.0	2.25	columbia_card_task_fmri	n/a	n/a	-1.0	n/a	n/a	n/a	n/a	n/a	n/a	n/a	n/a	ITI	poldrack-single-stim	s144	False	0
45.372	1.86	47.232	3.702324673685432	draw_card	1.86	columbia_card_task_fmri	14.0	0.9	89.0	-95.0	0.1	10.0	1.0	1.0	0.0560620142464429	1.86	n/a	stim	poldrack-single-stim	s144	False	1
47.235	1.337	48.572	2.49121356257432	draw_card	1.337	columbia_card_task_fmri	14.0	0.8888888888888888	89.0	-95.0	0.1111111111111111	10.0	2.0	1.0	1.6112053719882056	1.337	n/a	stim	poldrack-single-stim	s144	False	1
48.572	1.08	49.652	0.9773246736854329	end_round	1.08	columbia_card_task_fmri	14.0	0.875	71.0	-95.0	0.125	10.0	3.0	1.0	3.403908482094401	1.08	2.0	stim	poldrack-single-stim	s144	False	1
50.407	1.5	49.656	n/a	-1.0	2.318	columbia_card_task_fmri	n/a	n/a	-1.0	n/a	n/a	n/a	n/a	n/a	n/a	n/a	n/a	ITI	poldrack-single-stim	s144	False	0
51.976	1.749	53.725	-0.3976753263145672	draw_card	1.749	columbia_card_task_fmri	15.0	0.8	89.0	-65.0	0.2	10.0	1.0	2.0	-0.6438166695833445	1.749	n/a	stim	poldrack-single-stim	s144	False	1
53.727	0.876	54.603	-2.175453104092344	draw_card	0.876	columbia_card_task_fmri	15.0	0.7777777777777778	89.0	-65.0	0.2222222222222222	10.0	2.0	2.0	0.6151455433647257	0.876	n/a	stim	poldrack-single-stim	s144	False	1
54.605	1.252	55.857	-4.397675326314567	draw_card	1.252	columbia_card_task_fmri	15.0	0.75	89.0	-65.0	0.25	10.0	3.0	2.0	1.996767410952927	1.252	n/a	stim	poldrack-single-stim	s144	False	1
55.859	0.667	56.526	-7.254818183457421	end_round	0.667	columbia_card_task_fmri	15.0	0.7142857142857143	71.0	-65.0	0.2857142857142857	10.0	4.0	2.0	3.495850184277984	0.667	3.0	stim	poldrack-single-stim	s144	False	1
57.28	1.5	56.529	n/a	-1.0	2.25	columbia_card_task_fmri	n/a	n/a	-1.0	n/a	n/a	n/a	n/a	n/a	n/a	n/a	n/a	ITI	poldrack-single-stim	s144	False	0
58.781	1.577	60.358	1.202324673685434	draw_card	1.577	columbia_card_task_fmri	17.0	0.8	89.0	-65.0	0.2	10.0	1.0	2.0	0.1560451059615388	1.577	n/a	stim	poldrack-single-stim	s144	False	1
60.359	0.62	60.979	-0.6198975485367869	draw_card	0.62	columbia_card_task_fmri	17.0	0.7777777777777778	89.0	-65.0	0.2222222222222222	10.0	2.0	2.0	1.446491968744617	0.62	n/a	stim	poldrack-single-stim	s144	False	1
60.98	0.55	61.53	-2.897675326314568	draw_card	0.55	columbia_card_task_fmri	17.0	0.75	89.0	-65.0	0.25	10.0	3.0	2.0	2.862665123600685	0.55	3.0	stim	poldrack-single-stim	s144	False	0
62.285	1.5	61.534	n/a	-1.0	2.25	columbia_card_task_fmri	n/a	n/a	-1.0	n/a	n/a	n/a	n/a	n/a	n/a	n/a	n/a	ITI	poldrack-single-stim	s144	False	0
63.786	1.632	65.418	-0.2310086596478994	draw_card	1.632	columbia_card_task_fmri	13.0	0.8333333333333334	89.0	-70.0	0.1666666666666666	12.0	1.0	2.0	-1.7113473622908089	1.632	n/a	stim	poldrack-single-stim	s144	False	1
65.42	0.411	65.831	-1.4885844172236609	draw_card	0.411	columbia_card_task_fmri	13.0	0.8181818181818181	89.0	-70.0	0.1818181818181818	12.0	2.0	2.0	-0.6311664520802083	0.411	2.0	stim	poldrack-single-stim	s144	False	0
66.586	1.5	65.835	n/a	-1.0	2.386	columbia_card_task_fmri	n/a	n/a	-1.0	n/a	n/a	n/a	n/a	n/a	n/a	n/a	n/a	ITI	poldrack-single-stim	s144	False	0
68.223	1.349	69.572	-0.2310086596478994	draw_card	1.349	columbia_card_task_fmri	15.0	0.8333333333333334	89.0	-80.0	0.1666666666666666	12.0	1.0	2.0	2.7600480185314	1.349	n/a	stim	poldrack-single-stim	s144	False	1
69.573	0.59	70.163	-1.6704025990418423	draw_card	0.59	columbia_card_task_fmri	15.0	0.8181818181818181	89.0	-80.0	0.1818181818181818	12.0	2.0	2.0	3.9964532501775807	0.59	n/a	stim	poldrack-single-stim	s144	False	1
70.164	0.753	70.917	-3.397675326314568	draw_card	0.753	columbia_card_task_fmri	15.0	0.8	89.0	-80.0	0.2	12.0	3.0	2.0	5.355288479137165	0.753	n/a	stim	poldrack-single-stim	s144	False	1
70.918	0.839	71.757	-5.508786437425679	draw_card	0.839	columbia_card_task_fmri	15.0	0.7777777777777778	89.0	-80.0	0.2222222222222222	12.0	4.0	2.0	6.850380200907644	0.839	4.0	stim	poldrack-single-stim	s144	False	0
72.512	1.5	71.761	n/a	-1.0	2.386	columbia_card_task_fmri	n/a	n/a	-1.0	n/a	n/a	n/a	n/a	n/a	n/a	n/a	n/a	ITI	poldrack-single-stim	s144	False	0
74.149	1.414	75.563	-1.1976753263145663	draw_card	1.414	columbia_card_task_fmri	14.0	0.8	89.0	-65.0	0.2	15.0	1.0	3.0	-1.04374493354403	1.414	n/a	stim	poldrack-single-stim	s144	False	1
75.564	0.623	76.187	-2.3262467548859944	draw_card	0.623	columbia_card_task_fmri	14.0	0.7857142857142857	89.0	-65.0	0.2142857142857142	15.0	2.0	3.0	-0.2281429911497383	0.623	n/a	stim	poldrack-single-stim	s144	False	1
76.189	0.658	76.847	-3.628444557083799	draw_card	0.658	columbia_card_task_fmri	14.0	0.7692307692307692	89.0	-65.0	0.2307692307692307	15.0	3.0	3.0	0.6406430888759047	0.658	n/a	stim	poldrack-single-stim	s144	False	1
76.85	0.887	77.737	-5.147675326314567	draw_card	0.887	columbia_card_task_fmri	14.0	0.75	89.0	-65.0	0.25	15.0	4.0	3.0	1.5638209785899235	0.887	n/a	stim	poldrack-single-stim	s144	False	1
77.738	1.14	78.878	-6.943129871769112	end_round	1.14	columbia_card_task_fmri	14.0	0.7272727272727273	71.0	-65.0	0.2727272727272727	15.0	5.0	3.0	2.539250467733069	1.14	4.0	stim	poldrack-single-stim	s144	False	1
79.632	1.5	78.881	n/a	-1.0	2.726	columbia_card_task_fmri	n/a	n/a	-1.0	n/a	n/a	n/a	n/a	n/a	n/a	n/a	n/a	ITI	poldrack-single-stim	s144	False	0
81.609	2.486	84.095	-1.2726753263145674	end_round	2.486	columbia_card_task_fmri	1.0	0.9375	71.0	-45.0	0.0625	16.0	1.0	1.0	-21.49837861593878	2.486	0.0	stim	poldrack-single-stim	s144	False	1
84.851	1.5	84.1	n/a	-1.0	2.454	columbia_card_task_fmri	n/a	n/a	-1.0	n/a	n/a	n/a	n/a	n/a	n/a	n/a	n/a	ITI	poldrack-single-stim	s144	False	0
86.557	1.583	88.14	-0.3351753263145672	draw_card	1.583	columbia_card_task_fmri	15.0	0.8125	89.0	-70.0	0.1875	16.0	1.0	3.0	0.5325342183038657	1.583	n/a	stim	poldrack-single-stim	s144	False	1
88.141	1.091	89.232	-1.3976753263145674	draw_card	1.091	columbia_card_task_fmri	15.0	0.8	89.0	-70.0	0.2	16.0	2.0	3.0	1.3558499625896443	1.091	n/a	stim	poldrack-single-stim	s144	False	1
89.234	0.992	90.226	-2.6119610406002827	end_round	0.992	columbia_card_task_fmri	15.0	0.7857142857142857	71.0	-70.0	0.2142857142857142	16.0	3.0	3.0	2.233417514441193	0.992	2.0	stim	poldrack-single-stim	s144	False	1
90.981	1.5	90.23	n/a	-1.0	2.318	columbia_card_task_fmri	n/a	n/a	-1.0	n/a	n/a	n/a	n/a	n/a	n/a	n/a	n/a	ITI	poldrack-single-stim	s144	False	0
92.551	1.763	94.314	6.602324673685433	draw_card	1.763	columbia_card_task_fmri	30.0	0.7	89.0	-50.0	0.3	10.0	1.0	3.0	4.016068408765619	1.763	1.0	stim	poldrack-single-stim	s144	False	0
95.07	1.5	94.319	n/a	-1.0	2.318	columbia_card_task_fmri	n/a	n/a	-1.0	n/a	n/a	n/a	n/a	n/a	n/a	n/a	n/a	ITI	poldrack-single-stim	s144	False	0
96.639	1.432	98.071	6.002324673685433	draw_card	1.432	columbia_card_task_fmri	17.0	0.8666666666666667	89.0	-70.0	0.1333333333333333	15.0	1.0	2.0	-3.069038679856764	1.432	n/a	stim	poldrack-single-stim	s144	False	1
98.072	0.632	98.704	5.173753245114006	draw_card	0.632	columbia_card_task_fmri	17.0	0.8571428571428572	89.0	-70.0	0.1428571428571428	15.0	2.0	2.0	-2.199868724778611	0.632	2.0	stim	poldrack-single-stim	s144	False	0
99.461	1.5	98.71	n/a	-1.0	2.59	columbia_card_task_fmri	n/a	n/a	-1.0	n/a	n/a	n/a	n/a	n/a	n/a	n/a	n/a	ITI	poldrack-single-stim	s144	False	0
101.303	1.896	103.199	1.2273246736854326	draw_card	1.896	columbia_card_task_fmri	7.0	0.9375	89.0	-95.0	0.0625	16.0	1.0	1.0	-7.951870177249024	1.896	n/a	stim	poldrack-single-stim	s144	False	1
103.201	0.925	104.126	0.8023246736854329	draw_card	0.925	columbia_card_task_fmri	7.0	0.9333333333333332	89.0	-95.0	0.0666666666666666	16.0	2.0	1.0	-7.19908611954267	0.925	n/a	stim	poldrack-single-stim	s144	False	1
104.128	1.384	105.512	0.3166103879711471	draw_card	1.384	columbia_card_task_fmri	7.0	0.9285714285714286	89.0	-95.0	0.0714285714285714	16.0	3.0	1.0	-6.37356393281528	1.384	n/a	stim	poldrack-single-stim	s144	False	1
105.513	0.811	106.324	-0.2438291724684139	end_round	0.811	columbia_card_task_fmri	7.0	0.9230769230769232	71.0	-95.0	0.0769230769230769	16.0	4.0	1.0	-5.462937483602516	0.811	3.0	stim	poldrack-single-stim	s144	False	1
107.08	1.5	106.329	n/a	-1.0	2.726	columbia_card_task_fmri	n/a	n/a	-1.0	n/a	n/a	n/a	n/a	n/a	n/a	n/a	n/a	ITI	poldrack-single-stim	s144	False	0
109.058	1.946	111.004	2.7898246736854326	draw_card	1.946	columbia_card_task_fmri	9.0	0.9375	89.0	-100.0	0.0625	16.0	1.0	1.0	-6.257911586764191	1.946	n/a	stim	poldrack-single-stim	s144	False	1
111.006	0.43	111.436	2.335658007018766	draw_card	0.43	columbia_card_task_fmri	9.0	0.9333333333333332	89.0	-100.0	0.0666666666666666	16.0	2.0	1.0	-5.453437015845584	0.43	n/a	stim	poldrack-single-stim	s144	False	1
111.437	0.383	111.82	1.816610387971148	draw_card	0.383	columbia_card_task_fmri	9.0	0.9285714285714286	89.0	-100.0	0.0714285714285714	16.0	3.0	1.0	-4.571231595964893	0.383	n/a	stim	poldrack-single-stim	s144	False	1
111.822	1.224	113.046	1.2177092890700485	draw_card	1.224	columbia_card_task_fmri	9.0	0.9230769230769232	89.0	-100.0	0.0769230769230769	16.0	4.0	1.0	-3.5980804538448936	1.224	n/a	stim	poldrack-single-stim	s144	False	1
113.049	0.673	113.722	0.5189913403521006	end_round	0.673	columbia_card_task_fmri	9.0	0.9166666666666666	71.0	-100.0	0.0833333333333333	16.0	5.0	1.0	-2.517455636469652	0.673	4.0	stim	poldrack-single-stim	s144	False	1
114.479	1.5	113.728	n/a	-1.0	2.522	columbia_card_task_fmri	n/a	n/a	-1.0	n/a	n/a	n/a	n/a	n/a	n/a	n/a	n/a	ITI	poldrack-single-stim	s144	False	0
116.252	1.073	117.325	3.7273246736854326	draw_card	1.073	columbia_card_task_fmri	15.0	0.875	89.0	-80.0	0.125	16.0	1.0	2.0	-1.22541492481529	1.073	n/a	stim	poldrack-single-stim	s144	False	1
117.329	0.362	117.691	2.9356580070187666	draw_card	0.362	columbia_card_task_fmri	15.0	0.8666666666666667	89.0	-80.0	0.1333333333333333	16.0	2.0	2.0	-0.3500779735586974	0.362	n/a	stim	poldrack-single-stim	s144	False	1
117.692	1.128	118.82	2.0308961022568632	draw_card	1.128	columbia_card_task_fmri	15.0	0.8571428571428572	89.0	-80.0	0.1428571428571428	16.0	3.0	2.0	0.5990464937599	1.128	n/a	stim	poldrack-single-stim	s144	False	1
118.822	0.934	119.756	0.986940058300816	draw_card	0.934	columbia_card_task_fmri	15.0	0.8461538461538461	89.0	-80.0	0.1538461538461538	16.0	4.0	2.0	1.63192216208094	0.934	4.0	stim	poldrack-single-stim	s144	False	0
120.512	1.5	119.761	n/a	-1.0	3.134	columbia_card_task_fmri	n/a	n/a	-1.0	n/a	n/a	n/a	n/a	n/a	n/a	n/a	n/a	ITI	poldrack-single-stim	s144	False	0
122.898	1.149	124.047	5.852324673685433	draw_card	1.149	columbia_card_task_fmri	16.0	0.875	89.0	-70.0	0.125	16.0	1.0	2.0	-4.201281117579423	1.149	1.0	stim	poldrack-single-stim	s144	False	0
124.801	1.5	124.05	n/a	-1.0	2.386	columbia_card_task_fmri	n/a	n/a	-1.0	n/a	n/a	n/a	n/a	n/a	n/a	n/a	n/a	ITI	poldrack-single-stim	s144	False	0
126.438	1.769	128.207	7.164824673685433	draw_card	1.769	columbia_card_task_fmri	30.0	0.6875	89.0	-45.0	0.3125	16.0	1.0	5.0	2.1191632324624408	1.769	n/a	stim	poldrack-single-stim	s144	False	1
128.209	0.848	129.057	5.602324673685437	end_round	0.848	columbia_card_task_fmri	30.0	0.6666666666666667	71.0	-45.0	0.3333333333333333	16.0	2.0	5.0	2.7109845437222475	0.848	1.0	stim	poldrack-single-stim	s144	False	1
129.813	1.5	129.062	n/a	-1.0	2.386	columbia_card_task_fmri	n/a	n/a	-1.0	n/a	n/a	n/a	n/a	n/a	n/a	n/a	n/a	ITI	poldrack-single-stim	s144	False	0
131.45	1.374	132.824	-1.0643419929812334	draw_card	1.374	columbia_card_task_fmri	13.0	0.8333333333333334	89.0	-75.0	0.1666666666666666	6.0	1.0	1.0	0.1517095070193121	1.374	n/a	stim	poldrack-single-stim	s144	False	1
132.826	2.605	135.431	-3.997675326314567	draw_card	2.605	columbia_card_task_fmri	13.0	0.8	89.0	-75.0	0.2	6.0	2.0	1.0	2.5556681214210077	2.605	n/a	stim	poldrack-single-stim	s144	False	1
135.432	0.549	135.981	-8.397675326314568	end_round	0.549	columbia_card_task_fmri	13.0	0.75	71.0	-75.0	0.25	6.0	3.0	1.0	5.460393079498424	0.549	2.0	stim	poldrack-single-stim	s144	False	1
136.736	1.5	135.985	n/a	-1.0	2.318	columbia_card_task_fmri	n/a	n/a	-1.0	n/a	n/a	n/a	n/a	n/a	n/a	n/a	n/a	ITI	poldrack-single-stim	s144	False	0
138.305	1.477	139.782	0.6023246736854345	draw_card	1.477	columbia_card_task_fmri	14.0	0.8333333333333334	89.0	-70.0	0.1666666666666666	6.0	1.0	1.0	-1.3387391600527143	1.477	1.0	stim	poldrack-single-stim	s144	False	0
140.539	1.5	139.788	n/a	-1.0	2.318	columbia_card_task_fmri	n/a	n/a	-1.0	n/a	n/a	n/a	n/a	n/a	n/a	n/a	n/a	ITI	poldrack-single-stim	s144	False	0
142.108	1.554	143.662	0.6023246736854345	draw_card	1.554	columbia_card_task_fmri	16.0	0.8333333333333334	89.0	-80.0	0.1666666666666666	6.0	1.0	1.0	3.1326726555654645	1.554	n/a	stim	poldrack-single-stim	s144	False	1
143.664	1.53	145.194	-2.5976753263145667	end_round	1.53	columbia_card_task_fmri	16.0	0.8	71.0	-80.0	0.2	6.0	2.0	1.0	5.755238763214209	1.53	1.0	stim	poldrack-single-stim	s144	False	1
145.947	1.5	145.196	n/a	-1.0	2.862	columbia_card_task_fmri	n/a	n/a	-1.0	n/a	n/a	n/a	n/a	n/a	n/a	n/a	n/a	ITI	poldrack-single-stim	s144	False	0
148.06	1.1	149.16	3.1023246736854344	draw_card	1.1	columbia_card_task_fmri	17.0	0.8333333333333334	89.0	-70.0	0.1666666666666666	6.0	1.0	1.0	-0.2209049291387117	1.1	n/a	stim	poldrack-single-stim	s144	False	1
149.162	1.054	150.216	0.2023246736854341	draw_card	1.054	columbia_card_task_fmri	17.0	0.8	89.0	-70.0	0.2	6.0	2.0	1.0	2.155727342039228	1.054	2.0	stim	poldrack-single-stim	s144	False	0
150.973	1.5	150.222	n/a	-1.0	2.726	columbia_card_task_fmri	n/a	n/a	-1.0	n/a	n/a	n/a	n/a	n/a	n/a	n/a	n/a	ITI	poldrack-single-stim	s144	False	0
152.952	1.328	154.28	3.1023246736854326	draw_card	1.328	columbia_card_task_fmri	25.0	0.75	89.0	-65.0	0.25	8.0	1.0	2.0	6.326312714888807	1.328	1.0	stim	poldrack-single-stim	s144	False	0
155.033	1.5	154.282	n/a	-1.0	2.25	columbia_card_task_fmri	n/a	n/a	-1.0	n/a	n/a	n/a	n/a	n/a	n/a	n/a	n/a	ITI	poldrack-single-stim	s144	False	0
156.535	1.625	158.16	3.1023246736854326	draw_card	1.625	columbia_card_task_fmri	30.0	0.75	89.0	-80.0	0.25	8.0	1.0	2.0	14.98572057622244	1.625	n/a	stim	poldrack-single-stim	s144	False	1
158.162	0.745	158.907	-0.8262467548859908	end_round	0.745	columbia_card_task_fmri	30.0	0.7142857142857143	71.0	-80.0	0.2857142857142857	8.0	2.0	2.0	17.047100054227734	0.745	1.0	stim	poldrack-single-stim	s144	False	1
159.664	1.5	158.913	n/a	-1.0	2.318	columbia_card_task_fmri	n/a	n/a	-1.0	n/a	n/a	n/a	n/a	n/a	n/a	n/a	n/a	ITI	poldrack-single-stim	s144	False	0
161.234	1.398	162.632	2.8023246736854337	draw_card	1.398	columbia_card_task_fmri	13.0	0.9	89.0	-95.0	0.1	10.0	1.0	1.0	-0.2438866348271702	1.398	n/a	stim	poldrack-single-stim	s144	False	1
162.635	1.048	163.683	1.6023246736854326	draw_card	1.048	columbia_card_task_fmri	13.0	0.8888888888888888	89.0	-95.0	0.1111111111111111	10.0	2.0	1.0	1.2969847118720068	1.048	n/a	stim	poldrack-single-stim	s144	False	1
163.686	0.637	164.323	0.1023246736854327	end_round	0.637	columbia_card_task_fmri	13.0	0.875	71.0	-95.0	0.125	10.0	3.0	1.0	3.0732361515119777	0.637	2.0	stim	poldrack-single-stim	s144	False	1
165.08	1.5	164.329	n/a	-1.0	2.454	columbia_card_task_fmri	n/a	n/a	-1.0	n/a	n/a	n/a	n/a	n/a	n/a	n/a	n/a	ITI	poldrack-single-stim	s144	False	0
166.787	1.055	167.842	4.202324673685433	draw_card	1.055	columbia_card_task_fmri	14.0	0.9	89.0	-90.0	0.1	10.0	1.0	1.0	-1.443671358626613	1.055	n/a	stim	poldrack-single-stim	s144	False	1
167.845	0.547	168.392	3.0467691181298755	draw_card	0.547	columbia_card_task_fmri	14.0	0.8888888888888888	89.0	-90.0	0.1111111111111111	10.0	2.0	1.0	0.0401114960752551	0.547	2.0	stim	poldrack-single-stim	s144	False	0
169.151	1.5	168.4	n/a	-1.0	2.522	columbia_card_task_fmri	n/a	n/a	-1.0	n/a	n/a	n/a	n/a	n/a	n/a	n/a	n/a	ITI	poldrack-single-stim	s144	False	0
170.925	1.372	172.297	-0.5976753263145665	draw_card	1.372	columbia_card_task_fmri	16.0	0.8	89.0	-70.0	0.2	10.0	1.0	2.0	1.755787939568151	1.372	n/a	stim	poldrack-single-stim	s144	False	1
172.299	0.816	173.115	-2.508786437425678	end_round	0.816	columbia_card_task_fmri	16.0	0.7777777777777778	71.0	-70.0	0.2222222222222222	10.0	2.0	2.0	3.109203372681357	0.816	1.0	stim	poldrack-single-stim	s144	False	1
173.868	1.5	173.117	n/a	-1.0	2.318	columbia_card_task_fmri	n/a	n/a	-1.0	n/a	n/a	n/a	n/a	n/a	n/a	n/a	n/a	ITI	poldrack-single-stim	s144	False	0
175.438	1.31	176.748	-1.3143419929812334	draw_card	1.31	columbia_card_task_fmri	7.0	0.9166666666666666	89.0	-100.0	0.0833333333333333	12.0	1.0	1.0	-3.070113921705929	1.31	n/a	stim	poldrack-single-stim	s144	False	1
176.751	0.716	177.467	-2.124948053587296	draw_card	0.716	columbia_card_task_fmri	7.0	0.9090909090909092	89.0	-100.0	0.0909090909090909	12.0	2.0	1.0	-1.8832510415417156	0.716	n/a	stim	poldrack-single-stim	s144	False	1
177.469	0.659	178.128	-3.0976753263145675	end_round	0.659	columbia_card_task_fmri	7.0	0.9	71.0	-100.0	0.1	12.0	3.0	1.0	-0.5438343243214305	0.659	2.0	stim	poldrack-single-stim	s144	False	1
178.884	1.5	178.133	n/a	-1.0	2.522	columbia_card_task_fmri	n/a	n/a	-1.0	n/a	n/a	n/a	n/a	n/a	n/a	n/a	n/a	ITI	poldrack-single-stim	s144	False	0
180.658	1.307	181.965	-1.0643419929812317	draw_card	1.307	columbia_card_task_fmri	14.0	0.8333333333333334	89.0	-80.0	0.1666666666666666	12.0	1.0	2.0	2.387424516550773	1.307	n/a	stim	poldrack-single-stim	s144	False	1
181.967	0.498	182.465	-2.488584417223661	draw_card	0.498	columbia_card_task_fmri	14.0	0.8181818181818181	89.0	-80.0	0.1818181818181818	12.0	2.0	2.0	3.610811298193916	0.498	n/a	stim	poldrack-single-stim	s144	False	1
182.467	0.981	183.448	-4.197675326314566	end_round	0.981	columbia_card_task_fmri	14.0	0.8	71.0	-80.0	0.2	12.0	3.0	2.0	4.955339252644308	0.981	2.0	stim	poldrack-single-stim	s144	False	1
184.205	1.5	183.454	n/a	-1.0	2.998	columbia_card_task_fmri	n/a	n/a	-1.0	n/a	n/a	n/a	n/a	n/a	n/a	n/a	n/a	ITI	poldrack-single-stim	s144	False	0
186.455	1.089	187.544	0.6023246736854327	draw_card	1.089	columbia_card_task_fmri	15.0	0.8333333333333334	89.0	-75.0	0.1666666666666666	12.0	1.0	2.0	0.8969426156307208	1.089	n/a	stim	poldrack-single-stim	s144	False	1
187.546	0.619	188.165	-0.7613116899509323	draw_card	0.619	columbia_card_task_fmri	15.0	0.8181818181818181	89.0	-75.0	0.1818181818181818	12.0	2.0	2.0	2.0682551890206327	0.619	n/a	stim	poldrack-single-stim	s144	False	1
188.167	1.078	189.245	-2.397675326314568	draw_card	1.078	columbia_card_task_fmri	15.0	0.8	89.0	-75.0	0.2	12.0	3.0	2.0	3.3555536273812976	1.078	3.0	stim	poldrack-single-stim	s144	False	0
190.002	1.5	189.251	n/a	-1.0	2.318	columbia_card_task_fmri	n/a	n/a	-1.0	n/a	n/a	n/a	n/a	n/a	n/a	n/a	n/a	ITI	poldrack-single-stim	s144	False	0
191.573	1.083	192.656	-0.3976753263145672	draw_card	1.083	columbia_card_task_fmri	15.0	0.8	89.0	-65.0	0.2	15.0	1.0	3.0	-0.6438166695833445	1.083	n/a	stim	poldrack-single-stim	s144	False	1
192.659	0.4	193.059	-1.5405324691717095	draw_card	0.4	columbia_card_task_fmri	15.0	0.7857142857142857	89.0	-65.0	0.2142857142857142	15.0	2.0	3.0	0.1821129804466963	0.4	n/a	stim	poldrack-single-stim	s144	False	1
193.061	0.473	193.534	-2.859213787853031	draw_card	0.473	columbia_card_task_fmri	15.0	0.7692307692307692	89.0	-65.0	0.2307692307692307	15.0	3.0	3.0	1.061900026128285	0.473	n/a	stim	poldrack-single-stim	s144	False	1
193.536	1.205	194.741	-4.397675326314567	draw_card	1.205	columbia_card_task_fmri	15.0	0.75	89.0	-65.0	0.25	15.0	4.0	3.0	1.996767410952927	1.205	n/a	stim	poldrack-single-stim	s144	False	1
194.744	0.647	195.391	-6.215857144496384	end_round	0.647	columbia_card_task_fmri	15.0	0.7272727272727273	71.0	-65.0	0.2727272727272727	15.0	5.0	3.0	2.9845478063432296	0.647	4.0	stim	poldrack-single-stim	s144	False	1
196.148	1.5	195.397	n/a	-1.0	2.25	columbia_card_task_fmri	n/a	n/a	-1.0	n/a	n/a	n/a	n/a	n/a	n/a	n/a	n/a	ITI	poldrack-single-stim	s144	False	0
197.65	1.349	198.999	-1.1476753263145674	draw_card	1.349	columbia_card_task_fmri	14.0	0.8125	89.0	-70.0	0.1875	16.0	1.0	3.0	0.1422869181006802	1.349	n/a	stim	poldrack-single-stim	s144	False	1
199.001	0.508	199.509	-2.1976753263145663	draw_card	0.508	columbia_card_task_fmri	14.0	0.8	89.0	-70.0	0.2	16.0	2.0	3.0	0.9559134619980938	0.508	n/a	stim	poldrack-single-stim	s144	False	1
199.512	0.476	199.988	-3.397675326314568	draw_card	0.476	columbia_card_task_fmri	14.0	0.7857142857142857	89.0	-70.0	0.2142857142857142	16.0	3.0	3.0	1.82315351328738	0.476	3.0	stim	poldrack-single-stim	s144	False	0
200.746	1.5	199.995	n/a	-1.0	2.454	columbia_card_task_fmri	n/a	n/a	-1.0	n/a	n/a	n/a	n/a	n/a	n/a	n/a	n/a	ITI	poldrack-single-stim	s144	False	0
202.454	1.781	204.235	-1.2101753263145674	draw_card	1.781	columbia_card_task_fmri	11.0	0.6875	89.0	-30.0	0.3125	16.0	1.0	5.0	-13.635933389106532	1.781	1.0	stim	poldrack-single-stim	s144	False	0
204.992	1.5	204.241	n/a	-1.0	2.318	columbia_card_task_fmri	n/a	n/a	-1.0	n/a	n/a	n/a	n/a	n/a	n/a	n/a	n/a	ITI	poldrack-single-stim	s144	False	0
206.562	1.465	208.027	3.6023246736854326	draw_card	1.465	columbia_card_task_fmri	15.0	0.8666666666666667	89.0	-75.0	0.1333333333333333	15.0	1.0	2.0	-2.049439169546453	1.465	n/a	stim	poldrack-single-stim	s144	False	1
208.03	0.435	208.465	2.7451818165425768	draw_card	0.435	columbia_card_task_fmri	15.0	0.8571428571428572	89.0	-75.0	0.1428571428571428	15.0	2.0	2.0	-1.1502859656104043	0.435	n/a	stim	poldrack-single-stim	s144	False	1
208.466	0.608	209.074	1.756170827531586	draw_card	0.608	columbia_card_task_fmri	15.0	0.8461538461538461	89.0	-75.0	0.1538461538461538	15.0	3.0	2.0	-0.1717899578560988	0.608	n/a	stim	poldrack-single-stim	s144	False	1
209.077	0.68	209.757	0.6023246736854327	end_round	0.68	columbia_card_task_fmri	15.0	0.8333333333333334	71.0	-75.0	0.1666666666666666	15.0	4.0	2.0	0.8969426156307208	0.68	3.0	stim	poldrack-single-stim	s144	False	1
210.512	1.5	209.761	n/a	-1.0	2.318	columbia_card_task_fmri	n/a	n/a	-1.0	n/a	n/a	n/a	n/a	n/a	n/a	n/a	n/a	ITI	poldrack-single-stim	s144	False	0
212.082	1.472	213.554	5.335658007018767	draw_card	1.472	columbia_card_task_fmri	17.0	0.8666666666666667	89.0	-75.0	0.1333333333333333	15.0	1.0	2.0	-1.3696987592650736	1.472	n/a	stim	poldrack-single-stim	s144	False	1
213.556	0.448	214.004	4.4594675308282925	draw_card	0.448	columbia_card_task_fmri	17.0	0.8571428571428572	89.0	-75.0	0.1428571428571428	15.0	2.0	2.0	-0.4505569339304784	0.448	2.0	stim	poldrack-single-stim	s144	False	0
214.761	1.5	214.01	n/a	-1.0	2.59	columbia_card_task_fmri	n/a	n/a	-1.0	n/a	n/a	n/a	n/a	n/a	n/a	n/a	n/a	ITI	poldrack-single-stim	s144	False	0
216.603	2.165	218.768	0.9148246736854329	draw_card	2.165	columbia_card_task_fmri	2.0	0.9375	89.0	-25.0	0.0625	16.0	1.0	1.0	-26.086129084968768	2.165	n/a	stim	poldrack-single-stim	s144	False	1
218.77	1.003	219.773	0.8023246736854327	draw_card	1.003	columbia_card_task_fmri	2.0	0.9333333333333332	89.0	-25.0	0.0666666666666666	16.0	2.0	1.0	-25.88762156001276	1.003	n/a	stim	poldrack-single-stim	s144	False	1
219.776	0.544	220.32	0.6737532451140044	end_round	0.544	columbia_card_task_fmri	2.0	0.9285714285714286	71.0	-25.0	0.0714285714285714	16.0	3.0	1.0	-25.66988343062725	0.544	2.0	stim	poldrack-single-stim	s144	False	1
221.076	1.5	220.325	n/a	-1.0	2.25	columbia_card_task_fmri	n/a	n/a	-1.0	n/a	n/a	n/a	n/a	n/a	n/a	n/a	n/a	ITI	poldrack-single-stim	s144	False	0
222.579	1.412	223.991	3.1023246736854326	draw_card	1.412	columbia_card_task_fmri	9.0	0.9375	89.0	-95.0	0.0625	16.0	1.0	1.0	-7.46788848412794	1.412	n/a	stim	poldrack-single-stim	s144	False	1
223.993	0.47	224.463	2.6689913403521	draw_card	0.47	columbia_card_task_fmri	9.0	0.9333333333333332	89.0	-95.0	0.0666666666666666	16.0	2.0	1.0	-6.700335517022975	0.47	2.0	stim	poldrack-single-stim	s144	False	0
225.218	1.5	224.467	n/a	-1.0	2.25	columbia_card_task_fmri	n/a	n/a	-1.0	n/a	n/a	n/a	n/a	n/a	n/a	n/a	n/a	ITI	poldrack-single-stim	s144	False	0
226.721	1.763	228.484	4.664824673685433	draw_card	1.763	columbia_card_task_fmri	11.0	0.9375	89.0	-100.0	0.0625	16.0	1.0	1.0	-5.773912496675873	1.763	n/a	stim	poldrack-single-stim	s144	False	1
228.485	0.632	229.117	4.202324673685434	draw_card	0.632	columbia_card_task_fmri	11.0	0.9333333333333332	89.0	-100.0	0.0666666666666666	16.0	2.0	1.0	-4.954669530418688	0.632	n/a	stim	poldrack-single-stim	s144	False	1
229.12	0.993	230.113	3.6737532451140056	draw_card	0.993	columbia_card_task_fmri	11.0	0.9285714285714286	89.0	-100.0	0.0714285714285714	16.0	3.0	1.0	-4.056269233742729	0.993	n/a	stim	poldrack-single-stim	s144	False	1
230.116	0.636	230.752	3.063863135223895	end_round	0.636	columbia_card_task_fmri	11.0	0.9230769230769232	71.0	-100.0	0.0769230769230769	16.0	4.0	1.0	-3.065254237218064	0.636	3.0	stim	poldrack-single-stim	s144	False	1
231.508	1.5	230.757	n/a	-1.0	2.522	columbia_card_task_fmri	n/a	n/a	-1.0	n/a	n/a	n/a	n/a	n/a	n/a	n/a	n/a	ITI	poldrack-single-stim	s144	False	0
233.282	1.415	234.697	5.227324673685433	draw_card	1.415	columbia_card_task_fmri	16.0	0.875	89.0	-75.0	0.125	16.0	1.0	2.0	-2.548036867626717	1.415	n/a	stim	poldrack-single-stim	s144	False	1
234.7	0.596	235.296	4.4689913403521	draw_card	0.596	columbia_card_task_fmri	16.0	0.8666666666666667	89.0	-75.0	0.1333333333333333	16.0	2.0	2.0	-1.7095696722165703	0.596	n/a	stim	poldrack-single-stim	s144	False	1
235.298	0.86	236.158	3.6023246736854344	draw_card	0.86	columbia_card_task_fmri	16.0	0.8571428571428572	89.0	-75.0	0.1428571428571428	16.0	3.0	2.0	-0.8004221373911093	0.86	n/a	stim	poldrack-single-stim	s144	False	1
236.161	0.658	236.819	2.6023246736854326	end_round	0.658	columbia_card_task_fmri	16.0	0.8461538461538461	71.0	-75.0	0.1538461538461538	16.0	4.0	2.0	0.1889498826752245	0.658	3.0	stim	poldrack-single-stim	s144	False	1
237.572	1.5	236.821	n/a	-1.0	2.454	columbia_card_task_fmri	n/a	n/a	-1.0	n/a	n/a	n/a	n/a	n/a	n/a	n/a	n/a	ITI	poldrack-single-stim	s144	False	0
239.28	1.312	240.592	5.477324673685433	draw_card	1.312	columbia_card_task_fmri	17.0	0.875	89.0	-80.0	0.125	16.0	1.0	2.0	-0.5640961087585268	1.312	1.0	stim	poldrack-single-stim	s144	False	0
241.348	1.5	240.597	n/a	-1.0	2.25	columbia_card_task_fmri	n/a	n/a	-1.0	n/a	n/a	n/a	n/a	n/a	n/a	n/a	n/a	ITI	poldrack-single-stim	s144	False	0
253.857	1.454	255.311	-0.2310086596478994	draw_card	1.454	columbia_card_task_fmri	13.0	0.8333333333333334	89.0	-70.0	0.1666666666666666	6.0	1.0	1.0	-1.7113473622908089	1.454	n/a	stim	poldrack-single-stim	s144	False	1
255.314	0.879	256.193	-2.997675326314567	end_round	0.879	columbia_card_task_fmri	13.0	0.8	71.0	-70.0	0.2	6.0	2.0	1.0	0.5559784911396122	0.879	1.0	stim	poldrack-single-stim	s144	False	1
256.951	1.5	256.2	n/a	-1.0	2.454	columbia_card_task_fmri	n/a	n/a	-1.0	n/a	n/a	n/a	n/a	n/a	n/a	n/a	n/a	ITI	poldrack-single-stim	s144	False	0
258.657	1.139	259.796	-0.2310086596478994	draw_card	1.139	columbia_card_task_fmri	15.0	0.8333333333333334	89.0	-80.0	0.1666666666666666	6.0	1.0	1.0	2.7600480185314	1.139	n/a	stim	poldrack-single-stim	s144	False	1
259.798	0.984	260.782	-3.397675326314568	end_round	0.984	columbia_card_task_fmri	15.0	0.8	71.0	-80.0	0.2	6.0	2.0	1.0	5.355288479137165	0.984	1.0	stim	poldrack-single-stim	s144	False	1
261.538	1.5	260.787	n/a	-1.0	2.454	columbia_card_task_fmri	n/a	n/a	-1.0	n/a	n/a	n/a	n/a	n/a	n/a	n/a	n/a	ITI	poldrack-single-stim	s144	False	0
263.244	1.072	264.316	1.4356580070187666	draw_card	1.072	columbia_card_task_fmri	16.0	0.8333333333333334	89.0	-75.0	0.1666666666666666	6.0	1.0	1.0	1.2695611950087624	1.072	n/a	stim	poldrack-single-stim	s144	False	1
264.319	1.06	265.379	-1.5976753263145669	end_round	1.06	columbia_card_task_fmri	16.0	0.8	71.0	-75.0	0.2	6.0	2.0	1.0	3.755498267232525	1.06	1.0	stim	poldrack-single-stim	s144	False	1
266.137	1.5	265.386	n/a	-1.0	2.522	columbia_card_task_fmri	n/a	n/a	-1.0	n/a	n/a	n/a	n/a	n/a	n/a	n/a	n/a	ITI	poldrack-single-stim	s144	False	0
267.911	1.572	269.483	2.6023246736854326	draw_card	1.572	columbia_card_task_fmri	21.0	0.75	89.0	-55.0	0.25	8.0	1.0	2.0	0.2649921425597341	1.572	n/a	stim	poldrack-single-stim	s144	False	1
269.485	0.858	270.343	-0.1119610406002807	draw_card	0.858	columbia_card_task_fmri	21.0	0.7142857142857143	89.0	-55.0	0.2857142857142857	8.0	2.0	2.0	1.6890984918808982	0.858	n/a	stim	poldrack-single-stim	s144	False	1
270.346	0.659	271.005	-3.7310086596478977	end_round	0.659	columbia_card_task_fmri	21.0	0.6666666666666667	71.0	-55.0	0.3333333333333333	8.0	3.0	2.0	3.182321569851041	0.659	2.0	stim	poldrack-single-stim	s144	False	1
271.763	1.5	271.012	n/a	-1.0	2.454	columbia_card_task_fmri	n/a	n/a	-1.0	n/a	n/a	n/a	n/a	n/a	n/a	n/a	n/a	ITI	poldrack-single-stim	s144	False	0
273.468	1.295	274.763	3.8523246736854326	draw_card	1.295	columbia_card_task_fmri	26.0	0.75	89.0	-65.0	0.25	8.0	1.0	2.0	6.759274275709011	1.295	n/a	stim	poldrack-single-stim	s144	False	1
274.767	0.755	275.522	0.6023246736854363	draw_card	0.755	columbia_card_task_fmri	26.0	0.7142857142857143	89.0	-65.0	0.2857142857142857	8.0	2.0	2.0	8.464537038687148	0.755	n/a	stim	poldrack-single-stim	s144	False	1
275.524	0.801	276.325	-3.731008659647896	end_round	0.801	columbia_card_task_fmri	26.0	0.6666666666666667	71.0	-65.0	0.3333333333333333	8.0	3.0	2.0	10.2525549397661	0.801	2.0	stim	poldrack-single-stim	s144	False	1
277.079	1.5	276.328	n/a	-1.0	2.658	columbia_card_task_fmri	n/a	n/a	-1.0	n/a	n/a	n/a	n/a	n/a	n/a	n/a	n/a	ITI	poldrack-single-stim	s144	False	0
278.99	1.352	280.342	-1.0643419929812334	draw_card	1.352	columbia_card_task_fmri	15.0	0.7777777777777778	89.0	-60.0	0.2222222222222222	9.0	1.0	2.0	-1.4631894964284378	1.352	n/a	stim	poldrack-single-stim	s144	False	1
280.344	0.644	280.988	-3.147675326314568	draw_card	0.644	columbia_card_task_fmri	15.0	0.75	89.0	-60.0	0.25	9.0	2.0	2.0	-0.1679470833734981	0.644	n/a	stim	poldrack-single-stim	s144	False	1
280.991	1.213	282.204	-5.826246754885994	draw_card	1.213	columbia_card_task_fmri	15.0	0.7142857142857143	89.0	-60.0	0.2857142857142857	9.0	3.0	2.0	1.2374149696550845	1.213	n/a	stim	poldrack-single-stim	s144	False	1
282.206	0.569	282.775	-9.397675326314566	end_round	0.569	columbia_card_task_fmri	15.0	0.6666666666666667	71.0	-60.0	0.3333333333333333	9.0	4.0	2.0	2.7109845437222475	0.569	3.0	stim	poldrack-single-stim	s144	False	1
283.532	1.5	282.781	n/a	-1.0	2.386	columbia_card_task_fmri	n/a	n/a	-1.0	n/a	n/a	n/a	n/a	n/a	n/a	n/a	n/a	ITI	poldrack-single-stim	s144	False	0
285.17	1.574	286.744	3.3023246736854337	draw_card	1.574	columbia_card_task_fmri	13.0	0.9	89.0	-90.0	0.1	10.0	1.0	1.0	-1.7436149277316204	1.574	n/a	stim	poldrack-single-stim	s144	False	1
286.747	0.911	287.658	2.157880229240988	draw_card	0.911	columbia_card_task_fmri	13.0	0.8888888888888888	89.0	-90.0	0.1111111111111111	10.0	2.0	1.0	-0.2741043145006685	0.911	n/a	stim	poldrack-single-stim	s144	False	1
287.66	0.762	288.422	0.7273246736854327	end_round	0.762	columbia_card_task_fmri	13.0	0.875	71.0	-90.0	0.125	10.0	3.0	1.0	1.4198880634782682	0.762	2.0	stim	poldrack-single-stim	s144	False	1
289.177	1.5	288.426	n/a	-1.0	2.522	columbia_card_task_fmri	n/a	n/a	-1.0	n/a	n/a	n/a	n/a	n/a	n/a	n/a	n/a	ITI	poldrack-single-stim	s144	False	0
290.951	1.212	292.163	4.602324673685433	draw_card	1.212	columbia_card_task_fmri	15.0	0.9	89.0	-95.0	0.1	10.0	1.0	1.0	0.3560115967379005	1.212	n/a	stim	poldrack-single-stim	s144	False	1
292.166	0.784	292.95	3.380102451463209	draw_card	0.784	columbia_card_task_fmri	15.0	0.8888888888888888	89.0	-95.0	0.1111111111111111	10.0	2.0	1.0	1.925426923179863	0.784	n/a	stim	poldrack-single-stim	s144	False	1
292.953	0.666	293.619	1.8523246736854329	draw_card	0.666	columbia_card_task_fmri	15.0	0.875	89.0	-95.0	0.125	10.0	3.0	1.0	3.734581659470223	0.666	n/a	stim	poldrack-single-stim	s144	False	1
293.622	1.054	294.676	-0.1119610406002807	draw_card	1.054	columbia_card_task_fmri	15.0	0.8571428571428572	89.0	-95.0	0.1428571428571428	10.0	4.0	1.0	5.847209149231951	1.054	n/a	stim	poldrack-single-stim	s144	False	1
294.679	0.519	295.198	-2.7310086596478995	end_round	0.519	columbia_card_task_fmri	15.0	0.8333333333333334	71.0	-95.0	0.1666666666666666	10.0	5.0	1.0	8.349519423477439	0.519	4.0	stim	poldrack-single-stim	s144	False	1
295.955	1.5	295.204	n/a	-1.0	2.59	columbia_card_task_fmri	n/a	n/a	-1.0	n/a	n/a	n/a	n/a	n/a	n/a	n/a	n/a	ITI	poldrack-single-stim	s144	False	0
297.797	1.076	298.873	0.4023246736854334	draw_card	1.076	columbia_card_task_fmri	16.0	0.8	89.0	-65.0	0.2	10.0	1.0	2.0	-0.2438866348271773	1.076	n/a	stim	poldrack-single-stim	s144	False	1
298.876	0.577	299.453	-1.3976753263145656	draw_card	0.577	columbia_card_task_fmri	16.0	0.7777777777777778	89.0	-65.0	0.2222222222222222	10.0	2.0	2.0	1.0308179353015916	0.577	2.0	stim	poldrack-single-stim	s144	False	0
300.209	1.5	299.458	n/a	-1.0	2.386	columbia_card_task_fmri	n/a	n/a	-1.0	n/a	n/a	n/a	n/a	n/a	n/a	n/a	n/a	ITI	poldrack-single-stim	s144	False	0
301.847	0.95	302.797	-0.8976753263145673	draw_card	0.95	columbia_card_task_fmri	7.0	0.9166666666666666	89.0	-95.0	0.0833333333333333	12.0	1.0	1.0	-4.451740337430834	0.95	1.0	stim	poldrack-single-stim	s144	False	0
303.552	1.5	302.801	n/a	-1.0	2.59	columbia_card_task_fmri	n/a	n/a	-1.0	n/a	n/a	n/a	n/a	n/a	n/a	n/a	n/a	ITI	poldrack-single-stim	s144	False	0
305.394	1.419	306.813	-0.2310086596478994	draw_card	1.419	columbia_card_task_fmri	14.0	0.8333333333333334	89.0	-75.0	0.1666666666666666	12.0	1.0	2.0	0.5243253711368041	1.419	n/a	stim	poldrack-single-stim	s144	False	1
306.816	0.566	307.382	-1.5794935081327508	draw_card	0.566	columbia_card_task_fmri	14.0	0.8181818181818181	89.0	-75.0	0.1818181818181818	12.0	2.0	2.0	1.6826192835290286	0.566	n/a	stim	poldrack-single-stim	s144	False	1
307.384	1.112	308.496	-3.1976753263145663	end_round	1.112	columbia_card_task_fmri	14.0	0.8	71.0	-75.0	0.2	12.0	3.0	2.0	2.9556102313142887	1.112	2.0	stim	poldrack-single-stim	s144	False	1
309.251	1.5	308.5	n/a	-1.0	2.318	columbia_card_task_fmri	n/a	n/a	-1.0	n/a	n/a	n/a	n/a	n/a	n/a	n/a	n/a	ITI	poldrack-single-stim	s144	False	0
310.822	1.071	311.893	1.4356580070187666	draw_card	1.071	columbia_card_task_fmri	15.0	0.8333333333333334	89.0	-70.0	0.1666666666666666	12.0	1.0	2.0	-0.9661293160530492	1.071	n/a	stim	poldrack-single-stim	s144	False	1
311.896	0.507	312.403	0.1477792191399759	draw_card	0.507	columbia_card_task_fmri	15.0	0.8181818181818181	89.0	-70.0	0.1818181818181818	12.0	2.0	2.0	0.1400894705201025	0.507	n/a	stim	poldrack-single-stim	s144	False	1
312.406	0.504	312.91	-1.3976753263145674	draw_card	0.504	columbia_card_task_fmri	15.0	0.8	89.0	-70.0	0.2	12.0	3.0	2.0	1.3558499625896443	0.504	3.0	stim	poldrack-single-stim	s144	False	0
313.668	1.5	312.917	n/a	-1.0	2.25	columbia_card_task_fmri	n/a	n/a	-1.0	n/a	n/a	n/a	n/a	n/a	n/a	n/a	n/a	ITI	poldrack-single-stim	s144	False	0
315.17	1.367	316.537	-0.5976753263145665	draw_card	1.367	columbia_card_task_fmri	16.0	0.8	89.0	-70.0	0.2	15.0	1.0	3.0	1.755787939568151	1.367	n/a	stim	poldrack-single-stim	s144	False	1
316.54	0.497	317.037	-1.826246754885996	draw_card	0.497	columbia_card_task_fmri	16.0	0.7857142857142857	89.0	-70.0	0.2142857142857142	15.0	2.0	3.0	2.6436829548621503	0.497	n/a	stim	poldrack-single-stim	s144	False	1
317.04	0.789	317.829	-3.243829172468414	draw_card	0.789	columbia_card_task_fmri	16.0	0.7692307692307692	89.0	-70.0	0.2307692307692307	15.0	3.0	3.0	3.589474903924689	0.789	n/a	stim	poldrack-single-stim	s144	False	1
317.832	0.822	318.654	-4.897675326314567	end_round	0.822	columbia_card_task_fmri	16.0	0.75	71.0	-70.0	0.25	15.0	4.0	3.0	4.594478362624798	0.822	3.0	stim	poldrack-single-stim	s144	False	1
319.408	1.5	318.657	n/a	-1.0	2.454	columbia_card_task_fmri	n/a	n/a	-1.0	n/a	n/a	n/a	n/a	n/a	n/a	n/a	n/a	ITI	poldrack-single-stim	s144	False	0
321.116	1.674	322.79	-0.2101753263145672	draw_card	1.674	columbia_card_task_fmri	14.0	0.8125	89.0	-65.0	0.1875	16.0	1.0	3.0	-1.8089248777682805	1.674	n/a	stim	poldrack-single-stim	s144	False	1
322.793	0.622	323.415	-1.1976753263145663	draw_card	0.622	columbia_card_task_fmri	14.0	0.8	89.0	-65.0	0.2	16.0	2.0	3.0	-1.04374493354403	0.622	n/a	stim	poldrack-single-stim	s144	False	1
323.418	0.805	324.223	-2.3262467548859944	draw_card	0.805	columbia_card_task_fmri	14.0	0.7857142857142857	89.0	-65.0	0.2142857142857142	16.0	3.0	3.0	-0.2281429911497383	0.805	3.0	stim	poldrack-single-stim	s144	False	0
324.979	1.5	324.228	n/a	-1.0	3.27	columbia_card_task_fmri	n/a	n/a	-1.0	n/a	n/a	n/a	n/a	n/a	n/a	n/a	n/a	ITI	poldrack-single-stim	s144	False	0
327.501	0.917	328.418	-0.4601753263145672	draw_card	0.917	columbia_card_task_fmri	16.0	0.8125	89.0	-75.0	0.1875	16.0	1.0	3.0	2.874048047190037	0.917	n/a	stim	poldrack-single-stim	s144	False	1
328.422	0.476	328.898	-1.5976753263145669	draw_card	0.476	columbia_card_task_fmri	16.0	0.8	89.0	-75.0	0.2	16.0	2.0	3.0	3.755498267232525	0.476	n/a	stim	poldrack-single-stim	s144	False	1
328.901	0.471	329.372	-2.8976753263145656	end_round	0.471	columbia_card_task_fmri	16.0	0.7857142857142857	71.0	-75.0	0.2142857142857142	16.0	3.0	3.0	4.695030085736285	0.471	2.0	stim	poldrack-single-stim	s144	False	1
330.127	1.5	329.376	n/a	-1.0	2.25	columbia_card_task_fmri	n/a	n/a	-1.0	n/a	n/a	n/a	n/a	n/a	n/a	n/a	n/a	ITI	poldrack-single-stim	s144	False	0
331.63	1.091	332.721	3.8023246736854337	draw_card	1.091	columbia_card_task_fmri	16.0	0.8666666666666667	89.0	-80.0	0.1333333333333333	15.0	1.0	2.0	-0.0102018356927047	1.091	n/a	stim	poldrack-single-stim	s144	False	1
332.724	0.455	333.179	2.888038959399721	draw_card	0.455	columbia_card_task_fmri	16.0	0.8571428571428572	89.0	-80.0	0.1428571428571428	15.0	2.0	2.0	0.94891677308717	0.455	2.0	stim	poldrack-single-stim	s144	False	0
333.935	1.5	333.184	n/a	-1.0	2.25	columbia_card_task_fmri	n/a	n/a	-1.0	n/a	n/a	n/a	n/a	n/a	n/a	n/a	n/a	ITI	poldrack-single-stim	s144	False	0
335.438	1.205	336.643	4.668991340352101	draw_card	1.205	columbia_card_task_fmri	17.0	0.8666666666666667	89.0	-80.0	0.1333333333333333	15.0	1.0	2.0	0.3296755079791822	1.205	1.0	stim	poldrack-single-stim	s144	False	0
337.398	1.5	336.647	n/a	-1.0	2.318	columbia_card_task_fmri	n/a	n/a	-1.0	n/a	n/a	n/a	n/a	n/a	n/a	n/a	n/a	ITI	poldrack-single-stim	s144	False	0
338.969	2.473	341.442	0.6023246736854327	draw_card	2.473	columbia_card_task_fmri	1.0	0.9375	89.0	-15.0	0.0625	16.0	1.0	1.0	-28.7299446864539	2.473	n/a	stim	poldrack-single-stim	s144	False	1
341.447	1.135	342.582	0.5356580070187661	draw_card	1.135	columbia_card_task_fmri	1.0	0.9333333333333332	89.0	-15.0	0.0666666666666666	16.0	2.0	1.0	-28.61318902524232	1.135	n/a	stim	poldrack-single-stim	s144	False	1
342.584	0.535	343.119	0.4594675308282899	end_round	0.535	columbia_card_task_fmri	1.0	0.9285714285714286	71.0	-15.0	0.0714285714285714	16.0	3.0	1.0	-28.485065690566863	0.535	2.0	stim	poldrack-single-stim	s144	False	1
343.875	1.5	343.124	n/a	-1.0	2.726	columbia_card_task_fmri	n/a	n/a	-1.0	n/a	n/a	n/a	n/a	n/a	n/a	n/a	n/a	ITI	poldrack-single-stim	s144	False	0
345.856	1.173	347.029	3.7273246736854326	draw_card	1.173	columbia_card_task_fmri	10.0	0.9375	89.0	-100.0	0.0625	16.0	1.0	1.0	-6.015912604359507	1.173	n/a	stim	poldrack-single-stim	s144	False	1
347.032	0.621	347.653	3.2689913403521	draw_card	0.621	columbia_card_task_fmri	10.0	0.9333333333333332	89.0	-100.0	0.0666666666666666	16.0	2.0	1.0	-5.204053819144551	0.621	n/a	stim	poldrack-single-stim	s144	False	1
347.657	0.67	348.327	2.7451818165425768	draw_card	0.67	columbia_card_task_fmri	10.0	0.9285714285714286	89.0	-100.0	0.0714285714285714	16.0	3.0	1.0	-4.31375094372639	0.67	n/a	stim	poldrack-single-stim	s144	False	1
348.331	0.995	349.326	2.140786212146972	draw_card	0.995	columbia_card_task_fmri	10.0	0.9230769230769232	89.0	-100.0	0.0769230769230769	16.0	4.0	1.0	-3.331667856703202	0.995	n/a	stim	poldrack-single-stim	s144	False	1
349.329	1.339	350.668	1.4356580070187666	end_round	1.339	columbia_card_task_fmri	10.0	0.9166666666666666	71.0	-100.0	0.0833333333333333	16.0	5.0	1.0	-2.241124960038288	1.339	4.0	stim	poldrack-single-stim	s144	False	1
351.425	1.5	350.674	n/a	-1.0	2.386	columbia_card_task_fmri	n/a	n/a	-1.0	n/a	n/a	n/a	n/a	n/a	n/a	n/a	n/a	ITI	poldrack-single-stim	s144	False	0
353.065	0.99	354.055	4.352324673685433	draw_card	0.99	columbia_card_task_fmri	15.0	0.875	89.0	-75.0	0.125	16.0	1.0	2.0	-2.878688830600701	0.99	n/a	stim	poldrack-single-stim	s144	False	1
354.058	0.546	354.604	3.6023246736854326	draw_card	0.546	columbia_card_task_fmri	15.0	0.8666666666666667	89.0	-75.0	0.1333333333333333	16.0	2.0	2.0	-2.049439169546453	0.546	n/a	stim	poldrack-single-stim	s144	False	1
354.607	0.921	355.528	2.7451818165425768	draw_card	0.921	columbia_card_task_fmri	15.0	0.8571428571428572	89.0	-75.0	0.1428571428571428	16.0	3.0	2.0	-1.1502859656104043	0.921	n/a	stim	poldrack-single-stim	s144	False	1
355.532	0.543	356.075	1.756170827531586	end_round	0.543	columbia_card_task_fmri	15.0	0.8461538461538461	71.0	-75.0	0.1538461538461538	16.0	4.0	2.0	-0.1717899578560988	0.543	3.0	stim	poldrack-single-stim	s144	False	1
356.832	1.5	356.081	n/a	-1.0	2.318	columbia_card_task_fmri	n/a	n/a	-1.0	n/a	n/a	n/a	n/a	n/a	n/a	n/a	n/a	ITI	poldrack-single-stim	s144	False	0
358.402	1.398	359.8	4.602324673685433	draw_card	1.398	columbia_card_task_fmri	16.0	0.875	89.0	-80.0	0.125	16.0	1.0	2.0	-0.8947561364722851	1.398	n/a	stim	poldrack-single-stim	s144	False	1
359.803	0.452	360.255	3.8023246736854337	draw_card	0.452	columbia_card_task_fmri	16.0	0.8666666666666667	89.0	-80.0	0.1333333333333333	16.0	2.0	2.0	-0.0102018356927047	0.452	n/a	stim	poldrack-single-stim	s144	False	1
360.259	0.587	360.846	2.888038959399721	draw_card	0.587	columbia_card_task_fmri	16.0	0.8571428571428572	89.0	-80.0	0.1428571428571428	16.0	3.0	2.0	0.94891677308717	0.587	n/a	stim	poldrack-single-stim	s144	False	1
360.849	0.588	361.437	1.8330939044546624	draw_card	0.588	columbia_card_task_fmri	16.0	0.8461538461538461	89.0	-80.0	0.1538461538461538	16.0	4.0	2.0	1.9926682594829896	0.588	n/a	stim	poldrack-single-stim	s144	False	1
361.44	0.648	362.088	0.6023246736854345	end_round	0.648	columbia_card_task_fmri	16.0	0.8333333333333334	71.0	-80.0	0.1666666666666666	16.0	5.0	2.0	3.1326726555654645	0.648	4.0	stim	poldrack-single-stim	s144	False	1
362.847	1.5	362.096	n/a	-1.0	2.25	columbia_card_task_fmri	n/a	n/a	-1.0	n/a	n/a	n/a	n/a	n/a	n/a	n/a	n/a	ITI	poldrack-single-stim	s144	False	0
364.35	2.07	366.42	1.7898246736854326	draw_card	2.07	columbia_card_task_fmri	4.0	0.6875	89.0	-5.0	0.3125	16.0	1.0	5.0	-28.43461369541374	2.07	1.0	stim	poldrack-single-stim	s144	False	0
367.177	1.5	366.426	n/a	-1.0	2.25	columbia_card_task_fmri	n/a	n/a	-1.0	n/a	n/a	n/a	n/a	n/a	n/a	n/a	n/a	ITI	poldrack-single-stim	s144	False	0
368.68	1.211	369.891	-1.0643419929812317	draw_card	1.211	columbia_card_task_fmri	14.0	0.8333333333333334	89.0	-80.0	0.1666666666666666	6.0	1.0	1.0	2.387424516550773	1.211	n/a	stim	poldrack-single-stim	s144	False	1
369.895	1.393	371.288	-4.197675326314566	end_round	1.393	columbia_card_task_fmri	14.0	0.8	71.0	-80.0	0.2	6.0	2.0	1.0	4.955339252644308	1.393	1.0	stim	poldrack-single-stim	s144	False	1
372.044	1.5	371.293	n/a	-1.0	2.454	columbia_card_task_fmri	n/a	n/a	-1.0	n/a	n/a	n/a	n/a	n/a	n/a	n/a	n/a	ITI	poldrack-single-stim	s144	False	0
373.751	1.069	374.82	0.6023246736854327	draw_card	1.069	columbia_card_task_fmri	15.0	0.8333333333333334	89.0	-75.0	0.1666666666666666	6.0	1.0	1.0	0.8969426156307208	1.069	n/a	stim	poldrack-single-stim	s144	False	1
374.823	1.47	376.293	-2.397675326314568	end_round	1.47	columbia_card_task_fmri	15.0	0.8	71.0	-75.0	0.2	6.0	2.0	1.0	3.3555536273812976	1.47	1.0	stim	poldrack-single-stim	s144	False	1
377.048	1.5	376.297	n/a	-1.0	2.454	columbia_card_task_fmri	n/a	n/a	-1.0	n/a	n/a	n/a	n/a	n/a	n/a	n/a	n/a	ITI	poldrack-single-stim	s144	False	0
378.754	1.234	379.988	2.2689913403521005	draw_card	1.234	columbia_card_task_fmri	16.0	0.8333333333333334	89.0	-70.0	0.1666666666666666	6.0	1.0	1.0	-0.5935178875420064	1.234	n/a	stim	poldrack-single-stim	s144	False	1
379.991	0.86	380.851	-0.5976753263145665	end_round	0.86	columbia_card_task_fmri	16.0	0.8	71.0	-70.0	0.2	6.0	2.0	1.0	1.755787939568151	0.86	1.0	stim	poldrack-single-stim	s144	False	1
381.606	1.5	380.855	n/a	-1.0	2.522	columbia_card_task_fmri	n/a	n/a	-1.0	n/a	n/a	n/a	n/a	n/a	n/a	n/a	n/a	ITI	poldrack-single-stim	s144	False	0
383.382	1.443	384.825	2.8523246736854326	draw_card	1.443	columbia_card_task_fmri	23.0	0.75	89.0	-60.0	0.25	8.0	1.0	2.0	3.295616287101666	1.443	1.0	stim	poldrack-single-stim	s144	False	0
385.58	1.5	384.829	n/a	-1.0	2.386	columbia_card_task_fmri	n/a	n/a	-1.0	n/a	n/a	n/a	n/a	n/a	n/a	n/a	n/a	ITI	poldrack-single-stim	s144	False	0
387.219	1.401	388.62	3.3523246736854326	draw_card	1.401	columbia_card_task_fmri	27.0	0.75	89.0	-70.0	0.25	8.0	1.0	2.0	9.357065780609013	1.401	n/a	stim	poldrack-single-stim	s144	False	1
388.623	1.115	389.738	-0.1119610406002825	end_round	1.115	columbia_card_task_fmri	27.0	0.7142857142857143	71.0	-70.0	0.2857142857142857	8.0	2.0	2.0	11.174787848496573	1.115	1.0	stim	poldrack-single-stim	s144	False	1
390.493	1.5	389.742	n/a	-1.0	2.454	columbia_card_task_fmri	n/a	n/a	-1.0	n/a	n/a	n/a	n/a	n/a	n/a	n/a	n/a	ITI	poldrack-single-stim	s144	False	0
392.2	1.925	394.125	-1.3976753263145656	draw_card	1.925	columbia_card_task_fmri	16.0	0.7777777777777778	89.0	-65.0	0.2222222222222222	9.0	1.0	2.0	1.0308179353015916	1.925	n/a	stim	poldrack-single-stim	s144	False	1
394.128	0.734	394.862	-3.647675326314568	end_round	0.734	columbia_card_task_fmri	16.0	0.75	71.0	-65.0	0.25	9.0	2.0	2.0	2.429715479234225	0.734	1.0	stim	poldrack-single-stim	s144	False	1
395.62	1.5	394.869	n/a	-1.0	2.522	columbia_card_task_fmri	n/a	n/a	-1.0	n/a	n/a	n/a	n/a	n/a	n/a	n/a	n/a	ITI	poldrack-single-stim	s144	False	0
397.395	1.099	398.494	3.8023246736854337	draw_card	1.099	columbia_card_task_fmri	13.0	0.9	89.0	-85.0	0.1	10.0	1.0	1.0	-3.243315503736373	1.099	n/a	stim	poldrack-single-stim	s144	False	1
398.497	0.482	398.979	2.713435784796544	draw_card	0.482	columbia_card_task_fmri	13.0	0.8888888888888888	89.0	-85.0	0.1111111111111111	10.0	2.0	1.0	-1.8451668811402653	0.482	n/a	stim	poldrack-single-stim	s144	False	1
398.982	0.819	399.801	1.3523246736854326	draw_card	0.819	columbia_card_task_fmri	13.0	0.875	89.0	-85.0	0.125	10.0	3.0	1.0	-0.2334348796006367	0.819	n/a	stim	poldrack-single-stim	s144	False	1
399.804	0.512	400.316	-0.3976753263145655	end_round	0.512	columbia_card_task_fmri	13.0	0.8571428571428572	71.0	-85.0	0.1428571428571428	10.0	4.0	1.0	1.6486608101137747	0.512	3.0	stim	poldrack-single-stim	s144	False	1
401.071	1.5	400.32	n/a	-1.0	2.522	columbia_card_task_fmri	n/a	n/a	-1.0	n/a	n/a	n/a	n/a	n/a	n/a	n/a	n/a	ITI	poldrack-single-stim	s144	False	0
402.845	1.176	404.021	-1.1976753263145663	draw_card	1.176	columbia_card_task_fmri	14.0	0.8	89.0	-65.0	0.2	10.0	1.0	2.0	-1.04374493354403	1.176	1.0	stim	poldrack-single-stim	s144	False	0
404.779	1.5	404.028	n/a	-1.0	2.59	columbia_card_task_fmri	n/a	n/a	-1.0	n/a	n/a	n/a	n/a	n/a	n/a	n/a	n/a	ITI	poldrack-single-stim	s144	False	0
406.621	1.311	407.932	0.2023246736854341	draw_card	1.311	columbia_card_task_fmri	17.0	0.8	89.0	-70.0	0.2	10.0	1.0	2.0	2.155727342039228	1.311	n/a	stim	poldrack-single-stim	s144	False	1
407.935	0.789	408.724	-1.7310086596478995	draw_card	0.789	columbia_card_task_fmri	17.0	0.7777777777777778	89.0	-70.0	0.2222222222222222	10.0	2.0	2.0	3.524884778003674	0.789	n/a	stim	poldrack-single-stim	s144	False	1
408.728	0.537	409.265	-4.147675326314567	end_round	0.537	columbia_card_task_fmri	17.0	0.75	71.0	-70.0	0.25	10.0	3.0	2.0	5.027435085051884	0.537	2.0	stim	poldrack-single-stim	s144	False	1
410.023	1.5	409.272	n/a	-1.0	2.454	columbia_card_task_fmri	n/a	n/a	-1.0	n/a	n/a	n/a	n/a	n/a	n/a	n/a	n/a	ITI	poldrack-single-stim	s144	False	0
411.73	2.323	414.053	-1.0643419929812334	draw_card	2.323	columbia_card_task_fmri	13.0	0.8333333333333334	89.0	-75.0	0.1666666666666666	12.0	1.0	2.0	0.1517095070193121	2.323	n/a	stim	poldrack-single-stim	s144	False	1
414.057	0.915	414.972	-2.397675326314569	draw_card	0.915	columbia_card_task_fmri	13.0	0.8181818181818181	89.0	-75.0	0.1818181818181818	12.0	2.0	2.0	1.296984711872014	0.915	n/a	stim	poldrack-single-stim	s144	False	1
414.975	0.736	415.711	-3.997675326314567	draw_card	0.736	columbia_card_task_fmri	13.0	0.8	89.0	-75.0	0.2	12.0	3.0	2.0	2.5556681214210077	0.736	n/a	stim	poldrack-single-stim	s144	False	1
415.714	0.469	416.183	-5.9532308818701205	end_round	0.469	columbia_card_task_fmri	13.0	0.7777777777777778	71.0	-75.0	0.2222222222222222	12.0	4.0	2.0	3.94056750815173	0.469	3.0	stim	poldrack-single-stim	s144	False	1
416.941	1.5	416.19	n/a	-1.0	2.318	columbia_card_task_fmri	n/a	n/a	-1.0	n/a	n/a	n/a	n/a	n/a	n/a	n/a	n/a	ITI	poldrack-single-stim	s144	False	0
418.512	1.818	420.33	0.6023246736854345	draw_card	1.818	columbia_card_task_fmri	14.0	0.8333333333333334	89.0	-70.0	0.1666666666666666	12.0	1.0	2.0	-1.3387391600527143	1.818	n/a	stim	poldrack-single-stim	s144	False	1
420.333	0.522	420.855	-0.6704025990418424	draw_card	0.522	columbia_card_task_fmri	14.0	0.8181818181818181	89.0	-70.0	0.1818181818181818	12.0	2.0	2.0	-0.2455392839865666	0.522	2.0	stim	poldrack-single-stim	s144	False	0
421.615	1.5	420.864	n/a	-1.0	2.25	columbia_card_task_fmri	n/a	n/a	-1.0	n/a	n/a	n/a	n/a	n/a	n/a	n/a	n/a	ITI	poldrack-single-stim	s144	False	0
423.118	1.497	424.615	0.6023246736854345	draw_card	1.497	columbia_card_task_fmri	16.0	0.8333333333333334	89.0	-80.0	0.1666666666666666	12.0	1.0	2.0	3.1326726555654645	1.497	n/a	stim	poldrack-single-stim	s144	False	1
424.62	0.506	425.126	-0.8522207808600241	draw_card	0.506	columbia_card_task_fmri	16.0	0.8181818181818181	89.0	-80.0	0.1818181818181818	12.0	2.0	2.0	4.382096298939942	0.506	n/a	stim	poldrack-single-stim	s144	False	1
425.131	1.545	426.676	-2.5976753263145667	draw_card	1.545	columbia_card_task_fmri	16.0	0.8	89.0	-80.0	0.2	12.0	3.0	2.0	5.755238763214209	1.545	n/a	stim	poldrack-single-stim	s144	False	1
426.68	0.584	427.264	-4.731008659647901	end_round	0.584	columbia_card_task_fmri	16.0	0.7777777777777778	71.0	-80.0	0.2222222222222222	12.0	4.0	2.0	7.266072076185196	0.584	3.0	stim	poldrack-single-stim	s144	False	1
428.021	1.5	427.27	n/a	-1.0	2.658	columbia_card_task_fmri	n/a	n/a	-1.0	n/a	n/a	n/a	n/a	n/a	n/a	n/a	n/a	ITI	poldrack-single-stim	s144	False	0
429.932	1.222	431.154	0.4023246736854334	draw_card	1.222	columbia_card_task_fmri	16.0	0.8	89.0	-65.0	0.2	15.0	1.0	3.0	-0.2438866348271773	1.222	n/a	stim	poldrack-single-stim	s144	False	1
431.158	0.496	431.654	-0.7548181834574231	draw_card	0.496	columbia_card_task_fmri	16.0	0.7857142857142857	89.0	-65.0	0.2142857142857142	15.0	2.0	3.0	0.5923706783219131	0.496	2.0	stim	poldrack-single-stim	s144	False	0
432.41	1.5	431.659	n/a	-1.0	2.454	columbia_card_task_fmri	n/a	n/a	-1.0	n/a	n/a	n/a	n/a	n/a	n/a	n/a	n/a	ITI	poldrack-single-stim	s144	False	0
434.118	1.166	435.284	-1.2726753263145674	draw_card	1.166	columbia_card_task_fmri	15.0	0.8125	89.0	-75.0	0.1875	16.0	1.0	3.0	2.4837924058960965	1.166	n/a	stim	poldrack-single-stim	s144	False	1
435.287	0.513	435.8	-2.397675326314568	draw_card	0.513	columbia_card_task_fmri	15.0	0.8	89.0	-75.0	0.2	16.0	2.0	3.0	3.3555536273812976	0.513	n/a	stim	poldrack-single-stim	s144	False	1
435.805	0.804	436.609	-3.683389612028852	draw_card	0.804	columbia_card_task_fmri	15.0	0.7857142857142857	89.0	-75.0	0.2142857142857142	16.0	3.0	3.0	4.284758149972546	0.804	n/a	stim	poldrack-single-stim	s144	False	1
436.613	0.602	437.215	-5.1669060955453405	end_round	0.602	columbia_card_task_fmri	15.0	0.7692307692307692	71.0	-75.0	0.2307692307692307	16.0	4.0	3.0	5.274552623383968	0.602	3.0	stim	poldrack-single-stim	s144	False	1
437.975	1.5	437.224	n/a	-1.0	2.386	columbia_card_task_fmri	n/a	n/a	-1.0	n/a	n/a	n/a	n/a	n/a	n/a	n/a	n/a	ITI	poldrack-single-stim	s144	False	0
439.614	1.535	441.149	-0.7101753263145673	draw_card	1.535	columbia_card_task_fmri	14.0	0.6875	89.0	-35.0	0.3125	16.0	1.0	5.0	-9.929391557217148	1.535	1.0	stim	poldrack-single-stim	s144	False	0
441.904	1.5	441.153	n/a	-1.0	2.59	columbia_card_task_fmri	n/a	n/a	-1.0	n/a	n/a	n/a	n/a	n/a	n/a	n/a	n/a	ITI	poldrack-single-stim	s144	False	0
443.747	1.33	445.077	4.4689913403521	draw_card	1.33	columbia_card_task_fmri	16.0	0.8666666666666667	89.0	-75.0	0.1333333333333333	15.0	1.0	2.0	-1.7095696722165703	1.33	n/a	stim	poldrack-single-stim	s144	False	1
445.082	0.598	445.68	3.6023246736854344	draw_card	0.598	columbia_card_task_fmri	16.0	0.8571428571428572	89.0	-75.0	0.1428571428571428	15.0	2.0	2.0	-0.8004221373911093	0.598	n/a	stim	poldrack-single-stim	s144	False	1
445.683	0.78	446.463	2.6023246736854326	draw_card	0.78	columbia_card_task_fmri	16.0	0.8461538461538461	89.0	-75.0	0.1538461538461538	15.0	3.0	2.0	0.1889498826752245	0.78	n/a	stim	poldrack-single-stim	s144	False	1
446.467	0.552	447.019	1.4356580070187666	end_round	0.552	columbia_card_task_fmri	16.0	0.8333333333333334	71.0	-75.0	0.1666666666666666	15.0	4.0	2.0	1.2695611950087624	0.552	3.0	stim	poldrack-single-stim	s144	False	1
447.776	1.5	447.025	n/a	-1.0	2.318	columbia_card_task_fmri	n/a	n/a	-1.0	n/a	n/a	n/a	n/a	n/a	n/a	n/a	n/a	ITI	poldrack-single-stim	s144	False	0
449.348	1.203	450.551	5.135658007018766	draw_card	1.203	columbia_card_task_fmri	16.0	0.8666666666666667	89.0	-70.0	0.1333333333333333	15.0	1.0	2.0	-3.4089020154086818	1.203	1.0	stim	poldrack-single-stim	s144	False	0
451.307	1.5	450.556	n/a	-1.0	2.59	columbia_card_task_fmri	n/a	n/a	-1.0	n/a	n/a	n/a	n/a	n/a	n/a	n/a	n/a	ITI	poldrack-single-stim	s144	False	0
453.151	2.008	455.159	2.4773246736854326	draw_card	2.008	columbia_card_task_fmri	8.0	0.9375	89.0	-90.0	0.0625	16.0	1.0	1.0	-8.919816278701937	2.008	n/a	stim	poldrack-single-stim	s144	False	1
455.162	0.987	456.149	2.0689913403520994	draw_card	0.987	columbia_card_task_fmri	8.0	0.9333333333333332	89.0	-90.0	0.0666666666666666	16.0	2.0	1.0	-8.19657055045603	0.987	n/a	stim	poldrack-single-stim	s144	False	1
456.153	0.667	456.82	1.6023246736854335	end_round	0.667	columbia_card_task_fmri	8.0	0.9285714285714286	71.0	-90.0	0.0714285714285714	16.0	3.0	1.0	-7.403439703580837	0.667	2.0	stim	poldrack-single-stim	s144	False	1
457.575	1.5	456.824	n/a	-1.0	2.386	columbia_card_task_fmri	n/a	n/a	-1.0	n/a	n/a	n/a	n/a	n/a	n/a	n/a	n/a	ITI	poldrack-single-stim	s144	False	0
459.214	2.122	461.336	4.039824673685433	draw_card	2.122	columbia_card_task_fmri	10.0	0.9375	89.0	-95.0	0.0625	16.0	1.0	1.0	-7.22589562092557	2.122	1.0	stim	poldrack-single-stim	s144	False	0
462.091	1.5	461.34	n/a	-1.0	2.318	columbia_card_task_fmri	n/a	n/a	-1.0	n/a	n/a	n/a	n/a	n/a	n/a	n/a	n/a	ITI	poldrack-single-stim	s144	False	0
463.662	1.116	464.778	4.977324673685433	draw_card	1.116	columbia_card_task_fmri	15.0	0.875	89.0	-70.0	0.125	16.0	1.0	2.0	-4.531925023541643	1.116	n/a	stim	poldrack-single-stim	s144	False	1
464.783	0.865	465.648	4.268991340352099	draw_card	0.865	columbia_card_task_fmri	15.0	0.8666666666666667	89.0	-70.0	0.1333333333333333	16.0	2.0	2.0	-3.7487636738846426	0.865	n/a	stim	poldrack-single-stim	s144	False	1
465.651	0.701	466.352	3.4594675308282903	draw_card	0.701	columbia_card_task_fmri	15.0	0.8571428571428572	89.0	-70.0	0.1428571428571428	16.0	3.0	2.0	-2.899582779921364	0.701	n/a	stim	poldrack-single-stim	s144	False	1
466.356	0.95	467.306	2.525401596762354	draw_card	0.95	columbia_card_task_fmri	15.0	0.8461538461538461	89.0	-70.0	0.1538461538461538	16.0	4.0	2.0	-1.975467505901218	0.95	n/a	stim	poldrack-single-stim	s144	False	1
467.31	0.575	467.885	1.4356580070187666	end_round	0.575	columbia_card_task_fmri	15.0	0.8333333333333334	71.0	-70.0	0.1666666666666666	16.0	5.0	2.0	-0.9661293160530492	0.575	4.0	stim	poldrack-single-stim	s144	False	1
468.64	1.5	467.889	n/a	-1.0	2.318	columbia_card_task_fmri	n/a	n/a	-1.0	n/a	n/a	n/a	n/a	n/a	n/a	n/a	n/a	ITI	poldrack-single-stim	s144	False	0
470.212	1.268	471.48	3.9773246736854326	draw_card	1.268	columbia_card_task_fmri	16.0	0.875	89.0	-85.0	0.125	16.0	1.0	2.0	0.7585556597928402	1.268	n/a	stim	poldrack-single-stim	s144	False	1
471.486	0.501	471.987	3.135658007018766	draw_card	0.501	columbia_card_task_fmri	16.0	0.8666666666666667	89.0	-85.0	0.1333333333333333	16.0	2.0	2.0	1.6891962246342231	0.501	n/a	stim	poldrack-single-stim	s144	False	1
471.991	0.613	472.604	2.1737532451140056	draw_card	0.613	columbia_card_task_fmri	16.0	0.8571428571428572	89.0	-85.0	0.1428571428571428	16.0	3.0	2.0	2.698285045149412	0.613	3.0	stim	poldrack-single-stim	s144	False	0
473.36	1.5	472.609	n/a	-1.0	2.318	columbia_card_task_fmri	n/a	n/a	-1.0	n/a	n/a	n/a	n/a	n/a	n/a	n/a	n/a	ITI	poldrack-single-stim	s144	False	0
