duration	onset	block_duration	movement_onset	planning	condition	exp_stage	experiment_exp_id	key_press	problem_id	response_time	trial_id	trial_type	worker_id	junk
2.048	3.012	2.048	5.06	1	UA_with_intermediate	practice	ward_and_allport	71	0.0	2.048	to_hand	poldrack-single-stim	s144	False
0.1	5.061	0.283	5.344	0	UA_with_intermediate	practice	ward_and_allport	82	0.0	0.283	to_board	poldrack-single-stim	s144	False
0.1	5.346	0.283	5.629	0	UA_with_intermediate	practice	ward_and_allport	71	0.0	0.283	to_hand	poldrack-single-stim	s144	False
0.1	5.63	0.227	5.857	0	UA_with_intermediate	practice	ward_and_allport	89	0.0	0.227	to_board	poldrack-single-stim	s144	False
0.1	5.858	0.305	6.163	0	UA_with_intermediate	practice	ward_and_allport	82	0.0	0.305	to_hand	poldrack-single-stim	s144	False
0.1	6.164	0.171	6.335	0	UA_with_intermediate	practice	ward_and_allport	89	0.0	0.171	to_board	poldrack-single-stim	s144	False
1.0	6.339	2.5	6.338	0	UA_with_intermediate	practice	ward_and_allport	-1	0.0	n/a	feedback	poldrack-single-stim	s144	False
2.182	8.842	2.182	11.024	1	UA_with_intermediate	practice	ward_and_allport	89	1.0	2.182	to_hand	poldrack-single-stim	s144	False
0.1	11.024	0.183	11.207	0	UA_with_intermediate	practice	ward_and_allport	82	1.0	0.183	to_board	poldrack-single-stim	s144	False
0.1	11.209	0.266	11.475	0	UA_with_intermediate	practice	ward_and_allport	71	1.0	0.266	to_hand	poldrack-single-stim	s144	False
0.1	11.476	0.173	11.649	0	UA_with_intermediate	practice	ward_and_allport	89	1.0	0.173	to_board	poldrack-single-stim	s144	False
0.1	11.65	0.503	12.153	0	UA_with_intermediate	practice	ward_and_allport	82	1.0	0.503	to_hand	poldrack-single-stim	s144	False
0.1	12.154	0.116	12.27	0	UA_with_intermediate	practice	ward_and_allport	89	1.0	0.116	to_board	poldrack-single-stim	s144	False
1.0	12.273	2.1	12.272	0	UA_with_intermediate	practice	ward_and_allport	-1	1.0	n/a	feedback	poldrack-single-stim	s144	False
1.543	14.375	1.543	15.918	1	UA_without_intermediate	practice	ward_and_allport	82	2.0	1.543	to_hand	poldrack-single-stim	s144	False
0.1	15.918	0.189	16.107	0	UA_without_intermediate	practice	ward_and_allport	89	2.0	0.189	to_board	poldrack-single-stim	s144	False
0.1	16.108	0.378	16.486	0	UA_without_intermediate	practice	ward_and_allport	71	2.0	0.378	to_hand	poldrack-single-stim	s144	False
0.1	16.487	0.138	16.625	0	UA_without_intermediate	practice	ward_and_allport	89	2.0	0.138	to_board	poldrack-single-stim	s144	False
0.1	16.627	0.52	17.147	0	UA_without_intermediate	practice	ward_and_allport	71	2.0	0.52	to_hand	poldrack-single-stim	s144	False
0.1	17.148	0.108	17.256	0	UA_without_intermediate	practice	ward_and_allport	89	2.0	0.108	to_board	poldrack-single-stim	s144	False
1.0	17.259	2.2	17.258	0	UA_without_intermediate	practice	ward_and_allport	-1	2.0	n/a	feedback	poldrack-single-stim	s144	False
1.826	19.461	1.826	21.287	1	UA_without_intermediate	practice	ward_and_allport	71	3.0	1.826	to_hand	poldrack-single-stim	s144	False
0.1	21.288	0.164	21.452	0	UA_without_intermediate	practice	ward_and_allport	89	3.0	0.164	to_board	poldrack-single-stim	s144	False
0.1	21.454	0.175	21.629	0	UA_without_intermediate	practice	ward_and_allport	82	3.0	0.175	to_hand	poldrack-single-stim	s144	False
0.1	21.63	0.101	21.731	0	UA_without_intermediate	practice	ward_and_allport	89	3.0	0.101	to_board	poldrack-single-stim	s144	False
0.1	21.732	0.171	21.903	0	UA_without_intermediate	practice	ward_and_allport	71	3.0	0.171	to_hand	poldrack-single-stim	s144	False
0.1	21.905	0.608	22.513	0	UA_without_intermediate	practice	ward_and_allport	89	3.0	0.608	to_board	poldrack-single-stim	s144	False
1.0	22.52	2.0	22.519	0	UA_without_intermediate	practice	ward_and_allport	-1	3.0	n/a	feedback	poldrack-single-stim	s144	False
1.799	26.525	1.799	28.324	1	PA_with_intermediate	test	ward_and_allport	71	0.0	1.799	to_hand	poldrack-single-stim	s144	False
0.1	28.325	0.176	28.501	0	PA_with_intermediate	test	ward_and_allport	82	0.0	0.176	to_board	poldrack-single-stim	s144	False
0.1	28.502	0.357	28.859	0	PA_with_intermediate	test	ward_and_allport	71	0.0	0.357	to_hand	poldrack-single-stim	s144	False
0.1	28.86	0.151	29.011	0	PA_with_intermediate	test	ward_and_allport	89	0.0	0.151	to_board	poldrack-single-stim	s144	False
0.1	29.012	0.266	29.278	0	PA_with_intermediate	test	ward_and_allport	71	0.0	0.266	to_hand	poldrack-single-stim	s144	False
0.1	29.279	0.653	29.932	0	PA_with_intermediate	test	ward_and_allport	71	0.0	0.653	to_board	poldrack-single-stim	s144	False
0.1	29.934	0.281	30.215	0	PA_with_intermediate	test	ward_and_allport	82	0.0	0.281	to_hand	poldrack-single-stim	s144	False
0.1	30.216	0.179	30.395	0	PA_with_intermediate	test	ward_and_allport	71	0.0	0.179	to_board	poldrack-single-stim	s144	False
1.0	30.4	2.408	30.399	0	PA_with_intermediate	test	ward_and_allport	-1	0.0	n/a	feedback	poldrack-single-stim	s144	False
2.04	32.81	2.04	34.85	1	PA_without_intermediate	test	ward_and_allport	89	1.0	2.04	to_hand	poldrack-single-stim	s144	False
0.1	34.852	0.222	35.074	0	PA_without_intermediate	test	ward_and_allport	82	1.0	0.222	to_board	poldrack-single-stim	s144	False
0.1	35.076	0.42	35.496	0	PA_without_intermediate	test	ward_and_allport	89	1.0	0.42	to_hand	poldrack-single-stim	s144	False
0.1	35.498	0.249	35.747	0	PA_without_intermediate	test	ward_and_allport	82	1.0	0.249	to_board	poldrack-single-stim	s144	False
0.1	35.749	0.882	36.631	0	PA_without_intermediate	test	ward_and_allport	89	1.0	0.882	to_hand	poldrack-single-stim	s144	False
0.1	36.633	0.245	36.878	0	PA_without_intermediate	test	ward_and_allport	71	1.0	0.245	to_board	poldrack-single-stim	s144	False
1.0	36.88	2.68	36.879	0	PA_without_intermediate	test	ward_and_allport	-1	1.0	n/a	feedback	poldrack-single-stim	s144	False
1.709	39.564	1.709	41.273	1	PA_with_intermediate	test	ward_and_allport	82	2.0	1.709	to_hand	poldrack-single-stim	s144	False
0.1	41.273	0.227	41.5	0	PA_with_intermediate	test	ward_and_allport	71	2.0	0.227	to_board	poldrack-single-stim	s144	False
0.1	41.502	0.333	41.835	0	PA_with_intermediate	test	ward_and_allport	82	2.0	0.333	to_hand	poldrack-single-stim	s144	False
0.1	41.836	0.201	42.037	0	PA_with_intermediate	test	ward_and_allport	89	2.0	0.201	to_board	poldrack-single-stim	s144	False
0.1	42.04	0.492	42.532	0	PA_with_intermediate	test	ward_and_allport	71	2.0	0.492	to_hand	poldrack-single-stim	s144	False
0.1	42.533	0.326	42.859	0	PA_with_intermediate	test	ward_and_allport	82	2.0	0.326	to_board	poldrack-single-stim	s144	False
1.0	42.862	4.72	42.861	0	PA_with_intermediate	test	ward_and_allport	-1	2.0	n/a	feedback	poldrack-single-stim	s144	False
3.091	47.585	3.091	50.676	1	PA_without_intermediate	test	ward_and_allport	89	3.0	3.091	to_hand	poldrack-single-stim	s144	False
0.1	50.676	0.231	50.907	0	PA_without_intermediate	test	ward_and_allport	71	3.0	0.231	to_board	poldrack-single-stim	s144	False
0.1	50.909	0.56	51.469	0	PA_without_intermediate	test	ward_and_allport	89	3.0	0.56	to_hand	poldrack-single-stim	s144	False
0.1	51.471	0.273	51.744	0	PA_without_intermediate	test	ward_and_allport	71	3.0	0.273	to_board	poldrack-single-stim	s144	False
0.1	51.748	0.279	52.027	0	PA_without_intermediate	test	ward_and_allport	89	3.0	0.279	to_hand	poldrack-single-stim	s144	False
0.1	52.027	0.15	52.177	0	PA_without_intermediate	test	ward_and_allport	82	3.0	0.15	to_board	poldrack-single-stim	s144	False
1.0	52.182	3.224	52.181	0	PA_without_intermediate	test	ward_and_allport	-1	3.0	n/a	feedback	poldrack-single-stim	s144	False
1.355	55.407	1.355	56.762	1	PA_without_intermediate	test	ward_and_allport	82	4.0	1.355	to_hand	poldrack-single-stim	s144	False
0.1	56.763	0.191	56.954	0	PA_without_intermediate	test	ward_and_allport	89	4.0	0.191	to_board	poldrack-single-stim	s144	False
0.1	56.956	0.357	57.313	0	PA_without_intermediate	test	ward_and_allport	82	4.0	0.357	to_hand	poldrack-single-stim	s144	False
0.1	57.314	0.595	57.909	0	PA_without_intermediate	test	ward_and_allport	71	4.0	0.595	to_board	poldrack-single-stim	s144	False
0.1	57.911	0.229	58.14	0	PA_without_intermediate	test	ward_and_allport	82	4.0	0.229	to_hand	poldrack-single-stim	s144	False
0.1	58.141	0.132	58.273	0	PA_without_intermediate	test	ward_and_allport	89	4.0	0.132	to_board	poldrack-single-stim	s144	False
1.0	58.279	2.272	58.278	0	PA_without_intermediate	test	ward_and_allport	-1	4.0	n/a	feedback	poldrack-single-stim	s144	False
1.799	60.553	1.799	62.352	1	PA_with_intermediate	test	ward_and_allport	82	5.0	1.799	to_hand	poldrack-single-stim	s144	False
0.1	62.354	0.157	62.511	0	PA_with_intermediate	test	ward_and_allport	71	5.0	0.157	to_board	poldrack-single-stim	s144	False
0.1	62.513	0.217	62.73	0	PA_with_intermediate	test	ward_and_allport	82	5.0	0.217	to_hand	poldrack-single-stim	s144	False
0.1	62.731	0.165	62.896	0	PA_with_intermediate	test	ward_and_allport	89	5.0	0.165	to_board	poldrack-single-stim	s144	False
0.1	62.9	0.757	63.657	0	PA_with_intermediate	test	ward_and_allport	82	5.0	0.757	to_hand	poldrack-single-stim	s144	False
0.1	63.658	0.569	64.227	0	PA_with_intermediate	test	ward_and_allport	82	5.0	0.569	to_board	poldrack-single-stim	s144	False
0.1	64.228	0.225	64.453	0	PA_with_intermediate	test	ward_and_allport	71	5.0	0.225	to_hand	poldrack-single-stim	s144	False
0.1	64.455	0.136	64.591	0	PA_with_intermediate	test	ward_and_allport	89	5.0	0.136	to_board	poldrack-single-stim	s144	False
1.0	64.595	3.632	64.594	0	PA_with_intermediate	test	ward_and_allport	-1	5.0	n/a	feedback	poldrack-single-stim	s144	False
1.765	68.229	1.765	69.994	1	PA_without_intermediate	test	ward_and_allport	82	6.0	1.765	to_hand	poldrack-single-stim	s144	False
0.1	69.995	0.183	70.178	0	PA_without_intermediate	test	ward_and_allport	89	6.0	0.183	to_board	poldrack-single-stim	s144	False
0.1	70.181	0.512	70.693	0	PA_without_intermediate	test	ward_and_allport	82	6.0	0.512	to_hand	poldrack-single-stim	s144	False
0.1	70.694	0.174	70.868	0	PA_without_intermediate	test	ward_and_allport	89	6.0	0.174	to_board	poldrack-single-stim	s144	False
0.1	70.87	0.58	71.45	0	PA_without_intermediate	test	ward_and_allport	82	6.0	0.58	to_hand	poldrack-single-stim	s144	False
0.1	71.451	0.135	71.586	0	PA_without_intermediate	test	ward_and_allport	71	6.0	0.135	to_board	poldrack-single-stim	s144	False
1.0	71.594	2.408	71.593	0	PA_without_intermediate	test	ward_and_allport	-1	6.0	n/a	feedback	poldrack-single-stim	s144	False
1.252	74.005	1.252	75.257	1	PA_without_intermediate	test	ward_and_allport	71	7.0	1.252	to_hand	poldrack-single-stim	s144	False
0.1	75.258	0.21	75.468	0	PA_without_intermediate	test	ward_and_allport	89	7.0	0.21	to_board	poldrack-single-stim	s144	False
0.1	75.471	0.436	75.907	0	PA_without_intermediate	test	ward_and_allport	71	7.0	0.436	to_hand	poldrack-single-stim	s144	False
0.1	75.909	0.223	76.132	0	PA_without_intermediate	test	ward_and_allport	89	7.0	0.223	to_board	poldrack-single-stim	s144	False
0.1	76.134	0.451	76.585	0	PA_without_intermediate	test	ward_and_allport	71	7.0	0.451	to_hand	poldrack-single-stim	s144	False
0.1	76.586	0.197	76.783	0	PA_without_intermediate	test	ward_and_allport	82	7.0	0.197	to_board	poldrack-single-stim	s144	False
1.0	76.787	2.0	76.786	0	PA_without_intermediate	test	ward_and_allport	-1	7.0	n/a	feedback	poldrack-single-stim	s144	False
2.856	78.79	2.856	81.646	1	PA_with_intermediate	test	ward_and_allport	89	8.0	2.856	to_hand	poldrack-single-stim	s144	False
0.1	81.646	0.163	81.809	0	PA_with_intermediate	test	ward_and_allport	82	8.0	0.163	to_board	poldrack-single-stim	s144	False
0.1	81.812	0.365	82.177	0	PA_with_intermediate	test	ward_and_allport	89	8.0	0.365	to_hand	poldrack-single-stim	s144	False
0.1	82.178	0.178	82.356	0	PA_with_intermediate	test	ward_and_allport	71	8.0	0.178	to_board	poldrack-single-stim	s144	False
0.1	82.359	0.412	82.771	0	PA_with_intermediate	test	ward_and_allport	82	8.0	0.412	to_hand	poldrack-single-stim	s144	False
0.1	82.772	0.073	82.845	0	PA_with_intermediate	test	ward_and_allport	89	8.0	0.073	to_board	poldrack-single-stim	s144	False
1.0	82.851	2.0	82.85	0	PA_with_intermediate	test	ward_and_allport	-1	8.0	n/a	feedback	poldrack-single-stim	s144	False
2.954	84.855	2.954	87.809	1	PA_with_intermediate	test	ward_and_allport	71	9.0	2.954	to_hand	poldrack-single-stim	s144	False
0.1	87.81	0.15	87.96	0	PA_with_intermediate	test	ward_and_allport	89	9.0	0.15	to_board	poldrack-single-stim	s144	False
0.1	87.964	0.222	88.186	0	PA_with_intermediate	test	ward_and_allport	71	9.0	0.222	to_hand	poldrack-single-stim	s144	False
0.1	88.186	0.17	88.356	0	PA_with_intermediate	test	ward_and_allport	82	9.0	0.17	to_board	poldrack-single-stim	s144	False
0.1	88.359	0.185	88.544	0	PA_with_intermediate	test	ward_and_allport	89	9.0	0.185	to_hand	poldrack-single-stim	s144	False
0.1	88.545	0.148	88.693	0	PA_with_intermediate	test	ward_and_allport	71	9.0	0.148	to_board	poldrack-single-stim	s144	False
1.0	88.699	2.0	88.698	0	PA_with_intermediate	test	ward_and_allport	-1	9.0	n/a	feedback	poldrack-single-stim	s144	False
1.574	90.705	1.574	92.279	1	PA_with_intermediate	test	ward_and_allport	89	10.0	1.574	to_hand	poldrack-single-stim	s144	False
0.1	92.281	0.208	92.489	0	PA_with_intermediate	test	ward_and_allport	82	10.0	0.208	to_board	poldrack-single-stim	s144	False
0.1	92.494	0.144	92.638	0	PA_with_intermediate	test	ward_and_allport	89	10.0	0.144	to_hand	poldrack-single-stim	s144	False
0.1	92.638	0.152	92.79	0	PA_with_intermediate	test	ward_and_allport	82	10.0	0.152	to_board	poldrack-single-stim	s144	False
0.1	92.794	1.412	94.206	0	PA_with_intermediate	test	ward_and_allport	82	10.0	1.412	to_hand	poldrack-single-stim	s144	False
0.1	94.207	0.253	94.46	0	PA_with_intermediate	test	ward_and_allport	71	10.0	0.253	to_board	poldrack-single-stim	s144	False
0.1	94.464	0.766	95.23	0	PA_with_intermediate	test	ward_and_allport	82	10.0	0.766	to_hand	poldrack-single-stim	s144	False
0.1	95.23	0.315	95.545	0	PA_with_intermediate	test	ward_and_allport	89	10.0	0.315	to_board	poldrack-single-stim	s144	False
0.1	95.549	0.364	95.913	0	PA_with_intermediate	test	ward_and_allport	71	10.0	0.364	to_hand	poldrack-single-stim	s144	False
0.1	95.913	0.429	96.342	0	PA_with_intermediate	test	ward_and_allport	82	10.0	0.429	to_board	poldrack-single-stim	s144	False
0.1	96.346	0.297	96.643	0	PA_with_intermediate	test	ward_and_allport	89	10.0	0.297	to_hand	poldrack-single-stim	s144	False
0.1	96.643	0.143	96.786	0	PA_with_intermediate	test	ward_and_allport	82	10.0	0.143	to_board	poldrack-single-stim	s144	False
1.0	96.795	2.408	96.794	0	PA_with_intermediate	test	ward_and_allport	-1	10.0	n/a	feedback	poldrack-single-stim	s144	False
1.258	99.205	1.258	100.463	1	PA_without_intermediate	test	ward_and_allport	82	11.0	1.258	to_hand	poldrack-single-stim	s144	False
0.1	100.464	0.257	100.721	0	PA_without_intermediate	test	ward_and_allport	89	11.0	0.257	to_board	poldrack-single-stim	s144	False
0.1	100.725	0.201	100.926	0	PA_without_intermediate	test	ward_and_allport	82	11.0	0.201	to_hand	poldrack-single-stim	s144	False
0.1	100.927	0.193	101.12	0	PA_without_intermediate	test	ward_and_allport	71	11.0	0.193	to_board	poldrack-single-stim	s144	False
0.1	101.123	0.202	101.325	0	PA_without_intermediate	test	ward_and_allport	82	11.0	0.202	to_hand	poldrack-single-stim	s144	False
0.1	101.326	0.168	101.494	0	PA_without_intermediate	test	ward_and_allport	89	11.0	0.168	to_board	poldrack-single-stim	s144	False
1.0	101.502	2.816	101.501	0	PA_without_intermediate	test	ward_and_allport	-1	11.0	n/a	feedback	poldrack-single-stim	s144	False
1.377	104.321	1.377	105.698	1	PA_with_intermediate	test	ward_and_allport	82	12.0	1.377	to_hand	poldrack-single-stim	s144	False
0.1	105.699	0.189	105.888	0	PA_with_intermediate	test	ward_and_allport	89	12.0	0.189	to_board	poldrack-single-stim	s144	False
0.1	105.893	0.162	106.055	0	PA_with_intermediate	test	ward_and_allport	82	12.0	0.162	to_hand	poldrack-single-stim	s144	False
0.1	106.056	0.184	106.24	0	PA_with_intermediate	test	ward_and_allport	71	12.0	0.184	to_board	poldrack-single-stim	s144	False
0.1	106.244	0.413	106.657	0	PA_with_intermediate	test	ward_and_allport	89	12.0	0.413	to_hand	poldrack-single-stim	s144	False
0.1	106.658	0.196	106.854	0	PA_with_intermediate	test	ward_and_allport	71	12.0	0.196	to_board	poldrack-single-stim	s144	False
1.0	106.861	4.176	106.86	0	PA_with_intermediate	test	ward_and_allport	-1	12.0	n/a	feedback	poldrack-single-stim	s144	False
1.906	111.04	1.906	112.946	1	PA_with_intermediate	test	ward_and_allport	89	13.0	1.906	to_hand	poldrack-single-stim	s144	False
0.1	112.947	0.223	113.17	0	PA_with_intermediate	test	ward_and_allport	82	13.0	0.223	to_board	poldrack-single-stim	s144	False
0.1	113.173	0.325	113.498	0	PA_with_intermediate	test	ward_and_allport	89	13.0	0.325	to_hand	poldrack-single-stim	s144	False
0.1	113.499	0.173	113.672	0	PA_with_intermediate	test	ward_and_allport	82	13.0	0.173	to_board	poldrack-single-stim	s144	False
0.1	113.676	1.124	114.8	0	PA_with_intermediate	test	ward_and_allport	82	13.0	1.124	to_hand	poldrack-single-stim	s144	False
0.1	114.801	0.174	114.975	0	PA_with_intermediate	test	ward_and_allport	71	13.0	0.174	to_board	poldrack-single-stim	s144	False
0.1	114.979	0.38	115.359	0	PA_with_intermediate	test	ward_and_allport	82	13.0	0.38	to_hand	poldrack-single-stim	s144	False
0.1	115.359	0.189	115.548	0	PA_with_intermediate	test	ward_and_allport	89	13.0	0.189	to_board	poldrack-single-stim	s144	False
0.1	115.552	0.671	116.223	0	PA_with_intermediate	test	ward_and_allport	71	13.0	0.671	to_hand	poldrack-single-stim	s144	False
0.1	116.224	0.122	116.346	0	PA_with_intermediate	test	ward_and_allport	82	13.0	0.122	to_board	poldrack-single-stim	s144	False
0.1	116.351	0.458	116.809	0	PA_with_intermediate	test	ward_and_allport	89	13.0	0.458	to_hand	poldrack-single-stim	s144	False
0.1	116.81	0.122	116.932	0	PA_with_intermediate	test	ward_and_allport	82	13.0	0.122	to_board	poldrack-single-stim	s144	False
1.0	116.938	3.36	116.937	0	PA_with_intermediate	test	ward_and_allport	-1	13.0	n/a	feedback	poldrack-single-stim	s144	False
1.549	120.301	1.549	121.85	1	PA_with_intermediate	test	ward_and_allport	89	14.0	1.549	to_hand	poldrack-single-stim	s144	False
0.1	121.851	0.15	122.001	0	PA_with_intermediate	test	ward_and_allport	82	14.0	0.15	to_board	poldrack-single-stim	s144	False
0.1	122.005	0.18	122.185	0	PA_with_intermediate	test	ward_and_allport	89	14.0	0.18	to_hand	poldrack-single-stim	s144	False
0.1	122.186	0.138	122.324	0	PA_with_intermediate	test	ward_and_allport	71	14.0	0.138	to_board	poldrack-single-stim	s144	False
0.1	122.329	0.265	122.594	0	PA_with_intermediate	test	ward_and_allport	82	14.0	0.265	to_hand	poldrack-single-stim	s144	False
0.1	122.596	0.123	122.719	0	PA_with_intermediate	test	ward_and_allport	71	14.0	0.123	to_board	poldrack-single-stim	s144	False
1.0	122.723	2.0	122.722	0	PA_with_intermediate	test	ward_and_allport	-1	14.0	n/a	feedback	poldrack-single-stim	s144	False
2.218	129.73	2.218	131.948	1	PA_without_intermediate	test	ward_and_allport	89	15.0	2.218	to_hand	poldrack-single-stim	s144	False
0.1	131.949	0.175	132.124	0	PA_without_intermediate	test	ward_and_allport	71	15.0	0.175	to_board	poldrack-single-stim	s144	False
0.1	132.128	0.246	132.374	0	PA_without_intermediate	test	ward_and_allport	89	15.0	0.246	to_hand	poldrack-single-stim	s144	False
0.1	132.375	0.198	132.573	0	PA_without_intermediate	test	ward_and_allport	71	15.0	0.198	to_board	poldrack-single-stim	s144	False
0.1	132.578	0.232	132.81	0	PA_without_intermediate	test	ward_and_allport	89	15.0	0.232	to_hand	poldrack-single-stim	s144	False
0.1	132.81	0.114	132.924	0	PA_without_intermediate	test	ward_and_allport	82	15.0	0.114	to_board	poldrack-single-stim	s144	False
1.0	132.93	2.408	132.929	0	PA_without_intermediate	test	ward_and_allport	-1	15.0	n/a	feedback	poldrack-single-stim	s144	False
2.571	135.341	2.571	137.912	1	PA_with_intermediate	test	ward_and_allport	89	16.0	2.571	to_hand	poldrack-single-stim	s144	False
0.1	137.913	0.126	138.039	0	PA_with_intermediate	test	ward_and_allport	82	16.0	0.126	to_board	poldrack-single-stim	s144	False
0.1	138.044	0.243	138.287	0	PA_with_intermediate	test	ward_and_allport	89	16.0	0.243	to_hand	poldrack-single-stim	s144	False
0.1	138.288	0.43	138.718	0	PA_with_intermediate	test	ward_and_allport	71	16.0	0.43	to_board	poldrack-single-stim	s144	False
0.1	138.723	0.336	139.059	0	PA_with_intermediate	test	ward_and_allport	82	16.0	0.336	to_hand	poldrack-single-stim	s144	False
0.1	139.059	0.087	139.146	0	PA_with_intermediate	test	ward_and_allport	89	16.0	0.087	to_board	poldrack-single-stim	s144	False
1.0	139.151	2.816	139.15	0	PA_with_intermediate	test	ward_and_allport	-1	16.0	n/a	feedback	poldrack-single-stim	s144	False
1.444	141.971	1.444	143.415	1	PA_without_intermediate	test	ward_and_allport	71	17.0	1.444	to_hand	poldrack-single-stim	s144	False
0.1	143.416	0.138	143.554	0	PA_without_intermediate	test	ward_and_allport	82	17.0	0.138	to_board	poldrack-single-stim	s144	False
0.1	143.559	0.236	143.795	0	PA_without_intermediate	test	ward_and_allport	71	17.0	0.236	to_hand	poldrack-single-stim	s144	False
0.1	143.795	0.117	143.912	0	PA_without_intermediate	test	ward_and_allport	82	17.0	0.117	to_board	poldrack-single-stim	s144	False
0.1	143.917	0.211	144.128	0	PA_without_intermediate	test	ward_and_allport	71	17.0	0.211	to_hand	poldrack-single-stim	s144	False
0.1	144.128	0.114	144.242	0	PA_without_intermediate	test	ward_and_allport	89	17.0	0.114	to_board	poldrack-single-stim	s144	False
1.0	144.252	3.088	144.251	0	PA_without_intermediate	test	ward_and_allport	-1	17.0	n/a	feedback	poldrack-single-stim	s144	False
1.782	147.344	1.782	149.126	1	PA_without_intermediate	test	ward_and_allport	89	18.0	1.782	to_hand	poldrack-single-stim	s144	False
0.1	149.127	0.097	149.224	0	PA_without_intermediate	test	ward_and_allport	71	18.0	0.097	to_board	poldrack-single-stim	s144	False
0.1	149.228	0.248	149.476	0	PA_without_intermediate	test	ward_and_allport	89	18.0	0.248	to_hand	poldrack-single-stim	s144	False
0.1	149.478	0.109	149.587	0	PA_without_intermediate	test	ward_and_allport	82	18.0	0.109	to_board	poldrack-single-stim	s144	False
0.1	149.593	0.557	150.15	0	PA_without_intermediate	test	ward_and_allport	89	18.0	0.557	to_hand	poldrack-single-stim	s144	False
0.1	150.152	0.075	150.227	0	PA_without_intermediate	test	ward_and_allport	71	18.0	0.075	to_board	poldrack-single-stim	s144	False
1.0	150.232	2.136	150.231	0	PA_without_intermediate	test	ward_and_allport	-1	18.0	n/a	feedback	poldrack-single-stim	s144	False
1.259	152.372	1.259	153.631	1	PA_without_intermediate	test	ward_and_allport	82	19.0	1.259	to_hand	poldrack-single-stim	s144	False
0.1	153.633	0.12	153.753	0	PA_without_intermediate	test	ward_and_allport	71	19.0	0.12	to_board	poldrack-single-stim	s144	False
0.1	153.76	0.757	154.517	0	PA_without_intermediate	test	ward_and_allport	82	19.0	0.757	to_hand	poldrack-single-stim	s144	False
0.1	154.518	0.131	154.649	0	PA_without_intermediate	test	ward_and_allport	89	19.0	0.131	to_board	poldrack-single-stim	s144	False
0.1	154.654	0.435	155.089	0	PA_without_intermediate	test	ward_and_allport	71	19.0	0.435	to_hand	poldrack-single-stim	s144	False
0.1	155.089	0.011	155.1	0	PA_without_intermediate	test	ward_and_allport	82	19.0	0.011	to_board	poldrack-single-stim	s144	False
0.1	155.107	0.876	155.983	0	PA_without_intermediate	test	ward_and_allport	82	19.0	0.876	to_hand	poldrack-single-stim	s144	False
0.1	155.984	0.068	156.052	0	PA_without_intermediate	test	ward_and_allport	71	19.0	0.068	to_board	poldrack-single-stim	s144	False
0.1	156.056	0.232	156.288	0	PA_without_intermediate	test	ward_and_allport	71	19.0	0.232	to_hand	poldrack-single-stim	s144	False
0.1	156.289	0.545	156.834	0	PA_without_intermediate	test	ward_and_allport	71	19.0	0.545	to_board	poldrack-single-stim	s144	False
0.1	156.839	0.186	157.025	0	PA_without_intermediate	test	ward_and_allport	82	19.0	0.186	to_hand	poldrack-single-stim	s144	False
0.1	157.026	0.154	157.18	0	PA_without_intermediate	test	ward_and_allport	71	19.0	0.154	to_board	poldrack-single-stim	s144	False
1.0	157.187	7.168	157.186	0	PA_without_intermediate	test	ward_and_allport	-1	19.0	n/a	feedback	poldrack-single-stim	s144	False
1.177	164.362	1.177	165.539	1	PA_without_intermediate	test	ward_and_allport	82	20.0	1.177	to_hand	poldrack-single-stim	s144	False
0.1	165.54	0.169	165.709	0	PA_without_intermediate	test	ward_and_allport	71	20.0	0.169	to_board	poldrack-single-stim	s144	False
0.1	165.716	0.162	165.878	0	PA_without_intermediate	test	ward_and_allport	82	20.0	0.162	to_hand	poldrack-single-stim	s144	False
0.1	165.879	0.131	166.01	0	PA_without_intermediate	test	ward_and_allport	71	20.0	0.131	to_board	poldrack-single-stim	s144	False
0.1	166.016	0.262	166.278	0	PA_without_intermediate	test	ward_and_allport	82	20.0	0.262	to_hand	poldrack-single-stim	s144	False
0.1	166.278	0.101	166.379	0	PA_without_intermediate	test	ward_and_allport	89	20.0	0.101	to_board	poldrack-single-stim	s144	False
1.0	166.386	2.816	166.385	0	PA_without_intermediate	test	ward_and_allport	-1	20.0	n/a	feedback	poldrack-single-stim	s144	False
2.142	169.208	2.142	171.35	1	PA_with_intermediate	test	ward_and_allport	82	21.0	2.142	to_hand	poldrack-single-stim	s144	False
0.1	171.352	0.149	171.501	0	PA_with_intermediate	test	ward_and_allport	89	21.0	0.149	to_board	poldrack-single-stim	s144	False
0.1	171.507	0.174	171.681	0	PA_with_intermediate	test	ward_and_allport	82	21.0	0.174	to_hand	poldrack-single-stim	s144	False
0.1	171.682	0.154	171.836	0	PA_with_intermediate	test	ward_and_allport	71	21.0	0.154	to_board	poldrack-single-stim	s144	False
0.1	171.842	0.448	172.29	0	PA_with_intermediate	test	ward_and_allport	89	21.0	0.448	to_hand	poldrack-single-stim	s144	False
0.1	172.291	0.114	172.405	0	PA_with_intermediate	test	ward_and_allport	82	21.0	0.114	to_board	poldrack-single-stim	s144	False
1.0	172.412	2.952	172.411	0	PA_with_intermediate	test	ward_and_allport	-1	21.0	n/a	feedback	poldrack-single-stim	s144	False
1.427	175.369	1.427	176.796	1	PA_with_intermediate	test	ward_and_allport	82	22.0	1.427	to_hand	poldrack-single-stim	s144	False
0.1	176.797	0.148	176.945	0	PA_with_intermediate	test	ward_and_allport	71	22.0	0.148	to_board	poldrack-single-stim	s144	False
0.1	176.951	0.125	177.076	0	PA_with_intermediate	test	ward_and_allport	82	22.0	0.125	to_hand	poldrack-single-stim	s144	False
0.1	177.077	0.194	177.271	0	PA_with_intermediate	test	ward_and_allport	89	22.0	0.194	to_board	poldrack-single-stim	s144	False
0.1	177.277	0.295	177.572	0	PA_with_intermediate	test	ward_and_allport	71	22.0	0.295	to_hand	poldrack-single-stim	s144	False
0.1	177.573	0.142	177.715	0	PA_with_intermediate	test	ward_and_allport	82	22.0	0.142	to_board	poldrack-single-stim	s144	False
1.0	177.726	2.136	177.725	0	PA_with_intermediate	test	ward_and_allport	-1	22.0	n/a	feedback	poldrack-single-stim	s144	False
0.955	179.868	0.955	180.823	1	PA_without_intermediate	test	ward_and_allport	71	23.0	0.955	to_hand	poldrack-single-stim	s144	False
0.1	180.823	0.134	180.957	0	PA_without_intermediate	test	ward_and_allport	82	23.0	0.134	to_board	poldrack-single-stim	s144	False
0.1	180.964	0.219	181.183	0	PA_without_intermediate	test	ward_and_allport	71	23.0	0.219	to_hand	poldrack-single-stim	s144	False
0.1	181.183	0.116	181.299	0	PA_without_intermediate	test	ward_and_allport	82	23.0	0.116	to_board	poldrack-single-stim	s144	False
0.1	181.304	0.319	181.623	0	PA_without_intermediate	test	ward_and_allport	71	23.0	0.319	to_hand	poldrack-single-stim	s144	False
0.1	181.625	0.091	181.716	0	PA_without_intermediate	test	ward_and_allport	89	23.0	0.091	to_board	poldrack-single-stim	s144	False
1.0	181.721	2.68	181.72	0	PA_without_intermediate	test	ward_and_allport	-1	23.0	n/a	feedback	poldrack-single-stim	s144	False
1.198	184.407	1.198	185.605	1	PA_without_intermediate	test	ward_and_allport	82	24.0	1.198	to_hand	poldrack-single-stim	s144	False
0.1	185.606	0.139	185.745	0	PA_without_intermediate	test	ward_and_allport	89	24.0	0.139	to_board	poldrack-single-stim	s144	False
0.1	185.751	0.228	185.979	0	PA_without_intermediate	test	ward_and_allport	82	24.0	0.228	to_hand	poldrack-single-stim	s144	False
0.1	185.98	0.081	186.061	0	PA_without_intermediate	test	ward_and_allport	89	24.0	0.081	to_board	poldrack-single-stim	s144	False
0.1	186.066	0.474	186.54	0	PA_without_intermediate	test	ward_and_allport	82	24.0	0.474	to_hand	poldrack-single-stim	s144	False
0.1	186.54	0.137	186.677	0	PA_without_intermediate	test	ward_and_allport	71	24.0	0.137	to_board	poldrack-single-stim	s144	False
1.0	186.686	3.088	186.685	0	PA_without_intermediate	test	ward_and_allport	-1	24.0	n/a	feedback	poldrack-single-stim	s144	False
1.739	189.778	1.739	191.517	1	PA_with_intermediate	test	ward_and_allport	89	25.0	1.739	to_hand	poldrack-single-stim	s144	False
0.1	191.518	0.134	191.652	0	PA_with_intermediate	test	ward_and_allport	82	25.0	0.134	to_board	poldrack-single-stim	s144	False
0.1	191.658	0.263	191.921	0	PA_with_intermediate	test	ward_and_allport	89	25.0	0.263	to_hand	poldrack-single-stim	s144	False
0.1	191.922	0.111	192.033	0	PA_with_intermediate	test	ward_and_allport	71	25.0	0.111	to_board	poldrack-single-stim	s144	False
0.1	192.039	0.25	192.289	0	PA_with_intermediate	test	ward_and_allport	82	25.0	0.25	to_hand	poldrack-single-stim	s144	False
0.1	192.29	0.112	192.402	0	PA_with_intermediate	test	ward_and_allport	71	25.0	0.112	to_board	poldrack-single-stim	s144	False
1.0	192.414	2.0	192.413	0	PA_with_intermediate	test	ward_and_allport	-1	25.0	n/a	feedback	poldrack-single-stim	s144	False
1.667	194.422	1.667	196.089	1	PA_without_intermediate	test	ward_and_allport	82	26.0	1.667	to_hand	poldrack-single-stim	s144	False
0.1	196.089	0.146	196.235	0	PA_without_intermediate	test	ward_and_allport	71	26.0	0.146	to_board	poldrack-single-stim	s144	False
0.1	196.241	0.262	196.503	0	PA_without_intermediate	test	ward_and_allport	82	26.0	0.262	to_hand	poldrack-single-stim	s144	False
0.1	196.504	0.12	196.624	0	PA_without_intermediate	test	ward_and_allport	89	26.0	0.12	to_board	poldrack-single-stim	s144	False
0.1	196.63	0.29	196.92	0	PA_without_intermediate	test	ward_and_allport	82	26.0	0.29	to_hand	poldrack-single-stim	s144	False
0.1	196.921	0.088	197.009	0	PA_without_intermediate	test	ward_and_allport	71	26.0	0.088	to_board	poldrack-single-stim	s144	False
1.0	197.016	2.0	197.015	0	PA_without_intermediate	test	ward_and_allport	-1	26.0	n/a	feedback	poldrack-single-stim	s144	False
1.185	199.021	1.185	200.206	1	PA_without_intermediate	test	ward_and_allport	71	27.0	1.185	to_hand	poldrack-single-stim	s144	False
0.1	200.207	0.107	200.314	0	PA_without_intermediate	test	ward_and_allport	89	27.0	0.107	to_board	poldrack-single-stim	s144	False
0.1	200.32	0.342	200.662	0	PA_without_intermediate	test	ward_and_allport	71	27.0	0.342	to_hand	poldrack-single-stim	s144	False
0.1	200.663	0.094	200.757	0	PA_without_intermediate	test	ward_and_allport	82	27.0	0.094	to_board	poldrack-single-stim	s144	False
0.1	200.763	0.396	201.159	0	PA_without_intermediate	test	ward_and_allport	71	27.0	0.396	to_hand	poldrack-single-stim	s144	False
0.1	201.16	0.08	201.24	0	PA_without_intermediate	test	ward_and_allport	89	27.0	0.08	to_board	poldrack-single-stim	s144	False
1.0	201.246	2.0	201.245	0	PA_without_intermediate	test	ward_and_allport	-1	27.0	n/a	feedback	poldrack-single-stim	s144	False
1.507	203.251	1.507	204.758	1	PA_with_intermediate	test	ward_and_allport	71	28.0	1.507	to_hand	poldrack-single-stim	s144	False
0.1	204.758	0.1	204.858	0	PA_with_intermediate	test	ward_and_allport	89	28.0	0.1	to_board	poldrack-single-stim	s144	False
0.1	204.863	0.17	205.033	0	PA_with_intermediate	test	ward_and_allport	71	28.0	0.17	to_hand	poldrack-single-stim	s144	False
0.1	205.035	0.1	205.135	0	PA_with_intermediate	test	ward_and_allport	82	28.0	0.1	to_board	poldrack-single-stim	s144	False
0.1	205.141	0.315	205.456	0	PA_with_intermediate	test	ward_and_allport	89	28.0	0.315	to_hand	poldrack-single-stim	s144	False
0.1	205.457	0.103	205.56	0	PA_with_intermediate	test	ward_and_allport	71	28.0	0.103	to_board	poldrack-single-stim	s144	False
1.0	205.566	2.544	205.565	0	PA_with_intermediate	test	ward_and_allport	-1	28.0	n/a	feedback	poldrack-single-stim	s144	False
2.159	208.114	2.159	210.273	1	PA_without_intermediate	test	ward_and_allport	89	29.0	2.159	to_hand	poldrack-single-stim	s144	False
0.1	210.274	0.083	210.357	0	PA_without_intermediate	test	ward_and_allport	82	29.0	0.083	to_board	poldrack-single-stim	s144	False
0.1	210.362	0.235	210.597	0	PA_without_intermediate	test	ward_and_allport	89	29.0	0.235	to_hand	poldrack-single-stim	s144	False
0.1	210.598	0.064	210.662	0	PA_without_intermediate	test	ward_and_allport	71	29.0	0.064	to_board	poldrack-single-stim	s144	False
0.1	210.67	0.59	211.26	0	PA_without_intermediate	test	ward_and_allport	89	29.0	0.59	to_hand	poldrack-single-stim	s144	False
0.1	211.261	0.196	211.457	0	PA_without_intermediate	test	ward_and_allport	82	29.0	0.196	to_board	poldrack-single-stim	s144	False
1.0	211.47	2.272	211.469	0	PA_without_intermediate	test	ward_and_allport	-1	29.0	n/a	feedback	poldrack-single-stim	s144	False
1.56	218.751	1.56	220.311	1	PA_with_intermediate	test	ward_and_allport	89	30.0	1.56	to_hand	poldrack-single-stim	s144	False
0.1	220.312	0.119	220.431	0	PA_with_intermediate	test	ward_and_allport	71	30.0	0.119	to_board	poldrack-single-stim	s144	False
0.1	220.44	0.173	220.613	0	PA_with_intermediate	test	ward_and_allport	89	30.0	0.173	to_hand	poldrack-single-stim	s144	False
0.1	220.613	0.111	220.724	0	PA_with_intermediate	test	ward_and_allport	82	30.0	0.111	to_board	poldrack-single-stim	s144	False
0.1	220.732	0.322	221.054	0	PA_with_intermediate	test	ward_and_allport	71	30.0	0.322	to_hand	poldrack-single-stim	s144	False
0.1	221.055	0.071	221.126	0	PA_with_intermediate	test	ward_and_allport	89	30.0	0.071	to_board	poldrack-single-stim	s144	False
1.0	221.136	4.04	221.135	0	PA_with_intermediate	test	ward_and_allport	-1	30.0	n/a	feedback	poldrack-single-stim	s144	False
2.421	225.182	2.421	227.603	1	PA_with_intermediate	test	ward_and_allport	71	31.0	2.421	to_hand	poldrack-single-stim	s144	False
0.1	227.604	0.261	227.865	0	PA_with_intermediate	test	ward_and_allport	82	31.0	0.261	to_board	poldrack-single-stim	s144	False
0.1	227.87	0.241	228.111	0	PA_with_intermediate	test	ward_and_allport	71	31.0	0.241	to_hand	poldrack-single-stim	s144	False
0.1	228.112	0.715	228.827	0	PA_with_intermediate	test	ward_and_allport	82	31.0	0.715	to_board	poldrack-single-stim	s144	False
0.1	228.835	0.378	229.213	0	PA_with_intermediate	test	ward_and_allport	71	31.0	0.378	to_hand	poldrack-single-stim	s144	False
0.1	229.214	0.113	229.327	0	PA_with_intermediate	test	ward_and_allport	89	31.0	0.113	to_board	poldrack-single-stim	s144	False
0.1	229.336	0.605	229.941	0	PA_with_intermediate	test	ward_and_allport	82	31.0	0.605	to_hand	poldrack-single-stim	s144	False
0.1	229.942	0.101	230.043	0	PA_with_intermediate	test	ward_and_allport	71	31.0	0.101	to_board	poldrack-single-stim	s144	False
0.1	230.052	1.742	231.794	0	PA_with_intermediate	test	ward_and_allport	82	31.0	1.742	to_hand	poldrack-single-stim	s144	False
0.1	231.795	0.155	231.95	0	PA_with_intermediate	test	ward_and_allport	89	31.0	0.155	to_board	poldrack-single-stim	s144	False
0.1	231.957	0.266	232.223	0	PA_with_intermediate	test	ward_and_allport	71	31.0	0.266	to_hand	poldrack-single-stim	s144	False
0.1	232.223	0.124	232.347	0	PA_with_intermediate	test	ward_and_allport	82	31.0	0.124	to_board	poldrack-single-stim	s144	False
0.1	232.353	0.407	232.76	0	PA_with_intermediate	test	ward_and_allport	89	31.0	0.407	to_hand	poldrack-single-stim	s144	False
0.1	232.761	0.099	232.86	0	PA_with_intermediate	test	ward_and_allport	82	31.0	0.099	to_board	poldrack-single-stim	s144	False
0.1	232.866	1.471	234.337	0	PA_with_intermediate	test	ward_and_allport	89	31.0	1.471	to_hand	poldrack-single-stim	s144	False
0.1	234.338	0.051	234.389	0	PA_with_intermediate	test	ward_and_allport	71	31.0	0.051	to_board	poldrack-single-stim	s144	False
1.0	234.398	2.272	234.397	0	PA_with_intermediate	test	ward_and_allport	-1	31.0	n/a	feedback	poldrack-single-stim	s144	False
2.611	236.676	2.611	239.287	1	PA_with_intermediate	test	ward_and_allport	71	32.0	2.611	to_hand	poldrack-single-stim	s144	False
0.1	239.288	0.107	239.395	0	PA_with_intermediate	test	ward_and_allport	89	32.0	0.107	to_board	poldrack-single-stim	s144	False
0.1	239.402	0.202	239.604	0	PA_with_intermediate	test	ward_and_allport	71	32.0	0.202	to_hand	poldrack-single-stim	s144	False
0.1	239.604	0.104	239.708	0	PA_with_intermediate	test	ward_and_allport	82	32.0	0.104	to_board	poldrack-single-stim	s144	False
0.1	239.715	0.193	239.908	0	PA_with_intermediate	test	ward_and_allport	89	32.0	0.193	to_hand	poldrack-single-stim	s144	False
0.1	239.909	0.1	240.009	0	PA_with_intermediate	test	ward_and_allport	82	32.0	0.1	to_board	poldrack-single-stim	s144	False
1.0	240.022	2.136	240.021	0	PA_with_intermediate	test	ward_and_allport	-1	32.0	n/a	feedback	poldrack-single-stim	s144	False
1.843	242.163	1.843	244.006	1	PA_with_intermediate	test	ward_and_allport	71	33.0	1.843	to_hand	poldrack-single-stim	s144	False
0.1	244.007	0.104	244.111	0	PA_with_intermediate	test	ward_and_allport	82	33.0	0.104	to_board	poldrack-single-stim	s144	False
0.1	244.118	0.143	244.261	0	PA_with_intermediate	test	ward_and_allport	71	33.0	0.143	to_hand	poldrack-single-stim	s144	False
0.1	244.261	0.121	244.382	0	PA_with_intermediate	test	ward_and_allport	89	33.0	0.121	to_board	poldrack-single-stim	s144	False
0.1	244.388	0.292	244.68	0	PA_with_intermediate	test	ward_and_allport	82	33.0	0.292	to_hand	poldrack-single-stim	s144	False
0.1	244.681	0.092	244.773	0	PA_with_intermediate	test	ward_and_allport	89	33.0	0.092	to_board	poldrack-single-stim	s144	False
1.0	244.782	2.0	244.781	0	PA_with_intermediate	test	ward_and_allport	-1	33.0	n/a	feedback	poldrack-single-stim	s144	False
1.434	246.787	1.434	248.221	1	PA_with_intermediate	test	ward_and_allport	71	34.0	1.434	to_hand	poldrack-single-stim	s144	False
0.1	248.223	0.114	248.337	0	PA_with_intermediate	test	ward_and_allport	82	34.0	0.114	to_board	poldrack-single-stim	s144	False
0.1	248.343	0.153	248.496	0	PA_with_intermediate	test	ward_and_allport	71	34.0	0.153	to_hand	poldrack-single-stim	s144	False
0.1	248.497	0.102	248.599	0	PA_with_intermediate	test	ward_and_allport	89	34.0	0.102	to_board	poldrack-single-stim	s144	False
0.1	248.605	0.106	248.711	0	PA_with_intermediate	test	ward_and_allport	82	34.0	0.106	to_hand	poldrack-single-stim	s144	False
0.1	248.712	0.072	248.784	0	PA_with_intermediate	test	ward_and_allport	71	34.0	0.072	to_board	poldrack-single-stim	s144	False
1.0	248.798	2.0	248.797	0	PA_with_intermediate	test	ward_and_allport	-1	34.0	n/a	feedback	poldrack-single-stim	s144	False
1.547	250.804	1.547	252.351	1	PA_without_intermediate	test	ward_and_allport	89	35.0	1.547	to_hand	poldrack-single-stim	s144	False
0.1	252.352	0.091	252.443	0	PA_without_intermediate	test	ward_and_allport	82	35.0	0.091	to_board	poldrack-single-stim	s144	False
0.1	252.449	0.105	252.554	0	PA_without_intermediate	test	ward_and_allport	89	35.0	0.105	to_hand	poldrack-single-stim	s144	False
0.1	252.555	0.099	252.654	0	PA_without_intermediate	test	ward_and_allport	82	35.0	0.099	to_board	poldrack-single-stim	s144	False
0.1	252.661	0.101	252.762	0	PA_without_intermediate	test	ward_and_allport	89	35.0	0.101	to_hand	poldrack-single-stim	s144	False
0.1	252.763	0.071	252.834	0	PA_without_intermediate	test	ward_and_allport	71	35.0	0.071	to_board	poldrack-single-stim	s144	False
1.0	252.843	2.408	252.842	0	PA_without_intermediate	test	ward_and_allport	-1	35.0	n/a	feedback	poldrack-single-stim	s144	False
1.359	255.256	1.359	256.615	1	PA_with_intermediate	test	ward_and_allport	82	36.0	1.359	to_hand	poldrack-single-stim	s144	False
0.1	256.616	0.054	256.67	0	PA_with_intermediate	test	ward_and_allport	89	36.0	0.054	to_board	poldrack-single-stim	s144	False
0.1	256.676	0.196	256.872	0	PA_with_intermediate	test	ward_and_allport	82	36.0	0.196	to_hand	poldrack-single-stim	s144	False
0.1	256.873	0.107	256.98	0	PA_with_intermediate	test	ward_and_allport	71	36.0	0.107	to_board	poldrack-single-stim	s144	False
0.1	256.986	0.212	257.198	0	PA_with_intermediate	test	ward_and_allport	89	36.0	0.212	to_hand	poldrack-single-stim	s144	False
0.1	257.199	0.074	257.273	0	PA_with_intermediate	test	ward_and_allport	82	36.0	0.074	to_board	poldrack-single-stim	s144	False
1.0	257.28	3.768	257.279	0	PA_with_intermediate	test	ward_and_allport	-1	36.0	n/a	feedback	poldrack-single-stim	s144	False
2.355	261.055	2.355	263.41	1	PA_with_intermediate	test	ward_and_allport	89	37.0	2.355	to_hand	poldrack-single-stim	s144	False
0.1	263.41	0.082	263.492	0	PA_with_intermediate	test	ward_and_allport	71	37.0	0.082	to_board	poldrack-single-stim	s144	False
0.1	263.498	0.115	263.613	0	PA_with_intermediate	test	ward_and_allport	89	37.0	0.115	to_hand	poldrack-single-stim	s144	False
0.1	263.614	0.098	263.712	0	PA_with_intermediate	test	ward_and_allport	82	37.0	0.098	to_board	poldrack-single-stim	s144	False
0.1	263.72	0.136	263.856	0	PA_with_intermediate	test	ward_and_allport	71	37.0	0.136	to_hand	poldrack-single-stim	s144	False
0.1	263.857	0.103	263.96	0	PA_with_intermediate	test	ward_and_allport	89	37.0	0.103	to_board	poldrack-single-stim	s144	False
1.0	263.973	2.68	263.972	0	PA_with_intermediate	test	ward_and_allport	-1	37.0	n/a	feedback	poldrack-single-stim	s144	False
1.6	266.659	1.6	268.259	1	PA_without_intermediate	test	ward_and_allport	71	38.0	1.6	to_hand	poldrack-single-stim	s144	False
0.1	268.26	0.099	268.359	0	PA_without_intermediate	test	ward_and_allport	82	38.0	0.099	to_board	poldrack-single-stim	s144	False
0.1	268.366	0.102	268.468	0	PA_without_intermediate	test	ward_and_allport	71	38.0	0.102	to_hand	poldrack-single-stim	s144	False
0.1	268.469	0.097	268.566	0	PA_without_intermediate	test	ward_and_allport	89	38.0	0.097	to_board	poldrack-single-stim	s144	False
0.1	268.572	0.125	268.697	0	PA_without_intermediate	test	ward_and_allport	71	38.0	0.125	to_hand	poldrack-single-stim	s144	False
0.1	268.698	0.109	268.807	0	PA_without_intermediate	test	ward_and_allport	82	38.0	0.109	to_board	poldrack-single-stim	s144	False
1.0	268.816	3.224	268.815	0	PA_without_intermediate	test	ward_and_allport	-1	38.0	n/a	feedback	poldrack-single-stim	s144	False
1.701	272.047	1.701	273.748	1	PA_without_intermediate	test	ward_and_allport	71	39.0	1.701	to_hand	poldrack-single-stim	s144	False
0.1	273.748	0.124	273.872	0	PA_without_intermediate	test	ward_and_allport	82	39.0	0.124	to_board	poldrack-single-stim	s144	False
0.1	273.878	0.108	273.986	0	PA_without_intermediate	test	ward_and_allport	71	39.0	0.108	to_hand	poldrack-single-stim	s144	False
0.1	273.987	0.117	274.104	0	PA_without_intermediate	test	ward_and_allport	89	39.0	0.117	to_board	poldrack-single-stim	s144	False
0.1	274.113	0.127	274.24	0	PA_without_intermediate	test	ward_and_allport	71	39.0	0.127	to_hand	poldrack-single-stim	s144	False
0.1	274.241	0.111	274.352	0	PA_without_intermediate	test	ward_and_allport	82	39.0	0.111	to_board	poldrack-single-stim	s144	False
1.0	274.364	3.36	274.363	0	PA_without_intermediate	test	ward_and_allport	-1	39.0	n/a	feedback	poldrack-single-stim	s144	False
1.631	277.73	1.631	279.361	1	PA_without_intermediate	test	ward_and_allport	89	40.0	1.631	to_hand	poldrack-single-stim	s144	False
0.1	279.362	0.096	279.458	0	PA_without_intermediate	test	ward_and_allport	82	40.0	0.096	to_board	poldrack-single-stim	s144	False
0.1	279.465	0.094	279.559	0	PA_without_intermediate	test	ward_and_allport	89	40.0	0.094	to_hand	poldrack-single-stim	s144	False
0.1	279.56	0.094	279.654	0	PA_without_intermediate	test	ward_and_allport	71	40.0	0.094	to_board	poldrack-single-stim	s144	False
0.1	279.663	0.092	279.755	0	PA_without_intermediate	test	ward_and_allport	89	40.0	0.092	to_hand	poldrack-single-stim	s144	False
0.1	279.756	0.106	279.862	0	PA_without_intermediate	test	ward_and_allport	82	40.0	0.106	to_board	poldrack-single-stim	s144	False
1.0	279.875	2.0	279.874	0	PA_without_intermediate	test	ward_and_allport	-1	40.0	n/a	feedback	poldrack-single-stim	s144	False
1.51	281.886	1.51	283.396	1	PA_without_intermediate	test	ward_and_allport	89	41.0	1.51	to_hand	poldrack-single-stim	s144	False
0.1	283.397	0.117	283.514	0	PA_without_intermediate	test	ward_and_allport	71	41.0	0.117	to_board	poldrack-single-stim	s144	False
0.1	283.52	0.109	283.629	0	PA_without_intermediate	test	ward_and_allport	89	41.0	0.109	to_hand	poldrack-single-stim	s144	False
0.1	283.63	0.098	283.728	0	PA_without_intermediate	test	ward_and_allport	82	41.0	0.098	to_board	poldrack-single-stim	s144	False
0.1	283.735	0.08	283.815	0	PA_without_intermediate	test	ward_and_allport	89	41.0	0.08	to_hand	poldrack-single-stim	s144	False
0.1	283.816	0.086	283.902	0	PA_without_intermediate	test	ward_and_allport	71	41.0	0.086	to_board	poldrack-single-stim	s144	False
1.0	283.91	2.408	283.909	0	PA_without_intermediate	test	ward_and_allport	-1	41.0	n/a	feedback	poldrack-single-stim	s144	False
1.207	286.324	1.207	287.531	1	PA_with_intermediate	test	ward_and_allport	82	42.0	1.207	to_hand	poldrack-single-stim	s144	False
0.1	287.532	0.125	287.657	0	PA_with_intermediate	test	ward_and_allport	89	42.0	0.125	to_board	poldrack-single-stim	s144	False
0.1	287.663	0.17	287.833	0	PA_with_intermediate	test	ward_and_allport	82	42.0	0.17	to_hand	poldrack-single-stim	s144	False
0.1	287.834	0.073	287.907	0	PA_with_intermediate	test	ward_and_allport	71	42.0	0.073	to_board	poldrack-single-stim	s144	False
0.1	287.914	0.18	288.094	0	PA_with_intermediate	test	ward_and_allport	89	42.0	0.18	to_hand	poldrack-single-stim	s144	False
0.1	288.095	0.154	288.249	0	PA_with_intermediate	test	ward_and_allport	71	42.0	0.154	to_board	poldrack-single-stim	s144	False
1.0	288.256	2.136	288.255	0	PA_with_intermediate	test	ward_and_allport	-1	42.0	n/a	feedback	poldrack-single-stim	s144	False
1.187	290.4	1.187	291.587	1	PA_without_intermediate	test	ward_and_allport	71	43.0	1.187	to_hand	poldrack-single-stim	s144	False
0.1	291.587	0.098	291.685	0	PA_without_intermediate	test	ward_and_allport	89	43.0	0.098	to_board	poldrack-single-stim	s144	False
0.1	291.695	0.094	291.789	0	PA_without_intermediate	test	ward_and_allport	71	43.0	0.094	to_hand	poldrack-single-stim	s144	False
0.1	291.79	0.086	291.876	0	PA_without_intermediate	test	ward_and_allport	89	43.0	0.086	to_board	poldrack-single-stim	s144	False
0.1	291.883	0.143	292.026	0	PA_without_intermediate	test	ward_and_allport	71	43.0	0.143	to_hand	poldrack-single-stim	s144	False
0.1	292.029	0.102	292.131	0	PA_without_intermediate	test	ward_and_allport	82	43.0	0.102	to_board	poldrack-single-stim	s144	False
1.0	292.144	5.128	292.143	0	PA_without_intermediate	test	ward_and_allport	-1	43.0	n/a	feedback	poldrack-single-stim	s144	False
1.38	297.279	1.38	298.659	1	PA_without_intermediate	test	ward_and_allport	71	44.0	1.38	to_hand	poldrack-single-stim	s144	False
0.1	298.66	0.081	298.741	0	PA_without_intermediate	test	ward_and_allport	89	44.0	0.081	to_board	poldrack-single-stim	s144	False
0.1	298.754	0.114	298.868	0	PA_without_intermediate	test	ward_and_allport	71	44.0	0.114	to_hand	poldrack-single-stim	s144	False
0.1	298.869	0.129	298.998	0	PA_without_intermediate	test	ward_and_allport	82	44.0	0.129	to_board	poldrack-single-stim	s144	False
0.1	299.012	0.09	299.102	0	PA_without_intermediate	test	ward_and_allport	71	44.0	0.09	to_hand	poldrack-single-stim	s144	False
0.1	299.103	0.09	299.193	0	PA_without_intermediate	test	ward_and_allport	89	44.0	0.09	to_board	poldrack-single-stim	s144	False
1.0	299.211	2.136	299.21	0	PA_without_intermediate	test	ward_and_allport	-1	44.0	n/a	feedback	poldrack-single-stim	s144	False
1.825	306.362	1.825	308.187	1	PA_without_intermediate	test	ward_and_allport	82	45.0	1.825	to_hand	poldrack-single-stim	s144	False
0.1	308.188	0.159	308.347	0	PA_without_intermediate	test	ward_and_allport	71	45.0	0.159	to_board	poldrack-single-stim	s144	False
0.1	308.364	0.786	309.15	0	PA_without_intermediate	test	ward_and_allport	82	45.0	0.786	to_hand	poldrack-single-stim	s144	False
0.1	309.15	0.144	309.294	0	PA_without_intermediate	test	ward_and_allport	71	45.0	0.144	to_board	poldrack-single-stim	s144	False
0.1	309.309	0.276	309.585	0	PA_without_intermediate	test	ward_and_allport	82	45.0	0.276	to_hand	poldrack-single-stim	s144	False
0.1	309.586	0.1	309.686	0	PA_without_intermediate	test	ward_and_allport	89	45.0	0.1	to_board	poldrack-single-stim	s144	False
1.0	309.704	5.264	309.703	0	PA_without_intermediate	test	ward_and_allport	-1	45.0	n/a	feedback	poldrack-single-stim	s144	False
1.247	314.975	1.247	316.222	1	PA_with_intermediate	test	ward_and_allport	82	46.0	1.247	to_hand	poldrack-single-stim	s144	False
0.1	316.223	0.095	316.318	0	PA_with_intermediate	test	ward_and_allport	71	46.0	0.095	to_board	poldrack-single-stim	s144	False
0.1	316.329	0.122	316.451	0	PA_with_intermediate	test	ward_and_allport	82	46.0	0.122	to_hand	poldrack-single-stim	s144	False
0.1	316.452	0.091	316.543	0	PA_with_intermediate	test	ward_and_allport	89	46.0	0.091	to_board	poldrack-single-stim	s144	False
0.1	316.553	0.117	316.67	0	PA_with_intermediate	test	ward_and_allport	71	46.0	0.117	to_hand	poldrack-single-stim	s144	False
0.1	316.672	0.668	317.34	0	PA_with_intermediate	test	ward_and_allport	89	46.0	0.668	to_board	poldrack-single-stim	s144	False
1.0	317.355	4.04	317.354	0	PA_with_intermediate	test	ward_and_allport	-1	46.0	n/a	feedback	poldrack-single-stim	s144	False
1.592	321.406	1.592	322.998	1	PA_with_intermediate	test	ward_and_allport	71	47.0	1.592	to_hand	poldrack-single-stim	s144	False
0.1	322.999	0.12	323.119	0	PA_with_intermediate	test	ward_and_allport	82	47.0	0.12	to_board	poldrack-single-stim	s144	False
0.1	323.129	0.091	323.22	0	PA_with_intermediate	test	ward_and_allport	71	47.0	0.091	to_hand	poldrack-single-stim	s144	False
0.1	323.222	0.093	323.315	0	PA_with_intermediate	test	ward_and_allport	89	47.0	0.093	to_board	poldrack-single-stim	s144	False
0.1	323.324	0.337	323.661	0	PA_with_intermediate	test	ward_and_allport	82	47.0	0.337	to_hand	poldrack-single-stim	s144	False
0.1	323.661	0.061	323.722	0	PA_with_intermediate	test	ward_and_allport	89	47.0	0.061	to_board	poldrack-single-stim	s144	False
1.0	323.733	2.136	323.732	0	PA_with_intermediate	test	ward_and_allport	-1	47.0	n/a	feedback	poldrack-single-stim	s144	False
