onset	duration	movement_onset	EV	action	block_duration	experiment_exp_id	gain_amount	gain_probability	key_press	loss_amount	loss_probability	num_cards	num_click_in_round	num_loss_cards	risk	response_time	total_cards	trial_id	trial_type	worker_id	junk	feedback
3.008	0.572	3.58	-1.3173474301347865	draw_card	0.572	columbia_card_task_fmri	12.0	0.8333333333333334	89.0	-70.0	0.1666666666666666	6.0	1.0	1.0	-0.8797437936405785	0.572	n/a	stim	poldrack-single-stim	s172	False	1
3.583	0.917	4.5	-4.050680763468119	draw_card	0.917	columbia_card_task_fmri	12.0	0.8	89.0	-70.0	0.2	6.0	2.0	1.0	1.3605241559812915	0.917	n/a	stim	poldrack-single-stim	s172	False	1
4.502	0.739	5.241	-8.15068076346812	end_round	0.739	columbia_card_task_fmri	12.0	0.75	71.0	-70.0	0.25	6.0	3.0	1.0	4.0674239074957335	0.739	2.0	stim	poldrack-single-stim	s172	False	1
5.994	1.5	5.243	n/a	-1.0	2.25	columbia_card_task_fmri	n/a	n/a	-1.0	n/a	n/a	n/a	n/a	n/a	n/a	n/a	n/a	ITI	poldrack-single-stim	s172	False	0
7.496	0.431	7.927	-0.4840140968014523	draw_card	0.431	columbia_card_task_fmri	14.0	0.8333333333333334	89.0	-75.0	0.1666666666666666	6.0	1.0	1.0	1.728845166917953	0.431	n/a	stim	poldrack-single-stim	s172	False	1
7.929	0.539	8.468	-3.450680763468119	draw_card	0.539	columbia_card_task_fmri	14.0	0.8	89.0	-75.0	0.2	6.0	2.0	1.0	4.160377865831084	0.539	n/a	stim	poldrack-single-stim	s172	False	1
8.47	1.451	9.921	-7.90068076346812	end_round	1.451	columbia_card_task_fmri	14.0	0.75	71.0	-75.0	0.25	6.0	3.0	1.0	7.098377682132334	1.451	2.0	stim	poldrack-single-stim	s172	False	1
10.675	1.5	9.924	n/a	-1.0	2.386	columbia_card_task_fmri	n/a	n/a	-1.0	n/a	n/a	n/a	n/a	n/a	n/a	n/a	n/a	ITI	poldrack-single-stim	s172	False	0
12.312	0.444	12.756	1.1826525698652135	draw_card	0.444	columbia_card_task_fmri	15.0	0.8333333333333334	89.0	-70.0	0.1666666666666666	6.0	1.0	1.0	0.2382197373770189	0.444	n/a	stim	poldrack-single-stim	s172	False	1
12.758	0.763	13.521	-1.6506807634681202	draw_card	0.763	columbia_card_task_fmri	15.0	0.8	89.0	-70.0	0.2	6.0	2.0	1.0	2.560458510045944	0.763	2.0	stim	poldrack-single-stim	s172	False	0
14.273	1.5	13.522	n/a	-1.0	2.59	columbia_card_task_fmri	n/a	n/a	-1.0	n/a	n/a	n/a	n/a	n/a	n/a	n/a	n/a	ITI	poldrack-single-stim	s172	False	0
16.113	0.434	16.547	2.015985903198548	draw_card	0.434	columbia_card_task_fmri	17.0	0.8333333333333334	89.0	-75.0	0.1666666666666666	6.0	1.0	1.0	2.846819177980368	0.434	n/a	stim	poldrack-single-stim	s172	False	1
16.549	0.517	17.066	-1.0506807634681188	draw_card	0.517	columbia_card_task_fmri	17.0	0.8	89.0	-75.0	0.2	6.0	2.0	1.0	5.360321984326578	0.517	n/a	stim	poldrack-single-stim	s172	False	1
17.066	0.475	17.541	-5.65068076346812	end_round	0.475	columbia_card_task_fmri	17.0	0.75	71.0	-75.0	0.25	6.0	3.0	1.0	8.397364166157285	0.475	2.0	stim	poldrack-single-stim	s172	False	1
18.294	1.5	17.543	n/a	-1.0	2.658	columbia_card_task_fmri	n/a	n/a	-1.0	n/a	n/a	n/a	n/a	n/a	n/a	n/a	n/a	ITI	poldrack-single-stim	s172	False	0
20.203	0.674	20.877	3.34931923653188	draw_card	0.674	columbia_card_task_fmri	24.0	0.75	89.0	-60.0	0.25	8.0	1.0	2.0	4.93340840213067	0.674	1.0	stim	poldrack-single-stim	s172	False	0
21.63	1.5	20.879	n/a	-1.0	2.386	columbia_card_task_fmri	n/a	n/a	-1.0	n/a	n/a	n/a	n/a	n/a	n/a	n/a	n/a	ITI	poldrack-single-stim	s172	False	0
23.267	0.653	23.92	3.34931923653188	draw_card	0.653	columbia_card_task_fmri	29.0	0.75	89.0	-75.0	0.25	8.0	1.0	2.0	13.5933398825014	0.653	n/a	stim	poldrack-single-stim	s172	False	1
23.921	0.427	24.348	-0.3649664777538319	draw_card	0.427	columbia_card_task_fmri	29.0	0.7142857142857143	89.0	-75.0	0.2857142857142857	8.0	2.0	2.0	15.542373633871232	0.427	2.0	stim	poldrack-single-stim	s172	False	0
25.1	1.5	24.349	n/a	-1.0	2.386	columbia_card_task_fmri	n/a	n/a	-1.0	n/a	n/a	n/a	n/a	n/a	n/a	n/a	n/a	ITI	poldrack-single-stim	s172	False	0
26.737	0.386	27.123	-0.8729029856903399	draw_card	0.386	columbia_card_task_fmri	17.0	0.7777777777777778	89.0	-65.0	0.2222222222222222	9.0	1.0	2.0	2.651109929054304	0.386	n/a	stim	poldrack-single-stim	s172	False	1
27.125	0.673	27.798	-3.15068076346812	draw_card	0.673	columbia_card_task_fmri	17.0	0.75	89.0	-65.0	0.25	9.0	2.0	2.0	4.0674239074957335	0.673	n/a	stim	poldrack-single-stim	s172	False	1
27.799	0.728	28.527	-6.079252192039547	end_round	0.728	columbia_card_task_fmri	17.0	0.7142857142857143	71.0	-65.0	0.2857142857142857	9.0	3.0	2.0	5.60413509158381	0.728	2.0	stim	poldrack-single-stim	s172	False	1
29.28	1.5	28.529	n/a	-1.0	2.25	columbia_card_task_fmri	n/a	n/a	-1.0	n/a	n/a	n/a	n/a	n/a	n/a	n/a	n/a	ITI	poldrack-single-stim	s172	False	0
30.781	0.502	31.283	3.4493192365318794	draw_card	0.502	columbia_card_task_fmri	14.0	0.9	89.0	-95.0	0.1	10.0	1.0	1.0	1.2605298439389792	0.502	n/a	stim	poldrack-single-stim	s172	False	1
31.286	0.463	31.749	2.2382081254207677	draw_card	0.463	columbia_card_task_fmri	14.0	0.8888888888888888	89.0	-95.0	0.1111111111111111	10.0	2.0	1.0	2.815840309697432	0.463	n/a	stim	poldrack-single-stim	s172	False	1
31.751	0.738	32.489	0.7243192365318798	draw_card	0.738	columbia_card_task_fmri	14.0	0.875	89.0	-95.0	0.125	10.0	3.0	1.0	4.608718164498637	0.738	n/a	stim	poldrack-single-stim	s172	False	1
32.49	0.601	33.091	-1.2221093348966914	end_round	0.601	columbia_card_task_fmri	14.0	0.8571428571428572	71.0	-95.0	0.1428571428571428	10.0	4.0	1.0	6.702318218778775	0.601	3.0	stim	poldrack-single-stim	s172	False	1
33.843	1.5	33.092	n/a	-1.0	2.318	columbia_card_task_fmri	n/a	n/a	-1.0	n/a	n/a	n/a	n/a	n/a	n/a	n/a	n/a	ITI	poldrack-single-stim	s172	False	0
35.413	0.444	35.857	-0.6506807634681202	draw_card	0.444	columbia_card_task_fmri	15.0	0.8	89.0	-65.0	0.2	10.0	1.0	2.0	0.560570654947842	0.444	n/a	stim	poldrack-single-stim	s172	False	1
35.859	0.71	36.569	-2.428458541245897	draw_card	0.71	columbia_card_task_fmri	15.0	0.7777777777777778	89.0	-65.0	0.2222222222222222	10.0	2.0	2.0	1.819675248598589	0.71	n/a	stim	poldrack-single-stim	s172	False	1
36.571	1.179	37.75	-4.65068076346812	end_round	1.179	columbia_card_task_fmri	15.0	0.75	71.0	-65.0	0.25	10.0	3.0	2.0	3.201441458166027	1.179	2.0	stim	poldrack-single-stim	s172	False	1
38.503	1.5	37.752	n/a	-1.0	2.25	columbia_card_task_fmri	n/a	n/a	-1.0	n/a	n/a	n/a	n/a	n/a	n/a	n/a	n/a	ITI	poldrack-single-stim	s172	False	0
40.005	0.425	40.43	0.9493192365318812	draw_card	0.425	columbia_card_task_fmri	17.0	0.8	89.0	-65.0	0.2	10.0	1.0	2.0	1.3605241559812915	0.425	n/a	stim	poldrack-single-stim	s172	False	1
40.432	0.522	40.954	-0.8729029856903399	draw_card	0.522	columbia_card_task_fmri	17.0	0.7777777777777778	89.0	-65.0	0.2222222222222222	10.0	2.0	2.0	2.651109929054304	0.522	2.0	stim	poldrack-single-stim	s172	False	0
41.707	1.5	40.956	n/a	-1.0	2.25	columbia_card_task_fmri	n/a	n/a	-1.0	n/a	n/a	n/a	n/a	n/a	n/a	n/a	n/a	ITI	poldrack-single-stim	s172	False	0
43.208	0.796	44.004	-0.4840140968014523	draw_card	0.796	columbia_card_task_fmri	13.0	0.8333333333333334	89.0	-70.0	0.1666666666666666	12.0	1.0	2.0	-0.5070898491730134	0.796	n/a	stim	poldrack-single-stim	s172	False	1
44.006	0.85	44.856	-1.7415898543772137	draw_card	0.85	columbia_card_task_fmri	13.0	0.8181818181818181	89.0	-70.0	0.1818181818181818	12.0	2.0	2.0	0.573222358809037	0.85	2.0	stim	poldrack-single-stim	s172	False	0
45.609	1.5	44.858	n/a	-1.0	2.386	columbia_card_task_fmri	n/a	n/a	-1.0	n/a	n/a	n/a	n/a	n/a	n/a	n/a	n/a	ITI	poldrack-single-stim	s172	False	0
47.247	0.428	47.675	-0.4840140968014523	draw_card	0.428	columbia_card_task_fmri	15.0	0.8333333333333334	89.0	-80.0	0.1666666666666666	12.0	1.0	2.0	3.9647969768214857	0.428	n/a	stim	poldrack-single-stim	s172	False	1
47.676	0.91	48.586	-1.9234080361953956	draw_card	0.91	columbia_card_task_fmri	15.0	0.8181818181818181	89.0	-80.0	0.1818181818181818	12.0	2.0	2.0	5.201316931228714	0.91	n/a	stim	poldrack-single-stim	s172	False	1
48.587	0.565	49.152	-3.65068076346812	end_round	0.565	columbia_card_task_fmri	15.0	0.8	71.0	-80.0	0.2	12.0	3.0	2.0	6.5602696319491365	0.565	2.0	stim	poldrack-single-stim	s172	False	1
49.906	1.5	49.155	n/a	-1.0	2.386	columbia_card_task_fmri	n/a	n/a	-1.0	n/a	n/a	n/a	n/a	n/a	n/a	n/a	n/a	ITI	poldrack-single-stim	s172	False	0
51.543	0.393	51.936	-1.4506807634681191	draw_card	0.393	columbia_card_task_fmri	14.0	0.8	89.0	-65.0	0.2	15.0	1.0	3.0	0.1605947872432942	0.393	n/a	stim	poldrack-single-stim	s172	False	1
51.938	0.716	52.654	-2.5792521920395477	draw_card	0.716	columbia_card_task_fmri	14.0	0.7857142857142857	89.0	-65.0	0.2142857142857142	15.0	2.0	3.0	0.9762925664133384	0.716	n/a	stim	poldrack-single-stim	s172	False	1
52.655	1.62	54.275	-3.881449994237352	end_round	1.62	columbia_card_task_fmri	14.0	0.7692307692307692	71.0	-65.0	0.2307692307692307	15.0	3.0	3.0	1.8451755664425955	1.62	2.0	stim	poldrack-single-stim	s172	False	1
55.027	1.5	54.276	n/a	-1.0	2.726	columbia_card_task_fmri	n/a	n/a	-1.0	n/a	n/a	n/a	n/a	n/a	n/a	n/a	n/a	ITI	poldrack-single-stim	s172	False	0
57.005	0.459	57.464	-1.5256807634681202	draw_card	0.459	columbia_card_task_fmri	1.0	0.9375	89.0	-45.0	0.0625	16.0	1.0	1.0	-20.30103075793193	0.459	n/a	stim	poldrack-single-stim	s172	False	1
57.467	0.502	57.969	-1.7173474301347866	draw_card	0.502	columbia_card_task_fmri	1.0	0.9333333333333332	89.0	-45.0	0.0666666666666666	16.0	2.0	1.0	-19.961603940047056	0.502	n/a	stim	poldrack-single-stim	s172	False	1
57.971	0.829	58.8	-1.9363950491824056	draw_card	0.829	columbia_card_task_fmri	1.0	0.9285714285714286	89.0	-45.0	0.0714285714285714	16.0	3.0	1.0	-19.58937562261927	0.829	n/a	stim	poldrack-single-stim	s172	False	1
58.802	0.806	59.608	-2.1891423019296585	end_round	0.806	columbia_card_task_fmri	1.0	0.9230769230769232	71.0	-45.0	0.0769230769230769	16.0	4.0	1.0	-19.178769107473027	0.806	3.0	stim	poldrack-single-stim	s172	False	1
60.361	1.5	59.61	n/a	-1.0	2.454	columbia_card_task_fmri	n/a	n/a	-1.0	n/a	n/a	n/a	n/a	n/a	n/a	n/a	n/a	ITI	poldrack-single-stim	s172	False	0
62.067	0.417	62.484	-0.5881807634681202	draw_card	0.417	columbia_card_task_fmri	15.0	0.8125	89.0	-70.0	0.1875	16.0	1.0	3.0	1.7370549119883698	0.417	n/a	stim	poldrack-single-stim	s172	False	1
62.485	0.845	63.33	-1.6506807634681202	draw_card	0.845	columbia_card_task_fmri	15.0	0.8	89.0	-70.0	0.2	16.0	2.0	3.0	2.560458510045944	0.845	2.0	stim	poldrack-single-stim	s172	False	0
64.084	1.5	63.333	n/a	-1.0	2.318	columbia_card_task_fmri	n/a	n/a	-1.0	n/a	n/a	n/a	n/a	n/a	n/a	n/a	n/a	ITI	poldrack-single-stim	s172	False	0
65.654	0.533	66.187	6.34931923653188	draw_card	0.533	columbia_card_task_fmri	30.0	0.7	89.0	-50.0	0.3	10.0	1.0	3.0	5.220933847499307	0.533	1.0	stim	poldrack-single-stim	s172	False	0
66.94	1.5	66.189	n/a	-1.0	2.318	columbia_card_task_fmri	n/a	n/a	-1.0	n/a	n/a	n/a	n/a	n/a	n/a	n/a	n/a	ITI	poldrack-single-stim	s172	False	0
68.51	0.493	69.003	5.74931923653188	draw_card	0.493	columbia_card_task_fmri	17.0	0.8666666666666667	89.0	-70.0	0.1333333333333333	15.0	1.0	2.0	-1.8649597999681584	0.493	n/a	stim	poldrack-single-stim	s172	False	1
69.006	1.072	70.078	4.920747807960453	draw_card	1.072	columbia_card_task_fmri	17.0	0.8571428571428572	89.0	-70.0	0.1428571428571428	15.0	2.0	2.0	-0.9956736519878824	1.072	n/a	stim	poldrack-single-stim	s172	False	1
70.08	0.95	71.03	3.964703851916495	draw_card	0.95	columbia_card_task_fmri	17.0	0.8461538461538461	89.0	-70.0	0.1538461538461538	15.0	3.0	2.0	-0.0496868092960625	0.95	n/a	stim	poldrack-single-stim	s172	False	1
71.033	0.625	71.658	2.8493192365318816	end_round	0.625	columbia_card_task_fmri	17.0	0.8333333333333334	71.0	-70.0	0.1666666666666666	15.0	4.0	2.0	0.9835314573437834	0.625	3.0	stim	poldrack-single-stim	s172	False	1
72.412	1.5	71.661	n/a	-1.0	2.59	columbia_card_task_fmri	n/a	n/a	-1.0	n/a	n/a	n/a	n/a	n/a	n/a	n/a	n/a	ITI	poldrack-single-stim	s172	False	0
74.253	1.049	75.302	0.9743192365318798	draw_card	1.049	columbia_card_task_fmri	7.0	0.9375	89.0	-95.0	0.0625	16.0	1.0	1.0	-6.74859611015146	1.049	n/a	stim	poldrack-single-stim	s172	False	1
75.304	0.542	75.846	0.54931923653188	draw_card	0.542	columbia_card_task_fmri	7.0	0.9333333333333332	89.0	-95.0	0.0666666666666666	16.0	2.0	1.0	-5.995667834278496	0.542	n/a	stim	poldrack-single-stim	s172	False	1
75.848	0.674	76.522	0.0636049508175942	draw_card	0.674	columbia_card_task_fmri	7.0	0.9285714285714286	89.0	-95.0	0.0714285714285714	16.0	3.0	1.0	-5.169996996536828	0.674	n/a	stim	poldrack-single-stim	s172	False	1
76.524	1.046	77.57	-0.4968346096219669	end_round	1.046	columbia_card_task_fmri	7.0	0.9230769230769232	71.0	-95.0	0.0769230769230769	16.0	4.0	1.0	-4.259217045891617	1.046	3.0	stim	poldrack-single-stim	s172	False	1
78.324	1.5	77.573	n/a	-1.0	2.726	columbia_card_task_fmri	n/a	n/a	-1.0	n/a	n/a	n/a	n/a	n/a	n/a	n/a	n/a	ITI	poldrack-single-stim	s172	False	0
80.303	1.113	81.416	2.53681923653188	draw_card	1.113	columbia_card_task_fmri	9.0	0.9375	89.0	-100.0	0.0625	16.0	1.0	1.0	-5.054324567944757	1.113	n/a	stim	poldrack-single-stim	s172	False	1
81.417	0.629	82.046	2.082652569865213	draw_card	0.629	columbia_card_task_fmri	9.0	0.9333333333333332	89.0	-100.0	0.0666666666666666	16.0	2.0	1.0	-4.249715030866653	0.629	n/a	stim	poldrack-single-stim	s172	False	1
82.049	1.079	83.128	1.563604950817595	draw_card	1.079	columbia_card_task_fmri	9.0	0.9285714285714286	89.0	-100.0	0.0714285714285714	16.0	3.0	1.0	-3.367370496959527	1.079	n/a	stim	poldrack-single-stim	s172	False	1
83.129	1.248	84.377	0.9647038519164955	draw_card	1.248	columbia_card_task_fmri	9.0	0.9230769230769232	89.0	-100.0	0.0769230769230769	16.0	4.0	1.0	-2.394075702202752	1.248	n/a	stim	poldrack-single-stim	s172	False	1
84.379	0.596	84.975	0.2659859031985476	end_round	0.596	columbia_card_task_fmri	9.0	0.9166666666666666	71.0	-100.0	0.0833333333333333	16.0	5.0	1.0	-1.3133022421918137	0.596	4.0	stim	poldrack-single-stim	s172	False	1
85.728	1.5	84.977	n/a	-1.0	2.522	columbia_card_task_fmri	n/a	n/a	-1.0	n/a	n/a	n/a	n/a	n/a	n/a	n/a	n/a	ITI	poldrack-single-stim	s172	False	0
87.502	0.459	87.961	3.47431923653188	draw_card	0.459	columbia_card_task_fmri	15.0	0.875	89.0	-80.0	0.125	16.0	1.0	2.0	-0.0210972286317741	0.459	n/a	stim	poldrack-single-stim	s172	False	1
87.962	0.761	88.723	2.6826525698652137	draw_card	0.761	columbia_card_task_fmri	15.0	0.8666666666666667	89.0	-80.0	0.1333333333333333	16.0	2.0	2.0	0.8543435638751298	0.761	2.0	stim	poldrack-single-stim	s172	False	0
89.477	1.5	88.726	n/a	-1.0	3.134	columbia_card_task_fmri	n/a	n/a	-1.0	n/a	n/a	n/a	n/a	n/a	n/a	n/a	n/a	ITI	poldrack-single-stim	s172	False	0
91.864	0.689	92.553	5.59931923653188	draw_card	0.689	columbia_card_task_fmri	16.0	0.875	89.0	-70.0	0.125	16.0	1.0	2.0	-2.9973642497883617	0.689	n/a	stim	poldrack-single-stim	s172	False	1
92.555	0.574	93.129	4.882652569865213	draw_card	0.574	columbia_card_task_fmri	16.0	0.8666666666666667	89.0	-70.0	0.1333333333333333	16.0	2.0	2.0	-2.2048704483131125	0.574	n/a	stim	poldrack-single-stim	s172	False	1
93.132	0.842	93.974	4.063604950817595	end_round	0.842	columbia_card_task_fmri	16.0	0.8571428571428572	71.0	-70.0	0.1428571428571428	16.0	3.0	2.0	-1.345577457004378	0.842	2.0	stim	poldrack-single-stim	s172	False	1
94.728	1.5	93.977	n/a	-1.0	2.386	columbia_card_task_fmri	n/a	n/a	-1.0	n/a	n/a	n/a	n/a	n/a	n/a	n/a	n/a	ITI	poldrack-single-stim	s172	False	0
96.367	1.293	97.66	6.91181923653188	draw_card	1.293	columbia_card_task_fmri	30.0	0.6875	89.0	-45.0	0.3125	16.0	1.0	5.0	3.3238495134921457	1.293	1.0	stim	poldrack-single-stim	s172	False	0
98.414	1.5	97.663	n/a	-1.0	2.386	columbia_card_task_fmri	n/a	n/a	-1.0	n/a	n/a	n/a	n/a	n/a	n/a	n/a	n/a	ITI	poldrack-single-stim	s172	False	0
100.053	0.61	100.663	-1.3173474301347865	draw_card	0.61	columbia_card_task_fmri	13.0	0.8333333333333334	89.0	-75.0	0.1666666666666666	6.0	1.0	1.0	1.3561880719074146	0.61	n/a	stim	poldrack-single-stim	s172	False	1
100.664	0.969	101.633	-4.25068076346812	draw_card	0.969	columbia_card_task_fmri	13.0	0.8	89.0	-75.0	0.2	6.0	2.0	1.0	3.760397339627307	0.969	n/a	stim	poldrack-single-stim	s172	False	1
101.636	0.587	102.223	-8.65068076346812	end_round	0.587	columbia_card_task_fmri	13.0	0.75	71.0	-75.0	0.25	6.0	3.0	1.0	6.665382969555193	0.587	2.0	stim	poldrack-single-stim	s172	False	1
102.975	1.5	102.224	n/a	-1.0	2.318	columbia_card_task_fmri	n/a	n/a	-1.0	n/a	n/a	n/a	n/a	n/a	n/a	n/a	n/a	ITI	poldrack-single-stim	s172	False	0
104.546	0.548	105.094	0.3493192365318815	draw_card	0.548	columbia_card_task_fmri	14.0	0.8333333333333334	89.0	-70.0	0.1666666666666666	6.0	1.0	1.0	-0.1344353320980964	0.548	n/a	stim	poldrack-single-stim	s172	False	1
105.096	0.758	105.854	-2.450680763468119	end_round	0.758	columbia_card_task_fmri	14.0	0.8	71.0	-70.0	0.2	6.0	2.0	1.0	2.160479871067313	0.758	1.0	stim	poldrack-single-stim	s172	False	1
106.607	1.5	105.856	n/a	-1.0	2.318	columbia_card_task_fmri	n/a	n/a	-1.0	n/a	n/a	n/a	n/a	n/a	n/a	n/a	n/a	ITI	poldrack-single-stim	s172	False	0
108.178	0.688	108.866	0.3493192365318815	draw_card	0.688	columbia_card_task_fmri	16.0	0.8333333333333334	89.0	-80.0	0.1666666666666666	6.0	1.0	1.0	4.337457023460463	0.688	n/a	stim	poldrack-single-stim	s172	False	1
108.868	0.559	109.427	-2.8506807634681195	draw_card	0.559	columbia_card_task_fmri	16.0	0.8	89.0	-80.0	0.2	6.0	2.0	1.0	6.960252908227073	0.559	n/a	stim	poldrack-single-stim	s172	False	1
109.429	0.505	109.934	-7.65068076346812	end_round	0.505	columbia_card_task_fmri	16.0	0.75	71.0	-80.0	0.25	6.0	3.0	1.0	10.1293511633523	0.505	2.0	stim	poldrack-single-stim	s172	False	1
110.688	1.5	109.937	n/a	-1.0	2.862	columbia_card_task_fmri	n/a	n/a	-1.0	n/a	n/a	n/a	n/a	n/a	n/a	n/a	n/a	ITI	poldrack-single-stim	s172	False	0
112.803	1.056	113.859	2.8493192365318816	draw_card	1.056	columbia_card_task_fmri	17.0	0.8333333333333334	89.0	-70.0	0.1666666666666666	6.0	1.0	1.0	0.9835314573437834	1.056	1.0	stim	poldrack-single-stim	s172	False	0
114.613	1.5	113.862	n/a	-1.0	2.726	columbia_card_task_fmri	n/a	n/a	-1.0	n/a	n/a	n/a	n/a	n/a	n/a	n/a	n/a	ITI	poldrack-single-stim	s172	False	0
116.59	0.924	117.514	2.84931923653188	draw_card	0.924	columbia_card_task_fmri	25.0	0.75	89.0	-65.0	0.25	8.0	1.0	2.0	7.531372794447666	0.924	n/a	stim	poldrack-single-stim	s172	False	1
117.518	0.859	118.377	-0.3649664777538319	end_round	0.859	columbia_card_task_fmri	25.0	0.7142857142857143	71.0	-65.0	0.2857142857142857	8.0	2.0	2.0	9.218020310238996	0.859	1.0	stim	poldrack-single-stim	s172	False	1
119.131	1.5	118.38	n/a	-1.0	2.25	columbia_card_task_fmri	n/a	n/a	-1.0	n/a	n/a	n/a	n/a	n/a	n/a	n/a	n/a	ITI	poldrack-single-stim	s172	False	0
120.633	0.591	121.224	2.84931923653188	draw_card	0.591	columbia_card_task_fmri	30.0	0.75	89.0	-80.0	0.25	8.0	1.0	2.0	16.19134219783434	0.591	1.0	stim	poldrack-single-stim	s172	False	0
121.976	1.5	121.225	n/a	-1.0	2.318	columbia_card_task_fmri	n/a	n/a	-1.0	n/a	n/a	n/a	n/a	n/a	n/a	n/a	n/a	ITI	poldrack-single-stim	s172	False	0
123.546	0.471	124.017	2.549319236531881	draw_card	0.471	columbia_card_task_fmri	13.0	0.9	89.0	-95.0	0.1	10.0	1.0	1.0	0.9605471184589298	0.471	n/a	stim	poldrack-single-stim	s172	False	1
124.02	0.528	124.548	1.3493192365318798	draw_card	0.528	columbia_card_task_fmri	13.0	0.8888888888888888	89.0	-95.0	0.1111111111111111	10.0	2.0	1.0	2.5015871194522568	0.528	n/a	stim	poldrack-single-stim	s172	False	1
124.551	0.659	125.21	-0.1506807634681202	end_round	0.659	columbia_card_task_fmri	13.0	0.875	71.0	-95.0	0.125	10.0	3.0	1.0	4.278014920826916	0.659	2.0	stim	poldrack-single-stim	s172	False	1
125.963	1.5	125.212	n/a	-1.0	2.454	columbia_card_task_fmri	n/a	n/a	-1.0	n/a	n/a	n/a	n/a	n/a	n/a	n/a	n/a	ITI	poldrack-single-stim	s172	False	0
127.67	1.049	128.719	3.94931923653188	draw_card	1.049	columbia_card_task_fmri	14.0	0.9	89.0	-90.0	0.1	10.0	1.0	1.0	-0.2393804617418737	1.049	n/a	stim	poldrack-single-stim	s172	False	1
128.722	0.944	129.666	2.7937636809763227	draw_card	0.944	columbia_card_task_fmri	14.0	0.8888888888888888	89.0	-90.0	0.1111111111111111	10.0	2.0	1.0	1.2445775294154906	0.944	2.0	stim	poldrack-single-stim	s172	False	0
130.42	1.5	129.669	n/a	-1.0	2.522	columbia_card_task_fmri	n/a	n/a	-1.0	n/a	n/a	n/a	n/a	n/a	n/a	n/a	n/a	ITI	poldrack-single-stim	s172	False	0
132.194	0.402	132.596	-0.8506807634681195	draw_card	0.402	columbia_card_task_fmri	16.0	0.8	89.0	-70.0	0.2	10.0	1.0	2.0	2.9604376457536468	0.402	n/a	stim	poldrack-single-stim	s172	False	1
132.6	1.556	134.156	-2.761791874579231	draw_card	1.556	columbia_card_task_fmri	16.0	0.7777777777777778	89.0	-70.0	0.2222222222222222	10.0	2.0	2.0	4.313985532127486	1.556	n/a	stim	poldrack-single-stim	s172	False	1
134.16	0.44	134.6	-5.15068076346812	end_round	0.44	columbia_card_task_fmri	16.0	0.75	71.0	-70.0	0.25	10.0	3.0	2.0	5.799394799388143	0.44	2.0	stim	poldrack-single-stim	s172	False	1
135.353	1.5	134.602	n/a	-1.0	2.318	columbia_card_task_fmri	n/a	n/a	-1.0	n/a	n/a	n/a	n/a	n/a	n/a	n/a	n/a	ITI	poldrack-single-stim	s172	False	0
136.923	1.142	138.065	-1.5673474301347865	draw_card	1.142	columbia_card_task_fmri	7.0	0.9166666666666666	89.0	-100.0	0.0833333333333333	12.0	1.0	1.0	-1.8660351897882808	1.142	1.0	stim	poldrack-single-stim	s172	False	0
138.818	1.5	138.067	n/a	-1.0	2.522	columbia_card_task_fmri	n/a	n/a	-1.0	n/a	n/a	n/a	n/a	n/a	n/a	n/a	n/a	ITI	poldrack-single-stim	s172	False	0
140.592	0.967	141.559	-1.3173474301347845	draw_card	0.967	columbia_card_task_fmri	14.0	0.8333333333333334	89.0	-80.0	0.1666666666666666	12.0	1.0	2.0	3.592137312060945	0.967	n/a	stim	poldrack-single-stim	s172	False	1
141.562	1.024	142.586	-2.7415898543772137	draw_card	1.024	columbia_card_task_fmri	14.0	0.8181818181818181	89.0	-80.0	0.1818181818181818	12.0	2.0	2.0	4.815640036224789	1.024	n/a	stim	poldrack-single-stim	s172	False	1
142.588	0.488	143.076	-4.450680763468119	end_round	0.488	columbia_card_task_fmri	14.0	0.8	71.0	-80.0	0.2	12.0	3.0	2.0	6.160286711472285	0.488	2.0	stim	poldrack-single-stim	s172	False	1
143.83	1.5	143.079	n/a	-1.0	2.998	columbia_card_task_fmri	n/a	n/a	-1.0	n/a	n/a	n/a	n/a	n/a	n/a	n/a	n/a	ITI	poldrack-single-stim	s172	False	0
146.08	0.954	147.034	0.3493192365318798	draw_card	0.954	columbia_card_task_fmri	15.0	0.8333333333333334	89.0	-75.0	0.1666666666666666	12.0	1.0	2.0	2.1015027263622663	0.954	n/a	stim	poldrack-single-stim	s172	False	1
147.036	0.952	147.988	-1.0143171271044853	draw_card	0.952	columbia_card_task_fmri	15.0	0.8181818181818181	89.0	-75.0	0.1818181818181818	12.0	2.0	2.0	3.272936392123224	0.952	n/a	stim	poldrack-single-stim	s172	False	1
147.991	0.538	148.529	-2.65068076346812	end_round	0.538	columbia_card_task_fmri	15.0	0.8	71.0	-75.0	0.2	12.0	3.0	2.0	4.560358824754967	0.538	2.0	stim	poldrack-single-stim	s172	False	1
149.283	1.5	148.532	n/a	-1.0	2.318	columbia_card_task_fmri	n/a	n/a	-1.0	n/a	n/a	n/a	n/a	n/a	n/a	n/a	n/a	ITI	poldrack-single-stim	s172	False	0
150.854	0.856	151.71	-0.6506807634681202	draw_card	0.856	columbia_card_task_fmri	15.0	0.8	89.0	-65.0	0.2	15.0	1.0	3.0	0.560570654947842	0.856	n/a	stim	poldrack-single-stim	s172	False	1
151.712	0.704	152.416	-1.7935379063252626	draw_card	0.704	columbia_card_task_fmri	15.0	0.7857142857142857	89.0	-65.0	0.2142857142857142	15.0	2.0	3.0	1.386594944628488	0.704	n/a	stim	poldrack-single-stim	s172	False	1
152.42	1.28	153.7	-3.112219225006584	end_round	1.28	columbia_card_task_fmri	15.0	0.7692307692307692	71.0	-65.0	0.2307692307692307	15.0	3.0	3.0	2.266477699614942	1.28	2.0	stim	poldrack-single-stim	s172	False	1
154.453	1.5	153.702	n/a	-1.0	2.25	columbia_card_task_fmri	n/a	n/a	-1.0	n/a	n/a	n/a	n/a	n/a	n/a	n/a	n/a	ITI	poldrack-single-stim	s172	False	0
155.957	0.839	156.796	-1.4006807634681202	draw_card	0.839	columbia_card_task_fmri	14.0	0.8125	89.0	-70.0	0.1875	16.0	1.0	3.0	1.346764428206189	0.839	n/a	stim	poldrack-single-stim	s172	False	1
156.799	0.52	157.319	-2.450680763468119	draw_card	0.52	columbia_card_task_fmri	14.0	0.8	89.0	-70.0	0.2	16.0	2.0	3.0	2.160479871067313	0.52	n/a	stim	poldrack-single-stim	s172	False	1
157.322	0.623	157.945	-3.65068076346812	draw_card	0.623	columbia_card_task_fmri	14.0	0.7857142857142857	89.0	-70.0	0.2142857142857142	16.0	3.0	3.0	3.0278100582577814	0.623	n/a	stim	poldrack-single-stim	s172	False	1
157.948	0.581	158.529	-5.035296148083505	end_round	0.581	columbia_card_task_fmri	14.0	0.7692307692307692	71.0	-70.0	0.2307692307692307	16.0	4.0	3.0	3.951691686905594	0.581	3.0	stim	poldrack-single-stim	s172	False	1
159.283	1.5	158.532	n/a	-1.0	2.454	columbia_card_task_fmri	n/a	n/a	-1.0	n/a	n/a	n/a	n/a	n/a	n/a	n/a	n/a	ITI	poldrack-single-stim	s172	False	0
160.99	0.66	161.65	-1.4631807634681202	draw_card	0.66	columbia_card_task_fmri	11.0	0.6875	89.0	-30.0	0.3125	16.0	1.0	5.0	-12.434117081422588	0.66	n/a	stim	poldrack-single-stim	s172	False	1
161.654	1.117	162.771	-2.3173474301347863	draw_card	1.117	columbia_card_task_fmri	11.0	0.6666666666666667	89.0	-30.0	0.3333333333333333	16.0	2.0	5.0	-12.110594087669575	1.117	n/a	stim	poldrack-single-stim	s172	False	1
162.775	0.505	163.28	-3.2935379063252643	end_round	0.505	columbia_card_task_fmri	11.0	0.6428571428571428	71.0	-30.0	0.3571428571428571	16.0	3.0	5.0	-11.792776130828006	0.505	2.0	stim	poldrack-single-stim	s172	False	1
164.033	1.5	163.282	n/a	-1.0	2.318	columbia_card_task_fmri	n/a	n/a	-1.0	n/a	n/a	n/a	n/a	n/a	n/a	n/a	n/a	ITI	poldrack-single-stim	s172	False	0
165.604	0.486	166.09	3.34931923653188	draw_card	0.486	columbia_card_task_fmri	15.0	0.8666666666666667	89.0	-75.0	0.1333333333333333	15.0	1.0	2.0	-0.845224657135109	0.486	n/a	stim	poldrack-single-stim	s172	False	1
166.092	0.483	166.575	2.492176379389024	draw_card	0.483	columbia_card_task_fmri	15.0	0.8571428571428572	89.0	-75.0	0.1428571428571428	15.0	2.0	2.0	0.0540408695799392	0.483	n/a	stim	poldrack-single-stim	s172	False	1
166.578	0.578	167.156	1.503165390378033	draw_card	0.578	columbia_card_task_fmri	15.0	0.8461538461538461	89.0	-75.0	0.1538461538461538	15.0	3.0	2.0	1.0326520436239015	0.578	n/a	stim	poldrack-single-stim	s172	False	1
167.158	0.858	168.016	0.3493192365318798	end_round	0.858	columbia_card_task_fmri	15.0	0.8333333333333334	71.0	-75.0	0.1666666666666666	15.0	4.0	2.0	2.1015027263622663	0.858	3.0	stim	poldrack-single-stim	s172	False	1
168.77	1.5	168.019	n/a	-1.0	2.318	columbia_card_task_fmri	n/a	n/a	-1.0	n/a	n/a	n/a	n/a	n/a	n/a	n/a	n/a	ITI	poldrack-single-stim	s172	False	0
170.341	0.954	171.295	5.082652569865214	draw_card	0.954	columbia_card_task_fmri	17.0	0.8666666666666667	89.0	-75.0	0.1333333333333333	15.0	1.0	2.0	-0.1653987375188244	0.954	n/a	stim	poldrack-single-stim	s172	False	1
171.298	0.389	171.687	4.206462093674739	draw_card	0.389	columbia_card_task_fmri	17.0	0.8571428571428572	89.0	-75.0	0.1428571428571428	15.0	2.0	2.0	0.7538529705785386	0.389	n/a	stim	poldrack-single-stim	s172	False	1
171.69	0.443	172.133	3.1954730826857265	draw_card	0.443	columbia_card_task_fmri	17.0	0.8461538461538461	89.0	-75.0	0.1538461538461538	15.0	3.0	2.0	1.7542136259487684	0.443	3.0	stim	poldrack-single-stim	s172	False	0
172.887	1.5	172.136	n/a	-1.0	2.59	columbia_card_task_fmri	n/a	n/a	-1.0	n/a	n/a	n/a	n/a	n/a	n/a	n/a	n/a	ITI	poldrack-single-stim	s172	False	0
174.73	0.686	175.416	0.6618192365318798	draw_card	0.686	columbia_card_task_fmri	2.0	0.9375	89.0	-25.0	0.0625	16.0	1.0	1.0	-24.8963479305673	0.686	n/a	stim	poldrack-single-stim	s172	False	1
175.419	0.352	175.771	0.5493192365318798	draw_card	0.352	columbia_card_task_fmri	2.0	0.9333333333333332	89.0	-25.0	0.0666666666666666	16.0	2.0	1.0	-24.697299737197824	0.352	n/a	stim	poldrack-single-stim	s172	False	1
175.774	0.466	176.24	0.4207478079604514	draw_card	0.466	columbia_card_task_fmri	2.0	0.9285714285714286	89.0	-25.0	0.0714285714285714	16.0	3.0	1.0	-24.479004065319387	0.466	n/a	stim	poldrack-single-stim	s172	False	1
176.243	0.914	177.157	0.2723961596088029	draw_card	0.914	columbia_card_task_fmri	2.0	0.9230769230769232	89.0	-25.0	0.0769230769230769	16.0	4.0	1.0	-24.23818816005338	0.914	n/a	stim	poldrack-single-stim	s172	False	1
177.16	0.472	177.632	0.09931923653188	end_round	0.472	columbia_card_task_fmri	2.0	0.9166666666666666	71.0	-25.0	0.0833333333333333	16.0	5.0	1.0	-23.9707586968962	0.472	4.0	stim	poldrack-single-stim	s172	False	1
178.387	1.5	177.636	n/a	-1.0	2.25	columbia_card_task_fmri	n/a	n/a	-1.0	n/a	n/a	n/a	n/a	n/a	n/a	n/a	n/a	ITI	poldrack-single-stim	s172	False	0
179.89	0.528	180.418	2.84931923653188	draw_card	0.528	columbia_card_task_fmri	9.0	0.9375	89.0	-95.0	0.0625	16.0	1.0	1.0	-6.264520705909028	0.528	n/a	stim	poldrack-single-stim	s172	False	1
180.421	0.436	180.857	2.415985903198547	draw_card	0.436	columbia_card_task_fmri	9.0	0.9333333333333332	89.0	-95.0	0.0666666666666666	16.0	2.0	1.0	-5.496826290945592	0.436	n/a	stim	poldrack-single-stim	s172	False	1
180.861	0.434	181.295	1.920747807960452	draw_card	0.434	columbia_card_task_fmri	9.0	0.9285714285714286	89.0	-95.0	0.0714285714285714	16.0	3.0	1.0	-4.6549629021424686	0.434	n/a	stim	poldrack-single-stim	s172	False	1
181.297	0.714	182.011	1.3493192365318798	end_round	0.714	columbia_card_task_fmri	9.0	0.9230769230769232	71.0	-95.0	0.0769230769230769	16.0	4.0	1.0	-3.726321498853615	0.714	3.0	stim	poldrack-single-stim	s172	False	1
182.766	1.5	182.015	n/a	-1.0	2.25	columbia_card_task_fmri	n/a	n/a	-1.0	n/a	n/a	n/a	n/a	n/a	n/a	n/a	n/a	ITI	poldrack-single-stim	s172	False	0
184.269	0.75	185.019	4.41181923653188	draw_card	0.75	columbia_card_task_fmri	11.0	0.9375	89.0	-100.0	0.0625	16.0	1.0	1.0	-4.570243309145933	0.75	n/a	stim	poldrack-single-stim	s172	False	1
185.022	0.699	185.721	3.94931923653188	draw_card	0.699	columbia_card_task_fmri	11.0	0.9333333333333332	89.0	-100.0	0.0666666666666666	16.0	2.0	1.0	-3.750867806153199	0.699	n/a	stim	poldrack-single-stim	s172	False	1
185.724	0.474	186.198	3.4207478079604527	draw_card	0.474	columbia_card_task_fmri	11.0	0.9285714285714286	89.0	-100.0	0.0714285714285714	16.0	3.0	1.0	-2.8523308996858106	0.474	n/a	stim	poldrack-single-stim	s172	False	1
186.201	0.6	186.801	2.8108576980703424	draw_card	0.6	columbia_card_task_fmri	11.0	0.9230769230769232	89.0	-100.0	0.0769230769230769	16.0	4.0	1.0	-1.861174836613504	0.6	n/a	stim	poldrack-single-stim	s172	False	1
186.804	0.66	187.464	2.09931923653188	end_round	0.66	columbia_card_task_fmri	11.0	0.9166666666666666	71.0	-100.0	0.0833333333333333	16.0	5.0	1.0	-0.7605679307377784	0.66	4.0	stim	poldrack-single-stim	s172	False	1
188.218	1.5	187.467	n/a	-1.0	2.522	columbia_card_task_fmri	n/a	n/a	-1.0	n/a	n/a	n/a	n/a	n/a	n/a	n/a	n/a	ITI	poldrack-single-stim	s172	False	0
189.994	0.896	190.89	4.97431923653188	draw_card	0.896	columbia_card_task_fmri	16.0	0.875	89.0	-75.0	0.125	16.0	1.0	2.0	-1.3438875331055584	0.896	n/a	stim	poldrack-single-stim	s172	False	1
190.894	0.394	191.288	4.215985903198547	draw_card	0.394	columbia_card_task_fmri	16.0	0.8666666666666667	89.0	-75.0	0.1333333333333333	16.0	2.0	2.0	-0.5053119354847588	0.394	n/a	stim	poldrack-single-stim	s172	False	1
191.291	0.627	191.918	3.3493192365318816	draw_card	0.627	columbia_card_task_fmri	16.0	0.8571428571428572	89.0	-75.0	0.1428571428571428	16.0	3.0	2.0	0.4039466887197633	0.627	n/a	stim	poldrack-single-stim	s172	False	1
191.921	0.559	192.48	2.34931923653188	draw_card	0.559	columbia_card_task_fmri	16.0	0.8461538461538461	89.0	-75.0	0.1538461538461538	16.0	4.0	2.0	1.393432610397344	0.559	4.0	stim	poldrack-single-stim	s172	False	0
193.235	1.5	192.484	n/a	-1.0	2.454	columbia_card_task_fmri	n/a	n/a	-1.0	n/a	n/a	n/a	n/a	n/a	n/a	n/a	n/a	ITI	poldrack-single-stim	s172	False	0
194.942	0.844	195.786	5.22431923653188	draw_card	0.844	columbia_card_task_fmri	17.0	0.875	89.0	-80.0	0.125	16.0	1.0	2.0	0.6403005630870489	0.844	n/a	stim	poldrack-single-stim	s172	False	1
195.789	0.336	196.125	4.415985903198548	draw_card	0.336	columbia_card_task_fmri	17.0	0.8666666666666667	89.0	-80.0	0.1333333333333333	16.0	2.0	2.0	1.5341738815057973	0.336	n/a	stim	poldrack-single-stim	s172	False	1
196.128	0.553	196.681	3.4921763793890257	draw_card	0.553	columbia_card_task_fmri	17.0	0.8571428571428572	89.0	-80.0	0.1428571428571428	16.0	3.0	2.0	2.503390819831015	0.553	n/a	stim	poldrack-single-stim	s172	False	1
196.685	0.418	197.103	2.4262423134549564	end_round	0.418	columbia_card_task_fmri	17.0	0.8461538461538461	71.0	-80.0	0.1538461538461538	16.0	4.0	2.0	3.558124949635765	0.418	3.0	stim	poldrack-single-stim	s172	False	1
197.858	1.5	197.107	n/a	-1.0	2.25	columbia_card_task_fmri	n/a	n/a	-1.0	n/a	n/a	n/a	n/a	n/a	n/a	n/a	n/a	ITI	poldrack-single-stim	s172	False	0
210.364	0.68	211.044	-0.4840140968014523	draw_card	0.68	columbia_card_task_fmri	13.0	0.8333333333333334	89.0	-70.0	0.1666666666666666	6.0	1.0	1.0	-0.5070898491730134	0.68	n/a	stim	poldrack-single-stim	s172	False	1
211.048	0.51	211.558	-3.25068076346812	draw_card	0.51	columbia_card_task_fmri	13.0	0.8	89.0	-70.0	0.2	6.0	2.0	1.0	1.760501746769858	0.51	n/a	stim	poldrack-single-stim	s172	False	1
211.561	0.414	211.975	-7.40068076346812	end_round	0.414	columbia_card_task_fmri	13.0	0.75	71.0	-70.0	0.25	6.0	3.0	1.0	4.50041590839	0.414	2.0	stim	poldrack-single-stim	s172	False	1
212.728	1.5	211.977	n/a	-1.0	2.454	columbia_card_task_fmri	n/a	n/a	-1.0	n/a	n/a	n/a	n/a	n/a	n/a	n/a	n/a	ITI	poldrack-single-stim	s172	False	0
214.436	0.445	214.881	-0.4840140968014523	draw_card	0.445	columbia_card_task_fmri	15.0	0.8333333333333334	89.0	-80.0	0.1666666666666666	6.0	1.0	1.0	3.9647969768214857	0.445	n/a	stim	poldrack-single-stim	s172	False	1
214.884	0.359	215.243	-3.65068076346812	draw_card	0.359	columbia_card_task_fmri	15.0	0.8	89.0	-80.0	0.2	6.0	2.0	1.0	6.5602696319491365	0.359	n/a	stim	poldrack-single-stim	s172	False	1
215.247	0.436	215.683	-8.40068076346812	end_round	0.436	columbia_card_task_fmri	15.0	0.75	71.0	-80.0	0.25	6.0	3.0	1.0	9.69635391031488	0.436	2.0	stim	poldrack-single-stim	s172	False	1
216.439	1.5	215.688	n/a	-1.0	2.454	columbia_card_task_fmri	n/a	n/a	-1.0	n/a	n/a	n/a	n/a	n/a	n/a	n/a	n/a	ITI	poldrack-single-stim	s172	False	0
218.146	0.46	218.606	1.1826525698652135	draw_card	0.46	columbia_card_task_fmri	16.0	0.8333333333333334	89.0	-75.0	0.1666666666666666	6.0	1.0	1.0	2.474160734931008	0.46	n/a	stim	poldrack-single-stim	s172	False	1
218.609	0.558	219.167	-1.8506807634681195	end_round	0.558	columbia_card_task_fmri	16.0	0.8	71.0	-75.0	0.2	6.0	2.0	1.0	4.96034020213482	0.558	1.0	stim	poldrack-single-stim	s172	False	1
219.921	1.5	219.17	n/a	-1.0	2.522	columbia_card_task_fmri	n/a	n/a	-1.0	n/a	n/a	n/a	n/a	n/a	n/a	n/a	n/a	ITI	poldrack-single-stim	s172	False	0
221.697	0.58	222.277	2.34931923653188	draw_card	0.58	columbia_card_task_fmri	21.0	0.75	89.0	-55.0	0.25	8.0	1.0	2.0	1.4694833412394068	0.58	n/a	stim	poldrack-single-stim	s172	False	1
222.281	0.48	222.761	-0.3649664777538337	draw_card	0.48	columbia_card_task_fmri	21.0	0.7142857142857143	89.0	-55.0	0.2857142857142857	8.0	2.0	2.0	2.893741401485965	0.48	n/a	stim	poldrack-single-stim	s172	False	1
222.765	0.46	223.225	-3.9840140968014506	end_round	0.46	columbia_card_task_fmri	21.0	0.6666666666666667	71.0	-55.0	0.3333333333333333	8.0	3.0	2.0	4.387110600151434	0.46	2.0	stim	poldrack-single-stim	s172	False	1
223.98	1.5	223.229	n/a	-1.0	2.454	columbia_card_task_fmri	n/a	n/a	-1.0	n/a	n/a	n/a	n/a	n/a	n/a	n/a	n/a	ITI	poldrack-single-stim	s172	False	0
225.687	0.81	226.497	3.59931923653188	draw_card	0.81	columbia_card_task_fmri	26.0	0.75	89.0	-65.0	0.25	8.0	1.0	2.0	7.964368293324075	0.81	n/a	stim	poldrack-single-stim	s172	False	1
226.501	0.384	226.885	0.3493192365318833	draw_card	0.384	columbia_card_task_fmri	26.0	0.7142857142857143	89.0	-65.0	0.2857142857142857	8.0	2.0	2.0	9.669757772272096	0.384	2.0	stim	poldrack-single-stim	s172	False	0
227.64	1.5	226.889	n/a	-1.0	2.658	columbia_card_task_fmri	n/a	n/a	-1.0	n/a	n/a	n/a	n/a	n/a	n/a	n/a	n/a	ITI	poldrack-single-stim	s172	False	0
229.551	0.589	230.14	-1.3173474301347865	draw_card	0.589	columbia_card_task_fmri	15.0	0.7777777777777778	89.0	-60.0	0.2222222222222222	9.0	1.0	2.0	-0.2589010144150983	0.589	n/a	stim	poldrack-single-stim	s172	False	1
230.144	0.343	230.487	-3.40068076346812	draw_card	0.343	columbia_card_task_fmri	15.0	0.75	89.0	-60.0	0.25	9.0	2.0	2.0	1.0364953567211366	0.343	2.0	stim	poldrack-single-stim	s172	False	0
231.241	1.5	230.49	n/a	-1.0	2.386	columbia_card_task_fmri	n/a	n/a	-1.0	n/a	n/a	n/a	n/a	n/a	n/a	n/a	n/a	ITI	poldrack-single-stim	s172	False	0
232.88	0.539	233.419	3.049319236531881	draw_card	0.539	columbia_card_task_fmri	13.0	0.9	89.0	-90.0	0.1	10.0	1.0	1.0	-0.5393614779936726	0.539	n/a	stim	poldrack-single-stim	s172	False	1
233.422	0.389	233.811	1.9048747920874352	draw_card	0.389	columbia_card_task_fmri	13.0	0.8888888888888888	89.0	-90.0	0.1111111111111111	10.0	2.0	1.0	0.9303259708158612	0.389	n/a	stim	poldrack-single-stim	s172	False	1
233.815	0.472	234.287	0.4743192365318798	end_round	0.472	columbia_card_task_fmri	13.0	0.875	71.0	-90.0	0.125	10.0	3.0	1.0	2.624503266259733	0.472	2.0	stim	poldrack-single-stim	s172	False	1
235.042	1.5	234.291	n/a	-1.0	2.522	columbia_card_task_fmri	n/a	n/a	-1.0	n/a	n/a	n/a	n/a	n/a	n/a	n/a	n/a	ITI	poldrack-single-stim	s172	False	0
236.817	0.488	237.305	4.34931923653188	draw_card	0.488	columbia_card_task_fmri	15.0	0.9	89.0	-95.0	0.1	10.0	1.0	1.0	1.5605128834745834	0.488	n/a	stim	poldrack-single-stim	s172	False	1
237.308	0.378	237.686	3.1270970143096566	draw_card	0.378	columbia_card_task_fmri	15.0	0.8888888888888888	89.0	-95.0	0.1111111111111111	10.0	2.0	1.0	3.130093799742756	0.378	n/a	stim	poldrack-single-stim	s172	False	1
237.689	0.922	238.611	1.5993192365318798	draw_card	0.922	columbia_card_task_fmri	15.0	0.875	89.0	-95.0	0.125	10.0	3.0	1.0	4.939421693063412	0.922	n/a	stim	poldrack-single-stim	s172	False	1
238.614	0.455	239.069	-0.3649664777538337	end_round	0.455	columbia_card_task_fmri	15.0	0.8571428571428572	71.0	-95.0	0.1428571428571428	10.0	4.0	1.0	7.05223078399462	0.455	3.0	stim	poldrack-single-stim	s172	False	1
239.825	1.5	239.074	n/a	-1.0	2.59	columbia_card_task_fmri	n/a	n/a	-1.0	n/a	n/a	n/a	n/a	n/a	n/a	n/a	n/a	ITI	poldrack-single-stim	s172	False	0
241.668	0.54	242.208	0.1493192365318805	draw_card	0.54	columbia_card_task_fmri	16.0	0.8	89.0	-65.0	0.2	10.0	1.0	2.0	0.9605471184589298	0.54	n/a	stim	poldrack-single-stim	s172	False	1
242.212	0.371	242.583	-1.6506807634681184	draw_card	0.371	columbia_card_task_fmri	16.0	0.7777777777777778	89.0	-65.0	0.2222222222222222	10.0	2.0	2.0	2.2353923126831354	0.371	n/a	stim	poldrack-single-stim	s172	False	1
242.587	0.455	243.042	-3.90068076346812	end_round	0.455	columbia_card_task_fmri	16.0	0.75	71.0	-65.0	0.25	10.0	3.0	2.0	3.634432417699646	0.455	2.0	stim	poldrack-single-stim	s172	False	1
243.796	1.5	243.045	n/a	-1.0	2.386	columbia_card_task_fmri	n/a	n/a	-1.0	n/a	n/a	n/a	n/a	n/a	n/a	n/a	n/a	ITI	poldrack-single-stim	s172	False	0
245.435	0.432	245.867	-1.1506807634681202	draw_card	0.432	columbia_card_task_fmri	7.0	0.9166666666666666	89.0	-95.0	0.0833333333333333	12.0	1.0	1.0	-3.2478610654903584	0.432	n/a	stim	poldrack-single-stim	s172	False	1
245.871	0.328	246.199	-1.9234080361953936	draw_card	0.328	columbia_card_task_fmri	7.0	0.9090909090909092	89.0	-95.0	0.0909090909090909	12.0	2.0	1.0	-2.1163169918996587	0.328	n/a	stim	poldrack-single-stim	s172	False	1
246.203	0.397	246.6	-2.8506807634681204	draw_card	0.397	columbia_card_task_fmri	7.0	0.9	89.0	-95.0	0.1	12.0	3.0	1.0	-0.8393421220511463	0.397	n/a	stim	poldrack-single-stim	s172	False	1
246.604	0.499	247.103	-3.984014096801454	end_round	0.499	columbia_card_task_fmri	7.0	0.8888888888888888	71.0	-95.0	0.1111111111111111	12.0	4.0	1.0	0.6160747675168103	0.499	3.0	stim	poldrack-single-stim	s172	False	1
247.858	1.5	247.107	n/a	-1.0	2.59	columbia_card_task_fmri	n/a	n/a	-1.0	n/a	n/a	n/a	n/a	n/a	n/a	n/a	n/a	ITI	poldrack-single-stim	s172	False	0
249.702	0.824	250.526	-0.4840140968014523	draw_card	0.824	columbia_card_task_fmri	14.0	0.8333333333333334	89.0	-75.0	0.1666666666666666	12.0	1.0	2.0	1.728845166917953	0.824	n/a	stim	poldrack-single-stim	s172	False	1
250.53	0.367	250.897	-1.832498945286304	draw_card	0.367	columbia_card_task_fmri	14.0	0.8181818181818181	89.0	-75.0	0.1818181818181818	12.0	2.0	2.0	2.887261531405347	0.367	2.0	stim	poldrack-single-stim	s172	False	0
251.652	1.5	250.901	n/a	-1.0	2.318	columbia_card_task_fmri	n/a	n/a	-1.0	n/a	n/a	n/a	n/a	n/a	n/a	n/a	n/a	ITI	poldrack-single-stim	s172	False	0
253.224	0.486	253.71	1.1826525698652135	draw_card	0.486	columbia_card_task_fmri	15.0	0.8333333333333334	89.0	-70.0	0.1666666666666666	12.0	1.0	2.0	0.2382197373770189	0.486	n/a	stim	poldrack-single-stim	s172	False	1
253.713	0.662	254.375	-0.105226218013577	draw_card	0.662	columbia_card_task_fmri	15.0	0.8181818181818181	89.0	-70.0	0.1818181818181818	12.0	2.0	2.0	1.3445667345519503	0.662	n/a	stim	poldrack-single-stim	s172	False	1
254.379	0.479	254.858	-1.6506807634681202	end_round	0.479	columbia_card_task_fmri	15.0	0.8	71.0	-70.0	0.2	12.0	3.0	2.0	2.560458510045944	0.479	2.0	stim	poldrack-single-stim	s172	False	1
255.613	1.5	254.862	n/a	-1.0	2.25	columbia_card_task_fmri	n/a	n/a	-1.0	n/a	n/a	n/a	n/a	n/a	n/a	n/a	n/a	ITI	poldrack-single-stim	s172	False	0
257.118	0.557	257.675	-0.8506807634681195	draw_card	0.557	columbia_card_task_fmri	16.0	0.8	89.0	-70.0	0.2	15.0	1.0	3.0	2.9604376457536468	0.557	n/a	stim	poldrack-single-stim	s172	False	1
257.679	0.304	257.983	-2.079252192039549	draw_card	0.304	columbia_card_task_fmri	16.0	0.7857142857142857	89.0	-70.0	0.2142857142857142	15.0	2.0	3.0	3.848420702035778	0.304	n/a	stim	poldrack-single-stim	s172	False	1
257.986	0.904	258.89	-3.496834609621967	draw_card	0.904	columbia_card_task_fmri	16.0	0.7692307692307692	89.0	-70.0	0.2307692307692307	15.0	3.0	3.0	4.794301686950089	0.904	n/a	stim	poldrack-single-stim	s172	False	1
258.894	0.489	259.383	-5.15068076346812	end_round	0.489	columbia_card_task_fmri	16.0	0.75	71.0	-70.0	0.25	15.0	4.0	3.0	5.799394799388143	0.489	3.0	stim	poldrack-single-stim	s172	False	1
260.138	1.5	259.387	n/a	-1.0	2.454	columbia_card_task_fmri	n/a	n/a	-1.0	n/a	n/a	n/a	n/a	n/a	n/a	n/a	n/a	ITI	poldrack-single-stim	s172	False	0
261.846	0.514	262.36	-0.4631807634681202	draw_card	0.514	columbia_card_task_fmri	14.0	0.8125	89.0	-65.0	0.1875	16.0	1.0	3.0	-0.604679678387388	0.514	n/a	stim	poldrack-single-stim	s172	False	1
262.363	0.367	262.73	-1.4506807634681191	draw_card	0.367	columbia_card_task_fmri	14.0	0.8	89.0	-65.0	0.2	16.0	2.0	3.0	0.1605947872432942	0.367	n/a	stim	poldrack-single-stim	s172	False	1
262.735	0.542	263.277	-2.5792521920395477	draw_card	0.542	columbia_card_task_fmri	14.0	0.7857142857142857	89.0	-65.0	0.2142857142857142	16.0	3.0	3.0	0.9762925664133384	0.542	n/a	stim	poldrack-single-stim	s172	False	1
263.281	0.566	263.847	-3.881449994237352	draw_card	0.566	columbia_card_task_fmri	14.0	0.7692307692307692	89.0	-65.0	0.2307692307692307	16.0	4.0	3.0	1.8451755664425955	0.566	n/a	stim	poldrack-single-stim	s172	False	1
263.85	0.679	264.529	-5.40068076346812	end_round	0.679	columbia_card_task_fmri	14.0	0.75	71.0	-65.0	0.25	16.0	5.0	3.0	2.7684510490293555	0.679	4.0	stim	poldrack-single-stim	s172	False	1
265.285	1.5	264.534	n/a	-1.0	3.27	columbia_card_task_fmri	n/a	n/a	-1.0	n/a	n/a	n/a	n/a	n/a	n/a	n/a	n/a	ITI	poldrack-single-stim	s172	False	0
267.81	0.636	268.446	-0.7131807634681202	draw_card	0.636	columbia_card_task_fmri	16.0	0.8125	89.0	-75.0	0.1875	16.0	1.0	3.0	4.07880791750372	0.636	n/a	stim	poldrack-single-stim	s172	False	1
268.449	0.365	268.814	-1.8506807634681195	draw_card	0.365	columbia_card_task_fmri	16.0	0.8	89.0	-75.0	0.2	16.0	2.0	3.0	4.96034020213482	0.365	n/a	stim	poldrack-single-stim	s172	False	1
268.817	0.588	269.405	-3.1506807634681184	draw_card	0.588	columbia_card_task_fmri	16.0	0.7857142857142857	89.0	-75.0	0.2142857142857142	16.0	3.0	3.0	5.899955226873313	0.588	n/a	stim	poldrack-single-stim	s172	False	1
269.409	0.402	269.811	-4.650680763468124	end_round	0.402	columbia_card_task_fmri	16.0	0.7692307692307692	71.0	-75.0	0.2307692307692307	16.0	4.0	3.0	6.900834395871282	0.402	3.0	stim	poldrack-single-stim	s172	False	1
270.567	1.5	269.816	n/a	-1.0	2.25	columbia_card_task_fmri	n/a	n/a	-1.0	n/a	n/a	n/a	n/a	n/a	n/a	n/a	n/a	ITI	poldrack-single-stim	s172	False	0
272.071	0.94	273.011	3.549319236531881	draw_card	0.94	columbia_card_task_fmri	16.0	0.8666666666666667	89.0	-80.0	0.1333333333333333	15.0	1.0	2.0	1.1942585198388933	0.94	n/a	stim	poldrack-single-stim	s172	False	1
273.015	0.408	273.423	2.635033522246168	draw_card	0.408	columbia_card_task_fmri	16.0	0.8571428571428572	89.0	-80.0	0.1428571428571428	15.0	2.0	2.0	2.1534824360363665	0.408	n/a	stim	poldrack-single-stim	s172	False	1
273.426	0.577	274.003	1.5800884673011095	draw_card	0.577	columbia_card_task_fmri	16.0	0.8461538461538461	89.0	-80.0	0.1538461538461538	15.0	3.0	2.0	3.1973418954777166	0.577	n/a	stim	poldrack-single-stim	s172	False	1
274.008	0.549	274.557	0.3493192365318815	draw_card	0.549	columbia_card_task_fmri	16.0	0.8333333333333334	89.0	-80.0	0.1666666666666666	15.0	4.0	2.0	4.337457023460463	0.549	n/a	stim	poldrack-single-stim	s172	False	1
274.562	0.672	275.234	-1.105226218013577	end_round	0.672	columbia_card_task_fmri	16.0	0.8181818181818181	71.0	-80.0	0.1818181818181818	15.0	5.0	2.0	5.586994195226826	0.672	4.0	stim	poldrack-single-stim	s172	False	1
275.99	1.5	275.239	n/a	-1.0	2.25	columbia_card_task_fmri	n/a	n/a	-1.0	n/a	n/a	n/a	n/a	n/a	n/a	n/a	n/a	ITI	poldrack-single-stim	s172	False	0
277.494	0.516	278.01	4.415985903198548	draw_card	0.516	columbia_card_task_fmri	17.0	0.8666666666666667	89.0	-80.0	0.1333333333333333	15.0	1.0	2.0	1.5341738815057973	0.516	n/a	stim	poldrack-single-stim	s172	False	1
278.015	0.532	278.547	3.4921763793890257	draw_card	0.532	columbia_card_task_fmri	17.0	0.8571428571428572	89.0	-80.0	0.1428571428571428	15.0	2.0	2.0	2.503390819831015	0.532	n/a	stim	poldrack-single-stim	s172	False	1
278.552	0.388	278.94	2.4262423134549564	draw_card	0.388	columbia_card_task_fmri	17.0	0.8461538461538461	89.0	-80.0	0.1538461538461538	15.0	3.0	2.0	3.558124949635765	0.388	3.0	stim	poldrack-single-stim	s172	False	0
279.696	1.5	278.945	n/a	-1.0	2.318	columbia_card_task_fmri	n/a	n/a	-1.0	n/a	n/a	n/a	n/a	n/a	n/a	n/a	n/a	ITI	poldrack-single-stim	s172	False	0
281.268	0.495	281.763	0.3493192365318798	draw_card	0.495	columbia_card_task_fmri	1.0	0.9375	89.0	-15.0	0.0625	16.0	1.0	1.0	-27.552631252621147	0.495	n/a	stim	poldrack-single-stim	s172	False	1
281.768	0.376	282.144	0.2826525698652131	draw_card	0.376	columbia_card_task_fmri	1.0	0.9333333333333332	89.0	-15.0	0.0666666666666666	16.0	2.0	1.0	-27.43497686459433	0.376	n/a	stim	poldrack-single-stim	s172	False	1
282.149	0.358	282.507	0.206462093674737	draw_card	0.358	columbia_card_task_fmri	1.0	0.9285714285714286	89.0	-15.0	0.0714285714285714	16.0	3.0	1.0	-27.305925924521446	0.358	n/a	stim	poldrack-single-stim	s172	False	1
282.512	0.424	282.936	0.1185500057626489	draw_card	0.424	columbia_card_task_fmri	1.0	0.9230769230769232	89.0	-15.0	0.0769230769230769	16.0	4.0	1.0	-27.16353989995589	0.424	n/a	stim	poldrack-single-stim	s172	False	1
282.94	0.68	283.62	0.0159859031985464	draw_card	0.68	columbia_card_task_fmri	1.0	0.9166666666666666	89.0	-15.0	0.0833333333333333	16.0	5.0	1.0	-27.00539413112974	0.68	n/a	stim	poldrack-single-stim	s172	False	1
283.624	0.686	284.31	-0.1052262180135749	end_round	0.686	columbia_card_task_fmri	1.0	0.9090909090909092	71.0	-15.0	0.0909090909090909	16.0	6.0	1.0	-26.828413983216517	0.686	5.0	stim	poldrack-single-stim	s172	False	1
285.065	1.5	284.314	n/a	-1.0	2.726	columbia_card_task_fmri	n/a	n/a	-1.0	n/a	n/a	n/a	n/a	n/a	n/a	n/a	n/a	ITI	poldrack-single-stim	s172	False	0
287.046	0.773	287.819	3.47431923653188	draw_card	0.773	columbia_card_task_fmri	10.0	0.9375	89.0	-100.0	0.0625	16.0	1.0	1.0	-4.812284127882165	0.773	1.0	stim	poldrack-single-stim	s172	False	0
288.575	1.5	287.824	n/a	-1.0	2.386	columbia_card_task_fmri	n/a	n/a	-1.0	n/a	n/a	n/a	n/a	n/a	n/a	n/a	n/a	ITI	poldrack-single-stim	s172	False	0
290.215	0.994	291.209	4.09931923653188	draw_card	0.994	columbia_card_task_fmri	15.0	0.875	89.0	-75.0	0.125	16.0	1.0	2.0	-1.6745839239124791	0.994	n/a	stim	poldrack-single-stim	s172	False	1
291.214	0.52	291.734	3.34931923653188	draw_card	0.52	columbia_card_task_fmri	15.0	0.8666666666666667	89.0	-75.0	0.1333333333333333	16.0	2.0	2.0	-0.845224657135109	0.52	n/a	stim	poldrack-single-stim	s172	False	1
291.739	0.687	292.426	2.492176379389024	draw_card	0.687	columbia_card_task_fmri	15.0	0.8571428571428572	89.0	-75.0	0.1428571428571428	16.0	3.0	2.0	0.0540408695799392	0.687	n/a	stim	poldrack-single-stim	s172	False	1
292.43	0.383	292.813	1.503165390378033	end_round	0.383	columbia_card_task_fmri	15.0	0.8461538461538461	71.0	-75.0	0.1538461538461538	16.0	4.0	2.0	1.0326520436239015	0.383	3.0	stim	poldrack-single-stim	s172	False	1
293.569	1.5	292.818	n/a	-1.0	2.318	columbia_card_task_fmri	n/a	n/a	-1.0	n/a	n/a	n/a	n/a	n/a	n/a	n/a	n/a	ITI	poldrack-single-stim	s172	False	0
295.141	0.417	295.558	4.34931923653188	draw_card	0.417	columbia_card_task_fmri	16.0	0.875	89.0	-80.0	0.125	16.0	1.0	2.0	0.3096014587254885	0.417	n/a	stim	poldrack-single-stim	s172	False	1
295.562	0.39	295.952	3.549319236531881	draw_card	0.39	columbia_card_task_fmri	16.0	0.8666666666666667	89.0	-80.0	0.1333333333333333	16.0	2.0	2.0	1.1942585198388933	0.39	n/a	stim	poldrack-single-stim	s172	False	1
295.956	0.343	296.299	2.635033522246168	draw_card	0.343	columbia_card_task_fmri	16.0	0.8571428571428572	89.0	-80.0	0.1428571428571428	16.0	3.0	2.0	2.1534824360363665	0.343	n/a	stim	poldrack-single-stim	s172	False	1
296.303	0.574	296.877	1.5800884673011095	draw_card	0.574	columbia_card_task_fmri	16.0	0.8461538461538461	89.0	-80.0	0.1538461538461538	16.0	4.0	2.0	3.1973418954777166	0.574	n/a	stim	poldrack-single-stim	s172	False	1
296.881	0.852	297.733	0.3493192365318815	end_round	0.852	columbia_card_task_fmri	16.0	0.8333333333333334	71.0	-80.0	0.1666666666666666	16.0	5.0	2.0	4.337457023460463	0.852	4.0	stim	poldrack-single-stim	s172	False	1
298.489	1.5	297.738	n/a	-1.0	2.25	columbia_card_task_fmri	n/a	n/a	-1.0	n/a	n/a	n/a	n/a	n/a	n/a	n/a	n/a	ITI	poldrack-single-stim	s172	False	0
299.993	1.455	301.448	1.5368192365318798	draw_card	1.455	columbia_card_task_fmri	4.0	0.6875	89.0	-5.0	0.3125	16.0	1.0	5.0	-27.25512429792841	1.455	1.0	stim	poldrack-single-stim	s172	False	0
302.203	1.5	301.452	n/a	-1.0	2.25	columbia_card_task_fmri	n/a	n/a	-1.0	n/a	n/a	n/a	n/a	n/a	n/a	n/a	n/a	ITI	poldrack-single-stim	s172	False	0
303.708	1.149	304.857	-1.3173474301347845	draw_card	1.149	columbia_card_task_fmri	14.0	0.8333333333333334	89.0	-80.0	0.1666666666666666	6.0	1.0	1.0	3.592137312060945	1.149	1.0	stim	poldrack-single-stim	s172	False	0
305.612	1.5	304.861	n/a	-1.0	2.454	columbia_card_task_fmri	n/a	n/a	-1.0	n/a	n/a	n/a	n/a	n/a	n/a	n/a	n/a	ITI	poldrack-single-stim	s172	False	0
307.32	0.788	308.108	0.3493192365318798	draw_card	0.788	columbia_card_task_fmri	15.0	0.8333333333333334	89.0	-75.0	0.1666666666666666	6.0	1.0	1.0	2.1015027263622663	0.788	n/a	stim	poldrack-single-stim	s172	False	1
308.111	0.748	308.859	-2.65068076346812	draw_card	0.748	columbia_card_task_fmri	15.0	0.8	89.0	-75.0	0.2	6.0	2.0	1.0	4.560358824754967	0.748	n/a	stim	poldrack-single-stim	s172	False	1
308.864	0.806	309.67	-7.15068076346812	end_round	0.806	columbia_card_task_fmri	15.0	0.75	71.0	-75.0	0.25	6.0	3.0	1.0	7.531372794447666	0.806	2.0	stim	poldrack-single-stim	s172	False	1
310.425	1.5	309.674	n/a	-1.0	2.454	columbia_card_task_fmri	n/a	n/a	-1.0	n/a	n/a	n/a	n/a	n/a	n/a	n/a	n/a	ITI	poldrack-single-stim	s172	False	0
312.134	0.753	312.887	2.015985903198548	draw_card	0.753	columbia_card_task_fmri	16.0	0.8333333333333334	89.0	-70.0	0.1666666666666666	6.0	1.0	1.0	0.6108753399848901	0.753	1.0	stim	poldrack-single-stim	s172	False	0
313.642	1.5	312.891	n/a	-1.0	2.522	columbia_card_task_fmri	n/a	n/a	-1.0	n/a	n/a	n/a	n/a	n/a	n/a	n/a	n/a	ITI	poldrack-single-stim	s172	False	0
315.417	0.689	316.106	2.59931923653188	draw_card	0.689	columbia_card_task_fmri	23.0	0.75	89.0	-60.0	0.25	8.0	1.0	2.0	4.50041590839	0.689	n/a	stim	poldrack-single-stim	s172	False	1
316.109	0.397	316.506	-0.3649664777538319	draw_card	0.397	columbia_card_task_fmri	23.0	0.7142857142857143	89.0	-60.0	0.2857142857142857	8.0	2.0	2.0	6.055869200714628	0.397	n/a	stim	poldrack-single-stim	s172	False	1
316.51	0.391	316.901	-4.3173474301347845	end_round	0.391	columbia_card_task_fmri	23.0	0.6666666666666667	71.0	-60.0	0.3333333333333333	8.0	3.0	2.0	7.6867986308895375	0.391	2.0	stim	poldrack-single-stim	s172	False	1
317.656	1.5	316.905	n/a	-1.0	2.386	columbia_card_task_fmri	n/a	n/a	-1.0	n/a	n/a	n/a	n/a	n/a	n/a	n/a	n/a	ITI	poldrack-single-stim	s172	False	0
319.296	0.774	320.07	3.09931923653188	draw_card	0.774	columbia_card_task_fmri	27.0	0.75	89.0	-70.0	0.25	8.0	1.0	2.0	10.562348734906111	0.774	1.0	stim	poldrack-single-stim	s172	False	0
320.826	1.5	320.075	n/a	-1.0	2.454	columbia_card_task_fmri	n/a	n/a	-1.0	n/a	n/a	n/a	n/a	n/a	n/a	n/a	n/a	ITI	poldrack-single-stim	s172	False	0
322.534	0.764	323.298	-1.6506807634681184	draw_card	0.764	columbia_card_task_fmri	16.0	0.7777777777777778	89.0	-65.0	0.2222222222222222	9.0	1.0	2.0	2.2353923126831354	0.764	n/a	stim	poldrack-single-stim	s172	False	1
323.302	0.506	323.808	-3.90068076346812	draw_card	0.506	columbia_card_task_fmri	16.0	0.75	89.0	-65.0	0.25	9.0	2.0	2.0	3.634432417699646	0.506	n/a	stim	poldrack-single-stim	s172	False	1
323.812	0.53	324.342	-6.793537906325261	end_round	0.53	columbia_card_task_fmri	16.0	0.7142857142857143	71.0	-65.0	0.2857142857142857	9.0	3.0	2.0	5.152401472353784	0.53	2.0	stim	poldrack-single-stim	s172	False	1
325.098	1.5	324.347	n/a	-1.0	2.522	columbia_card_task_fmri	n/a	n/a	-1.0	n/a	n/a	n/a	n/a	n/a	n/a	n/a	n/a	ITI	poldrack-single-stim	s172	False	0
326.874	1.053	327.927	3.549319236531881	draw_card	1.053	columbia_card_task_fmri	13.0	0.9	89.0	-85.0	0.1	10.0	1.0	1.0	-2.039260748494637	1.053	1.0	stim	poldrack-single-stim	s172	False	0
328.683	1.5	327.932	n/a	-1.0	2.522	columbia_card_task_fmri	n/a	n/a	-1.0	n/a	n/a	n/a	n/a	n/a	n/a	n/a	n/a	ITI	poldrack-single-stim	s172	False	0
330.459	0.624	331.083	-1.4506807634681191	draw_card	0.624	columbia_card_task_fmri	14.0	0.8	89.0	-65.0	0.2	10.0	1.0	2.0	0.1605947872432942	0.624	n/a	stim	poldrack-single-stim	s172	False	1
331.087	0.424	331.511	-3.206236319023674	draw_card	0.424	columbia_card_task_fmri	14.0	0.7777777777777778	89.0	-65.0	0.2222222222222222	10.0	2.0	2.0	1.4039587577712531	0.424	n/a	stim	poldrack-single-stim	s172	False	1
331.516	0.604	332.12	-5.40068076346812	end_round	0.604	columbia_card_task_fmri	14.0	0.75	71.0	-65.0	0.25	10.0	3.0	2.0	2.7684510490293555	0.604	2.0	stim	poldrack-single-stim	s172	False	1
332.874	1.5	332.123	n/a	-1.0	2.59	columbia_card_task_fmri	n/a	n/a	-1.0	n/a	n/a	n/a	n/a	n/a	n/a	n/a	n/a	ITI	poldrack-single-stim	s172	False	0
334.719	1.162	335.881	-0.0506807634681187	draw_card	1.162	columbia_card_task_fmri	17.0	0.8	89.0	-70.0	0.2	10.0	1.0	2.0	3.360417261063578	1.162	n/a	stim	poldrack-single-stim	s172	False	1
335.884	0.511	336.395	-1.9840140968014524	draw_card	0.511	columbia_card_task_fmri	17.0	0.7777777777777778	89.0	-70.0	0.2222222222222222	10.0	2.0	2.0	4.729705628722368	0.511	2.0	stim	poldrack-single-stim	s172	False	0
337.153	1.5	336.402	n/a	-1.0	2.454	columbia_card_task_fmri	n/a	n/a	-1.0	n/a	n/a	n/a	n/a	n/a	n/a	n/a	n/a	ITI	poldrack-single-stim	s172	False	0
338.862	0.416	339.278	-1.3173474301347865	draw_card	0.416	columbia_card_task_fmri	13.0	0.8333333333333334	89.0	-75.0	0.1666666666666666	12.0	1.0	2.0	1.3561880719074146	0.416	n/a	stim	poldrack-single-stim	s172	False	1
339.283	0.462	339.745	-2.650680763468122	draw_card	0.462	columbia_card_task_fmri	13.0	0.8181818181818181	89.0	-75.0	0.1818181818181818	12.0	2.0	2.0	2.5015871194522568	0.462	n/a	stim	poldrack-single-stim	s172	False	1
339.748	0.737	340.485	-4.25068076346812	draw_card	0.737	columbia_card_task_fmri	13.0	0.8	89.0	-75.0	0.2	12.0	3.0	2.0	3.760397339627307	0.737	n/a	stim	poldrack-single-stim	s172	False	1
340.49	0.441	340.931	-6.206236319023674	end_round	0.441	columbia_card_task_fmri	13.0	0.7777777777777778	71.0	-75.0	0.2222222222222222	12.0	4.0	2.0	5.145426171037467	0.441	3.0	stim	poldrack-single-stim	s172	False	1
341.686	1.5	340.935	n/a	-1.0	2.318	columbia_card_task_fmri	n/a	n/a	-1.0	n/a	n/a	n/a	n/a	n/a	n/a	n/a	n/a	ITI	poldrack-single-stim	s172	False	0
343.259	0.607	343.866	0.3493192365318815	draw_card	0.607	columbia_card_task_fmri	14.0	0.8333333333333334	89.0	-70.0	0.1666666666666666	12.0	1.0	2.0	-0.1344353320980964	0.607	n/a	stim	poldrack-single-stim	s172	False	1
343.869	0.414	344.283	-0.9234080361953954	draw_card	0.414	columbia_card_task_fmri	14.0	0.8181818181818181	89.0	-70.0	0.1818181818181818	12.0	2.0	2.0	0.9588942797984252	0.414	n/a	stim	poldrack-single-stim	s172	False	1
344.288	0.598	344.886	-2.450680763468119	end_round	0.598	columbia_card_task_fmri	14.0	0.8	71.0	-70.0	0.2	12.0	3.0	2.0	2.160479871067313	0.598	2.0	stim	poldrack-single-stim	s172	False	1
345.641	1.5	344.89	n/a	-1.0	2.25	columbia_card_task_fmri	n/a	n/a	-1.0	n/a	n/a	n/a	n/a	n/a	n/a	n/a	n/a	ITI	poldrack-single-stim	s172	False	0
347.146	0.637	347.783	0.3493192365318815	draw_card	0.637	columbia_card_task_fmri	16.0	0.8333333333333334	89.0	-80.0	0.1666666666666666	12.0	1.0	2.0	4.337457023460463	0.637	n/a	stim	poldrack-single-stim	s172	False	1
347.788	0.46	348.248	-1.105226218013577	draw_card	0.46	columbia_card_task_fmri	16.0	0.8181818181818181	89.0	-80.0	0.1818181818181818	12.0	2.0	2.0	5.586994195226826	0.46	n/a	stim	poldrack-single-stim	s172	False	1
348.252	0.55	348.802	-2.8506807634681195	end_round	0.55	columbia_card_task_fmri	16.0	0.8	71.0	-80.0	0.2	12.0	3.0	2.0	6.960252908227073	0.55	2.0	stim	poldrack-single-stim	s172	False	1
349.558	1.5	348.807	n/a	-1.0	2.658	columbia_card_task_fmri	n/a	n/a	-1.0	n/a	n/a	n/a	n/a	n/a	n/a	n/a	n/a	ITI	poldrack-single-stim	s172	False	0
351.47	0.691	352.161	0.1493192365318805	draw_card	0.691	columbia_card_task_fmri	16.0	0.8	89.0	-65.0	0.2	15.0	1.0	3.0	0.9605471184589298	0.691	n/a	stim	poldrack-single-stim	s172	False	1
352.165	0.5	352.665	-1.007823620610976	draw_card	0.5	columbia_card_task_fmri	16.0	0.7857142857142857	89.0	-65.0	0.2142857142857142	15.0	2.0	3.0	1.7968979036618045	0.5	n/a	stim	poldrack-single-stim	s172	False	1
352.67	0.648	353.318	-2.3429884557758136	draw_card	0.648	columbia_card_task_fmri	16.0	0.7692307692307692	89.0	-65.0	0.2307692307692307	15.0	3.0	3.0	2.6877803984475257	0.648	3.0	stim	poldrack-single-stim	s172	False	0
354.074	1.5	353.323	n/a	-1.0	2.454	columbia_card_task_fmri	n/a	n/a	-1.0	n/a	n/a	n/a	n/a	n/a	n/a	n/a	n/a	ITI	poldrack-single-stim	s172	False	0
355.783	0.612	356.395	-1.5256807634681202	draw_card	0.612	columbia_card_task_fmri	15.0	0.8125	89.0	-75.0	0.1875	16.0	1.0	3.0	3.688514627373845	0.612	n/a	stim	poldrack-single-stim	s172	False	1
356.399	0.534	356.933	-2.65068076346812	draw_card	0.534	columbia_card_task_fmri	15.0	0.8	89.0	-75.0	0.2	16.0	2.0	3.0	4.560358824754967	0.534	n/a	stim	poldrack-single-stim	s172	False	1
356.937	0.468	357.405	-3.936395049182405	draw_card	0.468	columbia_card_task_fmri	15.0	0.7857142857142857	89.0	-75.0	0.2142857142857142	16.0	3.0	3.0	5.489647477591728	0.468	n/a	stim	poldrack-single-stim	s172	False	1
357.409	1.11	358.519	-5.419911532698894	end_round	1.11	columbia_card_task_fmri	15.0	0.7692307692307692	71.0	-75.0	0.2307692307692307	16.0	4.0	3.0	6.479527031808868	1.11	3.0	stim	poldrack-single-stim	s172	False	1
359.276	1.5	358.525	n/a	-1.0	2.386	columbia_card_task_fmri	n/a	n/a	-1.0	n/a	n/a	n/a	n/a	n/a	n/a	n/a	n/a	ITI	poldrack-single-stim	s172	False	0
360.915	1.178	362.093	-0.9631807634681202	draw_card	1.178	columbia_card_task_fmri	14.0	0.6875	89.0	-35.0	0.3125	16.0	1.0	5.0	-8.726541885366757	1.178	n/a	stim	poldrack-single-stim	s172	False	1
362.098	0.656	362.754	-1.9840140968014524	end_round	0.656	columbia_card_task_fmri	14.0	0.6666666666666667	71.0	-35.0	0.3333333333333333	16.0	2.0	5.0	-8.339873199050075	0.656	1.0	stim	poldrack-single-stim	s172	False	1
363.509	1.5	362.758	n/a	-1.0	2.59	columbia_card_task_fmri	n/a	n/a	-1.0	n/a	n/a	n/a	n/a	n/a	n/a	n/a	n/a	ITI	poldrack-single-stim	s172	False	0
365.354	0.663	366.017	4.215985903198547	draw_card	0.663	columbia_card_task_fmri	16.0	0.8666666666666667	89.0	-75.0	0.1333333333333333	15.0	1.0	2.0	-0.5053119354847588	0.663	n/a	stim	poldrack-single-stim	s172	False	1
366.022	0.361	366.383	3.3493192365318816	draw_card	0.361	columbia_card_task_fmri	16.0	0.8571428571428572	89.0	-75.0	0.1428571428571428	15.0	2.0	2.0	0.4039466887197633	0.361	n/a	stim	poldrack-single-stim	s172	False	1
366.388	0.603	366.991	2.34931923653188	draw_card	0.603	columbia_card_task_fmri	16.0	0.8461538461538461	89.0	-75.0	0.1538461538461538	15.0	3.0	2.0	1.393432610397344	0.603	n/a	stim	poldrack-single-stim	s172	False	1
366.996	0.409	367.405	1.1826525698652135	end_round	0.409	columbia_card_task_fmri	16.0	0.8333333333333334	71.0	-75.0	0.1666666666666666	15.0	4.0	2.0	2.474160734931008	0.409	3.0	stim	poldrack-single-stim	s172	False	1
368.16	1.5	367.409	n/a	-1.0	2.318	columbia_card_task_fmri	n/a	n/a	-1.0	n/a	n/a	n/a	n/a	n/a	n/a	n/a	n/a	ITI	poldrack-single-stim	s172	False	0
369.733	1.005	370.738	4.882652569865213	draw_card	1.005	columbia_card_task_fmri	16.0	0.8666666666666667	89.0	-70.0	0.1333333333333333	15.0	1.0	2.0	-2.2048704483131125	1.005	n/a	stim	poldrack-single-stim	s172	False	1
370.743	0.475	371.218	4.063604950817595	draw_card	0.475	columbia_card_task_fmri	16.0	0.8571428571428572	89.0	-70.0	0.1428571428571428	15.0	2.0	2.0	-1.345577457004378	0.475	n/a	stim	poldrack-single-stim	s172	False	1
371.222	0.373	371.595	3.118550005762648	draw_card	0.373	columbia_card_task_fmri	16.0	0.8461538461538461	89.0	-70.0	0.1538461538461538	15.0	3.0	2.0	-0.4104654226272153	0.373	n/a	stim	poldrack-single-stim	s172	False	1
371.601	0.398	371.999	2.015985903198548	draw_card	0.398	columbia_card_task_fmri	16.0	0.8333333333333334	89.0	-70.0	0.1666666666666666	15.0	4.0	2.0	0.6108753399848901	0.398	4.0	stim	poldrack-single-stim	s172	False	0
372.755	1.5	372.004	n/a	-1.0	2.59	columbia_card_task_fmri	n/a	n/a	-1.0	n/a	n/a	n/a	n/a	n/a	n/a	n/a	n/a	ITI	poldrack-single-stim	s172	False	0
374.599	1.415	376.014	2.22431923653188	draw_card	1.415	columbia_card_task_fmri	8.0	0.9375	89.0	-90.0	0.0625	16.0	1.0	1.0	-7.716741101506859	1.415	n/a	stim	poldrack-single-stim	s172	False	1
376.019	0.49	376.509	1.8159859031985464	draw_card	0.49	columbia_card_task_fmri	8.0	0.9333333333333332	89.0	-90.0	0.0666666666666666	16.0	2.0	1.0	-6.993345275874322	0.49	n/a	stim	poldrack-single-stim	s172	False	1
376.514	0.416	376.93	1.349319236531881	draw_card	0.416	columbia_card_task_fmri	8.0	0.9285714285714286	89.0	-90.0	0.0714285714285714	16.0	3.0	1.0	-6.200059717606919	0.416	n/a	stim	poldrack-single-stim	s172	False	1
376.935	0.945	377.88	0.8108576980703415	draw_card	0.945	columbia_card_task_fmri	8.0	0.9230769230769232	89.0	-90.0	0.0769230769230769	16.0	4.0	1.0	-5.325002855390657	0.945	n/a	stim	poldrack-single-stim	s172	False	1
377.885	0.561	378.446	0.1826525698652128	end_round	0.561	columbia_card_task_fmri	8.0	0.9166666666666666	71.0	-90.0	0.0833333333333333	16.0	5.0	1.0	-4.35331433769554	0.561	4.0	stim	poldrack-single-stim	s172	False	1
379.202	1.5	378.451	n/a	-1.0	2.386	columbia_card_task_fmri	n/a	n/a	-1.0	n/a	n/a	n/a	n/a	n/a	n/a	n/a	n/a	ITI	poldrack-single-stim	s172	False	0
380.843	0.675	381.518	3.78681923653188	draw_card	0.675	columbia_card_task_fmri	10.0	0.9375	89.0	-95.0	0.0625	16.0	1.0	1.0	-6.022482325113298	0.675	n/a	stim	poldrack-single-stim	s172	False	1
381.522	0.313	381.835	3.3493192365318807	draw_card	0.313	columbia_card_task_fmri	10.0	0.9333333333333332	89.0	-95.0	0.0666666666666666	16.0	2.0	1.0	-5.24740486067904	0.313	n/a	stim	poldrack-single-stim	s172	False	1
381.84	0.362	382.202	2.8493192365318807	draw_card	0.362	columbia_card_task_fmri	10.0	0.9285714285714286	89.0	-95.0	0.0714285714285714	16.0	3.0	1.0	-4.397445217036971	0.362	n/a	stim	poldrack-single-stim	s172	False	1
382.208	0.368	382.576	2.272396159608803	draw_card	0.368	columbia_card_task_fmri	10.0	0.9230769230769232	89.0	-95.0	0.0769230769230769	16.0	4.0	1.0	-3.4598731087935803	0.368	n/a	stim	poldrack-single-stim	s172	False	1
382.582	0.9	383.482	1.5993192365318798	end_round	0.9	columbia_card_task_fmri	10.0	0.9166666666666666	71.0	-95.0	0.0833333333333333	16.0	5.0	1.0	-2.4187666956034306	0.9	4.0	stim	poldrack-single-stim	s172	False	1
384.237	1.5	383.486	n/a	-1.0	2.318	columbia_card_task_fmri	n/a	n/a	-1.0	n/a	n/a	n/a	n/a	n/a	n/a	n/a	n/a	ITI	poldrack-single-stim	s172	False	0
385.809	1.074	386.883	4.72431923653188	draw_card	1.074	columbia_card_task_fmri	15.0	0.875	89.0	-70.0	0.125	16.0	1.0	2.0	-3.328057929509317	1.074	n/a	stim	poldrack-single-stim	s172	False	1
386.887	0.402	387.289	4.015985903198546	draw_card	0.402	columbia_card_task_fmri	15.0	0.8666666666666667	89.0	-70.0	0.1333333333333333	16.0	2.0	2.0	-2.544780532345225	0.402	n/a	stim	poldrack-single-stim	s172	False	1
387.294	0.464	387.758	3.206462093674737	draw_card	0.464	columbia_card_task_fmri	15.0	0.8571428571428572	89.0	-70.0	0.1428571428571428	16.0	3.0	2.0	-1.6954807138158543	0.464	n/a	stim	poldrack-single-stim	s172	False	1
387.762	0.448	388.21	2.2723961596088014	end_round	0.448	columbia_card_task_fmri	15.0	0.8461538461538461	71.0	-70.0	0.1538461538461538	16.0	4.0	2.0	-0.7712435042692007	0.448	3.0	stim	poldrack-single-stim	s172	False	1
388.966	1.5	388.215	n/a	-1.0	2.318	columbia_card_task_fmri	n/a	n/a	-1.0	n/a	n/a	n/a	n/a	n/a	n/a	n/a	n/a	ITI	poldrack-single-stim	s172	False	0
390.539	0.913	391.452	3.72431923653188	draw_card	0.913	columbia_card_task_fmri	16.0	0.875	89.0	-85.0	0.125	16.0	1.0	2.0	1.963100902879088	0.913	n/a	stim	poldrack-single-stim	s172	False	1
391.456	0.335	391.791	2.882652569865213	draw_card	0.335	columbia_card_task_fmri	16.0	0.8666666666666667	89.0	-85.0	0.1333333333333333	16.0	2.0	2.0	2.8938391442189406	0.335	n/a	stim	poldrack-single-stim	s172	False	1
391.796	0.383	392.179	1.9207478079604527	draw_card	0.383	columbia_card_task_fmri	16.0	0.8571428571428572	89.0	-85.0	0.1428571428571428	16.0	3.0	2.0	3.903028062119109	0.383	n/a	stim	poldrack-single-stim	s172	False	1
392.184	0.423	392.607	0.8108576980703397	draw_card	0.423	columbia_card_task_fmri	16.0	0.8461538461538461	89.0	-85.0	0.1538461538461538	16.0	4.0	2.0	5.0012607616829605	0.423	4.0	stim	poldrack-single-stim	s172	False	0
393.361	1.5	392.61	n/a	-1.0	2.318	columbia_card_task_fmri	n/a	n/a	-1.0	n/a	n/a	n/a	n/a	n/a	n/a	n/a	n/a	ITI	poldrack-single-stim	s172	False	0
