onset	duration	block_duration	correct	correct_response	cue	experiment_exp_id	flanker_location	flanker_middle_direction	flanker_type	key_press	response_time	trial_id	worker_id	junk
3.513048	1.7	2.1009520000000004	1.0	71.0	spatial	attention_network_task	down	right	incongruent	71	0.634	stim	s172	False
6.120863999999999	1.7	2.100136	1.0	89.0	double	attention_network_task	up	left	incongruent	89	0.681	stim	s172	False
8.727727999999999	1.7	2.100272	1.0	71.0	double	attention_network_task	up	right	incongruent	71	0.612	stim	s172	False
11.333727999999999	1.7	2.100272	1.0	89.0	double	attention_network_task	up	left	incongruent	89	0.628	stim	s172	False
13.942	1.7	2.1	1.0	89.0	double	attention_network_task	down	left	congruent	89	0.554	stim	s172	False
16.547	1.7	2.1	1.0	89.0	spatial	attention_network_task	down	left	incongruent	89	0.645	stim	s172	False
19.154728	1.7	2.100272	1.0	71.0	spatial	attention_network_task	up	right	congruent	71	0.523	stim	s172	False
21.762	1.7	2.1	1.0	71.0	spatial	attention_network_task	down	right	congruent	71	0.73	stim	s172	False
24.369	1.7	2.1	1.0	71.0	spatial	attention_network_task	up	right	incongruent	71	0.638	stim	s172	False
26.975728	1.7	2.100272	1.0	89.0	double	attention_network_task	up	left	congruent	89	0.665	stim	s172	False
29.582	1.7	2.1	1.0	89.0	spatial	attention_network_task	up	left	incongruent	89	0.627	stim	s172	False
32.188864	1.7	2.100136	1.0	71.0	spatial	attention_network_task	up	right	congruent	71	0.52	stim	s172	False
34.795728000000004	1.7	2.100272	1.0	71.0	spatial	attention_network_task	down	right	congruent	71	0.63	stim	s172	False
37.402	1.7	2.1	1.0	89.0	spatial	attention_network_task	down	left	congruent	89	0.554	stim	s172	False
40.009	1.7	2.1	1.0	71.0	double	attention_network_task	down	right	incongruent	71	0.728	stim	s172	False
42.615	1.7	2.1	1.0	71.0	double	attention_network_task	up	right	congruent	71	0.571	stim	s172	False
45.22	1.7	2.1	1.0	89.0	spatial	attention_network_task	down	left	incongruent	89	0.58	stim	s172	False
47.826	1.7	2.1	1.0	71.0	double	attention_network_task	up	right	congruent	71	0.497	stim	s172	False
50.434	1.7	2.1	1.0	89.0	spatial	attention_network_task	down	left	incongruent	89	0.601	stim	s172	False
53.041728000000006	1.7	2.100272	1.0	71.0	double	attention_network_task	up	right	congruent	71	0.532	stim	s172	False
55.649864	1.7	2.100136	1.0	89.0	double	attention_network_task	down	left	incongruent	89	0.556	stim	s172	False
58.255911999999995	1.7	2.1010880000000003	1.0	71.0	double	attention_network_task	down	right	incongruent	71	0.645	stim	s172	False
60.862728000000004	1.7	2.100272	1.0	89.0	spatial	attention_network_task	down	left	congruent	89	0.695	stim	s172	False
63.471864000000004	1.7	2.100136	1.0	71.0	spatial	attention_network_task	up	right	congruent	71	0.543	stim	s172	False
66.081864	1.7	2.100136	1.0	89.0	double	attention_network_task	up	left	congruent	89	0.552	stim	s172	False
68.689	1.7	2.1	1.0	71.0	double	attention_network_task	up	right	congruent	71	0.502	stim	s172	False
71.296	1.7	2.1	1.0	89.0	spatial	attention_network_task	down	left	incongruent	89	0.672	stim	s172	False
73.903	1.7	2.1	1.0	89.0	spatial	attention_network_task	up	left	congruent	89	0.582	stim	s172	False
76.509	1.7	2.1	1.0	71.0	double	attention_network_task	up	right	incongruent	71	0.598	stim	s172	False
79.113864	1.7	2.100136	1.0	89.0	spatial	attention_network_task	up	left	incongruent	89	0.52	stim	s172	False
81.719728	1.7	2.100272	1.0	71.0	double	attention_network_task	up	right	incongruent	71	0.566	stim	s172	False
84.327864	1.7	2.100136	1.0	71.0	spatial	attention_network_task	down	right	congruent	71	0.794	stim	s172	False
86.932864	1.7	2.100136	1.0	89.0	double	attention_network_task	up	left	congruent	89	0.46	stim	s172	False
89.541	1.7	2.1	1.0	89.0	double	attention_network_task	up	left	incongruent	89	0.529	stim	s172	False
92.147	1.7	2.1	1.0	89.0	spatial	attention_network_task	up	left	congruent	89	0.445	stim	s172	False
94.754592	1.7	2.100408	1.0	71.0	double	attention_network_task	down	right	congruent	71	0.666	stim	s172	False
97.36245600000001	1.7	2.1005439999999997	1.0	89.0	double	attention_network_task	down	left	congruent	89	0.537	stim	s172	False
99.971592	1.7	2.100408	1.0	71.0	spatial	attention_network_task	down	right	incongruent	71	0.633	stim	s172	False
102.58	1.7	2.1	1.0	71.0	spatial	attention_network_task	down	right	congruent	71	0.567	stim	s172	False
105.186592	1.7	2.100408	1.0	89.0	double	attention_network_task	up	left	congruent	89	0.558	stim	s172	False
107.795	1.7	2.1	1.0	89.0	spatial	attention_network_task	down	left	congruent	89	0.507	stim	s172	False
110.400592	1.7	2.100408	1.0	71.0	spatial	attention_network_task	up	right	congruent	71	0.488	stim	s172	False
113.007	1.7	2.1	1.0	71.0	spatial	attention_network_task	down	right	incongruent	71	0.623	stim	s172	False
115.614	1.7	2.1	1.0	71.0	spatial	attention_network_task	down	right	incongruent	71	0.705	stim	s172	False
118.222592	1.7	2.100408	1.0	89.0	spatial	attention_network_task	down	left	incongruent	89	0.616	stim	s172	False
120.830864	1.7	2.100136	1.0	89.0	spatial	attention_network_task	up	left	incongruent	89	0.547	stim	s172	False
123.438728	1.7	2.100272	1.0	71.0	double	attention_network_task	down	right	incongruent	71	0.85	stim	s172	False
126.043456	1.7	2.1005439999999997	1.0	89.0	double	attention_network_task	down	left	incongruent	89	0.612	stim	s172	False
128.65072800000002	1.7	2.100272	1.0	71.0	spatial	attention_network_task	up	right	incongruent	71	0.547	stim	s172	False
131.258	1.7	2.1	1.0	71.0	spatial	attention_network_task	up	right	incongruent	71	0.542	stim	s172	False
133.865592	1.7	2.100408	1.0	89.0	spatial	attention_network_task	down	left	incongruent	89	0.647	stim	s172	False
136.474	1.7	2.1	1.0	89.0	spatial	attention_network_task	down	left	congruent	89	0.468	stim	s172	False
139.082	1.7	2.1	1.0	89.0	double	attention_network_task	up	left	congruent	89	0.633	stim	s172	False
141.688456	1.7	2.1005439999999997	1.0	89.0	double	attention_network_task	up	left	incongruent	89	0.55	stim	s172	False
144.295592	1.7	2.100408	1.0	71.0	spatial	attention_network_task	up	right	congruent	71	0.584	stim	s172	False
146.903	1.7	2.1	1.0	89.0	spatial	attention_network_task	down	left	congruent	89	0.687	stim	s172	False
149.508864	1.7	2.100136	1.0	71.0	spatial	attention_network_task	up	right	congruent	71	0.67	stim	s172	False
152.115184	1.7	2.100816	1.0	89.0	spatial	attention_network_task	up	left	incongruent	89	0.536	stim	s172	False
154.721864	1.7	2.100136	1.0	71.0	double	attention_network_task	up	right	congruent	71	0.504	stim	s172	False
157.328	1.7	2.1	1.0	89.0	spatial	attention_network_task	up	left	congruent	89	0.539	stim	s172	False
159.935864	1.7	2.100136	1.0	89.0	double	attention_network_task	down	left	incongruent	89	0.75	stim	s172	False
162.540864	1.7	2.100136	1.0	71.0	spatial	attention_network_task	down	right	incongruent	71	0.539	stim	s172	False
165.148864	1.7	2.100136	1.0	71.0	double	attention_network_task	up	right	incongruent	71	0.788	stim	s172	False
167.754456	1.7	2.1005439999999997	1.0	89.0	spatial	attention_network_task	down	left	congruent	89	0.67	stim	s172	False
180.872	1.7	2.1	1.0	71.0	spatial	attention_network_task	up	right	congruent	71	0.604	stim	s172	False
183.477728	1.7	2.100272	1.0	71.0	double	attention_network_task	up	right	incongruent	71	0.518	stim	s172	False
186.086	1.7	2.1	1.0	89.0	spatial	attention_network_task	up	left	congruent	89	0.452	stim	s172	False
188.693864	1.7	2.100136	1.0	71.0	spatial	attention_network_task	up	right	congruent	71	0.452	stim	s172	False
191.298592	1.7	2.100408	1.0	89.0	double	attention_network_task	up	left	incongruent	89	0.58	stim	s172	False
193.904456	1.7	2.1005439999999997	1.0	89.0	double	attention_network_task	down	left	congruent	89	0.547	stim	s172	False
196.513	1.7	2.1	1.0	71.0	double	attention_network_task	up	right	incongruent	71	0.569	stim	s172	False
199.119864	1.7	2.100136	1.0	89.0	spatial	attention_network_task	down	left	incongruent	89	0.594	stim	s172	False
201.725864	1.7	2.100136	1.0	71.0	double	attention_network_task	down	right	incongruent	71	0.653	stim	s172	False
204.333864	1.7	2.100136	1.0	89.0	spatial	attention_network_task	up	left	incongruent	89	0.502	stim	s172	False
206.939864	1.7	2.100136	1.0	71.0	double	attention_network_task	down	right	congruent	71	0.547	stim	s172	False
209.547728	1.7	2.100272	1.0	89.0	spatial	attention_network_task	up	left	incongruent	89	0.45	stim	s172	False
212.155864	1.7	2.100136	1.0	89.0	spatial	attention_network_task	up	left	incongruent	89	0.462	stim	s172	False
214.760592	1.7	2.100408	1.0	71.0	spatial	attention_network_task	down	right	incongruent	71	0.674	stim	s172	False
217.369	1.7	2.1	1.0	89.0	double	attention_network_task	down	left	incongruent	89	0.577	stim	s172	False
219.975864	1.7	2.100136	1.0	71.0	double	attention_network_task	up	right	congruent	71	0.554	stim	s172	False
222.583	1.7	2.1	1.0	71.0	spatial	attention_network_task	down	right	congruent	71	0.489	stim	s172	False
225.188864	1.7	2.100136	1.0	89.0	double	attention_network_task	down	left	incongruent	89	0.654	stim	s172	False
227.795048	1.7	2.1009520000000004	1.0	89.0	spatial	attention_network_task	up	left	congruent	89	0.496	stim	s172	False
230.401728	1.7	2.100272	1.0	89.0	double	attention_network_task	down	left	congruent	89	0.596	stim	s172	False
233.008864	1.7	2.100136	1.0	71.0	double	attention_network_task	down	right	congruent	71	0.477	stim	s172	False
235.615	1.7	2.1	1.0	89.0	double	attention_network_task	up	left	incongruent	89	0.63	stim	s172	False
238.221864	1.7	2.100136	1.0	71.0	spatial	attention_network_task	up	right	incongruent	71	0.533	stim	s172	False
240.83	1.7	2.1	1.0	71.0	double	attention_network_task	down	right	congruent	71	0.573	stim	s172	False
243.437864	1.7	2.100136	1.0	89.0	spatial	attention_network_task	up	left	incongruent	89	0.577	stim	s172	False
246.044728	1.7	2.100272	1.0	89.0	double	attention_network_task	up	left	incongruent	89	0.527	stim	s172	False
248.651728	1.7	2.100272	1.0	71.0	spatial	attention_network_task	down	right	incongruent	71	0.551	stim	s172	False
251.258864	1.7	2.100136	1.0	71.0	double	attention_network_task	down	right	congruent	71	0.519	stim	s172	False
253.865	1.7	2.1	1.0	71.0	double	attention_network_task	down	right	incongruent	71	0.483	stim	s172	False
256.471864	1.7	2.100136	1.0	89.0	double	attention_network_task	down	left	incongruent	89	0.564	stim	s172	False
259.08	1.7	2.1	1.0	71.0	spatial	attention_network_task	down	right	congruent	71	0.574	stim	s172	False
261.686728	1.7	2.100272	1.0	89.0	double	attention_network_task	up	left	congruent	89	0.559	stim	s172	False
264.294	1.7	2.1	1.0	71.0	spatial	attention_network_task	up	right	incongruent	71	0.705	stim	s172	False
266.901	1.7	2.1	1.0	71.0	spatial	attention_network_task	up	right	incongruent	71	0.515	stim	s172	False
269.506864	1.7	2.100136	1.0	89.0	spatial	attention_network_task	up	left	congruent	89	0.529	stim	s172	False
272.114728	1.7	2.100272	1.0	71.0	spatial	attention_network_task	down	right	congruent	71	0.589	stim	s172	False
274.721592	1.7	2.100408	1.0	89.0	double	attention_network_task	up	left	incongruent	89	0.679	stim	s172	False
277.329	1.7	2.1	1.0	89.0	double	attention_network_task	down	left	congruent	89	0.525	stim	s172	False
279.934864	1.7	2.100136	1.0	71.0	double	attention_network_task	down	right	congruent	71	0.508	stim	s172	False
282.541864	1.7	2.100136	1.0	89.0	spatial	attention_network_task	down	left	congruent	89	0.567	stim	s172	False
285.15	1.7	2.1	1.0	71.0	double	attention_network_task	down	right	congruent	71	0.553	stim	s172	False
287.755592	1.7	2.100408	1.0	71.0	double	attention_network_task	down	right	incongruent	71	0.607	stim	s172	False
290.362456	1.7	2.1005439999999997	1.0	89.0	spatial	attention_network_task	up	left	congruent	89	0.605	stim	s172	False
292.96986400000003	1.7	2.100136	1.0	89.0	spatial	attention_network_task	up	left	congruent	89	0.628	stim	s172	False
295.576864	1.7	2.100136	1.0	71.0	spatial	attention_network_task	down	right	congruent	71	0.473	stim	s172	False
298.184	1.7	2.1	1.0	71.0	spatial	attention_network_task	down	right	incongruent	71	0.682	stim	s172	False
300.791	1.7	2.1	1.0	71.0	double	attention_network_task	down	right	congruent	71	0.503	stim	s172	False
303.398864	1.7	2.100136	1.0	89.0	double	attention_network_task	down	left	congruent	89	0.52	stim	s172	False
306.004	1.7	2.1	1.0	89.0	double	attention_network_task	up	left	congruent	89	0.522	stim	s172	False
308.609864	1.7	2.100136	1.0	89.0	double	attention_network_task	up	left	congruent	89	0.549	stim	s172	False
311.216	1.7	2.1	1.0	89.0	double	attention_network_task	down	left	congruent	89	0.613	stim	s172	False
313.822592	1.7	2.100408	1.0	89.0	spatial	attention_network_task	down	left	congruent	89	0.477	stim	s172	False
316.432	1.7	2.1	1.0	71.0	spatial	attention_network_task	up	right	incongruent	71	0.551	stim	s172	False
319.03918400000003	1.7	2.100816	1.0	89.0	double	attention_network_task	down	left	incongruent	89	0.647	stim	s172	False
321.64632	1.7	2.1006799999999997	1.0	89.0	spatial	attention_network_task	down	left	congruent	89	0.632	stim	s172	False
324.253	1.7	2.1	1.0	71.0	spatial	attention_network_task	up	right	congruent	71	0.476	stim	s172	False
326.860864	1.7	2.100136	1.0	89.0	spatial	attention_network_task	up	left	congruent	89	0.543	stim	s172	False
329.467864	1.7	2.100136	1.0	71.0	double	attention_network_task	down	right	incongruent	71	0.849	stim	s172	False
332.074864	1.7	2.100136	1.0	71.0	double	attention_network_task	down	right	incongruent	71	0.534	stim	s172	False
334.68	1.7	2.1	1.0	71.0	double	attention_network_task	up	right	incongruent	71	0.691	stim	s172	False
337.286864	1.7	2.100136	1.0	71.0	spatial	attention_network_task	up	right	incongruent	71	0.681	stim	s172	False
339.892048	1.7	2.1009520000000004	1.0	89.0	spatial	attention_network_task	down	left	incongruent	89	0.681	stim	s172	False
342.498864	1.7	2.100136	1.0	89.0	double	attention_network_task	down	left	incongruent	89	0.745	stim	s172	False
345.104592	1.7	2.100408	1.0	71.0	double	attention_network_task	up	right	incongruent	71	0.664	stim	s172	False
