onset	duration	movement_onset	EV	action	block_duration	experiment_exp_id	gain_amount	gain_probability	key_press	loss_amount	loss_probability	num_cards	num_click_in_round	num_loss_cards	risk	response_time	total_cards	trial_id	trial_type	worker_id	junk	feedback
3.011	3.14	6.151	0.4502058318539212	draw_card	3.14	columbia_card_task_fmri	12.0	0.8333333333333334	89.0	-70.0	0.1666666666666666	6.0	1.0	1.0	-3.622443551123961	3.14	n/a	stim	poldrack-single-stim	s192	False	1
6.154	1.167	7.321	-2.2831275014794112	draw_card	1.167	columbia_card_task_fmri	12.0	0.8	89.0	-70.0	0.2	6.0	2.0	1.0	-1.3870304869842442	1.167	n/a	stim	poldrack-single-stim	s192	False	1
7.324	1.409	8.733	-6.383127501479413	draw_card	1.409	columbia_card_task_fmri	12.0	0.75	89.0	-70.0	0.25	6.0	3.0	1.0	1.3148181400192414	1.409	n/a	stim	poldrack-single-stim	s192	False	1
8.735	1.806	10.541	-13.216460834812745	draw_card	1.806	columbia_card_task_fmri	12.0	0.6666666666666667	89.0	-70.0	0.3333333333333333	6.0	4.0	1.0	4.457820736553025	1.806	n/a	stim	poldrack-single-stim	s192	False	1
10.543	0.906	11.449	-26.88312750147941	end_round	0.906	columbia_card_task_fmri	12.0	0.5	71.0	-70.0	0.5	6.0	5.0	1.0	6.799342086149949	0.906	4.0	stim	poldrack-single-stim	s192	False	1
12.201	1.5	11.45	n/a	-1.0	2.454	columbia_card_task_fmri	n/a	n/a	-1.0	n/a	n/a	n/a	n/a	n/a	n/a	n/a	n/a	ITI	poldrack-single-stim	s192	False	0
13.908	2.999	16.907	1.2835391651872552	draw_card	2.999	columbia_card_task_fmri	14.0	0.8333333333333334	89.0	-75.0	0.1666666666666666	6.0	1.0	1.0	-1.0194450848267491	2.999	n/a	stim	poldrack-single-stim	s192	False	1
16.909	0.908	17.817	-1.6831275014794116	draw_card	0.908	columbia_card_task_fmri	14.0	0.8	89.0	-75.0	0.2	6.0	2.0	1.0	1.40761224952967	0.908	n/a	stim	poldrack-single-stim	s192	False	1
17.819	1.44	19.259	-6.133127501479413	draw_card	1.44	columbia_card_task_fmri	14.0	0.75	89.0	-75.0	0.25	6.0	3.0	1.0	4.3409561378622	1.44	n/a	stim	poldrack-single-stim	s192	False	1
19.261	1.765	21.026	-13.54979416814608	draw_card	1.765	columbia_card_task_fmri	14.0	0.6666666666666667	89.0	-75.0	0.3333333333333333	6.0	4.0	1.0	7.753102931269382	1.765	4.0	stim	poldrack-single-stim	s192	False	0
21.778	1.5	21.027	n/a	-1.0	2.454	columbia_card_task_fmri	n/a	n/a	-1.0	n/a	n/a	n/a	n/a	n/a	n/a	n/a	n/a	ITI	poldrack-single-stim	s192	False	0
23.484	2.554	26.038	2.9502058318539213	draw_card	2.554	columbia_card_task_fmri	15.0	0.8333333333333334	89.0	-70.0	0.1666666666666666	6.0	1.0	1.0	-2.506988310396604	2.554	n/a	stim	poldrack-single-stim	s192	False	1
26.041	1.239	27.28	0.1168724985205873	draw_card	1.239	columbia_card_task_fmri	15.0	0.8	89.0	-70.0	0.2	6.0	2.0	1.0	-0.1894341905582877	1.239	n/a	stim	poldrack-single-stim	s192	False	1
27.281	1.292	28.573	-4.133127501479413	draw_card	1.292	columbia_card_task_fmri	15.0	0.75	89.0	-70.0	0.25	6.0	3.0	1.0	2.6116348206993365	1.292	n/a	stim	poldrack-single-stim	s192	False	1
28.574	1.901	30.475	-11.216460834812745	draw_card	1.901	columbia_card_task_fmri	15.0	0.6666666666666667	89.0	-70.0	0.3333333333333333	6.0	4.0	1.0	5.869992971701009	1.901	n/a	stim	poldrack-single-stim	s192	False	1
30.477	0.889	31.366	-25.38312750147941	end_round	0.889	columbia_card_task_fmri	15.0	0.5	71.0	-70.0	0.5	6.0	5.0	1.0	8.297417041284227	0.889	4.0	stim	poldrack-single-stim	s192	False	1
32.119	1.5	31.368	n/a	-1.0	2.522	columbia_card_task_fmri	n/a	n/a	-1.0	n/a	n/a	n/a	n/a	n/a	n/a	n/a	n/a	ITI	poldrack-single-stim	s192	False	0
33.893	2.416	36.309	3.783539165187255	draw_card	2.416	columbia_card_task_fmri	17.0	0.8333333333333334	89.0	-75.0	0.1666666666666666	6.0	1.0	1.0	0.0963926252799893	2.416	n/a	stim	poldrack-single-stim	s192	False	1
36.31	1.236	37.546	0.7168724985205888	draw_card	1.236	columbia_card_task_fmri	17.0	0.8	89.0	-75.0	0.2	6.0	2.0	1.0	2.6055651920422638	1.236	n/a	stim	poldrack-single-stim	s192	False	1
37.547	2.487	40.034	-3.8831275014794127	end_round	2.487	columbia_card_task_fmri	17.0	0.75	71.0	-75.0	0.25	6.0	3.0	1.0	5.638102543004671	2.487	2.0	stim	poldrack-single-stim	s192	False	1
40.789	1.5	40.038	n/a	-1.0	2.454	columbia_card_task_fmri	n/a	n/a	-1.0	n/a	n/a	n/a	n/a	n/a	n/a	n/a	n/a	ITI	poldrack-single-stim	s192	False	0
42.495	2.765	45.26	5.116872498520587	draw_card	2.765	columbia_card_task_fmri	24.0	0.75	89.0	-60.0	0.25	8.0	1.0	2.0	2.1793450082844217	2.765	n/a	stim	poldrack-single-stim	s192	False	1
45.261	1.782	47.043	2.116872498520588	draw_card	1.782	columbia_card_task_fmri	24.0	0.7142857142857143	89.0	-60.0	0.2857142857142857	8.0	2.0	2.0	3.751060679701844	1.782	n/a	stim	poldrack-single-stim	s192	False	1
47.045	1.385	48.43	-1.8831275014794129	draw_card	1.385	columbia_card_task_fmri	24.0	0.6666666666666667	89.0	-60.0	0.3333333333333333	8.0	3.0	2.0	5.399252727088545	1.385	3.0	stim	poldrack-single-stim	s192	False	0
49.183	1.5	48.432	n/a	-1.0	2.658	columbia_card_task_fmri	n/a	n/a	-1.0	n/a	n/a	n/a	n/a	n/a	n/a	n/a	n/a	ITI	poldrack-single-stim	s192	False	0
51.092	2.165	53.257	5.116872498520587	draw_card	2.165	columbia_card_task_fmri	29.0	0.75	89.0	-75.0	0.25	8.0	1.0	2.0	10.827777544897115	2.165	n/a	stim	poldrack-single-stim	s192	False	1
53.258	1.062	54.32	1.4025867842348756	draw_card	1.062	columbia_card_task_fmri	29.0	0.7142857142857143	89.0	-75.0	0.2857142857142857	8.0	2.0	2.0	12.774806715509236	1.062	n/a	stim	poldrack-single-stim	s192	False	1
54.321	2.466	56.787	-3.549794168146077	draw_card	2.466	columbia_card_task_fmri	29.0	0.6666666666666667	89.0	-75.0	0.3333333333333333	8.0	3.0	2.0	14.816480874190638	2.466	n/a	stim	poldrack-single-stim	s192	False	1
56.789	3.604	60.393	-10.483127501479414	draw_card	3.604	columbia_card_task_fmri	29.0	0.6	89.0	-75.0	0.4	8.0	4.0	2.0	16.73807446223052	3.604	n/a	stim	poldrack-single-stim	s192	False	1
60.394	1.409	61.803	-20.88312750147941	end_round	1.409	columbia_card_task_fmri	29.0	0.5	71.0	-75.0	0.5	8.0	5.0	2.0	17.78780043273671	1.409	4.0	stim	poldrack-single-stim	s192	False	1
62.558	1.5	61.807	n/a	-1.0	2.386	columbia_card_task_fmri	n/a	n/a	-1.0	n/a	n/a	n/a	n/a	n/a	n/a	n/a	n/a	ITI	poldrack-single-stim	s192	False	0
64.197	2.37	66.567	0.8946502762983677	draw_card	2.37	columbia_card_task_fmri	17.0	0.7777777777777778	89.0	-65.0	0.2222222222222222	9.0	1.0	2.0	-0.0989527372194345	2.37	n/a	stim	poldrack-single-stim	s192	False	1
66.569	1.133	67.702	-1.3831275014794129	draw_card	1.133	columbia_card_task_fmri	17.0	0.75	89.0	-65.0	0.25	9.0	2.0	2.0	1.3148181400192414	1.133	2.0	stim	poldrack-single-stim	s192	False	0
68.456	1.5	67.705	n/a	-1.0	2.522	columbia_card_task_fmri	n/a	n/a	-1.0	n/a	n/a	n/a	n/a	n/a	n/a	n/a	n/a	ITI	poldrack-single-stim	s192	False	0
70.231	3.53	73.761	5.216872498520587	end_round	3.53	columbia_card_task_fmri	14.0	0.9	71.0	-95.0	0.1	10.0	1.0	1.0	-1.4868222396050044	3.53	0.0	stim	poldrack-single-stim	s192	False	1
74.515	1.5	73.764	n/a	-1.0	2.59	columbia_card_task_fmri	n/a	n/a	-1.0	n/a	n/a	n/a	n/a	n/a	n/a	n/a	n/a	ITI	poldrack-single-stim	s192	False	0
76.358	1.831	78.189	1.1168724985205871	draw_card	1.831	columbia_card_task_fmri	15.0	0.8	89.0	-65.0	0.2	10.0	1.0	2.0	-2.185328181981127	1.831	1.0	stim	poldrack-single-stim	s192	False	0
78.944	1.5	78.193	n/a	-1.0	2.386	columbia_card_task_fmri	n/a	n/a	-1.0	n/a	n/a	n/a	n/a	n/a	n/a	n/a	n/a	ITI	poldrack-single-stim	s192	False	0
80.582	1.771	82.353	2.7168724985205888	draw_card	1.771	columbia_card_task_fmri	17.0	0.8	89.0	-65.0	0.2	10.0	1.0	2.0	-1.3870304869842442	1.771	n/a	stim	poldrack-single-stim	s192	False	1
82.355	0.674	83.029	0.8946502762983677	draw_card	0.674	columbia_card_task_fmri	17.0	0.7777777777777778	89.0	-65.0	0.2222222222222222	10.0	2.0	2.0	-0.0989527372194345	0.674	n/a	stim	poldrack-single-stim	s192	False	1
83.03	1.615	84.645	-1.3831275014794129	draw_card	1.615	columbia_card_task_fmri	17.0	0.75	89.0	-65.0	0.25	10.0	3.0	2.0	1.3148181400192414	1.615	n/a	stim	poldrack-single-stim	s192	False	1
84.648	2.503	87.151	-4.31169893005084	draw_card	2.503	columbia_card_task_fmri	17.0	0.7142857142857143	89.0	-65.0	0.2857142857142857	10.0	4.0	2.0	2.848989447650702	2.503	n/a	stim	poldrack-single-stim	s192	False	1
87.153	1.129	88.282	-8.216460834812743	end_round	1.129	columbia_card_task_fmri	17.0	0.6666666666666667	71.0	-65.0	0.3333333333333333	10.0	5.0	2.0	4.457820736553025	1.129	4.0	stim	poldrack-single-stim	s192	False	1
89.034	1.5	88.283	n/a	-1.0	2.59	columbia_card_task_fmri	n/a	n/a	-1.0	n/a	n/a	n/a	n/a	n/a	n/a	n/a	n/a	ITI	poldrack-single-stim	s192	False	0
90.876	2.021	92.897	1.2835391651872552	draw_card	2.021	columbia_card_task_fmri	13.0	0.8333333333333334	89.0	-70.0	0.1666666666666666	12.0	1.0	2.0	-3.250645778211439	2.021	n/a	stim	poldrack-single-stim	s192	False	1
92.899	1.583	94.482	0.0259634076114938	draw_card	1.583	columbia_card_task_fmri	13.0	0.8181818181818181	89.0	-70.0	0.1818181818181818	12.0	2.0	2.0	-2.1727033075736983	1.583	2.0	stim	poldrack-single-stim	s192	False	0
95.237	1.5	94.486	n/a	-1.0	2.318	columbia_card_task_fmri	n/a	n/a	-1.0	n/a	n/a	n/a	n/a	n/a	n/a	n/a	n/a	ITI	poldrack-single-stim	s192	False	0
96.807	1.935	98.742	1.2835391651872552	draw_card	1.935	columbia_card_task_fmri	15.0	0.8333333333333334	89.0	-80.0	0.1666666666666666	12.0	1.0	2.0	1.2123686647059913	1.935	1.0	stim	poldrack-single-stim	s192	False	0
99.497	1.5	98.746	n/a	-1.0	2.25	columbia_card_task_fmri	n/a	n/a	-1.0	n/a	n/a	n/a	n/a	n/a	n/a	n/a	n/a	ITI	poldrack-single-stim	s192	False	0
100.999	2.397	103.396	0.3168724985205884	draw_card	2.397	columbia_card_task_fmri	14.0	0.8	89.0	-65.0	0.2	15.0	1.0	3.0	-2.5844448138099985	2.397	n/a	stim	poldrack-single-stim	s192	False	1
103.398	1.178	104.576	-0.8116989300508397	draw_card	1.178	columbia_card_task_fmri	14.0	0.7857142857142857	89.0	-65.0	0.2142857142857142	15.0	2.0	3.0	-1.7704769315154607	1.178	n/a	stim	poldrack-single-stim	s192	False	1
104.578	1.177	105.755	-2.1138967322486444	draw_card	1.177	columbia_card_task_fmri	14.0	0.7692307692307692	89.0	-65.0	0.2307692307692307	15.0	3.0	3.0	-0.9033436469797778	1.177	n/a	stim	poldrack-single-stim	s192	False	1
105.757	1.735	107.492	-3.6331275014794127	draw_card	1.735	columbia_card_task_fmri	14.0	0.75	89.0	-65.0	0.25	15.0	4.0	3.0	0.018169709475778	1.735	4.0	stim	poldrack-single-stim	s192	False	0
108.248	1.5	107.497	n/a	-1.0	2.454	columbia_card_task_fmri	n/a	n/a	-1.0	n/a	n/a	n/a	n/a	n/a	n/a	n/a	n/a	ITI	poldrack-single-stim	s192	False	0
109.954	3.982	113.936	0.2418724985205873	end_round	3.982	columbia_card_task_fmri	1.0	0.9375	71.0	-45.0	0.0625	16.0	1.0	1.0	-22.92100641991676	3.982	0.0	stim	poldrack-single-stim	s192	False	1
114.691	1.5	113.94	n/a	-1.0	3.27	columbia_card_task_fmri	n/a	n/a	-1.0	n/a	n/a	n/a	n/a	n/a	n/a	n/a	n/a	ITI	poldrack-single-stim	s192	False	0
117.214	2.174	119.388	1.1793724985205871	draw_card	2.174	columbia_card_task_fmri	15.0	0.8125	89.0	-70.0	0.1875	16.0	1.0	3.0	-1.0112515506905737	2.174	n/a	stim	poldrack-single-stim	s192	False	1
119.391	1.287	120.678	0.1168724985205873	draw_card	1.287	columbia_card_task_fmri	15.0	0.8	89.0	-70.0	0.2	16.0	2.0	3.0	-0.1894341905582877	1.287	n/a	stim	poldrack-single-stim	s192	False	1
120.679	1.25	121.929	-1.097413215765128	draw_card	1.25	columbia_card_task_fmri	15.0	0.7857142857142857	89.0	-70.0	0.2142857142857142	16.0	3.0	3.0	0.6866139152742292	1.25	n/a	stim	poldrack-single-stim	s192	False	1
121.931	1.173	123.104	-2.4985121168640294	draw_card	1.173	columbia_card_task_fmri	15.0	0.7692307692307692	89.0	-70.0	0.2307692307692307	16.0	4.0	3.0	1.6198683156641491	1.173	n/a	stim	poldrack-single-stim	s192	False	1
123.107	1.528	124.635	-4.133127501479413	end_round	1.528	columbia_card_task_fmri	15.0	0.75	71.0	-70.0	0.25	16.0	5.0	3.0	2.6116348206993365	1.528	4.0	stim	poldrack-single-stim	s192	False	1
125.391	1.5	124.64	n/a	-1.0	2.25	columbia_card_task_fmri	n/a	n/a	-1.0	n/a	n/a	n/a	n/a	n/a	n/a	n/a	n/a	ITI	poldrack-single-stim	s192	False	0
126.893	3.446	130.339	8.116872498520587	draw_card	3.446	columbia_card_task_fmri	30.0	0.7	89.0	-50.0	0.3	10.0	1.0	3.0	2.466401679980692	3.446	1.0	stim	poldrack-single-stim	s192	False	0
131.093	1.5	130.342	n/a	-1.0	2.25	columbia_card_task_fmri	n/a	n/a	-1.0	n/a	n/a	n/a	n/a	n/a	n/a	n/a	n/a	ITI	poldrack-single-stim	s192	False	0
132.596	1.667	134.263	7.516872498520588	draw_card	1.667	columbia_card_task_fmri	17.0	0.8666666666666667	89.0	-70.0	0.1333333333333333	15.0	1.0	2.0	-4.605292482729105	1.667	n/a	stim	poldrack-single-stim	s192	False	1
134.266	0.634	134.9	6.68830106994916	draw_card	0.634	columbia_card_task_fmri	17.0	0.8571428571428572	89.0	-70.0	0.1428571428571428	15.0	2.0	2.0	-3.7381028015192506	0.634	n/a	stim	poldrack-single-stim	s192	False	1
134.901	1.057	135.958	5.732257113905202	draw_card	1.057	columbia_card_task_fmri	17.0	0.8461538461538461	89.0	-70.0	0.1538461538461538	15.0	3.0	2.0	-2.7942659264311303	1.057	3.0	stim	poldrack-single-stim	s192	False	0
136.716	1.5	135.965	n/a	-1.0	2.318	columbia_card_task_fmri	n/a	n/a	-1.0	n/a	n/a	n/a	n/a	n/a	n/a	n/a	n/a	ITI	poldrack-single-stim	s192	False	0
138.287	2.92	141.207	2.741872498520588	end_round	2.92	columbia_card_task_fmri	7.0	0.9375	71.0	-95.0	0.0625	16.0	1.0	1.0	-9.474419754609992	2.92	0.0	stim	poldrack-single-stim	s192	False	1
141.961	1.5	141.21	n/a	-1.0	2.726	columbia_card_task_fmri	n/a	n/a	-1.0	n/a	n/a	n/a	n/a	n/a	n/a	n/a	n/a	ITI	poldrack-single-stim	s192	False	0
143.939	2.917	146.856	4.304372498520587	draw_card	2.917	columbia_card_task_fmri	9.0	0.9375	89.0	-100.0	0.0625	16.0	1.0	1.0	-7.785787408971011	2.917	n/a	stim	poldrack-single-stim	s192	False	1
146.858	1.118	147.976	3.8502058318539207	end_round	1.118	columbia_card_task_fmri	9.0	0.9333333333333332	71.0	-100.0	0.0666666666666666	16.0	2.0	1.0	-6.98361094549497	1.118	1.0	stim	poldrack-single-stim	s192	False	1
148.729	1.5	147.978	n/a	-1.0	2.386	columbia_card_task_fmri	n/a	n/a	-1.0	n/a	n/a	n/a	n/a	n/a	n/a	n/a	n/a	ITI	poldrack-single-stim	s192	False	0
150.367	1.97	152.337	5.241872498520587	draw_card	1.97	columbia_card_task_fmri	15.0	0.875	89.0	-80.0	0.125	16.0	1.0	2.0	-2.76573931333218	1.97	n/a	stim	poldrack-single-stim	s192	False	1
152.341	0.758	153.099	4.450205831853921	draw_card	0.758	columbia_card_task_fmri	15.0	0.8666666666666667	89.0	-80.0	0.1333333333333333	16.0	2.0	2.0	-1.892172847934724	0.758	n/a	stim	poldrack-single-stim	s192	False	1
153.101	1.014	154.115	3.545443927092018	draw_card	1.014	columbia_card_task_fmri	15.0	0.8571428571428572	89.0	-80.0	0.1428571428571428	16.0	3.0	2.0	-0.944863071177302	1.014	n/a	stim	poldrack-single-stim	s192	False	1
154.118	0.781	154.899	2.5014878831359706	draw_card	0.781	columbia_card_task_fmri	15.0	0.8461538461538461	89.0	-80.0	0.1538461538461538	16.0	4.0	2.0	0.0861516445001129	0.781	n/a	stim	poldrack-single-stim	s192	False	1
154.902	1.273	156.175	1.2835391651872552	draw_card	1.273	columbia_card_task_fmri	15.0	0.8333333333333334	89.0	-80.0	0.1666666666666666	16.0	5.0	2.0	1.2123686647059913	1.273	n/a	stim	poldrack-single-stim	s192	False	1
156.177	0.583	156.76	-0.1558547742066878	draw_card	0.583	columbia_card_task_fmri	15.0	0.8181818181818181	89.0	-80.0	0.1818181818181818	16.0	6.0	2.0	2.446816513327072	0.583	n/a	stim	poldrack-single-stim	s192	False	1
156.763	1.466	158.229	-1.8831275014794129	draw_card	1.466	columbia_card_task_fmri	15.0	0.8	89.0	-80.0	0.2	16.0	7.0	2.0	3.803647112367507	1.466	7.0	stim	poldrack-single-stim	s192	False	0
158.983	1.5	158.232	n/a	-1.0	2.318	columbia_card_task_fmri	n/a	n/a	-1.0	n/a	n/a	n/a	n/a	n/a	n/a	n/a	n/a	ITI	poldrack-single-stim	s192	False	0
160.554	2.433	162.987	7.366872498520587	draw_card	2.433	columbia_card_task_fmri	16.0	0.875	89.0	-70.0	0.125	16.0	1.0	2.0	-5.734774455493238	2.433	n/a	stim	poldrack-single-stim	s192	False	1
162.99	1.024	164.014	6.650205831853921	draw_card	1.024	columbia_card_task_fmri	16.0	0.8666666666666667	89.0	-70.0	0.1333333333333333	16.0	2.0	2.0	-4.9443495869133365	1.024	n/a	stim	poldrack-single-stim	s192	False	1
164.017	0.825	164.842	5.831158212806303	draw_card	0.825	columbia_card_task_fmri	16.0	0.8571428571428572	89.0	-70.0	0.1428571428571428	16.0	3.0	2.0	-4.087177250483375	0.825	n/a	stim	poldrack-single-stim	s192	False	1
164.844	1.334	166.178	4.886103267751356	draw_card	1.334	columbia_card_task_fmri	16.0	0.8461538461538461	89.0	-70.0	0.1538461538461538	16.0	4.0	2.0	-3.1542400002673325	1.334	n/a	stim	poldrack-single-stim	s192	False	1
166.181	1.687	167.868	3.783539165187255	draw_card	1.687	columbia_card_task_fmri	16.0	0.8333333333333334	89.0	-70.0	0.1666666666666666	16.0	5.0	2.0	-2.135130049135306	1.687	n/a	stim	poldrack-single-stim	s192	False	1
167.871	1.862	169.733	2.480508862156949	draw_card	1.862	columbia_card_task_fmri	16.0	0.8181818181818181	89.0	-70.0	0.1818181818181818	16.0	6.0	2.0	-1.0180533015057378	1.862	n/a	stim	poldrack-single-stim	s192	False	1
169.736	1.205	170.941	0.916872498520588	draw_card	1.205	columbia_card_task_fmri	16.0	0.8	89.0	-70.0	0.2	16.0	7.0	2.0	0.2098017340443121	1.205	n/a	stim	poldrack-single-stim	s192	False	1
170.943	2.348	173.291	-0.9942386125905234	end_round	2.348	columbia_card_task_fmri	16.0	0.7777777777777778	71.0	-70.0	0.2222222222222222	16.0	8.0	2.0	1.5609575803742644	2.348	7.0	stim	poldrack-single-stim	s192	False	1
174.044	1.5	173.293	n/a	-1.0	2.25	columbia_card_task_fmri	n/a	n/a	-1.0	n/a	n/a	n/a	n/a	n/a	n/a	n/a	n/a	ITI	poldrack-single-stim	s192	False	0
175.547	1.741	177.288	8.679372498520587	draw_card	1.741	columbia_card_task_fmri	30.0	0.6875	89.0	-45.0	0.3125	16.0	1.0	5.0	0.5725531245959843	1.741	n/a	stim	poldrack-single-stim	s192	False	1
177.29	1.041	178.331	7.116872498520591	draw_card	1.041	columbia_card_task_fmri	30.0	0.6666666666666667	89.0	-45.0	0.3333333333333333	16.0	2.0	5.0	1.1633856802887408	1.041	n/a	stim	poldrack-single-stim	s192	False	1
178.335	2.355	180.69	5.331158212806299	draw_card	2.355	columbia_card_task_fmri	30.0	0.6428571428571428	89.0	-45.0	0.3571428571428571	16.0	3.0	5.0	1.7438307134351092	2.355	n/a	stim	poldrack-single-stim	s192	False	1
180.692	2.363	183.055	3.2707186523667406	draw_card	2.363	columbia_card_task_fmri	30.0	0.6153846153846154	89.0	-45.0	0.3846153846153846	16.0	4.0	5.0	2.293903966253559	2.363	n/a	stim	poldrack-single-stim	s192	False	1
183.057	1.109	184.166	0.8668724985205838	draw_card	1.109	columbia_card_task_fmri	30.0	0.5833333333333333	89.0	-45.0	0.4166666666666667	16.0	5.0	5.0	2.780775565893002	1.109	n/a	stim	poldrack-single-stim	s192	False	1
184.169	1.004	185.173	-1.9740365923885024	draw_card	1.004	columbia_card_task_fmri	30.0	0.5454545454545454	89.0	-45.0	0.4545454545454545	16.0	6.0	5.0	3.149399100945999	1.004	n/a	stim	poldrack-single-stim	s192	False	1
185.177	1.225	186.402	-5.383127501479413	draw_card	1.225	columbia_card_task_fmri	30.0	0.5	89.0	-45.0	0.5	16.0	7.0	5.0	3.304431429454084	1.225	7.0	stim	poldrack-single-stim	s192	False	0
187.159	1.5	186.408	n/a	-1.0	2.25	columbia_card_task_fmri	n/a	n/a	-1.0	n/a	n/a	n/a	n/a	n/a	n/a	n/a	n/a	ITI	poldrack-single-stim	s192	False	0
188.662	3.112	191.774	0.4502058318539212	draw_card	3.112	columbia_card_task_fmri	13.0	0.8333333333333334	89.0	-75.0	0.1666666666666666	6.0	1.0	1.0	-1.391357812952684	3.112	1.0	stim	poldrack-single-stim	s192	False	0
192.527	1.5	191.776	n/a	-1.0	2.454	columbia_card_task_fmri	n/a	n/a	-1.0	n/a	n/a	n/a	n/a	n/a	n/a	n/a	n/a	ITI	poldrack-single-stim	s192	False	0
194.234	1.422	195.656	2.116872498520589	draw_card	1.422	columbia_card_task_fmri	14.0	0.8333333333333334	89.0	-70.0	0.1666666666666666	6.0	1.0	1.0	-2.8788271200388067	1.422	1.0	stim	poldrack-single-stim	s192	False	0
196.411	1.5	195.66	n/a	-1.0	2.454	columbia_card_task_fmri	n/a	n/a	-1.0	n/a	n/a	n/a	n/a	n/a	n/a	n/a	n/a	ITI	poldrack-single-stim	s192	False	0
198.117	1.539	199.656	2.116872498520589	draw_card	1.539	columbia_card_task_fmri	16.0	0.8333333333333334	89.0	-80.0	0.1666666666666666	6.0	1.0	1.0	1.5843891843274849	1.539	n/a	stim	poldrack-single-stim	s192	False	1
199.659	1.047	200.706	-1.083127501479412	end_round	1.047	columbia_card_task_fmri	16.0	0.8	71.0	-80.0	0.2	6.0	2.0	1.0	4.203034330835088	1.047	1.0	stim	poldrack-single-stim	s192	False	1
201.463	1.5	200.712	n/a	-1.0	2.522	columbia_card_task_fmri	n/a	n/a	-1.0	n/a	n/a	n/a	n/a	n/a	n/a	n/a	n/a	ITI	poldrack-single-stim	s192	False	0
203.238	1.45	204.688	4.616872498520589	draw_card	1.45	columbia_card_task_fmri	17.0	0.8333333333333334	89.0	-70.0	0.1666666666666666	6.0	1.0	1.0	-1.7632530041031202	1.45	n/a	stim	poldrack-single-stim	s192	False	1
204.69	1.182	205.872	1.7168724985205888	draw_card	1.182	columbia_card_task_fmri	17.0	0.8	89.0	-70.0	0.2	6.0	2.0	1.0	0.6090551744503045	1.182	n/a	stim	poldrack-single-stim	s192	False	1
205.875	0.681	206.556	-2.6331275014794127	end_round	0.681	columbia_card_task_fmri	17.0	0.75	71.0	-70.0	0.25	6.0	3.0	1.0	3.476264179936706	0.681	2.0	stim	poldrack-single-stim	s192	False	1
207.311	1.5	206.56	n/a	-1.0	2.386	columbia_card_task_fmri	n/a	n/a	-1.0	n/a	n/a	n/a	n/a	n/a	n/a	n/a	n/a	ITI	poldrack-single-stim	s192	False	0
208.951	1.609	210.56	4.616872498520587	draw_card	1.609	columbia_card_task_fmri	25.0	0.75	89.0	-65.0	0.25	8.0	1.0	2.0	4.773324291130223	1.609	n/a	stim	poldrack-single-stim	s192	False	1
210.563	0.617	211.18	1.4025867842348756	draw_card	0.617	columbia_card_task_fmri	25.0	0.7142857142857143	89.0	-65.0	0.2857142857142857	8.0	2.0	2.0	6.457656667475362	0.617	n/a	stim	poldrack-single-stim	s192	False	1
211.184	1.401	212.585	-2.883127501479409	draw_card	1.401	columbia_card_task_fmri	25.0	0.6666666666666667	89.0	-65.0	0.3333333333333333	8.0	3.0	2.0	8.223915189806185	1.401	n/a	stim	poldrack-single-stim	s192	False	1
212.587	1.546	214.133	-8.883127501479413	draw_card	1.546	columbia_card_task_fmri	25.0	0.6	89.0	-65.0	0.4	8.0	4.0	2.0	9.886333679257396	1.546	n/a	stim	poldrack-single-stim	s192	False	1
214.136	0.96	215.096	-17.883127501479414	end_round	0.96	columbia_card_task_fmri	25.0	0.5	71.0	-65.0	0.5	8.0	5.0	2.0	10.7944933280764	0.96	4.0	stim	poldrack-single-stim	s192	False	1
215.852	1.5	215.101	n/a	-1.0	2.454	columbia_card_task_fmri	n/a	n/a	-1.0	n/a	n/a	n/a	n/a	n/a	n/a	n/a	n/a	ITI	poldrack-single-stim	s192	False	0
217.559	1.77	219.329	4.616872498520587	draw_card	1.77	columbia_card_task_fmri	30.0	0.75	89.0	-80.0	0.25	8.0	1.0	2.0	13.42314416695836	1.77	n/a	stim	poldrack-single-stim	s192	False	1
219.332	0.545	219.877	0.6883010699491638	draw_card	0.545	columbia_card_task_fmri	30.0	0.7142857142857143	89.0	-80.0	0.2857142857142857	8.0	2.0	2.0	15.482732913271356	0.545	n/a	stim	poldrack-single-stim	s192	False	1
219.88	1.909	221.789	-4.549794168146073	end_round	1.909	columbia_card_task_fmri	30.0	0.6666666666666667	71.0	-80.0	0.3333333333333333	8.0	3.0	2.0	17.64241847327775	1.909	2.0	stim	poldrack-single-stim	s192	False	1
222.543	1.5	221.792	n/a	-1.0	2.522	columbia_card_task_fmri	n/a	n/a	-1.0	n/a	n/a	n/a	n/a	n/a	n/a	n/a	n/a	ITI	poldrack-single-stim	s192	False	0
224.318	1.819	226.137	4.316872498520588	draw_card	1.819	columbia_card_task_fmri	13.0	0.9	89.0	-95.0	0.1	10.0	1.0	1.0	-1.7861898090238952	1.819	n/a	stim	poldrack-single-stim	s192	False	1
226.141	0.961	227.102	3.116872498520588	end_round	0.961	columbia_card_task_fmri	13.0	0.8888888888888888	71.0	-95.0	0.1111111111111111	10.0	2.0	1.0	-0.2481947161570517	0.961	1.0	stim	poldrack-single-stim	s192	False	1
227.857	1.5	227.106	n/a	-1.0	2.522	columbia_card_task_fmri	n/a	n/a	-1.0	n/a	n/a	n/a	n/a	n/a	n/a	n/a	n/a	ITI	poldrack-single-stim	s192	False	0
229.633	1.924	231.557	5.716872498520587	draw_card	1.924	columbia_card_task_fmri	14.0	0.9	89.0	-90.0	0.1	10.0	1.0	1.0	-2.983538872073737	1.924	n/a	stim	poldrack-single-stim	s192	False	1
231.56	0.75	232.31	4.56131694296503	draw_card	0.75	columbia_card_task_fmri	14.0	0.8888888888888888	89.0	-90.0	0.1111111111111111	10.0	2.0	1.0	-1.5027421250934123	0.75	n/a	stim	poldrack-single-stim	s192	False	1
232.314	1.032	233.346	3.116872498520588	end_round	1.032	columbia_card_task_fmri	14.0	0.875	71.0	-90.0	0.125	10.0	3.0	1.0	0.2045786594140466	1.032	2.0	stim	poldrack-single-stim	s192	False	1
234.103	1.5	233.352	n/a	-1.0	2.59	columbia_card_task_fmri	n/a	n/a	-1.0	n/a	n/a	n/a	n/a	n/a	n/a	n/a	n/a	ITI	poldrack-single-stim	s192	False	0
235.946	1.911	237.857	0.916872498520588	draw_card	1.911	columbia_card_task_fmri	16.0	0.8	89.0	-70.0	0.2	10.0	1.0	2.0	0.2098017340443121	1.911	n/a	stim	poldrack-single-stim	s192	False	1
237.86	0.414	238.274	-0.9942386125905234	draw_card	0.414	columbia_card_task_fmri	16.0	0.7777777777777778	89.0	-70.0	0.2222222222222222	10.0	2.0	2.0	1.5609575803742644	0.414	n/a	stim	poldrack-single-stim	s192	False	1
238.278	0.613	238.891	-3.3831275014794127	draw_card	0.613	columbia_card_task_fmri	16.0	0.75	89.0	-70.0	0.25	10.0	3.0	2.0	3.0439414033944843	0.613	n/a	stim	poldrack-single-stim	s192	False	1
238.893	0.955	239.848	-6.454556072907984	draw_card	0.955	columbia_card_task_fmri	16.0	0.7142857142857143	89.0	-70.0	0.2857142857142857	10.0	4.0	2.0	4.653198581690269	0.955	n/a	stim	poldrack-single-stim	s192	False	1
239.852	2.136	241.988	-10.549794168146075	draw_card	2.136	columbia_card_task_fmri	16.0	0.6666666666666667	89.0	-70.0	0.3333333333333333	10.0	5.0	2.0	6.340748632713137	2.136	n/a	stim	poldrack-single-stim	s192	False	1
241.991	3.219	245.21	-16.283127501479413	end_round	3.219	columbia_card_task_fmri	16.0	0.6	71.0	-70.0	0.4	10.0	6.0	2.0	7.929101208006088	3.219	5.0	stim	poldrack-single-stim	s192	False	1
245.97	1.5	245.219	n/a	-1.0	2.454	columbia_card_task_fmri	n/a	n/a	-1.0	n/a	n/a	n/a	n/a	n/a	n/a	n/a	n/a	ITI	poldrack-single-stim	s192	False	0
247.677	2.286	249.963	0.2002058318539212	draw_card	2.286	columbia_card_task_fmri	7.0	0.9166666666666666	89.0	-100.0	0.0833333333333333	12.0	1.0	1.0	-4.606365202977198	2.286	n/a	stim	poldrack-single-stim	s192	False	1
249.967	0.626	250.593	-0.6104002287521411	end_round	0.626	columbia_card_task_fmri	7.0	0.9090909090909092	71.0	-100.0	0.0909090909090909	12.0	2.0	1.0	-3.422178773456043	0.626	1.0	stim	poldrack-single-stim	s192	False	1
251.349	1.5	250.598	n/a	-1.0	2.318	columbia_card_task_fmri	n/a	n/a	-1.0	n/a	n/a	n/a	n/a	n/a	n/a	n/a	n/a	ITI	poldrack-single-stim	s192	False	0
252.921	1.573	254.494	0.450205831853923	draw_card	1.573	columbia_card_task_fmri	14.0	0.8333333333333334	89.0	-80.0	0.1666666666666666	12.0	1.0	2.0	0.8403620961644904	1.573	1.0	stim	poldrack-single-stim	s192	False	0
255.252	1.5	254.501	n/a	-1.0	2.25	columbia_card_task_fmri	n/a	n/a	-1.0	n/a	n/a	n/a	n/a	n/a	n/a	n/a	n/a	ITI	poldrack-single-stim	s192	False	0
256.756	1.979	258.735	2.116872498520588	draw_card	1.979	columbia_card_task_fmri	15.0	0.8333333333333334	89.0	-75.0	0.1666666666666666	12.0	1.0	2.0	-0.6475154019324165	1.979	n/a	stim	poldrack-single-stim	s192	False	1
258.737	0.484	259.221	0.7532361348842223	draw_card	0.484	columbia_card_task_fmri	15.0	0.8181818181818181	89.0	-75.0	0.1818181818181818	12.0	2.0	2.0	0.52173170376863	0.484	n/a	stim	poldrack-single-stim	s192	False	1
259.225	0.998	260.223	-0.8831275014794127	draw_card	0.998	columbia_card_task_fmri	15.0	0.8	89.0	-75.0	0.2	12.0	3.0	2.0	1.8069147727066688	0.998	n/a	stim	poldrack-single-stim	s192	False	1
260.227	0.64	260.867	-2.883127501479411	draw_card	0.64	columbia_card_task_fmri	15.0	0.7777777777777778	89.0	-75.0	0.2222222222222222	12.0	4.0	2.0	3.2211381979622686	0.64	n/a	stim	poldrack-single-stim	s192	False	1
260.87	3.149	264.019	-5.383127501479413	draw_card	3.149	columbia_card_task_fmri	15.0	0.75	89.0	-75.0	0.25	12.0	5.0	2.0	4.773324291130223	3.149	n/a	stim	poldrack-single-stim	s192	False	1
264.023	1.451	265.474	-8.597413215765124	end_round	1.451	columbia_card_task_fmri	15.0	0.7142857142857143	71.0	-75.0	0.2857142857142857	12.0	6.0	2.0	6.457656667475362	1.451	5.0	stim	poldrack-single-stim	s192	False	1
266.231	1.5	265.48	n/a	-1.0	2.658	columbia_card_task_fmri	n/a	n/a	-1.0	n/a	n/a	n/a	n/a	n/a	n/a	n/a	n/a	ITI	poldrack-single-stim	s192	False	0
268.142	2.256	270.398	1.1168724985205871	draw_card	2.256	columbia_card_task_fmri	15.0	0.8	89.0	-65.0	0.2	15.0	1.0	3.0	-2.185328181981127	2.256	n/a	stim	poldrack-single-stim	s192	False	1
270.401	1.071	271.472	-0.025984644336555	draw_card	1.071	columbia_card_task_fmri	15.0	0.7857142857142857	89.0	-65.0	0.2142857142857142	15.0	2.0	3.0	-1.3610123079866838	1.071	n/a	stim	poldrack-single-stim	s192	False	1
271.475	0.627	272.102	-1.344665963017876	draw_card	0.627	columbia_card_task_fmri	15.0	0.7692307692307692	89.0	-65.0	0.2307692307692307	15.0	3.0	3.0	-0.4828575339370644	0.627	n/a	stim	poldrack-single-stim	s192	False	1
272.105	1.198	273.303	-2.8831275014794127	draw_card	1.198	columbia_card_task_fmri	15.0	0.75	89.0	-65.0	0.25	15.0	4.0	3.0	0.4503659943974298	1.198	4.0	stim	poldrack-single-stim	s192	False	0
274.056	1.5	273.305	n/a	-1.0	2.454	columbia_card_task_fmri	n/a	n/a	-1.0	n/a	n/a	n/a	n/a	n/a	n/a	n/a	n/a	ITI	poldrack-single-stim	s192	False	0
275.764	2.045	277.809	0.3668724985205873	draw_card	2.045	columbia_card_task_fmri	14.0	0.8125	89.0	-70.0	0.1875	16.0	1.0	3.0	-1.400762414634805	2.045	n/a	stim	poldrack-single-stim	s192	False	1
277.813	0.498	278.311	-0.6831275014794116	draw_card	0.498	columbia_card_task_fmri	14.0	0.8	89.0	-70.0	0.2	16.0	2.0	3.0	-0.5886519762235025	0.498	n/a	stim	poldrack-single-stim	s192	False	1
278.314	0.467	278.781	-1.8831275014794129	draw_card	0.467	columbia_card_task_fmri	14.0	0.7857142857142857	89.0	-70.0	0.2142857142857142	16.0	3.0	3.0	0.2770506528715373	0.467	n/a	stim	poldrack-single-stim	s192	False	1
278.785	0.527	279.312	-3.2677428860947977	draw_card	0.527	columbia_card_task_fmri	14.0	0.7692307692307692	89.0	-70.0	0.2307692307692307	16.0	4.0	3.0	1.1992861094534746	0.527	n/a	stim	poldrack-single-stim	s192	False	1
279.314	1.782	281.096	-4.883127501479413	draw_card	1.782	columbia_card_task_fmri	14.0	0.75	89.0	-70.0	0.25	16.0	5.0	3.0	2.1793450082844217	1.782	n/a	stim	poldrack-single-stim	s192	False	1
281.099	0.485	281.584	-6.792218410570321	draw_card	0.485	columbia_card_task_fmri	14.0	0.7272727272727273	89.0	-70.0	0.2727272727272727	16.0	6.0	3.0	3.2149630056709526	0.485	n/a	stim	poldrack-single-stim	s192	False	1
281.587	1.524	283.111	-9.083127501479414	draw_card	1.524	columbia_card_task_fmri	14.0	0.7	89.0	-70.0	0.3	16.0	7.0	3.0	4.296528558026125	1.524	n/a	stim	poldrack-single-stim	s192	False	1
283.115	1.165	284.28	-11.88312750147941	draw_card	1.165	columbia_card_task_fmri	14.0	0.6666666666666667	89.0	-70.0	0.3333333333333333	16.0	8.0	3.0	5.399252727088545	1.165	n/a	stim	poldrack-single-stim	s192	False	1
284.284	0.881	285.165	-15.383127501479413	end_round	0.881	columbia_card_task_fmri	14.0	0.625	71.0	-70.0	0.375	16.0	9.0	3.0	6.466114717939682	0.881	8.0	stim	poldrack-single-stim	s192	False	1
285.919	1.5	285.168	n/a	-1.0	2.386	columbia_card_task_fmri	n/a	n/a	-1.0	n/a	n/a	n/a	n/a	n/a	n/a	n/a	n/a	ITI	poldrack-single-stim	s192	False	0
287.559	2.688	290.247	0.3043724985205873	draw_card	2.688	columbia_card_task_fmri	11.0	0.6875	89.0	-30.0	0.3125	16.0	1.0	5.0	-15.13372444857588	2.688	1.0	stim	poldrack-single-stim	s192	False	0
291.004	1.5	290.253	n/a	-1.0	2.59	columbia_card_task_fmri	n/a	n/a	-1.0	n/a	n/a	n/a	n/a	n/a	n/a	n/a	n/a	ITI	poldrack-single-stim	s192	False	0
292.848	1.605	294.453	5.116872498520587	draw_card	1.605	columbia_card_task_fmri	15.0	0.8666666666666667	89.0	-75.0	0.1333333333333333	15.0	1.0	2.0	-3.5880045956879805	1.605	n/a	stim	poldrack-single-stim	s192	False	1
294.457	0.419	294.876	4.259729641377732	draw_card	0.419	columbia_card_task_fmri	15.0	0.8571428571428572	89.0	-75.0	0.1428571428571428	15.0	2.0	2.0	-2.690766160956777	0.419	n/a	stim	poldrack-single-stim	s192	False	1
294.879	0.445	295.324	3.2707186523667406	draw_card	0.445	columbia_card_task_fmri	15.0	0.8461538461538461	89.0	-75.0	0.1538461538461538	15.0	3.0	2.0	-1.7142337793564837	0.445	n/a	stim	poldrack-single-stim	s192	False	1
295.327	0.903	296.23	2.116872498520588	draw_card	0.903	columbia_card_task_fmri	15.0	0.8333333333333334	89.0	-75.0	0.1666666666666666	15.0	4.0	2.0	-0.6475154019324165	0.903	n/a	stim	poldrack-single-stim	s192	False	1
296.233	0.455	296.688	0.7532361348842223	draw_card	0.455	columbia_card_task_fmri	15.0	0.8181818181818181	89.0	-75.0	0.1818181818181818	15.0	5.0	2.0	0.52173170376863	0.455	5.0	stim	poldrack-single-stim	s192	False	0
297.444	1.5	296.693	n/a	-1.0	2.318	columbia_card_task_fmri	n/a	n/a	-1.0	n/a	n/a	n/a	n/a	n/a	n/a	n/a	n/a	ITI	poldrack-single-stim	s192	False	0
299.016	1.712	300.728	6.850205831853922	draw_card	1.712	columbia_card_task_fmri	17.0	0.8666666666666667	89.0	-75.0	0.1333333333333333	15.0	1.0	2.0	-2.9097218311873974	1.712	n/a	stim	poldrack-single-stim	s192	False	1
300.732	0.511	301.243	5.974015355663447	draw_card	0.511	columbia_card_task_fmri	17.0	0.8571428571428572	89.0	-75.0	0.1428571428571428	15.0	2.0	2.0	-1.9924534522943704	0.511	n/a	stim	poldrack-single-stim	s192	False	1
301.248	0.513	301.761	4.963026344674434	draw_card	0.513	columbia_card_task_fmri	17.0	0.8461538461538461	89.0	-75.0	0.1538461538461538	15.0	3.0	2.0	-0.99412669245131	0.513	n/a	stim	poldrack-single-stim	s192	False	1
301.764	0.881	302.645	3.783539165187255	draw_card	0.881	columbia_card_task_fmri	17.0	0.8333333333333334	89.0	-75.0	0.1666666666666666	15.0	4.0	2.0	0.0963926252799893	0.881	n/a	stim	poldrack-single-stim	s192	False	1
302.649	1.227	303.876	2.389599771247859	draw_card	1.227	columbia_card_task_fmri	17.0	0.8181818181818181	89.0	-75.0	0.1818181818181818	15.0	5.0	2.0	1.2917215505033468	1.227	n/a	stim	poldrack-single-stim	s192	False	1
303.88	1.464	305.344	0.7168724985205888	draw_card	1.464	columbia_card_task_fmri	17.0	0.8	89.0	-75.0	0.2	15.0	6.0	2.0	2.6055651920422638	1.464	n/a	stim	poldrack-single-stim	s192	False	1
305.348	0.761	306.109	-1.3275719459238535	draw_card	0.761	columbia_card_task_fmri	17.0	0.7777777777777778	89.0	-75.0	0.2222222222222222	15.0	7.0	2.0	4.051318887030739	0.761	n/a	stim	poldrack-single-stim	s192	False	1
306.113	1.042	307.155	-3.8831275014794127	draw_card	1.042	columbia_card_task_fmri	17.0	0.75	89.0	-75.0	0.25	15.0	8.0	2.0	5.638102543004671	1.042	n/a	stim	poldrack-single-stim	s192	False	1
307.159	2.025	309.184	-7.168841787193697	end_round	2.025	columbia_card_task_fmri	17.0	0.7142857142857143	71.0	-75.0	0.2857142857142857	15.0	9.0	2.0	7.359968947440116	2.025	8.0	stim	poldrack-single-stim	s192	False	1
309.94	1.5	309.189	n/a	-1.0	2.59	columbia_card_task_fmri	n/a	n/a	-1.0	n/a	n/a	n/a	n/a	n/a	n/a	n/a	n/a	ITI	poldrack-single-stim	s192	False	0
311.783	2.433	314.216	2.429372498520588	draw_card	2.433	columbia_card_task_fmri	2.0	0.9375	89.0	-25.0	0.0625	16.0	1.0	1.0	-27.385335720630344	2.433	n/a	stim	poldrack-single-stim	s192	False	1
314.22	0.645	314.865	2.3168724985205875	end_round	0.645	columbia_card_task_fmri	2.0	0.9333333333333332	71.0	-25.0	0.0666666666666666	16.0	2.0	1.0	-27.195443276519107	0.645	1.0	stim	poldrack-single-stim	s192	False	1
315.619	1.5	314.868	n/a	-1.0	2.386	columbia_card_task_fmri	n/a	n/a	-1.0	n/a	n/a	n/a	n/a	n/a	n/a	n/a	n/a	ITI	poldrack-single-stim	s192	False	0
317.259	2.517	319.776	4.616872498520587	draw_card	2.517	columbia_card_task_fmri	9.0	0.9375	89.0	-95.0	0.0625	16.0	1.0	1.0	-8.99203259520997	2.517	n/a	stim	poldrack-single-stim	s192	False	1
319.781	0.658	320.439	4.183539165187255	end_round	0.658	columbia_card_task_fmri	9.0	0.9333333333333332	71.0	-95.0	0.0666666666666666	16.0	2.0	1.0	-8.226887027166022	0.658	1.0	stim	poldrack-single-stim	s192	False	1
321.192	1.5	320.441	n/a	-1.0	2.318	columbia_card_task_fmri	n/a	n/a	-1.0	n/a	n/a	n/a	n/a	n/a	n/a	n/a	n/a	ITI	poldrack-single-stim	s192	False	0
322.765	1.528	324.293	6.179372498520587	draw_card	1.528	columbia_card_task_fmri	11.0	0.9375	89.0	-100.0	0.0625	16.0	1.0	1.0	-7.303187354622683	1.528	n/a	stim	poldrack-single-stim	s192	False	1
324.297	0.428	324.725	5.716872498520588	draw_card	0.428	columbia_card_task_fmri	11.0	0.9333333333333332	89.0	-100.0	0.0666666666666666	16.0	2.0	1.0	-6.486201494589224	0.428	n/a	stim	poldrack-single-stim	s192	False	1
324.727	0.382	325.109	5.18830106994916	draw_card	0.382	columbia_card_task_fmri	11.0	0.9285714285714286	89.0	-100.0	0.0714285714285714	16.0	3.0	1.0	-5.590128279374255	0.382	n/a	stim	poldrack-single-stim	s192	False	1
325.113	0.657	325.77	4.57841096005905	draw_card	0.657	columbia_card_task_fmri	11.0	0.9230769230769232	89.0	-100.0	0.0769230769230769	16.0	4.0	1.0	-4.601516913715045	0.657	n/a	stim	poldrack-single-stim	s192	False	1
325.774	0.848	326.622	3.8668724985205873	end_round	0.848	columbia_card_task_fmri	11.0	0.9166666666666666	71.0	-100.0	0.0833333333333333	16.0	5.0	1.0	-3.5035437488015617	0.848	4.0	stim	poldrack-single-stim	s192	False	1
327.378	1.5	326.627	n/a	-1.0	2.318	columbia_card_task_fmri	n/a	n/a	-1.0	n/a	n/a	n/a	n/a	n/a	n/a	n/a	n/a	ITI	poldrack-single-stim	s192	False	0
328.951	1.865	330.816	6.741872498520587	draw_card	1.865	columbia_card_task_fmri	16.0	0.875	89.0	-75.0	0.125	16.0	1.0	2.0	-4.085491378286285	1.865	1.0	stim	poldrack-single-stim	s192	False	0
331.572	1.5	330.821	n/a	-1.0	2.318	columbia_card_task_fmri	n/a	n/a	-1.0	n/a	n/a	n/a	n/a	n/a	n/a	n/a	n/a	ITI	poldrack-single-stim	s192	False	0
333.144	1.815	334.959	6.991872498520587	draw_card	1.815	columbia_card_task_fmri	17.0	0.875	89.0	-80.0	0.125	16.0	1.0	2.0	-2.105766998268521	1.815	n/a	stim	poldrack-single-stim	s192	False	1
334.962	0.449	335.411	6.183539165187256	draw_card	0.449	columbia_card_task_fmri	17.0	0.8666666666666667	89.0	-80.0	0.1333333333333333	16.0	2.0	2.0	-1.213729615053346	0.449	n/a	stim	poldrack-single-stim	s192	False	1
335.416	0.839	336.255	5.259729641377733	draw_card	0.839	columbia_card_task_fmri	17.0	0.8571428571428572	89.0	-80.0	0.1428571428571428	16.0	3.0	2.0	-0.2463944181519224	0.839	n/a	stim	poldrack-single-stim	s192	False	1
336.26	0.479	336.739	4.193795575443664	draw_card	0.479	columbia_card_task_fmri	17.0	0.8461538461538461	89.0	-80.0	0.1538461538461538	16.0	4.0	2.0	0.8064100320998051	0.479	n/a	stim	poldrack-single-stim	s192	False	1
336.742	0.429	337.171	2.950205831853923	draw_card	0.429	columbia_card_task_fmri	17.0	0.8333333333333334	89.0	-80.0	0.1666666666666666	16.0	5.0	2.0	1.9564232250500808	0.429	n/a	stim	poldrack-single-stim	s192	False	1
337.175	0.944	338.119	1.4805088621569489	draw_card	0.944	columbia_card_task_fmri	17.0	0.8181818181818181	89.0	-80.0	0.1818181818181818	16.0	6.0	2.0	3.2169479998866564	0.944	n/a	stim	poldrack-single-stim	s192	False	1
338.123	1.625	339.748	-0.2831275014794112	draw_card	1.625	columbia_card_task_fmri	17.0	0.8	89.0	-80.0	0.2	16.0	7.0	2.0	4.60243415554946	1.625	n/a	stim	poldrack-single-stim	s192	False	1
339.753	0.895	340.648	-2.438683057034968	end_round	0.895	columbia_card_task_fmri	17.0	0.7777777777777778	71.0	-80.0	0.2222222222222222	16.0	8.0	2.0	6.127004412487082	0.895	7.0	stim	poldrack-single-stim	s192	False	1
341.407	1.5	340.656	n/a	-1.0	2.386	columbia_card_task_fmri	n/a	n/a	-1.0	n/a	n/a	n/a	n/a	n/a	n/a	n/a	n/a	ITI	poldrack-single-stim	s192	False	0
354.054	1.544	355.598	1.2835391651872552	draw_card	1.544	columbia_card_task_fmri	13.0	0.8333333333333334	89.0	-70.0	0.1666666666666666	6.0	1.0	1.0	-3.250645778211439	1.544	n/a	stim	poldrack-single-stim	s192	False	1
355.603	0.913	356.516	-1.4831275014794123	draw_card	0.913	columbia_card_task_fmri	13.0	0.8	89.0	-70.0	0.2	6.0	2.0	1.0	-0.9878509699352236	0.913	2.0	stim	poldrack-single-stim	s192	False	0
357.271	1.5	356.52	n/a	-1.0	2.25	columbia_card_task_fmri	n/a	n/a	-1.0	n/a	n/a	n/a	n/a	n/a	n/a	n/a	n/a	ITI	poldrack-single-stim	s192	False	0
358.775	1.04	359.815	1.2835391651872552	draw_card	1.04	columbia_card_task_fmri	15.0	0.8333333333333334	89.0	-80.0	0.1666666666666666	6.0	1.0	1.0	1.2123686647059913	1.04	n/a	stim	poldrack-single-stim	s192	False	1
359.82	0.5	360.32	-1.8831275014794129	draw_card	0.5	columbia_card_task_fmri	15.0	0.8	89.0	-80.0	0.2	6.0	2.0	1.0	3.803647112367507	0.5	n/a	stim	poldrack-single-stim	s192	False	1
360.324	0.525	360.849	-6.633127501479413	draw_card	0.525	columbia_card_task_fmri	15.0	0.75	89.0	-80.0	0.25	6.0	3.0	1.0	6.935368179384788	0.525	n/a	stim	poldrack-single-stim	s192	False	1
360.854	0.863	361.717	-14.549794168146075	end_round	0.863	columbia_card_task_fmri	15.0	0.6666666666666667	71.0	-80.0	0.3333333333333333	6.0	4.0	1.0	10.578163187107611	0.863	3.0	stim	poldrack-single-stim	s192	False	1
362.474	1.5	361.723	n/a	-1.0	2.386	columbia_card_task_fmri	n/a	n/a	-1.0	n/a	n/a	n/a	n/a	n/a	n/a	n/a	n/a	ITI	poldrack-single-stim	s192	False	0
364.114	1.211	365.325	2.9502058318539213	draw_card	1.211	columbia_card_task_fmri	16.0	0.8333333333333334	89.0	-75.0	0.1666666666666666	6.0	1.0	1.0	-0.2755693210122345	1.211	n/a	stim	poldrack-single-stim	s192	False	1
365.33	0.403	365.733	-0.0831275014794119	draw_card	0.403	columbia_card_task_fmri	16.0	0.8	89.0	-75.0	0.2	6.0	2.0	1.0	2.2062325858488805	0.403	n/a	stim	poldrack-single-stim	s192	False	1
365.737	0.585	366.322	-4.633127501479413	end_round	0.585	columbia_card_task_fmri	16.0	0.75	71.0	-75.0	0.25	6.0	3.0	1.0	5.20570657937899	0.585	2.0	stim	poldrack-single-stim	s192	False	1
367.079	1.5	366.328	n/a	-1.0	2.59	columbia_card_task_fmri	n/a	n/a	-1.0	n/a	n/a	n/a	n/a	n/a	n/a	n/a	n/a	ITI	poldrack-single-stim	s192	False	0
368.924	1.557	370.481	4.116872498520587	draw_card	1.557	columbia_card_task_fmri	21.0	0.75	89.0	-55.0	0.25	8.0	1.0	2.0	-1.278290624236725	1.557	n/a	stim	poldrack-single-stim	s192	False	1
370.486	0.443	370.929	1.4025867842348738	draw_card	0.443	columbia_card_task_fmri	21.0	0.7142857142857143	89.0	-55.0	0.2857142857142857	8.0	2.0	2.0	0.1432282200878205	0.443	2.0	stim	poldrack-single-stim	s192	False	0
371.685	1.5	370.934	n/a	-1.0	2.658	columbia_card_task_fmri	n/a	n/a	-1.0	n/a	n/a	n/a	n/a	n/a	n/a	n/a	n/a	ITI	poldrack-single-stim	s192	False	0
373.597	1.789	375.386	5.366872498520587	draw_card	1.789	columbia_card_task_fmri	26.0	0.75	89.0	-65.0	0.25	8.0	1.0	2.0	5.20570657937899	1.789	1.0	stim	poldrack-single-stim	s192	False	0
376.144	1.5	375.393	n/a	-1.0	2.386	columbia_card_task_fmri	n/a	n/a	-1.0	n/a	n/a	n/a	n/a	n/a	n/a	n/a	n/a	ITI	poldrack-single-stim	s192	False	0
377.784	2.562	380.346	0.4502058318539212	draw_card	2.562	columbia_card_task_fmri	15.0	0.7777777777777778	89.0	-60.0	0.2222222222222222	9.0	1.0	2.0	-3.0030158421320685	2.562	n/a	stim	poldrack-single-stim	s192	False	1
380.35	0.389	380.739	-1.6331275014794129	draw_card	0.389	columbia_card_task_fmri	15.0	0.75	89.0	-60.0	0.25	9.0	2.0	2.0	-1.7103983841366954	0.389	n/a	stim	poldrack-single-stim	s192	False	1
380.743	0.436	381.179	-4.31169893005084	draw_card	0.436	columbia_card_task_fmri	15.0	0.7142857142857143	89.0	-60.0	0.2857142857142857	9.0	3.0	2.0	-0.3076581105145379	0.436	n/a	stim	poldrack-single-stim	s192	False	1
381.184	0.806	381.99	-7.883127501479411	end_round	0.806	columbia_card_task_fmri	15.0	0.6666666666666667	71.0	-60.0	0.3333333333333333	9.0	4.0	2.0	1.1633856802887408	0.806	3.0	stim	poldrack-single-stim	s192	False	1
382.747	1.5	381.996	n/a	-1.0	2.386	columbia_card_task_fmri	n/a	n/a	-1.0	n/a	n/a	n/a	n/a	n/a	n/a	n/a	n/a	ITI	poldrack-single-stim	s192	False	0
384.387	1.66	386.047	4.816872498520588	draw_card	1.66	columbia_card_task_fmri	13.0	0.9	89.0	-90.0	0.1	10.0	1.0	1.0	-3.282844076936591	1.66	n/a	stim	poldrack-single-stim	s192	False	1
386.052	0.377	386.429	3.672428054076143	draw_card	0.377	columbia_card_task_fmri	13.0	0.8888888888888888	89.0	-90.0	0.1111111111111111	10.0	2.0	1.0	-1.81634835383646	0.377	n/a	stim	poldrack-single-stim	s192	False	1
386.434	0.417	386.851	2.241872498520588	draw_card	0.417	columbia_card_task_fmri	13.0	0.875	89.0	-90.0	0.125	10.0	3.0	1.0	-0.1255096077296542	0.417	n/a	stim	poldrack-single-stim	s192	False	1
386.855	0.525	387.38	0.4025867842348756	draw_card	0.525	columbia_card_task_fmri	13.0	0.8571428571428572	89.0	-90.0	0.1428571428571428	10.0	4.0	1.0	1.8493335166682243	0.525	n/a	stim	poldrack-single-stim	s192	False	1
387.385	0.663	388.048	-2.0497941681460787	draw_card	0.663	columbia_card_task_fmri	13.0	0.8333333333333334	89.0	-90.0	0.1666666666666666	10.0	5.0	1.0	4.188889429189693	0.663	n/a	stim	poldrack-single-stim	s192	False	1
388.052	1.065	389.117	-5.483127501479412	end_round	1.065	columbia_card_task_fmri	13.0	0.8	71.0	-90.0	0.2	10.0	6.0	1.0	6.9990773304669816	1.065	5.0	stim	poldrack-single-stim	s192	False	1
389.875	1.5	389.124	n/a	-1.0	2.25	columbia_card_task_fmri	n/a	n/a	-1.0	n/a	n/a	n/a	n/a	n/a	n/a	n/a	n/a	ITI	poldrack-single-stim	s192	False	0
391.379	2.257	393.636	6.116872498520587	draw_card	2.257	columbia_card_task_fmri	15.0	0.9	89.0	-95.0	0.1	10.0	1.0	1.0	-1.1874432071271173	2.257	1.0	stim	poldrack-single-stim	s192	False	0
394.394	1.5	393.643	n/a	-1.0	2.318	columbia_card_task_fmri	n/a	n/a	-1.0	n/a	n/a	n/a	n/a	n/a	n/a	n/a	n/a	ITI	poldrack-single-stim	s192	False	0
395.967	1.631	397.598	1.916872498520588	draw_card	1.631	columbia_card_task_fmri	16.0	0.8	89.0	-65.0	0.2	10.0	1.0	2.0	-1.7861898090238952	1.631	n/a	stim	poldrack-single-stim	s192	False	1
397.602	0.398	398.0	0.1168724985205891	draw_card	0.398	columbia_card_task_fmri	16.0	0.7777777777777778	89.0	-65.0	0.2222222222222222	10.0	2.0	2.0	-0.5138834072226643	0.398	n/a	stim	poldrack-single-stim	s192	False	1
398.004	0.477	398.481	-2.1331275014794127	draw_card	0.477	columbia_card_task_fmri	16.0	0.75	89.0	-65.0	0.25	10.0	3.0	2.0	0.882582382184232	0.477	3.0	stim	poldrack-single-stim	s192	False	0
399.241	1.5	398.49	n/a	-1.0	2.25	columbia_card_task_fmri	n/a	n/a	-1.0	n/a	n/a	n/a	n/a	n/a	n/a	n/a	n/a	ITI	poldrack-single-stim	s192	False	0
400.745	1.973	402.718	0.6168724985205873	draw_card	1.973	columbia_card_task_fmri	7.0	0.9166666666666666	89.0	-95.0	0.0833333333333333	12.0	1.0	1.0	-5.984593213691149	1.973	n/a	stim	poldrack-single-stim	s192	False	1
402.723	0.423	403.146	-0.155854774206686	draw_card	0.423	columbia_card_task_fmri	7.0	0.9090909090909092	89.0	-95.0	0.0909090909090909	12.0	2.0	1.0	-4.8560203944464	0.423	2.0	stim	poldrack-single-stim	s192	False	0
403.902	1.5	403.151	n/a	-1.0	2.25	columbia_card_task_fmri	n/a	n/a	-1.0	n/a	n/a	n/a	n/a	n/a	n/a	n/a	n/a	ITI	poldrack-single-stim	s192	False	0
405.407	1.679	407.086	1.2835391651872552	draw_card	1.679	columbia_card_task_fmri	14.0	0.8333333333333334	89.0	-75.0	0.1666666666666666	12.0	1.0	2.0	-1.0194450848267491	1.679	n/a	stim	poldrack-single-stim	s192	False	1
407.089	0.428	407.517	-0.064945683297596	draw_card	0.428	columbia_card_task_fmri	14.0	0.8181818181818181	89.0	-75.0	0.1818181818181818	12.0	2.0	2.0	0.1367602992111969	0.428	n/a	stim	poldrack-single-stim	s192	False	1
407.522	0.43	407.952	-1.6831275014794116	draw_card	0.43	columbia_card_task_fmri	14.0	0.8	89.0	-75.0	0.2	12.0	3.0	2.0	1.40761224952967	0.43	n/a	stim	poldrack-single-stim	s192	False	1
407.956	0.508	408.464	-3.660905279257188	draw_card	0.508	columbia_card_task_fmri	14.0	0.7777777777777778	89.0	-75.0	0.2222222222222222	12.0	4.0	2.0	2.8060696893444472	0.508	n/a	stim	poldrack-single-stim	s192	False	1
408.467	0.424	408.891	-6.133127501479413	draw_card	0.424	columbia_card_task_fmri	14.0	0.75	89.0	-75.0	0.25	12.0	5.0	2.0	4.3409561378622	0.424	5.0	stim	poldrack-single-stim	s192	False	0
409.649	1.5	408.898	n/a	-1.0	2.386	columbia_card_task_fmri	n/a	n/a	-1.0	n/a	n/a	n/a	n/a	n/a	n/a	n/a	n/a	ITI	poldrack-single-stim	s192	False	0
411.29	1.543	412.833	2.9502058318539213	draw_card	1.543	columbia_card_task_fmri	15.0	0.8333333333333334	89.0	-70.0	0.1666666666666666	12.0	1.0	2.0	-2.506988310396604	1.543	n/a	stim	poldrack-single-stim	s192	False	1
412.837	0.413	413.25	1.6623270439751303	draw_card	0.413	columbia_card_task_fmri	15.0	0.8181818181818181	89.0	-70.0	0.1818181818181818	12.0	2.0	2.0	-1.4029556659189168	0.413	n/a	stim	poldrack-single-stim	s192	False	1
413.254	0.475	413.729	0.1168724985205873	draw_card	0.475	columbia_card_task_fmri	15.0	0.8	89.0	-70.0	0.2	12.0	3.0	2.0	-0.1894341905582877	0.475	n/a	stim	poldrack-single-stim	s192	False	1
413.734	0.733	414.467	-1.772016390368302	draw_card	0.733	columbia_card_task_fmri	15.0	0.7777777777777778	89.0	-70.0	0.2222222222222222	12.0	4.0	2.0	1.145953175015677	0.733	4.0	stim	poldrack-single-stim	s192	False	0
415.223	1.5	414.472	n/a	-1.0	2.386	columbia_card_task_fmri	n/a	n/a	-1.0	n/a	n/a	n/a	n/a	n/a	n/a	n/a	n/a	ITI	poldrack-single-stim	s192	False	0
416.864	1.769	418.633	0.916872498520588	draw_card	1.769	columbia_card_task_fmri	16.0	0.8	89.0	-70.0	0.2	15.0	1.0	3.0	0.2098017340443121	1.769	n/a	stim	poldrack-single-stim	s192	False	1
418.637	0.392	419.029	-0.3116989300508415	draw_card	0.392	columbia_card_task_fmri	16.0	0.7857142857142857	89.0	-70.0	0.2142857142857142	15.0	2.0	3.0	1.096194865237912	0.392	n/a	stim	poldrack-single-stim	s192	False	1
419.034	0.444	419.478	-1.7292813476332594	draw_card	0.444	columbia_card_task_fmri	16.0	0.7692307692307692	89.0	-70.0	0.2307692307692307	15.0	3.0	3.0	2.0404677525721766	0.444	3.0	stim	poldrack-single-stim	s192	False	0
420.238	1.5	419.487	n/a	-1.0	2.726	columbia_card_task_fmri	n/a	n/a	-1.0	n/a	n/a	n/a	n/a	n/a	n/a	n/a	n/a	ITI	poldrack-single-stim	s192	False	0
422.218	1.659	423.877	1.3043724985205871	draw_card	1.659	columbia_card_task_fmri	14.0	0.8125	89.0	-65.0	0.1875	16.0	1.0	3.0	-3.348013388146416	1.659	1.0	stim	poldrack-single-stim	s192	False	0
424.632	1.5	423.881	n/a	-1.0	2.454	columbia_card_task_fmri	n/a	n/a	-1.0	n/a	n/a	n/a	n/a	n/a	n/a	n/a	n/a	ITI	poldrack-single-stim	s192	False	0
426.341	1.576	427.917	1.0543724985205871	draw_card	1.576	columbia_card_task_fmri	16.0	0.8125	89.0	-75.0	0.1875	16.0	1.0	3.0	1.326182528606573	1.576	n/a	stim	poldrack-single-stim	s192	False	1
427.922	0.48	428.402	-0.0831275014794119	draw_card	0.48	columbia_card_task_fmri	16.0	0.8	89.0	-75.0	0.2	16.0	2.0	3.0	2.2062325858488805	0.48	n/a	stim	poldrack-single-stim	s192	False	1
428.407	0.427	428.834	-1.3831275014794109	draw_card	0.427	columbia_card_task_fmri	16.0	0.7857142857142857	89.0	-75.0	0.2142857142857142	16.0	3.0	3.0	3.1443445885851418	0.427	n/a	stim	poldrack-single-stim	s192	False	1
428.838	1.28	430.118	-2.883127501479416	draw_card	1.28	columbia_card_task_fmri	16.0	0.7692307692307692	89.0	-75.0	0.2307692307692307	16.0	4.0	3.0	4.143703579614225	1.28	n/a	stim	poldrack-single-stim	s192	False	1
430.123	0.797	430.92	-4.633127501479413	draw_card	0.797	columbia_card_task_fmri	16.0	0.75	89.0	-75.0	0.25	16.0	5.0	3.0	5.20570657937899	0.797	n/a	stim	poldrack-single-stim	s192	False	1
430.924	1.222	432.146	-6.701309319661229	draw_card	1.222	columbia_card_task_fmri	16.0	0.7272727272727273	89.0	-75.0	0.2727272727272727	16.0	6.0	3.0	6.327898554939416	1.222	n/a	stim	poldrack-single-stim	s192	False	1
432.151	1.801	433.952	-9.183127501479412	end_round	1.801	columbia_card_task_fmri	16.0	0.7	71.0	-75.0	0.3	16.0	7.0	3.0	7.499863504277833	1.801	6.0	stim	poldrack-single-stim	s192	False	1
434.71	1.5	433.959	n/a	-1.0	2.318	columbia_card_task_fmri	n/a	n/a	-1.0	n/a	n/a	n/a	n/a	n/a	n/a	n/a	n/a	ITI	poldrack-single-stim	s192	False	0
436.282	1.507	437.789	5.316872498520588	draw_card	1.507	columbia_card_task_fmri	16.0	0.8666666666666667	89.0	-80.0	0.1333333333333333	15.0	1.0	2.0	-1.5529586354117413	1.507	n/a	stim	poldrack-single-stim	s192	False	1
437.794	0.465	438.259	4.402586784234876	draw_card	0.465	columbia_card_task_fmri	16.0	0.8571428571428572	89.0	-80.0	0.1428571428571428	15.0	2.0	2.0	-0.5956359397031648	0.465	n/a	stim	poldrack-single-stim	s192	False	1
438.263	0.603	438.866	3.3476417292898173	draw_card	0.603	columbia_card_task_fmri	16.0	0.8461538461538461	89.0	-80.0	0.1538461538461538	15.0	3.0	2.0	0.4462738576520237	0.603	n/a	stim	poldrack-single-stim	s192	False	1
438.871	0.489	439.36	2.116872498520589	draw_card	0.489	columbia_card_task_fmri	16.0	0.8333333333333334	89.0	-80.0	0.1666666666666666	15.0	4.0	2.0	1.5843891843274849	0.489	4.0	stim	poldrack-single-stim	s192	False	0
440.116	1.5	439.365	n/a	-1.0	2.318	columbia_card_task_fmri	n/a	n/a	-1.0	n/a	n/a	n/a	n/a	n/a	n/a	n/a	n/a	ITI	poldrack-single-stim	s192	False	0
441.69	1.522	443.212	6.183539165187256	draw_card	1.522	columbia_card_task_fmri	17.0	0.8666666666666667	89.0	-80.0	0.1333333333333333	15.0	1.0	2.0	-1.213729615053346	1.522	n/a	stim	poldrack-single-stim	s192	False	1
443.215	0.42	443.635	5.259729641377733	draw_card	0.42	columbia_card_task_fmri	17.0	0.8571428571428572	89.0	-80.0	0.1428571428571428	15.0	2.0	2.0	-0.2463944181519224	0.42	n/a	stim	poldrack-single-stim	s192	False	1
443.639	0.395	444.034	4.193795575443664	draw_card	0.395	columbia_card_task_fmri	17.0	0.8461538461538461	89.0	-80.0	0.1538461538461538	15.0	3.0	2.0	0.8064100320998051	0.395	n/a	stim	poldrack-single-stim	s192	False	1
444.04	0.611	444.651	2.950205831853923	draw_card	0.611	columbia_card_task_fmri	17.0	0.8333333333333334	89.0	-80.0	0.1666666666666666	15.0	4.0	2.0	1.9564232250500808	0.611	n/a	stim	poldrack-single-stim	s192	False	1
444.656	0.621	445.277	1.4805088621569489	draw_card	0.621	columbia_card_task_fmri	17.0	0.8181818181818181	89.0	-80.0	0.1818181818181818	15.0	5.0	2.0	3.2169479998866564	0.621	n/a	stim	poldrack-single-stim	s192	False	1
445.282	0.98	446.262	-0.2831275014794112	draw_card	0.98	columbia_card_task_fmri	17.0	0.8	89.0	-80.0	0.2	15.0	6.0	2.0	4.60243415554946	0.98	n/a	stim	poldrack-single-stim	s192	False	1
446.267	1.019	447.286	-2.438683057034968	draw_card	1.019	columbia_card_task_fmri	17.0	0.7777777777777778	89.0	-80.0	0.2222222222222222	15.0	7.0	2.0	6.127004412487082	1.019	n/a	stim	poldrack-single-stim	s192	False	1
447.29	1.001	448.291	-5.133127501479413	draw_card	1.001	columbia_card_task_fmri	17.0	0.75	89.0	-80.0	0.25	15.0	8.0	2.0	7.8002727279019055	1.001	n/a	stim	poldrack-single-stim	s192	False	1
448.297	1.263	449.56	-8.597413215765124	draw_card	1.263	columbia_card_task_fmri	17.0	0.7142857142857143	89.0	-80.0	0.2857142857142857	15.0	9.0	2.0	9.615964959239491	1.263	n/a	stim	poldrack-single-stim	s192	False	1
449.565	1.035	450.6	-13.216460834812745	end_round	1.035	columbia_card_task_fmri	17.0	0.6666666666666667	71.0	-80.0	0.3333333333333333	15.0	10.0	2.0	11.519942345058524	1.035	9.0	stim	poldrack-single-stim	s192	False	1
451.356	1.5	450.605	n/a	-1.0	2.59	columbia_card_task_fmri	n/a	n/a	-1.0	n/a	n/a	n/a	n/a	n/a	n/a	n/a	n/a	ITI	poldrack-single-stim	s192	False	0
453.201	1.666	454.867	2.116872498520588	draw_card	1.666	columbia_card_task_fmri	1.0	0.9375	89.0	-15.0	0.0625	16.0	1.0	1.0	-29.841524221762388	1.666	n/a	stim	poldrack-single-stim	s192	False	1
454.872	0.859	455.731	2.050205831853921	end_round	0.859	columbia_card_task_fmri	1.0	0.9333333333333332	71.0	-15.0	0.0666666666666666	16.0	2.0	1.0	-29.737522691270502	0.859	1.0	stim	poldrack-single-stim	s192	False	1
456.49	1.5	455.739	n/a	-1.0	2.726	columbia_card_task_fmri	n/a	n/a	-1.0	n/a	n/a	n/a	n/a	n/a	n/a	n/a	n/a	ITI	poldrack-single-stim	s192	False	0
458.471	2.919	461.39	5.241872498520587	draw_card	2.919	columbia_card_task_fmri	10.0	0.9375	89.0	-100.0	0.0625	16.0	1.0	1.0	-7.544494271279319	2.919	n/a	stim	poldrack-single-stim	s192	False	1
461.394	0.47	461.864	4.783539165187254	draw_card	0.47	columbia_card_task_fmri	10.0	0.9333333333333332	89.0	-100.0	0.0666666666666666	16.0	2.0	1.0	-6.734912909303393	0.47	n/a	stim	poldrack-single-stim	s192	False	1
461.869	0.598	462.467	4.259729641377732	end_round	0.598	columbia_card_task_fmri	10.0	0.9285714285714286	71.0	-100.0	0.0714285714285714	16.0	3.0	1.0	-5.84695807468837	0.598	2.0	stim	poldrack-single-stim	s192	False	1
463.227	1.5	462.476	n/a	-1.0	2.522	columbia_card_task_fmri	n/a	n/a	-1.0	n/a	n/a	n/a	n/a	n/a	n/a	n/a	n/a	ITI	poldrack-single-stim	s192	False	0
465.005	1.549	466.554	5.866872498520587	draw_card	1.549	columbia_card_task_fmri	15.0	0.875	89.0	-75.0	0.125	16.0	1.0	2.0	-4.4153861716840055	1.549	n/a	stim	poldrack-single-stim	s192	False	1
466.558	0.427	466.985	5.116872498520587	draw_card	0.427	columbia_card_task_fmri	15.0	0.8666666666666667	89.0	-75.0	0.1333333333333333	16.0	2.0	2.0	-3.5880045956879805	0.427	n/a	stim	poldrack-single-stim	s192	False	1
466.99	1.137	468.127	4.259729641377732	draw_card	1.137	columbia_card_task_fmri	15.0	0.8571428571428572	89.0	-75.0	0.1428571428571428	16.0	3.0	2.0	-2.690766160956777	1.137	n/a	stim	poldrack-single-stim	s192	False	1
468.133	0.434	468.567	3.2707186523667406	draw_card	0.434	columbia_card_task_fmri	15.0	0.8461538461538461	89.0	-75.0	0.1538461538461538	16.0	4.0	2.0	-1.7142337793564837	0.434	n/a	stim	poldrack-single-stim	s192	False	1
468.572	0.733	469.305	2.116872498520588	draw_card	0.733	columbia_card_task_fmri	15.0	0.8333333333333334	89.0	-75.0	0.1666666666666666	16.0	5.0	2.0	-0.6475154019324165	0.733	n/a	stim	poldrack-single-stim	s192	False	1
469.311	0.849	470.16	0.7532361348842223	end_round	0.849	columbia_card_task_fmri	15.0	0.8181818181818181	71.0	-75.0	0.1818181818181818	16.0	6.0	2.0	0.52173170376863	0.849	5.0	stim	poldrack-single-stim	s192	False	1
470.915	1.5	470.164	n/a	-1.0	3.134	columbia_card_task_fmri	n/a	n/a	-1.0	n/a	n/a	n/a	n/a	n/a	n/a	n/a	n/a	ITI	poldrack-single-stim	s192	False	0
473.304	1.771	475.075	6.116872498520587	draw_card	1.771	columbia_card_task_fmri	16.0	0.875	89.0	-80.0	0.125	16.0	1.0	2.0	-2.4357607633310074	1.771	n/a	stim	poldrack-single-stim	s192	False	1
475.08	0.728	475.808	5.316872498520588	draw_card	0.728	columbia_card_task_fmri	16.0	0.8666666666666667	89.0	-80.0	0.1333333333333333	16.0	2.0	2.0	-1.5529586354117413	0.728	2.0	stim	poldrack-single-stim	s192	False	0
476.563	1.5	475.812	n/a	-1.0	2.386	columbia_card_task_fmri	n/a	n/a	-1.0	n/a	n/a	n/a	n/a	n/a	n/a	n/a	n/a	ITI	poldrack-single-stim	s192	False	0
478.205	1.969	480.174	3.304372498520588	draw_card	1.969	columbia_card_task_fmri	4.0	0.6875	89.0	-5.0	0.3125	16.0	1.0	5.0	-29.57729012597801	1.969	1.0	stim	poldrack-single-stim	s192	False	0
480.929	1.5	480.178	n/a	-1.0	2.386	columbia_card_task_fmri	n/a	n/a	-1.0	n/a	n/a	n/a	n/a	n/a	n/a	n/a	n/a	ITI	poldrack-single-stim	s192	False	0
482.57	2.052	484.622	0.450205831853923	draw_card	2.052	columbia_card_task_fmri	14.0	0.8333333333333334	89.0	-80.0	0.1666666666666666	6.0	1.0	1.0	0.8403620961644904	2.052	1.0	stim	poldrack-single-stim	s192	False	0
485.381	1.5	484.63	n/a	-1.0	2.318	columbia_card_task_fmri	n/a	n/a	-1.0	n/a	n/a	n/a	n/a	n/a	n/a	n/a	n/a	ITI	poldrack-single-stim	s192	False	0
486.954	1.621	488.575	2.116872498520588	draw_card	1.621	columbia_card_task_fmri	15.0	0.8333333333333334	89.0	-75.0	0.1666666666666666	6.0	1.0	1.0	-0.6475154019324165	1.621	n/a	stim	poldrack-single-stim	s192	False	1
488.58	0.573	489.153	-0.8831275014794127	draw_card	0.573	columbia_card_task_fmri	15.0	0.8	89.0	-75.0	0.2	6.0	2.0	1.0	1.8069147727066688	0.573	n/a	stim	poldrack-single-stim	s192	False	1
489.158	0.457	489.615	-5.383127501479413	draw_card	0.457	columbia_card_task_fmri	15.0	0.75	89.0	-75.0	0.25	6.0	3.0	1.0	4.773324291130223	0.457	n/a	stim	poldrack-single-stim	s192	False	1
489.619	0.736	490.355	-12.88312750147941	end_round	0.736	columbia_card_task_fmri	15.0	0.6666666666666667	71.0	-75.0	0.3333333333333333	6.0	4.0	1.0	8.223915189806185	0.736	3.0	stim	poldrack-single-stim	s192	False	1
491.111	1.5	490.36	n/a	-1.0	2.318	columbia_card_task_fmri	n/a	n/a	-1.0	n/a	n/a	n/a	n/a	n/a	n/a	n/a	n/a	ITI	poldrack-single-stim	s192	False	0
492.683	0.992	493.675	3.783539165187255	draw_card	0.992	columbia_card_task_fmri	16.0	0.8333333333333334	89.0	-70.0	0.1666666666666666	6.0	1.0	1.0	-2.135130049135306	0.992	n/a	stim	poldrack-single-stim	s192	False	1
493.68	0.412	494.092	0.916872498520588	draw_card	0.412	columbia_card_task_fmri	16.0	0.8	89.0	-70.0	0.2	6.0	2.0	1.0	0.2098017340443121	0.412	n/a	stim	poldrack-single-stim	s192	False	1
494.098	0.651	494.749	-3.3831275014794127	draw_card	0.651	columbia_card_task_fmri	16.0	0.75	89.0	-70.0	0.25	6.0	3.0	1.0	3.0439414033944843	0.651	3.0	stim	poldrack-single-stim	s192	False	0
495.505	1.5	494.754	n/a	-1.0	2.862	columbia_card_task_fmri	n/a	n/a	-1.0	n/a	n/a	n/a	n/a	n/a	n/a	n/a	n/a	ITI	poldrack-single-stim	s192	False	0
497.623	1.565	499.188	4.366872498520587	draw_card	1.565	columbia_card_task_fmri	23.0	0.75	89.0	-60.0	0.25	8.0	1.0	2.0	1.7470725702455567	1.565	1.0	stim	poldrack-single-stim	s192	False	0
499.947	1.5	499.196	n/a	-1.0	2.726	columbia_card_task_fmri	n/a	n/a	-1.0	n/a	n/a	n/a	n/a	n/a	n/a	n/a	n/a	ITI	poldrack-single-stim	s192	False	0
501.928	1.422	503.35	4.866872498520587	draw_card	1.422	columbia_card_task_fmri	27.0	0.75	89.0	-70.0	0.25	8.0	1.0	2.0	7.8002727279019055	1.422	1.0	stim	poldrack-single-stim	s192	False	0
504.106	1.5	503.355	n/a	-1.0	2.25	columbia_card_task_fmri	n/a	n/a	-1.0	n/a	n/a	n/a	n/a	n/a	n/a	n/a	n/a	ITI	poldrack-single-stim	s192	False	0
505.612	1.532	507.144	0.1168724985205891	draw_card	1.532	columbia_card_task_fmri	16.0	0.7777777777777778	89.0	-65.0	0.2222222222222222	9.0	1.0	2.0	-0.5138834072226643	1.532	n/a	stim	poldrack-single-stim	s192	False	1
507.149	0.425	507.574	-2.1331275014794127	draw_card	0.425	columbia_card_task_fmri	16.0	0.75	89.0	-65.0	0.25	9.0	2.0	2.0	0.882582382184232	0.425	n/a	stim	poldrack-single-stim	s192	False	1
507.578	0.628	508.206	-5.025984644336553	draw_card	0.628	columbia_card_task_fmri	16.0	0.7142857142857143	89.0	-65.0	0.2857142857142857	9.0	3.0	2.0	2.39798037112557	0.628	n/a	stim	poldrack-single-stim	s192	False	1
508.212	0.633	508.845	-8.883127501479409	end_round	0.633	columbia_card_task_fmri	16.0	0.6666666666666667	71.0	-65.0	0.3333333333333333	9.0	4.0	2.0	3.9871301845461113	0.633	3.0	stim	poldrack-single-stim	s192	False	1
509.602	1.5	508.851	n/a	-1.0	2.318	columbia_card_task_fmri	n/a	n/a	-1.0	n/a	n/a	n/a	n/a	n/a	n/a	n/a	n/a	ITI	poldrack-single-stim	s192	False	0
511.176	1.663	512.839	5.316872498520588	draw_card	1.663	columbia_card_task_fmri	13.0	0.9	89.0	-85.0	0.1	10.0	1.0	1.0	-4.779158202962286	1.663	n/a	stim	poldrack-single-stim	s192	False	1
512.844	0.605	513.449	4.227983609631698	draw_card	0.605	columbia_card_task_fmri	13.0	0.8888888888888888	89.0	-85.0	0.1111111111111111	10.0	2.0	1.0	-3.3841770913249967	0.605	n/a	stim	poldrack-single-stim	s192	False	1
513.454	0.635	514.089	2.866872498520588	end_round	0.635	columbia_card_task_fmri	13.0	0.875	71.0	-85.0	0.125	10.0	3.0	1.0	-1.7757584819024927	0.635	2.0	stim	poldrack-single-stim	s192	False	1
514.846	1.5	514.095	n/a	-1.0	2.454	columbia_card_task_fmri	n/a	n/a	-1.0	n/a	n/a	n/a	n/a	n/a	n/a	n/a	n/a	ITI	poldrack-single-stim	s192	False	0
516.556	1.46	518.016	0.3168724985205884	draw_card	1.46	columbia_card_task_fmri	14.0	0.8	89.0	-65.0	0.2	10.0	1.0	2.0	-2.5844448138099985	1.46	n/a	stim	poldrack-single-stim	s192	False	1
518.021	0.416	518.437	-1.4386830570349662	draw_card	0.416	columbia_card_task_fmri	14.0	0.7777777777777778	89.0	-65.0	0.2222222222222222	10.0	2.0	2.0	-1.3436834880223143	0.416	n/a	stim	poldrack-single-stim	s192	False	1
518.442	0.428	518.87	-3.6331275014794127	draw_card	0.428	columbia_card_task_fmri	14.0	0.75	89.0	-65.0	0.25	10.0	3.0	2.0	0.018169709475778	0.428	n/a	stim	poldrack-single-stim	s192	False	1
518.874	0.413	519.287	-6.454556072907982	draw_card	0.413	columbia_card_task_fmri	14.0	0.7142857142857143	89.0	-65.0	0.2857142857142857	10.0	4.0	2.0	1.496018645083126	0.413	n/a	stim	poldrack-single-stim	s192	False	1
519.292	0.548	519.84	-10.216460834812745	end_round	0.548	columbia_card_task_fmri	14.0	0.6666666666666667	71.0	-65.0	0.3333333333333333	10.0	5.0	2.0	3.0458031776594723	0.548	4.0	stim	poldrack-single-stim	s192	False	1
520.598	1.5	519.847	n/a	-1.0	2.522	columbia_card_task_fmri	n/a	n/a	-1.0	n/a	n/a	n/a	n/a	n/a	n/a	n/a	n/a	ITI	poldrack-single-stim	s192	False	0
522.375	1.258	523.633	1.7168724985205888	draw_card	1.258	columbia_card_task_fmri	17.0	0.8	89.0	-70.0	0.2	10.0	1.0	2.0	0.6090551744503045	1.258	n/a	stim	poldrack-single-stim	s192	False	1
523.638	0.39	524.028	-0.2164608348127448	draw_card	0.39	columbia_card_task_fmri	17.0	0.7777777777777778	89.0	-70.0	0.2222222222222222	10.0	2.0	2.0	1.975978845484363	0.39	n/a	stim	poldrack-single-stim	s192	False	1
524.033	0.447	524.48	-2.6331275014794127	draw_card	0.447	columbia_card_task_fmri	17.0	0.75	89.0	-70.0	0.25	10.0	3.0	2.0	3.476264179936706	0.447	n/a	stim	poldrack-single-stim	s192	False	1
524.485	0.522	525.007	-5.74027035862227	end_round	0.522	columbia_card_task_fmri	17.0	0.7142857142857143	71.0	-70.0	0.2857142857142857	10.0	4.0	2.0	5.10429110132732	0.522	3.0	stim	poldrack-single-stim	s192	False	1
525.764	1.5	525.013	n/a	-1.0	2.318	columbia_card_task_fmri	n/a	n/a	-1.0	n/a	n/a	n/a	n/a	n/a	n/a	n/a	n/a	ITI	poldrack-single-stim	s192	False	0
527.338	1.422	528.76	0.4502058318539212	draw_card	1.422	columbia_card_task_fmri	13.0	0.8333333333333334	89.0	-75.0	0.1666666666666666	12.0	1.0	2.0	-1.391357812952684	1.422	n/a	stim	poldrack-single-stim	s192	False	1
528.765	0.357	529.122	-0.8831275014794144	draw_card	0.357	columbia_card_task_fmri	13.0	0.8181818181818181	89.0	-75.0	0.1818181818181818	12.0	2.0	2.0	-0.2481947161570517	0.357	2.0	stim	poldrack-single-stim	s192	False	0
529.88	1.5	529.129	n/a	-1.0	2.522	columbia_card_task_fmri	n/a	n/a	-1.0	n/a	n/a	n/a	n/a	n/a	n/a	n/a	n/a	ITI	poldrack-single-stim	s192	False	0
531.656	1.511	533.167	2.116872498520589	draw_card	1.511	columbia_card_task_fmri	14.0	0.8333333333333334	89.0	-70.0	0.1666666666666666	12.0	1.0	2.0	-2.8788271200388067	1.511	n/a	stim	poldrack-single-stim	s192	False	1
533.173	0.38	533.553	0.8441452257933122	draw_card	0.38	columbia_card_task_fmri	14.0	0.8181818181818181	89.0	-70.0	0.1818181818181818	12.0	2.0	2.0	-1.787839226853798	0.38	n/a	stim	poldrack-single-stim	s192	False	1
533.558	0.44	533.998	-0.6831275014794116	draw_card	0.44	columbia_card_task_fmri	14.0	0.8	89.0	-70.0	0.2	12.0	3.0	2.0	-0.5886519762235025	0.44	n/a	stim	poldrack-single-stim	s192	False	1
534.003	0.706	534.709	-2.5497941681460787	draw_card	0.706	columbia_card_task_fmri	14.0	0.7777777777777778	89.0	-70.0	0.2222222222222222	12.0	4.0	2.0	0.7309662293763921	0.706	n/a	stim	poldrack-single-stim	s192	False	1
534.715	0.379	535.094	-4.883127501479413	draw_card	0.379	columbia_card_task_fmri	14.0	0.75	89.0	-70.0	0.25	12.0	5.0	2.0	2.1793450082844217	0.379	n/a	stim	poldrack-single-stim	s192	False	1
535.1	0.494	535.594	-7.883127501479413	draw_card	0.494	columbia_card_task_fmri	14.0	0.7142857142857143	89.0	-70.0	0.2857142857142857	12.0	6.0	2.0	3.751060679701844	0.494	n/a	stim	poldrack-single-stim	s192	False	1
535.598	0.553	536.151	-11.88312750147941	end_round	0.553	columbia_card_task_fmri	14.0	0.6666666666666667	71.0	-70.0	0.3333333333333333	12.0	7.0	2.0	5.399252727088545	0.553	6.0	stim	poldrack-single-stim	s192	False	1
536.906	1.5	536.155	n/a	-1.0	2.998	columbia_card_task_fmri	n/a	n/a	-1.0	n/a	n/a	n/a	n/a	n/a	n/a	n/a	n/a	ITI	poldrack-single-stim	s192	False	0
539.158	1.748	540.906	2.116872498520589	draw_card	1.748	columbia_card_task_fmri	16.0	0.8333333333333334	89.0	-80.0	0.1666666666666666	12.0	1.0	2.0	1.5843891843274849	1.748	n/a	stim	poldrack-single-stim	s192	False	1
540.912	0.438	541.35	0.6623270439751305	draw_card	0.438	columbia_card_task_fmri	16.0	0.8181818181818181	89.0	-80.0	0.1818181818181818	12.0	2.0	2.0	2.831875721945295	0.438	n/a	stim	poldrack-single-stim	s192	False	1
541.355	0.39	541.745	-1.083127501479412	draw_card	0.39	columbia_card_task_fmri	16.0	0.8	89.0	-80.0	0.2	12.0	3.0	2.0	4.203034330835088	0.39	n/a	stim	poldrack-single-stim	s192	False	1
541.751	0.369	542.12	-3.2164608348127466	draw_card	0.369	columbia_card_task_fmri	16.0	0.7777777777777778	89.0	-80.0	0.2222222222222222	12.0	4.0	2.0	5.71184225229586	0.369	4.0	stim	poldrack-single-stim	s192	False	0
542.876	1.5	542.125	n/a	-1.0	2.318	columbia_card_task_fmri	n/a	n/a	-1.0	n/a	n/a	n/a	n/a	n/a	n/a	n/a	n/a	ITI	poldrack-single-stim	s192	False	0
544.45	1.519	545.969	1.916872498520588	draw_card	1.519	columbia_card_task_fmri	16.0	0.8	89.0	-65.0	0.2	15.0	1.0	3.0	-1.7861898090238952	1.519	n/a	stim	poldrack-single-stim	s192	False	1
545.975	0.402	546.377	0.7597296413777315	draw_card	0.402	columbia_card_task_fmri	16.0	0.7857142857142857	89.0	-65.0	0.2142857142857142	15.0	2.0	3.0	-0.951526483560542	0.402	n/a	stim	poldrack-single-stim	s192	False	1
546.383	0.898	547.281	-0.5754351937871061	draw_card	0.898	columbia_card_task_fmri	16.0	0.7692307692307692	89.0	-65.0	0.2307692307692307	15.0	3.0	3.0	-0.0623507668562268	0.898	n/a	stim	poldrack-single-stim	s192	False	1
547.287	0.416	547.703	-2.1331275014794127	draw_card	0.416	columbia_card_task_fmri	16.0	0.75	89.0	-65.0	0.25	15.0	4.0	3.0	0.882582382184232	0.416	n/a	stim	poldrack-single-stim	s192	False	1
547.709	0.41	548.119	-3.974036592388503	draw_card	0.41	columbia_card_task_fmri	16.0	0.7272727272727273	89.0	-65.0	0.2727272727272727	15.0	5.0	3.0	1.881090394008865	0.41	5.0	stim	poldrack-single-stim	s192	False	0
548.875	1.5	548.124	n/a	-1.0	2.25	columbia_card_task_fmri	n/a	n/a	-1.0	n/a	n/a	n/a	n/a	n/a	n/a	n/a	n/a	ITI	poldrack-single-stim	s192	False	0
550.381	2.196	552.577	0.2418724985205873	draw_card	2.196	columbia_card_task_fmri	15.0	0.8125	89.0	-75.0	0.1875	16.0	1.0	3.0	0.9365691827454228	2.196	n/a	stim	poldrack-single-stim	s192	False	1
552.582	0.412	552.994	-0.8831275014794127	draw_card	0.412	columbia_card_task_fmri	15.0	0.8	89.0	-75.0	0.2	16.0	2.0	3.0	1.8069147727066688	0.412	n/a	stim	poldrack-single-stim	s192	False	1
553.001	0.95	553.951	-2.1688417871936974	draw_card	0.95	columbia_card_task_fmri	15.0	0.7857142857142857	89.0	-75.0	0.2142857142857142	16.0	3.0	3.0	2.7346837893145377	0.95	3.0	stim	poldrack-single-stim	s192	False	0
554.707	1.5	553.956	n/a	-1.0	2.454	columbia_card_task_fmri	n/a	n/a	-1.0	n/a	n/a	n/a	n/a	n/a	n/a	n/a	n/a	ITI	poldrack-single-stim	s192	False	0
556.418	1.538	557.956	0.8043724985205873	draw_card	1.538	columbia_card_task_fmri	14.0	0.6875	89.0	-35.0	0.3125	16.0	1.0	5.0	-11.444724051581542	1.538	1.0	stim	poldrack-single-stim	s192	False	0
558.717	1.5	557.966	n/a	-1.0	2.318	columbia_card_task_fmri	n/a	n/a	-1.0	n/a	n/a	n/a	n/a	n/a	n/a	n/a	n/a	ITI	poldrack-single-stim	s192	False	0
560.292	1.594	561.886	5.983539165187255	draw_card	1.594	columbia_card_task_fmri	16.0	0.8666666666666667	89.0	-75.0	0.1333333333333333	15.0	1.0	2.0	-3.248871900005039	1.594	n/a	stim	poldrack-single-stim	s192	False	1
561.892	0.391	562.283	5.116872498520589	draw_card	0.391	columbia_card_task_fmri	16.0	0.8571428571428572	89.0	-75.0	0.1428571428571428	15.0	2.0	2.0	-2.341618248463565	0.391	n/a	stim	poldrack-single-stim	s192	False	1
562.288	0.363	562.651	4.116872498520587	draw_card	0.363	columbia_card_task_fmri	16.0	0.8461538461538461	89.0	-75.0	0.1538461538461538	15.0	3.0	2.0	-1.354188426524864	0.363	3.0	stim	poldrack-single-stim	s192	False	0
563.408	1.5	562.657	n/a	-1.0	2.318	columbia_card_task_fmri	n/a	n/a	-1.0	n/a	n/a	n/a	n/a	n/a	n/a	n/a	n/a	ITI	poldrack-single-stim	s192	False	0
564.982	1.333	566.315	6.650205831853921	draw_card	1.333	columbia_card_task_fmri	16.0	0.8666666666666667	89.0	-70.0	0.1333333333333333	15.0	1.0	2.0	-4.9443495869133365	1.333	n/a	stim	poldrack-single-stim	s192	False	1
566.321	0.405	566.726	5.831158212806303	draw_card	0.405	columbia_card_task_fmri	16.0	0.8571428571428572	89.0	-70.0	0.1428571428571428	15.0	2.0	2.0	-4.087177250483375	0.405	n/a	stim	poldrack-single-stim	s192	False	1
566.733	0.367	567.1	4.886103267751356	draw_card	0.367	columbia_card_task_fmri	16.0	0.8461538461538461	89.0	-70.0	0.1538461538461538	15.0	3.0	2.0	-3.1542400002673325	0.367	n/a	stim	poldrack-single-stim	s192	False	1
567.106	0.901	568.007	3.783539165187255	draw_card	0.901	columbia_card_task_fmri	16.0	0.8333333333333334	89.0	-70.0	0.1666666666666666	15.0	4.0	2.0	-2.135130049135306	0.901	n/a	stim	poldrack-single-stim	s192	False	1
568.014	0.595	568.609	2.480508862156949	draw_card	0.595	columbia_card_task_fmri	16.0	0.8181818181818181	89.0	-70.0	0.1818181818181818	15.0	5.0	2.0	-1.0180533015057378	0.595	n/a	stim	poldrack-single-stim	s192	False	1
568.614	0.448	569.062	0.916872498520588	draw_card	0.448	columbia_card_task_fmri	16.0	0.8	89.0	-70.0	0.2	15.0	6.0	2.0	0.2098017340443121	0.448	n/a	stim	poldrack-single-stim	s192	False	1
569.068	1.265	570.333	-0.9942386125905234	draw_card	1.265	columbia_card_task_fmri	16.0	0.7777777777777778	89.0	-70.0	0.2222222222222222	15.0	7.0	2.0	1.5609575803742644	1.265	n/a	stim	poldrack-single-stim	s192	False	1
570.338	0.66	570.998	-3.3831275014794127	draw_card	0.66	columbia_card_task_fmri	16.0	0.75	89.0	-70.0	0.25	15.0	8.0	2.0	3.0439414033944843	0.66	8.0	stim	poldrack-single-stim	s192	False	0
571.755	1.5	571.004	n/a	-1.0	2.59	columbia_card_task_fmri	n/a	n/a	-1.0	n/a	n/a	n/a	n/a	n/a	n/a	n/a	n/a	ITI	poldrack-single-stim	s192	False	0
573.601	1.565	575.166	3.9918724985205873	draw_card	1.565	columbia_card_task_fmri	8.0	0.9375	89.0	-90.0	0.0625	16.0	1.0	1.0	-10.438982751314503	1.565	n/a	stim	poldrack-single-stim	s192	False	1
575.17	0.634	575.804	3.583539165187254	draw_card	0.634	columbia_card_task_fmri	8.0	0.9333333333333332	89.0	-90.0	0.0666666666666666	16.0	2.0	1.0	-9.718290031757956	0.634	n/a	stim	poldrack-single-stim	s192	False	1
575.811	0.399	576.21	3.116872498520588	draw_card	0.399	columbia_card_task_fmri	8.0	0.9285714285714286	89.0	-90.0	0.0714285714285714	16.0	3.0	1.0	-8.927791558415763	0.399	n/a	stim	poldrack-single-stim	s192	False	1
576.217	0.413	576.63	2.578410960059049	draw_card	0.413	columbia_card_task_fmri	8.0	0.9230769230769232	89.0	-90.0	0.0769230769230769	16.0	4.0	1.0	-8.055613644830192	0.413	n/a	stim	poldrack-single-stim	s192	False	1
576.637	0.392	577.029	1.9502058318539204	draw_card	0.392	columbia_card_task_fmri	8.0	0.9166666666666666	89.0	-90.0	0.0833333333333333	16.0	5.0	1.0	-7.086905047531491	0.392	n/a	stim	poldrack-single-stim	s192	False	1
577.034	0.699	577.733	1.2077815894296782	draw_card	0.699	columbia_card_task_fmri	8.0	0.9090909090909092	89.0	-90.0	0.0909090909090909	16.0	6.0	1.0	-6.002833393406615	0.699	n/a	stim	poldrack-single-stim	s192	False	1
577.739	0.528	578.267	0.3168724985205875	draw_card	0.528	columbia_card_task_fmri	8.0	0.9	89.0	-90.0	0.1	16.0	7.0	1.0	-4.779158202962286	0.528	n/a	stim	poldrack-single-stim	s192	False	1
578.271	0.48	578.751	-0.7720163903683019	draw_card	0.48	columbia_card_task_fmri	8.0	0.8888888888888888	89.0	-90.0	0.1111111111111111	16.0	8.0	1.0	-3.3841770913249967	0.48	n/a	stim	poldrack-single-stim	s192	False	1
578.757	0.807	579.564	-2.1331275014794127	draw_card	0.807	columbia_card_task_fmri	8.0	0.875	89.0	-90.0	0.125	16.0	9.0	1.0	-1.7757584819024927	0.807	n/a	stim	poldrack-single-stim	s192	False	1
579.568	0.747	580.315	-3.883127501479411	end_round	0.747	columbia_card_task_fmri	8.0	0.8571428571428572	71.0	-90.0	0.1428571428571428	16.0	10.0	1.0	0.1028610546621848	0.747	9.0	stim	poldrack-single-stim	s192	False	1
581.071	1.5	580.32	n/a	-1.0	2.25	columbia_card_task_fmri	n/a	n/a	-1.0	n/a	n/a	n/a	n/a	n/a	n/a	n/a	n/a	ITI	poldrack-single-stim	s192	False	0
582.578	2.185	584.763	5.554372498520587	draw_card	2.185	columbia_card_task_fmri	10.0	0.9375	89.0	-95.0	0.0625	16.0	1.0	1.0	-8.750814348801235	2.185	n/a	stim	poldrack-single-stim	s192	False	1
584.769	0.524	585.293	5.116872498520588	draw_card	0.524	columbia_card_task_fmri	10.0	0.9333333333333332	89.0	-95.0	0.0666666666666666	16.0	2.0	1.0	-7.978261708100835	0.524	n/a	stim	poldrack-single-stim	s192	False	1
585.299	0.412	585.711	4.616872498520588	draw_card	0.412	columbia_card_task_fmri	10.0	0.9285714285714286	89.0	-95.0	0.0714285714285714	16.0	3.0	1.0	-7.130905209732326	0.412	n/a	stim	poldrack-single-stim	s192	False	1
585.717	0.521	586.238	4.039949421597511	end_round	0.521	columbia_card_task_fmri	10.0	0.9230769230769232	71.0	-95.0	0.0769230769230769	16.0	4.0	1.0	-6.196021925312884	0.521	3.0	stim	poldrack-single-stim	s192	False	1
587.001	1.5	586.25	n/a	-1.0	2.25	columbia_card_task_fmri	n/a	n/a	-1.0	n/a	n/a	n/a	n/a	n/a	n/a	n/a	n/a	ITI	poldrack-single-stim	s192	False	0
588.507	1.691	590.198	6.491872498520587	draw_card	1.691	columbia_card_task_fmri	15.0	0.875	89.0	-70.0	0.125	16.0	1.0	2.0	-6.064570453722876	1.691	n/a	stim	poldrack-single-stim	s192	False	1
590.205	0.375	590.58	5.783539165187253	draw_card	0.375	columbia_card_task_fmri	15.0	0.8666666666666667	89.0	-70.0	0.1333333333333333	16.0	2.0	2.0	-5.28338612509372	0.375	n/a	stim	poldrack-single-stim	s192	False	1
590.585	0.417	591.002	4.974015355663445	draw_card	0.417	columbia_card_task_fmri	15.0	0.8571428571428572	89.0	-70.0	0.1428571428571428	16.0	3.0	2.0	-4.4362317119189925	0.417	n/a	stim	poldrack-single-stim	s192	False	1
591.008	0.39	591.398	4.039949421597509	draw_card	0.39	columbia_card_task_fmri	15.0	0.8461538461538461	89.0	-70.0	0.1538461538461538	16.0	4.0	2.0	-3.5141946804698883	0.39	4.0	stim	poldrack-single-stim	s192	False	0
592.154	1.5	591.403	n/a	-1.0	2.522	columbia_card_task_fmri	n/a	n/a	-1.0	n/a	n/a	n/a	n/a	n/a	n/a	n/a	n/a	ITI	poldrack-single-stim	s192	False	0
593.932	1.792	595.724	5.491872498520587	draw_card	1.792	columbia_card_task_fmri	16.0	0.875	89.0	-85.0	0.125	16.0	1.0	2.0	-0.7856487884903132	1.792	n/a	stim	poldrack-single-stim	s192	False	1
595.729	1.038	596.767	4.650205831853921	draw_card	1.038	columbia_card_task_fmri	16.0	0.8666666666666667	89.0	-85.0	0.1333333333333333	16.0	2.0	2.0	0.1433257826127487	1.038	n/a	stim	poldrack-single-stim	s192	False	1
596.773	0.366	597.139	3.68830106994916	draw_card	0.366	columbia_card_task_fmri	16.0	0.8571428571428572	89.0	-85.0	0.1428571428571428	16.0	3.0	2.0	1.150707052012713	0.366	n/a	stim	poldrack-single-stim	s192	False	1
597.146	0.389	597.535	2.5784109600590472	draw_card	0.389	columbia_card_task_fmri	16.0	0.8461538461538461	89.0	-85.0	0.1538461538461538	16.0	4.0	2.0	2.247086077991476	0.389	4.0	stim	poldrack-single-stim	s192	False	0
598.297	1.5	597.546	n/a	-1.0	2.454	columbia_card_task_fmri	n/a	n/a	-1.0	n/a	n/a	n/a	n/a	n/a	n/a	n/a	n/a	ITI	poldrack-single-stim	s192	False	0
