onset	duration	movement_onset	block_duration	condition	correct	correct_response	experiment_exp_id	key_press	response_time	trial_id	trial_type	worker_id	junk
3.015	0.5	3.014	0.5	BY	n/a	n/a	dot_pattern_expectancy	-1.0	n/a	cue	BY	s192	False
5.519	0.5	6.31	1.636	BY	1.0	71.0	dot_pattern_expectancy	71.0	0.791	probe	BY	s192	False
7.157	0.5	7.156	0.5	AY	n/a	n/a	dot_pattern_expectancy	-1.0	n/a	cue	AY	s192	False
9.66	0.5	10.175	1.5	AY	1.0	71.0	dot_pattern_expectancy	71.0	0.515	probe	AY	s192	False
11.162	0.5	11.161	0.5	AX	n/a	n/a	dot_pattern_expectancy	-1.0	n/a	cue	AX	s192	False
13.674	0.5	13.989	2.044	AX	1.0	89.0	dot_pattern_expectancy	89.0	0.315	probe	AX	s192	False
15.724	0.5	15.723	0.5	BY	n/a	n/a	dot_pattern_expectancy	-1.0	n/a	cue	BY	s192	False
18.231	0.5	18.652	1.772	BY	1.0	71.0	dot_pattern_expectancy	71.0	0.421	probe	BY	s192	False
20.005	0.5	20.004	0.5	BX	n/a	n/a	dot_pattern_expectancy	-1.0	n/a	cue	BX	s192	False
22.512	0.5	22.804	1.636	BX	1.0	71.0	dot_pattern_expectancy	71.0	0.292	probe	BX	s192	False
24.155	0.5	24.154	0.5	AX	n/a	n/a	dot_pattern_expectancy	-1.0	n/a	cue	AX	s192	False
26.661	0.5	26.966	1.636	AX	1.0	89.0	dot_pattern_expectancy	89.0	0.305	probe	AX	s192	False
28.299	0.5	28.298	0.5	AX	n/a	n/a	dot_pattern_expectancy	-1.0	n/a	cue	AX	s192	False
30.81	0.5	31.146	1.5	AX	1.0	89.0	dot_pattern_expectancy	89.0	0.336	probe	AX	s192	False
32.315	0.5	32.314	0.5	AX	n/a	n/a	dot_pattern_expectancy	-1.0	n/a	cue	AX	s192	False
34.819	0.5	35.204	1.5	AX	1.0	89.0	dot_pattern_expectancy	89.0	0.385	probe	AX	s192	False
36.32	0.5	36.319	0.5	AY	n/a	n/a	dot_pattern_expectancy	-1.0	n/a	cue	AY	s192	False
38.832	0.5	39.285	2.044	AY	0.0	71.0	dot_pattern_expectancy	89.0	0.453	probe	AY	s192	False
40.883	0.5	40.882	0.5	AX	n/a	n/a	dot_pattern_expectancy	-1.0	n/a	cue	AX	s192	False
43.387	0.5	43.828	2.452	AX	1.0	89.0	dot_pattern_expectancy	89.0	0.441	probe	AX	s192	False
45.84	0.5	45.839	0.5	AX	n/a	n/a	dot_pattern_expectancy	-1.0	n/a	cue	AX	s192	False
48.347	0.5	48.346	1.908	AX	0.0	89.0	dot_pattern_expectancy	-1.0	n/a	probe	AX	s192	False
50.257	0.5	50.256	0.5	AX	n/a	n/a	dot_pattern_expectancy	-1.0	n/a	cue	AX	s192	False
52.768	0.5	53.249	1.5	AX	1.0	89.0	dot_pattern_expectancy	89.0	0.481	probe	AX	s192	False
54.273	0.5	54.272	0.5	AX	n/a	n/a	dot_pattern_expectancy	-1.0	n/a	cue	AX	s192	False
56.779	0.5	57.357	1.908	AX	1.0	89.0	dot_pattern_expectancy	89.0	0.578	probe	AX	s192	False
58.689	0.5	58.688	0.5	BX	n/a	n/a	dot_pattern_expectancy	-1.0	n/a	cue	BX	s192	False
61.201	0.5	61.536	2.18	BX	1.0	71.0	dot_pattern_expectancy	71.0	0.335	probe	BX	s192	False
63.382	0.5	63.381	0.5	AX	n/a	n/a	dot_pattern_expectancy	-1.0	n/a	cue	AX	s192	False
65.894	0.5	66.363	1.5	AX	1.0	89.0	dot_pattern_expectancy	89.0	0.469	probe	AX	s192	False
67.398	0.5	67.397	0.5	BY	n/a	n/a	dot_pattern_expectancy	-1.0	n/a	cue	BY	s192	False
69.905	0.5	70.279	1.908	BY	1.0	71.0	dot_pattern_expectancy	71.0	0.374	probe	BY	s192	False
71.82	0.5	71.819	0.5	BX	n/a	n/a	dot_pattern_expectancy	-1.0	n/a	cue	BX	s192	False
74.324	0.5	74.711	2.316	BX	1.0	71.0	dot_pattern_expectancy	71.0	0.387	probe	BX	s192	False
76.641	0.5	76.64	0.5	AY	n/a	n/a	dot_pattern_expectancy	-1.0	n/a	cue	AY	s192	False
79.151	0.5	79.706	2.316	AY	1.0	71.0	dot_pattern_expectancy	71.0	0.555	probe	AY	s192	False
81.473	0.5	81.472	0.5	BX	n/a	n/a	dot_pattern_expectancy	-1.0	n/a	cue	BX	s192	False
83.979	0.5	84.299	1.636	BX	1.0	71.0	dot_pattern_expectancy	71.0	0.32	probe	BX	s192	False
85.618	0.5	85.617	0.5	AY	n/a	n/a	dot_pattern_expectancy	-1.0	n/a	cue	AY	s192	False
88.127	0.5	88.602	1.5	AY	1.0	71.0	dot_pattern_expectancy	71.0	0.475	probe	AY	s192	False
89.628	0.5	89.627	0.5	BY	n/a	n/a	dot_pattern_expectancy	-1.0	n/a	cue	BY	s192	False
92.135	0.5	92.436	1.908	BY	1.0	71.0	dot_pattern_expectancy	71.0	0.301	probe	BY	s192	False
94.044	0.5	94.043	0.5	AX	n/a	n/a	dot_pattern_expectancy	-1.0	n/a	cue	AX	s192	False
96.556	0.5	96.949	1.5	AX	1.0	89.0	dot_pattern_expectancy	89.0	0.393	probe	AX	s192	False
98.061	0.5	98.06	0.5	AY	n/a	n/a	dot_pattern_expectancy	-1.0	n/a	cue	AY	s192	False
100.57	0.5	101.051	2.316	AY	1.0	71.0	dot_pattern_expectancy	71.0	0.481	probe	AY	s192	False
102.887	0.5	102.886	0.5	AX	n/a	n/a	dot_pattern_expectancy	-1.0	n/a	cue	AX	s192	False
105.397	0.5	105.78	1.5	AX	1.0	89.0	dot_pattern_expectancy	89.0	0.383	probe	AX	s192	False
106.898	0.5	106.897	0.5	AY	n/a	n/a	dot_pattern_expectancy	-1.0	n/a	cue	AY	s192	False
109.405	0.5	109.848	2.724	AY	1.0	71.0	dot_pattern_expectancy	71.0	0.443	probe	AY	s192	False
112.13	0.5	112.129	0.5	AX	n/a	n/a	dot_pattern_expectancy	-1.0	n/a	cue	AX	s192	False
114.642	0.5	115.14	1.5	AX	1.0	89.0	dot_pattern_expectancy	89.0	0.498	probe	AX	s192	False
116.146	0.5	116.145	0.5	AX	n/a	n/a	dot_pattern_expectancy	-1.0	n/a	cue	AX	s192	False
118.653	0.5	119.112	1.636	AX	1.0	89.0	dot_pattern_expectancy	89.0	0.459	probe	AX	s192	False
120.29	0.5	120.289	0.5	AX	n/a	n/a	dot_pattern_expectancy	-1.0	n/a	cue	AX	s192	False
122.8	0.5	123.131	1.636	AX	1.0	89.0	dot_pattern_expectancy	89.0	0.331	probe	AX	s192	False
124.44	0.5	124.439	0.5	AX	n/a	n/a	dot_pattern_expectancy	-1.0	n/a	cue	AX	s192	False
126.949	0.5	127.298	1.772	AX	1.0	89.0	dot_pattern_expectancy	89.0	0.349	probe	AX	s192	False
128.723	0.5	128.722	0.5	BY	n/a	n/a	dot_pattern_expectancy	-1.0	n/a	cue	BY	s192	False
131.232	0.5	131.584	1.772	BY	1.0	71.0	dot_pattern_expectancy	71.0	0.352	probe	BY	s192	False
133.006	0.5	133.005	0.5	AX	n/a	n/a	dot_pattern_expectancy	-1.0	n/a	cue	AX	s192	False
135.515	0.5	135.914	1.5	AX	1.0	89.0	dot_pattern_expectancy	89.0	0.399	probe	AX	s192	False
137.016	0.5	137.015	0.5	BY	n/a	n/a	dot_pattern_expectancy	-1.0	n/a	cue	BY	s192	False
139.523	0.5	139.833	2.452	BY	1.0	71.0	dot_pattern_expectancy	71.0	0.31	probe	BY	s192	False
141.979	0.5	141.978	0.5	AX	n/a	n/a	dot_pattern_expectancy	-1.0	n/a	cue	AX	s192	False
144.483	0.5	145.043	1.636	AX	1.0	89.0	dot_pattern_expectancy	89.0	0.56	probe	AX	s192	False
146.121	0.5	146.12	0.5	AX	n/a	n/a	dot_pattern_expectancy	-1.0	n/a	cue	AX	s192	False
148.627	0.5	148.99	1.636	AX	1.0	89.0	dot_pattern_expectancy	89.0	0.363	probe	AX	s192	False
150.265	0.5	150.264	0.5	BX	n/a	n/a	dot_pattern_expectancy	-1.0	n/a	cue	BX	s192	False
152.776	0.5	153.101	1.5	BX	1.0	71.0	dot_pattern_expectancy	71.0	0.325	probe	BX	s192	False
154.281	0.5	154.28	0.5	BX	n/a	n/a	dot_pattern_expectancy	-1.0	n/a	cue	BX	s192	False
156.787	0.5	157.18	1.5	BX	1.0	71.0	dot_pattern_expectancy	71.0	0.393	probe	BX	s192	False
158.292	0.5	158.291	0.5	AX	n/a	n/a	dot_pattern_expectancy	-1.0	n/a	cue	AX	s192	False
160.801	0.5	161.493	2.316	AX	1.0	89.0	dot_pattern_expectancy	89.0	0.692	probe	AX	s192	False
163.124	0.5	163.123	0.5	AY	n/a	n/a	dot_pattern_expectancy	-1.0	n/a	cue	AY	s192	False
165.633	0.5	166.22	2.044	AY	1.0	71.0	dot_pattern_expectancy	71.0	0.587	probe	AY	s192	False
167.679	0.5	167.678	0.5	AX	n/a	n/a	dot_pattern_expectancy	-1.0	n/a	cue	AX	s192	False
170.188	0.5	170.567	3.948	AX	1.0	89.0	dot_pattern_expectancy	89.0	0.379	probe	AX	s192	False
174.137	0.5	174.136	0.5	AX	n/a	n/a	dot_pattern_expectancy	-1.0	n/a	cue	AX	s192	False
176.644	0.5	176.957	1.636	AX	1.0	89.0	dot_pattern_expectancy	89.0	0.313	probe	AX	s192	False
188.797	0.5	188.796	0.5	AY	n/a	n/a	dot_pattern_expectancy	-1.0	n/a	cue	AY	s192	False
191.3	0.5	191.827	1.636	AY	1.0	71.0	dot_pattern_expectancy	71.0	0.527	probe	AY	s192	False
192.938	0.5	192.937	0.5	AX	n/a	n/a	dot_pattern_expectancy	-1.0	n/a	cue	AX	s192	False
195.444	0.5	195.788	1.636	AX	1.0	89.0	dot_pattern_expectancy	89.0	0.344	probe	AX	s192	False
197.082	0.5	197.081	0.5	AX	n/a	n/a	dot_pattern_expectancy	-1.0	n/a	cue	AX	s192	False
199.591	0.5	199.995	1.5	AX	1.0	89.0	dot_pattern_expectancy	89.0	0.404	probe	AX	s192	False
201.093	0.5	201.092	0.5	AX	n/a	n/a	dot_pattern_expectancy	-1.0	n/a	cue	AX	s192	False
203.604	0.5	204.175	1.5	AX	1.0	89.0	dot_pattern_expectancy	89.0	0.571	probe	AX	s192	False
205.109	0.5	205.108	0.5	AX	n/a	n/a	dot_pattern_expectancy	-1.0	n/a	cue	AX	s192	False
207.616	0.5	208.046	1.908	AX	1.0	89.0	dot_pattern_expectancy	89.0	0.43	probe	AX	s192	False
209.525	0.5	209.524	0.5	BX	n/a	n/a	dot_pattern_expectancy	-1.0	n/a	cue	BX	s192	False
212.032	0.5	212.353	1.636	BX	1.0	71.0	dot_pattern_expectancy	71.0	0.321	probe	BX	s192	False
213.669	0.5	213.668	0.5	AX	n/a	n/a	dot_pattern_expectancy	-1.0	n/a	cue	AX	s192	False
216.179	0.5	216.581	2.044	AX	1.0	89.0	dot_pattern_expectancy	89.0	0.402	probe	AX	s192	False
218.224	0.5	218.223	0.5	AX	n/a	n/a	dot_pattern_expectancy	-1.0	n/a	cue	AX	s192	False
220.733	0.5	221.19	1.772	AX	1.0	89.0	dot_pattern_expectancy	89.0	0.457	probe	AX	s192	False
222.507	0.5	222.506	0.5	AX	n/a	n/a	dot_pattern_expectancy	-1.0	n/a	cue	AX	s192	False
225.016	0.5	225.403	1.5	AX	0.0	89.0	dot_pattern_expectancy	71.0	0.387	probe	AX	s192	False
226.522	0.5	226.521	0.5	AX	n/a	n/a	dot_pattern_expectancy	-1.0	n/a	cue	AX	s192	False
229.024	0.5	229.864	2.18	AX	1.0	89.0	dot_pattern_expectancy	89.0	0.84	probe	AX	s192	False
231.206	0.5	231.205	0.5	AX	n/a	n/a	dot_pattern_expectancy	-1.0	n/a	cue	AX	s192	False
233.718	0.5	234.14	1.5	AX	1.0	89.0	dot_pattern_expectancy	89.0	0.422	probe	AX	s192	False
235.22	0.5	235.219	0.5	BX	n/a	n/a	dot_pattern_expectancy	-1.0	n/a	cue	BX	s192	False
237.724	0.5	238.1	3.676	BX	1.0	71.0	dot_pattern_expectancy	71.0	0.376	probe	BX	s192	False
241.403	0.5	241.402	0.5	BY	n/a	n/a	dot_pattern_expectancy	-1.0	n/a	cue	BY	s192	False
243.91	0.5	244.282	1.636	BY	1.0	71.0	dot_pattern_expectancy	71.0	0.372	probe	BY	s192	False
245.547	0.5	245.546	0.5	BY	n/a	n/a	dot_pattern_expectancy	-1.0	n/a	cue	BY	s192	False
248.054	0.5	248.45	1.636	BY	1.0	71.0	dot_pattern_expectancy	71.0	0.396	probe	BY	s192	False
249.692	0.5	249.691	0.5	BX	n/a	n/a	dot_pattern_expectancy	-1.0	n/a	cue	BX	s192	False
252.203	0.5	252.61	1.5	BX	1.0	71.0	dot_pattern_expectancy	71.0	0.407	probe	BX	s192	False
253.708	0.5	253.707	0.5	AX	n/a	n/a	dot_pattern_expectancy	-1.0	n/a	cue	AX	s192	False
256.218	0.5	256.608	1.908	AX	1.0	89.0	dot_pattern_expectancy	89.0	0.39	probe	AX	s192	False
258.129	0.5	258.128	0.5	AX	n/a	n/a	dot_pattern_expectancy	-1.0	n/a	cue	AX	s192	False
260.636	0.5	260.986	1.636	AX	1.0	89.0	dot_pattern_expectancy	89.0	0.35	probe	AX	s192	False
262.273	0.5	262.272	0.5	BX	n/a	n/a	dot_pattern_expectancy	-1.0	n/a	cue	BX	s192	False
264.785	0.5	265.15	1.5	BX	1.0	71.0	dot_pattern_expectancy	71.0	0.365	probe	BX	s192	False
266.289	0.5	266.288	0.5	AX	n/a	n/a	dot_pattern_expectancy	-1.0	n/a	cue	AX	s192	False
268.796	0.5	269.176	1.908	AX	1.0	89.0	dot_pattern_expectancy	89.0	0.38	probe	AX	s192	False
270.706	0.5	270.705	0.5	BY	n/a	n/a	dot_pattern_expectancy	-1.0	n/a	cue	BY	s192	False
273.212	0.5	273.575	2.18	BY	1.0	71.0	dot_pattern_expectancy	71.0	0.363	probe	BY	s192	False
275.394	0.5	275.393	0.5	AX	n/a	n/a	dot_pattern_expectancy	-1.0	n/a	cue	AX	s192	False
277.903	0.5	278.591	1.772	AX	1.0	89.0	dot_pattern_expectancy	89.0	0.688	probe	AX	s192	False
279.677	0.5	279.676	0.5	AX	n/a	n/a	dot_pattern_expectancy	-1.0	n/a	cue	AX	s192	False
282.186	0.5	282.634	1.5	AX	1.0	89.0	dot_pattern_expectancy	89.0	0.448	probe	AX	s192	False
283.691	0.5	283.69	0.5	AX	n/a	n/a	dot_pattern_expectancy	-1.0	n/a	cue	AX	s192	False
286.199	0.5	286.64	1.5	AX	1.0	89.0	dot_pattern_expectancy	89.0	0.441	probe	AX	s192	False
287.703	0.5	287.702	0.5	AX	n/a	n/a	dot_pattern_expectancy	-1.0	n/a	cue	AX	s192	False
290.213	0.5	290.654	2.044	AX	1.0	89.0	dot_pattern_expectancy	89.0	0.441	probe	AX	s192	False
292.258	0.5	292.257	0.5	AX	n/a	n/a	dot_pattern_expectancy	-1.0	n/a	cue	AX	s192	False
294.767	0.5	295.151	2.86	AX	1.0	89.0	dot_pattern_expectancy	89.0	0.384	probe	AX	s192	False
297.629	0.5	297.628	0.5	BX	n/a	n/a	dot_pattern_expectancy	-1.0	n/a	cue	BX	s192	False
300.138	0.5	300.477	1.5	BX	1.0	71.0	dot_pattern_expectancy	71.0	0.339	probe	BX	s192	False
301.644	0.5	301.643	0.5	BY	n/a	n/a	dot_pattern_expectancy	-1.0	n/a	cue	BY	s192	False
304.149	0.5	304.46	1.772	BY	1.0	71.0	dot_pattern_expectancy	71.0	0.311	probe	BY	s192	False
305.923	0.5	305.922	0.5	AX	n/a	n/a	dot_pattern_expectancy	-1.0	n/a	cue	AX	s192	False
308.432	0.5	308.843	1.772	AX	1.0	89.0	dot_pattern_expectancy	89.0	0.411	probe	AX	s192	False
310.205	0.5	310.204	0.5	AX	n/a	n/a	dot_pattern_expectancy	-1.0	n/a	cue	AX	s192	False
312.715	0.5	313.321	2.86	AX	1.0	89.0	dot_pattern_expectancy	89.0	0.606	probe	AX	s192	False
315.576	0.5	315.575	0.5	AX	n/a	n/a	dot_pattern_expectancy	-1.0	n/a	cue	AX	s192	False
318.085	0.5	318.391	1.772	AX	1.0	89.0	dot_pattern_expectancy	89.0	0.306	probe	AX	s192	False
319.859	0.5	319.858	0.5	BX	n/a	n/a	dot_pattern_expectancy	-1.0	n/a	cue	BX	s192	False
322.366	0.5	322.673	1.636	BX	1.0	71.0	dot_pattern_expectancy	71.0	0.307	probe	BX	s192	False
324.003	0.5	324.002	0.5	BX	n/a	n/a	dot_pattern_expectancy	-1.0	n/a	cue	BX	s192	False
326.511	0.5	326.873	2.452	BX	1.0	71.0	dot_pattern_expectancy	71.0	0.362	probe	BX	s192	False
328.968	0.5	328.967	0.5	AX	n/a	n/a	dot_pattern_expectancy	-1.0	n/a	cue	AX	s192	False
331.475	0.5	331.853	1.636	AX	1.0	89.0	dot_pattern_expectancy	89.0	0.378	probe	AX	s192	False
333.113	0.5	333.112	0.5	BX	n/a	n/a	dot_pattern_expectancy	-1.0	n/a	cue	BX	s192	False
335.622	0.5	335.98	1.5	BX	1.0	71.0	dot_pattern_expectancy	71.0	0.358	probe	BX	s192	False
337.123	0.5	337.122	0.5	AX	n/a	n/a	dot_pattern_expectancy	-1.0	n/a	cue	AX	s192	False
339.635	0.5	340.262	1.636	AX	1.0	89.0	dot_pattern_expectancy	89.0	0.627	probe	AX	s192	False
341.273	0.5	341.272	0.5	AX	n/a	n/a	dot_pattern_expectancy	-1.0	n/a	cue	AX	s192	False
343.78	0.5	344.242	1.636	AX	1.0	89.0	dot_pattern_expectancy	89.0	0.462	probe	AX	s192	False
345.417	0.5	345.416	0.5	BY	n/a	n/a	dot_pattern_expectancy	-1.0	n/a	cue	BY	s192	False
347.927	0.5	348.593	2.18	BY	1.0	71.0	dot_pattern_expectancy	71.0	0.666	probe	BY	s192	False
350.111	0.5	350.11	0.5	AX	n/a	n/a	dot_pattern_expectancy	-1.0	n/a	cue	AX	s192	False
352.622	0.5	352.953	1.5	AX	1.0	89.0	dot_pattern_expectancy	89.0	0.331	probe	AX	s192	False
354.127	0.5	354.126	0.5	AY	n/a	n/a	dot_pattern_expectancy	-1.0	n/a	cue	AY	s192	False
356.633	0.5	357.179	1.636	AY	1.0	71.0	dot_pattern_expectancy	71.0	0.546	probe	AY	s192	False
358.271	0.5	358.27	0.5	AX	n/a	n/a	dot_pattern_expectancy	-1.0	n/a	cue	AX	s192	False
360.777	0.5	361.268	1.636	AX	1.0	89.0	dot_pattern_expectancy	89.0	0.491	probe	AX	s192	False
372.929	0.5	372.928	0.5	AX	n/a	n/a	dot_pattern_expectancy	-1.0	n/a	cue	AX	s192	False
375.436	0.5	375.761	2.18	AX	1.0	89.0	dot_pattern_expectancy	89.0	0.325	probe	AX	s192	False
377.621	0.5	377.62	0.5	AY	n/a	n/a	dot_pattern_expectancy	-1.0	n/a	cue	AY	s192	False
380.125	0.5	380.564	2.316	AY	1.0	71.0	dot_pattern_expectancy	71.0	0.439	probe	AY	s192	False
382.442	0.5	382.441	0.5	AY	n/a	n/a	dot_pattern_expectancy	-1.0	n/a	cue	AY	s192	False
384.949	0.5	385.426	1.636	AY	1.0	71.0	dot_pattern_expectancy	71.0	0.477	probe	AY	s192	False
386.591	0.5	386.59	0.5	BX	n/a	n/a	dot_pattern_expectancy	-1.0	n/a	cue	BX	s192	False
389.098	0.5	389.618	1.908	BX	1.0	71.0	dot_pattern_expectancy	71.0	0.52	probe	BX	s192	False
391.008	0.5	391.007	0.5	AX	n/a	n/a	dot_pattern_expectancy	-1.0	n/a	cue	AX	s192	False
393.514	0.5	393.857	3.54	AX	1.0	89.0	dot_pattern_expectancy	89.0	0.343	probe	AX	s192	False
397.056	0.5	397.055	0.5	BX	n/a	n/a	dot_pattern_expectancy	-1.0	n/a	cue	BX	s192	False
399.563	0.5	399.983	1.636	BX	1.0	71.0	dot_pattern_expectancy	71.0	0.42	probe	BX	s192	False
401.2	0.5	401.199	0.5	BY	n/a	n/a	dot_pattern_expectancy	-1.0	n/a	cue	BY	s192	False
403.709	0.5	404.077	1.5	BY	1.0	71.0	dot_pattern_expectancy	71.0	0.368	probe	BY	s192	False
405.211	0.5	405.21	0.5	AX	n/a	n/a	dot_pattern_expectancy	-1.0	n/a	cue	AX	s192	False
407.72	0.5	408.267	1.5	AX	1.0	89.0	dot_pattern_expectancy	89.0	0.547	probe	AX	s192	False
409.222	0.5	409.221	0.5	AX	n/a	n/a	dot_pattern_expectancy	-1.0	n/a	cue	AX	s192	False
411.731	0.5	412.43	1.772	AX	1.0	89.0	dot_pattern_expectancy	89.0	0.699	probe	AX	s192	False
413.504	0.5	413.503	0.5	BY	n/a	n/a	dot_pattern_expectancy	-1.0	n/a	cue	BY	s192	False
416.011	0.5	416.305	2.452	BY	1.0	71.0	dot_pattern_expectancy	71.0	0.294	probe	BY	s192	False
418.465	0.5	418.464	0.5	AX	n/a	n/a	dot_pattern_expectancy	-1.0	n/a	cue	AX	s192	False
420.976	0.5	421.457	1.908	AX	1.0	89.0	dot_pattern_expectancy	89.0	0.481	probe	AX	s192	False
422.891	0.5	422.89	0.5	BX	n/a	n/a	dot_pattern_expectancy	-1.0	n/a	cue	BX	s192	False
425.398	0.5	425.853	1.636	BX	1.0	71.0	dot_pattern_expectancy	71.0	0.455	probe	BX	s192	False
427.038	0.5	427.037	0.5	AX	n/a	n/a	dot_pattern_expectancy	-1.0	n/a	cue	AX	s192	False
429.547	0.5	430.151	1.5	AX	1.0	89.0	dot_pattern_expectancy	89.0	0.604	probe	AX	s192	False
431.049	0.5	431.048	0.5	AX	n/a	n/a	dot_pattern_expectancy	-1.0	n/a	cue	AX	s192	False
433.553	0.5	434.107	1.636	AX	1.0	89.0	dot_pattern_expectancy	89.0	0.554	probe	AX	s192	False
435.19	0.5	435.189	0.5	AX	n/a	n/a	dot_pattern_expectancy	-1.0	n/a	cue	AX	s192	False
437.697	0.5	438.282	1.636	AX	1.0	89.0	dot_pattern_expectancy	89.0	0.585	probe	AX	s192	False
439.334	0.5	439.333	0.5	BY	n/a	n/a	dot_pattern_expectancy	-1.0	n/a	cue	BY	s192	False
441.841	0.5	442.215	2.452	BY	1.0	71.0	dot_pattern_expectancy	71.0	0.374	probe	BY	s192	False
444.295	0.5	444.294	0.5	AX	n/a	n/a	dot_pattern_expectancy	-1.0	n/a	cue	AX	s192	False
446.806	0.5	447.189	1.5	AX	1.0	89.0	dot_pattern_expectancy	89.0	0.383	probe	AX	s192	False
448.31	0.5	448.309	0.5	BY	n/a	n/a	dot_pattern_expectancy	-1.0	n/a	cue	BY	s192	False
450.82	0.5	451.231	1.5	BY	1.0	71.0	dot_pattern_expectancy	71.0	0.411	probe	BY	s192	False
452.321	0.5	452.32	0.5	AX	n/a	n/a	dot_pattern_expectancy	-1.0	n/a	cue	AX	s192	False
454.828	0.5	455.436	1.636	AX	1.0	89.0	dot_pattern_expectancy	89.0	0.608	probe	AX	s192	False
456.466	0.5	456.465	0.5	AX	n/a	n/a	dot_pattern_expectancy	-1.0	n/a	cue	AX	s192	False
458.974	0.5	459.278	1.636	AX	1.0	89.0	dot_pattern_expectancy	89.0	0.304	probe	AX	s192	False
460.615	0.5	460.614	0.5	AY	n/a	n/a	dot_pattern_expectancy	-1.0	n/a	cue	AY	s192	False
463.125	0.5	464.113	1.636	AY	1.0	71.0	dot_pattern_expectancy	71.0	0.988	probe	AY	s192	False
464.764	0.5	464.763	0.5	AX	n/a	n/a	dot_pattern_expectancy	-1.0	n/a	cue	AX	s192	False
467.276	0.5	467.841	1.5	AX	1.0	89.0	dot_pattern_expectancy	89.0	0.565	probe	AX	s192	False
468.778	0.5	468.777	0.5	AX	n/a	n/a	dot_pattern_expectancy	-1.0	n/a	cue	AX	s192	False
471.284	0.5	471.636	1.5	AX	1.0	89.0	dot_pattern_expectancy	89.0	0.352	probe	AX	s192	False
472.786	0.5	472.785	0.5	AX	n/a	n/a	dot_pattern_expectancy	-1.0	n/a	cue	AX	s192	False
475.295	0.5	475.644	1.772	AX	1.0	89.0	dot_pattern_expectancy	89.0	0.349	probe	AX	s192	False
477.069	0.5	477.068	0.5	AX	n/a	n/a	dot_pattern_expectancy	-1.0	n/a	cue	AX	s192	False
479.575	0.5	480.184	2.18	AX	0.0	89.0	dot_pattern_expectancy	71.0	0.609	probe	AX	s192	False
481.76	0.5	481.759	0.5	BX	n/a	n/a	dot_pattern_expectancy	-1.0	n/a	cue	BX	s192	False
484.266	0.5	484.597	1.772	BX	1.0	71.0	dot_pattern_expectancy	71.0	0.331	probe	BX	s192	False
486.04	0.5	486.039	0.5	BY	n/a	n/a	dot_pattern_expectancy	-1.0	n/a	cue	BY	s192	False
488.544	0.5	488.95	1.5	BY	1.0	71.0	dot_pattern_expectancy	71.0	0.406	probe	BY	s192	False
490.045	0.5	490.044	0.5	AX	n/a	n/a	dot_pattern_expectancy	-1.0	n/a	cue	AX	s192	False
492.557	0.5	492.873	1.5	AX	1.0	89.0	dot_pattern_expectancy	89.0	0.316	probe	AX	s192	False
494.061	0.5	494.06	0.5	AX	n/a	n/a	dot_pattern_expectancy	-1.0	n/a	cue	AX	s192	False
496.569	0.5	496.867	1.636	AX	1.0	89.0	dot_pattern_expectancy	89.0	0.298	probe	AX	s192	False
498.211	0.5	498.21	0.5	AY	n/a	n/a	dot_pattern_expectancy	-1.0	n/a	cue	AY	s192	False
500.717	0.5	501.164	2.18	AY	1.0	71.0	dot_pattern_expectancy	71.0	0.447	probe	AY	s192	False
502.899	0.5	502.898	0.5	AY	n/a	n/a	dot_pattern_expectancy	-1.0	n/a	cue	AY	s192	False
505.408	0.5	505.908	2.316	AY	1.0	71.0	dot_pattern_expectancy	71.0	0.5	probe	AY	s192	False
507.726	0.5	507.725	0.5	BX	n/a	n/a	dot_pattern_expectancy	-1.0	n/a	cue	BX	s192	False
510.234	0.5	510.647	1.636	BX	1.0	71.0	dot_pattern_expectancy	71.0	0.413	probe	BX	s192	False
511.875	0.5	511.874	0.5	BX	n/a	n/a	dot_pattern_expectancy	-1.0	n/a	cue	BX	s192	False
514.382	0.5	514.949	2.18	BX	0.0	71.0	dot_pattern_expectancy	89.0	0.567	probe	BX	s192	False
516.563	0.5	516.562	0.5	AY	n/a	n/a	dot_pattern_expectancy	-1.0	n/a	cue	AY	s192	False
519.073	0.5	519.597	2.044	AY	1.0	71.0	dot_pattern_expectancy	71.0	0.524	probe	AY	s192	False
521.118	0.5	521.117	0.5	AX	n/a	n/a	dot_pattern_expectancy	-1.0	n/a	cue	AX	s192	False
523.622	0.5	524.28	1.772	AX	1.0	89.0	dot_pattern_expectancy	89.0	0.658	probe	AX	s192	False
525.396	0.5	525.395	0.5	AX	n/a	n/a	dot_pattern_expectancy	-1.0	n/a	cue	AX	s192	False
527.899	0.5	528.446	1.5	AX	1.0	89.0	dot_pattern_expectancy	89.0	0.547	probe	AX	s192	False
529.401	0.5	529.4	0.5	AX	n/a	n/a	dot_pattern_expectancy	-1.0	n/a	cue	AX	s192	False
531.908	0.5	532.323	2.18	AX	1.0	89.0	dot_pattern_expectancy	89.0	0.415	probe	AX	s192	False
534.089	0.5	534.088	0.5	AY	n/a	n/a	dot_pattern_expectancy	-1.0	n/a	cue	AY	s192	False
536.596	0.5	537.156	2.452	AY	1.0	71.0	dot_pattern_expectancy	71.0	0.56	probe	AY	s192	False
539.049	0.5	539.048	0.5	AX	n/a	n/a	dot_pattern_expectancy	-1.0	n/a	cue	AX	s192	False
541.556	0.5	542.426	1.636	AX	1.0	89.0	dot_pattern_expectancy	89.0	0.87	probe	AX	s192	False
543.193	0.5	543.192	0.5	AX	n/a	n/a	dot_pattern_expectancy	-1.0	n/a	cue	AX	s192	False
545.704	0.5	546.406	1.908	AX	1.0	89.0	dot_pattern_expectancy	89.0	0.702	probe	AX	s192	False
558.133	0.5	558.132	0.5	AX	n/a	n/a	dot_pattern_expectancy	-1.0	n/a	cue	AX	s192	False
560.642	0.5	561.484	1.772	AX	1.0	89.0	dot_pattern_expectancy	89.0	0.842	probe	AX	s192	False
562.415	0.5	562.414	0.5	AX	n/a	n/a	dot_pattern_expectancy	-1.0	n/a	cue	AX	s192	False
564.925	0.5	565.315	1.5	AX	1.0	89.0	dot_pattern_expectancy	89.0	0.39	probe	AX	s192	False
566.426	0.5	566.425	0.5	AY	n/a	n/a	dot_pattern_expectancy	-1.0	n/a	cue	AY	s192	False
568.933	0.5	569.586	2.452	AY	1.0	71.0	dot_pattern_expectancy	71.0	0.653	probe	AY	s192	False
571.386	0.5	571.385	0.5	AY	n/a	n/a	dot_pattern_expectancy	-1.0	n/a	cue	AY	s192	False
573.895	0.5	574.407	1.772	AY	1.0	71.0	dot_pattern_expectancy	71.0	0.512	probe	AY	s192	False
575.672	0.5	575.671	0.5	AX	n/a	n/a	dot_pattern_expectancy	-1.0	n/a	cue	AX	s192	False
578.176	0.5	578.839	1.908	AX	1.0	89.0	dot_pattern_expectancy	89.0	0.663	probe	AX	s192	False
580.085	0.5	580.084	0.5	AX	n/a	n/a	dot_pattern_expectancy	-1.0	n/a	cue	AX	s192	False
582.595	0.5	583.138	1.908	AX	1.0	89.0	dot_pattern_expectancy	89.0	0.543	probe	AX	s192	False
584.509	0.5	584.508	0.5	AX	n/a	n/a	dot_pattern_expectancy	-1.0	n/a	cue	AX	s192	False
587.016	0.5	587.453	2.588	AX	1.0	89.0	dot_pattern_expectancy	89.0	0.437	probe	AX	s192	False
589.606	0.5	589.605	0.5	AY	n/a	n/a	dot_pattern_expectancy	-1.0	n/a	cue	AY	s192	False
592.114	0.5	592.557	1.5	AY	1.0	71.0	dot_pattern_expectancy	71.0	0.443	probe	AY	s192	False
593.616	0.5	593.615	0.5	BY	n/a	n/a	dot_pattern_expectancy	-1.0	n/a	cue	BY	s192	False
596.125	0.5	596.442	1.5	BY	1.0	71.0	dot_pattern_expectancy	71.0	0.317	probe	BY	s192	False
597.631	0.5	597.63	0.5	BY	n/a	n/a	dot_pattern_expectancy	-1.0	n/a	cue	BY	s192	False
600.139	0.5	600.731	1.5	BY	1.0	71.0	dot_pattern_expectancy	71.0	0.592	probe	BY	s192	False
601.641	0.5	601.64	0.5	AX	n/a	n/a	dot_pattern_expectancy	-1.0	n/a	cue	AX	s192	False
604.15	0.5	604.507	1.636	AX	1.0	89.0	dot_pattern_expectancy	89.0	0.357	probe	AX	s192	False
605.787	0.5	605.786	0.5	BX	n/a	n/a	dot_pattern_expectancy	-1.0	n/a	cue	BX	s192	False
608.297	0.5	608.975	2.044	BX	1.0	71.0	dot_pattern_expectancy	71.0	0.678	probe	BX	s192	False
610.342	0.5	610.341	0.5	AX	n/a	n/a	dot_pattern_expectancy	-1.0	n/a	cue	AX	s192	False
612.851	0.5	613.18	1.772	AX	1.0	89.0	dot_pattern_expectancy	89.0	0.329	probe	AX	s192	False
614.625	0.5	614.624	0.5	BX	n/a	n/a	dot_pattern_expectancy	-1.0	n/a	cue	BX	s192	False
617.134	0.5	617.659	2.588	BX	1.0	71.0	dot_pattern_expectancy	71.0	0.525	probe	BX	s192	False
619.727	0.5	619.726	0.5	AY	n/a	n/a	dot_pattern_expectancy	-1.0	n/a	cue	AY	s192	False
622.235	0.5	622.883	1.5	AY	1.0	71.0	dot_pattern_expectancy	71.0	0.648	probe	AY	s192	False
623.736	0.5	623.735	0.5	AX	n/a	n/a	dot_pattern_expectancy	-1.0	n/a	cue	AX	s192	False
626.246	0.5	626.571	2.452	AX	1.0	89.0	dot_pattern_expectancy	89.0	0.325	probe	AX	s192	False
628.7	0.5	628.699	0.5	BY	n/a	n/a	dot_pattern_expectancy	-1.0	n/a	cue	BY	s192	False
631.206	0.5	631.704	1.636	BY	1.0	71.0	dot_pattern_expectancy	71.0	0.498	probe	BY	s192	False
632.844	0.5	632.843	0.5	AX	n/a	n/a	dot_pattern_expectancy	-1.0	n/a	cue	AX	s192	False
635.352	0.5	635.783	1.636	AX	1.0	89.0	dot_pattern_expectancy	89.0	0.431	probe	AX	s192	False
636.994	0.5	636.993	0.5	AX	n/a	n/a	dot_pattern_expectancy	-1.0	n/a	cue	AX	s192	False
639.503	0.5	639.951	1.5	AX	1.0	89.0	dot_pattern_expectancy	89.0	0.448	probe	AX	s192	False
641.008	0.5	641.007	0.5	BY	n/a	n/a	dot_pattern_expectancy	-1.0	n/a	cue	BY	s192	False
643.511	0.5	643.885	1.636	BY	1.0	71.0	dot_pattern_expectancy	71.0	0.374	probe	BY	s192	False
645.148	0.5	645.147	0.5	AX	n/a	n/a	dot_pattern_expectancy	-1.0	n/a	cue	AX	s192	False
647.658	0.5	648.162	1.5	AX	1.0	89.0	dot_pattern_expectancy	89.0	0.504	probe	AX	s192	False
649.159	0.5	649.158	0.5	AY	n/a	n/a	dot_pattern_expectancy	-1.0	n/a	cue	AY	s192	False
651.666	0.5	651.665	2.18	AY	0.0	71.0	dot_pattern_expectancy	-1.0	n/a	probe	AY	s192	False
653.848	0.5	653.847	0.5	AX	n/a	n/a	dot_pattern_expectancy	-1.0	n/a	cue	AX	s192	False
656.357	0.5	656.816	1.5	AX	1.0	89.0	dot_pattern_expectancy	89.0	0.459	probe	AX	s192	False
657.858	0.5	657.857	0.5	AX	n/a	n/a	dot_pattern_expectancy	-1.0	n/a	cue	AX	s192	False
660.365	0.5	660.841	1.908	AX	1.0	89.0	dot_pattern_expectancy	89.0	0.476	probe	AX	s192	False
662.274	0.5	662.273	0.5	BY	n/a	n/a	dot_pattern_expectancy	-1.0	n/a	cue	BY	s192	False
664.781	0.5	665.069	1.636	BY	1.0	71.0	dot_pattern_expectancy	71.0	0.288	probe	BY	s192	False
666.418	0.5	666.417	0.5	BY	n/a	n/a	dot_pattern_expectancy	-1.0	n/a	cue	BY	s192	False
668.925	0.5	669.245	1.636	BY	1.0	71.0	dot_pattern_expectancy	71.0	0.32	probe	BY	s192	False
670.562	0.5	670.561	0.5	AX	n/a	n/a	dot_pattern_expectancy	-1.0	n/a	cue	AX	s192	False
673.066	0.5	673.476	1.636	AX	1.0	89.0	dot_pattern_expectancy	89.0	0.41	probe	AX	s192	False
674.706	0.5	674.705	0.5	AX	n/a	n/a	dot_pattern_expectancy	-1.0	n/a	cue	AX	s192	False
677.216	0.5	677.637	1.5	AX	1.0	89.0	dot_pattern_expectancy	89.0	0.421	probe	AX	s192	False
678.717	0.5	678.716	0.5	BY	n/a	n/a	dot_pattern_expectancy	-1.0	n/a	cue	BY	s192	False
681.226	0.5	681.694	2.044	BY	1.0	71.0	dot_pattern_expectancy	71.0	0.468	probe	BY	s192	False
683.272	0.5	683.271	0.5	AY	n/a	n/a	dot_pattern_expectancy	-1.0	n/a	cue	AY	s192	False
685.779	0.5	686.223	2.18	AY	1.0	71.0	dot_pattern_expectancy	71.0	0.444	probe	AY	s192	False
687.96	0.5	687.959	0.5	AY	n/a	n/a	dot_pattern_expectancy	-1.0	n/a	cue	AY	s192	False
690.467	0.5	691.118	1.636	AY	1.0	71.0	dot_pattern_expectancy	71.0	0.651	probe	AY	s192	False
692.104	0.5	692.103	0.5	AY	n/a	n/a	dot_pattern_expectancy	-1.0	n/a	cue	AY	s192	False
694.614	0.5	695.135	1.772	AY	1.0	71.0	dot_pattern_expectancy	71.0	0.521	probe	AY	s192	False
696.387	0.5	696.386	0.5	BY	n/a	n/a	dot_pattern_expectancy	-1.0	n/a	cue	BY	s192	False
698.895	0.5	699.212	1.5	BY	1.0	71.0	dot_pattern_expectancy	71.0	0.317	probe	BY	s192	False
700.398	0.5	700.397	0.5	BX	n/a	n/a	dot_pattern_expectancy	-1.0	n/a	cue	BX	s192	False
702.905	0.5	703.305	1.908	BX	1.0	71.0	dot_pattern_expectancy	71.0	0.4	probe	BX	s192	False
704.818	0.5	704.817	0.5	AX	n/a	n/a	dot_pattern_expectancy	-1.0	n/a	cue	AX	s192	False
707.329	0.5	707.615	2.044	AX	1.0	89.0	dot_pattern_expectancy	89.0	0.286	probe	AX	s192	False
709.374	0.5	709.373	0.5	AX	n/a	n/a	dot_pattern_expectancy	-1.0	n/a	cue	AX	s192	False
711.881	0.5	712.305	1.636	AX	1.0	89.0	dot_pattern_expectancy	89.0	0.424	probe	AX	s192	False
713.518	0.5	713.517	0.5	AX	n/a	n/a	dot_pattern_expectancy	-1.0	n/a	cue	AX	s192	False
716.028	0.5	716.444	1.772	AX	1.0	89.0	dot_pattern_expectancy	89.0	0.416	probe	AX	s192	False
717.801	0.5	717.8	0.5	AX	n/a	n/a	dot_pattern_expectancy	-1.0	n/a	cue	AX	s192	False
720.31	0.5	720.63	1.636	AX	1.0	89.0	dot_pattern_expectancy	89.0	0.32	probe	AX	s192	False
721.95	0.5	721.949	0.5	BX	n/a	n/a	dot_pattern_expectancy	-1.0	n/a	cue	BX	s192	False
724.46	0.5	724.819	1.772	BX	1.0	71.0	dot_pattern_expectancy	71.0	0.359	probe	BX	s192	False
726.233	0.5	726.232	0.5	AX	n/a	n/a	dot_pattern_expectancy	-1.0	n/a	cue	AX	s192	False
728.743	0.5	729.258	1.5	AX	1.0	89.0	dot_pattern_expectancy	89.0	0.515	probe	AX	s192	False
