duration	onset	block_duration	movement_onset	planning	condition	exp_stage	experiment_exp_id	key_press	problem_id	response_time	trial_id	trial_type	worker_id	junk
4.159	3.01	4.159	7.169	1	UA_with_intermediate	practice	ward_and_allport	71	0.0	4.159	to_hand	poldrack-single-stim	s192	False
0.1	7.171	0.64	7.811	0	UA_with_intermediate	practice	ward_and_allport	82	0.0	0.64	to_board	poldrack-single-stim	s192	False
0.1	7.814	0.711	8.525	0	UA_with_intermediate	practice	ward_and_allport	71	0.0	0.711	to_hand	poldrack-single-stim	s192	False
0.1	8.526	0.505	9.031	0	UA_with_intermediate	practice	ward_and_allport	89	0.0	0.505	to_board	poldrack-single-stim	s192	False
0.1	9.033	0.727	9.76	0	UA_with_intermediate	practice	ward_and_allport	82	0.0	0.727	to_hand	poldrack-single-stim	s192	False
0.1	9.762	0.618	10.38	0	UA_with_intermediate	practice	ward_and_allport	89	0.0	0.618	to_board	poldrack-single-stim	s192	False
1.0	10.384	2.5	10.383	0	UA_with_intermediate	practice	ward_and_allport	-1	0.0	n/a	feedback	poldrack-single-stim	s192	False
4.327	12.886	4.327	17.213	1	UA_with_intermediate	practice	ward_and_allport	71	1.0	4.327	to_hand	poldrack-single-stim	s192	False
0.1	17.214	2.193	19.407	0	UA_with_intermediate	practice	ward_and_allport	71	1.0	2.193	to_board	poldrack-single-stim	s192	False
0.1	19.409	0.45	19.859	0	UA_with_intermediate	practice	ward_and_allport	89	1.0	0.45	to_hand	poldrack-single-stim	s192	False
0.1	19.86	0.78	20.64	0	UA_with_intermediate	practice	ward_and_allport	82	1.0	0.78	to_board	poldrack-single-stim	s192	False
0.1	20.642	0.948	21.59	0	UA_with_intermediate	practice	ward_and_allport	71	1.0	0.948	to_hand	poldrack-single-stim	s192	False
0.1	21.59	0.582	22.172	0	UA_with_intermediate	practice	ward_and_allport	89	1.0	0.582	to_board	poldrack-single-stim	s192	False
0.1	22.174	0.514	22.688	0	UA_with_intermediate	practice	ward_and_allport	82	1.0	0.514	to_hand	poldrack-single-stim	s192	False
0.1	22.689	0.454	23.143	0	UA_with_intermediate	practice	ward_and_allport	89	1.0	0.454	to_board	poldrack-single-stim	s192	False
1.0	23.145	2.1	23.144	0	UA_with_intermediate	practice	ward_and_allport	-1	1.0	n/a	feedback	poldrack-single-stim	s192	False
3.213	25.248	3.213	28.461	1	UA_without_intermediate	practice	ward_and_allport	82	2.0	3.213	to_hand	poldrack-single-stim	s192	False
0.1	28.461	0.656	29.117	0	UA_without_intermediate	practice	ward_and_allport	89	2.0	0.656	to_board	poldrack-single-stim	s192	False
0.1	29.119	0.917	30.036	0	UA_without_intermediate	practice	ward_and_allport	71	2.0	0.917	to_hand	poldrack-single-stim	s192	False
0.1	30.037	1.636	31.673	0	UA_without_intermediate	practice	ward_and_allport	89	2.0	1.636	to_board	poldrack-single-stim	s192	False
0.1	31.676	0.613	32.289	0	UA_without_intermediate	practice	ward_and_allport	71	2.0	0.613	to_hand	poldrack-single-stim	s192	False
0.1	32.289	0.527	32.816	0	UA_without_intermediate	practice	ward_and_allport	89	2.0	0.527	to_board	poldrack-single-stim	s192	False
1.0	32.82	2.2	32.819	0	UA_without_intermediate	practice	ward_and_allport	-1	2.0	n/a	feedback	poldrack-single-stim	s192	False
4.346	35.023	4.346	39.369	1	UA_without_intermediate	practice	ward_and_allport	71	3.0	4.346	to_hand	poldrack-single-stim	s192	False
0.1	39.37	0.503	39.873	0	UA_without_intermediate	practice	ward_and_allport	89	3.0	0.503	to_board	poldrack-single-stim	s192	False
0.1	39.876	0.664	40.54	0	UA_without_intermediate	practice	ward_and_allport	82	3.0	0.664	to_hand	poldrack-single-stim	s192	False
0.1	40.541	0.531	41.072	0	UA_without_intermediate	practice	ward_and_allport	89	3.0	0.531	to_board	poldrack-single-stim	s192	False
0.1	41.074	0.763	41.837	0	UA_without_intermediate	practice	ward_and_allport	71	3.0	0.763	to_hand	poldrack-single-stim	s192	False
0.1	41.839	0.492	42.331	0	UA_without_intermediate	practice	ward_and_allport	89	3.0	0.492	to_board	poldrack-single-stim	s192	False
1.0	42.338	2.0	42.337	0	UA_without_intermediate	practice	ward_and_allport	-1	3.0	n/a	feedback	poldrack-single-stim	s192	False
4.336	46.345	4.336	50.681	1	PA_without_intermediate	test	ward_and_allport	71	0.0	4.336	to_hand	poldrack-single-stim	s192	False
0.1	50.683	0.739	51.422	0	PA_without_intermediate	test	ward_and_allport	89	0.0	0.739	to_board	poldrack-single-stim	s192	False
0.1	51.424	0.609	52.033	0	PA_without_intermediate	test	ward_and_allport	71	0.0	0.609	to_hand	poldrack-single-stim	s192	False
0.1	52.034	0.89	52.924	0	PA_without_intermediate	test	ward_and_allport	89	0.0	0.89	to_board	poldrack-single-stim	s192	False
0.1	52.926	0.55	53.476	0	PA_without_intermediate	test	ward_and_allport	71	0.0	0.55	to_hand	poldrack-single-stim	s192	False
0.1	53.478	0.476	53.954	0	PA_without_intermediate	test	ward_and_allport	82	0.0	0.476	to_board	poldrack-single-stim	s192	False
1.0	53.959	3.088	53.958	0	PA_without_intermediate	test	ward_and_allport	-1	0.0	n/a	feedback	poldrack-single-stim	s192	False
4.693	57.049	4.693	61.742	1	PA_with_intermediate	test	ward_and_allport	89	1.0	4.693	to_hand	poldrack-single-stim	s192	False
0.1	61.744	0.621	62.365	0	PA_with_intermediate	test	ward_and_allport	71	1.0	0.621	to_board	poldrack-single-stim	s192	False
0.1	62.367	2.789	65.156	0	PA_with_intermediate	test	ward_and_allport	71	1.0	2.789	to_hand	poldrack-single-stim	s192	False
0.1	65.157	0.841	65.998	0	PA_with_intermediate	test	ward_and_allport	82	1.0	0.841	to_board	poldrack-single-stim	s192	False
0.1	66.001	0.509	66.51	0	PA_with_intermediate	test	ward_and_allport	89	1.0	0.509	to_hand	poldrack-single-stim	s192	False
0.1	66.511	0.466	66.977	0	PA_with_intermediate	test	ward_and_allport	71	1.0	0.466	to_board	poldrack-single-stim	s192	False
0.1	66.98	0.483	67.463	0	PA_with_intermediate	test	ward_and_allport	82	1.0	0.483	to_hand	poldrack-single-stim	s192	False
0.1	67.464	0.37	67.834	0	PA_with_intermediate	test	ward_and_allport	89	1.0	0.37	to_board	poldrack-single-stim	s192	False
1.0	67.837	2.0	67.836	0	PA_with_intermediate	test	ward_and_allport	-1	1.0	n/a	feedback	poldrack-single-stim	s192	False
4.036	69.84	4.036	73.876	1	PA_without_intermediate	test	ward_and_allport	82	2.0	4.036	to_hand	poldrack-single-stim	s192	False
0.1	73.877	0.522	74.399	0	PA_without_intermediate	test	ward_and_allport	71	2.0	0.522	to_board	poldrack-single-stim	s192	False
0.1	74.402	1.062	75.464	0	PA_without_intermediate	test	ward_and_allport	82	2.0	1.062	to_hand	poldrack-single-stim	s192	False
0.1	75.465	0.729	76.194	0	PA_without_intermediate	test	ward_and_allport	89	2.0	0.729	to_board	poldrack-single-stim	s192	False
0.1	76.198	1.153	77.351	0	PA_without_intermediate	test	ward_and_allport	82	2.0	1.153	to_hand	poldrack-single-stim	s192	False
0.1	77.352	0.492	77.844	0	PA_without_intermediate	test	ward_and_allport	71	2.0	0.492	to_board	poldrack-single-stim	s192	False
1.0	77.848	2.0	77.847	0	PA_without_intermediate	test	ward_and_allport	-1	2.0	n/a	feedback	poldrack-single-stim	s192	False
3.438	79.852	3.438	83.29	1	PA_without_intermediate	test	ward_and_allport	71	3.0	3.438	to_hand	poldrack-single-stim	s192	False
0.1	83.29	0.46	83.75	0	PA_without_intermediate	test	ward_and_allport	82	3.0	0.46	to_board	poldrack-single-stim	s192	False
0.1	83.753	0.477	84.23	0	PA_without_intermediate	test	ward_and_allport	71	3.0	0.477	to_hand	poldrack-single-stim	s192	False
0.1	84.231	0.556	84.787	0	PA_without_intermediate	test	ward_and_allport	89	3.0	0.556	to_board	poldrack-single-stim	s192	False
0.1	84.79	0.475	85.265	0	PA_without_intermediate	test	ward_and_allport	71	3.0	0.475	to_hand	poldrack-single-stim	s192	False
0.1	85.266	0.542	85.808	0	PA_without_intermediate	test	ward_and_allport	82	3.0	0.542	to_board	poldrack-single-stim	s192	False
1.0	85.812	2.0	85.811	0	PA_without_intermediate	test	ward_and_allport	-1	3.0	n/a	feedback	poldrack-single-stim	s192	False
3.386	87.814	3.386	91.2	1	PA_with_intermediate	test	ward_and_allport	89	4.0	3.386	to_hand	poldrack-single-stim	s192	False
0.1	91.202	0.455	91.657	0	PA_with_intermediate	test	ward_and_allport	71	4.0	0.455	to_board	poldrack-single-stim	s192	False
0.1	91.66	1.477	93.137	0	PA_with_intermediate	test	ward_and_allport	89	4.0	1.477	to_hand	poldrack-single-stim	s192	False
0.1	93.138	0.668	93.806	0	PA_with_intermediate	test	ward_and_allport	82	4.0	0.668	to_board	poldrack-single-stim	s192	False
0.1	93.809	0.464	94.273	0	PA_with_intermediate	test	ward_and_allport	71	4.0	0.464	to_hand	poldrack-single-stim	s192	False
0.1	94.274	0.396	94.67	0	PA_with_intermediate	test	ward_and_allport	82	4.0	0.396	to_board	poldrack-single-stim	s192	False
1.0	94.676	2.544	94.675	0	PA_with_intermediate	test	ward_and_allport	-1	4.0	n/a	feedback	poldrack-single-stim	s192	False
3.472	97.224	3.472	100.696	1	PA_without_intermediate	test	ward_and_allport	71	5.0	3.472	to_hand	poldrack-single-stim	s192	False
0.1	100.697	0.42	101.117	0	PA_without_intermediate	test	ward_and_allport	89	5.0	0.42	to_board	poldrack-single-stim	s192	False
0.1	101.12	0.555	101.675	0	PA_without_intermediate	test	ward_and_allport	71	5.0	0.555	to_hand	poldrack-single-stim	s192	False
0.1	101.676	0.455	102.131	0	PA_without_intermediate	test	ward_and_allport	82	5.0	0.455	to_board	poldrack-single-stim	s192	False
0.1	102.135	0.455	102.59	0	PA_without_intermediate	test	ward_and_allport	71	5.0	0.455	to_hand	poldrack-single-stim	s192	False
0.1	102.59	0.434	103.024	0	PA_without_intermediate	test	ward_and_allport	89	5.0	0.434	to_board	poldrack-single-stim	s192	False
1.0	103.028	2.272	103.027	0	PA_without_intermediate	test	ward_and_allport	-1	5.0	n/a	feedback	poldrack-single-stim	s192	False
3.077	105.304	3.077	108.381	1	PA_with_intermediate	test	ward_and_allport	71	6.0	3.077	to_hand	poldrack-single-stim	s192	False
0.1	108.381	0.767	109.148	0	PA_with_intermediate	test	ward_and_allport	89	6.0	0.767	to_board	poldrack-single-stim	s192	False
0.1	109.151	0.51	109.661	0	PA_with_intermediate	test	ward_and_allport	71	6.0	0.51	to_hand	poldrack-single-stim	s192	False
0.1	109.662	0.459	110.121	0	PA_with_intermediate	test	ward_and_allport	82	6.0	0.459	to_board	poldrack-single-stim	s192	False
0.1	110.124	0.418	110.542	0	PA_with_intermediate	test	ward_and_allport	89	6.0	0.418	to_hand	poldrack-single-stim	s192	False
0.1	110.544	0.491	111.035	0	PA_with_intermediate	test	ward_and_allport	82	6.0	0.491	to_board	poldrack-single-stim	s192	False
1.0	111.042	4.04	111.041	0	PA_with_intermediate	test	ward_and_allport	-1	6.0	n/a	feedback	poldrack-single-stim	s192	False
3.936	115.085	3.936	119.021	1	PA_with_intermediate	test	ward_and_allport	89	7.0	3.936	to_hand	poldrack-single-stim	s192	False
0.1	119.022	0.419	119.441	0	PA_with_intermediate	test	ward_and_allport	82	7.0	0.419	to_board	poldrack-single-stim	s192	False
0.1	119.445	0.868	120.313	0	PA_with_intermediate	test	ward_and_allport	89	7.0	0.868	to_hand	poldrack-single-stim	s192	False
0.1	120.314	0.394	120.708	0	PA_with_intermediate	test	ward_and_allport	71	7.0	0.394	to_board	poldrack-single-stim	s192	False
0.1	120.712	0.595	121.307	0	PA_with_intermediate	test	ward_and_allport	82	7.0	0.595	to_hand	poldrack-single-stim	s192	False
0.1	121.307	0.375	121.682	0	PA_with_intermediate	test	ward_and_allport	89	7.0	0.375	to_board	poldrack-single-stim	s192	False
1.0	121.69	2.272	121.689	0	PA_with_intermediate	test	ward_and_allport	-1	7.0	n/a	feedback	poldrack-single-stim	s192	False
3.519	123.965	3.519	127.484	1	PA_with_intermediate	test	ward_and_allport	71	8.0	3.519	to_hand	poldrack-single-stim	s192	False
0.1	127.485	0.428	127.913	0	PA_with_intermediate	test	ward_and_allport	82	8.0	0.428	to_board	poldrack-single-stim	s192	False
0.1	127.917	0.456	128.373	0	PA_with_intermediate	test	ward_and_allport	71	8.0	0.456	to_hand	poldrack-single-stim	s192	False
0.1	128.375	0.396	128.771	0	PA_with_intermediate	test	ward_and_allport	89	8.0	0.396	to_board	poldrack-single-stim	s192	False
0.1	128.776	0.441	129.217	0	PA_with_intermediate	test	ward_and_allport	82	8.0	0.441	to_hand	poldrack-single-stim	s192	False
0.1	129.218	0.405	129.623	0	PA_with_intermediate	test	ward_and_allport	71	8.0	0.405	to_board	poldrack-single-stim	s192	False
1.0	129.629	2.136	129.628	0	PA_with_intermediate	test	ward_and_allport	-1	8.0	n/a	feedback	poldrack-single-stim	s192	False
3.453	131.77	3.453	135.223	1	PA_with_intermediate	test	ward_and_allport	82	9.0	3.453	to_hand	poldrack-single-stim	s192	False
0.1	135.224	0.428	135.652	0	PA_with_intermediate	test	ward_and_allport	71	9.0	0.428	to_board	poldrack-single-stim	s192	False
0.1	135.656	0.747	136.403	0	PA_with_intermediate	test	ward_and_allport	82	9.0	0.747	to_hand	poldrack-single-stim	s192	False
0.1	136.403	0.366	136.769	0	PA_with_intermediate	test	ward_and_allport	89	9.0	0.366	to_board	poldrack-single-stim	s192	False
0.1	136.774	0.381	137.155	0	PA_with_intermediate	test	ward_and_allport	71	9.0	0.381	to_hand	poldrack-single-stim	s192	False
0.1	137.155	0.343	137.498	0	PA_with_intermediate	test	ward_and_allport	89	9.0	0.343	to_board	poldrack-single-stim	s192	False
1.0	137.504	2.0	137.503	0	PA_with_intermediate	test	ward_and_allport	-1	9.0	n/a	feedback	poldrack-single-stim	s192	False
3.152	139.507	3.152	142.659	1	PA_with_intermediate	test	ward_and_allport	82	10.0	3.152	to_hand	poldrack-single-stim	s192	False
0.1	142.66	0.417	143.077	0	PA_with_intermediate	test	ward_and_allport	89	10.0	0.417	to_board	poldrack-single-stim	s192	False
0.1	143.082	0.758	143.84	0	PA_with_intermediate	test	ward_and_allport	82	10.0	0.758	to_hand	poldrack-single-stim	s192	False
0.1	143.841	0.399	144.24	0	PA_with_intermediate	test	ward_and_allport	71	10.0	0.399	to_board	poldrack-single-stim	s192	False
0.1	144.244	0.448	144.692	0	PA_with_intermediate	test	ward_and_allport	89	10.0	0.448	to_hand	poldrack-single-stim	s192	False
0.1	144.694	0.49	145.184	0	PA_with_intermediate	test	ward_and_allport	82	10.0	0.49	to_board	poldrack-single-stim	s192	False
1.0	145.19	2.0	145.189	0	PA_with_intermediate	test	ward_and_allport	-1	10.0	n/a	feedback	poldrack-single-stim	s192	False
3.224	147.194	3.224	150.418	1	PA_without_intermediate	test	ward_and_allport	89	11.0	3.224	to_hand	poldrack-single-stim	s192	False
0.1	150.418	0.565	150.983	0	PA_without_intermediate	test	ward_and_allport	82	11.0	0.565	to_board	poldrack-single-stim	s192	False
0.1	150.988	0.476	151.464	0	PA_without_intermediate	test	ward_and_allport	89	11.0	0.476	to_hand	poldrack-single-stim	s192	False
0.1	151.464	0.432	151.896	0	PA_without_intermediate	test	ward_and_allport	71	11.0	0.432	to_board	poldrack-single-stim	s192	False
0.1	151.901	0.423	152.324	0	PA_without_intermediate	test	ward_and_allport	89	11.0	0.423	to_hand	poldrack-single-stim	s192	False
0.1	152.324	0.696	153.02	0	PA_without_intermediate	test	ward_and_allport	82	11.0	0.696	to_board	poldrack-single-stim	s192	False
1.0	153.028	2.408	153.027	0	PA_without_intermediate	test	ward_and_allport	-1	11.0	n/a	feedback	poldrack-single-stim	s192	False
2.502	155.44	2.502	157.942	1	PA_with_intermediate	test	ward_and_allport	82	12.0	2.502	to_hand	poldrack-single-stim	s192	False
0.1	157.943	0.536	158.479	0	PA_with_intermediate	test	ward_and_allport	89	12.0	0.536	to_board	poldrack-single-stim	s192	False
0.1	158.484	0.478	158.962	0	PA_with_intermediate	test	ward_and_allport	82	12.0	0.478	to_hand	poldrack-single-stim	s192	False
0.1	158.964	0.729	159.693	0	PA_with_intermediate	test	ward_and_allport	71	12.0	0.729	to_board	poldrack-single-stim	s192	False
0.1	159.698	0.442	160.14	0	PA_with_intermediate	test	ward_and_allport	89	12.0	0.442	to_hand	poldrack-single-stim	s192	False
0.1	160.141	0.494	160.635	0	PA_with_intermediate	test	ward_and_allport	82	12.0	0.494	to_board	poldrack-single-stim	s192	False
1.0	160.641	3.768	160.64	0	PA_with_intermediate	test	ward_and_allport	-1	12.0	n/a	feedback	poldrack-single-stim	s192	False
2.735	164.414	2.735	167.149	1	PA_with_intermediate	test	ward_and_allport	71	13.0	2.735	to_hand	poldrack-single-stim	s192	False
0.1	167.151	0.423	167.574	0	PA_with_intermediate	test	ward_and_allport	89	13.0	0.423	to_board	poldrack-single-stim	s192	False
0.1	167.577	0.476	168.053	0	PA_with_intermediate	test	ward_and_allport	71	13.0	0.476	to_hand	poldrack-single-stim	s192	False
0.1	168.055	0.426	168.481	0	PA_with_intermediate	test	ward_and_allport	82	13.0	0.426	to_board	poldrack-single-stim	s192	False
0.1	168.485	0.383	168.868	0	PA_with_intermediate	test	ward_and_allport	89	13.0	0.383	to_hand	poldrack-single-stim	s192	False
0.1	168.87	0.365	169.235	0	PA_with_intermediate	test	ward_and_allport	71	13.0	0.365	to_board	poldrack-single-stim	s192	False
1.0	169.241	2.68	169.24	0	PA_with_intermediate	test	ward_and_allport	-1	13.0	n/a	feedback	poldrack-single-stim	s192	False
3.062	171.925	3.062	174.987	1	PA_without_intermediate	test	ward_and_allport	82	14.0	3.062	to_hand	poldrack-single-stim	s192	False
0.1	174.988	0.391	175.379	0	PA_without_intermediate	test	ward_and_allport	89	14.0	0.391	to_board	poldrack-single-stim	s192	False
0.1	175.383	0.466	175.849	0	PA_without_intermediate	test	ward_and_allport	82	14.0	0.466	to_hand	poldrack-single-stim	s192	False
0.1	175.85	0.376	176.226	0	PA_without_intermediate	test	ward_and_allport	89	14.0	0.376	to_board	poldrack-single-stim	s192	False
0.1	176.23	0.745	176.975	0	PA_without_intermediate	test	ward_and_allport	82	14.0	0.745	to_hand	poldrack-single-stim	s192	False
0.1	176.976	0.382	177.358	0	PA_without_intermediate	test	ward_and_allport	71	14.0	0.382	to_board	poldrack-single-stim	s192	False
1.0	177.364	3.224	177.363	0	PA_without_intermediate	test	ward_and_allport	-1	14.0	n/a	feedback	poldrack-single-stim	s192	False
3.785	185.595	3.785	189.38	1	PA_without_intermediate	test	ward_and_allport	89	15.0	3.785	to_hand	poldrack-single-stim	s192	False
0.1	189.382	0.434	189.816	0	PA_without_intermediate	test	ward_and_allport	71	15.0	0.434	to_board	poldrack-single-stim	s192	False
0.1	189.821	0.469	190.29	0	PA_without_intermediate	test	ward_and_allport	89	15.0	0.469	to_hand	poldrack-single-stim	s192	False
0.1	190.29	0.416	190.706	0	PA_without_intermediate	test	ward_and_allport	82	15.0	0.416	to_board	poldrack-single-stim	s192	False
0.1	190.711	0.4	191.111	0	PA_without_intermediate	test	ward_and_allport	89	15.0	0.4	to_hand	poldrack-single-stim	s192	False
0.1	191.112	0.379	191.491	0	PA_without_intermediate	test	ward_and_allport	71	15.0	0.379	to_board	poldrack-single-stim	s192	False
1.0	191.5	3.36	191.499	0	PA_without_intermediate	test	ward_and_allport	-1	15.0	n/a	feedback	poldrack-single-stim	s192	False
2.797	194.865	2.797	197.662	1	PA_without_intermediate	test	ward_and_allport	89	16.0	2.797	to_hand	poldrack-single-stim	s192	False
0.1	197.662	0.545	198.207	0	PA_without_intermediate	test	ward_and_allport	82	16.0	0.545	to_board	poldrack-single-stim	s192	False
0.1	198.211	0.385	198.596	0	PA_without_intermediate	test	ward_and_allport	89	16.0	0.385	to_hand	poldrack-single-stim	s192	False
0.1	198.597	0.43	199.027	0	PA_without_intermediate	test	ward_and_allport	82	16.0	0.43	to_board	poldrack-single-stim	s192	False
0.1	199.031	0.382	199.413	0	PA_without_intermediate	test	ward_and_allport	89	16.0	0.382	to_hand	poldrack-single-stim	s192	False
0.1	199.415	0.392	199.807	0	PA_without_intermediate	test	ward_and_allport	71	16.0	0.392	to_board	poldrack-single-stim	s192	False
1.0	199.812	2.0	199.811	0	PA_without_intermediate	test	ward_and_allport	-1	16.0	n/a	feedback	poldrack-single-stim	s192	False
2.476	201.817	2.476	204.293	1	PA_without_intermediate	test	ward_and_allport	82	17.0	2.476	to_hand	poldrack-single-stim	s192	False
0.1	204.294	0.377	204.671	0	PA_without_intermediate	test	ward_and_allport	71	17.0	0.377	to_board	poldrack-single-stim	s192	False
0.1	204.676	0.373	205.049	0	PA_without_intermediate	test	ward_and_allport	82	17.0	0.373	to_hand	poldrack-single-stim	s192	False
0.1	205.05	0.405	205.455	0	PA_without_intermediate	test	ward_and_allport	71	17.0	0.405	to_board	poldrack-single-stim	s192	False
0.1	205.461	0.344	205.805	0	PA_without_intermediate	test	ward_and_allport	82	17.0	0.344	to_hand	poldrack-single-stim	s192	False
0.1	205.806	0.37	206.176	0	PA_without_intermediate	test	ward_and_allport	89	17.0	0.37	to_board	poldrack-single-stim	s192	False
1.0	206.181	2.408	206.18	0	PA_without_intermediate	test	ward_and_allport	-1	17.0	n/a	feedback	poldrack-single-stim	s192	False
3.359	208.594	3.359	211.953	1	PA_with_intermediate	test	ward_and_allport	82	18.0	3.359	to_hand	poldrack-single-stim	s192	False
0.1	211.954	0.892	212.846	0	PA_with_intermediate	test	ward_and_allport	89	18.0	0.892	to_board	poldrack-single-stim	s192	False
0.1	212.851	0.417	213.268	0	PA_with_intermediate	test	ward_and_allport	82	18.0	0.417	to_hand	poldrack-single-stim	s192	False
0.1	213.269	0.329	213.598	0	PA_with_intermediate	test	ward_and_allport	71	18.0	0.329	to_board	poldrack-single-stim	s192	False
0.1	213.606	0.48	214.086	0	PA_with_intermediate	test	ward_and_allport	89	18.0	0.48	to_hand	poldrack-single-stim	s192	False
0.1	214.087	0.382	214.469	0	PA_with_intermediate	test	ward_and_allport	71	18.0	0.382	to_board	poldrack-single-stim	s192	False
1.0	214.475	2.136	214.474	0	PA_with_intermediate	test	ward_and_allport	-1	18.0	n/a	feedback	poldrack-single-stim	s192	False
2.375	216.615	2.375	218.99	1	PA_without_intermediate	test	ward_and_allport	82	19.0	2.375	to_hand	poldrack-single-stim	s192	False
0.1	218.992	0.651	219.643	0	PA_without_intermediate	test	ward_and_allport	71	19.0	0.651	to_board	poldrack-single-stim	s192	False
0.1	219.649	0.945	220.594	0	PA_without_intermediate	test	ward_and_allport	82	19.0	0.945	to_hand	poldrack-single-stim	s192	False
0.1	220.596	0.37	220.966	0	PA_without_intermediate	test	ward_and_allport	89	19.0	0.37	to_board	poldrack-single-stim	s192	False
0.1	220.972	0.538	221.51	0	PA_without_intermediate	test	ward_and_allport	82	19.0	0.538	to_hand	poldrack-single-stim	s192	False
0.1	221.511	0.398	221.909	0	PA_without_intermediate	test	ward_and_allport	71	19.0	0.398	to_board	poldrack-single-stim	s192	False
1.0	221.915	5.128	221.914	0	PA_without_intermediate	test	ward_and_allport	-1	19.0	n/a	feedback	poldrack-single-stim	s192	False
3.539	227.049	3.539	230.588	1	PA_without_intermediate	test	ward_and_allport	89	20.0	3.539	to_hand	poldrack-single-stim	s192	False
0.1	230.589	0.397	230.986	0	PA_without_intermediate	test	ward_and_allport	71	20.0	0.397	to_board	poldrack-single-stim	s192	False
0.1	230.992	0.516	231.508	0	PA_without_intermediate	test	ward_and_allport	89	20.0	0.516	to_hand	poldrack-single-stim	s192	False
0.1	231.51	0.491	232.001	0	PA_without_intermediate	test	ward_and_allport	82	20.0	0.491	to_board	poldrack-single-stim	s192	False
0.1	232.007	0.395	232.402	0	PA_without_intermediate	test	ward_and_allport	89	20.0	0.395	to_hand	poldrack-single-stim	s192	False
0.1	232.403	0.33	232.733	0	PA_without_intermediate	test	ward_and_allport	71	20.0	0.33	to_board	poldrack-single-stim	s192	False
1.0	232.739	2.136	232.738	0	PA_without_intermediate	test	ward_and_allport	-1	20.0	n/a	feedback	poldrack-single-stim	s192	False
2.637	234.882	2.637	237.519	1	PA_without_intermediate	test	ward_and_allport	71	21.0	2.637	to_hand	poldrack-single-stim	s192	False
0.1	237.52	0.612	238.132	0	PA_without_intermediate	test	ward_and_allport	82	21.0	0.612	to_board	poldrack-single-stim	s192	False
0.1	238.138	0.325	238.463	0	PA_without_intermediate	test	ward_and_allport	71	21.0	0.325	to_hand	poldrack-single-stim	s192	False
0.1	238.464	0.392	238.856	0	PA_without_intermediate	test	ward_and_allport	82	21.0	0.392	to_board	poldrack-single-stim	s192	False
0.1	238.863	0.5	239.363	0	PA_without_intermediate	test	ward_and_allport	71	21.0	0.5	to_hand	poldrack-single-stim	s192	False
0.1	239.363	0.353	239.716	0	PA_without_intermediate	test	ward_and_allport	89	21.0	0.353	to_board	poldrack-single-stim	s192	False
1.0	239.725	5.264	239.724	0	PA_without_intermediate	test	ward_and_allport	-1	21.0	n/a	feedback	poldrack-single-stim	s192	False
2.938	244.995	2.938	247.933	1	PA_with_intermediate	test	ward_and_allport	89	22.0	2.938	to_hand	poldrack-single-stim	s192	False
0.1	247.935	0.407	248.342	0	PA_with_intermediate	test	ward_and_allport	71	22.0	0.407	to_board	poldrack-single-stim	s192	False
0.1	248.348	0.379	248.727	0	PA_with_intermediate	test	ward_and_allport	89	22.0	0.379	to_hand	poldrack-single-stim	s192	False
0.1	248.729	0.394	249.123	0	PA_with_intermediate	test	ward_and_allport	82	22.0	0.394	to_board	poldrack-single-stim	s192	False
0.1	249.13	0.539	249.669	0	PA_with_intermediate	test	ward_and_allport	71	22.0	0.539	to_hand	poldrack-single-stim	s192	False
0.1	249.669	0.405	250.074	0	PA_with_intermediate	test	ward_and_allport	89	22.0	0.405	to_board	poldrack-single-stim	s192	False
1.0	250.081	4.04	250.08	0	PA_with_intermediate	test	ward_and_allport	-1	22.0	n/a	feedback	poldrack-single-stim	s192	False
3.709	254.127	3.709	257.836	1	PA_with_intermediate	test	ward_and_allport	82	23.0	3.709	to_hand	poldrack-single-stim	s192	False
0.1	257.838	0.379	258.217	0	PA_with_intermediate	test	ward_and_allport	89	23.0	0.379	to_board	poldrack-single-stim	s192	False
0.1	258.224	0.473	258.697	0	PA_with_intermediate	test	ward_and_allport	82	23.0	0.473	to_hand	poldrack-single-stim	s192	False
0.1	258.699	0.425	259.124	0	PA_with_intermediate	test	ward_and_allport	71	23.0	0.425	to_board	poldrack-single-stim	s192	False
0.1	259.132	0.366	259.498	0	PA_with_intermediate	test	ward_and_allport	89	23.0	0.366	to_hand	poldrack-single-stim	s192	False
0.1	259.498	0.319	259.817	0	PA_with_intermediate	test	ward_and_allport	71	23.0	0.319	to_board	poldrack-single-stim	s192	False
1.0	259.825	2.136	259.824	0	PA_with_intermediate	test	ward_and_allport	-1	23.0	n/a	feedback	poldrack-single-stim	s192	False
2.613	261.969	2.613	264.582	1	PA_with_intermediate	test	ward_and_allport	71	24.0	2.613	to_hand	poldrack-single-stim	s192	False
0.1	264.583	0.404	264.987	0	PA_with_intermediate	test	ward_and_allport	82	24.0	0.404	to_board	poldrack-single-stim	s192	False
0.1	264.994	0.38	265.374	0	PA_with_intermediate	test	ward_and_allport	71	24.0	0.38	to_hand	poldrack-single-stim	s192	False
0.1	265.375	0.387	265.762	0	PA_with_intermediate	test	ward_and_allport	89	24.0	0.387	to_board	poldrack-single-stim	s192	False
0.1	265.769	0.389	266.158	0	PA_with_intermediate	test	ward_and_allport	82	24.0	0.389	to_hand	poldrack-single-stim	s192	False
0.1	266.159	0.427	266.586	0	PA_with_intermediate	test	ward_and_allport	89	24.0	0.427	to_board	poldrack-single-stim	s192	False
1.0	266.594	2.408	266.593	0	PA_with_intermediate	test	ward_and_allport	-1	24.0	n/a	feedback	poldrack-single-stim	s192	False
2.292	269.008	2.292	271.3	1	PA_without_intermediate	test	ward_and_allport	71	25.0	2.292	to_hand	poldrack-single-stim	s192	False
0.1	271.302	0.405	271.707	0	PA_without_intermediate	test	ward_and_allport	82	25.0	0.405	to_board	poldrack-single-stim	s192	False
0.1	271.714	0.416	272.13	0	PA_without_intermediate	test	ward_and_allport	71	25.0	0.416	to_hand	poldrack-single-stim	s192	False
0.1	272.131	0.353	272.484	0	PA_without_intermediate	test	ward_and_allport	82	25.0	0.353	to_board	poldrack-single-stim	s192	False
0.1	272.491	0.351	272.842	0	PA_without_intermediate	test	ward_and_allport	71	25.0	0.351	to_hand	poldrack-single-stim	s192	False
0.1	272.844	0.373	273.217	0	PA_without_intermediate	test	ward_and_allport	89	25.0	0.373	to_board	poldrack-single-stim	s192	False
1.0	273.228	2.68	273.227	0	PA_without_intermediate	test	ward_and_allport	-1	25.0	n/a	feedback	poldrack-single-stim	s192	False
2.652	275.915	2.652	278.567	1	PA_with_intermediate	test	ward_and_allport	89	26.0	2.652	to_hand	poldrack-single-stim	s192	False
0.1	278.568	0.391	278.959	0	PA_with_intermediate	test	ward_and_allport	82	26.0	0.391	to_board	poldrack-single-stim	s192	False
0.1	278.967	0.409	279.376	0	PA_with_intermediate	test	ward_and_allport	89	26.0	0.409	to_hand	poldrack-single-stim	s192	False
0.1	279.377	0.354	279.731	0	PA_with_intermediate	test	ward_and_allport	71	26.0	0.354	to_board	poldrack-single-stim	s192	False
0.1	279.738	0.404	280.142	0	PA_with_intermediate	test	ward_and_allport	82	26.0	0.404	to_hand	poldrack-single-stim	s192	False
0.1	280.143	0.359	280.502	0	PA_with_intermediate	test	ward_and_allport	71	26.0	0.359	to_board	poldrack-single-stim	s192	False
1.0	280.514	4.72	280.513	0	PA_with_intermediate	test	ward_and_allport	-1	26.0	n/a	feedback	poldrack-single-stim	s192	False
2.246	285.241	2.246	287.487	1	PA_without_intermediate	test	ward_and_allport	82	27.0	2.246	to_hand	poldrack-single-stim	s192	False
0.1	287.487	0.365	287.852	0	PA_without_intermediate	test	ward_and_allport	89	27.0	0.365	to_board	poldrack-single-stim	s192	False
0.1	287.859	0.405	288.264	0	PA_without_intermediate	test	ward_and_allport	82	27.0	0.405	to_hand	poldrack-single-stim	s192	False
0.1	288.265	0.379	288.644	0	PA_without_intermediate	test	ward_and_allport	89	27.0	0.379	to_board	poldrack-single-stim	s192	False
0.1	288.651	0.398	289.049	0	PA_without_intermediate	test	ward_and_allport	82	27.0	0.398	to_hand	poldrack-single-stim	s192	False
0.1	289.051	0.368	289.419	0	PA_without_intermediate	test	ward_and_allport	71	27.0	0.368	to_board	poldrack-single-stim	s192	False
1.0	289.427	3.224	289.426	0	PA_without_intermediate	test	ward_and_allport	-1	27.0	n/a	feedback	poldrack-single-stim	s192	False
1.76	292.658	1.76	294.418	1	PA_without_intermediate	test	ward_and_allport	82	28.0	1.76	to_hand	poldrack-single-stim	s192	False
0.1	294.42	0.376	294.796	0	PA_without_intermediate	test	ward_and_allport	89	28.0	0.376	to_board	poldrack-single-stim	s192	False
0.1	294.803	0.651	295.454	0	PA_without_intermediate	test	ward_and_allport	82	28.0	0.651	to_hand	poldrack-single-stim	s192	False
0.1	295.455	0.609	296.064	0	PA_without_intermediate	test	ward_and_allport	71	28.0	0.609	to_board	poldrack-single-stim	s192	False
0.1	296.072	0.436	296.508	0	PA_without_intermediate	test	ward_and_allport	82	28.0	0.436	to_hand	poldrack-single-stim	s192	False
0.1	296.509	0.322	296.831	0	PA_without_intermediate	test	ward_and_allport	89	28.0	0.322	to_board	poldrack-single-stim	s192	False
1.0	296.842	2.272	296.841	0	PA_without_intermediate	test	ward_and_allport	-1	28.0	n/a	feedback	poldrack-single-stim	s192	False
2.192	299.12	2.192	301.312	1	PA_with_intermediate	test	ward_and_allport	82	29.0	2.192	to_hand	poldrack-single-stim	s192	False
0.1	301.314	0.343	301.657	0	PA_with_intermediate	test	ward_and_allport	71	29.0	0.343	to_board	poldrack-single-stim	s192	False
0.1	301.664	0.358	302.022	0	PA_with_intermediate	test	ward_and_allport	82	29.0	0.358	to_hand	poldrack-single-stim	s192	False
0.1	302.024	0.359	302.383	0	PA_with_intermediate	test	ward_and_allport	89	29.0	0.359	to_board	poldrack-single-stim	s192	False
0.1	302.39	0.424	302.814	0	PA_with_intermediate	test	ward_and_allport	71	29.0	0.424	to_hand	poldrack-single-stim	s192	False
0.1	302.815	0.377	303.192	0	PA_with_intermediate	test	ward_and_allport	89	29.0	0.377	to_board	poldrack-single-stim	s192	False
1.0	303.2	3.632	303.199	0	PA_with_intermediate	test	ward_and_allport	-1	29.0	n/a	feedback	poldrack-single-stim	s192	False
2.959	311.843	2.959	314.802	1	PA_without_intermediate	test	ward_and_allport	82	30.0	2.959	to_hand	poldrack-single-stim	s192	False
0.1	314.804	0.332	315.136	0	PA_without_intermediate	test	ward_and_allport	71	30.0	0.332	to_board	poldrack-single-stim	s192	False
0.1	315.144	0.347	315.491	0	PA_without_intermediate	test	ward_and_allport	82	30.0	0.347	to_hand	poldrack-single-stim	s192	False
0.1	315.492	0.383	315.875	0	PA_without_intermediate	test	ward_and_allport	71	30.0	0.383	to_board	poldrack-single-stim	s192	False
0.1	315.884	0.376	316.26	0	PA_without_intermediate	test	ward_and_allport	82	30.0	0.376	to_hand	poldrack-single-stim	s192	False
0.1	316.262	0.348	316.61	0	PA_without_intermediate	test	ward_and_allport	89	30.0	0.348	to_board	poldrack-single-stim	s192	False
1.0	316.62	2.408	316.619	0	PA_without_intermediate	test	ward_and_allport	-1	30.0	n/a	feedback	poldrack-single-stim	s192	False
2.116	319.035	2.116	321.151	1	PA_without_intermediate	test	ward_and_allport	71	31.0	2.116	to_hand	poldrack-single-stim	s192	False
0.1	321.152	0.366	321.518	0	PA_without_intermediate	test	ward_and_allport	82	31.0	0.366	to_board	poldrack-single-stim	s192	False
0.1	321.525	0.291	321.816	0	PA_without_intermediate	test	ward_and_allport	71	31.0	0.291	to_hand	poldrack-single-stim	s192	False
0.1	321.817	0.334	322.151	0	PA_without_intermediate	test	ward_and_allport	89	31.0	0.334	to_board	poldrack-single-stim	s192	False
0.1	322.158	0.343	322.501	0	PA_without_intermediate	test	ward_and_allport	71	31.0	0.343	to_hand	poldrack-single-stim	s192	False
0.1	322.502	0.377	322.879	0	PA_without_intermediate	test	ward_and_allport	82	31.0	0.377	to_board	poldrack-single-stim	s192	False
1.0	322.888	2.0	322.887	0	PA_without_intermediate	test	ward_and_allport	-1	31.0	n/a	feedback	poldrack-single-stim	s192	False
2.128	324.896	2.128	327.024	1	PA_with_intermediate	test	ward_and_allport	71	32.0	2.128	to_hand	poldrack-single-stim	s192	False
0.1	327.025	0.308	327.333	0	PA_with_intermediate	test	ward_and_allport	89	32.0	0.308	to_board	poldrack-single-stim	s192	False
0.1	327.339	0.332	327.671	0	PA_with_intermediate	test	ward_and_allport	71	32.0	0.332	to_hand	poldrack-single-stim	s192	False
0.1	327.673	0.422	328.095	0	PA_with_intermediate	test	ward_and_allport	82	32.0	0.422	to_board	poldrack-single-stim	s192	False
0.1	328.102	0.353	328.455	0	PA_with_intermediate	test	ward_and_allport	89	32.0	0.353	to_hand	poldrack-single-stim	s192	False
0.1	328.456	0.29	328.746	0	PA_with_intermediate	test	ward_and_allport	71	32.0	0.29	to_board	poldrack-single-stim	s192	False
1.0	328.753	2.0	328.752	0	PA_with_intermediate	test	ward_and_allport	-1	32.0	n/a	feedback	poldrack-single-stim	s192	False
2.041	330.759	2.041	332.8	1	PA_with_intermediate	test	ward_and_allport	71	33.0	2.041	to_hand	poldrack-single-stim	s192	False
0.1	332.801	0.424	333.225	0	PA_with_intermediate	test	ward_and_allport	82	33.0	0.424	to_board	poldrack-single-stim	s192	False
0.1	333.231	0.392	333.623	0	PA_with_intermediate	test	ward_and_allport	71	33.0	0.392	to_hand	poldrack-single-stim	s192	False
0.1	333.624	0.349	333.973	0	PA_with_intermediate	test	ward_and_allport	89	33.0	0.349	to_board	poldrack-single-stim	s192	False
0.1	333.982	0.389	334.371	0	PA_with_intermediate	test	ward_and_allport	82	33.0	0.389	to_hand	poldrack-single-stim	s192	False
0.1	334.372	0.271	334.643	0	PA_with_intermediate	test	ward_and_allport	89	33.0	0.271	to_board	poldrack-single-stim	s192	False
1.0	334.654	2.0	334.653	0	PA_with_intermediate	test	ward_and_allport	-1	33.0	n/a	feedback	poldrack-single-stim	s192	False
1.932	336.662	1.932	338.594	1	PA_with_intermediate	test	ward_and_allport	71	34.0	1.932	to_hand	poldrack-single-stim	s192	False
0.1	338.595	0.264	338.859	0	PA_with_intermediate	test	ward_and_allport	82	34.0	0.264	to_board	poldrack-single-stim	s192	False
0.1	338.865	0.352	339.217	0	PA_with_intermediate	test	ward_and_allport	71	34.0	0.352	to_hand	poldrack-single-stim	s192	False
0.1	339.218	0.375	339.593	0	PA_with_intermediate	test	ward_and_allport	89	34.0	0.375	to_board	poldrack-single-stim	s192	False
0.1	339.599	0.41	340.009	0	PA_with_intermediate	test	ward_and_allport	82	34.0	0.41	to_hand	poldrack-single-stim	s192	False
0.1	340.01	0.335	340.345	0	PA_with_intermediate	test	ward_and_allport	71	34.0	0.335	to_board	poldrack-single-stim	s192	False
1.0	340.356	2.408	340.355	0	PA_with_intermediate	test	ward_and_allport	-1	34.0	n/a	feedback	poldrack-single-stim	s192	False
1.762	342.771	1.762	344.533	1	PA_without_intermediate	test	ward_and_allport	89	35.0	1.762	to_hand	poldrack-single-stim	s192	False
0.1	344.535	0.525	345.06	0	PA_without_intermediate	test	ward_and_allport	82	35.0	0.525	to_board	poldrack-single-stim	s192	False
0.1	345.065	0.421	345.486	0	PA_without_intermediate	test	ward_and_allport	89	35.0	0.421	to_hand	poldrack-single-stim	s192	False
0.1	345.487	0.378	345.865	0	PA_without_intermediate	test	ward_and_allport	82	35.0	0.378	to_board	poldrack-single-stim	s192	False
0.1	345.872	0.339	346.211	0	PA_without_intermediate	test	ward_and_allport	89	35.0	0.339	to_hand	poldrack-single-stim	s192	False
0.1	346.212	0.345	346.557	0	PA_without_intermediate	test	ward_and_allport	71	35.0	0.345	to_board	poldrack-single-stim	s192	False
1.0	346.566	2.816	346.565	0	PA_without_intermediate	test	ward_and_allport	-1	35.0	n/a	feedback	poldrack-single-stim	s192	False
2.539	349.389	2.539	351.928	1	PA_with_intermediate	test	ward_and_allport	89	36.0	2.539	to_hand	poldrack-single-stim	s192	False
0.1	351.928	0.263	352.191	0	PA_with_intermediate	test	ward_and_allport	71	36.0	0.263	to_board	poldrack-single-stim	s192	False
0.1	352.201	0.318	352.519	0	PA_with_intermediate	test	ward_and_allport	89	36.0	0.318	to_hand	poldrack-single-stim	s192	False
0.1	352.52	0.338	352.858	0	PA_with_intermediate	test	ward_and_allport	82	36.0	0.338	to_board	poldrack-single-stim	s192	False
0.1	352.868	0.374	353.242	0	PA_with_intermediate	test	ward_and_allport	71	36.0	0.374	to_hand	poldrack-single-stim	s192	False
0.1	353.243	0.331	353.574	0	PA_with_intermediate	test	ward_and_allport	89	36.0	0.331	to_board	poldrack-single-stim	s192	False
1.0	353.586	4.176	353.585	0	PA_with_intermediate	test	ward_and_allport	-1	36.0	n/a	feedback	poldrack-single-stim	s192	False
2.648	357.769	2.648	360.417	1	PA_with_intermediate	test	ward_and_allport	82	37.0	2.648	to_hand	poldrack-single-stim	s192	False
0.1	360.418	0.355	360.773	0	PA_with_intermediate	test	ward_and_allport	71	37.0	0.355	to_board	poldrack-single-stim	s192	False
0.1	360.78	0.353	361.133	0	PA_with_intermediate	test	ward_and_allport	82	37.0	0.353	to_hand	poldrack-single-stim	s192	False
0.1	361.135	0.347	361.482	0	PA_with_intermediate	test	ward_and_allport	89	37.0	0.347	to_board	poldrack-single-stim	s192	False
0.1	361.494	0.51	362.004	0	PA_with_intermediate	test	ward_and_allport	71	37.0	0.51	to_hand	poldrack-single-stim	s192	False
0.1	362.004	0.381	362.385	0	PA_with_intermediate	test	ward_and_allport	82	37.0	0.381	to_board	poldrack-single-stim	s192	False
1.0	362.396	3.36	362.395	0	PA_with_intermediate	test	ward_and_allport	-1	37.0	n/a	feedback	poldrack-single-stim	s192	False
2.146	365.766	2.146	367.912	1	PA_with_intermediate	test	ward_and_allport	82	38.0	2.146	to_hand	poldrack-single-stim	s192	False
0.1	367.912	0.366	368.278	0	PA_with_intermediate	test	ward_and_allport	71	38.0	0.366	to_board	poldrack-single-stim	s192	False
0.1	368.287	0.356	368.643	0	PA_with_intermediate	test	ward_and_allport	82	38.0	0.356	to_hand	poldrack-single-stim	s192	False
0.1	368.645	0.336	368.981	0	PA_with_intermediate	test	ward_and_allport	89	38.0	0.336	to_board	poldrack-single-stim	s192	False
0.1	368.991	0.394	369.385	0	PA_with_intermediate	test	ward_and_allport	71	38.0	0.394	to_hand	poldrack-single-stim	s192	False
0.1	369.386	0.384	369.77	0	PA_with_intermediate	test	ward_and_allport	82	38.0	0.384	to_board	poldrack-single-stim	s192	False
1.0	369.784	2.0	369.783	0	PA_with_intermediate	test	ward_and_allport	-1	38.0	n/a	feedback	poldrack-single-stim	s192	False
2.243	371.792	2.243	374.035	1	PA_without_intermediate	test	ward_and_allport	89	39.0	2.243	to_hand	poldrack-single-stim	s192	False
0.1	374.036	0.308	374.344	0	PA_without_intermediate	test	ward_and_allport	82	39.0	0.308	to_board	poldrack-single-stim	s192	False
0.1	374.351	0.368	374.719	0	PA_without_intermediate	test	ward_and_allport	89	39.0	0.368	to_hand	poldrack-single-stim	s192	False
0.1	374.719	0.335	375.054	0	PA_without_intermediate	test	ward_and_allport	71	39.0	0.335	to_board	poldrack-single-stim	s192	False
0.1	375.061	0.303	375.364	0	PA_without_intermediate	test	ward_and_allport	89	39.0	0.303	to_hand	poldrack-single-stim	s192	False
0.1	375.365	0.415	375.78	0	PA_without_intermediate	test	ward_and_allport	82	39.0	0.415	to_board	poldrack-single-stim	s192	False
1.0	375.791	2.408	375.79	0	PA_without_intermediate	test	ward_and_allport	-1	39.0	n/a	feedback	poldrack-single-stim	s192	False
1.936	378.207	1.936	380.143	1	PA_with_intermediate	test	ward_and_allport	89	40.0	1.936	to_hand	poldrack-single-stim	s192	False
0.1	380.144	0.329	380.473	0	PA_with_intermediate	test	ward_and_allport	71	40.0	0.329	to_board	poldrack-single-stim	s192	False
0.1	380.48	0.317	380.797	0	PA_with_intermediate	test	ward_and_allport	89	40.0	0.317	to_hand	poldrack-single-stim	s192	False
0.1	380.798	0.367	381.165	0	PA_with_intermediate	test	ward_and_allport	82	40.0	0.367	to_board	poldrack-single-stim	s192	False
0.1	381.172	0.35	381.522	0	PA_with_intermediate	test	ward_and_allport	71	40.0	0.35	to_hand	poldrack-single-stim	s192	False
0.1	381.523	0.285	381.808	0	PA_with_intermediate	test	ward_and_allport	82	40.0	0.285	to_board	poldrack-single-stim	s192	False
1.0	381.816	2.816	381.815	0	PA_with_intermediate	test	ward_and_allport	-1	40.0	n/a	feedback	poldrack-single-stim	s192	False
1.916	384.64	1.916	386.556	1	PA_without_intermediate	test	ward_and_allport	71	41.0	1.916	to_hand	poldrack-single-stim	s192	False
0.1	386.557	0.288	386.845	0	PA_without_intermediate	test	ward_and_allport	89	41.0	0.288	to_board	poldrack-single-stim	s192	False
0.1	386.852	0.333	387.185	0	PA_without_intermediate	test	ward_and_allport	71	41.0	0.333	to_hand	poldrack-single-stim	s192	False
0.1	387.186	0.385	387.571	0	PA_without_intermediate	test	ward_and_allport	82	41.0	0.385	to_board	poldrack-single-stim	s192	False
0.1	387.581	0.297	387.878	0	PA_without_intermediate	test	ward_and_allport	71	41.0	0.297	to_hand	poldrack-single-stim	s192	False
0.1	387.878	0.35	388.228	0	PA_without_intermediate	test	ward_and_allport	89	41.0	0.35	to_board	poldrack-single-stim	s192	False
1.0	388.241	3.088	388.24	0	PA_without_intermediate	test	ward_and_allport	-1	41.0	n/a	feedback	poldrack-single-stim	s192	False
1.665	391.339	1.665	393.004	1	PA_without_intermediate	test	ward_and_allport	71	42.0	1.665	to_hand	poldrack-single-stim	s192	False
0.1	393.004	0.339	393.343	0	PA_without_intermediate	test	ward_and_allport	89	42.0	0.339	to_board	poldrack-single-stim	s192	False
0.1	393.351	0.33	393.681	0	PA_without_intermediate	test	ward_and_allport	71	42.0	0.33	to_hand	poldrack-single-stim	s192	False
0.1	393.682	0.331	394.013	0	PA_without_intermediate	test	ward_and_allport	89	42.0	0.331	to_board	poldrack-single-stim	s192	False
0.1	394.022	0.304	394.326	0	PA_without_intermediate	test	ward_and_allport	71	42.0	0.304	to_hand	poldrack-single-stim	s192	False
0.1	394.328	0.526	394.854	0	PA_without_intermediate	test	ward_and_allport	82	42.0	0.526	to_board	poldrack-single-stim	s192	False
1.0	394.865	2.136	394.864	0	PA_without_intermediate	test	ward_and_allport	-1	42.0	n/a	feedback	poldrack-single-stim	s192	False
1.902	397.008	1.902	398.91	1	PA_without_intermediate	test	ward_and_allport	89	43.0	1.902	to_hand	poldrack-single-stim	s192	False
0.1	398.912	0.341	399.253	0	PA_without_intermediate	test	ward_and_allport	71	43.0	0.341	to_board	poldrack-single-stim	s192	False
0.1	399.26	0.355	399.615	0	PA_without_intermediate	test	ward_and_allport	89	43.0	0.355	to_hand	poldrack-single-stim	s192	False
0.1	399.616	0.336	399.952	0	PA_without_intermediate	test	ward_and_allport	71	43.0	0.336	to_board	poldrack-single-stim	s192	False
0.1	399.959	0.319	400.278	0	PA_without_intermediate	test	ward_and_allport	89	43.0	0.319	to_hand	poldrack-single-stim	s192	False
0.1	400.28	0.337	400.617	0	PA_without_intermediate	test	ward_and_allport	82	43.0	0.337	to_board	poldrack-single-stim	s192	False
1.0	400.626	7.168	400.625	0	PA_without_intermediate	test	ward_and_allport	-1	43.0	n/a	feedback	poldrack-single-stim	s192	False
2.333	407.803	2.333	410.136	1	PA_without_intermediate	test	ward_and_allport	82	44.0	2.333	to_hand	poldrack-single-stim	s192	False
0.1	410.137	0.333	410.47	0	PA_without_intermediate	test	ward_and_allport	89	44.0	0.333	to_board	poldrack-single-stim	s192	False
0.1	410.48	0.854	411.334	0	PA_without_intermediate	test	ward_and_allport	82	44.0	0.854	to_hand	poldrack-single-stim	s192	False
0.1	411.335	0.297	411.632	0	PA_without_intermediate	test	ward_and_allport	71	44.0	0.297	to_board	poldrack-single-stim	s192	False
0.1	411.644	0.294	411.938	0	PA_without_intermediate	test	ward_and_allport	82	44.0	0.294	to_hand	poldrack-single-stim	s192	False
0.1	411.939	0.275	412.214	0	PA_without_intermediate	test	ward_and_allport	89	44.0	0.275	to_board	poldrack-single-stim	s192	False
1.0	412.228	2.816	412.227	0	PA_without_intermediate	test	ward_and_allport	-1	44.0	n/a	feedback	poldrack-single-stim	s192	False
2.08	420.059	2.08	422.139	1	PA_with_intermediate	test	ward_and_allport	89	45.0	2.08	to_hand	poldrack-single-stim	s192	False
0.1	422.141	0.323	422.464	0	PA_with_intermediate	test	ward_and_allport	82	45.0	0.323	to_board	poldrack-single-stim	s192	False
0.1	422.475	0.343	422.818	0	PA_with_intermediate	test	ward_and_allport	89	45.0	0.343	to_hand	poldrack-single-stim	s192	False
0.1	422.819	0.355	423.174	0	PA_with_intermediate	test	ward_and_allport	71	45.0	0.355	to_board	poldrack-single-stim	s192	False
0.1	423.185	0.454	423.639	0	PA_with_intermediate	test	ward_and_allport	82	45.0	0.454	to_hand	poldrack-single-stim	s192	False
0.1	423.641	0.317	423.958	0	PA_with_intermediate	test	ward_and_allport	71	45.0	0.317	to_board	poldrack-single-stim	s192	False
1.0	423.97	2.952	423.969	0	PA_with_intermediate	test	ward_and_allport	-1	45.0	n/a	feedback	poldrack-single-stim	s192	False
2.018	426.933	2.018	428.951	1	PA_with_intermediate	test	ward_and_allport	71	46.0	2.018	to_hand	poldrack-single-stim	s192	False
0.1	428.953	0.264	429.217	0	PA_with_intermediate	test	ward_and_allport	89	46.0	0.264	to_board	poldrack-single-stim	s192	False
0.1	429.225	0.337	429.562	0	PA_with_intermediate	test	ward_and_allport	71	46.0	0.337	to_hand	poldrack-single-stim	s192	False
0.1	429.562	0.323	429.885	0	PA_with_intermediate	test	ward_and_allport	82	46.0	0.323	to_board	poldrack-single-stim	s192	False
0.1	429.895	0.347	430.242	0	PA_with_intermediate	test	ward_and_allport	71	46.0	0.347	to_hand	poldrack-single-stim	s192	False
0.1	430.243	0.878	431.121	0	PA_with_intermediate	test	ward_and_allport	71	46.0	0.878	to_board	poldrack-single-stim	s192	False
0.1	431.131	0.345	431.476	0	PA_with_intermediate	test	ward_and_allport	89	46.0	0.345	to_hand	poldrack-single-stim	s192	False
0.1	431.477	0.492	431.969	0	PA_with_intermediate	test	ward_and_allport	82	46.0	0.492	to_board	poldrack-single-stim	s192	False
1.0	431.981	2.136	431.98	0	PA_with_intermediate	test	ward_and_allport	-1	46.0	n/a	feedback	poldrack-single-stim	s192	False
2.392	434.126	2.392	436.518	1	PA_without_intermediate	test	ward_and_allport	89	47.0	2.392	to_hand	poldrack-single-stim	s192	False
0.1	436.519	0.307	436.826	0	PA_without_intermediate	test	ward_and_allport	71	47.0	0.307	to_board	poldrack-single-stim	s192	False
0.1	436.834	0.356	437.19	0	PA_without_intermediate	test	ward_and_allport	89	47.0	0.356	to_hand	poldrack-single-stim	s192	False
0.1	437.192	0.304	437.496	0	PA_without_intermediate	test	ward_and_allport	71	47.0	0.304	to_board	poldrack-single-stim	s192	False
0.1	437.507	0.305	437.812	0	PA_without_intermediate	test	ward_and_allport	89	47.0	0.305	to_hand	poldrack-single-stim	s192	False
0.1	437.813	0.413	438.226	0	PA_without_intermediate	test	ward_and_allport	82	47.0	0.413	to_board	poldrack-single-stim	s192	False
1.0	438.234	2.68	438.233	0	PA_without_intermediate	test	ward_and_allport	-1	47.0	n/a	feedback	poldrack-single-stim	s192	False
