duration	onset	block_duration	movement_onset	planning	condition	exp_stage	experiment_exp_id	key_press	problem_id	response_time	trial_id	trial_type	worker_id	junk
4.509	3.009	4.509	7.518	1	UA_with_intermediate	practice	ward_and_allport	71	0.0	4.509	to_hand	poldrack-single-stim	s234	False
0.1	7.519	0.89	8.409	0	UA_with_intermediate	practice	ward_and_allport	71	0.0	0.89	to_board	poldrack-single-stim	s234	False
0.1	8.412	0.477	8.889	0	UA_with_intermediate	practice	ward_and_allport	71	0.0	0.477	to_hand	poldrack-single-stim	s234	False
0.1	8.89	0.633	9.523	0	UA_with_intermediate	practice	ward_and_allport	82	0.0	0.633	to_board	poldrack-single-stim	s234	False
0.1	9.524	0.717	10.241	0	UA_with_intermediate	practice	ward_and_allport	71	0.0	0.717	to_hand	poldrack-single-stim	s234	False
0.1	10.242	0.918	11.16	0	UA_with_intermediate	practice	ward_and_allport	89	0.0	0.918	to_board	poldrack-single-stim	s234	False
0.1	11.162	0.776	11.938	0	UA_with_intermediate	practice	ward_and_allport	82	0.0	0.776	to_hand	poldrack-single-stim	s234	False
0.1	11.939	0.579	12.518	0	UA_with_intermediate	practice	ward_and_allport	89	0.0	0.579	to_board	poldrack-single-stim	s234	False
1.0	12.521	2.5	12.52	0	UA_with_intermediate	practice	ward_and_allport	-1	0.0	n/a	feedback	poldrack-single-stim	s234	False
4.713	15.023	4.713	19.736	1	UA_with_intermediate	practice	ward_and_allport	89	1.0	4.713	to_hand	poldrack-single-stim	s234	False
0.1	19.736	0.534	20.27	0	UA_with_intermediate	practice	ward_and_allport	82	1.0	0.534	to_board	poldrack-single-stim	s234	False
0.1	20.271	0.742	21.013	0	UA_with_intermediate	practice	ward_and_allport	71	1.0	0.742	to_hand	poldrack-single-stim	s234	False
0.1	21.014	0.379	21.393	0	UA_with_intermediate	practice	ward_and_allport	89	1.0	0.379	to_board	poldrack-single-stim	s234	False
0.1	21.395	0.651	22.046	0	UA_with_intermediate	practice	ward_and_allport	82	1.0	0.651	to_hand	poldrack-single-stim	s234	False
0.1	22.046	0.306	22.352	0	UA_with_intermediate	practice	ward_and_allport	89	1.0	0.306	to_board	poldrack-single-stim	s234	False
1.0	22.355	2.1	22.354	0	UA_with_intermediate	practice	ward_and_allport	-1	1.0	n/a	feedback	poldrack-single-stim	s234	False
2.843	24.456	2.843	27.299	1	UA_without_intermediate	practice	ward_and_allport	82	2.0	2.843	to_hand	poldrack-single-stim	s234	False
0.1	27.3	0.348	27.648	0	UA_without_intermediate	practice	ward_and_allport	89	2.0	0.348	to_board	poldrack-single-stim	s234	False
0.1	27.652	0.671	28.323	0	UA_without_intermediate	practice	ward_and_allport	71	2.0	0.671	to_hand	poldrack-single-stim	s234	False
0.1	28.323	0.353	28.676	0	UA_without_intermediate	practice	ward_and_allport	89	2.0	0.353	to_board	poldrack-single-stim	s234	False
0.1	28.678	0.641	29.319	0	UA_without_intermediate	practice	ward_and_allport	71	2.0	0.641	to_hand	poldrack-single-stim	s234	False
0.1	29.32	0.299	29.619	0	UA_without_intermediate	practice	ward_and_allport	89	2.0	0.299	to_board	poldrack-single-stim	s234	False
1.0	29.622	2.2	29.621	0	UA_without_intermediate	practice	ward_and_allport	-1	2.0	n/a	feedback	poldrack-single-stim	s234	False
2.142	31.823	2.142	33.965	1	UA_without_intermediate	practice	ward_and_allport	71	3.0	2.142	to_hand	poldrack-single-stim	s234	False
0.1	33.967	0.411	34.378	0	UA_without_intermediate	practice	ward_and_allport	89	3.0	0.411	to_board	poldrack-single-stim	s234	False
0.1	34.381	0.868	35.249	0	UA_without_intermediate	practice	ward_and_allport	82	3.0	0.868	to_hand	poldrack-single-stim	s234	False
0.1	35.249	0.377	35.626	0	UA_without_intermediate	practice	ward_and_allport	89	3.0	0.377	to_board	poldrack-single-stim	s234	False
0.1	35.628	0.44	36.068	0	UA_without_intermediate	practice	ward_and_allport	71	3.0	0.44	to_hand	poldrack-single-stim	s234	False
0.1	36.069	0.292	36.361	0	UA_without_intermediate	practice	ward_and_allport	89	3.0	0.292	to_board	poldrack-single-stim	s234	False
1.0	36.364	2.0	36.363	0	UA_without_intermediate	practice	ward_and_allport	-1	3.0	n/a	feedback	poldrack-single-stim	s234	False
5.061	40.371	5.061	45.432	1	PA_with_intermediate	test	ward_and_allport	89	0.0	5.061	to_hand	poldrack-single-stim	s234	False
0.1	45.433	0.412	45.845	0	PA_with_intermediate	test	ward_and_allport	82	0.0	0.412	to_board	poldrack-single-stim	s234	False
0.1	45.847	5.163	51.01	0	PA_with_intermediate	test	ward_and_allport	89	0.0	5.163	to_hand	poldrack-single-stim	s234	False
0.1	51.011	0.471	51.482	0	PA_with_intermediate	test	ward_and_allport	71	0.0	0.471	to_board	poldrack-single-stim	s234	False
0.1	51.484	0.474	51.958	0	PA_with_intermediate	test	ward_and_allport	82	0.0	0.474	to_hand	poldrack-single-stim	s234	False
0.1	51.959	0.259	52.218	0	PA_with_intermediate	test	ward_and_allport	89	0.0	0.259	to_board	poldrack-single-stim	s234	False
1.0	52.221	4.176	52.22	0	PA_with_intermediate	test	ward_and_allport	-1	0.0	n/a	feedback	poldrack-single-stim	s234	False
3.237	56.398	3.237	59.635	1	PA_with_intermediate	test	ward_and_allport	82	1.0	3.237	to_hand	poldrack-single-stim	s234	False
0.1	59.636	0.514	60.15	0	PA_with_intermediate	test	ward_and_allport	89	1.0	0.514	to_board	poldrack-single-stim	s234	False
0.1	60.152	1.76	61.912	0	PA_with_intermediate	test	ward_and_allport	82	1.0	1.76	to_hand	poldrack-single-stim	s234	False
0.1	61.914	0.495	62.409	0	PA_with_intermediate	test	ward_and_allport	71	1.0	0.495	to_board	poldrack-single-stim	s234	False
0.1	62.41	0.704	63.114	0	PA_with_intermediate	test	ward_and_allport	89	1.0	0.704	to_hand	poldrack-single-stim	s234	False
0.1	63.114	0.432	63.546	0	PA_with_intermediate	test	ward_and_allport	71	1.0	0.432	to_board	poldrack-single-stim	s234	False
1.0	63.549	3.36	63.548	0	PA_with_intermediate	test	ward_and_allport	-1	1.0	n/a	feedback	poldrack-single-stim	s234	False
2.156	66.912	2.156	69.068	1	PA_with_intermediate	test	ward_and_allport	71	2.0	2.156	to_hand	poldrack-single-stim	s234	False
0.1	69.069	0.492	69.561	0	PA_with_intermediate	test	ward_and_allport	82	2.0	0.492	to_board	poldrack-single-stim	s234	False
0.1	69.564	0.858	70.422	0	PA_with_intermediate	test	ward_and_allport	71	2.0	0.858	to_hand	poldrack-single-stim	s234	False
0.1	70.423	0.327	70.75	0	PA_with_intermediate	test	ward_and_allport	89	2.0	0.327	to_board	poldrack-single-stim	s234	False
0.1	70.753	0.486	71.239	0	PA_with_intermediate	test	ward_and_allport	82	2.0	0.486	to_hand	poldrack-single-stim	s234	False
0.1	71.239	0.365	71.604	0	PA_with_intermediate	test	ward_and_allport	89	2.0	0.365	to_board	poldrack-single-stim	s234	False
1.0	71.608	2.0	71.607	0	PA_with_intermediate	test	ward_and_allport	-1	2.0	n/a	feedback	poldrack-single-stim	s234	False
1.321	73.611	1.321	74.932	1	PA_without_intermediate	test	ward_and_allport	82	3.0	1.321	to_hand	poldrack-single-stim	s234	False
0.1	74.933	0.372	75.305	0	PA_without_intermediate	test	ward_and_allport	89	3.0	0.372	to_board	poldrack-single-stim	s234	False
0.1	75.308	1.572	76.88	0	PA_without_intermediate	test	ward_and_allport	82	3.0	1.572	to_hand	poldrack-single-stim	s234	False
0.1	76.881	0.442	77.323	0	PA_without_intermediate	test	ward_and_allport	89	3.0	0.442	to_board	poldrack-single-stim	s234	False
0.1	77.325	0.549	77.874	0	PA_without_intermediate	test	ward_and_allport	82	3.0	0.549	to_hand	poldrack-single-stim	s234	False
0.1	77.875	0.309	78.184	0	PA_without_intermediate	test	ward_and_allport	71	3.0	0.309	to_board	poldrack-single-stim	s234	False
1.0	78.188	2.408	78.187	0	PA_without_intermediate	test	ward_and_allport	-1	3.0	n/a	feedback	poldrack-single-stim	s234	False
2.133	80.599	2.133	82.732	1	PA_with_intermediate	test	ward_and_allport	89	4.0	2.133	to_hand	poldrack-single-stim	s234	False
0.1	82.733	0.431	83.164	0	PA_with_intermediate	test	ward_and_allport	82	4.0	0.431	to_board	poldrack-single-stim	s234	False
0.1	83.166	0.667	83.833	0	PA_with_intermediate	test	ward_and_allport	89	4.0	0.667	to_hand	poldrack-single-stim	s234	False
0.1	83.835	0.374	84.209	0	PA_with_intermediate	test	ward_and_allport	71	4.0	0.374	to_board	poldrack-single-stim	s234	False
0.1	84.212	0.353	84.565	0	PA_with_intermediate	test	ward_and_allport	82	4.0	0.353	to_hand	poldrack-single-stim	s234	False
0.1	84.565	0.404	84.969	0	PA_with_intermediate	test	ward_and_allport	71	4.0	0.404	to_board	poldrack-single-stim	s234	False
1.0	84.973	2.816	84.972	0	PA_with_intermediate	test	ward_and_allport	-1	4.0	n/a	feedback	poldrack-single-stim	s234	False
1.626	87.793	1.626	89.419	1	PA_without_intermediate	test	ward_and_allport	71	5.0	1.626	to_hand	poldrack-single-stim	s234	False
0.1	89.42	0.49	89.91	0	PA_without_intermediate	test	ward_and_allport	89	5.0	0.49	to_board	poldrack-single-stim	s234	False
0.1	89.913	0.777	90.69	0	PA_without_intermediate	test	ward_and_allport	71	5.0	0.777	to_hand	poldrack-single-stim	s234	False
0.1	90.691	0.419	91.11	0	PA_without_intermediate	test	ward_and_allport	82	5.0	0.419	to_board	poldrack-single-stim	s234	False
0.1	91.112	0.469	91.581	0	PA_without_intermediate	test	ward_and_allport	71	5.0	0.469	to_hand	poldrack-single-stim	s234	False
0.1	91.582	0.383	91.965	0	PA_without_intermediate	test	ward_and_allport	89	5.0	0.383	to_board	poldrack-single-stim	s234	False
1.0	91.969	3.088	91.968	0	PA_without_intermediate	test	ward_and_allport	-1	5.0	n/a	feedback	poldrack-single-stim	s234	False
1.404	95.06	1.404	96.464	1	PA_without_intermediate	test	ward_and_allport	89	6.0	1.404	to_hand	poldrack-single-stim	s234	False
0.1	96.466	0.474	96.94	0	PA_without_intermediate	test	ward_and_allport	82	6.0	0.474	to_board	poldrack-single-stim	s234	False
0.1	96.943	1.127	98.07	0	PA_without_intermediate	test	ward_and_allport	89	6.0	1.127	to_hand	poldrack-single-stim	s234	False
0.1	98.07	0.334	98.404	0	PA_without_intermediate	test	ward_and_allport	71	6.0	0.334	to_board	poldrack-single-stim	s234	False
0.1	98.408	0.621	99.029	0	PA_without_intermediate	test	ward_and_allport	89	6.0	0.621	to_hand	poldrack-single-stim	s234	False
0.1	99.029	0.293	99.322	0	PA_without_intermediate	test	ward_and_allport	82	6.0	0.293	to_board	poldrack-single-stim	s234	False
1.0	99.326	2.136	99.325	0	PA_without_intermediate	test	ward_and_allport	-1	6.0	n/a	feedback	poldrack-single-stim	s234	False
1.306	101.466	1.306	102.772	1	PA_without_intermediate	test	ward_and_allport	71	7.0	1.306	to_hand	poldrack-single-stim	s234	False
0.1	102.772	0.365	103.137	0	PA_without_intermediate	test	ward_and_allport	89	7.0	0.365	to_board	poldrack-single-stim	s234	False
0.1	103.14	0.456	103.596	0	PA_without_intermediate	test	ward_and_allport	71	7.0	0.456	to_hand	poldrack-single-stim	s234	False
0.1	103.597	0.3	103.897	0	PA_without_intermediate	test	ward_and_allport	89	7.0	0.3	to_board	poldrack-single-stim	s234	False
0.1	103.901	0.423	104.324	0	PA_without_intermediate	test	ward_and_allport	71	7.0	0.423	to_hand	poldrack-single-stim	s234	False
0.1	104.324	0.294	104.618	0	PA_without_intermediate	test	ward_and_allport	82	7.0	0.294	to_board	poldrack-single-stim	s234	False
1.0	104.622	7.168	104.621	0	PA_without_intermediate	test	ward_and_allport	-1	7.0	n/a	feedback	poldrack-single-stim	s234	False
1.287	111.794	1.287	113.081	1	PA_without_intermediate	test	ward_and_allport	71	8.0	1.287	to_hand	poldrack-single-stim	s234	False
0.1	113.083	0.293	113.376	0	PA_without_intermediate	test	ward_and_allport	89	8.0	0.293	to_board	poldrack-single-stim	s234	False
0.1	113.379	0.459	113.838	0	PA_without_intermediate	test	ward_and_allport	71	8.0	0.459	to_hand	poldrack-single-stim	s234	False
0.1	113.839	0.291	114.13	0	PA_without_intermediate	test	ward_and_allport	82	8.0	0.291	to_board	poldrack-single-stim	s234	False
0.1	114.133	0.364	114.497	0	PA_without_intermediate	test	ward_and_allport	71	8.0	0.364	to_hand	poldrack-single-stim	s234	False
0.1	114.498	0.241	114.739	0	PA_without_intermediate	test	ward_and_allport	89	8.0	0.241	to_board	poldrack-single-stim	s234	False
1.0	114.744	2.816	114.743	0	PA_without_intermediate	test	ward_and_allport	-1	8.0	n/a	feedback	poldrack-single-stim	s234	False
3.471	117.564	3.471	121.035	1	PA_with_intermediate	test	ward_and_allport	82	9.0	3.471	to_hand	poldrack-single-stim	s234	False
0.1	121.036	0.357	121.393	0	PA_with_intermediate	test	ward_and_allport	89	9.0	0.357	to_board	poldrack-single-stim	s234	False
0.1	121.396	1.243	122.639	0	PA_with_intermediate	test	ward_and_allport	82	9.0	1.243	to_hand	poldrack-single-stim	s234	False
0.1	122.64	0.276	122.916	0	PA_with_intermediate	test	ward_and_allport	71	9.0	0.276	to_board	poldrack-single-stim	s234	False
0.1	122.92	0.419	123.339	0	PA_with_intermediate	test	ward_and_allport	89	9.0	0.419	to_hand	poldrack-single-stim	s234	False
0.1	123.339	0.237	123.576	0	PA_with_intermediate	test	ward_and_allport	82	9.0	0.237	to_board	poldrack-single-stim	s234	False
1.0	123.58	2.952	123.579	0	PA_with_intermediate	test	ward_and_allport	-1	9.0	n/a	feedback	poldrack-single-stim	s234	False
2.21	126.536	2.21	128.746	1	PA_with_intermediate	test	ward_and_allport	82	10.0	2.21	to_hand	poldrack-single-stim	s234	False
0.1	128.748	0.411	129.159	0	PA_with_intermediate	test	ward_and_allport	89	10.0	0.411	to_board	poldrack-single-stim	s234	False
0.1	129.162	0.536	129.698	0	PA_with_intermediate	test	ward_and_allport	82	10.0	0.536	to_hand	poldrack-single-stim	s234	False
0.1	129.7	0.338	130.038	0	PA_with_intermediate	test	ward_and_allport	71	10.0	0.338	to_board	poldrack-single-stim	s234	False
0.1	130.042	0.455	130.497	0	PA_with_intermediate	test	ward_and_allport	89	10.0	0.455	to_hand	poldrack-single-stim	s234	False
0.1	130.497	0.319	130.816	0	PA_with_intermediate	test	ward_and_allport	82	10.0	0.319	to_board	poldrack-single-stim	s234	False
1.0	130.823	2.136	130.822	0	PA_with_intermediate	test	ward_and_allport	-1	10.0	n/a	feedback	poldrack-single-stim	s234	False
1.892	132.964	1.892	134.856	1	PA_without_intermediate	test	ward_and_allport	89	11.0	1.892	to_hand	poldrack-single-stim	s234	False
0.1	134.857	0.44	135.297	0	PA_without_intermediate	test	ward_and_allport	71	11.0	0.44	to_board	poldrack-single-stim	s234	False
0.1	135.301	0.658	135.959	0	PA_without_intermediate	test	ward_and_allport	89	11.0	0.658	to_hand	poldrack-single-stim	s234	False
0.1	135.96	0.302	136.262	0	PA_without_intermediate	test	ward_and_allport	71	11.0	0.302	to_board	poldrack-single-stim	s234	False
0.1	136.266	0.344	136.61	0	PA_without_intermediate	test	ward_and_allport	89	11.0	0.344	to_hand	poldrack-single-stim	s234	False
0.1	136.612	0.262	136.874	0	PA_without_intermediate	test	ward_and_allport	82	11.0	0.262	to_board	poldrack-single-stim	s234	False
1.0	136.879	2.68	136.878	0	PA_without_intermediate	test	ward_and_allport	-1	11.0	n/a	feedback	poldrack-single-stim	s234	False
0.85	139.563	0.85	140.413	1	PA_without_intermediate	test	ward_and_allport	89	12.0	0.85	to_hand	poldrack-single-stim	s234	False
0.1	140.414	0.237	140.651	0	PA_without_intermediate	test	ward_and_allport	82	12.0	0.237	to_board	poldrack-single-stim	s234	False
0.1	140.656	1.435	142.091	0	PA_without_intermediate	test	ward_and_allport	89	12.0	1.435	to_hand	poldrack-single-stim	s234	False
0.1	142.092	0.398	142.49	0	PA_without_intermediate	test	ward_and_allport	82	12.0	0.398	to_board	poldrack-single-stim	s234	False
0.1	142.494	0.435	142.929	0	PA_without_intermediate	test	ward_and_allport	89	12.0	0.435	to_hand	poldrack-single-stim	s234	False
0.1	142.93	0.361	143.291	0	PA_without_intermediate	test	ward_and_allport	71	12.0	0.361	to_board	poldrack-single-stim	s234	False
1.0	143.296	3.088	143.295	0	PA_without_intermediate	test	ward_and_allport	-1	12.0	n/a	feedback	poldrack-single-stim	s234	False
1.32	146.388	1.32	147.708	1	PA_with_intermediate	test	ward_and_allport	82	13.0	1.32	to_hand	poldrack-single-stim	s234	False
0.1	147.709	0.813	148.522	0	PA_with_intermediate	test	ward_and_allport	71	13.0	0.813	to_board	poldrack-single-stim	s234	False
0.1	148.526	0.322	148.848	0	PA_with_intermediate	test	ward_and_allport	82	13.0	0.322	to_hand	poldrack-single-stim	s234	False
0.1	148.85	0.245	149.095	0	PA_with_intermediate	test	ward_and_allport	89	13.0	0.245	to_board	poldrack-single-stim	s234	False
0.1	149.099	0.572	149.671	0	PA_with_intermediate	test	ward_and_allport	71	13.0	0.572	to_hand	poldrack-single-stim	s234	False
0.1	149.672	0.305	149.977	0	PA_with_intermediate	test	ward_and_allport	82	13.0	0.305	to_board	poldrack-single-stim	s234	False
1.0	149.982	2.0	149.981	0	PA_with_intermediate	test	ward_and_allport	-1	13.0	n/a	feedback	poldrack-single-stim	s234	False
0.966	151.986	0.966	152.952	1	PA_without_intermediate	test	ward_and_allport	82	14.0	0.966	to_hand	poldrack-single-stim	s234	False
0.1	152.953	0.213	153.166	0	PA_without_intermediate	test	ward_and_allport	89	14.0	0.213	to_board	poldrack-single-stim	s234	False
0.1	153.171	1.119	154.29	0	PA_without_intermediate	test	ward_and_allport	82	14.0	1.119	to_hand	poldrack-single-stim	s234	False
0.1	154.29	0.212	154.502	0	PA_without_intermediate	test	ward_and_allport	89	14.0	0.212	to_board	poldrack-single-stim	s234	False
0.1	154.506	1.609	156.115	0	PA_without_intermediate	test	ward_and_allport	82	14.0	1.609	to_hand	poldrack-single-stim	s234	False
0.1	156.116	0.295	156.411	0	PA_without_intermediate	test	ward_and_allport	71	14.0	0.295	to_board	poldrack-single-stim	s234	False
1.0	156.416	2.0	156.415	0	PA_without_intermediate	test	ward_and_allport	-1	14.0	n/a	feedback	poldrack-single-stim	s234	False
1.777	163.422	1.777	165.199	1	PA_without_intermediate	test	ward_and_allport	89	15.0	1.777	to_hand	poldrack-single-stim	s234	False
0.1	165.2	0.283	165.483	0	PA_without_intermediate	test	ward_and_allport	71	15.0	0.283	to_board	poldrack-single-stim	s234	False
0.1	165.487	0.553	166.04	0	PA_without_intermediate	test	ward_and_allport	89	15.0	0.553	to_hand	poldrack-single-stim	s234	False
0.1	166.041	0.237	166.278	0	PA_without_intermediate	test	ward_and_allport	82	15.0	0.237	to_board	poldrack-single-stim	s234	False
0.1	166.282	0.379	166.661	0	PA_without_intermediate	test	ward_and_allport	89	15.0	0.379	to_hand	poldrack-single-stim	s234	False
0.1	166.663	0.25	166.913	0	PA_without_intermediate	test	ward_and_allport	82	15.0	0.25	to_board	poldrack-single-stim	s234	False
0.1	166.917	0.807	167.724	0	PA_without_intermediate	test	ward_and_allport	82	15.0	0.807	to_hand	poldrack-single-stim	s234	False
0.1	167.725	0.313	168.038	0	PA_without_intermediate	test	ward_and_allport	71	15.0	0.313	to_board	poldrack-single-stim	s234	False
1.0	168.043	2.0	168.042	0	PA_without_intermediate	test	ward_and_allport	-1	15.0	n/a	feedback	poldrack-single-stim	s234	False
4.331	170.046	4.331	174.377	1	PA_with_intermediate	test	ward_and_allport	71	16.0	4.331	to_hand	poldrack-single-stim	s234	False
0.1	174.378	0.329	174.707	0	PA_with_intermediate	test	ward_and_allport	89	16.0	0.329	to_board	poldrack-single-stim	s234	False
0.1	174.713	0.52	175.233	0	PA_with_intermediate	test	ward_and_allport	71	16.0	0.52	to_hand	poldrack-single-stim	s234	False
0.1	175.234	0.32	175.554	0	PA_with_intermediate	test	ward_and_allport	82	16.0	0.32	to_board	poldrack-single-stim	s234	False
0.1	175.557	0.377	175.934	0	PA_with_intermediate	test	ward_and_allport	89	16.0	0.377	to_hand	poldrack-single-stim	s234	False
0.1	175.936	0.337	176.273	0	PA_with_intermediate	test	ward_and_allport	71	16.0	0.337	to_board	poldrack-single-stim	s234	False
1.0	176.278	2.544	176.277	0	PA_with_intermediate	test	ward_and_allport	-1	16.0	n/a	feedback	poldrack-single-stim	s234	False
1.276	178.827	1.276	180.103	1	PA_without_intermediate	test	ward_and_allport	71	17.0	1.276	to_hand	poldrack-single-stim	s234	False
0.1	180.105	0.329	180.434	0	PA_without_intermediate	test	ward_and_allport	82	17.0	0.329	to_board	poldrack-single-stim	s234	False
0.1	180.438	0.441	180.879	0	PA_without_intermediate	test	ward_and_allport	71	17.0	0.441	to_hand	poldrack-single-stim	s234	False
0.1	180.881	0.285	181.166	0	PA_without_intermediate	test	ward_and_allport	89	17.0	0.285	to_board	poldrack-single-stim	s234	False
0.1	181.17	0.413	181.583	0	PA_without_intermediate	test	ward_and_allport	71	17.0	0.413	to_hand	poldrack-single-stim	s234	False
0.1	181.584	0.28	181.864	0	PA_without_intermediate	test	ward_and_allport	82	17.0	0.28	to_board	poldrack-single-stim	s234	False
1.0	181.87	2.272	181.869	0	PA_without_intermediate	test	ward_and_allport	-1	17.0	n/a	feedback	poldrack-single-stim	s234	False
1.392	184.148	1.392	185.54	1	PA_with_intermediate	test	ward_and_allport	89	18.0	1.392	to_hand	poldrack-single-stim	s234	False
0.1	185.54	1.127	186.667	0	PA_with_intermediate	test	ward_and_allport	71	18.0	1.127	to_board	poldrack-single-stim	s234	False
0.1	186.672	0.283	186.955	0	PA_with_intermediate	test	ward_and_allport	89	18.0	0.283	to_hand	poldrack-single-stim	s234	False
0.1	186.955	0.283	187.238	0	PA_with_intermediate	test	ward_and_allport	82	18.0	0.283	to_board	poldrack-single-stim	s234	False
0.1	187.243	0.536	187.779	0	PA_with_intermediate	test	ward_and_allport	71	18.0	0.536	to_hand	poldrack-single-stim	s234	False
0.1	187.78	0.25	188.03	0	PA_with_intermediate	test	ward_and_allport	89	18.0	0.25	to_board	poldrack-single-stim	s234	False
1.0	188.036	4.04	188.035	0	PA_with_intermediate	test	ward_and_allport	-1	18.0	n/a	feedback	poldrack-single-stim	s234	False
1.452	192.079	1.452	193.531	1	PA_with_intermediate	test	ward_and_allport	71	19.0	1.452	to_hand	poldrack-single-stim	s234	False
0.1	193.532	0.462	193.994	0	PA_with_intermediate	test	ward_and_allport	89	19.0	0.462	to_board	poldrack-single-stim	s234	False
0.1	194.0	0.34	194.34	0	PA_with_intermediate	test	ward_and_allport	71	19.0	0.34	to_hand	poldrack-single-stim	s234	False
0.1	194.34	0.032	194.372	0	PA_with_intermediate	test	ward_and_allport	89	19.0	0.032	to_board	poldrack-single-stim	s234	False
0.1	194.376	1.068	195.444	0	PA_with_intermediate	test	ward_and_allport	71	19.0	1.068	to_hand	poldrack-single-stim	s234	False
0.1	195.446	0.136	195.582	0	PA_with_intermediate	test	ward_and_allport	89	19.0	0.136	to_board	poldrack-single-stim	s234	False
0.1	195.587	1.684	197.271	0	PA_with_intermediate	test	ward_and_allport	89	19.0	1.684	to_hand	poldrack-single-stim	s234	False
0.1	197.271	0.362	197.633	0	PA_with_intermediate	test	ward_and_allport	71	19.0	0.362	to_board	poldrack-single-stim	s234	False
0.1	197.638	0.392	198.03	0	PA_with_intermediate	test	ward_and_allport	89	19.0	0.392	to_hand	poldrack-single-stim	s234	False
0.1	198.032	0.363	198.395	0	PA_with_intermediate	test	ward_and_allport	82	19.0	0.363	to_board	poldrack-single-stim	s234	False
0.1	198.399	0.597	198.996	0	PA_with_intermediate	test	ward_and_allport	89	19.0	0.597	to_hand	poldrack-single-stim	s234	False
0.1	198.997	0.319	199.316	0	PA_with_intermediate	test	ward_and_allport	82	19.0	0.319	to_board	poldrack-single-stim	s234	False
1.0	199.322	2.272	199.321	0	PA_with_intermediate	test	ward_and_allport	-1	19.0	n/a	feedback	poldrack-single-stim	s234	False
1.97	201.599	1.97	203.569	1	PA_with_intermediate	test	ward_and_allport	89	20.0	1.97	to_hand	poldrack-single-stim	s234	False
0.1	203.571	0.334	203.905	0	PA_with_intermediate	test	ward_and_allport	82	20.0	0.334	to_board	poldrack-single-stim	s234	False
0.1	203.91	0.734	204.644	0	PA_with_intermediate	test	ward_and_allport	89	20.0	0.734	to_hand	poldrack-single-stim	s234	False
0.1	204.644	0.397	205.041	0	PA_with_intermediate	test	ward_and_allport	71	20.0	0.397	to_board	poldrack-single-stim	s234	False
0.1	205.046	0.364	205.41	0	PA_with_intermediate	test	ward_and_allport	82	20.0	0.364	to_hand	poldrack-single-stim	s234	False
0.1	205.411	0.336	205.747	0	PA_with_intermediate	test	ward_and_allport	71	20.0	0.336	to_board	poldrack-single-stim	s234	False
1.0	205.755	2.136	205.754	0	PA_with_intermediate	test	ward_and_allport	-1	20.0	n/a	feedback	poldrack-single-stim	s234	False
1.76	207.896	1.76	209.656	1	PA_with_intermediate	test	ward_and_allport	71	21.0	1.76	to_hand	poldrack-single-stim	s234	False
0.1	209.657	0.271	209.928	0	PA_with_intermediate	test	ward_and_allport	89	21.0	0.271	to_board	poldrack-single-stim	s234	False
0.1	209.935	0.419	210.354	0	PA_with_intermediate	test	ward_and_allport	71	21.0	0.419	to_hand	poldrack-single-stim	s234	False
0.1	210.354	0.327	210.681	0	PA_with_intermediate	test	ward_and_allport	82	21.0	0.327	to_board	poldrack-single-stim	s234	False
0.1	210.688	0.974	211.662	0	PA_with_intermediate	test	ward_and_allport	89	21.0	0.974	to_hand	poldrack-single-stim	s234	False
0.1	211.663	0.286	211.949	0	PA_with_intermediate	test	ward_and_allport	71	21.0	0.286	to_board	poldrack-single-stim	s234	False
1.0	211.957	2.0	211.956	0	PA_with_intermediate	test	ward_and_allport	-1	21.0	n/a	feedback	poldrack-single-stim	s234	False
1.195	213.964	1.195	215.159	1	PA_with_intermediate	test	ward_and_allport	89	22.0	1.195	to_hand	poldrack-single-stim	s234	False
0.1	215.16	0.334	215.494	0	PA_with_intermediate	test	ward_and_allport	71	22.0	0.334	to_board	poldrack-single-stim	s234	False
0.1	215.502	0.392	215.894	0	PA_with_intermediate	test	ward_and_allport	89	22.0	0.392	to_hand	poldrack-single-stim	s234	False
0.1	215.895	0.419	216.314	0	PA_with_intermediate	test	ward_and_allport	82	22.0	0.419	to_board	poldrack-single-stim	s234	False
0.1	216.321	0.435	216.756	0	PA_with_intermediate	test	ward_and_allport	71	22.0	0.435	to_hand	poldrack-single-stim	s234	False
0.1	216.757	0.383	217.14	0	PA_with_intermediate	test	ward_and_allport	82	22.0	0.383	to_board	poldrack-single-stim	s234	False
1.0	217.147	2.0	217.146	0	PA_with_intermediate	test	ward_and_allport	-1	22.0	n/a	feedback	poldrack-single-stim	s234	False
1.569	219.153	1.569	220.722	1	PA_without_intermediate	test	ward_and_allport	89	23.0	1.569	to_hand	poldrack-single-stim	s234	False
0.1	220.724	0.32	221.044	0	PA_without_intermediate	test	ward_and_allport	71	23.0	0.32	to_board	poldrack-single-stim	s234	False
0.1	221.051	0.325	221.376	0	PA_without_intermediate	test	ward_and_allport	89	23.0	0.325	to_hand	poldrack-single-stim	s234	False
0.1	221.377	0.314	221.691	0	PA_without_intermediate	test	ward_and_allport	71	23.0	0.314	to_board	poldrack-single-stim	s234	False
0.1	221.7	0.597	222.297	0	PA_without_intermediate	test	ward_and_allport	89	23.0	0.597	to_hand	poldrack-single-stim	s234	False
0.1	222.298	0.29	222.588	0	PA_without_intermediate	test	ward_and_allport	82	23.0	0.29	to_board	poldrack-single-stim	s234	False
1.0	222.596	2.408	222.595	0	PA_without_intermediate	test	ward_and_allport	-1	23.0	n/a	feedback	poldrack-single-stim	s234	False
1.191	225.011	1.191	226.202	1	PA_with_intermediate	test	ward_and_allport	89	24.0	1.191	to_hand	poldrack-single-stim	s234	False
0.1	226.202	0.347	226.549	0	PA_with_intermediate	test	ward_and_allport	71	24.0	0.347	to_board	poldrack-single-stim	s234	False
0.1	226.555	0.371	226.926	0	PA_with_intermediate	test	ward_and_allport	89	24.0	0.371	to_hand	poldrack-single-stim	s234	False
0.1	226.927	0.29	227.217	0	PA_with_intermediate	test	ward_and_allport	82	24.0	0.29	to_board	poldrack-single-stim	s234	False
0.1	227.224	0.513	227.737	0	PA_with_intermediate	test	ward_and_allport	71	24.0	0.513	to_hand	poldrack-single-stim	s234	False
0.1	227.737	0.224	227.961	0	PA_with_intermediate	test	ward_and_allport	89	24.0	0.224	to_board	poldrack-single-stim	s234	False
1.0	227.969	3.768	227.968	0	PA_with_intermediate	test	ward_and_allport	-1	24.0	n/a	feedback	poldrack-single-stim	s234	False
1.291	231.743	1.291	233.034	1	PA_with_intermediate	test	ward_and_allport	71	25.0	1.291	to_hand	poldrack-single-stim	s234	False
0.1	233.035	0.371	233.406	0	PA_with_intermediate	test	ward_and_allport	89	25.0	0.371	to_board	poldrack-single-stim	s234	False
0.1	233.412	0.342	233.754	0	PA_with_intermediate	test	ward_and_allport	71	25.0	0.342	to_hand	poldrack-single-stim	s234	False
0.1	233.755	0.296	234.051	0	PA_with_intermediate	test	ward_and_allport	82	25.0	0.296	to_board	poldrack-single-stim	s234	False
0.1	234.058	0.415	234.473	0	PA_with_intermediate	test	ward_and_allport	89	25.0	0.415	to_hand	poldrack-single-stim	s234	False
0.1	234.474	0.593	235.067	0	PA_with_intermediate	test	ward_and_allport	82	25.0	0.593	to_board	poldrack-single-stim	s234	False
1.0	235.077	2.68	235.076	0	PA_with_intermediate	test	ward_and_allport	-1	25.0	n/a	feedback	poldrack-single-stim	s234	False
3.579	237.763	3.579	241.342	1	PA_without_intermediate	test	ward_and_allport	82	26.0	3.579	to_hand	poldrack-single-stim	s234	False
0.1	241.344	0.407	241.751	0	PA_without_intermediate	test	ward_and_allport	89	26.0	0.407	to_board	poldrack-single-stim	s234	False
0.1	241.758	1.183	242.941	0	PA_without_intermediate	test	ward_and_allport	82	26.0	1.183	to_hand	poldrack-single-stim	s234	False
0.1	242.942	0.34	243.282	0	PA_without_intermediate	test	ward_and_allport	71	26.0	0.34	to_board	poldrack-single-stim	s234	False
0.1	243.289	0.447	243.736	0	PA_without_intermediate	test	ward_and_allport	82	26.0	0.447	to_hand	poldrack-single-stim	s234	False
0.1	243.736	0.298	244.034	0	PA_without_intermediate	test	ward_and_allport	89	26.0	0.298	to_board	poldrack-single-stim	s234	False
1.0	244.042	3.224	244.041	0	PA_without_intermediate	test	ward_and_allport	-1	26.0	n/a	feedback	poldrack-single-stim	s234	False
2.243	247.274	2.243	249.517	1	PA_without_intermediate	test	ward_and_allport	71	27.0	2.243	to_hand	poldrack-single-stim	s234	False
0.1	249.518	0.41	249.928	0	PA_without_intermediate	test	ward_and_allport	82	27.0	0.41	to_board	poldrack-single-stim	s234	False
0.1	249.935	0.484	250.419	0	PA_without_intermediate	test	ward_and_allport	71	27.0	0.484	to_hand	poldrack-single-stim	s234	False
0.1	250.419	0.368	250.787	0	PA_without_intermediate	test	ward_and_allport	89	27.0	0.368	to_board	poldrack-single-stim	s234	False
0.1	250.793	0.287	251.08	0	PA_without_intermediate	test	ward_and_allport	71	27.0	0.287	to_hand	poldrack-single-stim	s234	False
0.1	251.082	0.411	251.493	0	PA_without_intermediate	test	ward_and_allport	82	27.0	0.411	to_board	poldrack-single-stim	s234	False
1.0	251.501	3.36	251.5	0	PA_without_intermediate	test	ward_and_allport	-1	27.0	n/a	feedback	poldrack-single-stim	s234	False
0.927	254.869	0.927	255.796	1	PA_without_intermediate	test	ward_and_allport	71	28.0	0.927	to_hand	poldrack-single-stim	s234	False
0.1	255.797	0.384	256.181	0	PA_without_intermediate	test	ward_and_allport	82	28.0	0.384	to_board	poldrack-single-stim	s234	False
0.1	256.189	0.463	256.652	0	PA_without_intermediate	test	ward_and_allport	71	28.0	0.463	to_hand	poldrack-single-stim	s234	False
0.1	256.654	0.252	256.906	0	PA_without_intermediate	test	ward_and_allport	82	28.0	0.252	to_board	poldrack-single-stim	s234	False
0.1	256.913	1.033	257.946	0	PA_without_intermediate	test	ward_and_allport	71	28.0	1.033	to_hand	poldrack-single-stim	s234	False
0.1	257.947	0.326	258.273	0	PA_without_intermediate	test	ward_and_allport	89	28.0	0.326	to_board	poldrack-single-stim	s234	False
1.0	258.282	2.0	258.281	0	PA_without_intermediate	test	ward_and_allport	-1	28.0	n/a	feedback	poldrack-single-stim	s234	False
1.81	260.288	1.81	262.098	1	PA_without_intermediate	test	ward_and_allport	89	29.0	1.81	to_hand	poldrack-single-stim	s234	False
0.1	262.1	0.305	262.405	0	PA_without_intermediate	test	ward_and_allport	82	29.0	0.305	to_board	poldrack-single-stim	s234	False
0.1	262.413	0.616	263.029	0	PA_without_intermediate	test	ward_and_allport	89	29.0	0.616	to_hand	poldrack-single-stim	s234	False
0.1	263.029	0.3	263.329	0	PA_without_intermediate	test	ward_and_allport	82	29.0	0.3	to_board	poldrack-single-stim	s234	False
0.1	263.336	1.233	264.569	0	PA_without_intermediate	test	ward_and_allport	89	29.0	1.233	to_hand	poldrack-single-stim	s234	False
0.1	264.57	0.4	264.97	0	PA_without_intermediate	test	ward_and_allport	71	29.0	0.4	to_board	poldrack-single-stim	s234	False
1.0	264.979	2.408	264.978	0	PA_without_intermediate	test	ward_and_allport	-1	29.0	n/a	feedback	poldrack-single-stim	s234	False
2.71	272.397	2.71	275.107	1	PA_with_intermediate	test	ward_and_allport	71	30.0	2.71	to_hand	poldrack-single-stim	s234	False
0.1	275.108	0.966	276.074	0	PA_with_intermediate	test	ward_and_allport	82	30.0	0.966	to_board	poldrack-single-stim	s234	False
0.1	276.082	0.339	276.421	0	PA_with_intermediate	test	ward_and_allport	71	30.0	0.339	to_hand	poldrack-single-stim	s234	False
0.1	276.421	0.358	276.779	0	PA_with_intermediate	test	ward_and_allport	89	30.0	0.358	to_board	poldrack-single-stim	s234	False
0.1	276.788	0.557	277.345	0	PA_with_intermediate	test	ward_and_allport	82	30.0	0.557	to_hand	poldrack-single-stim	s234	False
0.1	277.346	0.404	277.75	0	PA_with_intermediate	test	ward_and_allport	71	30.0	0.404	to_board	poldrack-single-stim	s234	False
1.0	277.761	2.136	277.76	0	PA_with_intermediate	test	ward_and_allport	-1	30.0	n/a	feedback	poldrack-single-stim	s234	False
1.721	279.906	1.721	281.627	1	PA_without_intermediate	test	ward_and_allport	82	31.0	1.721	to_hand	poldrack-single-stim	s234	False
0.1	281.628	0.332	281.96	0	PA_without_intermediate	test	ward_and_allport	89	31.0	0.332	to_board	poldrack-single-stim	s234	False
0.1	281.967	1.282	283.249	0	PA_without_intermediate	test	ward_and_allport	82	31.0	1.282	to_hand	poldrack-single-stim	s234	False
0.1	283.25	0.384	283.634	0	PA_without_intermediate	test	ward_and_allport	71	31.0	0.384	to_board	poldrack-single-stim	s234	False
0.1	283.641	0.467	284.108	0	PA_without_intermediate	test	ward_and_allport	82	31.0	0.467	to_hand	poldrack-single-stim	s234	False
0.1	284.109	0.364	284.473	0	PA_without_intermediate	test	ward_and_allport	89	31.0	0.364	to_board	poldrack-single-stim	s234	False
1.0	284.481	5.128	284.48	0	PA_without_intermediate	test	ward_and_allport	-1	31.0	n/a	feedback	poldrack-single-stim	s234	False
1.151	289.615	1.151	290.766	1	PA_without_intermediate	test	ward_and_allport	82	32.0	1.151	to_hand	poldrack-single-stim	s234	False
0.1	290.767	0.516	291.283	0	PA_without_intermediate	test	ward_and_allport	71	32.0	0.516	to_board	poldrack-single-stim	s234	False
0.1	291.292	0.637	291.929	0	PA_without_intermediate	test	ward_and_allport	82	32.0	0.637	to_hand	poldrack-single-stim	s234	False
0.1	291.931	0.29	292.221	0	PA_without_intermediate	test	ward_and_allport	89	32.0	0.29	to_board	poldrack-single-stim	s234	False
0.1	292.231	0.762	292.993	0	PA_without_intermediate	test	ward_and_allport	82	32.0	0.762	to_hand	poldrack-single-stim	s234	False
0.1	292.995	0.321	293.316	0	PA_without_intermediate	test	ward_and_allport	71	32.0	0.321	to_board	poldrack-single-stim	s234	False
1.0	293.325	2.136	293.324	0	PA_without_intermediate	test	ward_and_allport	-1	32.0	n/a	feedback	poldrack-single-stim	s234	False
2.438	295.471	2.438	297.909	1	PA_without_intermediate	test	ward_and_allport	89	33.0	2.438	to_hand	poldrack-single-stim	s234	False
0.1	297.91	0.383	298.293	0	PA_without_intermediate	test	ward_and_allport	82	33.0	0.383	to_board	poldrack-single-stim	s234	False
0.1	298.3	0.37	298.67	0	PA_without_intermediate	test	ward_and_allport	89	33.0	0.37	to_hand	poldrack-single-stim	s234	False
0.1	298.671	0.389	299.06	0	PA_without_intermediate	test	ward_and_allport	71	33.0	0.389	to_board	poldrack-single-stim	s234	False
0.1	299.065	0.382	299.447	0	PA_without_intermediate	test	ward_and_allport	89	33.0	0.382	to_hand	poldrack-single-stim	s234	False
0.1	299.449	0.384	299.833	0	PA_without_intermediate	test	ward_and_allport	82	33.0	0.384	to_board	poldrack-single-stim	s234	False
1.0	299.841	5.264	299.84	0	PA_without_intermediate	test	ward_and_allport	-1	33.0	n/a	feedback	poldrack-single-stim	s234	False
1.438	305.114	1.438	306.552	1	PA_with_intermediate	test	ward_and_allport	71	34.0	1.438	to_hand	poldrack-single-stim	s234	False
0.1	306.553	0.442	306.995	0	PA_with_intermediate	test	ward_and_allport	82	34.0	0.442	to_board	poldrack-single-stim	s234	False
0.1	307.006	0.396	307.402	0	PA_with_intermediate	test	ward_and_allport	71	34.0	0.396	to_hand	poldrack-single-stim	s234	False
0.1	307.403	0.335	307.738	0	PA_with_intermediate	test	ward_and_allport	89	34.0	0.335	to_board	poldrack-single-stim	s234	False
0.1	307.745	0.425	308.17	0	PA_with_intermediate	test	ward_and_allport	82	34.0	0.425	to_hand	poldrack-single-stim	s234	False
0.1	308.172	0.298	308.47	0	PA_with_intermediate	test	ward_and_allport	71	34.0	0.298	to_board	poldrack-single-stim	s234	False
1.0	308.478	4.04	308.477	0	PA_with_intermediate	test	ward_and_allport	-1	34.0	n/a	feedback	poldrack-single-stim	s234	False
2.224	312.524	2.224	314.748	1	PA_with_intermediate	test	ward_and_allport	82	35.0	2.224	to_hand	poldrack-single-stim	s234	False
0.1	314.749	0.375	315.124	0	PA_with_intermediate	test	ward_and_allport	89	35.0	0.375	to_board	poldrack-single-stim	s234	False
0.1	315.133	0.572	315.705	0	PA_with_intermediate	test	ward_and_allport	82	35.0	0.572	to_hand	poldrack-single-stim	s234	False
0.1	315.705	0.305	316.01	0	PA_with_intermediate	test	ward_and_allport	71	35.0	0.305	to_board	poldrack-single-stim	s234	False
0.1	316.02	0.532	316.552	0	PA_with_intermediate	test	ward_and_allport	89	35.0	0.532	to_hand	poldrack-single-stim	s234	False
0.1	316.553	0.318	316.871	0	PA_with_intermediate	test	ward_and_allport	71	35.0	0.318	to_board	poldrack-single-stim	s234	False
1.0	316.882	2.136	316.881	0	PA_with_intermediate	test	ward_and_allport	-1	35.0	n/a	feedback	poldrack-single-stim	s234	False
1.193	319.025	1.193	320.218	1	PA_with_intermediate	test	ward_and_allport	82	36.0	1.193	to_hand	poldrack-single-stim	s234	False
0.1	320.22	1.023	321.243	0	PA_with_intermediate	test	ward_and_allport	71	36.0	1.023	to_board	poldrack-single-stim	s234	False
0.1	321.25	0.485	321.735	0	PA_with_intermediate	test	ward_and_allport	82	36.0	0.485	to_hand	poldrack-single-stim	s234	False
0.1	321.735	0.292	322.027	0	PA_with_intermediate	test	ward_and_allport	89	36.0	0.292	to_board	poldrack-single-stim	s234	False
0.1	322.034	0.324	322.358	0	PA_with_intermediate	test	ward_and_allport	71	36.0	0.324	to_hand	poldrack-single-stim	s234	False
0.1	322.358	0.26	322.618	0	PA_with_intermediate	test	ward_and_allport	89	36.0	0.26	to_board	poldrack-single-stim	s234	False
1.0	322.625	2.408	322.624	0	PA_with_intermediate	test	ward_and_allport	-1	36.0	n/a	feedback	poldrack-single-stim	s234	False
1.345	325.04	1.345	326.385	1	PA_without_intermediate	test	ward_and_allport	82	37.0	1.345	to_hand	poldrack-single-stim	s234	False
0.1	326.387	0.294	326.681	0	PA_without_intermediate	test	ward_and_allport	71	37.0	0.294	to_board	poldrack-single-stim	s234	False
0.1	326.687	0.74	327.427	0	PA_without_intermediate	test	ward_and_allport	82	37.0	0.74	to_hand	poldrack-single-stim	s234	False
0.1	327.427	0.326	327.753	0	PA_without_intermediate	test	ward_and_allport	71	37.0	0.326	to_board	poldrack-single-stim	s234	False
0.1	327.761	0.52	328.281	0	PA_without_intermediate	test	ward_and_allport	82	37.0	0.52	to_hand	poldrack-single-stim	s234	False
0.1	328.282	0.237	328.519	0	PA_without_intermediate	test	ward_and_allport	89	37.0	0.237	to_board	poldrack-single-stim	s234	False
1.0	328.529	2.68	328.528	0	PA_without_intermediate	test	ward_and_allport	-1	37.0	n/a	feedback	poldrack-single-stim	s234	False
2.522	331.216	2.522	333.738	1	PA_with_intermediate	test	ward_and_allport	71	38.0	2.522	to_hand	poldrack-single-stim	s234	False
0.1	333.74	0.393	334.133	0	PA_with_intermediate	test	ward_and_allport	82	38.0	0.393	to_board	poldrack-single-stim	s234	False
0.1	334.139	0.348	334.487	0	PA_with_intermediate	test	ward_and_allport	71	38.0	0.348	to_hand	poldrack-single-stim	s234	False
0.1	334.488	0.307	334.795	0	PA_with_intermediate	test	ward_and_allport	89	38.0	0.307	to_board	poldrack-single-stim	s234	False
0.1	334.804	0.583	335.387	0	PA_with_intermediate	test	ward_and_allport	82	38.0	0.583	to_hand	poldrack-single-stim	s234	False
0.1	335.388	0.253	335.641	0	PA_with_intermediate	test	ward_and_allport	89	38.0	0.253	to_board	poldrack-single-stim	s234	False
1.0	335.648	4.72	335.647	0	PA_with_intermediate	test	ward_and_allport	-1	38.0	n/a	feedback	poldrack-single-stim	s234	False
0.987	340.378	0.987	341.365	1	PA_without_intermediate	test	ward_and_allport	82	39.0	0.987	to_hand	poldrack-single-stim	s234	False
0.1	341.366	0.353	341.719	0	PA_without_intermediate	test	ward_and_allport	71	39.0	0.353	to_board	poldrack-single-stim	s234	False
0.1	341.728	0.61	342.338	0	PA_without_intermediate	test	ward_and_allport	82	39.0	0.61	to_hand	poldrack-single-stim	s234	False
0.1	342.34	1.155	343.495	0	PA_without_intermediate	test	ward_and_allport	71	39.0	1.155	to_board	poldrack-single-stim	s234	False
0.1	343.504	0.394	343.898	0	PA_without_intermediate	test	ward_and_allport	82	39.0	0.394	to_hand	poldrack-single-stim	s234	False
0.1	343.9	0.288	344.188	0	PA_without_intermediate	test	ward_and_allport	89	39.0	0.288	to_board	poldrack-single-stim	s234	False
1.0	344.196	3.224	344.195	0	PA_without_intermediate	test	ward_and_allport	-1	39.0	n/a	feedback	poldrack-single-stim	s234	False
2.581	347.426	2.581	350.007	1	PA_without_intermediate	test	ward_and_allport	71	40.0	2.581	to_hand	poldrack-single-stim	s234	False
0.1	350.008	0.323	350.331	0	PA_without_intermediate	test	ward_and_allport	89	40.0	0.323	to_board	poldrack-single-stim	s234	False
0.1	350.338	0.608	350.946	0	PA_without_intermediate	test	ward_and_allport	71	40.0	0.608	to_hand	poldrack-single-stim	s234	False
0.1	350.947	0.385	351.332	0	PA_without_intermediate	test	ward_and_allport	89	40.0	0.385	to_board	poldrack-single-stim	s234	False
0.1	351.343	0.34	351.683	0	PA_without_intermediate	test	ward_and_allport	71	40.0	0.34	to_hand	poldrack-single-stim	s234	False
0.1	351.684	0.323	352.007	0	PA_without_intermediate	test	ward_and_allport	82	40.0	0.323	to_board	poldrack-single-stim	s234	False
1.0	352.018	2.272	352.017	0	PA_without_intermediate	test	ward_and_allport	-1	40.0	n/a	feedback	poldrack-single-stim	s234	False
2.061	354.297	2.061	356.358	1	PA_with_intermediate	test	ward_and_allport	82	41.0	2.061	to_hand	poldrack-single-stim	s234	False
0.1	356.358	0.305	356.663	0	PA_with_intermediate	test	ward_and_allport	71	41.0	0.305	to_board	poldrack-single-stim	s234	False
0.1	356.67	0.382	357.052	0	PA_with_intermediate	test	ward_and_allport	82	41.0	0.382	to_hand	poldrack-single-stim	s234	False
0.1	357.052	0.292	357.344	0	PA_with_intermediate	test	ward_and_allport	89	41.0	0.292	to_board	poldrack-single-stim	s234	False
0.1	357.352	0.634	357.986	0	PA_with_intermediate	test	ward_and_allport	71	41.0	0.634	to_hand	poldrack-single-stim	s234	False
0.1	357.987	0.293	358.28	0	PA_with_intermediate	test	ward_and_allport	89	41.0	0.293	to_board	poldrack-single-stim	s234	False
1.0	358.288	3.632	358.287	0	PA_with_intermediate	test	ward_and_allport	-1	41.0	n/a	feedback	poldrack-single-stim	s234	False
1.496	361.928	1.496	363.424	1	PA_without_intermediate	test	ward_and_allport	71	42.0	1.496	to_hand	poldrack-single-stim	s234	False
0.1	363.424	0.378	363.802	0	PA_without_intermediate	test	ward_and_allport	82	42.0	0.378	to_board	poldrack-single-stim	s234	False
0.1	363.809	0.608	364.417	0	PA_without_intermediate	test	ward_and_allport	71	42.0	0.608	to_hand	poldrack-single-stim	s234	False
0.1	364.418	0.423	364.841	0	PA_without_intermediate	test	ward_and_allport	82	42.0	0.423	to_board	poldrack-single-stim	s234	False
0.1	364.849	0.38	365.229	0	PA_without_intermediate	test	ward_and_allport	71	42.0	0.38	to_hand	poldrack-single-stim	s234	False
0.1	365.23	0.308	365.538	0	PA_without_intermediate	test	ward_and_allport	89	42.0	0.308	to_board	poldrack-single-stim	s234	False
1.0	365.55	2.408	365.549	0	PA_without_intermediate	test	ward_and_allport	-1	42.0	n/a	feedback	poldrack-single-stim	s234	False
1.139	367.968	1.139	369.107	1	PA_without_intermediate	test	ward_and_allport	89	43.0	1.139	to_hand	poldrack-single-stim	s234	False
0.1	369.108	0.566	369.674	0	PA_without_intermediate	test	ward_and_allport	71	43.0	0.566	to_board	poldrack-single-stim	s234	False
0.1	369.682	0.565	370.247	0	PA_without_intermediate	test	ward_and_allport	89	43.0	0.565	to_hand	poldrack-single-stim	s234	False
0.1	370.248	0.299	370.547	0	PA_without_intermediate	test	ward_and_allport	82	43.0	0.299	to_board	poldrack-single-stim	s234	False
0.1	370.554	0.623	371.177	0	PA_without_intermediate	test	ward_and_allport	89	43.0	0.623	to_hand	poldrack-single-stim	s234	False
0.1	371.178	0.26	371.438	0	PA_without_intermediate	test	ward_and_allport	71	43.0	0.26	to_board	poldrack-single-stim	s234	False
1.0	371.446	2.0	371.445	0	PA_without_intermediate	test	ward_and_allport	-1	43.0	n/a	feedback	poldrack-single-stim	s234	False
0.83	373.455	0.83	374.285	1	PA_with_intermediate	test	ward_and_allport	89	44.0	0.83	to_hand	poldrack-single-stim	s234	False
0.1	374.287	1.764	376.051	0	PA_with_intermediate	test	ward_and_allport	71	44.0	1.764	to_board	poldrack-single-stim	s234	False
0.1	376.058	0.307	376.365	0	PA_with_intermediate	test	ward_and_allport	89	44.0	0.307	to_hand	poldrack-single-stim	s234	False
0.1	376.366	0.28	376.646	0	PA_with_intermediate	test	ward_and_allport	82	44.0	0.28	to_board	poldrack-single-stim	s234	False
0.1	376.652	0.472	377.124	0	PA_with_intermediate	test	ward_and_allport	71	44.0	0.472	to_hand	poldrack-single-stim	s234	False
0.1	377.126	0.256	377.382	0	PA_with_intermediate	test	ward_and_allport	82	44.0	0.256	to_board	poldrack-single-stim	s234	False
1.0	377.39	2.0	377.389	0	PA_with_intermediate	test	ward_and_allport	-1	44.0	n/a	feedback	poldrack-single-stim	s234	False
0.81	384.403	0.81	385.213	1	PA_with_intermediate	test	ward_and_allport	89	45.0	0.81	to_hand	poldrack-single-stim	s234	False
0.1	385.214	1.487	386.701	0	PA_with_intermediate	test	ward_and_allport	71	45.0	1.487	to_board	poldrack-single-stim	s234	False
0.1	386.712	0.298	387.01	0	PA_with_intermediate	test	ward_and_allport	89	45.0	0.298	to_hand	poldrack-single-stim	s234	False
0.1	387.01	0.515	387.525	0	PA_with_intermediate	test	ward_and_allport	82	45.0	0.515	to_board	poldrack-single-stim	s234	False
0.1	387.535	0.563	388.098	0	PA_with_intermediate	test	ward_and_allport	89	45.0	0.563	to_hand	poldrack-single-stim	s234	False
0.1	388.1	0.925	389.025	0	PA_with_intermediate	test	ward_and_allport	89	45.0	0.925	to_board	poldrack-single-stim	s234	False
0.1	389.035	0.257	389.292	0	PA_with_intermediate	test	ward_and_allport	71	45.0	0.257	to_hand	poldrack-single-stim	s234	False
0.1	389.293	0.201	389.494	0	PA_with_intermediate	test	ward_and_allport	89	45.0	0.201	to_board	poldrack-single-stim	s234	False
0.1	389.502	0.545	390.047	0	PA_with_intermediate	test	ward_and_allport	82	45.0	0.545	to_hand	poldrack-single-stim	s234	False
0.1	390.048	0.254	390.302	0	PA_with_intermediate	test	ward_and_allport	71	45.0	0.254	to_board	poldrack-single-stim	s234	False
1.0	390.311	2.0	390.31	0	PA_with_intermediate	test	ward_and_allport	-1	45.0	n/a	feedback	poldrack-single-stim	s234	False
1.159	392.32	1.159	393.479	1	PA_with_intermediate	test	ward_and_allport	82	46.0	1.159	to_hand	poldrack-single-stim	s234	False
0.1	393.48	2.576	396.056	0	PA_with_intermediate	test	ward_and_allport	71	46.0	2.576	to_board	poldrack-single-stim	s234	False
0.1	396.064	0.407	396.471	0	PA_with_intermediate	test	ward_and_allport	82	46.0	0.407	to_hand	poldrack-single-stim	s234	False
0.1	396.472	0.332	396.804	0	PA_with_intermediate	test	ward_and_allport	89	46.0	0.332	to_board	poldrack-single-stim	s234	False
0.1	396.814	0.35	397.164	0	PA_with_intermediate	test	ward_and_allport	71	46.0	0.35	to_hand	poldrack-single-stim	s234	False
0.1	397.165	0.26	397.425	0	PA_with_intermediate	test	ward_and_allport	82	46.0	0.26	to_board	poldrack-single-stim	s234	False
1.0	397.437	2.408	397.436	0	PA_with_intermediate	test	ward_and_allport	-1	46.0	n/a	feedback	poldrack-single-stim	s234	False
1.037	399.853	1.037	400.89	1	PA_without_intermediate	test	ward_and_allport	82	47.0	1.037	to_hand	poldrack-single-stim	s234	False
0.1	400.891	0.323	401.214	0	PA_without_intermediate	test	ward_and_allport	71	47.0	0.323	to_board	poldrack-single-stim	s234	False
0.1	401.222	0.663	401.885	0	PA_without_intermediate	test	ward_and_allport	82	47.0	0.663	to_hand	poldrack-single-stim	s234	False
0.1	401.886	0.277	402.163	0	PA_without_intermediate	test	ward_and_allport	89	47.0	0.277	to_board	poldrack-single-stim	s234	False
0.1	402.17	0.691	402.861	0	PA_without_intermediate	test	ward_and_allport	82	47.0	0.691	to_hand	poldrack-single-stim	s234	False
0.1	402.863	0.333	403.196	0	PA_without_intermediate	test	ward_and_allport	71	47.0	0.333	to_board	poldrack-single-stim	s234	False
1.0	403.206	2.816	403.205	0	PA_without_intermediate	test	ward_and_allport	-1	47.0	n/a	feedback	poldrack-single-stim	s234	False
