onset	duration	movement_onset	EV	action	block_duration	experiment_exp_id	gain_amount	gain_probability	key_press	loss_amount	loss_probability	num_cards	num_click_in_round	num_loss_cards	risk	response_time	total_cards	trial_id	trial_type	worker_id	junk	feedback
3.007	5.205	8.212	-1.56867569414057	draw_card	5.205	columbia_card_task_fmri	12.0	0.8333333333333334	89.0	-70.0	0.1666666666666666	6.0	1.0	1.0	-1.2181120305589097	5.205	n/a	stim	poldrack-single-stim	s234	False	1
8.214	2.57	10.784	-4.302009027473902	draw_card	2.57	columbia_card_task_fmri	12.0	0.8	89.0	-70.0	0.2	6.0	2.0	1.0	1.022281545850788	2.57	n/a	stim	poldrack-single-stim	s234	False	1
10.785	2.215	13.0	-8.402009027473904	end_round	2.215	columbia_card_task_fmri	12.0	0.75	71.0	-70.0	0.25	6.0	3.0	1.0	3.729311941479296	2.215	2.0	stim	poldrack-single-stim	s234	False	1
13.753	1.5	13.002	n/a	-1.0	2.318	columbia_card_task_fmri	n/a	n/a	-1.0	n/a	n/a	n/a	n/a	n/a	n/a	n/a	n/a	ITI	poldrack-single-stim	s234	False	0
15.322	2.583	17.905	-0.735342360807236	draw_card	2.583	columbia_card_task_fmri	14.0	0.8333333333333334	89.0	-75.0	0.1666666666666666	6.0	1.0	1.0	1.3906215865769411	2.583	n/a	stim	poldrack-single-stim	s234	False	1
17.906	0.755	18.661	-3.702009027473903	draw_card	0.755	columbia_card_task_fmri	14.0	0.8	89.0	-75.0	0.2	6.0	2.0	1.0	3.822270033244699	0.755	n/a	stim	poldrack-single-stim	s234	False	1
18.662	0.608	19.27	-8.152009027473904	end_round	0.608	columbia_card_task_fmri	14.0	0.75	71.0	-75.0	0.25	6.0	3.0	1.0	6.760390219825226	0.608	2.0	stim	poldrack-single-stim	s234	False	1
20.023	1.5	19.272	n/a	-1.0	2.318	columbia_card_task_fmri	n/a	n/a	-1.0	n/a	n/a	n/a	n/a	n/a	n/a	n/a	n/a	ITI	poldrack-single-stim	s234	False	0
21.591	2.191	23.782	0.93132430585943	draw_card	2.191	columbia_card_task_fmri	15.0	0.8333333333333334	89.0	-70.0	0.1666666666666666	6.0	1.0	1.0	-0.1000835867079246	2.191	n/a	stim	poldrack-single-stim	s234	False	1
23.784	0.803	24.587	-1.902009027473904	draw_card	0.803	columbia_card_task_fmri	15.0	0.8	89.0	-70.0	0.2	6.0	2.0	1.0	2.2222763796911806	0.803	n/a	stim	poldrack-single-stim	s234	False	1
24.588	0.645	25.233	-6.152009027473904	end_round	0.645	columbia_card_task_fmri	15.0	0.75	71.0	-70.0	0.25	6.0	3.0	1.0	5.028345274857607	0.645	2.0	stim	poldrack-single-stim	s234	False	1
25.986	1.5	25.235	n/a	-1.0	2.862	columbia_card_task_fmri	n/a	n/a	-1.0	n/a	n/a	n/a	n/a	n/a	n/a	n/a	n/a	ITI	poldrack-single-stim	s234	False	0
28.099	1.877	29.976	1.764657639192764	draw_card	1.877	columbia_card_task_fmri	17.0	0.8333333333333334	89.0	-75.0	0.1666666666666666	6.0	1.0	1.0	2.508650855250117	1.877	1.0	stim	poldrack-single-stim	s234	False	0
30.729	1.5	29.978	n/a	-1.0	2.726	columbia_card_task_fmri	n/a	n/a	-1.0	n/a	n/a	n/a	n/a	n/a	n/a	n/a	n/a	ITI	poldrack-single-stim	s234	False	0
32.707	10.412	43.119	3.097990972526096	draw_card	10.412	columbia_card_task_fmri	24.0	0.75	89.0	-60.0	0.25	8.0	1.0	2.0	4.595334125856326	10.412	n/a	stim	poldrack-single-stim	s234	False	1
43.12	0.677	43.797	0.0979909725260961	draw_card	0.677	columbia_card_task_fmri	24.0	0.7142857142857143	89.0	-60.0	0.2857142857142857	8.0	2.0	2.0	6.169593613017518	0.677	2.0	stim	poldrack-single-stim	s234	False	0
44.55	1.5	43.799	n/a	-1.0	2.25	columbia_card_task_fmri	n/a	n/a	-1.0	n/a	n/a	n/a	n/a	n/a	n/a	n/a	n/a	ITI	poldrack-single-stim	s234	False	0
46.051	1.598	47.649	3.097990972526096	draw_card	1.598	columbia_card_task_fmri	29.0	0.75	89.0	-75.0	0.25	8.0	1.0	2.0	13.255562779883256	1.598	n/a	stim	poldrack-single-stim	s234	False	1
47.65	0.618	48.268	-0.6162947417596156	end_round	0.618	columbia_card_task_fmri	29.0	0.7142857142857143	71.0	-75.0	0.2857142857142857	8.0	2.0	2.0	15.20464831130473	0.618	1.0	stim	poldrack-single-stim	s234	False	1
49.021	1.5	48.27	n/a	-1.0	2.318	columbia_card_task_fmri	n/a	n/a	-1.0	n/a	n/a	n/a	n/a	n/a	n/a	n/a	n/a	ITI	poldrack-single-stim	s234	False	0
50.591	3.681	54.272	-1.1242312496961235	draw_card	3.681	columbia_card_task_fmri	17.0	0.7777777777777778	89.0	-65.0	0.2222222222222222	9.0	1.0	2.0	2.31293219478723	3.681	1.0	stim	poldrack-single-stim	s234	False	0
55.024	1.5	54.273	n/a	-1.0	2.454	columbia_card_task_fmri	n/a	n/a	-1.0	n/a	n/a	n/a	n/a	n/a	n/a	n/a	n/a	ITI	poldrack-single-stim	s234	False	0
56.73	3.077	59.807	3.1979909725260955	draw_card	3.077	columbia_card_task_fmri	14.0	0.9	89.0	-95.0	0.1	10.0	1.0	1.0	0.9222819934791886	3.077	n/a	stim	poldrack-single-stim	s234	False	1
59.809	0.794	60.603	1.986879861414984	end_round	0.794	columbia_card_task_fmri	14.0	0.8888888888888888	71.0	-95.0	0.1111111111111111	10.0	2.0	1.0	2.4776705043767606	0.794	1.0	stim	poldrack-single-stim	s234	False	1
61.357	1.5	60.606	n/a	-1.0	2.522	columbia_card_task_fmri	n/a	n/a	-1.0	n/a	n/a	n/a	n/a	n/a	n/a	n/a	n/a	ITI	poldrack-single-stim	s234	False	0
63.131	1.763	64.894	-0.902009027473904	draw_card	1.763	columbia_card_task_fmri	15.0	0.8	89.0	-65.0	0.2	10.0	1.0	2.0	0.2222852052123727	1.763	1.0	stim	poldrack-single-stim	s234	False	0
65.647	1.5	64.896	n/a	-1.0	2.318	columbia_card_task_fmri	n/a	n/a	-1.0	n/a	n/a	n/a	n/a	n/a	n/a	n/a	n/a	ITI	poldrack-single-stim	s234	False	0
67.216	2.017	69.233	0.6979909725260975	draw_card	2.017	columbia_card_task_fmri	17.0	0.8	89.0	-65.0	0.2	10.0	1.0	2.0	1.022281545850788	2.017	n/a	stim	poldrack-single-stim	s234	False	1
69.234	0.558	69.792	-1.1242312496961235	draw_card	0.558	columbia_card_task_fmri	17.0	0.7777777777777778	89.0	-65.0	0.2222222222222222	10.0	2.0	2.0	2.31293219478723	0.558	n/a	stim	poldrack-single-stim	s234	False	1
69.793	0.645	70.438	-3.402009027473904	end_round	0.645	columbia_card_task_fmri	17.0	0.75	71.0	-65.0	0.25	10.0	3.0	2.0	3.729311941479296	0.645	2.0	stim	poldrack-single-stim	s234	False	1
71.191	1.5	70.44	n/a	-1.0	2.522	columbia_card_task_fmri	n/a	n/a	-1.0	n/a	n/a	n/a	n/a	n/a	n/a	n/a	n/a	ITI	poldrack-single-stim	s234	False	0
72.966	1.719	74.685	-0.735342360807236	draw_card	1.719	columbia_card_task_fmri	13.0	0.8333333333333334	89.0	-70.0	0.1666666666666666	12.0	1.0	2.0	-0.8454359271455907	1.719	n/a	stim	poldrack-single-stim	s234	False	1
74.686	0.61	75.296	-1.9929181183829972	draw_card	0.61	columbia_card_task_fmri	13.0	0.8181818181818181	89.0	-70.0	0.1818181818181818	12.0	2.0	2.0	0.2349376032686621	0.61	n/a	stim	poldrack-single-stim	s234	False	1
75.299	0.508	75.807	-3.502009027473904	end_round	0.508	columbia_card_task_fmri	13.0	0.8	71.0	-70.0	0.2	12.0	3.0	2.0	1.4222797823025957	0.508	2.0	stim	poldrack-single-stim	s234	False	1
76.56	1.5	75.809	n/a	-1.0	2.998	columbia_card_task_fmri	n/a	n/a	-1.0	n/a	n/a	n/a	n/a	n/a	n/a	n/a	n/a	ITI	poldrack-single-stim	s234	False	0
78.81	1.779	80.589	-0.735342360807236	draw_card	1.779	columbia_card_task_fmri	15.0	0.8333333333333334	89.0	-80.0	0.1666666666666666	12.0	1.0	2.0	3.626680422031626	1.779	n/a	stim	poldrack-single-stim	s234	False	1
80.591	0.344	80.935	-2.1747363002011797	draw_card	0.344	columbia_card_task_fmri	15.0	0.8181818181818181	89.0	-80.0	0.1818181818181818	12.0	2.0	2.0	4.863253954144163	0.344	n/a	stim	poldrack-single-stim	s234	False	1
80.936	0.516	81.452	-3.902009027473904	end_round	0.516	columbia_card_task_fmri	15.0	0.8	71.0	-80.0	0.2	12.0	3.0	2.0	6.22226151564017	0.516	2.0	stim	poldrack-single-stim	s234	False	1
82.205	1.5	81.454	n/a	-1.0	2.318	columbia_card_task_fmri	n/a	n/a	-1.0	n/a	n/a	n/a	n/a	n/a	n/a	n/a	n/a	ITI	poldrack-single-stim	s234	False	0
83.775	2.056	85.831	-1.7020090274739028	draw_card	2.056	columbia_card_task_fmri	14.0	0.8	89.0	-65.0	0.2	15.0	1.0	3.0	-0.1777128956257776	2.056	1.0	stim	poldrack-single-stim	s234	False	0
86.585	1.5	85.834	n/a	-1.0	2.25	columbia_card_task_fmri	n/a	n/a	-1.0	n/a	n/a	n/a	n/a	n/a	n/a	n/a	n/a	ITI	poldrack-single-stim	s234	False	0
88.086	4.982	93.068	-1.777009027473904	end_round	4.982	columbia_card_task_fmri	1.0	0.9375	71.0	-45.0	0.0625	16.0	1.0	1.0	-20.642606537239264	4.982	0.0	stim	poldrack-single-stim	s234	False	1
93.822	1.5	93.071	n/a	-1.0	2.454	columbia_card_task_fmri	n/a	n/a	-1.0	n/a	n/a	n/a	n/a	n/a	n/a	n/a	n/a	ITI	poldrack-single-stim	s234	False	0
95.528	1.904	97.432	-0.8395090274739039	draw_card	1.904	columbia_card_task_fmri	15.0	0.8125	89.0	-70.0	0.1875	16.0	1.0	3.0	1.3988317510005217	1.904	n/a	stim	poldrack-single-stim	s234	False	1
97.434	0.413	97.847	-1.902009027473904	draw_card	0.413	columbia_card_task_fmri	15.0	0.8	89.0	-70.0	0.2	16.0	2.0	3.0	2.2222763796911806	0.413	n/a	stim	poldrack-single-stim	s234	False	1
97.849	0.463	98.312	-3.1162947417596194	draw_card	0.463	columbia_card_task_fmri	15.0	0.7857142857142857	89.0	-70.0	0.2142857142857142	16.0	3.0	3.0	3.0999746087157973	0.463	n/a	stim	poldrack-single-stim	s234	False	1
98.313	0.641	98.954	-4.51739364285852	end_round	0.641	columbia_card_task_fmri	15.0	0.7692307692307692	71.0	-70.0	0.2307692307692307	16.0	4.0	3.0	4.034897992487423	0.641	3.0	stim	poldrack-single-stim	s234	False	1
99.709	1.5	98.958	n/a	-1.0	2.318	columbia_card_task_fmri	n/a	n/a	-1.0	n/a	n/a	n/a	n/a	n/a	n/a	n/a	n/a	ITI	poldrack-single-stim	s234	False	0
101.28	2.002	103.282	6.097990972526096	draw_card	2.002	columbia_card_task_fmri	30.0	0.7	89.0	-50.0	0.3	10.0	1.0	3.0	4.88287169128003	2.002	1.0	stim	poldrack-single-stim	s234	False	0
104.035	1.5	103.284	n/a	-1.0	2.318	columbia_card_task_fmri	n/a	n/a	-1.0	n/a	n/a	n/a	n/a	n/a	n/a	n/a	n/a	ITI	poldrack-single-stim	s234	False	0
105.605	4.12	109.725	5.497990972526097	draw_card	4.12	columbia_card_task_fmri	17.0	0.8666666666666667	89.0	-70.0	0.1333333333333333	15.0	1.0	2.0	-2.203389310176142	4.12	n/a	stim	poldrack-single-stim	s234	False	1
109.727	0.398	110.125	4.669419543954669	draw_card	0.398	columbia_card_task_fmri	17.0	0.8571428571428572	89.0	-70.0	0.1428571428571428	15.0	2.0	2.0	-1.3340488930234642	0.398	n/a	stim	poldrack-single-stim	s234	False	1
110.127	0.393	110.52	3.713375587910711	draw_card	0.393	columbia_card_task_fmri	17.0	0.8461538461538461	89.0	-70.0	0.1538461538461538	15.0	3.0	2.0	-0.3880064081674454	0.393	n/a	stim	poldrack-single-stim	s234	False	1
110.522	1.077	111.599	2.5979909725260977	draw_card	1.077	columbia_card_task_fmri	17.0	0.8333333333333334	89.0	-70.0	0.1666666666666666	15.0	4.0	2.0	0.6452689216394702	1.077	n/a	stim	poldrack-single-stim	s234	False	1
111.6	0.832	112.432	1.279809154344276	end_round	0.832	columbia_card_task_fmri	17.0	0.8181818181818181	71.0	-70.0	0.1818181818181818	15.0	5.0	2.0	1.7777091395668163	0.832	4.0	stim	poldrack-single-stim	s234	False	1
113.185	1.5	112.434	n/a	-1.0	2.59	columbia_card_task_fmri	n/a	n/a	-1.0	n/a	n/a	n/a	n/a	n/a	n/a	n/a	n/a	ITI	poldrack-single-stim	s234	False	0
115.027	2.794	117.821	0.7229909725260961	draw_card	2.794	columbia_card_task_fmri	7.0	0.9375	89.0	-95.0	0.0625	16.0	1.0	1.0	-7.087401544234574	2.794	n/a	stim	poldrack-single-stim	s234	False	1
117.822	0.387	118.209	0.2979909725260963	draw_card	0.387	columbia_card_task_fmri	7.0	0.9333333333333332	89.0	-95.0	0.0666666666666666	16.0	2.0	1.0	-6.334405901096506	0.387	n/a	stim	poldrack-single-stim	s234	False	1
118.211	0.39	118.601	-0.1877233131881894	draw_card	0.39	columbia_card_task_fmri	7.0	0.9285714285714286	89.0	-95.0	0.0714285714285714	16.0	3.0	1.0	-5.508665627173762	0.39	n/a	stim	poldrack-single-stim	s234	False	1
118.603	0.311	118.914	-0.7481628736277506	draw_card	0.311	columbia_card_task_fmri	7.0	0.9230769230769232	89.0	-95.0	0.0769230769230769	16.0	4.0	1.0	-4.597813976489061	0.311	n/a	stim	poldrack-single-stim	s234	False	1
118.916	0.919	119.835	-1.402009027473904	draw_card	0.919	columbia_card_task_fmri	7.0	0.9166666666666666	89.0	-95.0	0.0833333333333333	16.0	5.0	1.0	-3.586383806990618	0.919	n/a	stim	poldrack-single-stim	s234	False	1
119.836	0.555	120.391	-2.174736300201177	draw_card	0.555	columbia_card_task_fmri	7.0	0.9090909090909092	89.0	-95.0	0.0909090909090909	16.0	6.0	1.0	-2.454762793958423	0.555	n/a	stim	poldrack-single-stim	s234	False	1
120.393	0.731	121.124	-3.1020090274739043	end_round	0.731	columbia_card_task_fmri	7.0	0.9	71.0	-95.0	0.1	16.0	7.0	1.0	-1.1777079304983855	0.731	6.0	stim	poldrack-single-stim	s234	False	1
121.877	1.5	121.126	n/a	-1.0	2.25	columbia_card_task_fmri	n/a	n/a	-1.0	n/a	n/a	n/a	n/a	n/a	n/a	n/a	n/a	ITI	poldrack-single-stim	s234	False	0
123.38	3.362	126.742	2.285490972526096	draw_card	3.362	columbia_card_task_fmri	9.0	0.9375	89.0	-100.0	0.0625	16.0	1.0	1.0	-5.392983817986039	3.362	n/a	stim	poldrack-single-stim	s234	False	1
126.744	0.402	127.146	1.8313243058594293	draw_card	0.402	columbia_card_task_fmri	9.0	0.9333333333333332	89.0	-100.0	0.0666666666666666	16.0	2.0	1.0	-4.58831123874921	0.402	n/a	stim	poldrack-single-stim	s234	False	1
127.149	0.34	127.489	1.3122766868118114	draw_card	0.34	columbia_card_task_fmri	9.0	0.9285714285714286	89.0	-100.0	0.0714285714285714	16.0	3.0	1.0	-3.705901726671968	0.34	n/a	stim	poldrack-single-stim	s234	False	1
127.49	0.594	128.084	0.713375587910712	draw_card	0.594	columbia_card_task_fmri	9.0	0.9230769230769232	89.0	-100.0	0.0769230769230769	16.0	4.0	1.0	-2.732539835311819	0.594	n/a	stim	poldrack-single-stim	s234	False	1
128.086	0.229	128.315	0.0146576391927639	draw_card	0.229	columbia_card_task_fmri	9.0	0.9166666666666666	89.0	-100.0	0.0833333333333333	16.0	5.0	1.0	-1.6516969495288372	0.229	n/a	stim	poldrack-single-stim	s234	False	1
128.318	0.317	128.635	-0.8110999365648139	draw_card	0.317	columbia_card_task_fmri	9.0	0.9090909090909092	89.0	-100.0	0.0909090909090909	16.0	6.0	1.0	-0.4424147977850445	0.317	n/a	stim	poldrack-single-stim	s234	False	1
128.637	0.364	129.001	-1.802009027473904	draw_card	0.364	columbia_card_task_fmri	9.0	0.9	89.0	-100.0	0.1	16.0	7.0	1.0	0.9222819934791886	0.364	n/a	stim	poldrack-single-stim	s234	False	1
129.004	1.055	130.059	-3.013120138585015	end_round	1.055	columbia_card_task_fmri	9.0	0.8888888888888888	71.0	-100.0	0.1111111111111111	16.0	8.0	1.0	2.477670504376768	1.055	7.0	stim	poldrack-single-stim	s234	False	1
130.811	1.5	130.06	n/a	-1.0	2.25	columbia_card_task_fmri	n/a	n/a	-1.0	n/a	n/a	n/a	n/a	n/a	n/a	n/a	n/a	ITI	poldrack-single-stim	s234	False	0
132.313	1.675	133.988	3.222990972526096	draw_card	1.675	columbia_card_task_fmri	15.0	0.875	89.0	-80.0	0.125	16.0	1.0	2.0	-0.3594151980516251	1.675	1.0	stim	poldrack-single-stim	s234	False	0
134.742	1.5	133.991	n/a	-1.0	2.522	columbia_card_task_fmri	n/a	n/a	-1.0	n/a	n/a	n/a	n/a	n/a	n/a	n/a	n/a	ITI	poldrack-single-stim	s234	False	0
136.516	0.662	137.178	5.347990972526096	draw_card	0.662	columbia_card_task_fmri	16.0	0.875	89.0	-70.0	0.125	16.0	1.0	2.0	-3.335869431099912	0.662	n/a	stim	poldrack-single-stim	s234	False	1
137.179	0.471	137.65	4.63132430585943	draw_card	0.471	columbia_card_task_fmri	16.0	0.8666666666666667	89.0	-70.0	0.1333333333333333	16.0	2.0	2.0	-2.543322056748572	0.471	n/a	stim	poldrack-single-stim	s234	False	1
137.653	0.384	138.037	3.812276686811811	draw_card	0.384	columbia_card_task_fmri	16.0	0.8571428571428572	89.0	-70.0	0.1428571428571428	16.0	3.0	2.0	-1.683974165371371	0.384	n/a	stim	poldrack-single-stim	s234	False	1
138.04	0.336	138.376	2.867221741756864	draw_card	0.336	columbia_card_task_fmri	16.0	0.8461538461538461	89.0	-70.0	0.1538461538461538	16.0	4.0	2.0	-0.7488058419641455	0.336	n/a	stim	poldrack-single-stim	s234	False	1
138.377	0.466	138.843	1.764657639192764	draw_card	0.466	columbia_card_task_fmri	16.0	0.8333333333333334	89.0	-70.0	0.1666666666666666	16.0	5.0	2.0	0.2725926472092155	0.466	5.0	stim	poldrack-single-stim	s234	False	0
139.597	1.5	138.846	n/a	-1.0	2.454	columbia_card_task_fmri	n/a	n/a	-1.0	n/a	n/a	n/a	n/a	n/a	n/a	n/a	n/a	ITI	poldrack-single-stim	s234	False	0
141.303	0.57	141.873	6.660490972526096	draw_card	0.57	columbia_card_task_fmri	30.0	0.6875	89.0	-45.0	0.3125	16.0	1.0	5.0	2.985703686911833	0.57	n/a	stim	poldrack-single-stim	s234	False	1
141.876	0.386	142.262	5.0979909725261	draw_card	0.386	columbia_card_task_fmri	30.0	0.6666666666666667	89.0	-45.0	0.3333333333333333	16.0	2.0	5.0	3.5776100258248533	0.386	n/a	stim	poldrack-single-stim	s234	False	1
142.265	0.372	142.637	3.312276686811808	draw_card	0.372	columbia_card_task_fmri	30.0	0.6428571428571428	89.0	-45.0	0.3571428571428571	16.0	3.0	5.0	4.159075550537985	0.372	n/a	stim	poldrack-single-stim	s234	False	1
142.638	2.113	144.751	1.2518371263722494	end_round	2.113	columbia_card_task_fmri	30.0	0.6153846153846154	71.0	-45.0	0.3846153846153846	16.0	4.0	5.0	4.710085907579561	2.113	3.0	stim	poldrack-single-stim	s234	False	1
145.505	1.5	144.754	n/a	-1.0	2.25	columbia_card_task_fmri	n/a	n/a	-1.0	n/a	n/a	n/a	n/a	n/a	n/a	n/a	n/a	ITI	poldrack-single-stim	s234	False	0
147.006	3.383	150.389	-1.56867569414057	draw_card	3.383	columbia_card_task_fmri	13.0	0.8333333333333334	89.0	-75.0	0.1666666666666666	6.0	1.0	1.0	1.0179452352017293	3.383	n/a	stim	poldrack-single-stim	s234	False	1
150.391	0.682	151.073	-4.502009027473903	draw_card	0.682	columbia_card_task_fmri	13.0	0.8	89.0	-75.0	0.2	6.0	2.0	1.0	3.422271565767602	0.682	2.0	stim	poldrack-single-stim	s234	False	0
151.827	1.5	151.076	n/a	-1.0	2.454	columbia_card_task_fmri	n/a	n/a	-1.0	n/a	n/a	n/a	n/a	n/a	n/a	n/a	n/a	ITI	poldrack-single-stim	s234	False	0
153.533	1.295	154.828	0.0979909725260978	draw_card	1.295	columbia_card_task_fmri	14.0	0.8333333333333334	89.0	-70.0	0.1666666666666666	6.0	1.0	1.0	-0.4727597786650648	1.295	n/a	stim	poldrack-single-stim	s234	False	1
154.83	0.516	155.346	-2.702009027473903	end_round	0.516	columbia_card_task_fmri	14.0	0.8	71.0	-70.0	0.2	6.0	2.0	1.0	1.822278060743379	0.516	1.0	stim	poldrack-single-stim	s234	False	1
156.1	1.5	155.349	n/a	-1.0	2.454	columbia_card_task_fmri	n/a	n/a	-1.0	n/a	n/a	n/a	n/a	n/a	n/a	n/a	n/a	ITI	poldrack-single-stim	s234	False	0
157.807	1.023	158.83	0.0979909725260978	draw_card	1.023	columbia_card_task_fmri	16.0	0.8333333333333334	89.0	-80.0	0.1666666666666666	6.0	1.0	1.0	3.9993570057080063	1.023	n/a	stim	poldrack-single-stim	s234	False	1
158.831	0.575	159.406	-3.1020090274739034	end_round	0.575	columbia_card_task_fmri	16.0	0.8	71.0	-80.0	0.2	6.0	2.0	1.0	6.622260199551448	0.575	1.0	stim	poldrack-single-stim	s234	False	1
160.16	1.5	159.409	n/a	-1.0	2.522	columbia_card_task_fmri	n/a	n/a	-1.0	n/a	n/a	n/a	n/a	n/a	n/a	n/a	n/a	ITI	poldrack-single-stim	s234	False	0
161.935	1.493	163.428	2.5979909725260977	draw_card	1.493	columbia_card_task_fmri	17.0	0.8333333333333334	89.0	-70.0	0.1666666666666666	6.0	1.0	1.0	0.6452689216394702	1.493	n/a	stim	poldrack-single-stim	s234	False	1
163.431	0.534	163.965	-0.3020090274739024	end_round	0.534	columbia_card_task_fmri	17.0	0.8	71.0	-70.0	0.2	6.0	2.0	1.0	3.022273133520713	0.534	1.0	stim	poldrack-single-stim	s234	False	1
164.718	1.5	163.967	n/a	-1.0	2.454	columbia_card_task_fmri	n/a	n/a	-1.0	n/a	n/a	n/a	n/a	n/a	n/a	n/a	n/a	ITI	poldrack-single-stim	s234	False	0
166.425	1.488	167.913	2.597990972526096	draw_card	1.488	columbia_card_task_fmri	25.0	0.75	89.0	-65.0	0.25	8.0	1.0	2.0	7.193401537491752	1.488	n/a	stim	poldrack-single-stim	s234	False	1
167.915	0.574	168.489	-0.6162947417596156	end_round	0.574	columbia_card_task_fmri	25.0	0.7142857142857143	71.0	-65.0	0.2857142857142857	8.0	2.0	2.0	8.880108887072808	0.574	1.0	stim	poldrack-single-stim	s234	False	1
169.241	1.5	168.49	n/a	-1.0	2.658	columbia_card_task_fmri	n/a	n/a	-1.0	n/a	n/a	n/a	n/a	n/a	n/a	n/a	n/a	ITI	poldrack-single-stim	s234	False	0
171.152	1.497	172.649	2.597990972526096	draw_card	1.497	columbia_card_task_fmri	30.0	0.75	89.0	-80.0	0.25	8.0	1.0	2.0	15.853633176028346	1.497	1.0	stim	poldrack-single-stim	s234	False	0
173.403	1.5	172.652	n/a	-1.0	2.386	columbia_card_task_fmri	n/a	n/a	-1.0	n/a	n/a	n/a	n/a	n/a	n/a	n/a	n/a	ITI	poldrack-single-stim	s234	False	0
175.041	1.609	176.65	2.297990972526097	draw_card	1.609	columbia_card_task_fmri	13.0	0.9	89.0	-95.0	0.1	10.0	1.0	1.0	0.6222833529430858	1.609	n/a	stim	poldrack-single-stim	s234	False	1
176.652	1.015	177.667	1.097990972526096	end_round	1.015	columbia_card_task_fmri	13.0	0.8888888888888888	71.0	-95.0	0.1111111111111111	10.0	2.0	1.0	2.163402121586479	1.015	1.0	stim	poldrack-single-stim	s234	False	1
178.421	1.5	177.67	n/a	-1.0	2.522	columbia_card_task_fmri	n/a	n/a	-1.0	n/a	n/a	n/a	n/a	n/a	n/a	n/a	n/a	ITI	poldrack-single-stim	s234	False	0
180.196	1.633	181.829	3.697990972526096	draw_card	1.633	columbia_card_task_fmri	14.0	0.9	89.0	-90.0	0.1	10.0	1.0	1.0	-0.5777109477678231	1.633	n/a	stim	poldrack-single-stim	s234	False	1
181.831	0.561	182.392	2.5424354169705388	end_round	0.561	columbia_card_task_fmri	14.0	0.8888888888888888	71.0	-90.0	0.1111111111111111	10.0	2.0	1.0	0.9063288399885536	0.561	1.0	stim	poldrack-single-stim	s234	False	1
183.146	1.5	182.395	n/a	-1.0	2.59	columbia_card_task_fmri	n/a	n/a	-1.0	n/a	n/a	n/a	n/a	n/a	n/a	n/a	n/a	ITI	poldrack-single-stim	s234	False	0
184.99	2.123	187.113	-1.1020090274739032	draw_card	2.123	columbia_card_task_fmri	16.0	0.8	89.0	-70.0	0.2	10.0	1.0	2.0	2.62227473773298	2.123	n/a	stim	poldrack-single-stim	s234	False	1
187.116	0.509	187.625	-3.013120138585015	end_round	0.509	columbia_card_task_fmri	16.0	0.7777777777777778	71.0	-70.0	0.2222222222222222	10.0	2.0	2.0	3.97588448298464	0.509	1.0	stim	poldrack-single-stim	s234	False	1
188.378	1.5	187.627	n/a	-1.0	2.386	columbia_card_task_fmri	n/a	n/a	-1.0	n/a	n/a	n/a	n/a	n/a	n/a	n/a	n/a	ITI	poldrack-single-stim	s234	False	0
190.017	1.645	191.662	-1.81867569414057	draw_card	1.645	columbia_card_task_fmri	7.0	0.9166666666666666	89.0	-100.0	0.0833333333333333	12.0	1.0	1.0	-2.20446476910832	1.645	n/a	stim	poldrack-single-stim	s234	False	1
191.665	0.476	192.141	-2.6292817547466325	draw_card	0.476	columbia_card_task_fmri	7.0	0.9090909090909092	89.0	-100.0	0.0909090909090909	12.0	2.0	1.0	-1.0173715085043007	0.476	n/a	stim	poldrack-single-stim	s234	False	1
192.144	0.579	192.723	-3.6020090274739043	end_round	0.579	columbia_card_task_fmri	7.0	0.9	71.0	-100.0	0.1	12.0	3.0	1.0	0.3222847378173483	0.579	2.0	stim	poldrack-single-stim	s234	False	1
193.477	1.5	192.726	n/a	-1.0	2.59	columbia_card_task_fmri	n/a	n/a	-1.0	n/a	n/a	n/a	n/a	n/a	n/a	n/a	n/a	ITI	poldrack-single-stim	s234	False	0
195.32	2.273	197.593	-1.5686756941405682	draw_card	2.273	columbia_card_task_fmri	14.0	0.8333333333333334	89.0	-80.0	0.1666666666666666	12.0	1.0	2.0	3.254003868409832	2.273	n/a	stim	poldrack-single-stim	s234	False	1
197.595	0.191	197.786	-2.9929181183829976	draw_card	0.191	columbia_card_task_fmri	14.0	0.8181818181818181	89.0	-80.0	0.1818181818181818	12.0	2.0	2.0	4.477560740166403	0.191	n/a	stim	poldrack-single-stim	s234	False	1
197.788	0.504	198.292	-4.702009027473903	end_round	0.504	columbia_card_task_fmri	14.0	0.8	71.0	-80.0	0.2	12.0	3.0	2.0	5.822262859730635	0.504	2.0	stim	poldrack-single-stim	s234	False	1
199.046	1.5	198.295	n/a	-1.0	2.318	columbia_card_task_fmri	n/a	n/a	-1.0	n/a	n/a	n/a	n/a	n/a	n/a	n/a	n/a	ITI	poldrack-single-stim	s234	False	0
200.617	1.335	201.952	0.0979909725260961	draw_card	1.335	columbia_card_task_fmri	15.0	0.8333333333333334	89.0	-75.0	0.1666666666666666	12.0	1.0	2.0	1.7632979745046882	1.335	1.0	stim	poldrack-single-stim	s234	False	0
202.706	1.5	201.955	n/a	-1.0	2.25	columbia_card_task_fmri	n/a	n/a	-1.0	n/a	n/a	n/a	n/a	n/a	n/a	n/a	n/a	ITI	poldrack-single-stim	s234	False	0
204.209	0.442	204.651	-0.902009027473904	draw_card	0.442	columbia_card_task_fmri	15.0	0.8	89.0	-65.0	0.2	15.0	1.0	3.0	0.2222852052123727	0.442	n/a	stim	poldrack-single-stim	s234	False	1
204.654	1.523	206.177	-2.0448661703310465	draw_card	1.523	columbia_card_task_fmri	15.0	0.7857142857142857	89.0	-65.0	0.2142857142857142	15.0	2.0	3.0	1.048353695523744	1.523	2.0	stim	poldrack-single-stim	s234	False	0
206.931	1.5	206.18	n/a	-1.0	2.454	columbia_card_task_fmri	n/a	n/a	-1.0	n/a	n/a	n/a	n/a	n/a	n/a	n/a	n/a	ITI	poldrack-single-stim	s234	False	0
208.638	1.228	209.866	-1.652009027473904	draw_card	1.228	columbia_card_task_fmri	14.0	0.8125	89.0	-70.0	0.1875	16.0	1.0	3.0	1.008521098876301	1.228	n/a	stim	poldrack-single-stim	s234	False	1
209.87	0.45	210.32	-2.702009027473903	draw_card	0.45	columbia_card_task_fmri	14.0	0.8	89.0	-70.0	0.2	16.0	2.0	3.0	1.822278060743379	0.45	n/a	stim	poldrack-single-stim	s234	False	1
210.323	0.367	210.69	-3.902009027473904	draw_card	0.367	columbia_card_task_fmri	14.0	0.7857142857142857	89.0	-70.0	0.2142857142857142	16.0	3.0	3.0	2.689650344140468	0.367	n/a	stim	poldrack-single-stim	s234	False	1
210.693	0.331	211.024	-5.286624412089289	draw_card	0.331	columbia_card_task_fmri	14.0	0.7692307692307692	89.0	-70.0	0.2307692307692307	16.0	4.0	3.0	3.613574544220704	0.331	4.0	stim	poldrack-single-stim	s234	False	0
211.777	1.5	211.026	n/a	-1.0	3.27	columbia_card_task_fmri	n/a	n/a	-1.0	n/a	n/a	n/a	n/a	n/a	n/a	n/a	n/a	ITI	poldrack-single-stim	s234	False	0
214.299	2.988	217.287	-1.714509027473904	draw_card	2.988	columbia_card_task_fmri	11.0	0.6875	89.0	-30.0	0.3125	16.0	1.0	5.0	-12.773603570807044	2.988	1.0	stim	poldrack-single-stim	s234	False	0
218.042	1.5	217.291	n/a	-1.0	2.25	columbia_card_task_fmri	n/a	n/a	-1.0	n/a	n/a	n/a	n/a	n/a	n/a	n/a	n/a	ITI	poldrack-single-stim	s234	False	0
219.543	1.517	221.06	3.097990972526096	draw_card	1.517	columbia_card_task_fmri	15.0	0.8666666666666667	89.0	-75.0	0.1333333333333333	15.0	1.0	2.0	-1.1835908187718935	1.517	1.0	stim	poldrack-single-stim	s234	False	0
221.816	1.5	221.065	n/a	-1.0	2.25	columbia_card_task_fmri	n/a	n/a	-1.0	n/a	n/a	n/a	n/a	n/a	n/a	n/a	n/a	ITI	poldrack-single-stim	s234	False	0
223.318	1.877	225.195	4.831324305859431	draw_card	1.877	columbia_card_task_fmri	17.0	0.8666666666666667	89.0	-75.0	0.1333333333333333	15.0	1.0	2.0	-0.5037249617750952	1.877	n/a	stim	poldrack-single-stim	s234	False	1
225.197	0.596	225.793	3.9551338296689553	draw_card	0.596	columbia_card_task_fmri	17.0	0.8571428571428572	89.0	-75.0	0.1428571428571428	15.0	2.0	2.0	0.4155780666782434	0.596	n/a	stim	poldrack-single-stim	s234	False	1
225.796	0.509	226.305	2.9441448186799426	draw_card	0.509	columbia_card_task_fmri	17.0	0.8461538461538461	89.0	-75.0	0.1538461538461538	15.0	3.0	2.0	1.4159913407569178	0.509	n/a	stim	poldrack-single-stim	s234	False	1
226.309	0.608	226.917	1.764657639192764	end_round	0.608	columbia_card_task_fmri	17.0	0.8333333333333334	71.0	-75.0	0.1666666666666666	15.0	4.0	2.0	2.508650855250117	0.608	3.0	stim	poldrack-single-stim	s234	False	1
227.671	1.5	226.92	n/a	-1.0	2.318	columbia_card_task_fmri	n/a	n/a	-1.0	n/a	n/a	n/a	n/a	n/a	n/a	n/a	n/a	ITI	poldrack-single-stim	s234	False	0
229.243	2.37	231.613	0.4104909725260961	draw_card	2.37	columbia_card_task_fmri	2.0	0.9375	89.0	-25.0	0.0625	16.0	1.0	1.0	-25.241470870791964	2.37	n/a	stim	poldrack-single-stim	s234	False	1
231.616	0.73	232.346	0.2979909725260961	draw_card	0.73	columbia_card_task_fmri	2.0	0.9333333333333332	89.0	-25.0	0.0666666666666666	16.0	2.0	1.0	-25.042168708569484	0.73	n/a	stim	poldrack-single-stim	s234	False	1
232.349	0.361	232.71	0.1694195439546677	draw_card	0.361	columbia_card_task_fmri	2.0	0.9285714285714286	89.0	-25.0	0.0714285714285714	16.0	3.0	1.0	-24.82361123548026	0.361	n/a	stim	poldrack-single-stim	s234	False	1
232.713	0.462	233.175	0.0210678956030192	end_round	0.462	columbia_card_task_fmri	2.0	0.9230769230769232	71.0	-25.0	0.0769230769230769	16.0	4.0	1.0	-24.58252495961349	0.462	3.0	stim	poldrack-single-stim	s234	False	1
233.929	1.5	233.178	n/a	-1.0	2.726	columbia_card_task_fmri	n/a	n/a	-1.0	n/a	n/a	n/a	n/a	n/a	n/a	n/a	n/a	ITI	poldrack-single-stim	s234	False	0
235.909	1.96	237.869	2.597990972526096	draw_card	1.96	columbia_card_task_fmri	9.0	0.9375	89.0	-95.0	0.0625	16.0	1.0	1.0	-6.603282365410493	1.96	n/a	stim	poldrack-single-stim	s234	False	1
237.872	1.328	239.2	2.164657639192763	draw_card	1.328	columbia_card_task_fmri	9.0	0.9333333333333332	89.0	-95.0	0.0666666666666666	16.0	2.0	1.0	-5.835521878310718	1.328	n/a	stim	poldrack-single-stim	s234	False	1
239.204	0.639	239.843	1.6694195439546682	draw_card	0.639	columbia_card_task_fmri	9.0	0.9285714285714286	89.0	-95.0	0.0714285714285714	16.0	3.0	1.0	-4.993590388254479	0.639	n/a	stim	poldrack-single-stim	s234	False	1
239.846	0.357	240.203	1.097990972526096	draw_card	0.357	columbia_card_task_fmri	9.0	0.9230769230769232	89.0	-95.0	0.0769230769230769	16.0	4.0	1.0	-4.064878663402592	0.357	n/a	stim	poldrack-single-stim	s234	False	1
240.207	0.564	240.771	0.43132430585943	draw_card	0.564	columbia_card_task_fmri	9.0	0.9166666666666666	89.0	-95.0	0.0833333333333333	16.0	5.0	1.0	-3.033616283661118	0.564	n/a	stim	poldrack-single-stim	s234	False	1
240.774	1.169	241.943	-0.3565544820193589	draw_card	1.169	columbia_card_task_fmri	9.0	0.9090909090909092	89.0	-95.0	0.0909090909090909	16.0	6.0	1.0	-1.8798063680566732	1.169	n/a	stim	poldrack-single-stim	s234	False	1
241.947	1.74	243.687	-1.3020090274739042	end_round	1.74	columbia_card_task_fmri	9.0	0.9	71.0	-95.0	0.1	16.0	7.0	1.0	-0.5777109477678231	1.74	6.0	stim	poldrack-single-stim	s234	False	1
244.44	1.5	243.689	n/a	-1.0	2.386	columbia_card_task_fmri	n/a	n/a	-1.0	n/a	n/a	n/a	n/a	n/a	n/a	n/a	n/a	ITI	poldrack-single-stim	s234	False	0
246.079	1.501	247.58	4.160490972526096	draw_card	1.501	columbia_card_task_fmri	11.0	0.9375	89.0	-100.0	0.0625	16.0	1.0	1.0	-4.90886417834156	1.501	1.0	stim	poldrack-single-stim	s234	False	0
248.334	1.5	247.583	n/a	-1.0	2.318	columbia_card_task_fmri	n/a	n/a	-1.0	n/a	n/a	n/a	n/a	n/a	n/a	n/a	n/a	ITI	poldrack-single-stim	s234	False	0
249.905	2.182	252.087	4.722990972526096	draw_card	2.182	columbia_card_task_fmri	16.0	0.875	89.0	-75.0	0.125	16.0	1.0	2.0	-1.6822841365925392	2.182	n/a	stim	poldrack-single-stim	s234	False	1
252.091	0.395	252.486	3.964657639192763	draw_card	0.395	columbia_card_task_fmri	16.0	0.8666666666666667	89.0	-75.0	0.1333333333333333	16.0	2.0	2.0	-0.8436579090177574	0.395	n/a	stim	poldrack-single-stim	s234	False	1
252.489	0.377	252.866	3.0979909725260977	draw_card	0.377	columbia_card_task_fmri	16.0	0.8571428571428572	89.0	-75.0	0.1428571428571428	16.0	3.0	2.0	0.0656525993902406	0.377	n/a	stim	poldrack-single-stim	s234	False	1
252.869	0.412	253.281	2.097990972526096	draw_card	0.412	columbia_card_task_fmri	16.0	0.8461538461538461	89.0	-75.0	0.1538461538461538	16.0	4.0	2.0	1.0551917178952053	0.412	n/a	stim	poldrack-single-stim	s234	False	1
253.284	0.851	254.135	0.93132430585943	draw_card	0.851	columbia_card_task_fmri	16.0	0.8333333333333334	89.0	-75.0	0.1666666666666666	16.0	5.0	2.0	2.135974397779961	0.851	n/a	stim	poldrack-single-stim	s234	False	1
254.138	2.521	256.659	-0.4474635729284506	draw_card	2.521	columbia_card_task_fmri	16.0	0.8181818181818181	89.0	-75.0	0.1818181818181818	16.0	6.0	2.0	3.32048128204864	2.521	n/a	stim	poldrack-single-stim	s234	False	1
256.663	2.186	258.849	-2.1020090274739034	end_round	2.186	columbia_card_task_fmri	16.0	0.8	71.0	-75.0	0.2	16.0	7.0	2.0	4.622267069243804	2.186	6.0	stim	poldrack-single-stim	s234	False	1
259.603	1.5	258.852	n/a	-1.0	2.25	columbia_card_task_fmri	n/a	n/a	-1.0	n/a	n/a	n/a	n/a	n/a	n/a	n/a	n/a	ITI	poldrack-single-stim	s234	False	0
261.106	1.761	262.867	4.972990972526096	draw_card	1.761	columbia_card_task_fmri	17.0	0.875	89.0	-80.0	0.125	16.0	1.0	2.0	0.3020194789593375	1.761	n/a	stim	poldrack-single-stim	s234	False	1
262.871	0.371	263.242	4.1646576391927645	draw_card	0.371	columbia_card_task_fmri	17.0	0.8666666666666667	89.0	-80.0	0.1333333333333333	16.0	2.0	2.0	1.1959402961862438	0.371	n/a	stim	poldrack-single-stim	s234	False	1
263.246	0.283	263.529	3.240848115383242	draw_card	0.283	columbia_card_task_fmri	17.0	0.8571428571428572	89.0	-80.0	0.1428571428571428	16.0	3.0	2.0	2.165205909967696	0.283	n/a	stim	poldrack-single-stim	s234	False	1
263.533	0.245	263.778	2.1749140494491725	draw_card	0.245	columbia_card_task_fmri	17.0	0.8461538461538461	89.0	-80.0	0.1538461538461538	16.0	4.0	2.0	3.21998994663948	0.245	n/a	stim	poldrack-single-stim	s234	False	1
263.781	0.924	264.705	0.9313243058594318	end_round	0.924	columbia_card_task_fmri	17.0	0.8333333333333334	71.0	-80.0	0.1666666666666666	16.0	5.0	2.0	4.372033618509455	0.924	4.0	stim	poldrack-single-stim	s234	False	1
265.46	1.5	264.709	n/a	-1.0	2.25	columbia_card_task_fmri	n/a	n/a	-1.0	n/a	n/a	n/a	n/a	n/a	n/a	n/a	n/a	ITI	poldrack-single-stim	s234	False	0
277.966	1.449	279.415	-0.735342360807236	draw_card	1.449	columbia_card_task_fmri	13.0	0.8333333333333334	89.0	-70.0	0.1666666666666666	6.0	1.0	1.0	-0.8454359271455907	1.449	n/a	stim	poldrack-single-stim	s234	False	1
279.418	0.51	279.928	-3.502009027473904	end_round	0.51	columbia_card_task_fmri	13.0	0.8	71.0	-70.0	0.2	6.0	2.0	1.0	1.4222797823025957	0.51	1.0	stim	poldrack-single-stim	s234	False	1
280.682	1.5	279.931	n/a	-1.0	2.454	columbia_card_task_fmri	n/a	n/a	-1.0	n/a	n/a	n/a	n/a	n/a	n/a	n/a	n/a	ITI	poldrack-single-stim	s234	False	0
282.388	1.055	283.443	-0.735342360807236	draw_card	1.055	columbia_card_task_fmri	15.0	0.8333333333333334	89.0	-80.0	0.1666666666666666	6.0	1.0	1.0	3.626680422031626	1.055	n/a	stim	poldrack-single-stim	s234	False	1
283.446	0.453	283.899	-3.902009027473904	end_round	0.453	columbia_card_task_fmri	15.0	0.8	71.0	-80.0	0.2	6.0	2.0	1.0	6.22226151564017	0.453	1.0	stim	poldrack-single-stim	s234	False	1
284.654	1.5	283.903	n/a	-1.0	2.454	columbia_card_task_fmri	n/a	n/a	-1.0	n/a	n/a	n/a	n/a	n/a	n/a	n/a	n/a	ITI	poldrack-single-stim	s234	False	0
286.36	1.23	287.59	0.93132430585943	draw_card	1.23	columbia_card_task_fmri	16.0	0.8333333333333334	89.0	-75.0	0.1666666666666666	6.0	1.0	1.0	2.135974397779961	1.23	n/a	stim	poldrack-single-stim	s234	False	1
287.593	0.404	287.997	-2.1020090274739034	end_round	0.404	columbia_card_task_fmri	16.0	0.8	71.0	-75.0	0.2	6.0	2.0	1.0	4.622267069243804	0.404	1.0	stim	poldrack-single-stim	s234	False	1
288.751	1.5	288.0	n/a	-1.0	2.522	columbia_card_task_fmri	n/a	n/a	-1.0	n/a	n/a	n/a	n/a	n/a	n/a	n/a	n/a	ITI	poldrack-single-stim	s234	False	0
290.527	1.989	292.516	2.097990972526096	draw_card	1.989	columbia_card_task_fmri	21.0	0.75	89.0	-55.0	0.25	8.0	1.0	2.0	1.1312464049967943	1.989	n/a	stim	poldrack-single-stim	s234	False	1
292.519	0.794	293.313	-0.6162947417596174	end_round	0.794	columbia_card_task_fmri	21.0	0.7142857142857143	71.0	-55.0	0.2857142857142857	8.0	2.0	2.0	2.555575319269849	0.794	1.0	stim	poldrack-single-stim	s234	False	1
294.075	1.5	293.324	n/a	-1.0	2.386	columbia_card_task_fmri	n/a	n/a	-1.0	n/a	n/a	n/a	n/a	n/a	n/a	n/a	n/a	ITI	poldrack-single-stim	s234	False	0
295.716	2.937	298.653	3.347990972526096	draw_card	2.937	columbia_card_task_fmri	26.0	0.75	89.0	-65.0	0.25	8.0	1.0	2.0	7.626412885580677	2.937	1.0	stim	poldrack-single-stim	s234	False	0
299.406	1.5	298.655	n/a	-1.0	2.454	columbia_card_task_fmri	n/a	n/a	-1.0	n/a	n/a	n/a	n/a	n/a	n/a	n/a	n/a	ITI	poldrack-single-stim	s234	False	0
301.114	1.361	302.475	-1.56867569414057	draw_card	1.361	columbia_card_task_fmri	15.0	0.7777777777777778	89.0	-60.0	0.2222222222222222	9.0	1.0	2.0	-0.5972326283084861	1.361	n/a	stim	poldrack-single-stim	s234	False	1
302.479	1.648	304.127	-3.652009027473904	end_round	1.648	columbia_card_task_fmri	15.0	0.75	71.0	-60.0	0.25	9.0	2.0	2.0	0.698235648302159	1.648	1.0	stim	poldrack-single-stim	s234	False	1
304.881	1.5	304.13	n/a	-1.0	2.522	columbia_card_task_fmri	n/a	n/a	-1.0	n/a	n/a	n/a	n/a	n/a	n/a	n/a	n/a	ITI	poldrack-single-stim	s234	False	0
306.656	1.399	308.055	2.797990972526097	draw_card	1.399	columbia_card_task_fmri	13.0	0.9	89.0	-90.0	0.1	10.0	1.0	1.0	-0.8777094537799357	1.399	n/a	stim	poldrack-single-stim	s234	False	1
308.059	0.617	308.676	1.6535465280816517	draw_card	0.617	columbia_card_task_fmri	13.0	0.8888888888888888	89.0	-90.0	0.1111111111111111	10.0	2.0	1.0	0.5920605856142558	0.617	n/a	stim	poldrack-single-stim	s234	False	1
308.679	1.076	309.755	0.2229909725260961	draw_card	1.076	columbia_card_task_fmri	13.0	0.875	89.0	-90.0	0.125	10.0	3.0	1.0	2.286324244143998	1.076	n/a	stim	poldrack-single-stim	s234	False	1
309.759	0.57	310.329	-1.6162947417596156	end_round	0.57	columbia_card_task_fmri	13.0	0.8571428571428572	71.0	-90.0	0.1428571428571428	10.0	4.0	1.0	4.264760307073942	0.57	3.0	stim	poldrack-single-stim	s234	False	1
311.083	1.5	310.332	n/a	-1.0	2.522	columbia_card_task_fmri	n/a	n/a	-1.0	n/a	n/a	n/a	n/a	n/a	n/a	n/a	n/a	ITI	poldrack-single-stim	s234	False	0
312.858	1.674	314.532	4.097990972526096	draw_card	1.674	columbia_card_task_fmri	15.0	0.9	89.0	-95.0	0.1	10.0	1.0	1.0	1.2222806587326431	1.674	n/a	stim	poldrack-single-stim	s234	False	1
314.534	0.31	314.844	2.8757687503038727	draw_card	0.31	columbia_card_task_fmri	15.0	0.8888888888888888	89.0	-95.0	0.1111111111111111	10.0	2.0	1.0	2.79193891076212	0.31	n/a	stim	poldrack-single-stim	s234	False	1
314.848	0.349	315.197	1.347990972526096	draw_card	0.349	columbia_card_task_fmri	15.0	0.875	89.0	-95.0	0.125	10.0	3.0	1.0	4.601347672228741	0.349	n/a	stim	poldrack-single-stim	s234	False	1
315.199	0.739	315.938	-0.6162947417596174	end_round	0.739	columbia_card_task_fmri	15.0	0.8571428571428572	71.0	-95.0	0.1428571428571428	10.0	4.0	1.0	6.714241573086575	0.739	3.0	stim	poldrack-single-stim	s234	False	1
316.693	1.5	315.942	n/a	-1.0	2.59	columbia_card_task_fmri	n/a	n/a	-1.0	n/a	n/a	n/a	n/a	n/a	n/a	n/a	n/a	ITI	poldrack-single-stim	s234	False	0
318.535	1.434	319.969	-0.1020090274739031	draw_card	1.434	columbia_card_task_fmri	16.0	0.8	89.0	-65.0	0.2	10.0	1.0	2.0	0.6222833529430858	1.434	n/a	stim	poldrack-single-stim	s234	False	1
319.974	0.275	320.249	-1.902009027473902	draw_card	0.275	columbia_card_task_fmri	16.0	0.7777777777777778	89.0	-65.0	0.2222222222222222	10.0	2.0	2.0	1.897194223823192	0.275	2.0	stim	poldrack-single-stim	s234	False	0
321.003	1.5	320.252	n/a	-1.0	2.454	columbia_card_task_fmri	n/a	n/a	-1.0	n/a	n/a	n/a	n/a	n/a	n/a	n/a	n/a	ITI	poldrack-single-stim	s234	False	0
322.711	1.539	324.25	-1.402009027473904	draw_card	1.539	columbia_card_task_fmri	7.0	0.9166666666666666	89.0	-95.0	0.0833333333333333	12.0	1.0	1.0	-3.586383806990618	1.539	1.0	stim	poldrack-single-stim	s234	False	0
325.005	1.5	324.254	n/a	-1.0	2.318	columbia_card_task_fmri	n/a	n/a	-1.0	n/a	n/a	n/a	n/a	n/a	n/a	n/a	n/a	ITI	poldrack-single-stim	s234	False	0
326.575	0.699	327.274	-0.735342360807236	draw_card	0.699	columbia_card_task_fmri	14.0	0.8333333333333334	89.0	-75.0	0.1666666666666666	12.0	1.0	2.0	1.3906215865769411	0.699	1.0	stim	poldrack-single-stim	s234	False	0
328.03	1.5	327.279	n/a	-1.0	2.25	columbia_card_task_fmri	n/a	n/a	-1.0	n/a	n/a	n/a	n/a	n/a	n/a	n/a	n/a	ITI	poldrack-single-stim	s234	False	0
329.534	1.12	330.654	0.93132430585943	draw_card	1.12	columbia_card_task_fmri	15.0	0.8333333333333334	89.0	-70.0	0.1666666666666666	12.0	1.0	2.0	-0.1000835867079246	1.12	1.0	stim	poldrack-single-stim	s234	False	0
331.408	1.5	330.657	n/a	-1.0	2.658	columbia_card_task_fmri	n/a	n/a	-1.0	n/a	n/a	n/a	n/a	n/a	n/a	n/a	n/a	ITI	poldrack-single-stim	s234	False	0
333.32	0.612	333.932	-1.1020090274739032	draw_card	0.612	columbia_card_task_fmri	16.0	0.8	89.0	-70.0	0.2	15.0	1.0	3.0	2.62227473773298	0.612	1.0	stim	poldrack-single-stim	s234	False	0
334.687	1.5	333.936	n/a	-1.0	2.454	columbia_card_task_fmri	n/a	n/a	-1.0	n/a	n/a	n/a	n/a	n/a	n/a	n/a	n/a	ITI	poldrack-single-stim	s234	False	0
336.395	2.13	338.525	-0.7145090274739039	draw_card	2.13	columbia_card_task_fmri	14.0	0.8125	89.0	-65.0	0.1875	16.0	1.0	3.0	-0.9430315075309323	2.13	n/a	stim	poldrack-single-stim	s234	False	1
338.529	1.625	340.154	-1.7020090274739028	draw_card	1.625	columbia_card_task_fmri	14.0	0.8	89.0	-65.0	0.2	16.0	2.0	3.0	-0.1777128956257776	1.625	n/a	stim	poldrack-single-stim	s234	False	1
340.157	0.73	340.887	-2.830580456045331	draw_card	0.73	columbia_card_task_fmri	14.0	0.7857142857142857	89.0	-65.0	0.2142857142857142	16.0	3.0	3.0	0.6380296435694461	0.73	3.0	stim	poldrack-single-stim	s234	False	0
341.641	1.5	340.89	n/a	-1.0	2.386	columbia_card_task_fmri	n/a	n/a	-1.0	n/a	n/a	n/a	n/a	n/a	n/a	n/a	n/a	ITI	poldrack-single-stim	s234	False	0
343.28	1.355	344.635	-0.964509027473904	draw_card	1.355	columbia_card_task_fmri	16.0	0.8125	89.0	-75.0	0.1875	16.0	1.0	3.0	3.740696458868314	1.355	1.0	stim	poldrack-single-stim	s234	False	0
345.389	1.5	344.638	n/a	-1.0	2.59	columbia_card_task_fmri	n/a	n/a	-1.0	n/a	n/a	n/a	n/a	n/a	n/a	n/a	n/a	ITI	poldrack-single-stim	s234	False	0
347.233	0.819	348.052	3.297990972526097	draw_card	0.819	columbia_card_task_fmri	16.0	0.8666666666666667	89.0	-80.0	0.1333333333333333	15.0	1.0	2.0	0.8560071786507919	0.819	1.0	stim	poldrack-single-stim	s234	False	0
348.807	1.5	348.056	n/a	-1.0	2.318	columbia_card_task_fmri	n/a	n/a	-1.0	n/a	n/a	n/a	n/a	n/a	n/a	n/a	n/a	ITI	poldrack-single-stim	s234	False	0
350.379	1.823	352.202	4.1646576391927645	draw_card	1.823	columbia_card_task_fmri	17.0	0.8666666666666667	89.0	-80.0	0.1333333333333333	15.0	1.0	2.0	1.1959402961862438	1.823	n/a	stim	poldrack-single-stim	s234	False	1
352.205	0.602	352.807	3.240848115383242	draw_card	0.602	columbia_card_task_fmri	17.0	0.8571428571428572	89.0	-80.0	0.1428571428571428	15.0	2.0	2.0	2.165205909967696	0.602	n/a	stim	poldrack-single-stim	s234	False	1
352.81	0.424	353.234	2.1749140494491725	draw_card	0.424	columbia_card_task_fmri	17.0	0.8461538461538461	89.0	-80.0	0.1538461538461538	15.0	3.0	2.0	3.21998994663948	0.424	n/a	stim	poldrack-single-stim	s234	False	1
353.238	0.473	353.711	0.9313243058594318	end_round	0.473	columbia_card_task_fmri	17.0	0.8333333333333334	71.0	-80.0	0.1666666666666666	15.0	4.0	2.0	4.372033618509455	0.473	3.0	stim	poldrack-single-stim	s234	False	1
354.466	1.5	353.715	n/a	-1.0	2.59	columbia_card_task_fmri	n/a	n/a	-1.0	n/a	n/a	n/a	n/a	n/a	n/a	n/a	n/a	ITI	poldrack-single-stim	s234	False	0
356.311	4.088	360.399	0.0979909725260961	draw_card	4.088	columbia_card_task_fmri	1.0	0.9375	89.0	-15.0	0.0625	16.0	1.0	1.0	-27.903642038756075	4.088	n/a	stim	poldrack-single-stim	s234	False	1
360.402	1.255	361.657	0.0313243058594294	draw_card	1.255	columbia_card_task_fmri	1.0	0.9333333333333332	89.0	-15.0	0.0666666666666666	16.0	2.0	1.0	-27.78556084292057	1.255	n/a	stim	poldrack-single-stim	s234	False	1
361.66	0.49	362.15	-0.0448661703310466	end_round	0.49	columbia_card_task_fmri	1.0	0.9285714285714286	71.0	-15.0	0.0714285714285714	16.0	3.0	1.0	-27.65606982378246	0.49	2.0	stim	poldrack-single-stim	s234	False	1
362.906	1.5	362.155	n/a	-1.0	2.386	columbia_card_task_fmri	n/a	n/a	-1.0	n/a	n/a	n/a	n/a	n/a	n/a	n/a	n/a	ITI	poldrack-single-stim	s234	False	0
364.546	1.512	366.058	3.222990972526096	draw_card	1.512	columbia_card_task_fmri	10.0	0.9375	89.0	-100.0	0.0625	16.0	1.0	1.0	-5.150924013066518	1.512	n/a	stim	poldrack-single-stim	s234	False	1
366.061	0.395	366.456	2.764657639192763	draw_card	0.395	columbia_card_task_fmri	10.0	0.9333333333333332	89.0	-100.0	0.0666666666666666	16.0	2.0	1.0	-4.338869018226575	0.395	n/a	stim	poldrack-single-stim	s234	False	1
366.459	0.35	366.809	2.24084811538324	draw_card	0.35	columbia_card_task_fmri	10.0	0.9285714285714286	89.0	-100.0	0.0714285714285714	16.0	3.0	1.0	-3.448363904656162	0.35	n/a	stim	poldrack-single-stim	s234	False	1
366.812	0.36	367.172	1.6364525109876351	draw_card	0.36	columbia_card_task_fmri	10.0	0.9230769230769232	89.0	-100.0	0.0769230769230769	16.0	4.0	1.0	-2.466071983000276	0.36	n/a	stim	poldrack-single-stim	s234	False	1
367.177	0.566	367.743	0.93132430585943	end_round	0.566	columbia_card_task_fmri	10.0	0.9166666666666666	71.0	-100.0	0.0833333333333333	16.0	5.0	1.0	-1.3753129991192343	0.566	4.0	stim	poldrack-single-stim	s234	False	1
368.498	1.5	367.747	n/a	-1.0	2.318	columbia_card_task_fmri	n/a	n/a	-1.0	n/a	n/a	n/a	n/a	n/a	n/a	n/a	n/a	ITI	poldrack-single-stim	s234	False	0
370.071	1.322	371.393	3.847990972526096	draw_card	1.322	columbia_card_task_fmri	15.0	0.875	89.0	-75.0	0.125	16.0	1.0	2.0	-2.013001277936961	1.322	n/a	stim	poldrack-single-stim	s234	False	1
371.396	0.34	371.736	3.097990972526096	draw_card	0.34	columbia_card_task_fmri	15.0	0.8666666666666667	89.0	-75.0	0.1333333333333333	16.0	2.0	2.0	-1.1835908187718935	0.34	n/a	stim	poldrack-single-stim	s234	False	1
371.741	0.3	372.041	2.24084811538324	draw_card	0.3	columbia_card_task_fmri	15.0	0.8571428571428572	89.0	-75.0	0.1428571428571428	16.0	3.0	2.0	-0.2842728314797078	0.3	n/a	stim	poldrack-single-stim	s234	False	1
372.046	0.329	372.375	1.2518371263722494	draw_card	0.329	columbia_card_task_fmri	15.0	0.8461538461538461	89.0	-75.0	0.1538461538461538	16.0	4.0	2.0	0.6943921303539824	0.329	4.0	stim	poldrack-single-stim	s234	False	0
373.129	1.5	372.378	n/a	-1.0	2.318	columbia_card_task_fmri	n/a	n/a	-1.0	n/a	n/a	n/a	n/a	n/a	n/a	n/a	n/a	ITI	poldrack-single-stim	s234	False	0
374.701	1.326	376.027	4.097990972526096	draw_card	1.326	columbia_card_task_fmri	16.0	0.875	89.0	-80.0	0.125	16.0	1.0	2.0	-0.0286978759562082	1.326	1.0	stim	poldrack-single-stim	s234	False	0
376.782	1.5	376.031	n/a	-1.0	2.318	columbia_card_task_fmri	n/a	n/a	-1.0	n/a	n/a	n/a	n/a	n/a	n/a	n/a	n/a	ITI	poldrack-single-stim	s234	False	0
378.354	2.718	381.072	1.285490972526096	draw_card	2.718	columbia_card_task_fmri	4.0	0.6875	89.0	-5.0	0.3125	16.0	1.0	5.0	-27.605102437217795	2.718	n/a	stim	poldrack-single-stim	s234	False	1
381.075	1.579	382.654	1.0979909725260966	draw_card	1.579	columbia_card_task_fmri	4.0	0.6666666666666667	89.0	-5.0	0.3333333333333333	16.0	2.0	5.0	-27.534092659310552	1.579	2.0	stim	poldrack-single-stim	s234	False	0
383.411	1.5	382.66	n/a	-1.0	2.386	columbia_card_task_fmri	n/a	n/a	-1.0	n/a	n/a	n/a	n/a	n/a	n/a	n/a	n/a	ITI	poldrack-single-stim	s234	False	0
385.052	1.722	386.774	-1.5686756941405682	draw_card	1.722	columbia_card_task_fmri	14.0	0.8333333333333334	89.0	-80.0	0.1666666666666666	6.0	1.0	1.0	3.254003868409832	1.722	n/a	stim	poldrack-single-stim	s234	False	1
386.778	0.58	387.358	-4.702009027473903	end_round	0.58	columbia_card_task_fmri	14.0	0.8	71.0	-80.0	0.2	6.0	2.0	1.0	5.822262859730635	0.58	1.0	stim	poldrack-single-stim	s234	False	1
388.113	1.5	387.362	n/a	-1.0	2.25	columbia_card_task_fmri	n/a	n/a	-1.0	n/a	n/a	n/a	n/a	n/a	n/a	n/a	n/a	ITI	poldrack-single-stim	s234	False	0
389.616	0.983	390.599	0.0979909725260961	draw_card	0.983	columbia_card_task_fmri	15.0	0.8333333333333334	89.0	-75.0	0.1666666666666666	6.0	1.0	1.0	1.7632979745046882	0.983	n/a	stim	poldrack-single-stim	s234	False	1
390.603	0.465	391.068	-2.902009027473904	end_round	0.465	columbia_card_task_fmri	15.0	0.8	71.0	-75.0	0.2	6.0	2.0	1.0	4.222268534777669	0.465	1.0	stim	poldrack-single-stim	s234	False	1
391.824	1.5	391.073	n/a	-1.0	2.386	columbia_card_task_fmri	n/a	n/a	-1.0	n/a	n/a	n/a	n/a	n/a	n/a	n/a	n/a	ITI	poldrack-single-stim	s234	False	0
393.464	1.016	394.48	1.764657639192764	draw_card	1.016	columbia_card_task_fmri	16.0	0.8333333333333334	89.0	-70.0	0.1666666666666666	6.0	1.0	1.0	0.2725926472092155	1.016	n/a	stim	poldrack-single-stim	s234	False	1
394.484	0.455	394.939	-1.1020090274739032	end_round	0.455	columbia_card_task_fmri	16.0	0.8	71.0	-70.0	0.2	6.0	2.0	1.0	2.62227473773298	0.455	1.0	stim	poldrack-single-stim	s234	False	1
395.694	1.5	394.943	n/a	-1.0	2.59	columbia_card_task_fmri	n/a	n/a	-1.0	n/a	n/a	n/a	n/a	n/a	n/a	n/a	n/a	ITI	poldrack-single-stim	s234	False	0
397.538	1.611	399.149	2.347990972526096	draw_card	1.611	columbia_card_task_fmri	23.0	0.75	89.0	-60.0	0.25	8.0	1.0	2.0	4.162323014273895	1.611	n/a	stim	poldrack-single-stim	s234	False	1
399.154	0.824	399.978	-0.6162947417596156	end_round	0.824	columbia_card_task_fmri	23.0	0.7142857142857143	71.0	-60.0	0.2857142857142857	8.0	2.0	2.0	5.717841185900532	0.824	1.0	stim	poldrack-single-stim	s234	False	1
400.733	1.5	399.982	n/a	-1.0	2.658	columbia_card_task_fmri	n/a	n/a	-1.0	n/a	n/a	n/a	n/a	n/a	n/a	n/a	n/a	ITI	poldrack-single-stim	s234	False	0
402.645	0.973	403.618	2.847990972526096	draw_card	0.973	columbia_card_task_fmri	27.0	0.75	89.0	-70.0	0.25	8.0	1.0	2.0	10.224481560294612	0.973	n/a	stim	poldrack-single-stim	s234	False	1
403.622	0.478	404.1	-0.6162947417596192	end_round	0.478	columbia_card_task_fmri	27.0	0.7142857142857143	71.0	-70.0	0.2857142857142857	8.0	2.0	2.0	12.042378025620131	0.478	1.0	stim	poldrack-single-stim	s234	False	1
404.854	1.5	404.103	n/a	-1.0	2.386	columbia_card_task_fmri	n/a	n/a	-1.0	n/a	n/a	n/a	n/a	n/a	n/a	n/a	n/a	ITI	poldrack-single-stim	s234	False	0
406.494	1.04	407.534	-1.902009027473902	draw_card	1.04	columbia_card_task_fmri	16.0	0.7777777777777778	89.0	-65.0	0.2222222222222222	9.0	1.0	2.0	1.897194223823192	1.04	n/a	stim	poldrack-single-stim	s234	False	1
407.539	0.383	407.922	-4.152009027473904	end_round	0.383	columbia_card_task_fmri	16.0	0.75	71.0	-65.0	0.25	9.0	2.0	2.0	3.296300908909089	0.383	1.0	stim	poldrack-single-stim	s234	False	1
408.677	1.5	407.926	n/a	-1.0	2.386	columbia_card_task_fmri	n/a	n/a	-1.0	n/a	n/a	n/a	n/a	n/a	n/a	n/a	n/a	ITI	poldrack-single-stim	s234	False	0
410.317	2.92	413.237	3.297990972526097	draw_card	2.92	columbia_card_task_fmri	13.0	0.9	89.0	-85.0	0.1	10.0	1.0	1.0	-2.377701526500932	2.92	n/a	stim	poldrack-single-stim	s234	False	1
413.241	0.312	413.553	2.2091020836372066	draw_card	0.312	columbia_card_task_fmri	13.0	0.8888888888888888	89.0	-85.0	0.1111111111111111	10.0	2.0	1.0	-0.97928024968299	0.312	n/a	stim	poldrack-single-stim	s234	False	1
413.557	0.316	413.873	0.8479909725260961	draw_card	0.316	columbia_card_task_fmri	13.0	0.875	89.0	-85.0	0.125	10.0	3.0	1.0	0.6327368656903261	0.316	n/a	stim	poldrack-single-stim	s234	False	1
413.877	0.484	414.361	-0.902009027473902	end_round	0.484	columbia_card_task_fmri	13.0	0.8571428571428572	71.0	-85.0	0.1428571428571428	10.0	4.0	1.0	2.515131572754832	0.484	3.0	stim	poldrack-single-stim	s234	False	1
415.116	1.5	414.365	n/a	-1.0	2.25	columbia_card_task_fmri	n/a	n/a	-1.0	n/a	n/a	n/a	n/a	n/a	n/a	n/a	n/a	ITI	poldrack-single-stim	s234	False	0
416.622	2.67	419.292	-1.7020090274739028	draw_card	2.67	columbia_card_task_fmri	14.0	0.8	89.0	-65.0	0.2	10.0	1.0	2.0	-0.1777128956257776	2.67	n/a	stim	poldrack-single-stim	s234	False	1
419.295	0.214	419.509	-3.4575645830294577	draw_card	0.214	columbia_card_task_fmri	14.0	0.7777777777777778	89.0	-65.0	0.2222222222222222	10.0	2.0	2.0	1.065718413945696	0.214	n/a	stim	poldrack-single-stim	s234	False	1
419.512	0.359	419.871	-5.652009027473904	draw_card	0.359	columbia_card_task_fmri	14.0	0.75	89.0	-65.0	0.25	10.0	3.0	2.0	2.430278970551875	0.359	n/a	stim	poldrack-single-stim	s234	False	1
419.875	0.3	420.175	-8.473437598902473	draw_card	0.3	columbia_card_task_fmri	14.0	0.7142857142857143	89.0	-65.0	0.2857142857142857	10.0	4.0	2.0	3.910831863338238	0.3	n/a	stim	poldrack-single-stim	s234	False	1
420.178	0.338	420.516	-12.235342360807234	end_round	0.338	columbia_card_task_fmri	14.0	0.6666666666666667	71.0	-65.0	0.3333333333333333	10.0	5.0	2.0	5.4632212332773165	0.338	4.0	stim	poldrack-single-stim	s234	False	1
421.272	1.5	420.521	n/a	-1.0	2.318	columbia_card_task_fmri	n/a	n/a	-1.0	n/a	n/a	n/a	n/a	n/a	n/a	n/a	n/a	ITI	poldrack-single-stim	s234	False	0
422.843	1.398	424.241	-0.3020090274739024	draw_card	1.398	columbia_card_task_fmri	17.0	0.8	89.0	-70.0	0.2	10.0	1.0	2.0	3.022273133520713	1.398	n/a	stim	poldrack-single-stim	s234	False	1
424.244	0.28	424.524	-2.2353423608072363	draw_card	0.28	columbia_card_task_fmri	17.0	0.7777777777777778	89.0	-70.0	0.2222222222222222	10.0	2.0	2.0	4.391622649147955	0.28	2.0	stim	poldrack-single-stim	s234	False	0
425.279	1.5	424.528	n/a	-1.0	2.25	columbia_card_task_fmri	n/a	n/a	-1.0	n/a	n/a	n/a	n/a	n/a	n/a	n/a	n/a	ITI	poldrack-single-stim	s234	False	0
426.784	1.574	428.358	-1.56867569414057	draw_card	1.574	columbia_card_task_fmri	13.0	0.8333333333333334	89.0	-75.0	0.1666666666666666	12.0	1.0	2.0	1.0179452352017293	1.574	n/a	stim	poldrack-single-stim	s234	False	1
428.361	0.342	428.703	-2.902009027473906	draw_card	0.342	columbia_card_task_fmri	13.0	0.8181818181818181	89.0	-75.0	0.1818181818181818	12.0	2.0	2.0	2.1634021215864863	0.342	n/a	stim	poldrack-single-stim	s234	False	1
428.707	0.358	429.065	-4.502009027473903	draw_card	0.358	columbia_card_task_fmri	13.0	0.8	89.0	-75.0	0.2	12.0	3.0	2.0	3.422271565767602	0.358	n/a	stim	poldrack-single-stim	s234	False	1
429.07	0.296	429.366	-6.457564583029457	draw_card	0.296	columbia_card_task_fmri	13.0	0.7777777777777778	89.0	-75.0	0.2222222222222222	12.0	4.0	2.0	4.807360850390133	0.296	n/a	stim	poldrack-single-stim	s234	False	1
429.369	0.317	429.686	-8.902009027473904	end_round	0.317	columbia_card_task_fmri	13.0	0.75	71.0	-75.0	0.25	12.0	5.0	2.0	6.3273789336182205	0.317	4.0	stim	poldrack-single-stim	s234	False	1
430.441	1.5	429.69	n/a	-1.0	2.25	columbia_card_task_fmri	n/a	n/a	-1.0	n/a	n/a	n/a	n/a	n/a	n/a	n/a	n/a	ITI	poldrack-single-stim	s234	False	0
431.946	1.143	433.089	0.0979909725260978	draw_card	1.143	columbia_card_task_fmri	14.0	0.8333333333333334	89.0	-70.0	0.1666666666666666	12.0	1.0	2.0	-0.4727597786650648	1.143	n/a	stim	poldrack-single-stim	s234	False	1
433.093	0.299	433.392	-1.174736300201179	draw_card	0.299	columbia_card_task_fmri	14.0	0.8181818181818181	89.0	-70.0	0.1818181818181818	12.0	2.0	2.0	0.6206304257777191	0.299	n/a	stim	poldrack-single-stim	s234	False	1
433.396	0.273	433.669	-2.702009027473903	draw_card	0.273	columbia_card_task_fmri	14.0	0.8	89.0	-70.0	0.2	12.0	3.0	2.0	1.822278060743379	0.273	n/a	stim	poldrack-single-stim	s234	False	1
433.672	0.335	434.007	-4.56867569414057	draw_card	0.335	columbia_card_task_fmri	14.0	0.7777777777777778	89.0	-70.0	0.2222222222222222	12.0	4.0	2.0	3.144408260905813	0.335	n/a	stim	poldrack-single-stim	s234	False	1
434.011	0.391	434.402	-6.902009027473904	end_round	0.391	columbia_card_task_fmri	14.0	0.75	71.0	-70.0	0.25	12.0	5.0	2.0	4.595334125856326	0.391	4.0	stim	poldrack-single-stim	s234	False	1
435.158	1.5	434.407	n/a	-1.0	2.386	columbia_card_task_fmri	n/a	n/a	-1.0	n/a	n/a	n/a	n/a	n/a	n/a	n/a	n/a	ITI	poldrack-single-stim	s234	False	0
436.797	1.069	437.866	0.0979909725260978	draw_card	1.069	columbia_card_task_fmri	16.0	0.8333333333333334	89.0	-80.0	0.1666666666666666	12.0	1.0	2.0	3.9993570057080063	1.069	n/a	stim	poldrack-single-stim	s234	False	1
437.87	0.331	438.201	-1.356554482019361	draw_card	0.331	columbia_card_task_fmri	16.0	0.8181818181818181	89.0	-80.0	0.1818181818181818	12.0	2.0	2.0	5.248947197162224	0.331	2.0	stim	poldrack-single-stim	s234	False	0
438.956	1.5	438.205	n/a	-1.0	2.386	columbia_card_task_fmri	n/a	n/a	-1.0	n/a	n/a	n/a	n/a	n/a	n/a	n/a	n/a	ITI	poldrack-single-stim	s234	False	0
440.597	0.65	441.247	-0.1020090274739031	draw_card	0.65	columbia_card_task_fmri	16.0	0.8	89.0	-65.0	0.2	15.0	1.0	3.0	0.6222833529430858	0.65	n/a	stim	poldrack-single-stim	s234	False	1
441.25	0.425	441.675	-1.2591518846167598	draw_card	0.425	columbia_card_task_fmri	16.0	0.7857142857142857	89.0	-65.0	0.2142857142857142	15.0	2.0	3.0	1.45867779319056	0.425	n/a	stim	poldrack-single-stim	s234	False	1
441.68	0.38	442.06	-2.594316719781597	draw_card	0.38	columbia_card_task_fmri	16.0	0.7692307692307692	89.0	-65.0	0.2307692307692307	15.0	3.0	3.0	2.3496044358588293	0.38	n/a	stim	poldrack-single-stim	s234	False	1
442.065	0.383	442.448	-4.152009027473904	draw_card	0.383	columbia_card_task_fmri	16.0	0.75	89.0	-65.0	0.25	15.0	4.0	3.0	3.296300908909089	0.383	n/a	stim	poldrack-single-stim	s234	False	1
442.453	0.526	442.979	-5.992918118382994	end_round	0.526	columbia_card_task_fmri	16.0	0.7272727272727273	71.0	-65.0	0.2727272727272727	15.0	5.0	3.0	4.296571744709105	0.526	4.0	stim	poldrack-single-stim	s234	False	1
443.734	1.5	442.983	n/a	-1.0	2.726	columbia_card_task_fmri	n/a	n/a	-1.0	n/a	n/a	n/a	n/a	n/a	n/a	n/a	n/a	ITI	poldrack-single-stim	s234	False	0
445.715	0.611	446.326	-1.777009027473904	draw_card	0.611	columbia_card_task_fmri	15.0	0.8125	89.0	-75.0	0.1875	16.0	1.0	3.0	3.350385585876694	0.611	n/a	stim	poldrack-single-stim	s234	False	1
446.329	0.408	446.737	-2.902009027473904	draw_card	0.408	columbia_card_task_fmri	15.0	0.8	89.0	-75.0	0.2	16.0	2.0	3.0	4.222268534777669	0.408	n/a	stim	poldrack-single-stim	s234	False	1
446.742	1.801	448.543	-4.187723313188188	draw_card	1.801	columbia_card_task_fmri	15.0	0.7857142857142857	89.0	-75.0	0.2142857142857142	16.0	3.0	3.0	5.151596477839007	1.801	3.0	stim	poldrack-single-stim	s234	False	0
449.299	1.5	448.548	n/a	-1.0	2.454	columbia_card_task_fmri	n/a	n/a	-1.0	n/a	n/a	n/a	n/a	n/a	n/a	n/a	n/a	ITI	poldrack-single-stim	s234	False	0
451.007	1.359	452.366	-1.214509027473904	draw_card	1.359	columbia_card_task_fmri	14.0	0.6875	89.0	-35.0	0.3125	16.0	1.0	5.0	-9.065545573417598	1.359	n/a	stim	poldrack-single-stim	s234	False	1
452.37	0.378	452.748	-2.2353423608072363	draw_card	0.378	columbia_card_task_fmri	14.0	0.6666666666666667	89.0	-35.0	0.3333333333333333	16.0	2.0	5.0	-8.678835460370028	0.378	n/a	stim	poldrack-single-stim	s234	False	1
452.752	0.539	453.291	-3.402009027473904	end_round	0.539	columbia_card_task_fmri	14.0	0.6428571428571428	71.0	-35.0	0.3571428571428571	16.0	3.0	5.0	-8.29894657842777	0.539	2.0	stim	poldrack-single-stim	s234	False	1
454.047	1.5	453.296	n/a	-1.0	2.318	columbia_card_task_fmri	n/a	n/a	-1.0	n/a	n/a	n/a	n/a	n/a	n/a	n/a	n/a	ITI	poldrack-single-stim	s234	False	0
455.619	1.647	457.266	3.964657639192763	draw_card	1.647	columbia_card_task_fmri	16.0	0.8666666666666667	89.0	-75.0	0.1333333333333333	15.0	1.0	2.0	-0.8436579090177574	1.647	n/a	stim	poldrack-single-stim	s234	False	1
457.27	0.312	457.582	3.0979909725260977	draw_card	0.312	columbia_card_task_fmri	16.0	0.8571428571428572	89.0	-75.0	0.1428571428571428	15.0	2.0	2.0	0.0656525993902406	0.312	n/a	stim	poldrack-single-stim	s234	False	1
457.586	0.355	457.941	2.097990972526096	draw_card	0.355	columbia_card_task_fmri	16.0	0.8461538461538461	89.0	-75.0	0.1538461538461538	15.0	3.0	2.0	1.0551917178952053	0.355	n/a	stim	poldrack-single-stim	s234	False	1
457.946	0.539	458.485	0.93132430585943	end_round	0.539	columbia_card_task_fmri	16.0	0.8333333333333334	71.0	-75.0	0.1666666666666666	15.0	4.0	2.0	2.135974397779961	0.539	3.0	stim	poldrack-single-stim	s234	False	1
459.241	1.5	458.49	n/a	-1.0	2.318	columbia_card_task_fmri	n/a	n/a	-1.0	n/a	n/a	n/a	n/a	n/a	n/a	n/a	n/a	ITI	poldrack-single-stim	s234	False	0
460.813	1.231	462.044	4.63132430585943	draw_card	1.231	columbia_card_task_fmri	16.0	0.8666666666666667	89.0	-70.0	0.1333333333333333	15.0	1.0	2.0	-2.543322056748572	1.231	n/a	stim	poldrack-single-stim	s234	False	1
462.048	0.413	462.461	3.812276686811811	draw_card	0.413	columbia_card_task_fmri	16.0	0.8571428571428572	89.0	-70.0	0.1428571428571428	15.0	2.0	2.0	-1.683974165371371	0.413	n/a	stim	poldrack-single-stim	s234	False	1
462.466	0.341	462.807	2.867221741756864	draw_card	0.341	columbia_card_task_fmri	16.0	0.8461538461538461	89.0	-70.0	0.1538461538461538	15.0	3.0	2.0	-0.7488058419641455	0.341	n/a	stim	poldrack-single-stim	s234	False	1
462.812	0.966	463.778	1.764657639192764	end_round	0.966	columbia_card_task_fmri	16.0	0.8333333333333334	71.0	-70.0	0.1666666666666666	15.0	4.0	2.0	0.2725926472092155	0.966	3.0	stim	poldrack-single-stim	s234	False	1
464.534	1.5	463.783	n/a	-1.0	2.59	columbia_card_task_fmri	n/a	n/a	-1.0	n/a	n/a	n/a	n/a	n/a	n/a	n/a	n/a	ITI	poldrack-single-stim	s234	False	0
466.38	1.922	468.302	1.972990972526096	draw_card	1.922	columbia_card_task_fmri	8.0	0.9375	89.0	-90.0	0.0625	16.0	1.0	1.0	-8.055639443996334	1.922	n/a	stim	poldrack-single-stim	s234	False	1
468.307	0.963	469.27	1.564657639192763	draw_card	0.963	columbia_card_task_fmri	8.0	0.9333333333333332	89.0	-90.0	0.0666666666666666	16.0	2.0	1.0	-7.332173502332349	0.963	2.0	stim	poldrack-single-stim	s234	False	0
470.025	1.5	469.274	n/a	-1.0	2.726	columbia_card_task_fmri	n/a	n/a	-1.0	n/a	n/a	n/a	n/a	n/a	n/a	n/a	n/a	ITI	poldrack-single-stim	s234	False	0
472.006	0.763	472.769	3.535490972526096	draw_card	0.763	columbia_card_task_fmri	10.0	0.9375	89.0	-95.0	0.0625	16.0	1.0	1.0	-6.361222722578319	0.763	n/a	stim	poldrack-single-stim	s234	False	1
472.774	0.407	473.181	3.097990972526097	draw_card	0.407	columbia_card_task_fmri	10.0	0.9333333333333332	89.0	-95.0	0.0666666666666666	16.0	2.0	1.0	-5.586079815078609	0.407	n/a	stim	poldrack-single-stim	s234	False	1
473.185	0.475	473.66	2.597990972526097	draw_card	0.475	columbia_card_task_fmri	10.0	0.9285714285714286	89.0	-95.0	0.0714285714285714	16.0	3.0	1.0	-4.736052718585075	0.475	n/a	stim	poldrack-single-stim	s234	False	1
473.667	0.41	474.077	2.0210678956030192	draw_card	0.41	columbia_card_task_fmri	10.0	0.9230769230769232	89.0	-95.0	0.0769230769230769	16.0	4.0	1.0	-3.798410958332166	0.41	n/a	stim	poldrack-single-stim	s234	False	1
474.083	0.383	474.466	1.347990972526096	draw_card	0.383	columbia_card_task_fmri	10.0	0.9166666666666666	89.0	-95.0	0.0833333333333333	16.0	5.0	1.0	-2.757232475210163	0.383	n/a	stim	poldrack-single-stim	s234	False	1
474.471	0.972	475.443	0.5525364270715494	end_round	0.972	columbia_card_task_fmri	10.0	0.9090909090909092	71.0	-95.0	0.0909090909090909	16.0	6.0	1.0	-1.5923281101250986	0.972	5.0	stim	poldrack-single-stim	s234	False	1
476.199	1.5	475.448	n/a	-1.0	2.522	columbia_card_task_fmri	n/a	n/a	-1.0	n/a	n/a	n/a	n/a	n/a	n/a	n/a	n/a	ITI	poldrack-single-stim	s234	False	0
477.976	1.028	479.004	4.472990972526096	draw_card	1.028	columbia_card_task_fmri	15.0	0.875	89.0	-70.0	0.125	16.0	1.0	2.0	-3.6665863590626735	1.028	n/a	stim	poldrack-single-stim	s234	False	1
479.009	0.409	479.418	3.764657639192762	draw_card	0.409	columbia_card_task_fmri	15.0	0.8666666666666667	89.0	-70.0	0.1333333333333333	16.0	2.0	2.0	-2.883254758905686	0.409	2.0	stim	poldrack-single-stim	s234	False	0
480.174	1.5	479.423	n/a	-1.0	3.134	columbia_card_task_fmri	n/a	n/a	-1.0	n/a	n/a	n/a	n/a	n/a	n/a	n/a	n/a	ITI	poldrack-single-stim	s234	False	0
482.563	0.677	483.24	3.472990972526096	draw_card	0.677	columbia_card_task_fmri	16.0	0.875	89.0	-85.0	0.125	16.0	1.0	2.0	1.6248892073259142	0.677	n/a	stim	poldrack-single-stim	s234	False	1
483.245	0.408	483.653	2.631324305859429	draw_card	0.408	columbia_card_task_fmri	16.0	0.8666666666666667	89.0	-85.0	0.1333333333333333	16.0	2.0	2.0	2.5556730666636014	0.408	n/a	stim	poldrack-single-stim	s234	False	1
483.658	0.35	484.008	1.669419543954669	draw_card	0.35	columbia_card_task_fmri	16.0	0.8571428571428572	89.0	-85.0	0.1428571428571428	16.0	3.0	2.0	3.5649087325993563	0.35	n/a	stim	poldrack-single-stim	s234	False	1
484.013	0.443	484.456	0.559529434064556	draw_card	0.443	columbia_card_task_fmri	16.0	0.8461538461538461	89.0	-85.0	0.1538461538461538	16.0	4.0	2.0	4.663189362829975	0.443	n/a	stim	poldrack-single-stim	s234	False	1
484.461	0.52	484.981	-0.735342360807236	end_round	0.52	columbia_card_task_fmri	16.0	0.8333333333333334	71.0	-85.0	0.1666666666666666	16.0	5.0	2.0	5.862740343664001	0.52	4.0	stim	poldrack-single-stim	s234	False	1
485.736	1.5	484.985	n/a	-1.0	2.386	columbia_card_task_fmri	n/a	n/a	-1.0	n/a	n/a	n/a	n/a	n/a	n/a	n/a	n/a	ITI	poldrack-single-stim	s234	False	0
