onset	duration	SS_delay	block_duration	correct	correct_response	experiment_exp_id	key_press	passed_check	response_time	stop_response	stopped	trial_id	trial_type	worker_id	junk
3.007	0.85	0.25	2.35	1.0	71.0	motor_selective_stop_signal	71.0	True	0.562	89.0	False	stim	noncrit_nosignal	s251	False
5.359	0.85	0.25	2.25	1.0	89.0	motor_selective_stop_signal	89.0	True	0.524	89.0	False	stim	crit_go	s251	False
7.612	0.85	0.25	2.45	1.0	71.0	motor_selective_stop_signal	71.0	True	0.429	89.0	False	stim	noncrit_signal	s251	False
10.065	0.85	0.25	2.35	1.0	89.0	motor_selective_stop_signal	89.0	True	0.512	89.0	False	stim	crit_go	s251	False
12.416	0.85	0.25	2.65	1.0	71.0	motor_selective_stop_signal	71.0	True	0.476	89.0	False	stim	noncrit_signal	s251	False
15.068	0.85	0.25	2.25	1.0	89.0	motor_selective_stop_signal	89.0	True	0.596	89.0	False	stim	crit_go	s251	False
17.321	0.85	0.25	2.25	1.0	89.0	motor_selective_stop_signal	-1.0	True	n/a	89.0	True	stim	crit_stop_success	s251	False
19.573	0.85	0.3	2.45	1.0	89.0	motor_selective_stop_signal	89.0	True	0.749	89.0	False	stim	crit_go	s251	False
22.026	0.85	0.3	2.25	1.0	89.0	motor_selective_stop_signal	89.0	True	0.534	89.0	False	stim	crit_go	s251	False
24.278	0.85	0.3	2.55	1.0	89.0	motor_selective_stop_signal	89.0	True	0.47	89.0	False	stim	crit_stop_failure	s251	False
26.831	0.85	0.25	2.25	1.0	89.0	motor_selective_stop_signal	89.0	True	0.578	89.0	False	stim	crit_go	s251	False
29.083	0.85	0.25	2.35	1.0	71.0	motor_selective_stop_signal	71.0	True	0.869	89.0	False	stim	noncrit_signal	s251	False
31.436	0.85	0.25	2.25	1.0	89.0	motor_selective_stop_signal	-1.0	True	n/a	89.0	True	stim	crit_stop_success	s251	False
33.688	0.85	0.3	2.55	1.0	89.0	motor_selective_stop_signal	89.0	True	0.506	89.0	False	stim	crit_stop_failure	s251	False
36.241	0.85	0.25	2.55	1.0	71.0	motor_selective_stop_signal	71.0	True	0.552	89.0	False	stim	noncrit_nosignal	s251	False
38.793	0.85	0.25	2.35	1.0	71.0	motor_selective_stop_signal	71.0	True	0.665	89.0	False	stim	noncrit_nosignal	s251	False
41.145	0.85	0.25	2.35	1.0	71.0	motor_selective_stop_signal	71.0	True	0.48	89.0	False	stim	noncrit_nosignal	s251	False
43.497	0.85	0.25	2.25	1.0	71.0	motor_selective_stop_signal	71.0	True	0.473	89.0	False	stim	noncrit_nosignal	s251	False
45.75	0.85	0.25	2.45	0.0	71.0	motor_selective_stop_signal	-1.0	True	n/a	89.0	True	stim	noncrit_signal	s251	False
48.203	0.85	0.25	2.25	1.0	89.0	motor_selective_stop_signal	89.0	True	0.626	89.0	False	stim	crit_go	s251	False
50.455	0.85	0.25	2.45	1.0	71.0	motor_selective_stop_signal	71.0	True	0.488	89.0	False	stim	noncrit_signal	s251	False
52.907	0.85	0.25	2.65	1.0	89.0	motor_selective_stop_signal	89.0	True	0.699	89.0	False	stim	crit_stop_failure	s251	False
55.56	0.85	0.2	2.45	1.0	89.0	motor_selective_stop_signal	89.0	True	0.808	89.0	False	stim	crit_go	s251	False
58.012	0.85	0.2	2.35	1.0	71.0	motor_selective_stop_signal	71.0	True	0.564	89.0	False	stim	noncrit_nosignal	s251	False
60.364	0.85	0.2	2.25	1.0	71.0	motor_selective_stop_signal	71.0	True	0.802	89.0	False	stim	noncrit_signal	s251	False
62.617	0.85	0.2	2.55	0.0	71.0	motor_selective_stop_signal	89.0	True	0.855	89.0	False	stim	noncrit_nosignal	s251	False
65.168	0.85	0.2	2.25	1.0	89.0	motor_selective_stop_signal	89.0	True	0.515	89.0	False	stim	crit_go	s251	False
67.42	0.85	0.2	2.25	1.0	89.0	motor_selective_stop_signal	89.0	True	0.633	89.0	False	stim	crit_go	s251	False
69.671	0.85	0.2	2.35	1.0	89.0	motor_selective_stop_signal	89.0	True	0.457	89.0	False	stim	crit_go	s251	False
72.022	0.85	0.2	2.25	1.0	89.0	motor_selective_stop_signal	89.0	True	0.662	89.0	False	stim	crit_go	s251	False
74.274	0.85	0.2	2.65	1.0	71.0	motor_selective_stop_signal	71.0	True	0.616	89.0	False	stim	noncrit_signal	s251	False
76.927	0.85	0.2	2.35	1.0	71.0	motor_selective_stop_signal	71.0	True	0.809	89.0	False	stim	noncrit_signal	s251	False
79.278	0.85	0.2	2.45	1.0	71.0	motor_selective_stop_signal	71.0	True	0.654	89.0	False	stim	noncrit_nosignal	s251	False
81.73	0.85	0.2	2.35	1.0	71.0	motor_selective_stop_signal	71.0	True	0.646	89.0	False	stim	noncrit_signal	s251	False
84.082	0.85	0.2	2.25	1.0	89.0	motor_selective_stop_signal	-1.0	True	n/a	89.0	True	stim	crit_stop_success	s251	False
86.335	0.85	0.25	2.25	1.0	71.0	motor_selective_stop_signal	71.0	True	0.486	89.0	False	stim	noncrit_nosignal	s251	False
88.587	0.85	0.25	2.25	1.0	89.0	motor_selective_stop_signal	-1.0	True	n/a	89.0	True	stim	crit_stop_success	s251	False
90.839	0.85	0.3	2.25	1.0	71.0	motor_selective_stop_signal	71.0	True	0.548	89.0	False	stim	noncrit_nosignal	s251	False
93.092	0.85	0.3	2.35	1.0	89.0	motor_selective_stop_signal	-1.0	True	n/a	89.0	True	stim	crit_stop_success	s251	False
95.444	0.85	0.35	3.35	1.0	71.0	motor_selective_stop_signal	71.0	True	0.588	89.0	False	stim	noncrit_nosignal	s251	False
98.796	0.85	0.35	2.55	1.0	71.0	motor_selective_stop_signal	71.0	True	0.557	89.0	False	stim	noncrit_nosignal	s251	False
101.348	0.85	0.35	2.75	1.0	89.0	motor_selective_stop_signal	-1.0	True	n/a	89.0	True	stim	crit_stop_success	s251	False
104.1	0.85	0.4	2.75	1.0	89.0	motor_selective_stop_signal	89.0	True	0.639	89.0	False	stim	crit_go	s251	False
106.851	0.85	0.4	2.65	1.0	89.0	motor_selective_stop_signal	89.0	True	0.602	89.0	False	stim	crit_go	s251	False
109.503	0.85	0.4	2.45	1.0	89.0	motor_selective_stop_signal	89.0	True	0.56	89.0	False	stim	crit_stop_failure	s251	False
111.955	0.85	0.35	2.25	1.0	71.0	motor_selective_stop_signal	71.0	True	0.456	89.0	False	stim	noncrit_nosignal	s251	False
114.208	0.85	0.35	2.35	1.0	71.0	motor_selective_stop_signal	71.0	True	0.696	89.0	False	stim	noncrit_nosignal	s251	False
116.559	0.85	0.35	2.45	1.0	71.0	motor_selective_stop_signal	71.0	True	0.51	89.0	False	stim	noncrit_nosignal	s251	False
119.011	0.85	0.35	3.05	1.0	71.0	motor_selective_stop_signal	71.0	True	0.465	89.0	False	stim	noncrit_nosignal	s251	False
122.063	0.85	0.35	2.35	1.0	89.0	motor_selective_stop_signal	89.0	True	0.535	89.0	False	stim	crit_go	s251	False
134.923	0.85	0.35	2.25	1.0	71.0	motor_selective_stop_signal	71.0	True	0.494	89.0	False	stim	noncrit_signal	s251	False
137.174	0.85	0.35	2.35	1.0	89.0	motor_selective_stop_signal	89.0	True	0.552	89.0	False	stim	crit_go	s251	False
139.527	0.85	0.35	2.35	1.0	71.0	motor_selective_stop_signal	71.0	True	0.578	89.0	False	stim	noncrit_nosignal	s251	False
141.879	0.85	0.35	2.35	1.0	89.0	motor_selective_stop_signal	89.0	True	0.557	89.0	False	stim	crit_go	s251	False
144.232	0.85	0.35	2.35	1.0	71.0	motor_selective_stop_signal	71.0	True	0.812	89.0	False	stim	noncrit_signal	s251	False
146.584	0.85	0.35	2.35	1.0	71.0	motor_selective_stop_signal	71.0	True	0.511	89.0	False	stim	noncrit_nosignal	s251	False
148.936	0.85	0.35	2.25	1.0	71.0	motor_selective_stop_signal	71.0	True	0.414	89.0	False	stim	noncrit_nosignal	s251	False
151.188	0.85	0.35	2.35	1.0	89.0	motor_selective_stop_signal	89.0	True	0.585	89.0	False	stim	crit_stop_failure	s251	False
153.54	0.85	0.3	2.45	1.0	89.0	motor_selective_stop_signal	89.0	True	0.563	89.0	False	stim	crit_go	s251	False
155.992	0.85	0.3	2.35	1.0	71.0	motor_selective_stop_signal	71.0	True	0.624	89.0	False	stim	noncrit_nosignal	s251	False
158.345	0.85	0.3	2.85	1.0	89.0	motor_selective_stop_signal	89.0	True	0.676	89.0	False	stim	crit_go	s251	False
161.198	0.85	0.3	2.55	1.0	71.0	motor_selective_stop_signal	71.0	True	0.447	89.0	False	stim	noncrit_nosignal	s251	False
163.75	0.85	0.3	2.75	1.0	89.0	motor_selective_stop_signal	89.0	True	0.486	89.0	False	stim	crit_go	s251	False
166.503	0.85	0.3	2.25	0.0	71.0	motor_selective_stop_signal	89.0	True	0.54	89.0	False	stim	noncrit_signal	s251	False
168.755	0.85	0.3	2.25	0.0	89.0	motor_selective_stop_signal	71.0	True	0.537	89.0	False	stim	crit_go	s251	False
171.007	0.85	0.3	2.85	1.0	89.0	motor_selective_stop_signal	-1.0	True	n/a	89.0	True	stim	crit_stop_success	s251	False
173.86	0.85	0.35	2.35	1.0	71.0	motor_selective_stop_signal	71.0	True	0.551	89.0	False	stim	noncrit_nosignal	s251	False
176.212	0.85	0.35	2.25	1.0	71.0	motor_selective_stop_signal	71.0	True	0.593	89.0	False	stim	noncrit_nosignal	s251	False
178.464	0.85	0.35	2.25	1.0	89.0	motor_selective_stop_signal	89.0	True	0.562	89.0	False	stim	crit_stop_failure	s251	False
180.717	0.85	0.3	2.25	1.0	71.0	motor_selective_stop_signal	71.0	True	0.475	89.0	False	stim	noncrit_nosignal	s251	False
182.97	0.85	0.3	2.35	1.0	71.0	motor_selective_stop_signal	71.0	True	0.454	89.0	False	stim	noncrit_nosignal	s251	False
185.322	0.85	0.3	2.65	1.0	89.0	motor_selective_stop_signal	89.0	True	0.607	89.0	False	stim	crit_go	s251	False
187.974	0.85	0.3	2.75	1.0	89.0	motor_selective_stop_signal	89.0	True	0.423	89.0	False	stim	crit_stop_failure	s251	False
190.726	0.85	0.25	2.25	1.0	89.0	motor_selective_stop_signal	89.0	True	0.609	89.0	False	stim	crit_go	s251	False
192.979	0.85	0.25	2.75	1.0	89.0	motor_selective_stop_signal	-1.0	True	n/a	89.0	True	stim	crit_stop_success	s251	False
195.731	0.85	0.3	2.25	1.0	71.0	motor_selective_stop_signal	71.0	True	0.75	89.0	False	stim	noncrit_signal	s251	False
197.983	0.85	0.3	2.35	1.0	71.0	motor_selective_stop_signal	71.0	True	0.478	89.0	False	stim	noncrit_nosignal	s251	False
200.335	0.85	0.3	2.35	1.0	89.0	motor_selective_stop_signal	89.0	True	0.655	89.0	False	stim	crit_go	s251	False
202.687	0.85	0.3	2.55	1.0	71.0	motor_selective_stop_signal	71.0	True	0.61	89.0	False	stim	noncrit_nosignal	s251	False
205.24	0.85	0.3	2.25	1.0	71.0	motor_selective_stop_signal	71.0	True	0.476	89.0	False	stim	noncrit_nosignal	s251	False
207.491	0.85	0.3	2.25	1.0	71.0	motor_selective_stop_signal	71.0	True	0.993	89.0	False	stim	noncrit_signal	s251	False
209.744	0.85	0.3	2.25	1.0	71.0	motor_selective_stop_signal	71.0	True	0.474	89.0	False	stim	noncrit_nosignal	s251	False
211.996	0.85	0.3	2.35	1.0	71.0	motor_selective_stop_signal	71.0	True	0.449	89.0	False	stim	noncrit_nosignal	s251	False
214.348	0.85	0.3	2.65	1.0	89.0	motor_selective_stop_signal	-1.0	True	n/a	89.0	True	stim	crit_stop_success	s251	False
217.001	0.85	0.35	2.35	1.0	71.0	motor_selective_stop_signal	71.0	True	0.616	89.0	False	stim	noncrit_nosignal	s251	False
219.353	0.85	0.35	2.25	1.0	71.0	motor_selective_stop_signal	71.0	True	1.027	89.0	False	stim	noncrit_signal	s251	False
221.605	0.85	0.35	2.35	1.0	71.0	motor_selective_stop_signal	71.0	True	0.469	89.0	False	stim	noncrit_nosignal	s251	False
223.957	0.85	0.35	2.35	1.0	89.0	motor_selective_stop_signal	89.0	True	0.604	89.0	False	stim	crit_stop_failure	s251	False
226.308	0.85	0.3	2.85	1.0	89.0	motor_selective_stop_signal	89.0	True	0.577	89.0	False	stim	crit_go	s251	False
229.16	0.85	0.3	2.45	0.0	71.0	motor_selective_stop_signal	89.0	True	0.68	89.0	False	stim	noncrit_nosignal	s251	False
231.613	0.85	0.3	2.35	1.0	89.0	motor_selective_stop_signal	89.0	True	0.681	89.0	False	stim	crit_go	s251	False
233.965	0.85	0.3	2.65	1.0	89.0	motor_selective_stop_signal	89.0	True	0.59	89.0	False	stim	crit_go	s251	False
236.617	0.85	0.3	2.25	1.0	89.0	motor_selective_stop_signal	89.0	True	0.518	89.0	False	stim	crit_go	s251	False
238.87	0.85	0.3	2.25	1.0	71.0	motor_selective_stop_signal	71.0	True	0.944	89.0	False	stim	noncrit_signal	s251	False
241.122	0.85	0.3	2.25	1.0	71.0	motor_selective_stop_signal	71.0	True	0.798	89.0	False	stim	noncrit_nosignal	s251	False
243.375	0.85	0.3	2.45	1.0	71.0	motor_selective_stop_signal	71.0	True	0.575	89.0	False	stim	noncrit_nosignal	s251	False
245.827	0.85	0.3	2.35	1.0	71.0	motor_selective_stop_signal	71.0	True	0.489	89.0	False	stim	noncrit_nosignal	s251	False
248.18	0.85	0.3	2.25	1.0	89.0	motor_selective_stop_signal	89.0	True	0.898	89.0	False	stim	crit_stop_failure	s251	False
250.432	0.85	0.25	2.35	1.0	89.0	motor_selective_stop_signal	-1.0	True	n/a	89.0	True	stim	crit_stop_success	s251	False
252.785	0.85	0.3	2.45	1.0	71.0	motor_selective_stop_signal	71.0	True	0.519	89.0	False	stim	noncrit_signal	s251	False
265.744	0.85	0.3	2.35	1.0	89.0	motor_selective_stop_signal	89.0	True	0.603	89.0	False	stim	crit_go	s251	False
268.097	0.85	0.3	2.25	1.0	71.0	motor_selective_stop_signal	71.0	True	0.565	89.0	False	stim	noncrit_nosignal	s251	False
270.349	0.85	0.3	2.25	1.0	71.0	motor_selective_stop_signal	71.0	True	0.495	89.0	False	stim	noncrit_nosignal	s251	False
272.601	0.85	0.3	2.35	1.0	71.0	motor_selective_stop_signal	71.0	True	0.373	89.0	False	stim	noncrit_signal	s251	False
274.954	0.85	0.3	2.35	1.0	89.0	motor_selective_stop_signal	89.0	True	0.544	89.0	False	stim	crit_stop_failure	s251	False
277.307	0.85	0.25	2.35	1.0	71.0	motor_selective_stop_signal	71.0	True	0.472	89.0	False	stim	noncrit_nosignal	s251	False
279.66	0.85	0.25	2.95	1.0	71.0	motor_selective_stop_signal	71.0	True	0.412	89.0	False	stim	noncrit_nosignal	s251	False
282.612	0.85	0.25	2.25	1.0	89.0	motor_selective_stop_signal	89.0	True	0.874	89.0	False	stim	crit_go	s251	False
284.865	0.85	0.25	2.35	1.0	89.0	motor_selective_stop_signal	89.0	True	0.474	89.0	False	stim	crit_go	s251	False
287.218	0.85	0.25	2.25	1.0	89.0	motor_selective_stop_signal	89.0	True	0.639	89.0	False	stim	crit_go	s251	False
289.47	0.85	0.25	2.45	1.0	71.0	motor_selective_stop_signal	71.0	True	0.45	89.0	False	stim	noncrit_signal	s251	False
291.921	0.85	0.25	2.35	1.0	71.0	motor_selective_stop_signal	71.0	True	0.864	89.0	False	stim	noncrit_signal	s251	False
294.274	0.85	0.25	2.55	1.0	71.0	motor_selective_stop_signal	71.0	True	0.49	89.0	False	stim	noncrit_signal	s251	False
296.825	0.85	0.25	2.55	1.0	89.0	motor_selective_stop_signal	89.0	True	0.551	89.0	False	stim	crit_go	s251	False
299.377	0.85	0.25	2.25	1.0	71.0	motor_selective_stop_signal	71.0	True	0.669	89.0	False	stim	noncrit_nosignal	s251	False
301.629	0.85	0.25	2.25	1.0	71.0	motor_selective_stop_signal	71.0	True	0.435	89.0	False	stim	noncrit_nosignal	s251	False
303.882	0.85	0.25	2.75	1.0	89.0	motor_selective_stop_signal	89.0	True	0.728	89.0	False	stim	crit_stop_failure	s251	False
306.634	0.85	0.2	2.35	1.0	89.0	motor_selective_stop_signal	-1.0	True	n/a	89.0	True	stim	crit_stop_success	s251	False
308.987	0.85	0.25	2.25	1.0	89.0	motor_selective_stop_signal	-1.0	True	n/a	89.0	True	stim	crit_stop_success	s251	False
311.239	0.85	0.3	2.45	1.0	71.0	motor_selective_stop_signal	71.0	True	0.474	89.0	False	stim	noncrit_nosignal	s251	False
313.691	0.85	0.3	2.25	1.0	89.0	motor_selective_stop_signal	89.0	True	0.681	89.0	False	stim	crit_go	s251	False
315.943	0.85	0.3	2.35	1.0	89.0	motor_selective_stop_signal	89.0	True	0.543	89.0	False	stim	crit_go	s251	False
318.295	0.85	0.3	2.25	1.0	89.0	motor_selective_stop_signal	89.0	True	0.556	89.0	False	stim	crit_go	s251	False
320.547	0.85	0.3	2.25	1.0	89.0	motor_selective_stop_signal	89.0	True	0.47	89.0	False	stim	crit_stop_failure	s251	False
322.8	0.85	0.25	2.25	1.0	89.0	motor_selective_stop_signal	89.0	True	0.525	89.0	False	stim	crit_stop_failure	s251	False
325.051	0.85	0.2	2.25	1.0	89.0	motor_selective_stop_signal	89.0	True	0.518	89.0	False	stim	crit_go	s251	False
327.303	0.85	0.2	2.25	1.0	71.0	motor_selective_stop_signal	71.0	True	0.709	89.0	False	stim	noncrit_nosignal	s251	False
329.556	0.85	0.2	2.35	1.0	71.0	motor_selective_stop_signal	71.0	True	0.824	89.0	False	stim	noncrit_signal	s251	False
331.908	0.85	0.2	2.55	1.0	89.0	motor_selective_stop_signal	-1.0	True	n/a	89.0	True	stim	crit_stop_success	s251	False
334.461	0.85	0.25	2.95	1.0	71.0	motor_selective_stop_signal	71.0	True	0.576	89.0	False	stim	noncrit_nosignal	s251	False
337.413	0.85	0.25	2.25	1.0	89.0	motor_selective_stop_signal	-1.0	True	n/a	89.0	True	stim	crit_stop_success	s251	False
339.666	0.85	0.3	2.35	1.0	89.0	motor_selective_stop_signal	89.0	True	0.857	89.0	False	stim	crit_go	s251	False
342.019	0.85	0.3	2.55	1.0	89.0	motor_selective_stop_signal	89.0	True	0.598	89.0	False	stim	crit_go	s251	False
344.571	0.85	0.3	2.25	1.0	71.0	motor_selective_stop_signal	71.0	True	0.784	89.0	False	stim	noncrit_signal	s251	False
346.823	0.85	0.3	2.35	1.0	71.0	motor_selective_stop_signal	71.0	True	0.597	89.0	False	stim	noncrit_signal	s251	False
349.176	0.85	0.3	2.55	1.0	71.0	motor_selective_stop_signal	71.0	True	0.545	89.0	False	stim	noncrit_signal	s251	False
351.728	0.85	0.3	2.45	1.0	71.0	motor_selective_stop_signal	71.0	True	0.656	89.0	False	stim	noncrit_signal	s251	False
354.18	0.85	0.3	2.35	1.0	71.0	motor_selective_stop_signal	71.0	True	0.669	89.0	False	stim	noncrit_nosignal	s251	False
356.532	0.85	0.3	2.65	1.0	89.0	motor_selective_stop_signal	89.0	True	0.621	89.0	False	stim	crit_go	s251	False
359.184	0.85	0.3	2.55	1.0	89.0	motor_selective_stop_signal	89.0	True	0.643	89.0	False	stim	crit_go	s251	False
361.736	0.85	0.3	2.75	1.0	89.0	motor_selective_stop_signal	89.0	True	0.556	89.0	False	stim	crit_stop_failure	s251	False
364.488	0.85	0.25	2.55	1.0	89.0	motor_selective_stop_signal	-1.0	True	n/a	89.0	True	stim	crit_stop_success	s251	False
367.04	0.85	0.3	2.45	1.0	71.0	motor_selective_stop_signal	71.0	True	0.605	89.0	False	stim	noncrit_signal	s251	False
369.493	0.85	0.3	2.75	1.0	71.0	motor_selective_stop_signal	71.0	True	0.782	89.0	False	stim	noncrit_nosignal	s251	False
372.245	0.85	0.3	2.55	1.0	71.0	motor_selective_stop_signal	71.0	True	0.768	89.0	False	stim	noncrit_nosignal	s251	False
374.797	0.85	0.3	2.35	1.0	89.0	motor_selective_stop_signal	89.0	True	0.592	89.0	False	stim	crit_stop_failure	s251	False
377.15	0.85	0.25	2.25	1.0	89.0	motor_selective_stop_signal	89.0	True	0.55	89.0	False	stim	crit_go	s251	False
379.402	0.85	0.25	2.65	1.0	71.0	motor_selective_stop_signal	71.0	True	0.674	89.0	False	stim	noncrit_nosignal	s251	False
382.055	0.85	0.25	2.25	1.0	89.0	motor_selective_stop_signal	-1.0	True	n/a	89.0	True	stim	crit_stop_success	s251	False
384.307	0.85	0.3	2.35	0.0	89.0	motor_selective_stop_signal	71.0	True	0.388	89.0	False	stim	crit_go	s251	False
397.165	0.85	0.3	2.25	1.0	89.0	motor_selective_stop_signal	89.0	True	0.598	89.0	False	stim	crit_go	s251	False
399.417	0.85	0.3	2.35	1.0	71.0	motor_selective_stop_signal	71.0	True	0.584	89.0	False	stim	noncrit_nosignal	s251	False
401.769	0.85	0.3	2.35	1.0	89.0	motor_selective_stop_signal	89.0	True	0.658	89.0	False	stim	crit_go	s251	False
404.121	0.85	0.3	2.25	1.0	71.0	motor_selective_stop_signal	71.0	True	0.594	89.0	False	stim	noncrit_nosignal	s251	False
406.373	0.85	0.3	2.85	1.0	71.0	motor_selective_stop_signal	71.0	True	0.564	89.0	False	stim	noncrit_signal	s251	False
409.225	0.85	0.3	2.35	1.0	89.0	motor_selective_stop_signal	89.0	True	0.595	89.0	False	stim	crit_go	s251	False
411.577	0.85	0.3	2.25	1.0	89.0	motor_selective_stop_signal	89.0	True	0.557	89.0	False	stim	crit_go	s251	False
413.829	0.85	0.3	2.35	1.0	71.0	motor_selective_stop_signal	71.0	True	0.518	89.0	False	stim	noncrit_nosignal	s251	False
416.181	0.85	0.3	2.45	1.0	71.0	motor_selective_stop_signal	71.0	True	0.522	89.0	False	stim	noncrit_nosignal	s251	False
418.633	0.85	0.3	2.25	1.0	89.0	motor_selective_stop_signal	89.0	True	0.678	89.0	False	stim	crit_stop_failure	s251	False
420.886	0.85	0.25	2.25	1.0	71.0	motor_selective_stop_signal	71.0	True	0.676	89.0	False	stim	noncrit_signal	s251	False
423.138	0.85	0.25	2.75	1.0	71.0	motor_selective_stop_signal	71.0	True	0.496	89.0	False	stim	noncrit_nosignal	s251	False
425.89	0.85	0.25	2.35	1.0	71.0	motor_selective_stop_signal	71.0	True	0.611	89.0	False	stim	noncrit_signal	s251	False
428.242	0.85	0.25	2.75	1.0	89.0	motor_selective_stop_signal	89.0	True	0.575	89.0	False	stim	crit_go	s251	False
430.995	0.85	0.25	2.45	1.0	71.0	motor_selective_stop_signal	71.0	True	0.708	89.0	False	stim	noncrit_nosignal	s251	False
433.448	0.85	0.25	2.25	1.0	89.0	motor_selective_stop_signal	89.0	True	0.532	89.0	False	stim	crit_go	s251	False
435.7	0.85	0.25	2.35	1.0	89.0	motor_selective_stop_signal	89.0	True	0.742	89.0	False	stim	crit_stop_failure	s251	False
438.053	0.85	0.2	2.65	1.0	89.0	motor_selective_stop_signal	89.0	True	0.552	89.0	False	stim	crit_go	s251	False
440.704	0.85	0.2	2.45	1.0	89.0	motor_selective_stop_signal	-1.0	True	n/a	89.0	True	stim	crit_stop_success	s251	False
443.156	0.85	0.25	2.25	1.0	89.0	motor_selective_stop_signal	89.0	True	0.589	89.0	False	stim	crit_go	s251	False
445.409	0.85	0.25	2.35	1.0	71.0	motor_selective_stop_signal	71.0	True	0.586	89.0	False	stim	noncrit_signal	s251	False
447.761	0.85	0.25	2.95	1.0	71.0	motor_selective_stop_signal	71.0	True	0.506	89.0	False	stim	noncrit_signal	s251	False
450.712	0.85	0.25	2.25	1.0	71.0	motor_selective_stop_signal	71.0	True	0.576	89.0	False	stim	noncrit_nosignal	s251	False
452.964	0.85	0.25	2.95	1.0	89.0	motor_selective_stop_signal	89.0	True	0.564	89.0	False	stim	crit_go	s251	False
455.917	0.85	0.25	2.45	1.0	71.0	motor_selective_stop_signal	71.0	True	0.527	89.0	False	stim	noncrit_signal	s251	False
458.369	0.85	0.25	2.25	1.0	89.0	motor_selective_stop_signal	89.0	True	0.596	89.0	False	stim	crit_stop_failure	s251	False
460.621	0.85	0.2	2.35	1.0	71.0	motor_selective_stop_signal	71.0	True	0.582	89.0	False	stim	noncrit_nosignal	s251	False
462.974	0.85	0.2	2.45	1.0	89.0	motor_selective_stop_signal	89.0	True	0.927	89.0	False	stim	crit_go	s251	False
465.426	0.85	0.2	2.25	1.0	89.0	motor_selective_stop_signal	-1.0	True	n/a	89.0	True	stim	crit_stop_success	s251	False
467.679	0.85	0.25	2.45	1.0	71.0	motor_selective_stop_signal	71.0	True	0.739	89.0	False	stim	noncrit_signal	s251	False
470.131	0.85	0.25	2.75	1.0	71.0	motor_selective_stop_signal	71.0	True	0.514	89.0	False	stim	noncrit_nosignal	s251	False
472.884	0.85	0.25	2.25	1.0	71.0	motor_selective_stop_signal	71.0	True	0.483	89.0	False	stim	noncrit_signal	s251	False
475.136	0.85	0.25	2.35	1.0	89.0	motor_selective_stop_signal	89.0	True	0.797	89.0	False	stim	crit_go	s251	False
477.488	0.85	0.25	2.45	1.0	71.0	motor_selective_stop_signal	71.0	True	0.672	89.0	False	stim	noncrit_signal	s251	False
479.941	0.85	0.25	2.35	1.0	89.0	motor_selective_stop_signal	89.0	True	0.732	89.0	False	stim	crit_go	s251	False
482.292	0.85	0.25	2.25	1.0	71.0	motor_selective_stop_signal	71.0	True	0.416	89.0	False	stim	noncrit_signal	s251	False
484.544	0.85	0.25	2.55	1.0	89.0	motor_selective_stop_signal	89.0	True	0.781	89.0	False	stim	crit_go	s251	False
487.097	0.85	0.25	2.45	1.0	71.0	motor_selective_stop_signal	71.0	True	0.483	89.0	False	stim	noncrit_nosignal	s251	False
489.549	0.85	0.25	2.65	1.0	71.0	motor_selective_stop_signal	71.0	True	0.742	89.0	False	stim	noncrit_nosignal	s251	False
492.201	0.85	0.25	2.25	1.0	89.0	motor_selective_stop_signal	-1.0	True	n/a	89.0	True	stim	crit_stop_success	s251	False
494.453	0.85	0.3	2.65	1.0	71.0	motor_selective_stop_signal	71.0	True	1.054	89.0	False	stim	noncrit_signal	s251	False
497.106	0.85	0.3	2.35	1.0	71.0	motor_selective_stop_signal	71.0	True	0.865	89.0	False	stim	noncrit_nosignal	s251	False
499.458	0.85	0.3	2.25	1.0	89.0	motor_selective_stop_signal	89.0	True	0.815	89.0	False	stim	crit_go	s251	False
501.71	0.85	0.3	2.25	1.0	89.0	motor_selective_stop_signal	89.0	True	0.709	89.0	False	stim	crit_go	s251	False
503.962	0.85	0.3	2.25	1.0	89.0	motor_selective_stop_signal	89.0	True	0.615	89.0	False	stim	crit_go	s251	False
506.214	0.85	0.3	2.35	1.0	71.0	motor_selective_stop_signal	71.0	True	0.587	89.0	False	stim	noncrit_nosignal	s251	False
508.566	0.85	0.3	2.55	1.0	71.0	motor_selective_stop_signal	71.0	True	0.921	89.0	False	stim	noncrit_signal	s251	False
511.118	0.85	0.3	2.35	1.0	89.0	motor_selective_stop_signal	89.0	True	0.63	89.0	False	stim	crit_go	s251	False
513.471	0.85	0.3	2.45	0.0	89.0	motor_selective_stop_signal	71.0	True	0.818	89.0	False	stim	crit_stop_failure	s251	False
515.922	0.85	0.25	2.45	1.0	89.0	motor_selective_stop_signal	89.0	True	0.823	89.0	False	stim	crit_go	s251	False
528.881	0.85	0.25	2.35	1.0	89.0	motor_selective_stop_signal	-1.0	True	n/a	89.0	True	stim	crit_stop_success	s251	False
531.233	0.85	0.3	2.25	1.0	71.0	motor_selective_stop_signal	71.0	True	0.747	89.0	False	stim	noncrit_signal	s251	False
533.485	0.85	0.3	2.55	1.0	71.0	motor_selective_stop_signal	71.0	True	0.442	89.0	False	stim	noncrit_nosignal	s251	False
536.038	0.85	0.3	2.55	1.0	89.0	motor_selective_stop_signal	89.0	True	0.601	89.0	False	stim	crit_go	s251	False
538.59	0.85	0.3	2.25	0.0	71.0	motor_selective_stop_signal	-1.0	True	n/a	89.0	True	stim	noncrit_signal	s251	False
540.842	0.85	0.3	2.25	1.0	71.0	motor_selective_stop_signal	71.0	True	0.596	89.0	False	stim	noncrit_nosignal	s251	False
543.095	0.85	0.3	2.45	1.0	89.0	motor_selective_stop_signal	89.0	True	0.641	89.0	False	stim	crit_stop_failure	s251	False
545.547	0.85	0.25	2.35	0.0	89.0	motor_selective_stop_signal	71.0	True	0.661	89.0	False	stim	crit_go	s251	False
547.899	0.85	0.25	2.25	1.0	89.0	motor_selective_stop_signal	89.0	True	0.544	89.0	False	stim	crit_go	s251	False
550.151	0.85	0.25	3.15	1.0	89.0	motor_selective_stop_signal	89.0	True	0.438	89.0	False	stim	crit_go	s251	False
553.303	0.85	0.25	2.65	1.0	71.0	motor_selective_stop_signal	71.0	True	0.58	89.0	False	stim	noncrit_nosignal	s251	False
555.955	0.85	0.25	2.25	0.0	71.0	motor_selective_stop_signal	-1.0	True	n/a	89.0	True	stim	noncrit_signal	s251	False
558.208	0.85	0.25	2.45	1.0	89.0	motor_selective_stop_signal	89.0	True	0.723	89.0	False	stim	crit_stop_failure	s251	False
560.66	0.85	0.2	2.85	1.0	71.0	motor_selective_stop_signal	71.0	True	0.619	89.0	False	stim	noncrit_signal	s251	False
563.512	0.85	0.2	2.45	1.0	71.0	motor_selective_stop_signal	71.0	True	0.536	89.0	False	stim	noncrit_nosignal	s251	False
565.964	0.85	0.2	2.25	1.0	71.0	motor_selective_stop_signal	71.0	True	0.483	89.0	False	stim	noncrit_nosignal	s251	False
568.216	0.85	0.2	2.25	1.0	71.0	motor_selective_stop_signal	71.0	True	0.529	89.0	False	stim	noncrit_nosignal	s251	False
570.468	0.85	0.2	2.55	1.0	71.0	motor_selective_stop_signal	71.0	True	0.629	89.0	False	stim	noncrit_signal	s251	False
573.02	0.85	0.2	2.25	1.0	89.0	motor_selective_stop_signal	89.0	True	0.634	89.0	False	stim	crit_stop_failure	s251	False
575.273	0.85	0.15	2.35	1.0	89.0	motor_selective_stop_signal	89.0	True	0.61	89.0	False	stim	crit_go	s251	False
577.625	0.85	0.15	2.35	1.0	89.0	motor_selective_stop_signal	-1.0	True	n/a	89.0	True	stim	crit_stop_success	s251	False
579.977	0.85	0.2	2.25	1.0	89.0	motor_selective_stop_signal	89.0	True	0.651	89.0	False	stim	crit_go	s251	False
582.229	0.85	0.2	2.35	0.0	71.0	motor_selective_stop_signal	-1.0	True	n/a	89.0	True	stim	noncrit_signal	s251	False
584.582	0.85	0.2	2.25	1.0	89.0	motor_selective_stop_signal	89.0	True	0.567	89.0	False	stim	crit_go	s251	False
586.835	0.85	0.2	2.45	1.0	71.0	motor_selective_stop_signal	71.0	True	0.596	89.0	False	stim	noncrit_nosignal	s251	False
589.286	0.85	0.2	2.25	1.0	89.0	motor_selective_stop_signal	89.0	True	0.627	89.0	False	stim	crit_go	s251	False
591.538	0.85	0.2	2.35	1.0	71.0	motor_selective_stop_signal	71.0	True	0.503	89.0	False	stim	noncrit_nosignal	s251	False
593.891	0.85	0.2	2.45	1.0	71.0	motor_selective_stop_signal	71.0	True	0.796	89.0	False	stim	noncrit_signal	s251	False
596.342	0.85	0.2	2.25	1.0	89.0	motor_selective_stop_signal	-1.0	True	n/a	89.0	True	stim	crit_stop_success	s251	False
598.594	0.85	0.25	2.25	0.0	89.0	motor_selective_stop_signal	71.0	True	0.502	89.0	False	stim	crit_go	s251	False
600.846	0.85	0.25	2.85	1.0	71.0	motor_selective_stop_signal	71.0	True	0.91	89.0	False	stim	noncrit_nosignal	s251	False
603.7	0.85	0.25	2.25	1.0	89.0	motor_selective_stop_signal	89.0	True	0.818	89.0	False	stim	crit_go	s251	False
605.952	0.85	0.25	3.45	1.0	89.0	motor_selective_stop_signal	89.0	True	0.548	89.0	False	stim	crit_go	s251	False
609.405	0.85	0.25	2.35	1.0	71.0	motor_selective_stop_signal	71.0	True	0.684	89.0	False	stim	noncrit_signal	s251	False
611.757	0.85	0.25	2.35	1.0	71.0	motor_selective_stop_signal	71.0	True	0.681	89.0	False	stim	noncrit_signal	s251	False
614.109	0.85	0.25	2.35	1.0	71.0	motor_selective_stop_signal	71.0	True	0.571	89.0	False	stim	noncrit_nosignal	s251	False
616.462	0.85	0.25	2.45	1.0	89.0	motor_selective_stop_signal	-1.0	True	n/a	89.0	True	stim	crit_stop_success	s251	False
618.914	0.85	0.3	2.55	1.0	71.0	motor_selective_stop_signal	71.0	True	0.561	89.0	False	stim	noncrit_signal	s251	False
621.466	0.85	0.3	2.35	1.0	89.0	motor_selective_stop_signal	89.0	True	0.673	89.0	False	stim	crit_go	s251	False
623.819	0.85	0.3	2.25	1.0	89.0	motor_selective_stop_signal	89.0	True	0.616	89.0	False	stim	crit_stop_failure	s251	False
626.071	0.85	0.25	2.25	1.0	89.0	motor_selective_stop_signal	89.0	True	0.631	89.0	False	stim	crit_go	s251	False
628.323	0.85	0.25	3.05	1.0	71.0	motor_selective_stop_signal	71.0	True	0.588	89.0	False	stim	noncrit_nosignal	s251	False
631.375	0.85	0.25	2.45	1.0	71.0	motor_selective_stop_signal	71.0	True	0.558	89.0	False	stim	noncrit_nosignal	s251	False
633.827	0.85	0.25	2.35	1.0	89.0	motor_selective_stop_signal	89.0	True	0.667	89.0	False	stim	crit_go	s251	False
636.179	0.85	0.25	2.25	1.0	89.0	motor_selective_stop_signal	-1.0	True	n/a	89.0	True	stim	crit_stop_success	s251	False
638.431	0.85	0.3	3.25	1.0	89.0	motor_selective_stop_signal	-1.0	True	n/a	89.0	True	stim	crit_stop_success	s251	False
641.682	0.85	0.35	2.95	1.0	89.0	motor_selective_stop_signal	89.0	True	0.733	89.0	False	stim	crit_go	s251	False
644.635	0.85	0.35	2.55	1.0	89.0	motor_selective_stop_signal	89.0	True	0.472	89.0	False	stim	crit_stop_failure	s251	False
647.187	0.85	0.3	2.35	1.0	71.0	motor_selective_stop_signal	71.0	True	0.697	89.0	False	stim	noncrit_nosignal	s251	False
649.54	0.85	0.3	2.55	1.0	89.0	motor_selective_stop_signal	-1.0	True	n/a	89.0	True	stim	crit_stop_success	s251	False
