onset	duration	movement_onset	EV	action	block_duration	experiment_exp_id	gain_amount	gain_probability	key_press	loss_amount	loss_probability	num_cards	num_click_in_round	num_loss_cards	risk	response_time	total_cards	trial_id	trial_type	worker_id	junk	feedback
3.009	2.917	5.926	-0.6500971088373431	draw_card	2.917	columbia_card_task_fmri	12.0	0.8333333333333334	89.0	-70.0	0.1666666666666666	6.0	1.0	1.0	-1.9922408861137804	2.917	n/a	stim	poldrack-single-stim	s251	False	1
5.929	1.598	7.527	-3.383430442170676	draw_card	1.598	columbia_card_task_fmri	12.0	0.8	89.0	-70.0	0.2	6.0	2.0	1.0	0.2470094024368023	1.598	n/a	stim	poldrack-single-stim	s251	False	1
7.529	1.323	8.852	-7.483430442170677	draw_card	1.323	columbia_card_task_fmri	12.0	0.75	89.0	-70.0	0.25	6.0	3.0	1.0	2.9528507364225405	1.323	n/a	stim	poldrack-single-stim	s251	False	1
8.854	1.375	10.229	-14.31676377550401	end_round	1.375	columbia_card_task_fmri	12.0	0.6666666666666667	71.0	-70.0	0.3333333333333333	6.0	4.0	1.0	6.09979540290437	1.375	3.0	stim	poldrack-single-stim	s251	False	1
10.982	1.5	10.231	n/a	-1.0	2.25	columbia_card_task_fmri	n/a	n/a	-1.0	n/a	n/a	n/a	n/a	n/a	n/a	n/a	n/a	ITI	poldrack-single-stim	s251	False	0
12.483	2.228	14.711	0.1832362244959908	draw_card	2.228	columbia_card_task_fmri	14.0	0.8333333333333334	89.0	-75.0	0.1666666666666666	6.0	1.0	1.0	0.6151762498689521	2.228	n/a	stim	poldrack-single-stim	s251	False	1
14.712	0.884	15.596	-2.783430442170676	draw_card	0.884	columbia_card_task_fmri	14.0	0.8	89.0	-75.0	0.2	6.0	2.0	1.0	3.0457712058588413	0.884	2.0	stim	poldrack-single-stim	s251	False	0
16.349	1.5	15.598	n/a	-1.0	2.386	columbia_card_task_fmri	n/a	n/a	-1.0	n/a	n/a	n/a	n/a	n/a	n/a	n/a	n/a	ITI	poldrack-single-stim	s251	False	0
17.988	1.885	19.873	1.849902891162657	draw_card	1.885	columbia_card_task_fmri	15.0	0.8333333333333334	89.0	-70.0	0.1666666666666666	6.0	1.0	1.0	-0.874803178730744	1.885	n/a	stim	poldrack-single-stim	s251	False	1
19.875	0.593	20.468	-0.983430442170677	draw_card	0.593	columbia_card_task_fmri	15.0	0.8	89.0	-70.0	0.2	6.0	2.0	1.0	1.4464537914113509	0.593	n/a	stim	poldrack-single-stim	s251	False	1
20.469	0.918	21.387	-5.233430442170677	draw_card	0.918	columbia_card_task_fmri	15.0	0.75	89.0	-70.0	0.25	6.0	3.0	1.0	4.25137553831788	0.918	n/a	stim	poldrack-single-stim	s251	False	1
21.387	0.64	22.027	-12.316763775504008	end_round	0.64	columbia_card_task_fmri	15.0	0.6666666666666667	71.0	-70.0	0.3333333333333333	6.0	4.0	1.0	7.513537421963541	0.64	3.0	stim	poldrack-single-stim	s251	False	1
22.78	1.5	22.029	n/a	-1.0	2.59	columbia_card_task_fmri	n/a	n/a	-1.0	n/a	n/a	n/a	n/a	n/a	n/a	n/a	n/a	ITI	poldrack-single-stim	s251	False	0
24.621	1.935	26.556	2.68323622449599	draw_card	1.935	columbia_card_task_fmri	17.0	0.8333333333333334	89.0	-75.0	0.1666666666666666	6.0	1.0	1.0	1.7327025962051863	1.935	n/a	stim	poldrack-single-stim	s251	False	1
26.558	0.735	27.293	-0.3834304421706755	draw_card	0.735	columbia_card_task_fmri	17.0	0.8	89.0	-75.0	0.2	6.0	2.0	1.0	4.245298195448896	0.735	n/a	stim	poldrack-single-stim	s251	False	1
27.293	0.611	27.904	-4.983430442170677	draw_card	0.611	columbia_card_task_fmri	17.0	0.75	89.0	-75.0	0.25	6.0	3.0	1.0	7.281396860615757	0.611	3.0	stim	poldrack-single-stim	s251	False	0
28.657	1.5	27.906	n/a	-1.0	2.658	columbia_card_task_fmri	n/a	n/a	-1.0	n/a	n/a	n/a	n/a	n/a	n/a	n/a	n/a	ITI	poldrack-single-stim	s251	False	0
30.567	3.056	33.623	4.016569557829323	draw_card	3.056	columbia_card_task_fmri	24.0	0.75	89.0	-60.0	0.25	8.0	1.0	2.0	3.818529866241491	3.056	n/a	stim	poldrack-single-stim	s251	False	1
33.624	0.814	34.438	1.016569557829323	draw_card	0.814	columbia_card_task_fmri	24.0	0.7142857142857143	89.0	-60.0	0.2857142857142857	8.0	2.0	2.0	5.392205827092205	0.814	n/a	stim	poldrack-single-stim	s251	False	1
34.44	0.588	35.028	-2.983430442170677	draw_card	0.588	columbia_card_task_fmri	24.0	0.6666666666666667	89.0	-60.0	0.3333333333333333	8.0	3.0	2.0	7.042286341726424	0.588	n/a	stim	poldrack-single-stim	s251	False	1
35.03	0.666	35.696	-8.583430442170679	draw_card	0.666	columbia_card_task_fmri	24.0	0.6	89.0	-60.0	0.4	8.0	4.0	2.0	8.595241921295383	0.666	4.0	stim	poldrack-single-stim	s251	False	0
36.449	1.5	35.698	n/a	-1.0	2.386	columbia_card_task_fmri	n/a	n/a	-1.0	n/a	n/a	n/a	n/a	n/a	n/a	n/a	n/a	ITI	poldrack-single-stim	s251	False	0
38.086	1.826	39.912	4.016569557829323	draw_card	1.826	columbia_card_task_fmri	29.0	0.75	89.0	-75.0	0.25	8.0	1.0	2.0	12.476053340034715	1.826	n/a	stim	poldrack-single-stim	s251	False	1
39.913	0.606	40.519	0.3022838435436112	draw_card	0.606	columbia_card_task_fmri	29.0	0.7142857142857143	89.0	-75.0	0.2857142857142857	8.0	2.0	2.0	14.424667468873665	0.606	n/a	stim	poldrack-single-stim	s251	False	1
40.52	0.509	41.029	-4.6500971088373415	draw_card	0.509	columbia_card_task_fmri	29.0	0.6666666666666667	89.0	-75.0	0.3333333333333333	8.0	3.0	2.0	16.467868386137205	0.509	3.0	stim	poldrack-single-stim	s251	False	0
41.783	1.5	41.032	n/a	-1.0	2.386	columbia_card_task_fmri	n/a	n/a	-1.0	n/a	n/a	n/a	n/a	n/a	n/a	n/a	n/a	ITI	poldrack-single-stim	s251	False	0
43.419	1.806	45.225	-0.2056526643928966	draw_card	1.806	columbia_card_task_fmri	17.0	0.7777777777777778	89.0	-65.0	0.2222222222222222	9.0	1.0	2.0	1.5370695954358735	1.806	n/a	stim	poldrack-single-stim	s251	False	1
45.226	0.786	46.012	-2.483430442170677	draw_card	0.786	columbia_card_task_fmri	17.0	0.75	89.0	-65.0	0.25	9.0	2.0	2.0	2.9528507364225405	0.786	n/a	stim	poldrack-single-stim	s251	False	1
46.014	0.852	46.866	-5.412001870742104	draw_card	0.852	columbia_card_task_fmri	17.0	0.7142857142857143	89.0	-65.0	0.2857142857142857	9.0	3.0	2.0	4.489029848971441	0.852	n/a	stim	poldrack-single-stim	s251	False	1
46.868	1.484	48.352	-9.316763775504008	end_round	1.484	columbia_card_task_fmri	17.0	0.6666666666666667	71.0	-65.0	0.3333333333333333	9.0	4.0	2.0	6.09979540290437	1.484	3.0	stim	poldrack-single-stim	s251	False	1
49.105	1.5	48.354	n/a	-1.0	2.25	columbia_card_task_fmri	n/a	n/a	-1.0	n/a	n/a	n/a	n/a	n/a	n/a	n/a	n/a	ITI	poldrack-single-stim	s251	False	0
50.607	1.965	52.572	4.116569557829322	draw_card	1.965	columbia_card_task_fmri	14.0	0.9	89.0	-95.0	0.1	10.0	1.0	1.0	0.1470575427501899	1.965	n/a	stim	poldrack-single-stim	s251	False	1
52.574	1.16	53.734	2.9054584467182103	draw_card	1.16	columbia_card_task_fmri	14.0	0.8888888888888888	89.0	-95.0	0.1111111111111111	10.0	2.0	1.0	1.7017357392596892	1.16	n/a	stim	poldrack-single-stim	s251	False	1
53.736	0.849	54.585	1.391569557829323	draw_card	0.849	columbia_card_task_fmri	14.0	0.875	89.0	-95.0	0.125	10.0	3.0	1.0	3.4939524031800886	0.849	n/a	stim	poldrack-single-stim	s251	False	1
54.587	0.55	55.137	-0.5548590135992482	end_round	0.55	columbia_card_task_fmri	14.0	0.8571428571428572	71.0	-95.0	0.1428571428571428	10.0	4.0	1.0	5.586858993980378	0.55	3.0	stim	poldrack-single-stim	s251	False	1
55.889	1.5	55.138	n/a	-1.0	2.318	columbia_card_task_fmri	n/a	n/a	-1.0	n/a	n/a	n/a	n/a	n/a	n/a	n/a	n/a	ITI	poldrack-single-stim	s251	False	0
57.459	2.135	59.594	0.016569557829323	draw_card	2.135	columbia_card_task_fmri	15.0	0.8	89.0	-65.0	0.2	10.0	1.0	2.0	-0.5525970567746867	2.135	1.0	stim	poldrack-single-stim	s251	False	0
60.347	1.5	59.596	n/a	-1.0	2.25	columbia_card_task_fmri	n/a	n/a	-1.0	n/a	n/a	n/a	n/a	n/a	n/a	n/a	n/a	ITI	poldrack-single-stim	s251	False	0
61.849	1.669	63.518	1.6165695578293244	draw_card	1.669	columbia_card_task_fmri	17.0	0.8	89.0	-65.0	0.2	10.0	1.0	2.0	0.2470094024368023	1.669	n/a	stim	poldrack-single-stim	s251	False	1
63.52	0.792	64.312	-0.2056526643928966	draw_card	0.792	columbia_card_task_fmri	17.0	0.7777777777777778	89.0	-65.0	0.2222222222222222	10.0	2.0	2.0	1.5370695954358735	0.792	n/a	stim	poldrack-single-stim	s251	False	1
64.314	0.59	64.904	-2.483430442170677	draw_card	0.59	columbia_card_task_fmri	17.0	0.75	89.0	-65.0	0.25	10.0	3.0	2.0	2.9528507364225405	0.59	n/a	stim	poldrack-single-stim	s251	False	1
64.905	0.862	65.767	-5.412001870742104	end_round	0.862	columbia_card_task_fmri	17.0	0.7142857142857143	71.0	-65.0	0.2857142857142857	10.0	4.0	2.0	4.489029848971441	0.862	3.0	stim	poldrack-single-stim	s251	False	1
66.52	1.5	65.769	n/a	-1.0	2.25	columbia_card_task_fmri	n/a	n/a	-1.0	n/a	n/a	n/a	n/a	n/a	n/a	n/a	n/a	ITI	poldrack-single-stim	s251	False	0
68.022	1.862	69.884	0.1832362244959908	draw_card	1.862	columbia_card_task_fmri	13.0	0.8333333333333334	89.0	-70.0	0.1666666666666666	12.0	1.0	2.0	-1.6197664358668111	1.862	n/a	stim	poldrack-single-stim	s251	False	1
69.885	0.563	70.448	-1.0743395330797705	draw_card	0.563	columbia_card_task_fmri	13.0	0.8181818181818181	89.0	-70.0	0.1818181818181818	12.0	2.0	2.0	-0.5399509764582362	0.563	n/a	stim	poldrack-single-stim	s251	False	1
70.45	0.465	70.915	-2.583430442170677	draw_card	0.465	columbia_card_task_fmri	13.0	0.8	89.0	-70.0	0.2	12.0	3.0	2.0	0.646819739146018	0.465	n/a	stim	poldrack-single-stim	s251	False	1
70.916	0.618	71.534	-4.427874886615122	end_round	0.618	columbia_card_task_fmri	13.0	0.7777777777777778	71.0	-70.0	0.2222222222222222	12.0	4.0	2.0	1.95262681270858	0.618	3.0	stim	poldrack-single-stim	s251	False	1
72.288	1.5	71.537	n/a	-1.0	2.386	columbia_card_task_fmri	n/a	n/a	-1.0	n/a	n/a	n/a	n/a	n/a	n/a	n/a	n/a	ITI	poldrack-single-stim	s251	False	0
73.927	2.749	76.676	0.1832362244959908	draw_card	2.749	columbia_card_task_fmri	15.0	0.8333333333333334	89.0	-80.0	0.1666666666666666	12.0	1.0	2.0	2.8502609836979644	2.749	n/a	stim	poldrack-single-stim	s251	False	1
76.678	0.503	77.181	-1.256157714897952	draw_card	0.503	columbia_card_task_fmri	15.0	0.8181818181818181	89.0	-80.0	0.1818181818181818	12.0	2.0	2.0	4.086346846853921	0.503	n/a	stim	poldrack-single-stim	s251	False	1
77.184	0.507	77.691	-2.983430442170677	draw_card	0.507	columbia_card_task_fmri	15.0	0.8	89.0	-80.0	0.2	12.0	3.0	2.0	5.444855042822404	0.507	n/a	stim	poldrack-single-stim	s251	False	1
77.693	0.559	78.252	-5.09454155328179	end_round	0.559	columbia_card_task_fmri	15.0	0.7777777777777778	71.0	-80.0	0.2222222222222222	12.0	4.0	2.0	6.939612927829195	0.559	3.0	stim	poldrack-single-stim	s251	False	1
79.006	1.5	78.255	n/a	-1.0	2.386	columbia_card_task_fmri	n/a	n/a	-1.0	n/a	n/a	n/a	n/a	n/a	n/a	n/a	n/a	ITI	poldrack-single-stim	s251	False	0
80.644	3.894	84.538	-0.7834304421706759	draw_card	3.894	columbia_card_task_fmri	14.0	0.8	89.0	-65.0	0.2	15.0	1.0	3.0	-0.9523928197866098	3.894	1.0	stim	poldrack-single-stim	s251	False	0
85.29	1.5	84.539	n/a	-1.0	2.726	columbia_card_task_fmri	n/a	n/a	-1.0	n/a	n/a	n/a	n/a	n/a	n/a	n/a	n/a	ITI	poldrack-single-stim	s251	False	0
87.267	4.4	91.667	-0.858430442170677	draw_card	4.4	columbia_card_task_fmri	1.0	0.9375	89.0	-45.0	0.0625	16.0	1.0	1.0	-21.387604680954645	4.4	n/a	stim	poldrack-single-stim	s251	False	1
91.669	0.713	92.382	-1.0500971088373434	end_round	0.713	columbia_card_task_fmri	1.0	0.9333333333333332	71.0	-45.0	0.0666666666666666	16.0	2.0	1.0	-21.04938089476664	0.713	1.0	stim	poldrack-single-stim	s251	False	1
93.136	1.5	92.385	n/a	-1.0	2.454	columbia_card_task_fmri	n/a	n/a	-1.0	n/a	n/a	n/a	n/a	n/a	n/a	n/a	n/a	ITI	poldrack-single-stim	s251	False	0
94.841	3.968	98.809	0.079069557829323	draw_card	3.968	columbia_card_task_fmri	15.0	0.8125	89.0	-70.0	0.1875	16.0	1.0	3.0	0.6233825976619656	3.968	n/a	stim	poldrack-single-stim	s251	False	1
98.812	0.591	99.403	-0.983430442170677	draw_card	0.591	columbia_card_task_fmri	15.0	0.8	89.0	-70.0	0.2	16.0	2.0	3.0	1.4464537914113509	0.591	n/a	stim	poldrack-single-stim	s251	False	1
99.404	0.488	99.892	-2.1977161564563925	draw_card	0.488	columbia_card_task_fmri	15.0	0.7857142857142857	89.0	-70.0	0.2142857142857142	16.0	3.0	3.0	2.3237733828303817	0.488	3.0	stim	poldrack-single-stim	s251	False	0
100.646	1.5	99.895	n/a	-1.0	2.318	columbia_card_task_fmri	n/a	n/a	-1.0	n/a	n/a	n/a	n/a	n/a	n/a	n/a	n/a	ITI	poldrack-single-stim	s251	False	0
102.216	1.557	103.773	7.016569557829323	draw_card	1.557	columbia_card_task_fmri	30.0	0.7	89.0	-50.0	0.3	10.0	1.0	3.0	4.1059571122659335	1.557	n/a	stim	poldrack-single-stim	s251	False	1
103.775	0.499	104.274	4.349902891162662	draw_card	0.499	columbia_card_task_fmri	30.0	0.6666666666666667	89.0	-50.0	0.3333333333333333	10.0	2.0	3.0	5.157320360766114	0.499	n/a	stim	poldrack-single-stim	s251	False	1
104.276	0.426	104.702	1.016569557829323	draw_card	0.426	columbia_card_task_fmri	30.0	0.625	89.0	-50.0	0.375	10.0	3.0	3.0	6.17443240459896	0.426	n/a	stim	poldrack-single-stim	s251	False	1
104.704	0.448	105.152	-3.269144727884962	end_round	0.448	columbia_card_task_fmri	30.0	0.5714285714285714	71.0	-50.0	0.4285714285714285	10.0	4.0	3.0	7.034042056588724	0.448	3.0	stim	poldrack-single-stim	s251	False	1
105.905	1.5	105.154	n/a	-1.0	2.318	columbia_card_task_fmri	n/a	n/a	-1.0	n/a	n/a	n/a	n/a	n/a	n/a	n/a	n/a	ITI	poldrack-single-stim	s251	False	0
107.477	1.679	109.156	6.416569557829323	draw_card	1.679	columbia_card_task_fmri	17.0	0.8666666666666667	89.0	-70.0	0.1333333333333333	15.0	1.0	2.0	-2.976960578726544	1.679	n/a	stim	poldrack-single-stim	s251	False	1
109.158	0.485	109.643	5.587998129257896	draw_card	0.485	columbia_card_task_fmri	17.0	0.8571428571428572	89.0	-70.0	0.1428571428571428	15.0	2.0	2.0	-2.108114009711553	0.485	2.0	stim	poldrack-single-stim	s251	False	0
110.396	1.5	109.645	n/a	-1.0	2.59	columbia_card_task_fmri	n/a	n/a	-1.0	n/a	n/a	n/a	n/a	n/a	n/a	n/a	n/a	ITI	poldrack-single-stim	s251	False	0
112.239	2.472	114.711	1.641569557829323	draw_card	2.472	columbia_card_task_fmri	7.0	0.9375	89.0	-95.0	0.0625	16.0	1.0	1.0	-7.857552553126442	2.472	n/a	stim	poldrack-single-stim	s251	False	1
114.713	0.878	115.591	1.2165695578293232	draw_card	0.878	columbia_card_task_fmri	7.0	0.9333333333333332	89.0	-95.0	0.0666666666666666	16.0	2.0	1.0	-7.105169749071788	0.878	2.0	stim	poldrack-single-stim	s251	False	0
116.344	1.5	115.593	n/a	-1.0	2.726	columbia_card_task_fmri	n/a	n/a	-1.0	n/a	n/a	n/a	n/a	n/a	n/a	n/a	n/a	ITI	poldrack-single-stim	s251	False	0
118.321	3.183	121.504	3.204069557829323	draw_card	3.183	columbia_card_task_fmri	9.0	0.9375	89.0	-100.0	0.0625	16.0	1.0	1.0	-6.164464711029904	3.183	n/a	stim	poldrack-single-stim	s251	False	1
121.506	0.432	121.938	2.749902891162656	draw_card	0.432	columbia_card_task_fmri	9.0	0.9333333333333332	89.0	-100.0	0.0666666666666666	16.0	2.0	1.0	-5.360365702924213	0.432	n/a	stim	poldrack-single-stim	s251	False	1
121.94	0.475	122.415	2.230855272115038	draw_card	0.475	columbia_card_task_fmri	9.0	0.9285714285714286	89.0	-100.0	0.0714285714285714	16.0	3.0	1.0	-4.478547410022127	0.475	n/a	stim	poldrack-single-stim	s251	False	1
122.418	0.385	122.803	1.6319541732139389	end_round	0.385	columbia_card_task_fmri	9.0	0.9230769230769232	71.0	-100.0	0.0769230769230769	16.0	4.0	1.0	-3.5057960477751067	0.385	3.0	stim	poldrack-single-stim	s251	False	1
123.557	1.5	122.806	n/a	-1.0	2.522	columbia_card_task_fmri	n/a	n/a	-1.0	n/a	n/a	n/a	n/a	n/a	n/a	n/a	n/a	ITI	poldrack-single-stim	s251	False	0
125.33	3.242	128.572	4.141569557829323	end_round	3.242	columbia_card_task_fmri	15.0	0.875	71.0	-80.0	0.125	16.0	1.0	2.0	-1.1340015082219104	3.242	0.0	stim	poldrack-single-stim	s251	False	1
129.326	1.5	128.575	n/a	-1.0	3.134	columbia_card_task_fmri	n/a	n/a	-1.0	n/a	n/a	n/a	n/a	n/a	n/a	n/a	n/a	ITI	poldrack-single-stim	s251	False	0
131.712	3.177	134.889	6.266569557829323	draw_card	3.177	columbia_card_task_fmri	16.0	0.875	89.0	-70.0	0.125	16.0	1.0	2.0	-4.10875213135143	3.177	1.0	stim	poldrack-single-stim	s251	False	0
135.643	1.5	134.892	n/a	-1.0	2.386	columbia_card_task_fmri	n/a	n/a	-1.0	n/a	n/a	n/a	n/a	n/a	n/a	n/a	n/a	ITI	poldrack-single-stim	s251	False	0
137.281	2.058	139.339	7.579069557829323	draw_card	2.058	columbia_card_task_fmri	30.0	0.6875	89.0	-45.0	0.3125	16.0	1.0	5.0	2.2095506754361622	2.058	n/a	stim	poldrack-single-stim	s251	False	1
139.341	0.655	139.996	6.016569557829326	draw_card	0.655	columbia_card_task_fmri	30.0	0.6666666666666667	89.0	-45.0	0.3333333333333333	16.0	2.0	5.0	2.8012106427162493	0.655	2.0	stim	poldrack-single-stim	s251	False	0
140.75	1.5	139.999	n/a	-1.0	2.386	columbia_card_task_fmri	n/a	n/a	-1.0	n/a	n/a	n/a	n/a	n/a	n/a	n/a	n/a	ITI	poldrack-single-stim	s251	False	0
142.389	1.928	144.317	-0.6500971088373431	draw_card	1.928	columbia_card_task_fmri	13.0	0.8333333333333334	89.0	-75.0	0.1666666666666666	6.0	1.0	1.0	0.2426751538717368	1.928	n/a	stim	poldrack-single-stim	s251	False	1
144.319	1.77	146.089	-3.583430442170677	draw_card	1.77	columbia_card_task_fmri	13.0	0.8	89.0	-75.0	0.2	6.0	2.0	1.0	2.645936038421844	1.77	2.0	stim	poldrack-single-stim	s251	False	0
146.841	1.5	146.09	n/a	-1.0	2.318	columbia_card_task_fmri	n/a	n/a	-1.0	n/a	n/a	n/a	n/a	n/a	n/a	n/a	n/a	ITI	poldrack-single-stim	s251	False	0
148.411	1.365	149.776	1.0165695578293248	draw_card	1.365	columbia_card_task_fmri	14.0	0.8333333333333334	89.0	-70.0	0.1666666666666666	6.0	1.0	1.0	-1.2472871431620405	1.365	n/a	stim	poldrack-single-stim	s251	False	1
149.778	0.377	150.155	-1.783430442170676	draw_card	0.377	columbia_card_task_fmri	14.0	0.8	89.0	-70.0	0.2	6.0	2.0	1.0	1.046634588512681	0.377	n/a	stim	poldrack-single-stim	s251	False	1
150.158	0.395	150.553	-5.983430442170677	end_round	0.395	columbia_card_task_fmri	14.0	0.75	71.0	-70.0	0.25	6.0	3.0	1.0	3.818529866241491	0.395	2.0	stim	poldrack-single-stim	s251	False	1
151.306	1.5	150.555	n/a	-1.0	2.318	columbia_card_task_fmri	n/a	n/a	-1.0	n/a	n/a	n/a	n/a	n/a	n/a	n/a	n/a	ITI	poldrack-single-stim	s251	False	0
152.876	1.199	154.075	1.0165695578293248	draw_card	1.199	columbia_card_task_fmri	16.0	0.8333333333333334	89.0	-80.0	0.1666666666666666	6.0	1.0	1.0	3.2227870476998746	1.199	n/a	stim	poldrack-single-stim	s251	False	1
154.076	0.428	154.504	-2.1834304421706765	draw_card	0.428	columbia_card_task_fmri	16.0	0.8	89.0	-80.0	0.2	6.0	2.0	1.0	5.844713476886604	0.428	n/a	stim	poldrack-single-stim	s251	False	1
154.507	0.501	155.008	-6.983430442170677	end_round	0.501	columbia_card_task_fmri	16.0	0.75	71.0	-80.0	0.25	6.0	3.0	1.0	9.01290748486231	0.501	2.0	stim	poldrack-single-stim	s251	False	1
155.762	1.5	155.011	n/a	-1.0	2.862	columbia_card_task_fmri	n/a	n/a	-1.0	n/a	n/a	n/a	n/a	n/a	n/a	n/a	n/a	ITI	poldrack-single-stim	s251	False	0
157.876	1.685	159.561	3.516569557829325	draw_card	1.685	columbia_card_task_fmri	17.0	0.8333333333333334	89.0	-70.0	0.1666666666666666	6.0	1.0	1.0	-0.1298218784148161	1.685	n/a	stim	poldrack-single-stim	s251	False	1
159.563	0.585	160.148	0.6165695578293244	draw_card	0.585	columbia_card_task_fmri	17.0	0.8	89.0	-70.0	0.2	6.0	2.0	1.0	2.2461046578432686	0.585	n/a	stim	poldrack-single-stim	s251	False	1
160.151	2.573	162.724	-3.733430442170677	end_round	2.573	columbia_card_task_fmri	17.0	0.75	71.0	-70.0	0.25	6.0	3.0	1.0	5.117078395357424	2.573	2.0	stim	poldrack-single-stim	s251	False	1
163.478	1.5	162.727	n/a	-1.0	2.726	columbia_card_task_fmri	n/a	n/a	-1.0	n/a	n/a	n/a	n/a	n/a	n/a	n/a	n/a	ITI	poldrack-single-stim	s251	False	0
165.457	2.212	167.669	3.516569557829323	draw_card	2.212	columbia_card_task_fmri	25.0	0.75	89.0	-65.0	0.25	8.0	1.0	2.0	6.41565954567762	2.212	n/a	stim	poldrack-single-stim	s251	False	1
167.67	0.458	168.128	0.3022838435436112	draw_card	0.458	columbia_card_task_fmri	25.0	0.7142857142857143	89.0	-65.0	0.2857142857142857	8.0	2.0	2.0	8.101822230918792	0.458	n/a	stim	poldrack-single-stim	s251	False	1
168.131	0.544	168.675	-3.9834304421706737	draw_card	0.544	columbia_card_task_fmri	25.0	0.6666666666666667	89.0	-65.0	0.3333333333333333	8.0	3.0	2.0	9.8698439470337	0.544	n/a	stim	poldrack-single-stim	s251	False	1
168.677	0.392	169.069	-9.983430442170675	end_round	0.392	columbia_card_task_fmri	25.0	0.6	71.0	-65.0	0.4	8.0	4.0	2.0	11.533792888541718	0.392	3.0	stim	poldrack-single-stim	s251	False	1
169.824	1.5	169.073	n/a	-1.0	2.25	columbia_card_task_fmri	n/a	n/a	-1.0	n/a	n/a	n/a	n/a	n/a	n/a	n/a	n/a	ITI	poldrack-single-stim	s251	False	0
171.326	1.812	173.138	3.516569557829323	draw_card	1.812	columbia_card_task_fmri	30.0	0.75	89.0	-80.0	0.25	8.0	1.0	2.0	15.073503929780776	1.812	n/a	stim	poldrack-single-stim	s251	False	1
173.141	0.395	173.536	-0.4120018707421005	draw_card	0.395	columbia_card_task_fmri	30.0	0.7142857142857143	89.0	-80.0	0.2857142857142857	8.0	2.0	2.0	17.134591492606113	0.395	n/a	stim	poldrack-single-stim	s251	False	1
173.538	0.275	173.813	-5.650097108837338	draw_card	0.275	columbia_card_task_fmri	30.0	0.6666666666666667	89.0	-80.0	0.3333333333333333	8.0	3.0	2.0	19.295720808275583	0.275	n/a	stim	poldrack-single-stim	s251	False	1
173.816	0.363	174.179	-12.983430442170675	end_round	0.363	columbia_card_task_fmri	30.0	0.6	71.0	-80.0	0.4	8.0	4.0	2.0	21.32962180947783	0.363	3.0	stim	poldrack-single-stim	s251	False	1
174.933	1.5	174.182	n/a	-1.0	2.318	columbia_card_task_fmri	n/a	n/a	-1.0	n/a	n/a	n/a	n/a	n/a	n/a	n/a	n/a	ITI	poldrack-single-stim	s251	False	0
176.504	2.942	179.446	3.216569557829324	draw_card	2.942	columbia_card_task_fmri	13.0	0.9	89.0	-95.0	0.1	10.0	1.0	1.0	-0.1527962546409256	2.942	1.0	stim	poldrack-single-stim	s251	False	0
180.2	1.5	179.449	n/a	-1.0	2.454	columbia_card_task_fmri	n/a	n/a	-1.0	n/a	n/a	n/a	n/a	n/a	n/a	n/a	n/a	ITI	poldrack-single-stim	s251	False	0
181.906	3.366	185.272	4.616569557829322	draw_card	3.366	columbia_card_task_fmri	14.0	0.9	89.0	-90.0	0.1	10.0	1.0	1.0	-1.3521833500660172	3.366	n/a	stim	poldrack-single-stim	s251	False	1
185.275	0.465	185.74	3.4610140022737657	draw_card	0.465	columbia_card_task_fmri	14.0	0.8888888888888888	89.0	-90.0	0.1111111111111111	10.0	2.0	1.0	0.1311120247540174	0.465	n/a	stim	poldrack-single-stim	s251	False	1
185.743	0.354	186.097	2.016569557829323	draw_card	0.354	columbia_card_task_fmri	14.0	0.875	89.0	-90.0	0.125	10.0	3.0	1.0	1.841046523738896	0.354	n/a	stim	poldrack-single-stim	s251	False	1
186.098	0.395	186.493	0.1594267006864671	end_round	0.395	columbia_card_task_fmri	14.0	0.8571428571428572	71.0	-90.0	0.1428571428571428	10.0	4.0	1.0	3.837874393282284	0.395	3.0	stim	poldrack-single-stim	s251	False	1
187.247	1.5	186.496	n/a	-1.0	2.522	columbia_card_task_fmri	n/a	n/a	-1.0	n/a	n/a	n/a	n/a	n/a	n/a	n/a	n/a	ITI	poldrack-single-stim	s251	False	0
189.021	2.26	191.281	-0.1834304421706762	draw_card	2.26	columbia_card_task_fmri	16.0	0.8	89.0	-70.0	0.2	10.0	1.0	2.0	1.8462771961095183	2.26	n/a	stim	poldrack-single-stim	s251	False	1
191.284	0.631	191.915	-2.094541553281788	draw_card	0.631	columbia_card_task_fmri	16.0	0.7777777777777778	89.0	-70.0	0.2222222222222222	10.0	2.0	2.0	3.1993239127140995	0.631	n/a	stim	poldrack-single-stim	s251	False	1
191.918	1.057	192.975	-4.483430442170677	draw_card	1.057	columbia_card_task_fmri	16.0	0.75	89.0	-70.0	0.25	10.0	3.0	2.0	4.684225092613353	1.057	n/a	stim	poldrack-single-stim	s251	False	1
192.978	0.501	193.479	-7.554859013599248	end_round	0.501	columbia_card_task_fmri	16.0	0.7142857142857143	71.0	-70.0	0.2857142857142857	10.0	4.0	2.0	6.29539723546096	0.501	3.0	stim	poldrack-single-stim	s251	False	1
194.233	1.5	193.482	n/a	-1.0	2.318	columbia_card_task_fmri	n/a	n/a	-1.0	n/a	n/a	n/a	n/a	n/a	n/a	n/a	n/a	ITI	poldrack-single-stim	s251	False	0
195.805	2.989	198.794	-0.9000971088373431	draw_card	2.989	columbia_card_task_fmri	7.0	0.9166666666666666	89.0	-100.0	0.0833333333333333	12.0	1.0	1.0	-2.978035408754621	2.989	n/a	stim	poldrack-single-stim	s251	False	1
198.798	1.422	200.22	-1.7107031694434054	draw_card	1.422	columbia_card_task_fmri	7.0	0.9090909090909092	89.0	-100.0	0.0909090909090909	12.0	2.0	1.0	-1.7916095903833416	1.422	n/a	stim	poldrack-single-stim	s251	False	1
200.222	1.404	201.626	-2.6834304421706774	end_round	1.404	columbia_card_task_fmri	7.0	0.9	71.0	-100.0	0.1	12.0	3.0	1.0	-0.4526473213077793	1.404	2.0	stim	poldrack-single-stim	s251	False	1
202.381	1.5	201.63	n/a	-1.0	2.522	columbia_card_task_fmri	n/a	n/a	-1.0	n/a	n/a	n/a	n/a	n/a	n/a	n/a	n/a	ITI	poldrack-single-stim	s251	False	0
204.155	1.751	205.906	-0.6500971088373413	draw_card	1.751	columbia_card_task_fmri	14.0	0.8333333333333334	89.0	-80.0	0.1666666666666666	12.0	1.0	2.0	2.477738150278391	1.751	n/a	stim	poldrack-single-stim	s251	False	1
205.909	0.427	206.336	-2.0743395330797707	draw_card	0.427	columbia_card_task_fmri	14.0	0.8181818181818181	89.0	-80.0	0.1818181818181818	12.0	2.0	2.0	3.700802171465604	0.427	n/a	stim	poldrack-single-stim	s251	False	1
206.339	0.334	206.673	-3.783430442170676	draw_card	0.334	columbia_card_task_fmri	14.0	0.8	89.0	-80.0	0.2	12.0	3.0	2.0	5.044999619166454	0.334	n/a	stim	poldrack-single-stim	s251	False	1
206.676	0.36	207.036	-5.872319331059567	end_round	0.36	columbia_card_task_fmri	14.0	0.7777777777777778	71.0	-80.0	0.2222222222222222	12.0	4.0	2.0	6.524012326541502	0.36	3.0	stim	poldrack-single-stim	s251	False	1
207.79	1.5	207.039	n/a	-1.0	2.998	columbia_card_task_fmri	n/a	n/a	-1.0	n/a	n/a	n/a	n/a	n/a	n/a	n/a	n/a	ITI	poldrack-single-stim	s251	False	0
210.042	2.674	212.716	1.016569557829323	end_round	2.674	columbia_card_task_fmri	15.0	0.8333333333333334	71.0	-75.0	0.1666666666666666	12.0	1.0	2.0	0.9876812742462632	2.674	0.0	stim	poldrack-single-stim	s251	False	1
213.47	1.5	212.719	n/a	-1.0	2.318	columbia_card_task_fmri	n/a	n/a	-1.0	n/a	n/a	n/a	n/a	n/a	n/a	n/a	n/a	ITI	poldrack-single-stim	s251	False	0
215.042	2.229	217.271	0.016569557829323	draw_card	2.229	columbia_card_task_fmri	15.0	0.8	89.0	-65.0	0.2	15.0	1.0	3.0	-0.5525970567746867	2.229	1.0	stim	poldrack-single-stim	s251	False	0
218.025	1.5	217.274	n/a	-1.0	2.25	columbia_card_task_fmri	n/a	n/a	-1.0	n/a	n/a	n/a	n/a	n/a	n/a	n/a	n/a	ITI	poldrack-single-stim	s251	False	0
219.528	3.87	223.398	-0.733430442170677	end_round	3.87	columbia_card_task_fmri	14.0	0.8125	71.0	-70.0	0.1875	16.0	1.0	3.0	0.2332555009684256	3.87	0.0	stim	poldrack-single-stim	s251	False	1
224.152	1.5	223.401	n/a	-1.0	2.454	columbia_card_task_fmri	n/a	n/a	-1.0	n/a	n/a	n/a	n/a	n/a	n/a	n/a	n/a	ITI	poldrack-single-stim	s251	False	0
225.861	2.087	227.948	-0.795930442170677	draw_card	2.087	columbia_card_task_fmri	11.0	0.6875	89.0	-30.0	0.3125	16.0	1.0	5.0	-13.537561512601595	2.087	n/a	stim	poldrack-single-stim	s251	False	1
227.951	0.687	228.638	-1.650097108837343	draw_card	0.687	columbia_card_task_fmri	11.0	0.6666666666666667	89.0	-30.0	0.3333333333333333	16.0	2.0	5.0	-13.214439021217856	0.687	n/a	stim	poldrack-single-stim	s251	False	1
228.64	0.454	229.094	-2.6262875850278213	draw_card	0.454	columbia_card_task_fmri	11.0	0.6428571428571428	89.0	-30.0	0.3571428571428571	16.0	3.0	5.0	-12.897001685196605	0.454	n/a	stim	poldrack-single-stim	s251	False	1
229.096	1.15	230.246	-3.7526612114014455	draw_card	1.15	columbia_card_task_fmri	11.0	0.6153846153846154	89.0	-30.0	0.3846153846153846	16.0	4.0	5.0	-12.596177990681223	1.15	4.0	stim	poldrack-single-stim	s251	False	0
231.001	1.5	230.25	n/a	-1.0	2.318	columbia_card_task_fmri	n/a	n/a	-1.0	n/a	n/a	n/a	n/a	n/a	n/a	n/a	n/a	ITI	poldrack-single-stim	s251	False	0
232.573	0.631	233.204	4.016569557829323	draw_card	0.631	columbia_card_task_fmri	15.0	0.8666666666666667	89.0	-75.0	0.1333333333333333	15.0	1.0	2.0	-1.9577385598718848	0.631	1.0	stim	poldrack-single-stim	s251	False	0
233.959	1.5	233.208	n/a	-1.0	2.318	columbia_card_task_fmri	n/a	n/a	-1.0	n/a	n/a	n/a	n/a	n/a	n/a	n/a	n/a	ITI	poldrack-single-stim	s251	False	0
235.529	1.059	236.588	5.749902891162657	draw_card	1.059	columbia_card_task_fmri	17.0	0.8666666666666667	89.0	-75.0	0.1333333333333333	15.0	1.0	2.0	-1.2782361483536846	1.059	n/a	stim	poldrack-single-stim	s251	False	1
236.591	0.427	237.018	4.873712414972182	draw_card	0.427	columbia_card_task_fmri	17.0	0.8571428571428572	89.0	-75.0	0.1428571428571428	15.0	2.0	2.0	-0.3594001713423651	0.427	n/a	stim	poldrack-single-stim	s251	False	1
237.021	0.345	237.366	3.8627234039831695	draw_card	0.345	columbia_card_task_fmri	17.0	0.8461538461538461	89.0	-75.0	0.1538461538461538	15.0	3.0	2.0	0.6405342165920018	0.345	n/a	stim	poldrack-single-stim	s251	False	1
237.37	0.521	237.891	2.68323622449599	end_round	0.521	columbia_card_task_fmri	17.0	0.8333333333333334	71.0	-75.0	0.1666666666666666	15.0	4.0	2.0	1.7327025962051863	0.521	3.0	stim	poldrack-single-stim	s251	False	1
238.645	1.5	237.894	n/a	-1.0	2.59	columbia_card_task_fmri	n/a	n/a	-1.0	n/a	n/a	n/a	n/a	n/a	n/a	n/a	n/a	ITI	poldrack-single-stim	s251	False	0
240.488	2.877	243.365	1.329069557829323	draw_card	2.877	columbia_card_task_fmri	2.0	0.9375	89.0	-25.0	0.0625	16.0	1.0	1.0	-25.95449352410256	2.877	n/a	stim	poldrack-single-stim	s251	False	1
243.369	0.638	244.007	1.216569557829323	draw_card	0.638	columbia_card_task_fmri	2.0	0.9333333333333332	89.0	-25.0	0.0666666666666666	16.0	2.0	1.0	-25.757468997832465	0.638	n/a	stim	poldrack-single-stim	s251	False	1
244.01	0.41	244.42	1.0879981292578946	draw_card	0.41	columbia_card_task_fmri	2.0	0.9285714285714286	89.0	-25.0	0.0714285714285714	16.0	3.0	1.0	-25.54126154400154	0.41	n/a	stim	poldrack-single-stim	s251	False	1
244.423	0.411	244.834	0.939646480906246	end_round	0.411	columbia_card_task_fmri	2.0	0.9230769230769232	71.0	-25.0	0.0769230769230769	16.0	4.0	1.0	-25.30260442408401	0.411	3.0	stim	poldrack-single-stim	s251	False	1
245.589	1.5	244.838	n/a	-1.0	2.25	columbia_card_task_fmri	n/a	n/a	-1.0	n/a	n/a	n/a	n/a	n/a	n/a	n/a	n/a	ITI	poldrack-single-stim	s251	False	0
247.093	2.776	249.869	3.516569557829323	draw_card	2.776	columbia_card_task_fmri	9.0	0.9375	89.0	-95.0	0.0625	16.0	1.0	1.0	-7.373831586524133	2.776	n/a	stim	poldrack-single-stim	s251	False	1
249.873	0.42	250.293	3.08323622449599	draw_card	0.42	columbia_card_task_fmri	9.0	0.9333333333333332	89.0	-95.0	0.0666666666666666	16.0	2.0	1.0	-6.606672181618194	0.42	n/a	stim	poldrack-single-stim	s251	False	1
250.296	0.428	250.724	2.587998129257895	draw_card	0.428	columbia_card_task_fmri	9.0	0.9285714285714286	89.0	-95.0	0.0714285714285714	16.0	3.0	1.0	-5.765360272265887	0.428	n/a	stim	poldrack-single-stim	s251	False	1
250.727	1.571	252.298	2.016569557829323	end_round	1.571	columbia_card_task_fmri	9.0	0.9230769230769232	71.0	-95.0	0.0769230769230769	16.0	4.0	1.0	-4.837288368491702	1.571	3.0	stim	poldrack-single-stim	s251	False	1
253.052	1.5	252.301	n/a	-1.0	2.25	columbia_card_task_fmri	n/a	n/a	-1.0	n/a	n/a	n/a	n/a	n/a	n/a	n/a	n/a	ITI	poldrack-single-stim	s251	False	0
254.556	2.718	257.274	5.079069557829323	draw_card	2.718	columbia_card_task_fmri	11.0	0.9375	89.0	-100.0	0.0625	16.0	1.0	1.0	-5.680694264680643	2.718	n/a	stim	poldrack-single-stim	s251	False	1
257.276	0.491	257.767	4.616569557829323	draw_card	0.491	columbia_card_task_fmri	11.0	0.9333333333333332	89.0	-100.0	0.0666666666666666	16.0	2.0	1.0	-4.86182011354764	0.491	n/a	stim	poldrack-single-stim	s251	False	1
257.77	0.536	258.306	4.087998129257896	draw_card	0.536	columbia_card_task_fmri	11.0	0.9285714285714286	89.0	-100.0	0.0714285714285714	16.0	3.0	1.0	-3.9637999872016536	0.536	n/a	stim	poldrack-single-stim	s251	False	1
258.31	0.596	258.906	3.4781080193677854	end_round	0.596	columbia_card_task_fmri	11.0	0.9230769230769232	71.0	-100.0	0.0769230769230769	16.0	4.0	1.0	-2.9731775853035813	0.596	3.0	stim	poldrack-single-stim	s251	False	1
259.661	1.5	258.91	n/a	-1.0	2.522	columbia_card_task_fmri	n/a	n/a	-1.0	n/a	n/a	n/a	n/a	n/a	n/a	n/a	n/a	ITI	poldrack-single-stim	s251	False	0
261.436	2.644	264.08	5.641569557829323	draw_card	2.644	columbia_card_task_fmri	16.0	0.875	89.0	-75.0	0.125	16.0	1.0	2.0	-2.4561548529095987	2.644	n/a	stim	poldrack-single-stim	s251	False	1
264.083	0.436	264.519	4.88323622449599	draw_card	0.436	columbia_card_task_fmri	16.0	0.8666666666666667	89.0	-75.0	0.1333333333333333	16.0	2.0	2.0	-1.6179893681792272	0.436	n/a	stim	poldrack-single-stim	s251	False	1
264.522	0.297	264.819	4.016569557829325	draw_card	0.297	columbia_card_task_fmri	16.0	0.8571428571428572	89.0	-75.0	0.1428571428571428	16.0	3.0	2.0	-0.7091510355446999	0.297	n/a	stim	poldrack-single-stim	s251	False	1
264.822	0.422	265.244	3.016569557829323	end_round	0.422	columbia_card_task_fmri	16.0	0.8461538461538461	71.0	-75.0	0.1538461538461538	16.0	4.0	2.0	0.2799039421583629	0.422	3.0	stim	poldrack-single-stim	s251	False	1
265.999	1.5	265.248	n/a	-1.0	2.454	columbia_card_task_fmri	n/a	n/a	-1.0	n/a	n/a	n/a	n/a	n/a	n/a	n/a	n/a	ITI	poldrack-single-stim	s251	False	0
267.707	1.939	269.646	5.891569557829323	draw_card	1.939	columbia_card_task_fmri	17.0	0.875	89.0	-80.0	0.125	16.0	1.0	2.0	-0.4729025136634845	1.939	n/a	stim	poldrack-single-stim	s251	False	1
269.648	0.358	270.006	5.083236224495991	draw_card	0.358	columbia_card_task_fmri	17.0	0.8666666666666667	89.0	-80.0	0.1333333333333333	16.0	2.0	2.0	0.4205860167625417	0.358	n/a	stim	poldrack-single-stim	s251	False	1
270.01	0.282	270.292	4.159426700686469	draw_card	0.282	columbia_card_task_fmri	17.0	0.8571428571428572	89.0	-80.0	0.1428571428571428	16.0	3.0	2.0	1.389408619370343	0.282	n/a	stim	poldrack-single-stim	s251	False	1
270.295	0.465	270.76	3.0934926347523994	end_round	0.465	columbia_card_task_fmri	17.0	0.8461538461538461	71.0	-80.0	0.1538461538461538	16.0	4.0	2.0	2.4437384213729345	0.465	3.0	stim	poldrack-single-stim	s251	False	1
271.515	1.5	270.764	n/a	-1.0	2.25	columbia_card_task_fmri	n/a	n/a	-1.0	n/a	n/a	n/a	n/a	n/a	n/a	n/a	n/a	ITI	poldrack-single-stim	s251	False	0
284.023	4.796	288.819	0.1832362244959908	draw_card	4.796	columbia_card_task_fmri	13.0	0.8333333333333334	89.0	-70.0	0.1666666666666666	6.0	1.0	1.0	-1.6197664358668111	4.796	n/a	stim	poldrack-single-stim	s251	False	1
288.822	0.468	289.29	-2.583430442170677	draw_card	0.468	columbia_card_task_fmri	13.0	0.8	89.0	-70.0	0.2	6.0	2.0	1.0	0.646819739146018	0.468	n/a	stim	poldrack-single-stim	s251	False	1
289.293	0.454	289.747	-6.733430442170677	draw_card	0.454	columbia_card_task_fmri	13.0	0.75	89.0	-70.0	0.25	6.0	3.0	1.0	3.385688216595142	0.454	n/a	stim	poldrack-single-stim	s251	False	1
289.751	0.425	290.176	-13.650097108837342	end_round	0.425	columbia_card_task_fmri	13.0	0.6666666666666667	71.0	-70.0	0.3333333333333333	6.0	4.0	1.0	6.571038957003381	0.425	3.0	stim	poldrack-single-stim	s251	False	1
290.929	1.5	290.178	n/a	-1.0	2.454	columbia_card_task_fmri	n/a	n/a	-1.0	n/a	n/a	n/a	n/a	n/a	n/a	n/a	n/a	ITI	poldrack-single-stim	s251	False	0
292.636	2.844	295.48	0.1832362244959908	draw_card	2.844	columbia_card_task_fmri	15.0	0.8333333333333334	89.0	-80.0	0.1666666666666666	6.0	1.0	1.0	2.8502609836979644	2.844	n/a	stim	poldrack-single-stim	s251	False	1
295.484	0.36	295.844	-2.983430442170677	draw_card	0.36	columbia_card_task_fmri	15.0	0.8	89.0	-80.0	0.2	6.0	2.0	1.0	5.444855042822404	0.36	2.0	stim	poldrack-single-stim	s251	False	0
296.598	1.5	295.847	n/a	-1.0	2.454	columbia_card_task_fmri	n/a	n/a	-1.0	n/a	n/a	n/a	n/a	n/a	n/a	n/a	n/a	ITI	poldrack-single-stim	s251	False	0
298.306	2.361	300.667	1.849902891162657	draw_card	2.361	columbia_card_task_fmri	16.0	0.8333333333333334	89.0	-75.0	0.1666666666666666	6.0	1.0	1.0	1.360190097614847	2.361	n/a	stim	poldrack-single-stim	s251	False	1
300.669	0.405	301.074	-1.1834304421706765	draw_card	0.405	columbia_card_task_fmri	16.0	0.8	89.0	-75.0	0.2	6.0	2.0	1.0	3.845452402341273	0.405	n/a	stim	poldrack-single-stim	s251	False	1
301.077	0.294	301.371	-5.733430442170677	draw_card	0.294	columbia_card_task_fmri	16.0	0.75	89.0	-75.0	0.25	6.0	3.0	1.0	6.848526621030665	0.294	n/a	stim	poldrack-single-stim	s251	False	1
301.375	0.469	301.844	-13.31676377550401	end_round	0.469	columbia_card_task_fmri	16.0	0.6666666666666667	71.0	-75.0	0.3333333333333333	6.0	4.0	1.0	10.341114690762986	0.469	3.0	stim	poldrack-single-stim	s251	False	1
302.599	1.5	301.848	n/a	-1.0	2.522	columbia_card_task_fmri	n/a	n/a	-1.0	n/a	n/a	n/a	n/a	n/a	n/a	n/a	n/a	ITI	poldrack-single-stim	s251	False	0
304.373	1.819	306.192	3.016569557829323	draw_card	1.819	columbia_card_task_fmri	21.0	0.75	89.0	-55.0	0.25	8.0	1.0	2.0	0.3559226228352727	1.819	1.0	stim	poldrack-single-stim	s251	False	0
306.947	1.5	306.196	n/a	-1.0	2.454	columbia_card_task_fmri	n/a	n/a	-1.0	n/a	n/a	n/a	n/a	n/a	n/a	n/a	n/a	ITI	poldrack-single-stim	s251	False	0
308.654	3.148	311.802	4.266569557829323	draw_card	3.148	columbia_card_task_fmri	26.0	0.75	89.0	-65.0	0.25	8.0	1.0	2.0	6.848526621030665	3.148	n/a	stim	poldrack-single-stim	s251	False	1
311.806	0.872	312.678	1.0165695578293266	draw_card	0.872	columbia_card_task_fmri	26.0	0.7142857142857143	89.0	-65.0	0.2857142857142857	8.0	2.0	2.0	8.553436591504443	0.872	n/a	stim	poldrack-single-stim	s251	False	1
312.68	0.36	313.04	-3.316763775504006	draw_card	0.36	columbia_card_task_fmri	26.0	0.6666666666666667	89.0	-65.0	0.3333333333333333	8.0	3.0	2.0	10.341114690762986	0.36	3.0	stim	poldrack-single-stim	s251	False	0
313.794	1.5	313.043	n/a	-1.0	2.658	columbia_card_task_fmri	n/a	n/a	-1.0	n/a	n/a	n/a	n/a	n/a	n/a	n/a	n/a	ITI	poldrack-single-stim	s251	False	0
315.705	1.627	317.332	-0.6500971088373431	draw_card	1.627	columbia_card_task_fmri	15.0	0.7777777777777778	89.0	-60.0	0.2222222222222222	9.0	1.0	2.0	-1.3716947664586208	1.627	1.0	stim	poldrack-single-stim	s251	False	0
318.087	1.5	317.336	n/a	-1.0	2.386	columbia_card_task_fmri	n/a	n/a	-1.0	n/a	n/a	n/a	n/a	n/a	n/a	n/a	n/a	ITI	poldrack-single-stim	s251	False	0
319.727	2.242	321.969	3.716569557829324	draw_card	2.242	columbia_card_task_fmri	13.0	0.9	89.0	-90.0	0.1	10.0	1.0	1.0	-1.6520226916795693	2.242	n/a	stim	poldrack-single-stim	s251	False	1
321.972	0.402	322.374	2.572125113384878	draw_card	0.402	columbia_card_task_fmri	13.0	0.8888888888888888	89.0	-90.0	0.1111111111111111	10.0	2.0	1.0	-0.1830042812838712	0.402	n/a	stim	poldrack-single-stim	s251	False	1
322.377	0.696	323.073	1.141569557829323	draw_card	0.696	columbia_card_task_fmri	13.0	0.875	89.0	-90.0	0.125	10.0	3.0	1.0	1.5104733661835184	0.696	n/a	stim	poldrack-single-stim	s251	False	1
323.076	0.451	323.527	-0.6977161564563887	end_round	0.451	columbia_card_task_fmri	13.0	0.8571428571428572	71.0	-90.0	0.1428571428571428	10.0	4.0	1.0	3.488085052367559	0.451	3.0	stim	poldrack-single-stim	s251	False	1
324.283	1.5	323.532	n/a	-1.0	2.522	columbia_card_task_fmri	n/a	n/a	-1.0	n/a	n/a	n/a	n/a	n/a	n/a	n/a	n/a	ITI	poldrack-single-stim	s251	False	0
326.061	3.602	329.663	5.016569557829323	draw_card	3.602	columbia_card_task_fmri	15.0	0.9	89.0	-95.0	0.1	10.0	1.0	1.0	0.4469139964628752	3.602	n/a	stim	poldrack-single-stim	s251	False	1
329.667	0.413	330.08	3.7943473356071	draw_card	0.413	columbia_card_task_fmri	15.0	0.8888888888888888	89.0	-95.0	0.1111111111111111	10.0	2.0	1.0	2.015868382612254	0.413	n/a	stim	poldrack-single-stim	s251	False	1
330.083	0.287	330.37	2.266569557829323	draw_card	0.287	columbia_card_task_fmri	15.0	0.875	89.0	-95.0	0.125	10.0	3.0	1.0	3.8245410875551897	0.287	n/a	stim	poldrack-single-stim	s251	False	1
330.373	0.385	330.758	0.3022838435436095	end_round	0.385	columbia_card_task_fmri	15.0	0.8571428571428572	71.0	-95.0	0.1428571428571428	10.0	4.0	1.0	5.936663011378073	0.385	3.0	stim	poldrack-single-stim	s251	False	1
331.514	1.5	330.763	n/a	-1.0	2.59	columbia_card_task_fmri	n/a	n/a	-1.0	n/a	n/a	n/a	n/a	n/a	n/a	n/a	n/a	ITI	poldrack-single-stim	s251	False	0
333.358	2.86	336.218	0.8165695578293237	draw_card	2.86	columbia_card_task_fmri	16.0	0.8	89.0	-65.0	0.2	10.0	1.0	2.0	-0.1527962546409256	2.86	n/a	stim	poldrack-single-stim	s251	False	1
336.222	0.339	336.561	-0.9834304421706752	draw_card	0.339	columbia_card_task_fmri	16.0	0.7777777777777778	89.0	-65.0	0.2222222222222222	10.0	2.0	2.0	1.121516881107624	0.339	n/a	stim	poldrack-single-stim	s251	False	1
336.564	0.286	336.85	-3.233430442170677	draw_card	0.286	columbia_card_task_fmri	16.0	0.75	89.0	-65.0	0.25	10.0	3.0	2.0	2.520017580021353	0.286	3.0	stim	poldrack-single-stim	s251	False	0
337.606	1.5	336.855	n/a	-1.0	2.386	columbia_card_task_fmri	n/a	n/a	-1.0	n/a	n/a	n/a	n/a	n/a	n/a	n/a	n/a	ITI	poldrack-single-stim	s251	False	0
339.246	2.008	341.254	-0.483430442170677	draw_card	2.008	columbia_card_task_fmri	7.0	0.9166666666666666	89.0	-95.0	0.0833333333333333	12.0	1.0	1.0	-4.359106724815188	2.008	n/a	stim	poldrack-single-stim	s251	False	1
341.257	0.381	341.638	-1.2561577148979504	draw_card	0.381	columbia_card_task_fmri	7.0	0.9090909090909092	89.0	-95.0	0.0909090909090909	12.0	2.0	1.0	-3.2281858113343844	0.381	n/a	stim	poldrack-single-stim	s251	False	1
341.642	0.257	341.899	-2.1834304421706774	draw_card	0.257	columbia_card_task_fmri	7.0	0.9	89.0	-95.0	0.1	12.0	3.0	1.0	-1.9518588857084644	0.257	n/a	stim	poldrack-single-stim	s251	False	1
341.904	0.393	342.297	-3.316763775504011	end_round	0.393	columbia_card_task_fmri	7.0	0.8888888888888888	71.0	-95.0	0.1111111111111111	12.0	4.0	1.0	-0.4971175822232752	0.393	3.0	stim	poldrack-single-stim	s251	False	1
343.051	1.5	342.3	n/a	-1.0	2.59	columbia_card_task_fmri	n/a	n/a	-1.0	n/a	n/a	n/a	n/a	n/a	n/a	n/a	n/a	ITI	poldrack-single-stim	s251	False	0
344.895	2.096	346.991	0.1832362244959908	draw_card	2.096	columbia_card_task_fmri	14.0	0.8333333333333334	89.0	-75.0	0.1666666666666666	12.0	1.0	2.0	0.6151762498689521	2.096	n/a	stim	poldrack-single-stim	s251	False	1
346.994	0.394	347.388	-1.1652486239888604	draw_card	0.394	columbia_card_task_fmri	14.0	0.8181818181818181	89.0	-75.0	0.1818181818181818	12.0	2.0	2.0	1.7731293016507197	0.394	2.0	stim	poldrack-single-stim	s251	False	0
348.143	1.5	347.392	n/a	-1.0	2.318	columbia_card_task_fmri	n/a	n/a	-1.0	n/a	n/a	n/a	n/a	n/a	n/a	n/a	n/a	ITI	poldrack-single-stim	s251	False	0
349.715	1.419	351.134	1.849902891162657	draw_card	1.419	columbia_card_task_fmri	15.0	0.8333333333333334	89.0	-70.0	0.1666666666666666	12.0	1.0	2.0	-0.874803178730744	1.419	n/a	stim	poldrack-single-stim	s251	False	1
351.137	0.448	351.585	0.5620241032838662	draw_card	0.448	columbia_card_task_fmri	15.0	0.8181818181818181	89.0	-70.0	0.1818181818181818	12.0	2.0	2.0	0.231058738340252	0.448	n/a	stim	poldrack-single-stim	s251	False	1
351.589	0.279	351.868	-0.983430442170677	draw_card	0.279	columbia_card_task_fmri	15.0	0.8	89.0	-70.0	0.2	12.0	3.0	2.0	1.4464537914113509	0.279	n/a	stim	poldrack-single-stim	s251	False	1
351.872	0.503	352.375	-2.8723193310595665	end_round	0.503	columbia_card_task_fmri	15.0	0.7777777777777778	71.0	-70.0	0.2222222222222222	12.0	4.0	2.0	2.7837541209176067	0.503	3.0	stim	poldrack-single-stim	s251	False	1
353.13	1.5	352.379	n/a	-1.0	2.25	columbia_card_task_fmri	n/a	n/a	-1.0	n/a	n/a	n/a	n/a	n/a	n/a	n/a	n/a	ITI	poldrack-single-stim	s251	False	0
354.633	1.731	356.364	-0.1834304421706762	draw_card	1.731	columbia_card_task_fmri	16.0	0.8	89.0	-70.0	0.2	15.0	1.0	3.0	1.8462771961095183	1.731	n/a	stim	poldrack-single-stim	s251	False	1
356.368	0.413	356.781	-1.4120018707421058	draw_card	0.413	columbia_card_task_fmri	16.0	0.7857142857142857	89.0	-70.0	0.2142857142857142	15.0	2.0	3.0	2.733927129230544	0.413	2.0	stim	poldrack-single-stim	s251	False	0
357.536	1.5	356.785	n/a	-1.0	2.454	columbia_card_task_fmri	n/a	n/a	-1.0	n/a	n/a	n/a	n/a	n/a	n/a	n/a	n/a	ITI	poldrack-single-stim	s251	False	0
359.243	2.114	361.357	0.204069557829323	draw_card	2.114	columbia_card_task_fmri	14.0	0.8125	89.0	-65.0	0.1875	16.0	1.0	3.0	-1.717309678502847	2.114	n/a	stim	poldrack-single-stim	s251	False	1
361.361	0.443	361.804	-0.7834304421706759	draw_card	0.443	columbia_card_task_fmri	14.0	0.8	89.0	-65.0	0.2	16.0	2.0	3.0	-0.9523928197866098	0.443	n/a	stim	poldrack-single-stim	s251	False	1
361.807	0.319	362.126	-1.912001870742104	draw_card	0.319	columbia_card_task_fmri	14.0	0.7857142857142857	89.0	-65.0	0.2142857142857142	16.0	3.0	3.0	-0.1370576331404436	0.319	n/a	stim	poldrack-single-stim	s251	False	1
362.13	0.45	362.58	-3.214199672939909	end_round	0.45	columbia_card_task_fmri	14.0	0.7692307692307692	71.0	-65.0	0.2307692307692307	16.0	4.0	3.0	0.73145866693811	0.45	3.0	stim	poldrack-single-stim	s251	False	1
363.336	1.5	362.585	n/a	-1.0	3.27	columbia_card_task_fmri	n/a	n/a	-1.0	n/a	n/a	n/a	n/a	n/a	n/a	n/a	n/a	ITI	poldrack-single-stim	s251	False	0
365.861	1.86	367.721	-0.0459304421706769	draw_card	1.86	columbia_card_task_fmri	16.0	0.8125	89.0	-75.0	0.1875	16.0	1.0	3.0	2.964230635653692	1.86	1.0	stim	poldrack-single-stim	s251	False	0
368.475	1.5	367.724	n/a	-1.0	2.25	columbia_card_task_fmri	n/a	n/a	-1.0	n/a	n/a	n/a	n/a	n/a	n/a	n/a	n/a	ITI	poldrack-single-stim	s251	False	0
369.979	1.278	371.257	4.216569557829324	draw_card	1.278	columbia_card_task_fmri	16.0	0.8666666666666667	89.0	-80.0	0.1333333333333333	15.0	1.0	2.0	0.0808144972355506	1.278	n/a	stim	poldrack-single-stim	s251	False	1
371.26	0.379	371.639	3.302283843543611	draw_card	0.379	columbia_card_task_fmri	16.0	0.8571428571428572	89.0	-80.0	0.1428571428571428	15.0	2.0	2.0	1.0396399765091149	0.379	2.0	stim	poldrack-single-stim	s251	False	0
372.395	1.5	371.644	n/a	-1.0	2.25	columbia_card_task_fmri	n/a	n/a	-1.0	n/a	n/a	n/a	n/a	n/a	n/a	n/a	n/a	ITI	poldrack-single-stim	s251	False	0
373.899	0.736	374.635	5.083236224495991	draw_card	0.736	columbia_card_task_fmri	17.0	0.8666666666666667	89.0	-80.0	0.1333333333333333	15.0	1.0	2.0	0.4205860167625417	0.736	n/a	stim	poldrack-single-stim	s251	False	1
374.639	0.334	374.973	4.159426700686469	draw_card	0.334	columbia_card_task_fmri	17.0	0.8571428571428572	89.0	-80.0	0.1428571428571428	15.0	2.0	2.0	1.389408619370343	0.334	n/a	stim	poldrack-single-stim	s251	False	1
374.977	0.262	375.239	3.0934926347523994	draw_card	0.262	columbia_card_task_fmri	17.0	0.8461538461538461	89.0	-80.0	0.1538461538461538	15.0	3.0	2.0	2.4437384213729345	0.262	n/a	stim	poldrack-single-stim	s251	False	1
375.244	0.397	375.641	1.8499028911626587	end_round	0.397	columbia_card_task_fmri	17.0	0.8333333333333334	71.0	-80.0	0.1666666666666666	15.0	4.0	2.0	3.5953162424493854	0.397	3.0	stim	poldrack-single-stim	s251	False	1
376.396	1.5	375.645	n/a	-1.0	2.318	columbia_card_task_fmri	n/a	n/a	-1.0	n/a	n/a	n/a	n/a	n/a	n/a	n/a	n/a	ITI	poldrack-single-stim	s251	False	0
377.968	5.606	383.574	1.016569557829323	end_round	5.606	columbia_card_task_fmri	1.0	0.9375	71.0	-15.0	0.0625	16.0	1.0	1.0	-28.56456554357584	5.606	0.0	stim	poldrack-single-stim	s251	False	1
384.329	1.5	383.578	n/a	-1.0	2.726	columbia_card_task_fmri	n/a	n/a	-1.0	n/a	n/a	n/a	n/a	n/a	n/a	n/a	n/a	ITI	poldrack-single-stim	s251	False	0
386.311	2.055	388.366	4.141569557829323	draw_card	2.055	columbia_card_task_fmri	10.0	0.9375	89.0	-100.0	0.0625	16.0	1.0	1.0	-5.922581088251175	2.055	n/a	stim	poldrack-single-stim	s251	False	1
388.37	0.431	388.801	3.6832362244959898	draw_card	0.431	columbia_card_task_fmri	10.0	0.9333333333333332	89.0	-100.0	0.0666666666666666	16.0	2.0	1.0	-5.111094461465388	0.431	n/a	stim	poldrack-single-stim	s251	False	1
388.804	0.501	389.305	3.159426700686467	draw_card	0.501	columbia_card_task_fmri	10.0	0.9285714285714286	89.0	-100.0	0.0714285714285714	16.0	3.0	1.0	-4.221175203208233	0.501	n/a	stim	poldrack-single-stim	s251	False	1
389.309	2.273	391.582	2.555031096290862	end_round	2.273	columbia_card_task_fmri	10.0	0.9230769230769232	71.0	-100.0	0.0769230769230769	16.0	4.0	1.0	-3.239488270898235	2.273	3.0	stim	poldrack-single-stim	s251	False	1
392.338	1.5	391.587	n/a	-1.0	2.386	columbia_card_task_fmri	n/a	n/a	-1.0	n/a	n/a	n/a	n/a	n/a	n/a	n/a	n/a	ITI	poldrack-single-stim	s251	False	0
393.979	1.877	395.856	4.766569557829323	draw_card	1.877	columbia_card_task_fmri	15.0	0.875	89.0	-75.0	0.125	16.0	1.0	2.0	-2.7866831655679363	1.877	n/a	stim	poldrack-single-stim	s251	False	1
395.86	0.295	396.155	4.016569557829323	draw_card	0.295	columbia_card_task_fmri	15.0	0.8666666666666667	89.0	-75.0	0.1333333333333333	16.0	2.0	2.0	-1.9577385598718848	0.295	n/a	stim	poldrack-single-stim	s251	False	1
396.159	0.272	396.431	3.159426700686467	draw_card	0.272	columbia_card_task_fmri	15.0	0.8571428571428572	89.0	-75.0	0.1428571428571428	16.0	3.0	2.0	-1.058897986284414	0.272	n/a	stim	poldrack-single-stim	s251	False	1
396.435	0.405	396.84	2.170415711675476	end_round	0.405	columbia_card_task_fmri	15.0	0.8461538461538461	71.0	-75.0	0.1538461538461538	16.0	4.0	2.0	-0.0807225364154007	0.405	3.0	stim	poldrack-single-stim	s251	False	1
397.594	1.5	396.843	n/a	-1.0	2.318	columbia_card_task_fmri	n/a	n/a	-1.0	n/a	n/a	n/a	n/a	n/a	n/a	n/a	n/a	ITI	poldrack-single-stim	s251	False	0
399.167	2.11	401.277	5.016569557829323	draw_card	2.11	columbia_card_task_fmri	16.0	0.875	89.0	-80.0	0.125	16.0	1.0	2.0	-0.8034537743432253	2.11	n/a	stim	poldrack-single-stim	s251	False	1
401.281	0.474	401.755	4.216569557829324	draw_card	0.474	columbia_card_task_fmri	16.0	0.8666666666666667	89.0	-80.0	0.1333333333333333	16.0	2.0	2.0	0.0808144972355506	0.474	n/a	stim	poldrack-single-stim	s251	False	1
401.759	0.296	402.055	3.302283843543611	draw_card	0.296	columbia_card_task_fmri	16.0	0.8571428571428572	89.0	-80.0	0.1428571428571428	16.0	3.0	2.0	1.0396399765091149	0.296	n/a	stim	poldrack-single-stim	s251	False	1
402.059	0.599	402.658	2.2473387885985527	end_round	0.599	columbia_card_task_fmri	16.0	0.8461538461538461	71.0	-80.0	0.1538461538461538	16.0	4.0	2.0	2.083090902638816	0.599	3.0	stim	poldrack-single-stim	s251	False	1
403.414	1.5	402.663	n/a	-1.0	2.25	columbia_card_task_fmri	n/a	n/a	-1.0	n/a	n/a	n/a	n/a	n/a	n/a	n/a	n/a	ITI	poldrack-single-stim	s251	False	0
404.92	1.991	406.911	2.204069557829323	draw_card	1.991	columbia_card_task_fmri	4.0	0.6875	89.0	-5.0	0.3125	16.0	1.0	5.0	-28.27505198327885	1.991	n/a	stim	poldrack-single-stim	s251	False	1
406.914	0.378	407.292	2.016569557829324	draw_card	0.378	columbia_card_task_fmri	4.0	0.6666666666666667	89.0	-5.0	0.3333333333333333	16.0	2.0	5.0	-28.20601000322173	0.378	n/a	stim	poldrack-single-stim	s251	False	1
407.296	0.316	407.612	1.8022838435436084	draw_card	0.316	columbia_card_task_fmri	4.0	0.6428571428571428	89.0	-5.0	0.3571428571428571	16.0	3.0	5.0	-28.138124716506844	0.316	n/a	stim	poldrack-single-stim	s251	False	1
407.617	2.855	410.472	1.5550310962908616	draw_card	2.855	columbia_card_task_fmri	4.0	0.6153846153846154	89.0	-5.0	0.3846153846153846	16.0	4.0	5.0	-28.07374159749887	2.855	n/a	stim	poldrack-single-stim	s251	False	1
410.476	4.552	415.028	1.2665695578293226	draw_card	4.552	columbia_card_task_fmri	4.0	0.5833333333333333	89.0	-5.0	0.4166666666666667	16.0	5.0	5.0	-28.01671704344852	4.552	5.0	stim	poldrack-single-stim	s251	False	0
415.784	1.5	415.033	n/a	-1.0	2.25	columbia_card_task_fmri	n/a	n/a	-1.0	n/a	n/a	n/a	n/a	n/a	n/a	n/a	n/a	ITI	poldrack-single-stim	s251	False	0
417.289	5.556	422.845	-0.6500971088373413	draw_card	5.556	columbia_card_task_fmri	14.0	0.8333333333333334	89.0	-80.0	0.1666666666666666	6.0	1.0	1.0	2.477738150278391	5.556	n/a	stim	poldrack-single-stim	s251	False	1
422.849	0.401	423.25	-3.783430442170676	draw_card	0.401	columbia_card_task_fmri	14.0	0.8	89.0	-80.0	0.2	6.0	2.0	1.0	5.044999619166454	0.401	n/a	stim	poldrack-single-stim	s251	False	1
423.253	0.597	423.85	-8.483430442170677	end_round	0.597	columbia_card_task_fmri	14.0	0.75	71.0	-80.0	0.25	6.0	3.0	1.0	8.147146428795608	0.597	2.0	stim	poldrack-single-stim	s251	False	1
424.606	1.5	423.855	n/a	-1.0	2.454	columbia_card_task_fmri	n/a	n/a	-1.0	n/a	n/a	n/a	n/a	n/a	n/a	n/a	n/a	ITI	poldrack-single-stim	s251	False	0
426.315	1.618	427.933	1.016569557829323	draw_card	1.618	columbia_card_task_fmri	15.0	0.8333333333333334	89.0	-75.0	0.1666666666666666	6.0	1.0	1.0	0.9876812742462632	1.618	n/a	stim	poldrack-single-stim	s251	False	1
427.937	0.401	428.338	-1.983430442170677	draw_card	0.401	columbia_card_task_fmri	15.0	0.8	89.0	-75.0	0.2	6.0	2.0	1.0	3.445610034027922	0.401	2.0	stim	poldrack-single-stim	s251	False	0
429.094	1.5	428.343	n/a	-1.0	2.454	columbia_card_task_fmri	n/a	n/a	-1.0	n/a	n/a	n/a	n/a	n/a	n/a	n/a	n/a	ITI	poldrack-single-stim	s251	False	0
430.802	1.035	431.837	2.68323622449599	draw_card	1.035	columbia_card_task_fmri	16.0	0.8333333333333334	89.0	-70.0	0.1666666666666666	6.0	1.0	1.0	-0.5023147053733936	1.035	n/a	stim	poldrack-single-stim	s251	False	1
431.841	0.408	432.249	-0.1834304421706762	draw_card	0.408	columbia_card_task_fmri	16.0	0.8	89.0	-70.0	0.2	6.0	2.0	1.0	1.8462771961095183	0.408	n/a	stim	poldrack-single-stim	s251	False	1
432.253	0.704	432.957	-4.483430442170677	end_round	0.704	columbia_card_task_fmri	16.0	0.75	71.0	-70.0	0.25	6.0	3.0	1.0	4.684225092613353	0.704	2.0	stim	poldrack-single-stim	s251	False	1
433.713	1.5	432.962	n/a	-1.0	2.522	columbia_card_task_fmri	n/a	n/a	-1.0	n/a	n/a	n/a	n/a	n/a	n/a	n/a	n/a	ITI	poldrack-single-stim	s251	False	0
435.49	3.277	438.767	3.266569557829323	draw_card	3.277	columbia_card_task_fmri	23.0	0.75	89.0	-60.0	0.25	8.0	1.0	2.0	3.385688216595142	3.277	n/a	stim	poldrack-single-stim	s251	False	1
438.771	0.511	439.282	0.3022838435436112	draw_card	0.511	columbia_card_task_fmri	23.0	0.7142857142857143	89.0	-60.0	0.2857142857142857	8.0	2.0	2.0	4.940615839586613	0.511	n/a	stim	poldrack-single-stim	s251	False	1
439.286	0.925	440.211	-3.6500971088373415	draw_card	0.925	columbia_card_task_fmri	23.0	0.6666666666666667	89.0	-60.0	0.3333333333333333	8.0	3.0	2.0	6.571038957003381	0.925	n/a	stim	poldrack-single-stim	s251	False	1
440.215	0.397	440.612	-9.183430442170678	end_round	0.397	columbia_card_task_fmri	23.0	0.6	71.0	-60.0	0.4	8.0	4.0	2.0	8.10549518259075	0.397	3.0	stim	poldrack-single-stim	s251	False	1
441.369	1.5	440.618	n/a	-1.0	2.386	columbia_card_task_fmri	n/a	n/a	-1.0	n/a	n/a	n/a	n/a	n/a	n/a	n/a	n/a	ITI	poldrack-single-stim	s251	False	0
443.009	1.273	444.282	3.766569557829323	draw_card	1.273	columbia_card_task_fmri	27.0	0.75	89.0	-70.0	0.25	8.0	1.0	2.0	9.445792098926702	1.273	1.0	stim	poldrack-single-stim	s251	False	0
445.038	1.5	444.287	n/a	-1.0	2.454	columbia_card_task_fmri	n/a	n/a	-1.0	n/a	n/a	n/a	n/a	n/a	n/a	n/a	n/a	ITI	poldrack-single-stim	s251	False	0
446.747	0.81	447.557	-0.9834304421706752	draw_card	0.81	columbia_card_task_fmri	16.0	0.7777777777777778	89.0	-65.0	0.2222222222222222	9.0	1.0	2.0	1.121516881107624	0.81	n/a	stim	poldrack-single-stim	s251	False	1
447.56	0.519	448.079	-3.233430442170677	draw_card	0.519	columbia_card_task_fmri	16.0	0.75	89.0	-65.0	0.25	9.0	2.0	2.0	2.520017580021353	0.519	2.0	stim	poldrack-single-stim	s251	False	0
448.834	1.5	448.083	n/a	-1.0	2.522	columbia_card_task_fmri	n/a	n/a	-1.0	n/a	n/a	n/a	n/a	n/a	n/a	n/a	n/a	ITI	poldrack-single-stim	s251	False	0
450.611	0.403	451.014	4.216569557829324	draw_card	0.403	columbia_card_task_fmri	13.0	0.9	89.0	-85.0	0.1	10.0	1.0	1.0	-3.151170261102393	0.403	n/a	stim	poldrack-single-stim	s251	False	1
451.018	1.052	452.07	3.127680668940433	draw_card	1.052	columbia_card_task_fmri	13.0	0.8888888888888888	89.0	-85.0	0.1111111111111111	10.0	2.0	1.0	-1.7535388970693084	1.052	n/a	stim	poldrack-single-stim	s251	False	1
452.074	0.38	452.454	1.766569557829323	draw_card	0.38	columbia_card_task_fmri	13.0	0.875	89.0	-85.0	0.125	10.0	3.0	1.0	-0.1423478340382047	0.38	n/a	stim	poldrack-single-stim	s251	False	1
452.458	0.445	452.903	0.0165695578293247	end_round	0.445	columbia_card_task_fmri	13.0	0.8571428571428572	71.0	-85.0	0.1428571428571428	10.0	4.0	1.0	1.7391804940237137	0.445	3.0	stim	poldrack-single-stim	s251	False	1
453.659	1.5	452.908	n/a	-1.0	2.522	columbia_card_task_fmri	n/a	n/a	-1.0	n/a	n/a	n/a	n/a	n/a	n/a	n/a	n/a	ITI	poldrack-single-stim	s251	False	0
455.436	1.448	456.884	-0.7834304421706759	draw_card	1.448	columbia_card_task_fmri	14.0	0.8	89.0	-65.0	0.2	10.0	1.0	2.0	-0.9523928197866098	1.448	n/a	stim	poldrack-single-stim	s251	False	1
456.889	0.5	457.389	-2.538985997726231	draw_card	0.5	columbia_card_task_fmri	14.0	0.7777777777777778	89.0	-65.0	0.2222222222222222	10.0	2.0	2.0	0.2904256446392779	0.5	n/a	stim	poldrack-single-stim	s251	False	1
457.393	0.349	457.742	-4.733430442170677	draw_card	0.349	columbia_card_task_fmri	14.0	0.75	89.0	-65.0	0.25	10.0	3.0	2.0	1.6543648947449512	0.349	n/a	stim	poldrack-single-stim	s251	False	1
457.747	0.405	458.152	-7.554859013599247	end_round	0.405	columbia_card_task_fmri	14.0	0.7142857142857143	71.0	-65.0	0.2857142857142857	10.0	4.0	2.0	3.1342973750888348	0.405	3.0	stim	poldrack-single-stim	s251	False	1
458.907	1.5	458.156	n/a	-1.0	2.59	columbia_card_task_fmri	n/a	n/a	-1.0	n/a	n/a	n/a	n/a	n/a	n/a	n/a	n/a	ITI	poldrack-single-stim	s251	False	0
460.753	1.192	461.945	0.6165695578293244	draw_card	1.192	columbia_card_task_fmri	17.0	0.8	89.0	-70.0	0.2	10.0	1.0	2.0	2.2461046578432686	1.192	n/a	stim	poldrack-single-stim	s251	False	1
461.95	0.472	462.422	-1.3167637755040091	draw_card	0.472	columbia_card_task_fmri	17.0	0.7777777777777778	89.0	-70.0	0.2222222222222222	10.0	2.0	2.0	3.6148976083283273	0.472	n/a	stim	poldrack-single-stim	s251	False	1
462.427	0.891	463.318	-3.733430442170677	draw_card	0.891	columbia_card_task_fmri	17.0	0.75	89.0	-70.0	0.25	10.0	3.0	2.0	5.117078395357424	0.891	n/a	stim	poldrack-single-stim	s251	False	1
463.322	0.395	463.717	-6.840573299313535	end_round	0.395	columbia_card_task_fmri	17.0	0.7142857142857143	71.0	-70.0	0.2857142857142857	10.0	4.0	2.0	6.746998393668235	0.395	3.0	stim	poldrack-single-stim	s251	False	1
464.473	1.5	463.722	n/a	-1.0	2.454	columbia_card_task_fmri	n/a	n/a	-1.0	n/a	n/a	n/a	n/a	n/a	n/a	n/a	n/a	ITI	poldrack-single-stim	s251	False	0
466.183	1.677	467.86	-0.6500971088373431	draw_card	1.677	columbia_card_task_fmri	13.0	0.8333333333333334	89.0	-75.0	0.1666666666666666	12.0	1.0	2.0	0.2426751538717368	1.677	n/a	stim	poldrack-single-stim	s251	False	1
467.865	0.382	468.247	-1.9834304421706788	draw_card	0.382	columbia_card_task_fmri	13.0	0.8181818181818181	89.0	-75.0	0.1818181818181818	12.0	2.0	2.0	1.387605631942158	0.382	n/a	stim	poldrack-single-stim	s251	False	1
468.252	0.291	468.543	-3.583430442170677	draw_card	0.291	columbia_card_task_fmri	13.0	0.8	89.0	-75.0	0.2	12.0	3.0	2.0	2.645936038421844	0.291	n/a	stim	poldrack-single-stim	s251	False	1
468.547	0.427	468.974	-5.538985997726231	end_round	0.427	columbia_card_task_fmri	13.0	0.7777777777777778	71.0	-75.0	0.2222222222222222	12.0	4.0	2.0	4.030475074780071	0.427	3.0	stim	poldrack-single-stim	s251	False	1
469.73	1.5	468.979	n/a	-1.0	2.318	columbia_card_task_fmri	n/a	n/a	-1.0	n/a	n/a	n/a	n/a	n/a	n/a	n/a	n/a	ITI	poldrack-single-stim	s251	False	0
471.303	1.599	472.902	1.0165695578293248	draw_card	1.599	columbia_card_task_fmri	14.0	0.8333333333333334	89.0	-70.0	0.1666666666666666	12.0	1.0	2.0	-1.2472871431620405	1.599	1.0	stim	poldrack-single-stim	s251	False	0
473.657	1.5	472.906	n/a	-1.0	2.25	columbia_card_task_fmri	n/a	n/a	-1.0	n/a	n/a	n/a	n/a	n/a	n/a	n/a	n/a	ITI	poldrack-single-stim	s251	False	0
475.161	0.951	476.112	1.0165695578293248	draw_card	0.951	columbia_card_task_fmri	16.0	0.8333333333333334	89.0	-80.0	0.1666666666666666	12.0	1.0	2.0	3.2227870476998746	0.951	n/a	stim	poldrack-single-stim	s251	False	1
476.116	0.468	476.584	-0.4379758967161338	draw_card	0.468	columbia_card_task_fmri	16.0	0.8181818181818181	89.0	-80.0	0.1818181818181818	12.0	2.0	2.0	4.4718946440533	0.468	n/a	stim	poldrack-single-stim	s251	False	1
476.591	0.347	476.938	-2.1834304421706765	draw_card	0.347	columbia_card_task_fmri	16.0	0.8	89.0	-80.0	0.2	12.0	3.0	2.0	5.844713476886604	0.347	n/a	stim	poldrack-single-stim	s251	False	1
476.942	0.349	477.291	-4.316763775504011	end_round	0.349	columbia_card_task_fmri	16.0	0.7777777777777778	71.0	-80.0	0.2222222222222222	12.0	4.0	2.0	7.355216425783347	0.349	3.0	stim	poldrack-single-stim	s251	False	1
478.048	1.5	477.297	n/a	-1.0	2.658	columbia_card_task_fmri	n/a	n/a	-1.0	n/a	n/a	n/a	n/a	n/a	n/a	n/a	n/a	ITI	poldrack-single-stim	s251	False	0
479.96	1.775	481.735	0.8165695578293237	draw_card	1.775	columbia_card_task_fmri	16.0	0.8	89.0	-65.0	0.2	15.0	1.0	3.0	-0.1527962546409256	1.775	n/a	stim	poldrack-single-stim	s251	False	1
481.741	0.367	482.108	-0.3405732993135328	draw_card	0.367	columbia_card_task_fmri	16.0	0.7857142857142857	89.0	-65.0	0.2142857142857142	15.0	2.0	3.0	0.6832008763569419	0.367	n/a	stim	poldrack-single-stim	s251	False	1
482.113	0.389	482.502	-1.6757381344783704	draw_card	0.389	columbia_card_task_fmri	16.0	0.7692307692307692	89.0	-65.0	0.2307692307692307	15.0	3.0	3.0	1.5737257115092331	0.389	n/a	stim	poldrack-single-stim	s251	False	1
482.507	0.458	482.965	-3.233430442170677	end_round	0.458	columbia_card_task_fmri	16.0	0.75	71.0	-65.0	0.25	15.0	4.0	3.0	2.520017580021353	0.458	3.0	stim	poldrack-single-stim	s251	False	1
483.72	1.5	482.969	n/a	-1.0	2.454	columbia_card_task_fmri	n/a	n/a	-1.0	n/a	n/a	n/a	n/a	n/a	n/a	n/a	n/a	ITI	poldrack-single-stim	s251	False	0
485.428	1.367	486.795	-0.858430442170677	draw_card	1.367	columbia_card_task_fmri	15.0	0.8125	89.0	-75.0	0.1875	16.0	1.0	3.0	2.5740798000894856	1.367	1.0	stim	poldrack-single-stim	s251	False	0
487.551	1.5	486.8	n/a	-1.0	2.386	columbia_card_task_fmri	n/a	n/a	-1.0	n/a	n/a	n/a	n/a	n/a	n/a	n/a	n/a	ITI	poldrack-single-stim	s251	False	0
489.194	0.704	489.898	-0.295930442170677	draw_card	0.704	columbia_card_task_fmri	14.0	0.6875	89.0	-35.0	0.3125	16.0	1.0	5.0	-9.833893308743196	0.704	n/a	stim	poldrack-single-stim	s251	False	1
489.902	0.488	490.39	-1.3167637755040091	draw_card	0.488	columbia_card_task_fmri	14.0	0.6666666666666667	89.0	-35.0	0.3333333333333333	16.0	2.0	5.0	-9.44755997337218	0.488	n/a	stim	poldrack-single-stim	s251	False	1
490.395	0.335	490.73	-2.483430442170677	draw_card	0.335	columbia_card_task_fmri	14.0	0.6428571428571428	89.0	-35.0	0.3571428571428571	16.0	3.0	5.0	-9.068029155168	0.335	3.0	stim	poldrack-single-stim	s251	False	0
491.486	1.5	490.735	n/a	-1.0	2.59	columbia_card_task_fmri	n/a	n/a	-1.0	n/a	n/a	n/a	n/a	n/a	n/a	n/a	n/a	ITI	poldrack-single-stim	s251	False	0
493.333	1.007	494.34	4.88323622449599	draw_card	1.007	columbia_card_task_fmri	16.0	0.8666666666666667	89.0	-75.0	0.1333333333333333	15.0	1.0	2.0	-1.6179893681792272	1.007	1.0	stim	poldrack-single-stim	s251	False	0
495.096	1.5	494.345	n/a	-1.0	2.318	columbia_card_task_fmri	n/a	n/a	-1.0	n/a	n/a	n/a	n/a	n/a	n/a	n/a	n/a	ITI	poldrack-single-stim	s251	False	0
496.669	0.685	497.354	5.549902891162656	draw_card	0.685	columbia_card_task_fmri	16.0	0.8666666666666667	89.0	-70.0	0.1333333333333333	15.0	1.0	2.0	-3.316692238242929	0.685	1.0	stim	poldrack-single-stim	s251	False	0
498.111	1.5	497.36	n/a	-1.0	2.59	columbia_card_task_fmri	n/a	n/a	-1.0	n/a	n/a	n/a	n/a	n/a	n/a	n/a	n/a	ITI	poldrack-single-stim	s251	False	0
499.957	0.826	500.783	2.891569557829323	draw_card	0.826	columbia_card_task_fmri	8.0	0.9375	89.0	-90.0	0.0625	16.0	1.0	1.0	-8.82494533325217	0.826	n/a	stim	poldrack-single-stim	s251	False	1
500.788	0.397	501.185	2.4832362244959896	draw_card	0.397	columbia_card_task_fmri	8.0	0.9333333333333332	89.0	-90.0	0.0666666666666666	16.0	2.0	1.0	-8.102117178435865	0.397	n/a	stim	poldrack-single-stim	s251	False	1
501.191	0.308	501.499	2.016569557829324	draw_card	0.308	columbia_card_task_fmri	8.0	0.9285714285714286	89.0	-90.0	0.0714285714285714	16.0	3.0	1.0	-7.3094167716557585	0.308	n/a	stim	poldrack-single-stim	s251	False	1
501.503	0.382	501.885	1.478108019367785	end_round	0.382	columbia_card_task_fmri	8.0	0.9230769230769232	71.0	-90.0	0.0769230769230769	16.0	4.0	1.0	-6.434964187312037	0.382	3.0	stim	poldrack-single-stim	s251	False	1
502.642	1.5	501.891	n/a	-1.0	2.386	columbia_card_task_fmri	n/a	n/a	-1.0	n/a	n/a	n/a	n/a	n/a	n/a	n/a	n/a	ITI	poldrack-single-stim	s251	False	0
504.282	1.794	506.076	4.454069557829323	draw_card	1.794	columbia_card_task_fmri	10.0	0.9375	89.0	-95.0	0.0625	16.0	1.0	1.0	-7.131965368024858	1.794	n/a	stim	poldrack-single-stim	s251	False	1
506.08	0.355	506.435	4.016569557829324	draw_card	0.355	columbia_card_task_fmri	10.0	0.9333333333333332	89.0	-95.0	0.0666666666666666	16.0	2.0	1.0	-6.357417831630244	0.355	n/a	stim	poldrack-single-stim	s251	False	1
506.44	0.344	506.784	3.516569557829324	draw_card	0.344	columbia_card_task_fmri	10.0	0.9285714285714286	89.0	-95.0	0.0714285714285714	16.0	3.0	1.0	-5.50800442815628	0.344	n/a	stim	poldrack-single-stim	s251	False	1
506.789	0.585	507.374	2.939646480906246	draw_card	0.585	columbia_card_task_fmri	10.0	0.9230769230769232	89.0	-95.0	0.0769230769230769	16.0	4.0	1.0	-4.570996408097056	0.585	n/a	stim	poldrack-single-stim	s251	False	1
507.378	0.396	507.774	2.266569557829323	end_round	0.396	columbia_card_task_fmri	10.0	0.9166666666666666	71.0	-95.0	0.0833333333333333	16.0	5.0	1.0	-3.53047370535624	0.396	4.0	stim	poldrack-single-stim	s251	False	1
508.53	1.5	507.779	n/a	-1.0	2.318	columbia_card_task_fmri	n/a	n/a	-1.0	n/a	n/a	n/a	n/a	n/a	n/a	n/a	n/a	ITI	poldrack-single-stim	s251	False	0
510.103	1.588	511.691	5.391569557829323	draw_card	1.588	columbia_card_task_fmri	15.0	0.875	89.0	-70.0	0.125	16.0	1.0	2.0	-4.439257521074218	1.588	n/a	stim	poldrack-single-stim	s251	False	1
511.696	0.434	512.13	4.683236224495989	draw_card	0.434	columbia_card_task_fmri	15.0	0.8666666666666667	89.0	-70.0	0.1333333333333333	16.0	2.0	2.0	-3.656419126261056	0.434	2.0	stim	poldrack-single-stim	s251	False	0
512.886	1.5	512.135	n/a	-1.0	2.318	columbia_card_task_fmri	n/a	n/a	-1.0	n/a	n/a	n/a	n/a	n/a	n/a	n/a	n/a	ITI	poldrack-single-stim	s251	False	0
514.459	0.651	515.11	4.391569557829323	draw_card	0.651	columbia_card_task_fmri	16.0	0.875	89.0	-85.0	0.125	16.0	1.0	2.0	0.8493357039512617	0.651	n/a	stim	poldrack-single-stim	s251	False	1
515.115	0.335	515.45	3.549902891162656	draw_card	0.335	columbia_card_task_fmri	16.0	0.8666666666666667	89.0	-85.0	0.1333333333333333	16.0	2.0	2.0	1.7797043729336792	0.335	2.0	stim	poldrack-single-stim	s251	False	0
516.207	1.5	515.456	n/a	-1.0	2.318	columbia_card_task_fmri	n/a	n/a	-1.0	n/a	n/a	n/a	n/a	n/a	n/a	n/a	n/a	ITI	poldrack-single-stim	s251	False	0
