onset	duration	movement_onset	EV	action	block_duration	experiment_exp_id	gain_amount	gain_probability	key_press	loss_amount	loss_probability	num_cards	num_click_in_round	num_loss_cards	risk	response_time	total_cards	trial_id	trial_type	worker_id	junk	feedback
3.009	2.577	5.586	-1.4108722668574365	draw_card	2.577	columbia_card_task_fmri	12.0	0.8333333333333334	89.0	-70.0	0.1666666666666666	6.0	1.0	1.0	-1.8727337958532717	2.577	n/a	stim	poldrack-single-stim	s358	False	1
5.588	1.071	6.659	-4.144205600190769	draw_card	1.071	columbia_card_task_fmri	12.0	0.8	89.0	-70.0	0.2	6.0	2.0	1.0	0.3675973917270596	1.071	n/a	stim	poldrack-single-stim	s358	False	1
6.659	0.849	7.508	-8.24420560019077	draw_card	0.849	columbia_card_task_fmri	12.0	0.75	89.0	-70.0	0.25	6.0	3.0	1.0	3.074562907201866	0.849	n/a	stim	poldrack-single-stim	s358	False	1
7.51	2.211	9.721	-15.077538933524105	end_round	2.211	columbia_card_task_fmri	12.0	0.6666666666666667	71.0	-70.0	0.3333333333333333	6.0	4.0	1.0	6.222617021373409	2.211	3.0	stim	poldrack-single-stim	s358	False	1
10.474	1.5	9.723	n/a	-1.0	2.454	columbia_card_task_fmri	n/a	n/a	-1.0	n/a	n/a	n/a	n/a	n/a	n/a	n/a	n/a	ITI	poldrack-single-stim	s358	False	0
12.179	2.631	14.81	-0.5775389335241023	draw_card	2.631	columbia_card_task_fmri	14.0	0.8333333333333334	89.0	-75.0	0.1666666666666666	6.0	1.0	1.0	0.735927981903103	2.631	n/a	stim	poldrack-single-stim	s358	False	1
14.811	1.118	15.929	-3.544205600190769	draw_card	1.118	columbia_card_task_fmri	14.0	0.8	89.0	-75.0	0.2	6.0	2.0	1.0	3.1675189462395963	1.118	2.0	stim	poldrack-single-stim	s358	False	0
16.681	1.5	15.93	n/a	-1.0	2.454	columbia_card_task_fmri	n/a	n/a	-1.0	n/a	n/a	n/a	n/a	n/a	n/a	n/a	n/a	ITI	poldrack-single-stim	s358	False	0
18.388	2.271	20.659	1.0891277331425635	draw_card	2.271	columbia_card_task_fmri	15.0	0.8333333333333334	89.0	-70.0	0.1666666666666666	6.0	1.0	1.0	-0.7547375890881902	2.271	n/a	stim	poldrack-single-stim	s358	False	1
20.66	0.778	21.438	-1.7442056001907702	draw_card	0.778	columbia_card_task_fmri	15.0	0.8	89.0	-70.0	0.2	6.0	2.0	1.0	1.5675621902055423	0.778	2.0	stim	poldrack-single-stim	s358	False	0
22.191	1.5	21.44	n/a	-1.0	2.522	columbia_card_task_fmri	n/a	n/a	-1.0	n/a	n/a	n/a	n/a	n/a	n/a	n/a	n/a	ITI	poldrack-single-stim	s358	False	0
23.965	3.984	27.949	1.9224610664758977	draw_card	3.984	columbia_card_task_fmri	17.0	0.8333333333333334	89.0	-75.0	0.1666666666666666	6.0	1.0	1.0	1.85392980865722	3.984	1.0	stim	poldrack-single-stim	s358	False	0
28.701	1.5	27.95	n/a	-1.0	2.386	columbia_card_task_fmri	n/a	n/a	-1.0	n/a	n/a	n/a	n/a	n/a	n/a	n/a	n/a	ITI	poldrack-single-stim	s358	False	0
30.339	2.112	32.451	3.25579439980923	draw_card	2.112	columbia_card_task_fmri	24.0	0.75	89.0	-60.0	0.25	8.0	1.0	2.0	3.9405663742616	2.112	n/a	stim	poldrack-single-stim	s358	False	1
32.452	1.094	33.546	0.2557943998092298	end_round	1.094	columbia_card_task_fmri	24.0	0.7142857142857143	71.0	-60.0	0.2857142857142857	8.0	2.0	2.0	5.514794024927468	1.094	1.0	stim	poldrack-single-stim	s358	False	1
34.299	1.5	33.548	n/a	-1.0	2.454	columbia_card_task_fmri	n/a	n/a	-1.0	n/a	n/a	n/a	n/a	n/a	n/a	n/a	n/a	ITI	poldrack-single-stim	s358	False	0
36.005	2.635	38.64	3.25579439980923	draw_card	2.635	columbia_card_task_fmri	29.0	0.75	89.0	-75.0	0.25	8.0	1.0	2.0	12.600647448156543	2.635	n/a	stim	poldrack-single-stim	s358	False	1
38.641	1.798	40.439	-0.4584913144764819	end_round	1.798	columbia_card_task_fmri	29.0	0.7142857142857143	71.0	-75.0	0.2857142857142857	8.0	2.0	2.0	14.549707265120972	1.798	1.0	stim	poldrack-single-stim	s358	False	1
41.192	1.5	40.441	n/a	-1.0	2.522	columbia_card_task_fmri	n/a	n/a	-1.0	n/a	n/a	n/a	n/a	n/a	n/a	n/a	n/a	ITI	poldrack-single-stim	s358	False	0
42.965	1.761	44.726	-0.96642782241299	draw_card	1.761	columbia_card_task_fmri	17.0	0.7777777777777778	89.0	-65.0	0.2222222222222222	9.0	1.0	2.0	1.658215822127282	1.761	n/a	stim	poldrack-single-stim	s358	False	1
44.73	0.633	45.363	-3.24420560019077	draw_card	0.633	columbia_card_task_fmri	17.0	0.75	89.0	-65.0	0.25	9.0	2.0	2.0	3.074562907201866	0.633	n/a	stim	poldrack-single-stim	s358	False	1
45.365	0.812	46.177	-6.172777028762197	end_round	0.812	columbia_card_task_fmri	17.0	0.7142857142857143	71.0	-65.0	0.2857142857142857	9.0	3.0	2.0	4.611307148755316	0.812	2.0	stim	poldrack-single-stim	s358	False	1
46.93	1.5	46.179	n/a	-1.0	2.522	columbia_card_task_fmri	n/a	n/a	-1.0	n/a	n/a	n/a	n/a	n/a	n/a	n/a	n/a	ITI	poldrack-single-stim	s358	False	0
48.703	3.476	52.179	3.3557943998092297	draw_card	3.476	columbia_card_task_fmri	14.0	0.9	89.0	-95.0	0.1	10.0	1.0	1.0	0.2676004418026494	3.476	n/a	stim	poldrack-single-stim	s358	False	1
52.182	2.584	54.766	2.144683288698117	end_round	2.584	columbia_card_task_fmri	14.0	0.8888888888888888	71.0	-95.0	0.1111111111111111	10.0	2.0	1.0	1.8229501940639423	2.584	1.0	stim	poldrack-single-stim	s358	False	1
55.519	1.5	54.768	n/a	-1.0	2.59	columbia_card_task_fmri	n/a	n/a	-1.0	n/a	n/a	n/a	n/a	n/a	n/a	n/a	n/a	ITI	poldrack-single-stim	s358	False	0
57.361	2.131	59.492	-0.7442056001907702	draw_card	2.131	columbia_card_task_fmri	15.0	0.8	89.0	-65.0	0.2	10.0	1.0	2.0	-0.4323776739301905	2.131	n/a	stim	poldrack-single-stim	s358	False	1
59.494	1.114	60.608	-2.5219833779685468	draw_card	1.114	columbia_card_task_fmri	15.0	0.7777777777777778	89.0	-65.0	0.2222222222222222	10.0	2.0	2.0	0.826760393267783	1.114	n/a	stim	poldrack-single-stim	s358	False	1
60.609	1.776	62.385	-4.74420560019077	end_round	1.776	columbia_card_task_fmri	15.0	0.75	71.0	-65.0	0.25	10.0	3.0	2.0	2.208560536934584	1.776	2.0	stim	poldrack-single-stim	s358	False	1
63.138	1.5	62.387	n/a	-1.0	2.454	columbia_card_task_fmri	n/a	n/a	-1.0	n/a	n/a	n/a	n/a	n/a	n/a	n/a	n/a	ITI	poldrack-single-stim	s358	False	0
64.844	2.863	67.707	0.8557943998092312	draw_card	2.863	columbia_card_task_fmri	17.0	0.8	89.0	-65.0	0.2	10.0	1.0	2.0	0.3675973917270596	2.863	n/a	stim	poldrack-single-stim	s358	False	1
67.709	2.879	70.588	-0.96642782241299	draw_card	2.879	columbia_card_task_fmri	17.0	0.7777777777777778	89.0	-65.0	0.2222222222222222	10.0	2.0	2.0	1.658215822127282	2.879	n/a	stim	poldrack-single-stim	s358	False	1
70.59	0.489	71.079	-3.24420560019077	end_round	0.489	columbia_card_task_fmri	17.0	0.75	71.0	-65.0	0.25	10.0	3.0	2.0	3.074562907201866	0.489	2.0	stim	poldrack-single-stim	s358	False	1
71.831	1.5	71.08	n/a	-1.0	2.318	columbia_card_task_fmri	n/a	n/a	-1.0	n/a	n/a	n/a	n/a	n/a	n/a	n/a	n/a	ITI	poldrack-single-stim	s358	False	0
73.401	1.902	75.303	-0.5775389335241023	draw_card	1.902	columbia_card_task_fmri	13.0	0.8333333333333334	89.0	-70.0	0.1666666666666666	12.0	1.0	2.0	-1.500068697052491	1.902	1.0	stim	poldrack-single-stim	s358	False	0
76.057	1.5	75.306	n/a	-1.0	2.25	columbia_card_task_fmri	n/a	n/a	-1.0	n/a	n/a	n/a	n/a	n/a	n/a	n/a	n/a	ITI	poldrack-single-stim	s358	False	0
77.558	1.456	79.014	-0.5775389335241023	draw_card	1.456	columbia_card_task_fmri	15.0	0.8333333333333334	89.0	-80.0	0.1666666666666666	12.0	1.0	2.0	2.9719336666131184	1.456	1.0	stim	poldrack-single-stim	s358	False	0
79.767	1.5	79.016	n/a	-1.0	2.658	columbia_card_task_fmri	n/a	n/a	-1.0	n/a	n/a	n/a	n/a	n/a	n/a	n/a	n/a	ITI	poldrack-single-stim	s358	False	0
81.676	1.703	83.379	-1.5442056001907691	draw_card	1.703	columbia_card_task_fmri	14.0	0.8	89.0	-65.0	0.2	15.0	1.0	3.0	-0.8323647333448214	1.703	n/a	stim	poldrack-single-stim	s358	False	1
83.381	0.428	83.809	-2.672777028762197	draw_card	0.428	columbia_card_task_fmri	14.0	0.7857142857142857	89.0	-65.0	0.2142857142857142	15.0	2.0	3.0	-0.016644422870975	0.428	n/a	stim	poldrack-single-stim	s358	False	1
83.811	0.483	84.294	-3.9749748309600017	draw_card	0.483	columbia_card_task_fmri	14.0	0.7692307692307692	89.0	-65.0	0.2307692307692307	15.0	3.0	3.0	0.8522613628788704	0.483	3.0	stim	poldrack-single-stim	s358	False	0
85.047	1.5	84.296	n/a	-1.0	2.454	columbia_card_task_fmri	n/a	n/a	-1.0	n/a	n/a	n/a	n/a	n/a	n/a	n/a	n/a	ITI	poldrack-single-stim	s358	False	0
86.754	0.617	87.371	-1.6192056001907702	draw_card	0.617	columbia_card_task_fmri	1.0	0.9375	89.0	-45.0	0.0625	16.0	1.0	1.0	-21.295635167001237	0.617	n/a	stim	poldrack-single-stim	s358	False	1
87.373	0.986	88.359	-1.8108722668574369	draw_card	0.986	columbia_card_task_fmri	1.0	0.9333333333333332	89.0	-45.0	0.0666666666666666	16.0	2.0	1.0	-20.95613322222281	0.986	n/a	stim	poldrack-single-stim	s358	False	1
88.361	0.614	88.975	-2.029919885905056	draw_card	0.614	columbia_card_task_fmri	1.0	0.9285714285714286	89.0	-45.0	0.0714285714285714	16.0	3.0	1.0	-20.58382746629505	0.614	3.0	stim	poldrack-single-stim	s358	False	0
89.728	1.5	88.977	n/a	-1.0	2.386	columbia_card_task_fmri	n/a	n/a	-1.0	n/a	n/a	n/a	n/a	n/a	n/a	n/a	n/a	ITI	poldrack-single-stim	s358	False	0
91.367	1.421	92.788	-0.6817056001907702	draw_card	1.421	columbia_card_task_fmri	15.0	0.8125	89.0	-70.0	0.1875	16.0	1.0	3.0	0.7441379380681354	1.421	n/a	stim	poldrack-single-stim	s358	False	1
92.79	2.892	95.682	-1.7442056001907702	draw_card	2.892	columbia_card_task_fmri	15.0	0.8	89.0	-70.0	0.2	16.0	2.0	3.0	1.5675621902055423	2.892	n/a	stim	poldrack-single-stim	s358	False	1
95.683	1.128	96.811	-2.9584913144764853	end_round	1.128	columbia_card_task_fmri	15.0	0.7857142857142857	71.0	-70.0	0.2142857142857142	16.0	3.0	3.0	2.4452397594403834	1.128	2.0	stim	poldrack-single-stim	s358	False	1
97.564	1.5	96.813	n/a	-1.0	2.59	columbia_card_task_fmri	n/a	n/a	-1.0	n/a	n/a	n/a	n/a	n/a	n/a	n/a	n/a	ITI	poldrack-single-stim	s358	False	0
99.405	2.716	102.121	6.25579439980923	draw_card	2.716	columbia_card_task_fmri	30.0	0.7	89.0	-50.0	0.3	10.0	1.0	3.0	4.228097920682053	2.716	n/a	stim	poldrack-single-stim	s358	False	1
102.123	1.458	103.581	3.5891277331425693	draw_card	1.458	columbia_card_task_fmri	30.0	0.6666666666666667	89.0	-50.0	0.3333333333333333	10.0	2.0	3.0	5.279829137559773	1.458	2.0	stim	poldrack-single-stim	s358	False	0
104.335	1.5	103.584	n/a	-1.0	2.318	columbia_card_task_fmri	n/a	n/a	-1.0	n/a	n/a	n/a	n/a	n/a	n/a	n/a	n/a	ITI	poldrack-single-stim	s358	False	0
105.905	1.728	107.633	5.65579439980923	draw_card	1.728	columbia_card_task_fmri	17.0	0.8666666666666667	89.0	-70.0	0.1333333333333333	15.0	1.0	2.0	-2.8579806457641794	1.728	n/a	stim	poldrack-single-stim	s358	False	1
107.634	1.422	109.056	4.827222971237803	draw_card	1.422	columbia_card_task_fmri	17.0	0.8571428571428572	89.0	-70.0	0.1428571428571428	15.0	2.0	2.0	-1.988667179918952	1.422	n/a	stim	poldrack-single-stim	s358	False	1
109.057	0.913	109.97	3.871179015193845	draw_card	0.913	columbia_card_task_fmri	17.0	0.8461538461538461	89.0	-70.0	0.1538461538461538	15.0	3.0	2.0	-1.0426523281540767	0.913	3.0	stim	poldrack-single-stim	s358	False	0
110.724	1.5	109.973	n/a	-1.0	2.59	columbia_card_task_fmri	n/a	n/a	-1.0	n/a	n/a	n/a	n/a	n/a	n/a	n/a	n/a	ITI	poldrack-single-stim	s358	False	0
112.565	2.771	115.336	0.8807943998092298	end_round	2.771	columbia_card_task_fmri	7.0	0.9375	71.0	-95.0	0.0625	16.0	1.0	1.0	-7.741806185295324	2.771	0.0	stim	poldrack-single-stim	s358	False	1
116.09	1.5	115.339	n/a	-1.0	2.386	columbia_card_task_fmri	n/a	n/a	-1.0	n/a	n/a	n/a	n/a	n/a	n/a	n/a	n/a	ITI	poldrack-single-stim	s358	False	0
117.728	3.691	121.419	2.44329439980923	draw_card	3.691	columbia_card_task_fmri	9.0	0.9375	89.0	-100.0	0.0625	16.0	1.0	1.0	-6.047461058685887	3.691	n/a	stim	poldrack-single-stim	s358	False	1
121.421	0.403	121.824	1.9891277331425632	end_round	0.403	columbia_card_task_fmri	9.0	0.9333333333333332	71.0	-100.0	0.0666666666666666	16.0	2.0	1.0	-5.242819787997895	0.403	1.0	stim	poldrack-single-stim	s358	False	1
122.578	1.5	121.827	n/a	-1.0	2.318	columbia_card_task_fmri	n/a	n/a	-1.0	n/a	n/a	n/a	n/a	n/a	n/a	n/a	n/a	ITI	poldrack-single-stim	s358	False	0
124.148	3.037	127.185	3.38079439980923	draw_card	3.037	columbia_card_task_fmri	15.0	0.875	89.0	-80.0	0.125	16.0	1.0	2.0	-1.0140619272576783	3.037	n/a	stim	poldrack-single-stim	s358	False	1
127.186	0.552	127.738	2.589127733142564	draw_card	0.552	columbia_card_task_fmri	15.0	0.8666666666666667	89.0	-80.0	0.1333333333333333	16.0	2.0	2.0	-0.1385967215373966	0.552	n/a	stim	poldrack-single-stim	s358	False	1
127.74	3.538	131.278	1.6843658283806604	draw_card	3.538	columbia_card_task_fmri	15.0	0.8571428571428572	89.0	-80.0	0.1428571428571428	16.0	3.0	2.0	0.8106591789944702	3.538	n/a	stim	poldrack-single-stim	s358	False	1
131.28	0.446	131.726	0.640409784424613	end_round	0.446	columbia_card_task_fmri	15.0	0.8461538461538461	71.0	-80.0	0.1538461538461538	16.0	4.0	2.0	1.8436696072209813	0.446	3.0	stim	poldrack-single-stim	s358	False	1
132.479	1.5	131.728	n/a	-1.0	2.318	columbia_card_task_fmri	n/a	n/a	-1.0	n/a	n/a	n/a	n/a	n/a	n/a	n/a	n/a	ITI	poldrack-single-stim	s358	False	0
134.049	1.939	135.988	5.50579439980923	draw_card	1.939	columbia_card_task_fmri	16.0	0.875	89.0	-70.0	0.125	16.0	1.0	2.0	-3.9904231865687407	1.939	n/a	stim	poldrack-single-stim	s358	False	1
135.991	0.785	136.776	4.789127733142563	draw_card	0.785	columbia_card_task_fmri	16.0	0.8666666666666667	89.0	-70.0	0.1333333333333333	16.0	2.0	2.0	-3.197902417832097	0.785	n/a	stim	poldrack-single-stim	s358	False	1
136.778	0.949	137.727	3.970080114094945	draw_card	0.949	columbia_card_task_fmri	16.0	0.8571428571428572	89.0	-70.0	0.1428571428571428	16.0	3.0	2.0	-2.3385817911097746	0.949	n/a	stim	poldrack-single-stim	s358	False	1
137.729	1.528	139.257	3.0250251690399983	draw_card	1.528	columbia_card_task_fmri	16.0	0.8461538461538461	89.0	-70.0	0.1538461538461538	16.0	4.0	2.0	-1.4034414220701912	1.528	n/a	stim	poldrack-single-stim	s358	False	1
139.26	0.558	139.818	1.9224610664758977	end_round	0.558	columbia_card_task_fmri	16.0	0.8333333333333334	71.0	-70.0	0.1666666666666666	16.0	5.0	2.0	-0.382071601094502	0.558	4.0	stim	poldrack-single-stim	s358	False	1
140.571	1.5	139.82	n/a	-1.0	2.318	columbia_card_task_fmri	n/a	n/a	-1.0	n/a	n/a	n/a	n/a	n/a	n/a	n/a	n/a	ITI	poldrack-single-stim	s358	False	0
142.142	2.781	144.923	6.81829439980923	draw_card	2.781	columbia_card_task_fmri	30.0	0.6875	89.0	-45.0	0.3125	16.0	1.0	5.0	2.330971468347279	2.781	n/a	stim	poldrack-single-stim	s358	False	1
144.925	0.777	145.702	5.255794399809234	draw_card	0.777	columbia_card_task_fmri	30.0	0.6666666666666667	89.0	-45.0	0.3333333333333333	16.0	2.0	5.0	2.9228643646540604	0.777	n/a	stim	poldrack-single-stim	s358	False	1
145.705	2.065	147.77	3.4700801140949418	end_round	2.065	columbia_card_task_fmri	30.0	0.6428571428571428	71.0	-45.0	0.3571428571428571	16.0	3.0	5.0	3.5043171150354127	2.065	2.0	stim	poldrack-single-stim	s358	False	1
148.523	1.5	147.772	n/a	-1.0	2.386	columbia_card_task_fmri	n/a	n/a	-1.0	n/a	n/a	n/a	n/a	n/a	n/a	n/a	n/a	ITI	poldrack-single-stim	s358	False	0
150.16	3.386	153.546	-1.4108722668574365	draw_card	3.386	columbia_card_task_fmri	13.0	0.8333333333333334	89.0	-75.0	0.1666666666666666	6.0	1.0	1.0	0.3632611935995342	3.386	n/a	stim	poldrack-single-stim	s358	False	1
153.548	1.444	154.992	-4.34420560019077	draw_card	1.444	columbia_card_task_fmri	13.0	0.8	89.0	-75.0	0.2	6.0	2.0	1.0	2.767529388689262	1.444	n/a	stim	poldrack-single-stim	s358	False	1
154.994	1.357	156.351	-8.74420560019077	end_round	1.357	columbia_card_task_fmri	13.0	0.75	71.0	-75.0	0.25	6.0	3.0	1.0	5.67257629964746	1.357	2.0	stim	poldrack-single-stim	s358	False	1
157.105	1.5	156.354	n/a	-1.0	2.25	columbia_card_task_fmri	n/a	n/a	-1.0	n/a	n/a	n/a	n/a	n/a	n/a	n/a	n/a	ITI	poldrack-single-stim	s358	False	0
158.608	2.655	161.263	0.2557943998092316	draw_card	2.655	columbia_card_task_fmri	14.0	0.8333333333333334	89.0	-70.0	0.1666666666666666	6.0	1.0	1.0	-1.127403291185157	2.655	n/a	stim	poldrack-single-stim	s358	False	1
161.265	0.697	161.962	-2.544205600190769	draw_card	0.697	columbia_card_task_fmri	14.0	0.8	89.0	-70.0	0.2	6.0	2.0	1.0	1.1675736446810916	0.697	n/a	stim	poldrack-single-stim	s358	False	1
161.964	1.302	163.266	-6.74420560019077	draw_card	1.302	columbia_card_task_fmri	14.0	0.75	89.0	-70.0	0.25	6.0	3.0	1.0	3.9405663742616	1.302	n/a	stim	poldrack-single-stim	s358	False	1
163.268	0.489	163.757	-13.744205600190767	end_round	0.489	columbia_card_task_fmri	14.0	0.6666666666666667	71.0	-70.0	0.3333333333333333	6.0	4.0	1.0	7.165405912667524	0.489	3.0	stim	poldrack-single-stim	s358	False	1
164.511	1.5	163.76	n/a	-1.0	2.386	columbia_card_task_fmri	n/a	n/a	-1.0	n/a	n/a	n/a	n/a	n/a	n/a	n/a	n/a	ITI	poldrack-single-stim	s358	False	0
166.15	2.415	168.565	0.2557943998092316	draw_card	2.415	columbia_card_task_fmri	16.0	0.8333333333333334	89.0	-80.0	0.1666666666666666	6.0	1.0	1.0	3.3446020377319954	2.415	n/a	stim	poldrack-single-stim	s358	False	1
168.567	1.656	170.223	-2.9442056001907693	draw_card	1.656	columbia_card_task_fmri	16.0	0.8	89.0	-80.0	0.2	6.0	2.0	1.0	5.967451940306702	1.656	n/a	stim	poldrack-single-stim	s358	False	1
170.225	0.447	170.672	-7.74420560019077	end_round	0.447	columbia_card_task_fmri	16.0	0.75	71.0	-80.0	0.25	6.0	3.0	1.0	9.136606370652082	0.447	2.0	stim	poldrack-single-stim	s358	False	1
171.426	1.5	170.675	n/a	-1.0	2.59	columbia_card_task_fmri	n/a	n/a	-1.0	n/a	n/a	n/a	n/a	n/a	n/a	n/a	n/a	ITI	poldrack-single-stim	s358	False	0
173.268	2.024	175.292	2.755794399809232	draw_card	2.024	columbia_card_task_fmri	17.0	0.8333333333333334	89.0	-70.0	0.1666666666666666	6.0	1.0	1.0	-0.0094053370619846	2.024	1.0	stim	poldrack-single-stim	s358	False	0
176.046	1.5	175.295	n/a	-1.0	2.658	columbia_card_task_fmri	n/a	n/a	-1.0	n/a	n/a	n/a	n/a	n/a	n/a	n/a	n/a	ITI	poldrack-single-stim	s358	False	0
177.957	2.612	180.569	2.75579439980923	draw_card	2.612	columbia_card_task_fmri	25.0	0.75	89.0	-65.0	0.25	8.0	1.0	2.0	6.538582625034415	2.612	n/a	stim	poldrack-single-stim	s358	False	1
180.57	1.606	182.176	-0.4584913144764819	end_round	1.606	columbia_card_task_fmri	25.0	0.7142857142857143	71.0	-65.0	0.2857142857142857	8.0	2.0	2.0	8.22526026039693	1.606	1.0	stim	poldrack-single-stim	s358	False	1
182.928	1.5	182.177	n/a	-1.0	2.386	columbia_card_task_fmri	n/a	n/a	-1.0	n/a	n/a	n/a	n/a	n/a	n/a	n/a	n/a	ITI	poldrack-single-stim	s358	False	0
184.567	2.224	186.791	2.75579439980923	draw_card	2.224	columbia_card_task_fmri	30.0	0.75	89.0	-80.0	0.25	8.0	1.0	2.0	15.198684034743684	2.224	n/a	stim	poldrack-single-stim	s358	False	1
186.792	0.91	187.702	-1.1727770287621937	draw_card	0.91	columbia_card_task_fmri	30.0	0.7142857142857143	89.0	-80.0	0.2857142857142857	8.0	2.0	2.0	17.26019299285408	0.91	n/a	stim	poldrack-single-stim	s358	False	1
187.705	1.283	188.988	-6.410872266857431	end_round	1.283	columbia_card_task_fmri	30.0	0.6666666666666667	71.0	-80.0	0.3333333333333333	8.0	3.0	2.0	19.42172817714468	1.283	2.0	stim	poldrack-single-stim	s358	False	1
189.741	1.5	188.99	n/a	-1.0	2.386	columbia_card_task_fmri	n/a	n/a	-1.0	n/a	n/a	n/a	n/a	n/a	n/a	n/a	n/a	ITI	poldrack-single-stim	s358	False	0
191.38	3.305	194.685	2.455794399809231	draw_card	3.305	columbia_card_task_fmri	13.0	0.9	89.0	-95.0	0.1	10.0	1.0	1.0	-0.0323902950100674	3.305	n/a	stim	poldrack-single-stim	s358	False	1
194.687	2.612	197.299	1.2557943998092298	end_round	2.612	columbia_card_task_fmri	13.0	0.8888888888888888	71.0	-95.0	0.1111111111111111	10.0	2.0	1.0	1.5086893561573689	2.612	1.0	stim	poldrack-single-stim	s358	False	1
198.053	1.5	197.302	n/a	-1.0	2.25	columbia_card_task_fmri	n/a	n/a	-1.0	n/a	n/a	n/a	n/a	n/a	n/a	n/a	n/a	ITI	poldrack-single-stim	s358	False	0
199.556	2.87	202.426	3.8557943998092297	draw_card	2.87	columbia_card_task_fmri	14.0	0.9	89.0	-90.0	0.1	10.0	1.0	1.0	-1.2323514609660826	2.87	n/a	stim	poldrack-single-stim	s358	False	1
202.429	0.663	203.092	2.700238844253673	end_round	0.663	columbia_card_task_fmri	14.0	0.8888888888888888	71.0	-90.0	0.1111111111111111	10.0	2.0	1.0	0.2516477049591188	0.663	1.0	stim	poldrack-single-stim	s358	False	1
203.845	1.5	203.094	n/a	-1.0	2.318	columbia_card_task_fmri	n/a	n/a	-1.0	n/a	n/a	n/a	n/a	n/a	n/a	n/a	n/a	ITI	poldrack-single-stim	s358	False	0
205.416	2.146	207.562	-0.9442056001907696	draw_card	2.146	columbia_card_task_fmri	16.0	0.8	89.0	-70.0	0.2	10.0	1.0	2.0	1.9675510021019704	2.146	n/a	stim	poldrack-single-stim	s358	False	1
207.565	0.822	208.387	-2.8553167113018807	draw_card	0.822	columbia_card_task_fmri	16.0	0.7777777777777778	89.0	-70.0	0.2222222222222222	10.0	2.0	2.0	3.3211300272134423	0.822	2.0	stim	poldrack-single-stim	s358	False	0
209.14	1.5	208.389	n/a	-1.0	2.25	columbia_card_task_fmri	n/a	n/a	-1.0	n/a	n/a	n/a	n/a	n/a	n/a	n/a	n/a	ITI	poldrack-single-stim	s358	False	0
210.643	1.766	212.409	-1.6608722668574365	end_round	1.766	columbia_card_task_fmri	7.0	0.9166666666666666	71.0	-100.0	0.0833333333333333	12.0	1.0	1.0	-2.8590560703736934	1.766	0.0	stim	poldrack-single-stim	s358	False	1
213.165	1.5	212.414	n/a	-1.0	2.25	columbia_card_task_fmri	n/a	n/a	-1.0	n/a	n/a	n/a	n/a	n/a	n/a	n/a	n/a	ITI	poldrack-single-stim	s358	False	0
214.668	1.902	216.57	-1.4108722668574345	draw_card	1.902	columbia_card_task_fmri	14.0	0.8333333333333334	89.0	-80.0	0.1666666666666666	12.0	1.0	2.0	2.5992655002761538	1.902	n/a	stim	poldrack-single-stim	s358	False	1
216.572	0.88	217.452	-2.8351146910998635	draw_card	0.88	columbia_card_task_fmri	14.0	0.8181818181818181	89.0	-80.0	0.1818181818181818	12.0	2.0	2.0	3.8227954814734986	0.88	2.0	stim	poldrack-single-stim	s358	False	0
218.206	1.5	217.455	n/a	-1.0	2.386	columbia_card_task_fmri	n/a	n/a	-1.0	n/a	n/a	n/a	n/a	n/a	n/a	n/a	n/a	ITI	poldrack-single-stim	s358	False	0
219.844	2.8	222.644	0.2557943998092298	draw_card	2.8	columbia_card_task_fmri	15.0	0.8333333333333334	89.0	-75.0	0.1666666666666666	12.0	1.0	2.0	1.108595019261159	2.8	n/a	stim	poldrack-single-stim	s358	False	1
222.647	1.208	223.855	-1.1078419638271353	draw_card	1.208	columbia_card_task_fmri	15.0	0.8181818181818181	89.0	-75.0	0.1818181818181818	12.0	2.0	2.0	2.2800571531928924	1.208	2.0	stim	poldrack-single-stim	s358	False	0
224.61	1.5	223.859	n/a	-1.0	2.386	columbia_card_task_fmri	n/a	n/a	-1.0	n/a	n/a	n/a	n/a	n/a	n/a	n/a	n/a	ITI	poldrack-single-stim	s358	False	0
226.249	1.829	228.078	-0.7442056001907702	draw_card	1.829	columbia_card_task_fmri	15.0	0.8	89.0	-65.0	0.2	15.0	1.0	3.0	-0.4323776739301905	1.829	n/a	stim	poldrack-single-stim	s358	False	1
228.079	0.372	228.451	-1.8870627430479123	draw_card	0.372	columbia_card_task_fmri	15.0	0.7857142857142857	89.0	-65.0	0.2142857142857142	15.0	2.0	3.0	0.3936688654888414	0.372	n/a	stim	poldrack-single-stim	s358	False	1
228.455	0.479	228.934	-3.205744061729233	end_round	0.479	columbia_card_task_fmri	15.0	0.7692307692307692	71.0	-65.0	0.2307692307692307	15.0	3.0	3.0	1.2735741214472185	0.479	2.0	stim	poldrack-single-stim	s358	False	1
229.688	1.5	228.937	n/a	-1.0	2.726	columbia_card_task_fmri	n/a	n/a	-1.0	n/a	n/a	n/a	n/a	n/a	n/a	n/a	n/a	ITI	poldrack-single-stim	s358	False	0
231.667	2.548	234.215	-1.4942056001907702	draw_card	2.548	columbia_card_task_fmri	14.0	0.8125	89.0	-70.0	0.1875	16.0	1.0	3.0	0.3538373019206347	2.548	n/a	stim	poldrack-single-stim	s358	False	1
234.218	0.721	234.939	-2.544205600190769	draw_card	0.721	columbia_card_task_fmri	14.0	0.8	89.0	-70.0	0.2	16.0	2.0	3.0	1.1675736446810916	0.721	n/a	stim	poldrack-single-stim	s358	False	1
234.941	1.375	236.316	-3.74420560019077	draw_card	1.375	columbia_card_task_fmri	14.0	0.7857142857142857	89.0	-70.0	0.2142857142857142	16.0	3.0	3.0	2.0349250223623017	1.375	n/a	stim	poldrack-single-stim	s358	False	1
236.319	0.467	236.786	-5.128820984806155	end_round	0.467	columbia_card_task_fmri	14.0	0.7692307692307692	71.0	-70.0	0.2307692307692307	16.0	4.0	3.0	2.9588280807603766	0.467	3.0	stim	poldrack-single-stim	s358	False	1
237.539	1.5	236.788	n/a	-1.0	2.454	columbia_card_task_fmri	n/a	n/a	-1.0	n/a	n/a	n/a	n/a	n/a	n/a	n/a	n/a	ITI	poldrack-single-stim	s358	False	0
239.246	3.228	242.474	-1.5567056001907702	draw_card	3.228	columbia_card_task_fmri	11.0	0.6875	89.0	-30.0	0.3125	16.0	1.0	5.0	-13.427669968943423	3.228	n/a	stim	poldrack-single-stim	s358	False	1
242.476	3.012	245.488	-2.410872266857436	draw_card	3.012	columbia_card_task_fmri	11.0	0.6666666666666667	89.0	-30.0	0.3333333333333333	16.0	2.0	5.0	-13.104122056676491	3.012	2.0	stim	poldrack-single-stim	s358	False	0
246.242	1.5	245.491	n/a	-1.0	2.318	columbia_card_task_fmri	n/a	n/a	-1.0	n/a	n/a	n/a	n/a	n/a	n/a	n/a	n/a	ITI	poldrack-single-stim	s358	False	0
247.813	3.442	251.255	3.25579439980923	draw_card	3.442	columbia_card_task_fmri	15.0	0.8666666666666667	89.0	-75.0	0.1333333333333333	15.0	1.0	2.0	-1.8382136146965389	3.442	n/a	stim	poldrack-single-stim	s358	False	1
251.258	0.37	251.628	2.398651542666374	draw_card	0.37	columbia_card_task_fmri	15.0	0.8571428571428572	89.0	-75.0	0.1428571428571428	15.0	2.0	2.0	-0.9389216804416662	0.37	n/a	stim	poldrack-single-stim	s358	False	1
251.63	0.581	252.211	1.409640553655383	draw_card	0.581	columbia_card_task_fmri	15.0	0.8461538461538461	89.0	-75.0	0.1538461538461538	15.0	3.0	2.0	0.039716569300765	0.581	n/a	stim	poldrack-single-stim	s358	False	1
252.214	0.882	253.096	0.2557943998092298	end_round	0.882	columbia_card_task_fmri	15.0	0.8333333333333334	71.0	-75.0	0.1666666666666666	15.0	4.0	2.0	1.108595019261159	0.882	3.0	stim	poldrack-single-stim	s358	False	1
253.851	1.5	253.1	n/a	-1.0	2.318	columbia_card_task_fmri	n/a	n/a	-1.0	n/a	n/a	n/a	n/a	n/a	n/a	n/a	n/a	ITI	poldrack-single-stim	s358	False	0
255.422	1.58	257.002	4.989127733142564	draw_card	1.58	columbia_card_task_fmri	17.0	0.8666666666666667	89.0	-75.0	0.1333333333333333	15.0	1.0	2.0	-1.1583675914575338	1.58	n/a	stim	poldrack-single-stim	s358	False	1
257.005	0.588	257.593	4.1129372569520894	draw_card	0.588	columbia_card_task_fmri	17.0	0.8571428571428572	89.0	-75.0	0.1428571428571428	15.0	2.0	2.0	-0.2390900497351609	0.588	n/a	stim	poldrack-single-stim	s358	False	1
257.596	0.538	258.134	3.1019482459630767	draw_card	0.538	columbia_card_task_fmri	17.0	0.8461538461538461	89.0	-75.0	0.1538461538461538	15.0	3.0	2.0	0.7612970928880287	0.538	n/a	stim	poldrack-single-stim	s358	False	1
258.136	0.955	259.091	1.9224610664758977	draw_card	0.955	columbia_card_task_fmri	17.0	0.8333333333333334	89.0	-75.0	0.1666666666666666	15.0	4.0	2.0	1.85392980865722	0.955	n/a	stim	poldrack-single-stim	s358	False	1
259.095	4.455	263.55	0.5285216725365014	draw_card	4.455	columbia_card_task_fmri	17.0	0.8181818181818181	89.0	-75.0	0.1818181818181818	15.0	5.0	2.0	3.051425881443677	4.455	n/a	stim	poldrack-single-stim	s358	False	1
263.553	0.792	264.345	-1.1442056001907688	end_round	0.792	columbia_card_task_fmri	17.0	0.8	71.0	-75.0	0.2	15.0	6.0	2.0	4.367488980898578	0.792	5.0	stim	poldrack-single-stim	s358	False	1
265.1	1.5	264.349	n/a	-1.0	2.59	columbia_card_task_fmri	n/a	n/a	-1.0	n/a	n/a	n/a	n/a	n/a	n/a	n/a	n/a	ITI	poldrack-single-stim	s358	False	0
266.943	2.28	269.223	0.5682943998092298	draw_card	2.28	columbia_card_task_fmri	2.0	0.9375	89.0	-25.0	0.0625	16.0	1.0	1.0	-25.8927368570976	2.28	n/a	stim	poldrack-single-stim	s358	False	1
269.227	0.365	269.592	0.4557943998092298	draw_card	0.365	columbia_card_task_fmri	2.0	0.9333333333333332	89.0	-25.0	0.0666666666666666	16.0	2.0	1.0	-25.693560937117205	0.365	n/a	stim	poldrack-single-stim	s358	False	1
269.594	0.359	269.953	0.3272229712378015	draw_card	0.359	columbia_card_task_fmri	2.0	0.9285714285714286	89.0	-25.0	0.0714285714285714	16.0	3.0	1.0	-25.475133592049808	0.359	n/a	stim	poldrack-single-stim	s358	False	1
269.956	0.359	270.315	0.1788713228861529	draw_card	0.359	columbia_card_task_fmri	2.0	0.9230769230769232	89.0	-25.0	0.0769230769230769	16.0	4.0	1.0	-25.23418169586007	0.359	n/a	stim	poldrack-single-stim	s358	False	1
270.317	0.393	270.71	0.00579439980923	draw_card	0.393	columbia_card_task_fmri	2.0	0.9166666666666666	89.0	-25.0	0.0833333333333333	16.0	5.0	1.0	-24.96661149529505	0.393	5.0	stim	poldrack-single-stim	s358	False	0
271.465	1.5	270.714	n/a	-1.0	2.726	columbia_card_task_fmri	n/a	n/a	-1.0	n/a	n/a	n/a	n/a	n/a	n/a	n/a	n/a	ITI	poldrack-single-stim	s358	False	0
273.444	2.845	276.289	2.75579439980923	draw_card	2.845	columbia_card_task_fmri	9.0	0.9375	89.0	-95.0	0.0625	16.0	1.0	1.0	-7.25770874638529	2.845	n/a	stim	poldrack-single-stim	s358	False	1
276.292	0.42	276.712	2.3224610664758973	end_round	0.42	columbia_card_task_fmri	9.0	0.9333333333333332	71.0	-95.0	0.0666666666666666	16.0	2.0	1.0	-6.489981072799541	0.42	1.0	stim	poldrack-single-stim	s358	False	1
277.466	1.5	276.715	n/a	-1.0	2.522	columbia_card_task_fmri	n/a	n/a	-1.0	n/a	n/a	n/a	n/a	n/a	n/a	n/a	n/a	ITI	poldrack-single-stim	s358	False	0
279.243	1.973	281.216	4.31829439980923	draw_card	1.973	columbia_card_task_fmri	11.0	0.9375	89.0	-100.0	0.0625	16.0	1.0	1.0	-5.563360480086264	1.973	n/a	stim	poldrack-single-stim	s358	False	1
281.219	1.224	282.443	3.855794399809231	end_round	1.224	columbia_card_task_fmri	11.0	0.9333333333333332	71.0	-100.0	0.0666666666666666	16.0	2.0	1.0	-4.743953815042264	1.224	1.0	stim	poldrack-single-stim	s358	False	1
283.198	1.5	282.447	n/a	-1.0	3.134	columbia_card_task_fmri	n/a	n/a	-1.0	n/a	n/a	n/a	n/a	n/a	n/a	n/a	n/a	ITI	poldrack-single-stim	s358	False	0
285.584	1.619	287.203	4.88079439980923	draw_card	1.619	columbia_card_task_fmri	16.0	0.875	89.0	-75.0	0.125	16.0	1.0	2.0	-2.3368918144167274	1.619	n/a	stim	poldrack-single-stim	s358	False	1
287.206	0.508	287.714	4.122461066475897	draw_card	0.508	columbia_card_task_fmri	16.0	0.8666666666666667	89.0	-75.0	0.1333333333333333	16.0	2.0	2.0	-1.4982907307915916	0.508	n/a	stim	poldrack-single-stim	s358	False	1
287.717	1.668	289.385	3.255794399809232	draw_card	1.668	columbia_card_task_fmri	16.0	0.8571428571428572	89.0	-75.0	0.1428571428571428	16.0	3.0	2.0	-0.5890059891566821	1.668	n/a	stim	poldrack-single-stim	s358	False	1
289.388	1.621	291.009	2.25579439980923	draw_card	1.621	columbia_card_task_fmri	16.0	0.8461538461538461	89.0	-75.0	0.1538461538461538	16.0	4.0	2.0	0.4005067107647093	1.621	n/a	stim	poldrack-single-stim	s358	False	1
291.012	0.461	291.473	1.0891277331425635	end_round	0.461	columbia_card_task_fmri	16.0	0.8333333333333334	71.0	-75.0	0.1666666666666666	16.0	5.0	2.0	1.4812622974635945	0.461	4.0	stim	poldrack-single-stim	s358	False	1
292.228	1.5	291.477	n/a	-1.0	2.386	columbia_card_task_fmri	n/a	n/a	-1.0	n/a	n/a	n/a	n/a	n/a	n/a	n/a	n/a	ITI	poldrack-single-stim	s358	False	0
293.868	1.824	295.692	5.13079439980923	draw_card	1.824	columbia_card_task_fmri	17.0	0.875	89.0	-80.0	0.125	16.0	1.0	2.0	-0.352645568230912	1.824	n/a	stim	poldrack-single-stim	s358	False	1
295.696	0.597	296.293	4.322461066475898	draw_card	0.597	columbia_card_task_fmri	17.0	0.8666666666666667	89.0	-80.0	0.1333333333333333	16.0	2.0	2.0	0.541251660171234	0.597	n/a	stim	poldrack-single-stim	s358	False	1
296.295	0.576	296.871	3.398651542666376	draw_card	0.576	columbia_card_task_fmri	17.0	0.8571428571428572	89.0	-80.0	0.1428571428571428	16.0	3.0	2.0	1.5104931008350064	0.576	n/a	stim	poldrack-single-stim	s358	False	1
296.875	2.154	299.029	2.3327174767323067	draw_card	2.154	columbia_card_task_fmri	17.0	0.8461538461538461	89.0	-80.0	0.1538461538461538	16.0	4.0	2.0	2.5652523529024336	2.154	n/a	stim	poldrack-single-stim	s358	False	1
299.032	1.176	300.208	1.0891277331425655	end_round	1.176	columbia_card_task_fmri	17.0	0.8333333333333334	71.0	-80.0	0.1666666666666666	16.0	5.0	2.0	3.717270607299661	1.176	4.0	stim	poldrack-single-stim	s358	False	1
300.963	1.5	300.212	n/a	-1.0	2.386	columbia_card_task_fmri	n/a	n/a	-1.0	n/a	n/a	n/a	n/a	n/a	n/a	n/a	n/a	ITI	poldrack-single-stim	s358	False	0
313.607	2.299	315.906	-0.5775389335241023	draw_card	2.299	columbia_card_task_fmri	13.0	0.8333333333333334	89.0	-70.0	0.1666666666666666	6.0	1.0	1.0	-1.500068697052491	2.299	n/a	stim	poldrack-single-stim	s358	False	1
315.909	0.528	316.437	-3.3442056001907696	draw_card	0.528	columbia_card_task_fmri	13.0	0.8	89.0	-70.0	0.2	6.0	2.0	1.0	0.7675853751559458	0.528	n/a	stim	poldrack-single-stim	s358	False	1
316.441	0.896	317.337	-7.49420560019077	end_round	0.896	columbia_card_task_fmri	13.0	0.75	71.0	-70.0	0.25	6.0	3.0	1.0	3.507564508587805	0.896	2.0	stim	poldrack-single-stim	s358	False	1
318.092	1.5	317.341	n/a	-1.0	2.318	columbia_card_task_fmri	n/a	n/a	-1.0	n/a	n/a	n/a	n/a	n/a	n/a	n/a	n/a	ITI	poldrack-single-stim	s358	False	0
319.662	2.637	322.299	-0.5775389335241023	draw_card	2.637	columbia_card_task_fmri	15.0	0.8333333333333334	89.0	-80.0	0.1666666666666666	6.0	1.0	1.0	2.9719336666131184	2.637	n/a	stim	poldrack-single-stim	s358	False	1
322.302	1.198	323.5	-3.74420560019077	draw_card	1.198	columbia_card_task_fmri	15.0	0.8	89.0	-80.0	0.2	6.0	2.0	1.0	5.56746090803896	1.198	2.0	stim	poldrack-single-stim	s358	False	0
324.255	1.5	323.504	n/a	-1.0	2.318	columbia_card_task_fmri	n/a	n/a	-1.0	n/a	n/a	n/a	n/a	n/a	n/a	n/a	n/a	ITI	poldrack-single-stim	s358	False	0
325.826	1.982	327.808	1.0891277331425635	draw_card	1.982	columbia_card_task_fmri	16.0	0.8333333333333334	89.0	-75.0	0.1666666666666666	6.0	1.0	1.0	1.4812622974635945	1.982	n/a	stim	poldrack-single-stim	s358	False	1
327.811	0.392	328.203	-1.9442056001907693	draw_card	0.392	columbia_card_task_fmri	16.0	0.8	89.0	-75.0	0.2	6.0	2.0	1.0	3.967498749827435	0.392	n/a	stim	poldrack-single-stim	s358	False	1
328.206	0.397	328.603	-6.49420560019077	end_round	0.397	columbia_card_task_fmri	16.0	0.75	71.0	-75.0	0.25	6.0	3.0	1.0	6.971586102196881	0.397	2.0	stim	poldrack-single-stim	s358	False	1
329.357	1.5	328.606	n/a	-1.0	2.862	columbia_card_task_fmri	n/a	n/a	-1.0	n/a	n/a	n/a	n/a	n/a	n/a	n/a	n/a	ITI	poldrack-single-stim	s358	False	0
331.473	1.471	332.944	2.25579439980923	draw_card	1.471	columbia_card_task_fmri	21.0	0.75	89.0	-55.0	0.25	8.0	1.0	2.0	0.4765594331131453	1.471	1.0	stim	poldrack-single-stim	s358	False	0
333.699	1.5	332.948	n/a	-1.0	2.726	columbia_card_task_fmri	n/a	n/a	-1.0	n/a	n/a	n/a	n/a	n/a	n/a	n/a	n/a	ITI	poldrack-single-stim	s358	False	0
335.679	1.945	337.624	3.50579439980923	draw_card	1.945	columbia_card_task_fmri	26.0	0.75	89.0	-65.0	0.25	8.0	1.0	2.0	6.971586102196881	1.945	n/a	stim	poldrack-single-stim	s358	False	1
337.627	1.268	338.895	0.2557943998092334	draw_card	1.268	columbia_card_task_fmri	26.0	0.7142857142857143	89.0	-65.0	0.2857142857142857	8.0	2.0	2.0	8.677005369789597	1.268	n/a	stim	poldrack-single-stim	s358	False	1
338.899	1.805	340.704	-4.077538933524099	end_round	1.805	columbia_card_task_fmri	26.0	0.6666666666666667	71.0	-65.0	0.3333333333333333	8.0	3.0	2.0	10.46517400709861	1.805	2.0	stim	poldrack-single-stim	s358	False	1
341.46	1.5	340.709	n/a	-1.0	2.25	columbia_card_task_fmri	n/a	n/a	-1.0	n/a	n/a	n/a	n/a	n/a	n/a	n/a	n/a	ITI	poldrack-single-stim	s358	False	0
342.963	4.043	347.006	-1.4108722668574365	draw_card	4.043	columbia_card_task_fmri	15.0	0.7777777777777778	89.0	-60.0	0.2222222222222222	9.0	1.0	2.0	-1.251872581384056	4.043	1.0	stim	poldrack-single-stim	s358	False	0
347.761	1.5	347.01	n/a	-1.0	2.318	columbia_card_task_fmri	n/a	n/a	-1.0	n/a	n/a	n/a	n/a	n/a	n/a	n/a	n/a	ITI	poldrack-single-stim	s358	False	0
349.333	2.606	351.939	2.955794399809231	draw_card	2.606	columbia_card_task_fmri	13.0	0.9	89.0	-90.0	0.1	10.0	1.0	1.0	-1.5323412811919113	2.606	n/a	stim	poldrack-single-stim	s358	False	1
351.942	0.428	352.37	1.8113499553647847	draw_card	0.428	columbia_card_task_fmri	13.0	0.8888888888888888	89.0	-90.0	0.1111111111111111	10.0	2.0	1.0	-0.0626122579714234	0.428	n/a	stim	poldrack-single-stim	s358	False	1
352.374	0.397	352.771	0.3807943998092298	end_round	0.397	columbia_card_task_fmri	13.0	0.875	71.0	-90.0	0.125	10.0	3.0	1.0	1.6316085110522565	0.397	2.0	stim	poldrack-single-stim	s358	False	1
353.525	1.5	352.774	n/a	-1.0	2.454	columbia_card_task_fmri	n/a	n/a	-1.0	n/a	n/a	n/a	n/a	n/a	n/a	n/a	n/a	ITI	poldrack-single-stim	s358	False	0
355.233	2.56	357.793	4.25579439980923	draw_card	2.56	columbia_card_task_fmri	15.0	0.9	89.0	-95.0	0.1	10.0	1.0	1.0	0.5675913470292926	2.56	n/a	stim	poldrack-single-stim	s358	False	1
357.796	1.417	359.213	3.033572177587007	draw_card	1.417	columbia_card_task_fmri	15.0	0.8888888888888888	89.0	-95.0	0.1111111111111111	10.0	2.0	1.0	2.137211192738775	1.417	2.0	stim	poldrack-single-stim	s358	False	0
359.968	1.5	359.217	n/a	-1.0	2.522	columbia_card_task_fmri	n/a	n/a	-1.0	n/a	n/a	n/a	n/a	n/a	n/a	n/a	n/a	ITI	poldrack-single-stim	s358	False	0
361.744	1.937	363.681	0.0557943998092305	draw_card	1.937	columbia_card_task_fmri	16.0	0.8	89.0	-65.0	0.2	10.0	1.0	2.0	-0.0323902950100674	1.937	1.0	stim	poldrack-single-stim	s358	False	0
364.435	1.5	363.684	n/a	-1.0	2.318	columbia_card_task_fmri	n/a	n/a	-1.0	n/a	n/a	n/a	n/a	n/a	n/a	n/a	n/a	ITI	poldrack-single-stim	s358	False	0
366.006	2.009	368.015	-1.2442056001907702	end_round	2.009	columbia_card_task_fmri	7.0	0.9166666666666666	71.0	-95.0	0.0833333333333333	12.0	1.0	1.0	-4.24092884161924	2.009	0.0	stim	poldrack-single-stim	s358	False	1
368.77	1.5	368.019	n/a	-1.0	2.522	columbia_card_task_fmri	n/a	n/a	-1.0	n/a	n/a	n/a	n/a	n/a	n/a	n/a	n/a	ITI	poldrack-single-stim	s358	False	0
370.546	1.788	372.334	-0.5775389335241023	draw_card	1.788	columbia_card_task_fmri	14.0	0.8333333333333334	89.0	-75.0	0.1666666666666666	12.0	1.0	2.0	0.735927981903103	1.788	n/a	stim	poldrack-single-stim	s358	False	1
372.337	0.436	372.773	-1.9260237820089536	draw_card	0.436	columbia_card_task_fmri	14.0	0.8181818181818181	89.0	-75.0	0.1818181818181818	12.0	2.0	2.0	1.8943731343497845	0.436	n/a	stim	poldrack-single-stim	s358	False	1
372.776	0.389	373.165	-3.544205600190769	end_round	0.389	columbia_card_task_fmri	14.0	0.8	71.0	-75.0	0.2	12.0	3.0	2.0	3.1675189462395963	0.389	2.0	stim	poldrack-single-stim	s358	False	1
373.919	1.5	373.168	n/a	-1.0	2.998	columbia_card_task_fmri	n/a	n/a	-1.0	n/a	n/a	n/a	n/a	n/a	n/a	n/a	n/a	ITI	poldrack-single-stim	s358	False	0
376.17	1.582	377.752	1.0891277331425635	draw_card	1.582	columbia_card_task_fmri	15.0	0.8333333333333334	89.0	-70.0	0.1666666666666666	12.0	1.0	2.0	-0.7547375890881902	1.582	n/a	stim	poldrack-single-stim	s358	False	1
377.756	0.413	378.169	-0.1987510547362269	draw_card	0.413	columbia_card_task_fmri	15.0	0.8181818181818181	89.0	-70.0	0.1818181818181818	12.0	2.0	2.0	0.3516395504148661	0.413	n/a	stim	poldrack-single-stim	s358	False	1
378.173	1.048	379.221	-1.7442056001907702	draw_card	1.048	columbia_card_task_fmri	15.0	0.8	89.0	-70.0	0.2	12.0	3.0	2.0	1.5675621902055423	1.048	n/a	stim	poldrack-single-stim	s358	False	1
379.225	0.341	379.566	-3.6330944890796593	end_round	0.341	columbia_card_task_fmri	15.0	0.7777777777777778	71.0	-70.0	0.2222222222222222	12.0	4.0	2.0	2.905401082132684	0.341	3.0	stim	poldrack-single-stim	s358	False	1
380.322	1.5	379.571	n/a	-1.0	2.318	columbia_card_task_fmri	n/a	n/a	-1.0	n/a	n/a	n/a	n/a	n/a	n/a	n/a	n/a	ITI	poldrack-single-stim	s358	False	0
381.892	1.405	383.297	-0.9442056001907696	draw_card	1.405	columbia_card_task_fmri	16.0	0.8	89.0	-70.0	0.2	15.0	1.0	3.0	1.9675510021019704	1.405	n/a	stim	poldrack-single-stim	s358	False	1
383.3	0.399	383.699	-2.172777028762199	draw_card	0.399	columbia_card_task_fmri	16.0	0.7857142857142857	89.0	-70.0	0.2142857142857142	15.0	2.0	3.0	2.855554756188262	0.399	n/a	stim	poldrack-single-stim	s358	False	1
383.702	0.474	384.176	-3.5903594463446167	draw_card	0.474	columbia_card_task_fmri	16.0	0.7692307692307692	89.0	-70.0	0.2307692307692307	15.0	3.0	3.0	3.8014566725974746	0.474	n/a	stim	poldrack-single-stim	s358	False	1
384.179	0.754	384.933	-5.24420560019077	end_round	0.754	columbia_card_task_fmri	16.0	0.75	71.0	-70.0	0.25	15.0	4.0	3.0	4.806570861597137	0.754	3.0	stim	poldrack-single-stim	s358	False	1
385.689	1.5	384.938	n/a	-1.0	2.25	columbia_card_task_fmri	n/a	n/a	-1.0	n/a	n/a	n/a	n/a	n/a	n/a	n/a	n/a	ITI	poldrack-single-stim	s358	False	0
387.193	1.48	388.673	-0.5567056001907702	draw_card	1.48	columbia_card_task_fmri	14.0	0.8125	89.0	-65.0	0.1875	16.0	1.0	3.0	-1.5976614212828792	1.48	1.0	stim	poldrack-single-stim	s358	False	0
389.428	1.5	388.677	n/a	-1.0	2.454	columbia_card_task_fmri	n/a	n/a	-1.0	n/a	n/a	n/a	n/a	n/a	n/a	n/a	n/a	ITI	poldrack-single-stim	s358	False	0
391.135	1.103	392.238	-0.8067056001907702	draw_card	1.103	columbia_card_task_fmri	16.0	0.8125	89.0	-75.0	0.1875	16.0	1.0	3.0	3.0859471726173027	1.103	n/a	stim	poldrack-single-stim	s358	False	1
392.243	0.422	392.665	-1.9442056001907693	draw_card	0.422	columbia_card_task_fmri	16.0	0.8	89.0	-75.0	0.2	16.0	2.0	3.0	3.967498749827435	0.422	n/a	stim	poldrack-single-stim	s358	False	1
392.668	0.504	393.172	-3.244205600190768	draw_card	0.504	columbia_card_task_fmri	16.0	0.7857142857142857	89.0	-75.0	0.2142857142857142	16.0	3.0	3.0	4.907133335370254	0.504	n/a	stim	poldrack-single-stim	s358	False	1
393.177	0.672	393.849	-4.7442056001907735	end_round	0.672	columbia_card_task_fmri	16.0	0.7692307692307692	71.0	-75.0	0.2307692307692307	16.0	4.0	3.0	5.90803228601348	0.672	3.0	stim	poldrack-single-stim	s358	False	1
394.604	1.5	393.853	n/a	-1.0	2.318	columbia_card_task_fmri	n/a	n/a	-1.0	n/a	n/a	n/a	n/a	n/a	n/a	n/a	n/a	ITI	poldrack-single-stim	s358	False	0
396.176	1.737	397.913	3.455794399809231	draw_card	1.737	columbia_card_task_fmri	16.0	0.8666666666666667	89.0	-80.0	0.1333333333333333	15.0	1.0	2.0	0.2013273605366734	1.737	n/a	stim	poldrack-single-stim	s358	False	1
397.917	0.515	398.432	2.5415086855235183	draw_card	0.515	columbia_card_task_fmri	16.0	0.8571428571428572	89.0	-80.0	0.1428571428571428	15.0	2.0	2.0	1.1605760342402576	0.515	n/a	stim	poldrack-single-stim	s358	False	1
398.435	0.857	399.292	1.4865636305784595	draw_card	0.857	columbia_card_task_fmri	16.0	0.8461538461538461	89.0	-80.0	0.1538461538461538	15.0	3.0	2.0	2.2044608775715915	0.857	n/a	stim	poldrack-single-stim	s358	False	1
399.296	1.202	400.498	0.2557943998092316	draw_card	1.202	columbia_card_task_fmri	16.0	0.8333333333333334	89.0	-80.0	0.1666666666666666	15.0	4.0	2.0	3.3446020377319954	1.202	n/a	stim	poldrack-single-stim	s358	False	1
400.502	0.579	401.081	-1.198751054736227	end_round	0.579	columbia_card_task_fmri	16.0	0.8181818181818181	71.0	-80.0	0.1818181818181818	15.0	5.0	2.0	4.594165898798849	0.579	4.0	stim	poldrack-single-stim	s358	False	1
401.836	1.5	401.085	n/a	-1.0	2.318	columbia_card_task_fmri	n/a	n/a	-1.0	n/a	n/a	n/a	n/a	n/a	n/a	n/a	n/a	ITI	poldrack-single-stim	s358	False	0
403.408	1.163	404.571	4.322461066475898	draw_card	1.163	columbia_card_task_fmri	17.0	0.8666666666666667	89.0	-80.0	0.1333333333333333	15.0	1.0	2.0	0.541251660171234	1.163	n/a	stim	poldrack-single-stim	s358	False	1
404.574	0.761	405.335	3.398651542666376	draw_card	0.761	columbia_card_task_fmri	17.0	0.8571428571428572	89.0	-80.0	0.1428571428571428	15.0	2.0	2.0	1.5104931008350064	0.761	n/a	stim	poldrack-single-stim	s358	False	1
405.338	0.382	405.72	2.3327174767323067	draw_card	0.382	columbia_card_task_fmri	17.0	0.8461538461538461	89.0	-80.0	0.1538461538461538	15.0	3.0	2.0	2.5652523529024336	0.382	n/a	stim	poldrack-single-stim	s358	False	1
405.724	1.055	406.779	1.0891277331425655	draw_card	1.055	columbia_card_task_fmri	17.0	0.8333333333333334	89.0	-80.0	0.1666666666666666	15.0	4.0	2.0	3.717270607299661	1.055	4.0	stim	poldrack-single-stim	s358	False	0
407.534	1.5	406.783	n/a	-1.0	2.59	columbia_card_task_fmri	n/a	n/a	-1.0	n/a	n/a	n/a	n/a	n/a	n/a	n/a	n/a	ITI	poldrack-single-stim	s358	False	0
409.377	2.591	411.968	0.2557943998092298	draw_card	2.591	columbia_card_task_fmri	1.0	0.9375	89.0	-15.0	0.0625	16.0	1.0	1.0	-28.55197878213412	2.591	n/a	stim	poldrack-single-stim	s358	False	1
411.971	0.324	412.295	0.1891277331425632	draw_card	0.324	columbia_card_task_fmri	1.0	0.9333333333333332	89.0	-15.0	0.0666666666666666	16.0	2.0	1.0	-28.43411011850657	0.324	2.0	stim	poldrack-single-stim	s358	False	0
413.051	1.5	412.3	n/a	-1.0	2.25	columbia_card_task_fmri	n/a	n/a	-1.0	n/a	n/a	n/a	n/a	n/a	n/a	n/a	n/a	ITI	poldrack-single-stim	s358	False	0
414.555	2.288	416.843	3.38079439980923	draw_card	2.288	columbia_card_task_fmri	10.0	0.9375	89.0	-100.0	0.0625	16.0	1.0	1.0	-5.80541087092303	2.288	n/a	stim	poldrack-single-stim	s358	False	1
416.848	2.1	418.948	2.922461066475897	draw_card	2.1	columbia_card_task_fmri	10.0	0.9333333333333332	89.0	-100.0	0.0666666666666666	16.0	2.0	1.0	-4.993386900052808	2.1	n/a	stim	poldrack-single-stim	s358	False	1
418.952	0.377	419.329	2.398651542666374	end_round	0.377	columbia_card_task_fmri	10.0	0.9285714285714286	71.0	-100.0	0.0714285714285714	16.0	3.0	1.0	-4.102913763075311	0.377	2.0	stim	poldrack-single-stim	s358	False	1
420.084	1.5	419.333	n/a	-1.0	2.25	columbia_card_task_fmri	n/a	n/a	-1.0	n/a	n/a	n/a	n/a	n/a	n/a	n/a	n/a	ITI	poldrack-single-stim	s358	False	0
421.589	1.561	423.15	4.00579439980923	draw_card	1.561	columbia_card_task_fmri	15.0	0.875	89.0	-75.0	0.125	16.0	1.0	2.0	-2.6675986505691007	1.561	n/a	stim	poldrack-single-stim	s358	False	1
423.155	0.605	423.76	3.25579439980923	draw_card	0.605	columbia_card_task_fmri	15.0	0.8666666666666667	89.0	-75.0	0.1333333333333333	16.0	2.0	2.0	-1.8382136146965389	0.605	2.0	stim	poldrack-single-stim	s358	False	0
424.515	1.5	423.764	n/a	-1.0	2.522	columbia_card_task_fmri	n/a	n/a	-1.0	n/a	n/a	n/a	n/a	n/a	n/a	n/a	n/a	ITI	poldrack-single-stim	s358	False	0
426.291	1.438	427.729	4.25579439980923	draw_card	1.438	columbia_card_task_fmri	16.0	0.875	89.0	-80.0	0.125	16.0	1.0	2.0	-0.6833538595552042	1.438	n/a	stim	poldrack-single-stim	s358	False	1
427.734	0.503	428.237	3.455794399809231	draw_card	0.503	columbia_card_task_fmri	16.0	0.8666666666666667	89.0	-80.0	0.1333333333333333	16.0	2.0	2.0	0.2013273605366734	0.503	n/a	stim	poldrack-single-stim	s358	False	1
428.241	0.966	429.207	2.5415086855235183	draw_card	0.966	columbia_card_task_fmri	16.0	0.8571428571428572	89.0	-80.0	0.1428571428571428	16.0	3.0	2.0	1.1605760342402576	0.966	n/a	stim	poldrack-single-stim	s358	False	1
429.212	0.345	429.557	1.4865636305784595	end_round	0.345	columbia_card_task_fmri	16.0	0.8461538461538461	71.0	-80.0	0.1538461538461538	16.0	4.0	2.0	2.2044608775715915	0.345	3.0	stim	poldrack-single-stim	s358	False	1
430.313	1.5	429.562	n/a	-1.0	2.454	columbia_card_task_fmri	n/a	n/a	-1.0	n/a	n/a	n/a	n/a	n/a	n/a	n/a	n/a	ITI	poldrack-single-stim	s358	False	0
432.022	2.707	434.729	1.4432943998092298	draw_card	2.707	columbia_card_task_fmri	4.0	0.6875	89.0	-5.0	0.3125	16.0	1.0	5.0	-28.253953336567427	2.707	1.0	stim	poldrack-single-stim	s358	False	0
435.486	1.5	434.735	n/a	-1.0	2.25	columbia_card_task_fmri	n/a	n/a	-1.0	n/a	n/a	n/a	n/a	n/a	n/a	n/a	n/a	ITI	poldrack-single-stim	s358	False	0
436.991	1.464	438.455	-1.4108722668574345	draw_card	1.464	columbia_card_task_fmri	14.0	0.8333333333333334	89.0	-80.0	0.1666666666666666	6.0	1.0	1.0	2.5992655002761538	1.464	n/a	stim	poldrack-single-stim	s358	False	1
438.459	1.445	439.904	-4.544205600190769	draw_card	1.445	columbia_card_task_fmri	14.0	0.8	89.0	-80.0	0.2	6.0	2.0	1.0	5.167470066567475	1.445	n/a	stim	poldrack-single-stim	s358	False	1
439.907	0.339	440.246	-9.24420560019077	end_round	0.339	columbia_card_task_fmri	14.0	0.75	71.0	-80.0	0.25	6.0	3.0	1.0	8.270597711273574	0.339	2.0	stim	poldrack-single-stim	s358	False	1
441.001	1.5	440.25	n/a	-1.0	2.454	columbia_card_task_fmri	n/a	n/a	-1.0	n/a	n/a	n/a	n/a	n/a	n/a	n/a	n/a	ITI	poldrack-single-stim	s358	False	0
442.71	1.653	444.363	0.2557943998092298	draw_card	1.653	columbia_card_task_fmri	15.0	0.8333333333333334	89.0	-75.0	0.1666666666666666	6.0	1.0	1.0	1.108595019261159	1.653	n/a	stim	poldrack-single-stim	s358	False	1
444.367	0.718	445.085	-2.74420560019077	draw_card	0.718	columbia_card_task_fmri	15.0	0.8	89.0	-75.0	0.2	6.0	2.0	1.0	3.5675087358354745	0.718	n/a	stim	poldrack-single-stim	s358	False	1
445.089	0.386	445.475	-7.24420560019077	end_round	0.386	columbia_card_task_fmri	15.0	0.75	71.0	-75.0	0.25	6.0	3.0	1.0	6.538582625034415	0.386	2.0	stim	poldrack-single-stim	s358	False	1
446.23	1.5	445.479	n/a	-1.0	2.454	columbia_card_task_fmri	n/a	n/a	-1.0	n/a	n/a	n/a	n/a	n/a	n/a	n/a	n/a	ITI	poldrack-single-stim	s358	False	0
447.939	2.553	450.492	1.9224610664758977	draw_card	2.553	columbia_card_task_fmri	16.0	0.8333333333333334	89.0	-70.0	0.1666666666666666	6.0	1.0	1.0	-0.382071601094502	2.553	n/a	stim	poldrack-single-stim	s358	False	1
450.496	0.376	450.872	-0.9442056001907696	draw_card	0.376	columbia_card_task_fmri	16.0	0.8	89.0	-70.0	0.2	6.0	2.0	1.0	1.9675510021019704	0.376	n/a	stim	poldrack-single-stim	s358	False	1
450.876	0.356	451.232	-5.24420560019077	end_round	0.356	columbia_card_task_fmri	16.0	0.75	71.0	-70.0	0.25	6.0	3.0	1.0	4.806570861597137	0.356	2.0	stim	poldrack-single-stim	s358	False	1
451.987	1.5	451.236	n/a	-1.0	2.522	columbia_card_task_fmri	n/a	n/a	-1.0	n/a	n/a	n/a	n/a	n/a	n/a	n/a	n/a	ITI	poldrack-single-stim	s358	False	0
453.763	2.427	456.19	2.50579439980923	draw_card	2.427	columbia_card_task_fmri	23.0	0.75	89.0	-60.0	0.25	8.0	1.0	2.0	3.507564508587805	2.427	1.0	stim	poldrack-single-stim	s358	False	0
456.945	1.5	456.194	n/a	-1.0	2.454	columbia_card_task_fmri	n/a	n/a	-1.0	n/a	n/a	n/a	n/a	n/a	n/a	n/a	n/a	ITI	poldrack-single-stim	s358	False	0
458.653	1.999	460.652	3.00579439980923	draw_card	1.999	columbia_card_task_fmri	27.0	0.75	89.0	-70.0	0.25	8.0	1.0	2.0	9.56961095926814	1.999	n/a	stim	poldrack-single-stim	s358	False	1
460.656	2.269	462.925	-0.4584913144764854	end_round	2.269	columbia_card_task_fmri	27.0	0.7142857142857143	71.0	-70.0	0.2857142857142857	8.0	2.0	2.0	11.387479854563871	2.269	1.0	stim	poldrack-single-stim	s358	False	1
463.681	1.5	462.93	n/a	-1.0	2.658	columbia_card_task_fmri	n/a	n/a	-1.0	n/a	n/a	n/a	n/a	n/a	n/a	n/a	n/a	ITI	poldrack-single-stim	s358	False	0
465.594	1.721	467.315	-1.7442056001907684	draw_card	1.721	columbia_card_task_fmri	16.0	0.7777777777777778	89.0	-65.0	0.2222222222222222	9.0	1.0	2.0	1.2424879596149123	1.721	n/a	stim	poldrack-single-stim	s358	False	1
467.319	1.634	468.953	-3.99420560019077	draw_card	1.634	columbia_card_task_fmri	16.0	0.75	89.0	-65.0	0.25	9.0	2.0	2.0	2.641561579891693	1.634	n/a	stim	poldrack-single-stim	s358	False	1
468.957	0.414	469.371	-6.887062743047911	end_round	0.414	columbia_card_task_fmri	16.0	0.7142857142857143	71.0	-65.0	0.2857142857142857	9.0	3.0	2.0	4.159564100039141	0.414	2.0	stim	poldrack-single-stim	s358	False	1
470.126	1.5	469.375	n/a	-1.0	2.386	columbia_card_task_fmri	n/a	n/a	-1.0	n/a	n/a	n/a	n/a	n/a	n/a	n/a	n/a	ITI	poldrack-single-stim	s358	False	0
471.766	2.358	474.124	3.455794399809231	draw_card	2.358	columbia_card_task_fmri	13.0	0.9	89.0	-85.0	0.1	10.0	1.0	1.0	-3.0322872662343165	2.358	n/a	stim	poldrack-single-stim	s358	False	1
474.128	1.331	475.459	2.3669055109203407	end_round	1.331	columbia_card_task_fmri	13.0	0.8888888888888888	71.0	-85.0	0.1111111111111111	10.0	2.0	1.0	-1.6339090979980284	1.331	1.0	stim	poldrack-single-stim	s358	False	1
476.214	1.5	475.463	n/a	-1.0	2.522	columbia_card_task_fmri	n/a	n/a	-1.0	n/a	n/a	n/a	n/a	n/a	n/a	n/a	n/a	ITI	poldrack-single-stim	s358	False	0
477.991	1.77	479.761	-1.5442056001907691	draw_card	1.77	columbia_card_task_fmri	14.0	0.8	89.0	-65.0	0.2	10.0	1.0	2.0	-0.8323647333448214	1.77	n/a	stim	poldrack-single-stim	s358	False	1
479.764	0.469	480.233	-3.299761155746324	draw_card	0.469	columbia_card_task_fmri	14.0	0.7777777777777778	89.0	-65.0	0.2222222222222222	10.0	2.0	2.0	0.4110331343320297	0.469	n/a	stim	poldrack-single-stim	s358	False	1
480.237	0.393	480.63	-5.49420560019077	end_round	0.393	columbia_card_task_fmri	14.0	0.75	71.0	-65.0	0.25	10.0	3.0	2.0	1.7755597891281738	0.393	2.0	stim	poldrack-single-stim	s358	False	1
481.386	1.5	480.635	n/a	-1.0	2.59	columbia_card_task_fmri	n/a	n/a	-1.0	n/a	n/a	n/a	n/a	n/a	n/a	n/a	n/a	ITI	poldrack-single-stim	s358	False	0
483.229	1.756	484.985	-0.1442056001907687	draw_card	1.756	columbia_card_task_fmri	17.0	0.8	89.0	-70.0	0.2	10.0	1.0	2.0	2.36754007118563	1.756	1.0	stim	poldrack-single-stim	s358	False	0
485.741	1.5	484.99	n/a	-1.0	2.386	columbia_card_task_fmri	n/a	n/a	-1.0	n/a	n/a	n/a	n/a	n/a	n/a	n/a	n/a	ITI	poldrack-single-stim	s358	False	0
487.381	1.042	488.423	-1.4108722668574365	draw_card	1.042	columbia_card_task_fmri	13.0	0.8333333333333334	89.0	-75.0	0.1666666666666666	12.0	1.0	2.0	0.3632611935995342	1.042	n/a	stim	poldrack-single-stim	s358	False	1
488.427	1.593	490.02	-2.744205600190772	end_round	1.593	columbia_card_task_fmri	13.0	0.8181818181818181	71.0	-75.0	0.1818181818181818	12.0	2.0	2.0	1.5086893561573689	1.593	1.0	stim	poldrack-single-stim	s358	False	1
490.775	1.5	490.024	n/a	-1.0	2.59	columbia_card_task_fmri	n/a	n/a	-1.0	n/a	n/a	n/a	n/a	n/a	n/a	n/a	n/a	ITI	poldrack-single-stim	s358	False	0
492.619	1.403	494.022	0.2557943998092316	draw_card	1.403	columbia_card_task_fmri	14.0	0.8333333333333334	89.0	-70.0	0.1666666666666666	12.0	1.0	2.0	-1.127403291185157	1.403	n/a	stim	poldrack-single-stim	s358	False	1
494.026	0.919	494.945	-1.0169328729180451	draw_card	0.919	columbia_card_task_fmri	14.0	0.8181818181818181	89.0	-70.0	0.1818181818181818	12.0	2.0	2.0	-0.0340431782221983	0.919	n/a	stim	poldrack-single-stim	s358	False	1
494.949	0.347	495.296	-2.544205600190769	end_round	0.347	columbia_card_task_fmri	14.0	0.8	71.0	-70.0	0.2	12.0	3.0	2.0	1.1675736446810916	0.347	2.0	stim	poldrack-single-stim	s358	False	1
496.052	1.5	495.301	n/a	-1.0	2.318	columbia_card_task_fmri	n/a	n/a	-1.0	n/a	n/a	n/a	n/a	n/a	n/a	n/a	n/a	ITI	poldrack-single-stim	s358	False	0
497.624	2.946	500.57	0.2557943998092316	draw_card	2.946	columbia_card_task_fmri	16.0	0.8333333333333334	89.0	-80.0	0.1666666666666666	12.0	1.0	2.0	3.3446020377319954	2.946	n/a	stim	poldrack-single-stim	s358	False	1
500.573	1.172	501.745	-1.198751054736227	draw_card	1.172	columbia_card_task_fmri	16.0	0.8181818181818181	89.0	-80.0	0.1818181818181818	12.0	2.0	2.0	4.594165898798849	1.172	2.0	stim	poldrack-single-stim	s358	False	0
502.502	1.5	501.751	n/a	-1.0	2.25	columbia_card_task_fmri	n/a	n/a	-1.0	n/a	n/a	n/a	n/a	n/a	n/a	n/a	n/a	ITI	poldrack-single-stim	s358	False	0
504.006	1.522	505.528	0.0557943998092305	draw_card	1.522	columbia_card_task_fmri	16.0	0.8	89.0	-65.0	0.2	15.0	1.0	3.0	-0.0323902950100674	1.522	n/a	stim	poldrack-single-stim	s358	False	1
505.531	0.371	505.902	-1.101348457333626	draw_card	0.371	columbia_card_task_fmri	16.0	0.7857142857142857	89.0	-65.0	0.2142857142857142	15.0	2.0	3.0	0.8039824653152507	0.371	n/a	stim	poldrack-single-stim	s358	False	1
505.907	0.373	506.28	-2.4365132924984634	draw_card	0.373	columbia_card_task_fmri	16.0	0.7692307692307692	89.0	-65.0	0.2307692307692307	15.0	3.0	3.0	1.6948871833524208	0.373	n/a	stim	poldrack-single-stim	s358	False	1
506.283	0.621	506.904	-3.99420560019077	draw_card	0.621	columbia_card_task_fmri	16.0	0.75	89.0	-65.0	0.25	15.0	4.0	3.0	2.641561579891693	0.621	4.0	stim	poldrack-single-stim	s358	False	0
507.661	1.5	506.91	n/a	-1.0	2.454	columbia_card_task_fmri	n/a	n/a	-1.0	n/a	n/a	n/a	n/a	n/a	n/a	n/a	n/a	ITI	poldrack-single-stim	s358	False	0
509.369	1.157	510.526	-1.6192056001907702	draw_card	1.157	columbia_card_task_fmri	15.0	0.8125	89.0	-75.0	0.1875	16.0	1.0	3.0	2.695645031560744	1.157	n/a	stim	poldrack-single-stim	s358	False	1
510.531	0.755	511.286	-2.74420560019077	draw_card	0.755	columbia_card_task_fmri	15.0	0.8	89.0	-75.0	0.2	16.0	2.0	3.0	3.5675087358354745	0.755	n/a	stim	poldrack-single-stim	s358	False	1
511.29	1.614	512.904	-4.029919885905055	draw_card	1.614	columbia_card_task_fmri	15.0	0.7857142857142857	89.0	-75.0	0.2142857142857142	16.0	3.0	3.0	4.4968171667730985	1.614	n/a	stim	poldrack-single-stim	s358	False	1
512.909	2.078	514.987	-5.513436369421544	end_round	2.078	columbia_card_task_fmri	15.0	0.7692307692307692	71.0	-75.0	0.2307692307692307	16.0	4.0	3.0	5.486716722387655	2.078	3.0	stim	poldrack-single-stim	s358	False	1
515.743	1.5	514.992	n/a	-1.0	3.27	columbia_card_task_fmri	n/a	n/a	-1.0	n/a	n/a	n/a	n/a	n/a	n/a	n/a	n/a	ITI	poldrack-single-stim	s358	False	0
518.267	2.554	520.821	-1.0567056001907702	draw_card	2.554	columbia_card_task_fmri	14.0	0.6875	89.0	-35.0	0.3125	16.0	1.0	5.0	-9.719851754214965	2.554	1.0	stim	poldrack-single-stim	s358	False	0
521.577	1.5	520.826	n/a	-1.0	2.25	columbia_card_task_fmri	n/a	n/a	-1.0	n/a	n/a	n/a	n/a	n/a	n/a	n/a	n/a	ITI	poldrack-single-stim	s358	False	0
523.081	1.801	524.882	4.122461066475897	draw_card	1.801	columbia_card_task_fmri	16.0	0.8666666666666667	89.0	-75.0	0.1333333333333333	15.0	1.0	2.0	-1.4982907307915916	1.801	n/a	stim	poldrack-single-stim	s358	False	1
524.886	0.325	525.211	3.255794399809232	draw_card	0.325	columbia_card_task_fmri	16.0	0.8571428571428572	89.0	-75.0	0.1428571428571428	15.0	2.0	2.0	-0.5890059891566821	0.325	n/a	stim	poldrack-single-stim	s358	False	1
525.215	0.335	525.55	2.25579439980923	end_round	0.335	columbia_card_task_fmri	16.0	0.8461538461538461	71.0	-75.0	0.1538461538461538	15.0	3.0	2.0	0.4005067107647093	0.335	2.0	stim	poldrack-single-stim	s358	False	1
526.306	1.5	525.555	n/a	-1.0	2.25	columbia_card_task_fmri	n/a	n/a	-1.0	n/a	n/a	n/a	n/a	n/a	n/a	n/a	n/a	ITI	poldrack-single-stim	s358	False	0
527.81	3.469	531.279	4.789127733142563	draw_card	3.469	columbia_card_task_fmri	16.0	0.8666666666666667	89.0	-70.0	0.1333333333333333	15.0	1.0	2.0	-3.197902417832097	3.469	n/a	stim	poldrack-single-stim	s358	False	1
531.282	0.835	532.117	3.970080114094945	draw_card	0.835	columbia_card_task_fmri	16.0	0.8571428571428572	89.0	-70.0	0.1428571428571428	15.0	2.0	2.0	-2.3385817911097746	0.835	n/a	stim	poldrack-single-stim	s358	False	1
532.121	1.308	533.429	3.0250251690399983	draw_card	1.308	columbia_card_task_fmri	16.0	0.8461538461538461	89.0	-70.0	0.1538461538461538	15.0	3.0	2.0	-1.4034414220701912	1.308	n/a	stim	poldrack-single-stim	s358	False	1
533.433	0.284	533.717	1.9224610664758977	end_round	0.284	columbia_card_task_fmri	16.0	0.8333333333333334	71.0	-70.0	0.1666666666666666	15.0	4.0	2.0	-0.382071601094502	0.284	3.0	stim	poldrack-single-stim	s358	False	1
534.473	1.5	533.722	n/a	-1.0	2.318	columbia_card_task_fmri	n/a	n/a	-1.0	n/a	n/a	n/a	n/a	n/a	n/a	n/a	n/a	ITI	poldrack-single-stim	s358	False	0
536.046	2.392	538.438	2.13079439980923	end_round	2.392	columbia_card_task_fmri	8.0	0.9375	71.0	-90.0	0.0625	16.0	1.0	1.0	-8.709997943456283	2.392	0.0	stim	poldrack-single-stim	s358	False	1
539.194	1.5	538.443	n/a	-1.0	2.726	columbia_card_task_fmri	n/a	n/a	-1.0	n/a	n/a	n/a	n/a	n/a	n/a	n/a	n/a	ITI	poldrack-single-stim	s358	False	0
541.175	2.29	543.465	3.69329439980923	draw_card	2.29	columbia_card_task_fmri	10.0	0.9375	89.0	-95.0	0.0625	16.0	1.0	1.0	-7.015659662967344	2.29	n/a	stim	poldrack-single-stim	s358	False	1
543.468	0.344	543.812	3.255794399809231	draw_card	0.344	columbia_card_task_fmri	10.0	0.9333333333333332	89.0	-95.0	0.0666666666666666	16.0	2.0	1.0	-6.240549256525096	0.344	n/a	stim	poldrack-single-stim	s358	False	1
543.817	0.385	544.202	2.755794399809231	draw_card	0.385	columbia_card_task_fmri	10.0	0.9285714285714286	89.0	-95.0	0.0714285714285714	16.0	3.0	1.0	-5.39055565908285	0.385	n/a	stim	poldrack-single-stim	s358	False	1
544.206	0.407	544.613	2.1788713228861534	draw_card	0.407	columbia_card_task_fmri	10.0	0.9230769230769232	89.0	-95.0	0.0769230769230769	16.0	4.0	1.0	-4.452948489914814	0.407	n/a	stim	poldrack-single-stim	s358	False	1
544.617	0.673	545.29	1.5057943998092298	draw_card	0.673	columbia_card_task_fmri	10.0	0.9166666666666666	89.0	-95.0	0.0833333333333333	16.0	5.0	1.0	-3.41180579854694	0.673	n/a	stim	poldrack-single-stim	s358	False	1
545.295	0.855	546.15	0.710339854354683	end_round	0.855	columbia_card_task_fmri	10.0	0.9090909090909092	71.0	-95.0	0.0909090909090909	16.0	6.0	1.0	-2.2469385519294747	0.855	5.0	stim	poldrack-single-stim	s358	False	1
546.906	1.5	546.155	n/a	-1.0	2.386	columbia_card_task_fmri	n/a	n/a	-1.0	n/a	n/a	n/a	n/a	n/a	n/a	n/a	n/a	ITI	poldrack-single-stim	s358	False	0
548.547	1.415	549.962	4.63079439980923	draw_card	1.415	columbia_card_task_fmri	15.0	0.875	89.0	-70.0	0.125	16.0	1.0	2.0	-4.321128568856452	1.415	n/a	stim	poldrack-single-stim	s358	False	1
549.966	0.333	550.299	3.922461066475896	draw_card	0.333	columbia_card_task_fmri	15.0	0.8666666666666667	89.0	-70.0	0.1333333333333333	16.0	2.0	2.0	-3.537823887278272	0.333	n/a	stim	poldrack-single-stim	s358	False	1
550.303	0.394	550.697	3.112937256952088	draw_card	0.394	columbia_card_task_fmri	15.0	0.8571428571428572	89.0	-70.0	0.1428571428571428	16.0	3.0	2.0	-2.688496108318564	0.394	n/a	stim	poldrack-single-stim	s358	False	1
550.701	0.633	551.334	2.178871322886152	draw_card	0.633	columbia_card_task_fmri	15.0	0.8461538461538461	89.0	-70.0	0.1538461538461538	16.0	4.0	2.0	-1.7642302308627045	0.633	4.0	stim	poldrack-single-stim	s358	False	0
552.091	1.5	551.34	n/a	-1.0	2.318	columbia_card_task_fmri	n/a	n/a	-1.0	n/a	n/a	n/a	n/a	n/a	n/a	n/a	n/a	ITI	poldrack-single-stim	s358	False	0
553.663	2.318	555.981	3.63079439980923	draw_card	2.318	columbia_card_task_fmri	16.0	0.875	89.0	-85.0	0.125	16.0	1.0	2.0	0.970189700447854	2.318	n/a	stim	poldrack-single-stim	s358	False	1
555.985	0.4	556.385	2.7891277331425632	draw_card	0.4	columbia_card_task_fmri	16.0	0.8666666666666667	89.0	-85.0	0.1333333333333333	16.0	2.0	2.0	1.9009509050780693	0.4	n/a	stim	poldrack-single-stim	s358	False	1
556.391	0.616	557.007	1.8272229712378028	draw_card	0.616	columbia_card_task_fmri	16.0	0.8571428571428572	89.0	-85.0	0.1428571428571428	16.0	3.0	2.0	2.9101633551566906	0.616	n/a	stim	poldrack-single-stim	s358	False	1
557.01	0.383	557.393	0.7173328613476897	end_round	0.383	columbia_card_task_fmri	16.0	0.8461538461538461	71.0	-85.0	0.1538461538461538	16.0	4.0	2.0	4.008420182263869	0.383	3.0	stim	poldrack-single-stim	s358	False	1
558.149	1.5	557.398	n/a	-1.0	2.25	columbia_card_task_fmri	n/a	n/a	-1.0	n/a	n/a	n/a	n/a	n/a	n/a	n/a	n/a	ITI	poldrack-single-stim	s358	False	0
