duration	onset	block_duration	movement_onset	planning	condition	exp_stage	experiment_exp_id	key_press	problem_id	response_time	trial_id	trial_type	worker_id	junk
4.737	3.008	4.737	7.745	1	UA_with_intermediate	practice	ward_and_allport	71	0.0	4.737	to_hand	poldrack-single-stim	s358	False
0.1	7.746	1.603	9.349	0	UA_with_intermediate	practice	ward_and_allport	82	0.0	1.603	to_board	poldrack-single-stim	s358	False
0.1	9.351	0.548	9.899	0	UA_with_intermediate	practice	ward_and_allport	71	0.0	0.548	to_hand	poldrack-single-stim	s358	False
0.1	9.9	0.773	10.673	0	UA_with_intermediate	practice	ward_and_allport	89	0.0	0.773	to_board	poldrack-single-stim	s358	False
0.1	10.673	1.055	11.728	0	UA_with_intermediate	practice	ward_and_allport	82	0.0	1.055	to_hand	poldrack-single-stim	s358	False
0.1	11.729	0.49	12.219	0	UA_with_intermediate	practice	ward_and_allport	89	0.0	0.49	to_board	poldrack-single-stim	s358	False
1.0	12.222	2.5	12.221	0	UA_with_intermediate	practice	ward_and_allport	-1	0.0	n/a	feedback	poldrack-single-stim	s358	False
8.03	14.724	8.03	22.754	1	UA_with_intermediate	practice	ward_and_allport	89	1.0	8.03	to_hand	poldrack-single-stim	s358	False
0.1	22.755	0.547	23.302	0	UA_with_intermediate	practice	ward_and_allport	82	1.0	0.547	to_board	poldrack-single-stim	s358	False
0.1	23.305	1.01	24.315	0	UA_with_intermediate	practice	ward_and_allport	71	1.0	1.01	to_hand	poldrack-single-stim	s358	False
0.1	24.315	0.349	24.664	0	UA_with_intermediate	practice	ward_and_allport	89	1.0	0.349	to_board	poldrack-single-stim	s358	False
0.1	24.666	0.536	25.202	0	UA_with_intermediate	practice	ward_and_allport	82	1.0	0.536	to_hand	poldrack-single-stim	s358	False
0.1	25.203	0.313	25.516	0	UA_with_intermediate	practice	ward_and_allport	89	1.0	0.313	to_board	poldrack-single-stim	s358	False
1.0	25.519	2.1	25.518	0	UA_with_intermediate	practice	ward_and_allport	-1	1.0	n/a	feedback	poldrack-single-stim	s358	False
4.796	27.62	4.796	32.416	1	UA_without_intermediate	practice	ward_and_allport	82	2.0	4.796	to_hand	poldrack-single-stim	s358	False
0.1	32.416	0.763	33.179	0	UA_without_intermediate	practice	ward_and_allport	89	2.0	0.763	to_board	poldrack-single-stim	s358	False
0.1	33.18	0.916	34.096	0	UA_without_intermediate	practice	ward_and_allport	71	2.0	0.916	to_hand	poldrack-single-stim	s358	False
0.1	34.097	0.49	34.587	0	UA_without_intermediate	practice	ward_and_allport	89	2.0	0.49	to_board	poldrack-single-stim	s358	False
0.1	34.59	0.783	35.373	0	UA_without_intermediate	practice	ward_and_allport	71	2.0	0.783	to_hand	poldrack-single-stim	s358	False
0.1	35.374	0.25	35.624	0	UA_without_intermediate	practice	ward_and_allport	89	2.0	0.25	to_board	poldrack-single-stim	s358	False
1.0	35.628	2.2	35.627	0	UA_without_intermediate	practice	ward_and_allport	-1	2.0	n/a	feedback	poldrack-single-stim	s358	False
3.907	37.83	3.907	41.737	1	UA_without_intermediate	practice	ward_and_allport	71	3.0	3.907	to_hand	poldrack-single-stim	s358	False
0.1	41.739	0.319	42.058	0	UA_without_intermediate	practice	ward_and_allport	89	3.0	0.319	to_board	poldrack-single-stim	s358	False
0.1	42.059	0.442	42.501	0	UA_without_intermediate	practice	ward_and_allport	82	3.0	0.442	to_hand	poldrack-single-stim	s358	False
0.1	42.502	0.269	42.771	0	UA_without_intermediate	practice	ward_and_allport	89	3.0	0.269	to_board	poldrack-single-stim	s358	False
0.1	42.774	0.566	43.34	0	UA_without_intermediate	practice	ward_and_allport	71	3.0	0.566	to_hand	poldrack-single-stim	s358	False
0.1	43.34	0.216	43.556	0	UA_without_intermediate	practice	ward_and_allport	89	3.0	0.216	to_board	poldrack-single-stim	s358	False
1.0	43.559	2.0	43.558	0	UA_without_intermediate	practice	ward_and_allport	-1	3.0	n/a	feedback	poldrack-single-stim	s358	False
7.286	47.563	7.286	54.849	1	PA_with_intermediate	test	ward_and_allport	89	0.0	7.286	to_hand	poldrack-single-stim	s358	False
0.1	54.851	0.735	55.586	0	PA_with_intermediate	test	ward_and_allport	71	0.0	0.735	to_board	poldrack-single-stim	s358	False
0.1	55.588	1.014	56.602	0	PA_with_intermediate	test	ward_and_allport	89	0.0	1.014	to_hand	poldrack-single-stim	s358	False
0.1	56.603	0.414	57.017	0	PA_with_intermediate	test	ward_and_allport	82	0.0	0.414	to_board	poldrack-single-stim	s358	False
0.1	57.019	0.766	57.785	0	PA_with_intermediate	test	ward_and_allport	71	0.0	0.766	to_hand	poldrack-single-stim	s358	False
0.1	57.785	0.269	58.054	0	PA_with_intermediate	test	ward_and_allport	89	0.0	0.269	to_board	poldrack-single-stim	s358	False
1.0	58.057	3.768	58.056	0	PA_with_intermediate	test	ward_and_allport	-1	0.0	n/a	feedback	poldrack-single-stim	s358	False
4.072	61.827	4.072	65.899	1	PA_with_intermediate	test	ward_and_allport	82	1.0	4.072	to_hand	poldrack-single-stim	s358	False
0.1	65.9	1.723	67.623	0	PA_with_intermediate	test	ward_and_allport	89	1.0	1.723	to_board	poldrack-single-stim	s358	False
0.1	67.624	1.013	68.637	0	PA_with_intermediate	test	ward_and_allport	82	1.0	1.013	to_hand	poldrack-single-stim	s358	False
0.1	68.638	1.404	70.042	0	PA_with_intermediate	test	ward_and_allport	71	1.0	1.404	to_board	poldrack-single-stim	s358	False
0.1	70.045	0.761	70.806	0	PA_with_intermediate	test	ward_and_allport	89	1.0	0.761	to_hand	poldrack-single-stim	s358	False
0.1	70.806	0.559	71.365	0	PA_with_intermediate	test	ward_and_allport	82	1.0	0.559	to_board	poldrack-single-stim	s358	False
1.0	71.369	2.68	71.368	0	PA_with_intermediate	test	ward_and_allport	-1	1.0	n/a	feedback	poldrack-single-stim	s358	False
3.782	74.051	3.782	77.833	1	PA_without_intermediate	test	ward_and_allport	71	2.0	3.782	to_hand	poldrack-single-stim	s358	False
0.1	77.835	0.855	78.69	0	PA_without_intermediate	test	ward_and_allport	82	2.0	0.855	to_board	poldrack-single-stim	s358	False
0.1	78.693	1.064	79.757	0	PA_without_intermediate	test	ward_and_allport	71	2.0	1.064	to_hand	poldrack-single-stim	s358	False
0.1	79.757	0.311	80.068	0	PA_without_intermediate	test	ward_and_allport	89	2.0	0.311	to_board	poldrack-single-stim	s358	False
0.1	80.071	0.643	80.714	0	PA_without_intermediate	test	ward_and_allport	71	2.0	0.643	to_hand	poldrack-single-stim	s358	False
0.1	80.715	0.446	81.161	0	PA_without_intermediate	test	ward_and_allport	82	2.0	0.446	to_board	poldrack-single-stim	s358	False
1.0	81.164	3.224	81.163	0	PA_without_intermediate	test	ward_and_allport	-1	2.0	n/a	feedback	poldrack-single-stim	s358	False
3.865	84.39	3.865	88.255	1	PA_without_intermediate	test	ward_and_allport	82	3.0	3.865	to_hand	poldrack-single-stim	s358	False
0.1	88.255	0.396	88.651	0	PA_without_intermediate	test	ward_and_allport	71	3.0	0.396	to_board	poldrack-single-stim	s358	False
0.1	88.654	1.431	90.085	0	PA_without_intermediate	test	ward_and_allport	82	3.0	1.431	to_hand	poldrack-single-stim	s358	False
0.1	90.085	0.267	90.352	0	PA_without_intermediate	test	ward_and_allport	71	3.0	0.267	to_board	poldrack-single-stim	s358	False
0.1	90.354	0.353	90.707	0	PA_without_intermediate	test	ward_and_allport	82	3.0	0.353	to_hand	poldrack-single-stim	s358	False
0.1	90.708	0.175	90.883	0	PA_without_intermediate	test	ward_and_allport	89	3.0	0.175	to_board	poldrack-single-stim	s358	False
1.0	90.886	3.36	90.885	0	PA_without_intermediate	test	ward_and_allport	-1	3.0	n/a	feedback	poldrack-single-stim	s358	False
2.296	94.25	2.296	96.546	1	PA_without_intermediate	test	ward_and_allport	82	4.0	2.296	to_hand	poldrack-single-stim	s358	False
0.1	96.546	0.381	96.927	0	PA_without_intermediate	test	ward_and_allport	71	4.0	0.381	to_board	poldrack-single-stim	s358	False
0.1	96.93	0.464	97.394	0	PA_without_intermediate	test	ward_and_allport	82	4.0	0.464	to_hand	poldrack-single-stim	s358	False
0.1	97.394	0.423	97.817	0	PA_without_intermediate	test	ward_and_allport	89	4.0	0.423	to_board	poldrack-single-stim	s358	False
0.1	97.821	0.455	98.276	0	PA_without_intermediate	test	ward_and_allport	82	4.0	0.455	to_hand	poldrack-single-stim	s358	False
0.1	98.277	0.342	98.619	0	PA_without_intermediate	test	ward_and_allport	71	4.0	0.342	to_board	poldrack-single-stim	s358	False
1.0	98.622	2.0	98.621	0	PA_without_intermediate	test	ward_and_allport	-1	4.0	n/a	feedback	poldrack-single-stim	s358	False
2.371	100.626	2.371	102.997	1	PA_without_intermediate	test	ward_and_allport	82	5.0	2.371	to_hand	poldrack-single-stim	s358	False
0.1	102.998	1.296	104.294	0	PA_without_intermediate	test	ward_and_allport	89	5.0	1.296	to_board	poldrack-single-stim	s358	False
0.1	104.296	0.518	104.814	0	PA_without_intermediate	test	ward_and_allport	82	5.0	0.518	to_hand	poldrack-single-stim	s358	False
0.1	104.814	0.308	105.122	0	PA_without_intermediate	test	ward_and_allport	71	5.0	0.308	to_board	poldrack-single-stim	s358	False
0.1	105.126	0.309	105.435	0	PA_without_intermediate	test	ward_and_allport	82	5.0	0.309	to_hand	poldrack-single-stim	s358	False
0.1	105.436	0.261	105.697	0	PA_without_intermediate	test	ward_and_allport	89	5.0	0.261	to_board	poldrack-single-stim	s358	False
1.0	105.701	2.408	105.7	0	PA_without_intermediate	test	ward_and_allport	-1	5.0	n/a	feedback	poldrack-single-stim	s358	False
4.59	108.113	4.59	112.703	1	PA_with_intermediate	test	ward_and_allport	89	6.0	4.59	to_hand	poldrack-single-stim	s358	False
0.1	112.703	0.38	113.083	0	PA_with_intermediate	test	ward_and_allport	82	6.0	0.38	to_board	poldrack-single-stim	s358	False
0.1	113.086	1.494	114.58	0	PA_with_intermediate	test	ward_and_allport	89	6.0	1.494	to_hand	poldrack-single-stim	s358	False
0.1	114.58	0.43	115.01	0	PA_with_intermediate	test	ward_and_allport	71	6.0	0.43	to_board	poldrack-single-stim	s358	False
0.1	115.013	0.477	115.49	0	PA_with_intermediate	test	ward_and_allport	82	6.0	0.477	to_hand	poldrack-single-stim	s358	False
0.1	115.492	0.521	116.013	0	PA_with_intermediate	test	ward_and_allport	71	6.0	0.521	to_board	poldrack-single-stim	s358	False
1.0	116.017	2.136	116.016	0	PA_with_intermediate	test	ward_and_allport	-1	6.0	n/a	feedback	poldrack-single-stim	s358	False
2.585	118.155	2.585	120.74	1	PA_without_intermediate	test	ward_and_allport	89	7.0	2.585	to_hand	poldrack-single-stim	s358	False
0.1	120.742	0.441	121.183	0	PA_without_intermediate	test	ward_and_allport	71	7.0	0.441	to_board	poldrack-single-stim	s358	False
0.1	121.186	0.462	121.648	0	PA_without_intermediate	test	ward_and_allport	89	7.0	0.462	to_hand	poldrack-single-stim	s358	False
0.1	121.648	0.384	122.032	0	PA_without_intermediate	test	ward_and_allport	71	7.0	0.384	to_board	poldrack-single-stim	s358	False
0.1	122.037	0.388	122.425	0	PA_without_intermediate	test	ward_and_allport	89	7.0	0.388	to_hand	poldrack-single-stim	s358	False
0.1	122.425	0.327	122.752	0	PA_without_intermediate	test	ward_and_allport	82	7.0	0.327	to_board	poldrack-single-stim	s358	False
1.0	122.757	5.128	122.756	0	PA_without_intermediate	test	ward_and_allport	-1	7.0	n/a	feedback	poldrack-single-stim	s358	False
2.427	127.889	2.427	130.316	1	PA_without_intermediate	test	ward_and_allport	82	8.0	2.427	to_hand	poldrack-single-stim	s358	False
0.1	130.316	0.349	130.665	0	PA_without_intermediate	test	ward_and_allport	89	8.0	0.349	to_board	poldrack-single-stim	s358	False
0.1	130.668	0.636	131.304	0	PA_without_intermediate	test	ward_and_allport	82	8.0	0.636	to_hand	poldrack-single-stim	s358	False
0.1	131.305	0.31	131.615	0	PA_without_intermediate	test	ward_and_allport	89	8.0	0.31	to_board	poldrack-single-stim	s358	False
0.1	131.619	0.472	132.091	0	PA_without_intermediate	test	ward_and_allport	82	8.0	0.472	to_hand	poldrack-single-stim	s358	False
0.1	132.092	0.228	132.32	0	PA_without_intermediate	test	ward_and_allport	71	8.0	0.228	to_board	poldrack-single-stim	s358	False
1.0	132.325	2.136	132.324	0	PA_without_intermediate	test	ward_and_allport	-1	8.0	n/a	feedback	poldrack-single-stim	s358	False
2.332	134.464	2.332	136.796	1	PA_without_intermediate	test	ward_and_allport	89	9.0	2.332	to_hand	poldrack-single-stim	s358	False
0.1	136.796	0.359	137.155	0	PA_without_intermediate	test	ward_and_allport	82	9.0	0.359	to_board	poldrack-single-stim	s358	False
0.1	137.158	0.996	138.154	0	PA_without_intermediate	test	ward_and_allport	89	9.0	0.996	to_hand	poldrack-single-stim	s358	False
0.1	138.155	0.346	138.501	0	PA_without_intermediate	test	ward_and_allport	71	9.0	0.346	to_board	poldrack-single-stim	s358	False
0.1	138.504	0.274	138.778	0	PA_without_intermediate	test	ward_and_allport	89	9.0	0.274	to_hand	poldrack-single-stim	s358	False
0.1	138.779	0.32	139.099	0	PA_without_intermediate	test	ward_and_allport	82	9.0	0.32	to_board	poldrack-single-stim	s358	False
1.0	139.103	5.264	139.102	0	PA_without_intermediate	test	ward_and_allport	-1	9.0	n/a	feedback	poldrack-single-stim	s358	False
2.962	144.371	2.962	147.333	1	PA_with_intermediate	test	ward_and_allport	82	10.0	2.962	to_hand	poldrack-single-stim	s358	False
0.1	147.334	1.265	148.599	0	PA_with_intermediate	test	ward_and_allport	89	10.0	1.265	to_board	poldrack-single-stim	s358	False
0.1	148.603	0.411	149.014	0	PA_with_intermediate	test	ward_and_allport	82	10.0	0.411	to_hand	poldrack-single-stim	s358	False
0.1	149.014	0.36	149.374	0	PA_with_intermediate	test	ward_and_allport	71	10.0	0.36	to_board	poldrack-single-stim	s358	False
0.1	149.379	0.387	149.766	0	PA_with_intermediate	test	ward_and_allport	89	10.0	0.387	to_hand	poldrack-single-stim	s358	False
0.1	149.767	0.543	150.31	0	PA_with_intermediate	test	ward_and_allport	71	10.0	0.543	to_board	poldrack-single-stim	s358	False
1.0	150.315	4.04	150.314	0	PA_with_intermediate	test	ward_and_allport	-1	10.0	n/a	feedback	poldrack-single-stim	s358	False
3.323	154.359	3.323	157.682	1	PA_with_intermediate	test	ward_and_allport	82	11.0	3.323	to_hand	poldrack-single-stim	s358	False
0.1	157.684	0.65	158.334	0	PA_with_intermediate	test	ward_and_allport	71	11.0	0.65	to_board	poldrack-single-stim	s358	False
0.1	158.337	0.385	158.722	0	PA_with_intermediate	test	ward_and_allport	82	11.0	0.385	to_hand	poldrack-single-stim	s358	False
0.1	158.722	0.302	159.024	0	PA_with_intermediate	test	ward_and_allport	89	11.0	0.302	to_board	poldrack-single-stim	s358	False
0.1	159.028	0.435	159.463	0	PA_with_intermediate	test	ward_and_allport	71	11.0	0.435	to_hand	poldrack-single-stim	s358	False
0.1	159.463	0.326	159.789	0	PA_with_intermediate	test	ward_and_allport	82	11.0	0.326	to_board	poldrack-single-stim	s358	False
1.0	159.794	2.136	159.793	0	PA_with_intermediate	test	ward_and_allport	-1	11.0	n/a	feedback	poldrack-single-stim	s358	False
6.429	161.934	6.429	168.363	1	PA_with_intermediate	test	ward_and_allport	71	12.0	6.429	to_hand	poldrack-single-stim	s358	False
0.1	168.365	0.343	168.708	0	PA_with_intermediate	test	ward_and_allport	82	12.0	0.343	to_board	poldrack-single-stim	s358	False
0.1	168.713	0.466	169.179	0	PA_with_intermediate	test	ward_and_allport	71	12.0	0.466	to_hand	poldrack-single-stim	s358	False
0.1	169.18	0.313	169.493	0	PA_with_intermediate	test	ward_and_allport	89	12.0	0.313	to_board	poldrack-single-stim	s358	False
0.1	169.498	2.223	171.721	0	PA_with_intermediate	test	ward_and_allport	82	12.0	2.223	to_hand	poldrack-single-stim	s358	False
0.1	171.721	0.292	172.013	0	PA_with_intermediate	test	ward_and_allport	89	12.0	0.292	to_board	poldrack-single-stim	s358	False
1.0	172.019	2.408	172.018	0	PA_with_intermediate	test	ward_and_allport	-1	12.0	n/a	feedback	poldrack-single-stim	s358	False
1.968	174.431	1.968	176.399	1	PA_without_intermediate	test	ward_and_allport	71	13.0	1.968	to_hand	poldrack-single-stim	s358	False
0.1	176.401	0.339	176.74	0	PA_without_intermediate	test	ward_and_allport	89	13.0	0.339	to_board	poldrack-single-stim	s358	False
0.1	176.745	0.325	177.07	0	PA_without_intermediate	test	ward_and_allport	71	13.0	0.325	to_hand	poldrack-single-stim	s358	False
0.1	177.072	0.477	177.549	0	PA_without_intermediate	test	ward_and_allport	82	13.0	0.477	to_board	poldrack-single-stim	s358	False
0.1	177.554	0.31	177.864	0	PA_without_intermediate	test	ward_and_allport	71	13.0	0.31	to_hand	poldrack-single-stim	s358	False
0.1	177.866	0.234	178.1	0	PA_without_intermediate	test	ward_and_allport	89	13.0	0.234	to_board	poldrack-single-stim	s358	False
1.0	178.104	2.68	178.103	0	PA_without_intermediate	test	ward_and_allport	-1	13.0	n/a	feedback	poldrack-single-stim	s358	False
2.432	180.789	2.432	183.221	1	PA_with_intermediate	test	ward_and_allport	71	14.0	2.432	to_hand	poldrack-single-stim	s358	False
0.1	183.222	1.089	184.311	0	PA_with_intermediate	test	ward_and_allport	89	14.0	1.089	to_board	poldrack-single-stim	s358	False
0.1	184.314	0.319	184.633	0	PA_with_intermediate	test	ward_and_allport	71	14.0	0.319	to_hand	poldrack-single-stim	s358	False
0.1	184.634	0.223	184.857	0	PA_with_intermediate	test	ward_and_allport	82	14.0	0.223	to_board	poldrack-single-stim	s358	False
0.1	184.861	0.407	185.268	0	PA_with_intermediate	test	ward_and_allport	89	14.0	0.407	to_hand	poldrack-single-stim	s358	False
0.1	185.269	0.133	185.402	0	PA_with_intermediate	test	ward_and_allport	71	14.0	0.133	to_board	poldrack-single-stim	s358	False
1.0	185.409	4.72	185.408	0	PA_with_intermediate	test	ward_and_allport	-1	14.0	n/a	feedback	poldrack-single-stim	s358	False
2.803	195.135	2.803	197.938	1	PA_without_intermediate	test	ward_and_allport	89	15.0	2.803	to_hand	poldrack-single-stim	s358	False
0.1	197.939	0.385	198.324	0	PA_without_intermediate	test	ward_and_allport	71	15.0	0.385	to_board	poldrack-single-stim	s358	False
0.1	198.328	0.397	198.725	0	PA_without_intermediate	test	ward_and_allport	89	15.0	0.397	to_hand	poldrack-single-stim	s358	False
0.1	198.727	0.45	199.177	0	PA_without_intermediate	test	ward_and_allport	82	15.0	0.45	to_board	poldrack-single-stim	s358	False
0.1	199.181	0.428	199.609	0	PA_without_intermediate	test	ward_and_allport	89	15.0	0.428	to_hand	poldrack-single-stim	s358	False
0.1	199.61	0.319	199.929	0	PA_without_intermediate	test	ward_and_allport	71	15.0	0.319	to_board	poldrack-single-stim	s358	False
1.0	199.935	3.224	199.934	0	PA_without_intermediate	test	ward_and_allport	-1	15.0	n/a	feedback	poldrack-single-stim	s358	False
1.291	203.162	1.291	204.453	1	PA_without_intermediate	test	ward_and_allport	71	16.0	1.291	to_hand	poldrack-single-stim	s358	False
0.1	204.455	0.351	204.806	0	PA_without_intermediate	test	ward_and_allport	89	16.0	0.351	to_board	poldrack-single-stim	s358	False
0.1	204.811	0.371	205.182	0	PA_without_intermediate	test	ward_and_allport	71	16.0	0.371	to_hand	poldrack-single-stim	s358	False
0.1	205.182	0.426	205.608	0	PA_without_intermediate	test	ward_and_allport	89	16.0	0.426	to_board	poldrack-single-stim	s358	False
0.1	205.612	0.675	206.287	0	PA_without_intermediate	test	ward_and_allport	71	16.0	0.675	to_hand	poldrack-single-stim	s358	False
0.1	206.288	0.307	206.595	0	PA_without_intermediate	test	ward_and_allport	82	16.0	0.307	to_board	poldrack-single-stim	s358	False
1.0	206.601	2.272	206.6	0	PA_without_intermediate	test	ward_and_allport	-1	16.0	n/a	feedback	poldrack-single-stim	s358	False
4.144	208.877	4.144	213.021	1	PA_with_intermediate	test	ward_and_allport	89	17.0	4.144	to_hand	poldrack-single-stim	s358	False
0.1	213.023	0.355	213.378	0	PA_with_intermediate	test	ward_and_allport	71	17.0	0.355	to_board	poldrack-single-stim	s358	False
0.1	213.383	1.008	214.391	0	PA_with_intermediate	test	ward_and_allport	89	17.0	1.008	to_hand	poldrack-single-stim	s358	False
0.1	214.392	0.35	214.742	0	PA_with_intermediate	test	ward_and_allport	82	17.0	0.35	to_board	poldrack-single-stim	s358	False
0.1	214.747	0.445	215.192	0	PA_with_intermediate	test	ward_and_allport	71	17.0	0.445	to_hand	poldrack-single-stim	s358	False
0.1	215.192	0.208	215.4	0	PA_with_intermediate	test	ward_and_allport	89	17.0	0.208	to_board	poldrack-single-stim	s358	False
1.0	215.407	3.632	215.406	0	PA_with_intermediate	test	ward_and_allport	-1	17.0	n/a	feedback	poldrack-single-stim	s358	False
1.982	219.043	1.982	221.025	1	PA_without_intermediate	test	ward_and_allport	71	18.0	1.982	to_hand	poldrack-single-stim	s358	False
0.1	221.026	0.601	221.627	0	PA_without_intermediate	test	ward_and_allport	82	18.0	0.601	to_board	poldrack-single-stim	s358	False
0.1	221.632	0.592	222.224	0	PA_without_intermediate	test	ward_and_allport	71	18.0	0.592	to_hand	poldrack-single-stim	s358	False
0.1	222.225	0.483	222.708	0	PA_without_intermediate	test	ward_and_allport	82	18.0	0.483	to_board	poldrack-single-stim	s358	False
0.1	222.712	0.381	223.093	0	PA_without_intermediate	test	ward_and_allport	71	18.0	0.381	to_hand	poldrack-single-stim	s358	False
0.1	223.093	0.257	223.35	0	PA_without_intermediate	test	ward_and_allport	89	18.0	0.257	to_board	poldrack-single-stim	s358	False
1.0	223.356	2.408	223.355	0	PA_without_intermediate	test	ward_and_allport	-1	18.0	n/a	feedback	poldrack-single-stim	s358	False
1.249	225.769	1.249	227.018	1	PA_without_intermediate	test	ward_and_allport	71	19.0	1.249	to_hand	poldrack-single-stim	s358	False
0.1	227.019	0.937	227.956	0	PA_without_intermediate	test	ward_and_allport	82	19.0	0.937	to_board	poldrack-single-stim	s358	False
0.1	227.96	0.712	228.672	0	PA_without_intermediate	test	ward_and_allport	71	19.0	0.712	to_hand	poldrack-single-stim	s358	False
0.1	228.673	0.266	228.939	0	PA_without_intermediate	test	ward_and_allport	82	19.0	0.266	to_board	poldrack-single-stim	s358	False
0.1	228.943	0.623	229.566	0	PA_without_intermediate	test	ward_and_allport	71	19.0	0.623	to_hand	poldrack-single-stim	s358	False
0.1	229.567	0.147	229.714	0	PA_without_intermediate	test	ward_and_allport	89	19.0	0.147	to_board	poldrack-single-stim	s358	False
1.0	229.72	2.0	229.719	0	PA_without_intermediate	test	ward_and_allport	-1	19.0	n/a	feedback	poldrack-single-stim	s358	False
4.307	231.724	4.307	236.031	1	PA_with_intermediate	test	ward_and_allport	82	20.0	4.307	to_hand	poldrack-single-stim	s358	False
0.1	236.032	0.323	236.355	0	PA_with_intermediate	test	ward_and_allport	71	20.0	0.323	to_board	poldrack-single-stim	s358	False
0.1	236.359	0.52	236.879	0	PA_with_intermediate	test	ward_and_allport	82	20.0	0.52	to_hand	poldrack-single-stim	s358	False
0.1	236.88	0.255	237.135	0	PA_with_intermediate	test	ward_and_allport	89	20.0	0.255	to_board	poldrack-single-stim	s358	False
0.1	237.139	0.396	237.535	0	PA_with_intermediate	test	ward_and_allport	71	20.0	0.396	to_hand	poldrack-single-stim	s358	False
0.1	237.537	0.273	237.81	0	PA_with_intermediate	test	ward_and_allport	89	20.0	0.273	to_board	poldrack-single-stim	s358	False
1.0	237.816	2.0	237.815	0	PA_with_intermediate	test	ward_and_allport	-1	20.0	n/a	feedback	poldrack-single-stim	s358	False
2.297	239.821	2.297	242.118	1	PA_with_intermediate	test	ward_and_allport	82	21.0	2.297	to_hand	poldrack-single-stim	s358	False
0.1	242.119	0.684	242.803	0	PA_with_intermediate	test	ward_and_allport	71	21.0	0.684	to_board	poldrack-single-stim	s358	False
0.1	242.808	0.318	243.126	0	PA_with_intermediate	test	ward_and_allport	82	21.0	0.318	to_hand	poldrack-single-stim	s358	False
0.1	243.127	0.365	243.492	0	PA_with_intermediate	test	ward_and_allport	89	21.0	0.365	to_board	poldrack-single-stim	s358	False
0.1	243.497	0.29	243.787	0	PA_with_intermediate	test	ward_and_allport	71	21.0	0.29	to_hand	poldrack-single-stim	s358	False
0.1	243.787	0.253	244.04	0	PA_with_intermediate	test	ward_and_allport	89	21.0	0.253	to_board	poldrack-single-stim	s358	False
1.0	244.046	2.0	244.045	0	PA_with_intermediate	test	ward_and_allport	-1	21.0	n/a	feedback	poldrack-single-stim	s358	False
3.217	246.052	3.217	249.269	1	PA_with_intermediate	test	ward_and_allport	82	22.0	3.217	to_hand	poldrack-single-stim	s358	False
0.1	249.27	0.361	249.631	0	PA_with_intermediate	test	ward_and_allport	89	22.0	0.361	to_board	poldrack-single-stim	s358	False
0.1	249.637	0.599	250.236	0	PA_with_intermediate	test	ward_and_allport	82	22.0	0.599	to_hand	poldrack-single-stim	s358	False
0.1	250.236	0.333	250.569	0	PA_with_intermediate	test	ward_and_allport	71	22.0	0.333	to_board	poldrack-single-stim	s358	False
0.1	250.576	0.278	250.854	0	PA_with_intermediate	test	ward_and_allport	89	22.0	0.278	to_hand	poldrack-single-stim	s358	False
0.1	250.854	0.328	251.182	0	PA_with_intermediate	test	ward_and_allport	82	22.0	0.328	to_board	poldrack-single-stim	s358	False
0.1	251.189	1.396	252.585	0	PA_with_intermediate	test	ward_and_allport	82	22.0	1.396	to_hand	poldrack-single-stim	s358	False
0.1	252.585	0.233	252.818	0	PA_with_intermediate	test	ward_and_allport	71	22.0	0.233	to_board	poldrack-single-stim	s358	False
1.0	252.826	2.408	252.825	0	PA_with_intermediate	test	ward_and_allport	-1	22.0	n/a	feedback	poldrack-single-stim	s358	False
4.286	255.239	4.286	259.525	1	PA_without_intermediate	test	ward_and_allport	89	23.0	4.286	to_hand	poldrack-single-stim	s358	False
0.1	259.527	0.958	260.485	0	PA_without_intermediate	test	ward_and_allport	82	23.0	0.958	to_board	poldrack-single-stim	s358	False
0.1	260.49	1.088	261.578	0	PA_without_intermediate	test	ward_and_allport	89	23.0	1.088	to_hand	poldrack-single-stim	s358	False
0.1	261.579	0.433	262.012	0	PA_without_intermediate	test	ward_and_allport	71	23.0	0.433	to_board	poldrack-single-stim	s358	False
0.1	262.018	0.336	262.354	0	PA_without_intermediate	test	ward_and_allport	89	23.0	0.336	to_hand	poldrack-single-stim	s358	False
0.1	262.356	0.342	262.698	0	PA_without_intermediate	test	ward_and_allport	82	23.0	0.342	to_board	poldrack-single-stim	s358	False
1.0	262.706	2.816	262.705	0	PA_without_intermediate	test	ward_and_allport	-1	23.0	n/a	feedback	poldrack-single-stim	s358	False
2.89	265.529	2.89	268.419	1	PA_with_intermediate	test	ward_and_allport	82	24.0	2.89	to_hand	poldrack-single-stim	s358	False
0.1	268.419	0.863	269.282	0	PA_with_intermediate	test	ward_and_allport	71	24.0	0.863	to_board	poldrack-single-stim	s358	False
0.1	269.289	0.312	269.601	0	PA_with_intermediate	test	ward_and_allport	82	24.0	0.312	to_hand	poldrack-single-stim	s358	False
0.1	269.601	0.174	269.775	0	PA_with_intermediate	test	ward_and_allport	89	24.0	0.174	to_board	poldrack-single-stim	s358	False
0.1	269.781	0.331	270.112	0	PA_with_intermediate	test	ward_and_allport	71	24.0	0.331	to_hand	poldrack-single-stim	s358	False
0.1	270.114	0.366	270.48	0	PA_with_intermediate	test	ward_and_allport	82	24.0	0.366	to_board	poldrack-single-stim	s358	False
1.0	270.487	4.176	270.486	0	PA_with_intermediate	test	ward_and_allport	-1	24.0	n/a	feedback	poldrack-single-stim	s358	False
3.193	274.67	3.193	277.863	1	PA_with_intermediate	test	ward_and_allport	82	25.0	3.193	to_hand	poldrack-single-stim	s358	False
0.1	277.864	0.322	278.186	0	PA_with_intermediate	test	ward_and_allport	89	25.0	0.322	to_board	poldrack-single-stim	s358	False
0.1	278.194	0.463	278.657	0	PA_with_intermediate	test	ward_and_allport	82	25.0	0.463	to_hand	poldrack-single-stim	s358	False
0.1	278.657	0.397	279.054	0	PA_with_intermediate	test	ward_and_allport	71	25.0	0.397	to_board	poldrack-single-stim	s358	False
0.1	279.06	0.333	279.393	0	PA_with_intermediate	test	ward_and_allport	89	25.0	0.333	to_hand	poldrack-single-stim	s358	False
0.1	279.394	0.362	279.756	0	PA_with_intermediate	test	ward_and_allport	82	25.0	0.362	to_board	poldrack-single-stim	s358	False
1.0	279.764	3.36	279.763	0	PA_with_intermediate	test	ward_and_allport	-1	25.0	n/a	feedback	poldrack-single-stim	s358	False
2.641	283.13	2.641	285.771	1	PA_with_intermediate	test	ward_and_allport	89	26.0	2.641	to_hand	poldrack-single-stim	s358	False
0.1	285.772	0.349	286.121	0	PA_with_intermediate	test	ward_and_allport	82	26.0	0.349	to_board	poldrack-single-stim	s358	False
0.1	286.128	1.024	287.152	0	PA_with_intermediate	test	ward_and_allport	89	26.0	1.024	to_hand	poldrack-single-stim	s358	False
0.1	287.152	0.221	287.373	0	PA_with_intermediate	test	ward_and_allport	71	26.0	0.221	to_board	poldrack-single-stim	s358	False
0.1	287.38	0.349	287.729	0	PA_with_intermediate	test	ward_and_allport	82	26.0	0.349	to_hand	poldrack-single-stim	s358	False
0.1	287.73	0.215	287.945	0	PA_with_intermediate	test	ward_and_allport	89	26.0	0.215	to_board	poldrack-single-stim	s358	False
1.0	287.952	2.0	287.951	0	PA_with_intermediate	test	ward_and_allport	-1	26.0	n/a	feedback	poldrack-single-stim	s358	False
2.35	289.958	2.35	292.308	1	PA_without_intermediate	test	ward_and_allport	71	27.0	2.35	to_hand	poldrack-single-stim	s358	False
0.1	292.31	0.418	292.728	0	PA_without_intermediate	test	ward_and_allport	82	27.0	0.418	to_board	poldrack-single-stim	s358	False
0.1	292.735	0.672	293.407	0	PA_without_intermediate	test	ward_and_allport	71	27.0	0.672	to_hand	poldrack-single-stim	s358	False
0.1	293.408	0.307	293.715	0	PA_without_intermediate	test	ward_and_allport	89	27.0	0.307	to_board	poldrack-single-stim	s358	False
0.1	293.723	0.407	294.13	0	PA_without_intermediate	test	ward_and_allport	71	27.0	0.407	to_hand	poldrack-single-stim	s358	False
0.1	294.131	0.255	294.386	0	PA_without_intermediate	test	ward_and_allport	82	27.0	0.255	to_board	poldrack-single-stim	s358	False
1.0	294.394	2.408	294.393	0	PA_without_intermediate	test	ward_and_allport	-1	27.0	n/a	feedback	poldrack-single-stim	s358	False
3.394	296.809	3.394	300.203	1	PA_with_intermediate	test	ward_and_allport	89	28.0	3.394	to_hand	poldrack-single-stim	s358	False
0.1	300.205	0.394	300.599	0	PA_with_intermediate	test	ward_and_allport	71	28.0	0.394	to_board	poldrack-single-stim	s358	False
0.1	300.605	0.305	300.91	0	PA_with_intermediate	test	ward_and_allport	89	28.0	0.305	to_hand	poldrack-single-stim	s358	False
0.1	300.91	0.641	301.551	0	PA_with_intermediate	test	ward_and_allport	82	28.0	0.641	to_board	poldrack-single-stim	s358	False
0.1	301.558	0.517	302.075	0	PA_with_intermediate	test	ward_and_allport	71	28.0	0.517	to_hand	poldrack-single-stim	s358	False
0.1	302.076	0.224	302.3	0	PA_with_intermediate	test	ward_and_allport	82	28.0	0.224	to_board	poldrack-single-stim	s358	False
1.0	302.309	2.816	302.308	0	PA_with_intermediate	test	ward_and_allport	-1	28.0	n/a	feedback	poldrack-single-stim	s358	False
1.618	305.131	1.618	306.749	1	PA_without_intermediate	test	ward_and_allport	82	29.0	1.618	to_hand	poldrack-single-stim	s358	False
0.1	306.751	1.122	307.873	0	PA_without_intermediate	test	ward_and_allport	71	29.0	1.122	to_board	poldrack-single-stim	s358	False
0.1	307.88	0.355	308.235	0	PA_without_intermediate	test	ward_and_allport	82	29.0	0.355	to_hand	poldrack-single-stim	s358	False
0.1	308.236	0.295	308.531	0	PA_without_intermediate	test	ward_and_allport	89	29.0	0.295	to_board	poldrack-single-stim	s358	False
0.1	308.538	0.374	308.912	0	PA_without_intermediate	test	ward_and_allport	82	29.0	0.374	to_hand	poldrack-single-stim	s358	False
0.1	308.914	0.309	309.223	0	PA_without_intermediate	test	ward_and_allport	71	29.0	0.309	to_board	poldrack-single-stim	s358	False
1.0	309.231	3.088	309.23	0	PA_without_intermediate	test	ward_and_allport	-1	29.0	n/a	feedback	poldrack-single-stim	s358	False
2.343	317.328	2.343	319.671	1	PA_without_intermediate	test	ward_and_allport	89	30.0	2.343	to_hand	poldrack-single-stim	s358	False
0.1	319.672	0.294	319.966	0	PA_without_intermediate	test	ward_and_allport	71	30.0	0.294	to_board	poldrack-single-stim	s358	False
0.1	319.974	0.354	320.328	0	PA_without_intermediate	test	ward_and_allport	89	30.0	0.354	to_hand	poldrack-single-stim	s358	False
0.1	320.329	0.306	320.635	0	PA_without_intermediate	test	ward_and_allport	71	30.0	0.306	to_board	poldrack-single-stim	s358	False
0.1	320.643	0.299	320.942	0	PA_without_intermediate	test	ward_and_allport	89	30.0	0.299	to_hand	poldrack-single-stim	s358	False
0.1	320.943	0.291	321.234	0	PA_without_intermediate	test	ward_and_allport	82	30.0	0.291	to_board	poldrack-single-stim	s358	False
1.0	321.241	2.136	321.24	0	PA_without_intermediate	test	ward_and_allport	-1	30.0	n/a	feedback	poldrack-single-stim	s358	False
2.22	323.384	2.22	325.604	1	PA_without_intermediate	test	ward_and_allport	82	31.0	2.22	to_hand	poldrack-single-stim	s358	False
0.1	325.604	0.384	325.988	0	PA_without_intermediate	test	ward_and_allport	89	31.0	0.384	to_board	poldrack-single-stim	s358	False
0.1	325.995	0.845	326.84	0	PA_without_intermediate	test	ward_and_allport	82	31.0	0.845	to_hand	poldrack-single-stim	s358	False
0.1	326.841	0.542	327.383	0	PA_without_intermediate	test	ward_and_allport	89	31.0	0.542	to_board	poldrack-single-stim	s358	False
0.1	327.39	0.902	328.292	0	PA_without_intermediate	test	ward_and_allport	82	31.0	0.902	to_hand	poldrack-single-stim	s358	False
0.1	328.293	0.197	328.49	0	PA_without_intermediate	test	ward_and_allport	71	31.0	0.197	to_board	poldrack-single-stim	s358	False
1.0	328.501	7.168	328.5	0	PA_without_intermediate	test	ward_and_allport	-1	31.0	n/a	feedback	poldrack-single-stim	s358	False
2.406	335.68	2.406	338.086	1	PA_without_intermediate	test	ward_and_allport	71	32.0	2.406	to_hand	poldrack-single-stim	s358	False
0.1	338.088	0.19	338.278	0	PA_without_intermediate	test	ward_and_allport	89	32.0	0.19	to_board	poldrack-single-stim	s358	False
0.1	338.286	0.385	338.671	0	PA_without_intermediate	test	ward_and_allport	71	32.0	0.385	to_hand	poldrack-single-stim	s358	False
0.1	338.671	0.195	338.866	0	PA_without_intermediate	test	ward_and_allport	82	32.0	0.195	to_board	poldrack-single-stim	s358	False
0.1	338.875	0.339	339.214	0	PA_without_intermediate	test	ward_and_allport	71	32.0	0.339	to_hand	poldrack-single-stim	s358	False
0.1	339.214	0.143	339.357	0	PA_without_intermediate	test	ward_and_allport	89	32.0	0.143	to_board	poldrack-single-stim	s358	False
1.0	339.367	2.816	339.366	0	PA_without_intermediate	test	ward_and_allport	-1	32.0	n/a	feedback	poldrack-single-stim	s358	False
2.798	342.191	2.798	344.989	1	PA_with_intermediate	test	ward_and_allport	71	33.0	2.798	to_hand	poldrack-single-stim	s358	False
0.1	344.991	0.256	345.247	0	PA_with_intermediate	test	ward_and_allport	89	33.0	0.256	to_board	poldrack-single-stim	s358	False
0.1	345.255	0.31	345.565	0	PA_with_intermediate	test	ward_and_allport	71	33.0	0.31	to_hand	poldrack-single-stim	s358	False
0.1	345.567	0.219	345.786	0	PA_with_intermediate	test	ward_and_allport	82	33.0	0.219	to_board	poldrack-single-stim	s358	False
0.1	345.795	0.345	346.14	0	PA_with_intermediate	test	ward_and_allport	89	33.0	0.345	to_hand	poldrack-single-stim	s358	False
0.1	346.141	0.207	346.348	0	PA_with_intermediate	test	ward_and_allport	71	33.0	0.207	to_board	poldrack-single-stim	s358	False
1.0	346.357	2.952	346.356	0	PA_with_intermediate	test	ward_and_allport	-1	33.0	n/a	feedback	poldrack-single-stim	s358	False
2.889	349.315	2.889	352.204	1	PA_with_intermediate	test	ward_and_allport	89	34.0	2.889	to_hand	poldrack-single-stim	s358	False
0.1	352.205	0.268	352.473	0	PA_with_intermediate	test	ward_and_allport	82	34.0	0.268	to_board	poldrack-single-stim	s358	False
0.1	352.48	1.561	354.041	0	PA_with_intermediate	test	ward_and_allport	89	34.0	1.561	to_hand	poldrack-single-stim	s358	False
0.1	354.041	0.18	354.221	0	PA_with_intermediate	test	ward_and_allport	71	34.0	0.18	to_board	poldrack-single-stim	s358	False
0.1	354.229	0.388	354.617	0	PA_with_intermediate	test	ward_and_allport	82	34.0	0.388	to_hand	poldrack-single-stim	s358	False
0.1	354.617	0.112	354.729	0	PA_with_intermediate	test	ward_and_allport	89	34.0	0.112	to_board	poldrack-single-stim	s358	False
1.0	354.74	2.136	354.739	0	PA_with_intermediate	test	ward_and_allport	-1	34.0	n/a	feedback	poldrack-single-stim	s358	False
3.01	356.885	3.01	359.895	1	PA_without_intermediate	test	ward_and_allport	71	35.0	3.01	to_hand	poldrack-single-stim	s358	False
0.1	359.895	0.428	360.323	0	PA_without_intermediate	test	ward_and_allport	89	35.0	0.428	to_board	poldrack-single-stim	s358	False
0.1	360.331	0.352	360.683	0	PA_without_intermediate	test	ward_and_allport	71	35.0	0.352	to_hand	poldrack-single-stim	s358	False
0.1	360.683	1.101	361.784	0	PA_without_intermediate	test	ward_and_allport	89	35.0	1.101	to_board	poldrack-single-stim	s358	False
0.1	361.794	0.925	362.719	0	PA_without_intermediate	test	ward_and_allport	71	35.0	0.925	to_hand	poldrack-single-stim	s358	False
0.1	362.72	0.144	362.864	0	PA_without_intermediate	test	ward_and_allport	82	35.0	0.144	to_board	poldrack-single-stim	s358	False
1.0	362.875	2.68	362.874	0	PA_without_intermediate	test	ward_and_allport	-1	35.0	n/a	feedback	poldrack-single-stim	s358	False
2.26	365.563	2.26	367.823	1	PA_without_intermediate	test	ward_and_allport	89	36.0	2.26	to_hand	poldrack-single-stim	s358	False
0.1	367.824	1.105	368.929	0	PA_without_intermediate	test	ward_and_allport	71	36.0	1.105	to_board	poldrack-single-stim	s358	False
0.1	368.935	0.488	369.423	0	PA_without_intermediate	test	ward_and_allport	89	36.0	0.488	to_hand	poldrack-single-stim	s358	False
0.1	369.423	0.356	369.779	0	PA_without_intermediate	test	ward_and_allport	82	36.0	0.356	to_board	poldrack-single-stim	s358	False
0.1	369.787	0.461	370.248	0	PA_without_intermediate	test	ward_and_allport	89	36.0	0.461	to_hand	poldrack-single-stim	s358	False
0.1	370.249	0.293	370.542	0	PA_without_intermediate	test	ward_and_allport	71	36.0	0.293	to_board	poldrack-single-stim	s358	False
1.0	370.553	3.088	370.552	0	PA_without_intermediate	test	ward_and_allport	-1	36.0	n/a	feedback	poldrack-single-stim	s358	False
2.79	373.649	2.79	376.439	1	PA_with_intermediate	test	ward_and_allport	89	37.0	2.79	to_hand	poldrack-single-stim	s358	False
0.1	376.44	0.169	376.609	0	PA_with_intermediate	test	ward_and_allport	71	37.0	0.169	to_board	poldrack-single-stim	s358	False
0.1	376.616	0.401	377.017	0	PA_with_intermediate	test	ward_and_allport	89	37.0	0.401	to_hand	poldrack-single-stim	s358	False
0.1	377.018	0.229	377.247	0	PA_with_intermediate	test	ward_and_allport	82	37.0	0.229	to_board	poldrack-single-stim	s358	False
0.1	377.255	0.953	378.208	0	PA_with_intermediate	test	ward_and_allport	71	37.0	0.953	to_hand	poldrack-single-stim	s358	False
0.1	378.21	0.118	378.328	0	PA_with_intermediate	test	ward_and_allport	82	37.0	0.118	to_board	poldrack-single-stim	s358	False
1.0	378.339	2.0	378.338	0	PA_with_intermediate	test	ward_and_allport	-1	37.0	n/a	feedback	poldrack-single-stim	s358	False
1.119	380.346	1.119	381.465	1	PA_without_intermediate	test	ward_and_allport	89	38.0	1.119	to_hand	poldrack-single-stim	s358	False
0.1	381.466	0.526	381.992	0	PA_without_intermediate	test	ward_and_allport	82	38.0	0.526	to_board	poldrack-single-stim	s358	False
0.1	382.0	0.349	382.349	0	PA_without_intermediate	test	ward_and_allport	89	38.0	0.349	to_hand	poldrack-single-stim	s358	False
0.1	382.35	0.814	383.164	0	PA_without_intermediate	test	ward_and_allport	82	38.0	0.814	to_board	poldrack-single-stim	s358	False
0.1	383.172	0.246	383.418	0	PA_without_intermediate	test	ward_and_allport	89	38.0	0.246	to_hand	poldrack-single-stim	s358	False
0.1	383.418	0.151	383.569	0	PA_without_intermediate	test	ward_and_allport	71	38.0	0.151	to_board	poldrack-single-stim	s358	False
1.0	383.58	2.0	383.579	0	PA_without_intermediate	test	ward_and_allport	-1	38.0	n/a	feedback	poldrack-single-stim	s358	False
1.322	385.588	1.322	386.91	1	PA_without_intermediate	test	ward_and_allport	89	39.0	1.322	to_hand	poldrack-single-stim	s358	False
0.1	386.911	0.172	387.083	0	PA_without_intermediate	test	ward_and_allport	82	39.0	0.172	to_board	poldrack-single-stim	s358	False
0.1	387.09	2.02	389.11	0	PA_without_intermediate	test	ward_and_allport	89	39.0	2.02	to_hand	poldrack-single-stim	s358	False
0.1	389.11	0.163	389.273	0	PA_without_intermediate	test	ward_and_allport	82	39.0	0.163	to_board	poldrack-single-stim	s358	False
0.1	389.281	0.383	389.664	0	PA_without_intermediate	test	ward_and_allport	89	39.0	0.383	to_hand	poldrack-single-stim	s358	False
0.1	389.665	0.117	389.782	0	PA_without_intermediate	test	ward_and_allport	71	39.0	0.117	to_board	poldrack-single-stim	s358	False
1.0	389.791	2.0	389.79	0	PA_without_intermediate	test	ward_and_allport	-1	39.0	n/a	feedback	poldrack-single-stim	s358	False
2.445	391.798	2.445	394.243	1	PA_with_intermediate	test	ward_and_allport	71	40.0	2.445	to_hand	poldrack-single-stim	s358	False
0.1	394.243	0.197	394.44	0	PA_with_intermediate	test	ward_and_allport	89	40.0	0.197	to_board	poldrack-single-stim	s358	False
0.1	394.447	1.423	395.87	0	PA_with_intermediate	test	ward_and_allport	71	40.0	1.423	to_hand	poldrack-single-stim	s358	False
0.1	395.87	0.599	396.469	0	PA_with_intermediate	test	ward_and_allport	82	40.0	0.599	to_board	poldrack-single-stim	s358	False
0.1	396.478	0.236	396.714	0	PA_with_intermediate	test	ward_and_allport	89	40.0	0.236	to_hand	poldrack-single-stim	s358	False
0.1	396.715	0.133	396.848	0	PA_with_intermediate	test	ward_and_allport	82	40.0	0.133	to_board	poldrack-single-stim	s358	False
1.0	396.86	2.544	396.859	0	PA_with_intermediate	test	ward_and_allport	-1	40.0	n/a	feedback	poldrack-single-stim	s358	False
1.742	399.413	1.742	401.155	1	PA_without_intermediate	test	ward_and_allport	82	41.0	1.742	to_hand	poldrack-single-stim	s358	False
0.1	401.156	1.122	402.278	0	PA_without_intermediate	test	ward_and_allport	89	41.0	1.122	to_board	poldrack-single-stim	s358	False
0.1	402.284	0.641	402.925	0	PA_without_intermediate	test	ward_and_allport	82	41.0	0.641	to_hand	poldrack-single-stim	s358	False
0.1	402.926	0.354	403.28	0	PA_without_intermediate	test	ward_and_allport	71	41.0	0.354	to_board	poldrack-single-stim	s358	False
0.1	403.287	0.388	403.675	0	PA_without_intermediate	test	ward_and_allport	82	41.0	0.388	to_hand	poldrack-single-stim	s358	False
0.1	403.676	0.345	404.021	0	PA_without_intermediate	test	ward_and_allport	89	41.0	0.345	to_board	poldrack-single-stim	s358	False
1.0	404.03	2.272	404.029	0	PA_without_intermediate	test	ward_and_allport	-1	41.0	n/a	feedback	poldrack-single-stim	s358	False
2.186	406.31	2.186	408.496	1	PA_with_intermediate	test	ward_and_allport	71	42.0	2.186	to_hand	poldrack-single-stim	s358	False
0.1	408.496	0.679	409.175	0	PA_with_intermediate	test	ward_and_allport	82	42.0	0.679	to_board	poldrack-single-stim	s358	False
0.1	409.182	0.979	410.161	0	PA_with_intermediate	test	ward_and_allport	71	42.0	0.979	to_hand	poldrack-single-stim	s358	False
0.1	410.161	0.143	410.304	0	PA_with_intermediate	test	ward_and_allport	89	42.0	0.143	to_board	poldrack-single-stim	s358	False
0.1	410.312	0.397	410.709	0	PA_with_intermediate	test	ward_and_allport	82	42.0	0.397	to_hand	poldrack-single-stim	s358	False
0.1	410.71	0.065	410.775	0	PA_with_intermediate	test	ward_and_allport	89	42.0	0.065	to_board	poldrack-single-stim	s358	False
0.1	410.782	0.955	411.737	0	PA_with_intermediate	test	ward_and_allport	71	42.0	0.955	to_hand	poldrack-single-stim	s358	False
0.1	411.738	0.185	411.923	0	PA_with_intermediate	test	ward_and_allport	82	42.0	0.185	to_board	poldrack-single-stim	s358	False
0.1	411.93	1.045	412.975	0	PA_with_intermediate	test	ward_and_allport	82	42.0	1.045	to_hand	poldrack-single-stim	s358	False
0.1	412.977	0.374	413.351	0	PA_with_intermediate	test	ward_and_allport	71	42.0	0.374	to_board	poldrack-single-stim	s358	False
0.1	413.357	0.61	413.967	0	PA_with_intermediate	test	ward_and_allport	89	42.0	0.61	to_hand	poldrack-single-stim	s358	False
0.1	413.968	0.88	414.848	0	PA_with_intermediate	test	ward_and_allport	71	42.0	0.88	to_board	poldrack-single-stim	s358	False
1.0	414.856	4.04	414.855	0	PA_with_intermediate	test	ward_and_allport	-1	42.0	n/a	feedback	poldrack-single-stim	s358	False
2.712	418.902	2.712	421.614	1	PA_with_intermediate	test	ward_and_allport	89	43.0	2.712	to_hand	poldrack-single-stim	s358	False
0.1	421.614	0.617	422.231	0	PA_with_intermediate	test	ward_and_allport	82	43.0	0.617	to_board	poldrack-single-stim	s358	False
0.1	422.238	0.385	422.623	0	PA_with_intermediate	test	ward_and_allport	89	43.0	0.385	to_hand	poldrack-single-stim	s358	False
0.1	422.623	0.274	422.897	0	PA_with_intermediate	test	ward_and_allport	71	43.0	0.274	to_board	poldrack-single-stim	s358	False
0.1	422.907	0.278	423.185	0	PA_with_intermediate	test	ward_and_allport	82	43.0	0.278	to_hand	poldrack-single-stim	s358	False
0.1	423.185	0.299	423.484	0	PA_with_intermediate	test	ward_and_allport	71	43.0	0.299	to_board	poldrack-single-stim	s358	False
1.0	423.495	2.272	423.494	0	PA_with_intermediate	test	ward_and_allport	-1	43.0	n/a	feedback	poldrack-single-stim	s358	False
1.58	425.777	1.58	427.357	1	PA_with_intermediate	test	ward_and_allport	71	44.0	1.58	to_hand	poldrack-single-stim	s358	False
0.1	427.358	0.297	427.655	0	PA_with_intermediate	test	ward_and_allport	89	44.0	0.297	to_board	poldrack-single-stim	s358	False
0.1	427.662	0.297	427.959	0	PA_with_intermediate	test	ward_and_allport	71	44.0	0.297	to_hand	poldrack-single-stim	s358	False
0.1	427.96	0.367	428.327	0	PA_with_intermediate	test	ward_and_allport	82	44.0	0.367	to_board	poldrack-single-stim	s358	False
0.1	428.335	0.349	428.684	0	PA_with_intermediate	test	ward_and_allport	89	44.0	0.349	to_hand	poldrack-single-stim	s358	False
0.1	428.685	0.351	429.036	0	PA_with_intermediate	test	ward_and_allport	82	44.0	0.351	to_board	poldrack-single-stim	s358	False
1.0	429.045	2.136	429.044	0	PA_with_intermediate	test	ward_and_allport	-1	44.0	n/a	feedback	poldrack-single-stim	s358	False
4.852	436.195	4.852	441.047	1	PA_with_intermediate	test	ward_and_allport	71	45.0	4.852	to_hand	poldrack-single-stim	s358	False
0.1	441.048	0.63	441.678	0	PA_with_intermediate	test	ward_and_allport	82	45.0	0.63	to_board	poldrack-single-stim	s358	False
0.1	441.689	0.325	442.014	0	PA_with_intermediate	test	ward_and_allport	71	45.0	0.325	to_hand	poldrack-single-stim	s358	False
0.1	442.014	0.284	442.298	0	PA_with_intermediate	test	ward_and_allport	89	45.0	0.284	to_board	poldrack-single-stim	s358	False
0.1	442.311	0.299	442.61	0	PA_with_intermediate	test	ward_and_allport	82	45.0	0.299	to_hand	poldrack-single-stim	s358	False
0.1	442.61	0.25	442.86	0	PA_with_intermediate	test	ward_and_allport	71	45.0	0.25	to_board	poldrack-single-stim	s358	False
1.0	442.872	2.0	442.871	0	PA_with_intermediate	test	ward_and_allport	-1	45.0	n/a	feedback	poldrack-single-stim	s358	False
1.605	444.879	1.605	446.484	1	PA_with_intermediate	test	ward_and_allport	71	46.0	1.605	to_hand	poldrack-single-stim	s358	False
0.1	446.484	0.359	446.843	0	PA_with_intermediate	test	ward_and_allport	82	46.0	0.359	to_board	poldrack-single-stim	s358	False
0.1	446.851	0.283	447.134	0	PA_with_intermediate	test	ward_and_allport	71	46.0	0.283	to_hand	poldrack-single-stim	s358	False
0.1	447.135	0.305	447.44	0	PA_with_intermediate	test	ward_and_allport	89	46.0	0.305	to_board	poldrack-single-stim	s358	False
0.1	447.447	0.779	448.226	0	PA_with_intermediate	test	ward_and_allport	82	46.0	0.779	to_hand	poldrack-single-stim	s358	False
0.1	448.227	0.238	448.465	0	PA_with_intermediate	test	ward_and_allport	89	46.0	0.238	to_board	poldrack-single-stim	s358	False
1.0	448.473	2.0	448.472	0	PA_with_intermediate	test	ward_and_allport	-1	46.0	n/a	feedback	poldrack-single-stim	s358	False
2.563	450.483	2.563	453.046	1	PA_without_intermediate	test	ward_and_allport	82	47.0	2.563	to_hand	poldrack-single-stim	s358	False
0.1	453.046	0.525	453.571	0	PA_without_intermediate	test	ward_and_allport	71	47.0	0.525	to_board	poldrack-single-stim	s358	False
0.1	453.578	0.734	454.312	0	PA_without_intermediate	test	ward_and_allport	82	47.0	0.734	to_hand	poldrack-single-stim	s358	False
0.1	454.313	0.292	454.605	0	PA_without_intermediate	test	ward_and_allport	71	47.0	0.292	to_board	poldrack-single-stim	s358	False
0.1	454.616	0.251	454.867	0	PA_without_intermediate	test	ward_and_allport	82	47.0	0.251	to_hand	poldrack-single-stim	s358	False
0.1	454.868	0.189	455.057	0	PA_without_intermediate	test	ward_and_allport	89	47.0	0.189	to_board	poldrack-single-stim	s358	False
1.0	455.067	2.408	455.066	0	PA_without_intermediate	test	ward_and_allport	-1	47.0	n/a	feedback	poldrack-single-stim	s358	False
