onset	duration	movement_onset	CTI	block_duration	correct	correct_response	cue	cue_switch	experiment_exp_id	key_press	response_time	stim_color	stim_number	switch_type	task	task_switch	trial_id	trial_type	worker_id	first_trial_of_block	junk
4.412	1.0	5.669	0.9	2.136	True	71.0	Color	switch	twobytwo	71.0	0.357	blue	7.0	cue_switch	color	stay	stim	poldrack-single-stim	s358	1	False
6.654	1.0	7.485	0.1	2.272	True	71.0	Magnitude	n/a	twobytwo	71.0	0.731	blue	1.0	task_switch	magnitude	switch	stim	poldrack-single-stim	s358	0	False
9.831	1.0	11.331	0.9	2.136	True	71.0	Orange-Blue	n/a	twobytwo	71.0	0.6	blue	2.0	task_switch	color	switch	stim	poldrack-single-stim	s358	0	False
12.871	1.0	14.246	0.9	2.272	True	71.0	Orange-Blue	stay	twobytwo	71.0	0.475	blue	8.0	cue_stay	color	stay	stim	poldrack-single-stim	s358	0	False
15.247	1.0	16.124	0.1	2.0	True	89.0	Magnitude	n/a	twobytwo	89.0	0.777	blue	7.0	task_switch	magnitude	switch	stim	poldrack-single-stim	s358	0	False
17.352	1.0	18.378	0.1	2.816	True	71.0	Magnitude	stay	twobytwo	71.0	0.926	orange	2.0	cue_stay	magnitude	stay	stim	poldrack-single-stim	s358	0	False
21.073	1.0	22.449	0.9	2.408	True	71.0	High-Low	switch	twobytwo	71.0	0.476	blue	1.0	cue_switch	magnitude	stay	stim	poldrack-single-stim	s358	0	False
23.586	1.0	24.412	0.1	2.0	True	89.0	High-Low	stay	twobytwo	89.0	0.726	blue	7.0	cue_stay	magnitude	stay	stim	poldrack-single-stim	s358	0	False
26.491	1.0	27.848	0.9	2.544	True	71.0	High-Low	stay	twobytwo	71.0	0.457	orange	2.0	cue_stay	magnitude	stay	stim	poldrack-single-stim	s358	0	False
29.14	1.0	30.126	0.1	2.136	True	89.0	Orange-Blue	n/a	twobytwo	89.0	0.886	orange	3.0	task_switch	color	switch	stim	poldrack-single-stim	s358	0	False
32.181	1.0	33.612	0.9	2.0	True	89.0	High-Low	n/a	twobytwo	89.0	0.531	orange	9.0	task_switch	magnitude	switch	stim	poldrack-single-stim	s358	0	False
34.285	1.0	35.301	0.1	2.0	True	71.0	High-Low	stay	twobytwo	71.0	0.916	orange	3.0	cue_stay	magnitude	stay	stim	poldrack-single-stim	s358	0	False
36.39	1.0	37.207	0.1	2.136	True	71.0	Magnitude	switch	twobytwo	71.0	0.717	orange	1.0	cue_switch	magnitude	stay	stim	poldrack-single-stim	s358	0	False
38.632	1.0	39.528	0.1	2.136	True	71.0	Magnitude	stay	twobytwo	71.0	0.796	orange	4.0	cue_stay	magnitude	stay	stim	poldrack-single-stim	s358	0	False
40.872	1.0	41.891	0.1	2.272	True	89.0	Color	n/a	twobytwo	89.0	0.919	orange	3.0	task_switch	color	switch	stim	poldrack-single-stim	s358	0	False
43.25	1.0	44.526	0.1	3.224	True	89.0	Orange-Blue	switch	twobytwo	89.0	1.176	orange	3.0	cue_switch	color	stay	stim	poldrack-single-stim	s358	0	False
47.379	1.0	48.839	0.9	2.0	True	89.0	Color	switch	twobytwo	89.0	0.56	orange	9.0	cue_switch	color	stay	stim	poldrack-single-stim	s358	0	False
50.282	1.0	51.744	0.9	2.0	True	71.0	Magnitude	n/a	twobytwo	71.0	0.562	orange	1.0	task_switch	magnitude	switch	stim	poldrack-single-stim	s358	0	False
52.387	1.0	53.352	0.1	2.272	False	71.0	Orange-Blue	n/a	twobytwo	89.0	0.865	blue	6.0	task_switch	color	switch	stim	poldrack-single-stim	s358	0	False
54.765	1.0	54.764	0.1	2.136	False	71.0	High-Low	n/a	twobytwo	-1.0	n/a	orange	2.0	task_switch	magnitude	switch	stim	poldrack-single-stim	s358	0	False
57.006	1.0	57.736	0.1	2.0	True	71.0	Magnitude	switch	twobytwo	71.0	0.63	orange	4.0	cue_switch	magnitude	stay	stim	poldrack-single-stim	s358	0	False
59.911	1.0	61.303	0.9	2.0	True	71.0	Magnitude	stay	twobytwo	71.0	0.492	orange	1.0	cue_stay	magnitude	stay	stim	poldrack-single-stim	s358	0	False
62.014	1.0	62.671	0.1	2.0	True	89.0	Magnitude	stay	twobytwo	89.0	0.557	orange	9.0	cue_stay	magnitude	stay	stim	poldrack-single-stim	s358	0	False
64.919	1.0	66.332	0.9	2.68	True	71.0	Magnitude	stay	twobytwo	71.0	0.513	blue	4.0	cue_stay	magnitude	stay	stim	poldrack-single-stim	s358	0	False
68.503	1.0	69.946	0.9	2.0	False	71.0	Color	n/a	twobytwo	89.0	0.543	blue	7.0	task_switch	color	switch	stim	poldrack-single-stim	s358	0	False
70.608	1.0	71.914	0.1	2.272	True	89.0	High-Low	n/a	twobytwo	89.0	1.206	blue	9.0	task_switch	magnitude	switch	stim	poldrack-single-stim	s358	0	False
72.985	1.0	74.03	0.1	2.0	True	89.0	Orange-Blue	n/a	twobytwo	89.0	0.945	orange	9.0	task_switch	color	switch	stim	poldrack-single-stim	s358	0	False
75.09	1.0	76.424	0.1	2.272	True	71.0	Color	switch	twobytwo	71.0	1.234	blue	3.0	cue_switch	color	stay	stim	poldrack-single-stim	s358	0	False
78.266	1.0	79.77	0.9	2.952	True	71.0	Orange-Blue	switch	twobytwo	71.0	0.604	blue	8.0	cue_switch	color	stay	stim	poldrack-single-stim	s358	0	False
81.322	1.0	82.252	0.1	2.0	True	89.0	Magnitude	n/a	twobytwo	89.0	0.83	orange	9.0	task_switch	magnitude	switch	stim	poldrack-single-stim	s358	0	False
83.426	1.0	84.205	0.1	2.0	True	71.0	High-Low	switch	twobytwo	71.0	0.679	blue	4.0	cue_switch	magnitude	stay	stim	poldrack-single-stim	s358	0	False
85.53	1.0	86.477	0.1	2.0	True	89.0	Color	n/a	twobytwo	89.0	0.847	orange	1.0	task_switch	color	switch	stim	poldrack-single-stim	s358	0	False
87.635	1.0	88.41	0.1	2.0	True	89.0	Color	stay	twobytwo	89.0	0.675	orange	7.0	cue_stay	color	stay	stim	poldrack-single-stim	s358	0	False
90.538	1.0	91.906	0.9	2.136	True	89.0	Orange-Blue	switch	twobytwo	89.0	0.468	orange	3.0	cue_switch	color	stay	stim	poldrack-single-stim	s358	0	False
92.778	1.0	93.884	0.1	2.0	True	89.0	High-Low	n/a	twobytwo	89.0	1.006	blue	6.0	task_switch	magnitude	switch	stim	poldrack-single-stim	s358	0	False
94.883	1.0	95.852	0.1	2.0	True	89.0	Orange-Blue	n/a	twobytwo	89.0	0.869	orange	2.0	task_switch	color	switch	stim	poldrack-single-stim	s358	0	False
96.987	1.0	97.764	0.1	2.0	True	89.0	Color	switch	twobytwo	89.0	0.677	orange	2.0	cue_switch	color	stay	stim	poldrack-single-stim	s358	0	False
99.091	1.0	99.962	0.1	2.272	False	89.0	Magnitude	n/a	twobytwo	71.0	0.771	blue	7.0	task_switch	magnitude	switch	stim	poldrack-single-stim	s358	0	False
101.467	1.0	102.4	0.1	2.136	True	71.0	Color	n/a	twobytwo	71.0	0.833	blue	6.0	task_switch	color	switch	stim	poldrack-single-stim	s358	0	False
104.509	1.0	106.28	0.9	2.0	True	71.0	Magnitude	n/a	twobytwo	71.0	0.871	orange	1.0	task_switch	magnitude	switch	stim	poldrack-single-stim	s358	0	False
107.414	1.0	108.715	0.9	2.136	True	89.0	Orange-Blue	n/a	twobytwo	89.0	0.401	orange	7.0	task_switch	color	switch	stim	poldrack-single-stim	s358	0	False
109.653	1.0	110.375	0.1	2.816	True	71.0	High-Low	n/a	twobytwo	71.0	0.622	blue	2.0	task_switch	magnitude	switch	stim	poldrack-single-stim	s358	0	False
112.574	1.0	113.317	0.1	2.408	True	71.0	Magnitude	switch	twobytwo	71.0	0.643	orange	4.0	cue_switch	magnitude	stay	stim	poldrack-single-stim	s358	0	False
115.886	1.0	117.309	0.9	2.0	True	71.0	Color	n/a	twobytwo	71.0	0.523	blue	6.0	task_switch	color	switch	stim	poldrack-single-stim	s358	0	False
118.789	1.0	120.111	0.9	2.136	True	71.0	High-Low	n/a	twobytwo	71.0	0.422	orange	1.0	task_switch	magnitude	switch	stim	poldrack-single-stim	s358	0	False
121.03	1.0	121.855	0.1	2.136	True	89.0	High-Low	stay	twobytwo	89.0	0.725	orange	7.0	cue_stay	magnitude	stay	stim	poldrack-single-stim	s358	0	False
124.07	1.0	125.462	0.9	2.136	True	71.0	Magnitude	switch	twobytwo	71.0	0.492	orange	1.0	cue_switch	magnitude	stay	stim	poldrack-single-stim	s358	0	False
126.311	1.0	127.517	0.1	2.544	True	89.0	Orange-Blue	n/a	twobytwo	89.0	1.106	orange	4.0	task_switch	color	switch	stim	poldrack-single-stim	s358	0	False
129.76	1.0	131.301	0.9	2.136	True	89.0	Magnitude	n/a	twobytwo	89.0	0.641	blue	6.0	task_switch	magnitude	switch	stim	poldrack-single-stim	s358	0	False
131.999	1.0	132.96	0.1	2.0	True	89.0	Color	n/a	twobytwo	89.0	0.861	orange	4.0	task_switch	color	switch	stim	poldrack-single-stim	s358	0	False
134.104	1.0	135.574	0.1	2.0	True	89.0	High-Low	n/a	twobytwo	89.0	1.37	blue	8.0	task_switch	magnitude	switch	stim	poldrack-single-stim	s358	0	False
137.009	1.0	138.517	0.9	2.0	True	89.0	High-Low	stay	twobytwo	89.0	0.608	orange	6.0	cue_stay	magnitude	stay	stim	poldrack-single-stim	s358	0	False
139.912	1.0	141.377	0.9	2.0	True	89.0	Color	n/a	twobytwo	89.0	0.565	orange	3.0	task_switch	color	switch	stim	poldrack-single-stim	s358	0	False
142.818	1.0	144.321	0.9	2.136	True	71.0	Magnitude	n/a	twobytwo	71.0	0.603	blue	4.0	task_switch	magnitude	switch	stim	poldrack-single-stim	s358	0	False
145.858	1.0	147.433	0.9	2.0	False	89.0	High-Low	switch	twobytwo	71.0	0.675	blue	6.0	cue_switch	magnitude	stay	stim	poldrack-single-stim	s358	0	False
148.761	1.0	150.345	0.9	2.0	True	71.0	Magnitude	switch	twobytwo	71.0	0.684	blue	1.0	cue_switch	magnitude	stay	stim	poldrack-single-stim	s358	0	False
150.866	1.0	151.589	0.1	2.0	True	89.0	Magnitude	stay	twobytwo	89.0	0.623	blue	9.0	cue_stay	magnitude	stay	stim	poldrack-single-stim	s358	0	False
153.771	1.0	155.699	0.9	2.136	True	71.0	Color	n/a	twobytwo	71.0	1.028	blue	9.0	task_switch	color	switch	stim	poldrack-single-stim	s358	0	False
156.012	1.0	156.011	0.1	2.136	False	89.0	Magnitude	n/a	twobytwo	-1.0	n/a	blue	8.0	task_switch	magnitude	switch	stim	poldrack-single-stim	s358	0	False
158.253	1.0	159.104	0.1	2.136	True	89.0	Magnitude	stay	twobytwo	89.0	0.751	blue	7.0	cue_stay	magnitude	stay	stim	poldrack-single-stim	s358	0	False
161.293	1.0	163.226	0.9	2.136	True	71.0	Color	n/a	twobytwo	71.0	1.033	blue	6.0	task_switch	color	switch	stim	poldrack-single-stim	s358	0	False
163.533	1.0	164.253	0.1	2.68	True	89.0	Color	stay	twobytwo	89.0	0.62	orange	9.0	cue_stay	color	stay	stim	poldrack-single-stim	s358	0	False
166.317	1.0	167.101	0.1	2.544	True	71.0	Orange-Blue	switch	twobytwo	71.0	0.684	blue	1.0	cue_switch	color	stay	stim	poldrack-single-stim	s358	0	False
169.766	1.0	171.081	0.9	2.272	True	89.0	Color	switch	twobytwo	89.0	0.415	orange	6.0	cue_switch	color	stay	stim	poldrack-single-stim	s358	0	False
172.143	1.0	172.973	0.1	2.272	True	71.0	Orange-Blue	switch	twobytwo	71.0	0.73	blue	1.0	cue_switch	color	stay	stim	poldrack-single-stim	s358	0	False
174.519	1.0	175.602	0.1	2.408	True	89.0	Magnitude	n/a	twobytwo	89.0	0.983	blue	6.0	task_switch	magnitude	switch	stim	poldrack-single-stim	s358	0	False
177.033	1.0	177.726	0.1	2.136	True	89.0	Magnitude	stay	twobytwo	89.0	0.593	orange	9.0	cue_stay	magnitude	stay	stim	poldrack-single-stim	s358	0	False
180.074	1.0	181.469	0.9	2.272	True	89.0	Color	n/a	twobytwo	89.0	0.495	orange	3.0	task_switch	color	switch	stim	poldrack-single-stim	s358	0	False
182.452	1.0	183.25	0.1	2.0	True	71.0	Orange-Blue	switch	twobytwo	71.0	0.698	blue	9.0	cue_switch	color	stay	stim	poldrack-single-stim	s358	0	False
184.557	1.0	185.833	0.1	2.136	True	71.0	Color	switch	twobytwo	71.0	1.176	blue	9.0	cue_switch	color	stay	stim	poldrack-single-stim	s358	0	False
187.596	1.0	189.127	0.9	2.272	True	71.0	Color	stay	twobytwo	71.0	0.631	blue	8.0	cue_stay	color	stay	stim	poldrack-single-stim	s358	0	False
190.772	1.0	192.215	0.9	2.0	True	89.0	High-Low	n/a	twobytwo	89.0	0.543	orange	9.0	task_switch	magnitude	switch	stim	poldrack-single-stim	s358	0	False
193.677	1.0	195.412	0.9	2.68	True	71.0	Orange-Blue	n/a	twobytwo	71.0	0.835	blue	1.0	task_switch	color	switch	stim	poldrack-single-stim	s358	0	False
196.461	1.0	198.395	0.1	2.0	True	71.0	Color	switch	twobytwo	71.0	1.834	blue	9.0	cue_switch	color	stay	stim	poldrack-single-stim	s358	0	False
198.564	1.0	199.52	0.1	2.0	True	89.0	Magnitude	n/a	twobytwo	89.0	0.856	blue	9.0	task_switch	magnitude	switch	stim	poldrack-single-stim	s358	0	False
201.469	1.0	202.824	0.9	2.0	True	89.0	Magnitude	stay	twobytwo	89.0	0.455	blue	7.0	cue_stay	magnitude	stay	stim	poldrack-single-stim	s358	0	False
204.372	1.0	206.202	0.9	2.272	True	89.0	Color	n/a	twobytwo	89.0	0.93	orange	8.0	task_switch	color	switch	stim	poldrack-single-stim	s358	0	False
207.55	1.0	209.614	0.9	2.0	True	89.0	High-Low	n/a	twobytwo	89.0	1.164	blue	6.0	task_switch	magnitude	switch	stim	poldrack-single-stim	s358	0	False
209.656	1.0	210.372	0.1	2.0	True	89.0	Orange-Blue	n/a	twobytwo	89.0	0.616	orange	9.0	task_switch	color	switch	stim	poldrack-single-stim	s358	0	False
211.759	1.0	212.483	0.1	2.0	True	71.0	High-Low	n/a	twobytwo	71.0	0.624	orange	1.0	task_switch	magnitude	switch	stim	poldrack-single-stim	s358	0	False
228.174	1.0	229.519	0.9	2.68	True	71.0	Color	switch	twobytwo	71.0	0.445	blue	7.0	cue_switch	color	stay	stim	poldrack-single-stim	s358	1	False
230.958	1.0	232.055	0.1	2.0	True	71.0	Magnitude	n/a	twobytwo	71.0	0.997	blue	1.0	task_switch	magnitude	switch	stim	poldrack-single-stim	s358	0	False
233.862	1.0	235.249	0.9	2.136	True	71.0	Orange-Blue	n/a	twobytwo	71.0	0.487	blue	2.0	task_switch	color	switch	stim	poldrack-single-stim	s358	0	False
236.901	1.0	238.27	0.9	2.408	True	71.0	Orange-Blue	stay	twobytwo	71.0	0.469	blue	8.0	cue_stay	color	stay	stim	poldrack-single-stim	s358	0	False
239.414	1.0	240.383	0.1	2.136	True	89.0	Magnitude	n/a	twobytwo	89.0	0.869	blue	7.0	task_switch	magnitude	switch	stim	poldrack-single-stim	s358	0	False
241.654	1.0	242.369	0.1	2.0	True	71.0	Magnitude	stay	twobytwo	71.0	0.615	orange	2.0	cue_stay	magnitude	stay	stim	poldrack-single-stim	s358	0	False
244.558	1.0	246.485	0.9	2.0	True	71.0	High-Low	switch	twobytwo	71.0	1.027	blue	1.0	cue_switch	magnitude	stay	stim	poldrack-single-stim	s358	0	False
246.662	1.0	247.392	0.1	2.544	True	89.0	High-Low	stay	twobytwo	89.0	0.63	blue	7.0	cue_stay	magnitude	stay	stim	poldrack-single-stim	s358	0	False
250.112	1.0	251.719	0.9	2.136	True	71.0	High-Low	stay	twobytwo	71.0	0.707	orange	2.0	cue_stay	magnitude	stay	stim	poldrack-single-stim	s358	0	False
252.352	1.0	253.396	0.1	2.544	True	89.0	Color	n/a	twobytwo	89.0	0.944	orange	3.0	task_switch	color	switch	stim	poldrack-single-stim	s358	0	False
255.801	1.0	257.736	0.9	2.68	True	89.0	Magnitude	n/a	twobytwo	89.0	1.035	orange	9.0	task_switch	magnitude	switch	stim	poldrack-single-stim	s358	0	False
258.586	1.0	259.326	0.1	2.0	False	71.0	Magnitude	stay	twobytwo	89.0	0.64	orange	3.0	cue_stay	magnitude	stay	stim	poldrack-single-stim	s358	0	False
260.688	1.0	261.579	0.1	2.272	True	71.0	High-Low	switch	twobytwo	71.0	0.791	orange	1.0	cue_switch	magnitude	stay	stim	poldrack-single-stim	s358	0	False
263.065	1.0	263.91	0.1	3.088	True	71.0	High-Low	stay	twobytwo	71.0	0.745	orange	4.0	cue_stay	magnitude	stay	stim	poldrack-single-stim	s358	0	False
266.257	1.0	267.107	0.1	2.0	True	89.0	Color	n/a	twobytwo	89.0	0.75	orange	3.0	task_switch	color	switch	stim	poldrack-single-stim	s358	0	False
268.364	1.0	269.161	0.1	2.136	True	89.0	Orange-Blue	switch	twobytwo	89.0	0.697	orange	3.0	cue_switch	color	stay	stim	poldrack-single-stim	s358	0	False
271.405	1.0	272.803	0.9	2.136	True	89.0	Color	switch	twobytwo	89.0	0.498	orange	9.0	cue_switch	color	stay	stim	poldrack-single-stim	s358	0	False
274.444	1.0	276.148	0.9	2.0	True	71.0	High-Low	n/a	twobytwo	71.0	0.804	orange	1.0	task_switch	magnitude	switch	stim	poldrack-single-stim	s358	0	False
276.548	1.0	277.611	0.1	2.272	True	71.0	Color	n/a	twobytwo	71.0	0.963	blue	6.0	task_switch	color	switch	stim	poldrack-single-stim	s358	0	False
278.925	1.0	279.79	0.1	2.0	True	71.0	Magnitude	n/a	twobytwo	71.0	0.765	orange	2.0	task_switch	magnitude	switch	stim	poldrack-single-stim	s358	0	False
281.031	1.0	282.109	0.1	2.136	True	71.0	High-Low	switch	twobytwo	71.0	0.978	orange	4.0	cue_switch	magnitude	stay	stim	poldrack-single-stim	s358	0	False
284.072	1.0	285.516	0.9	2.136	True	71.0	High-Low	stay	twobytwo	71.0	0.544	orange	1.0	cue_stay	magnitude	stay	stim	poldrack-single-stim	s358	0	False
286.312	1.0	287.242	0.1	2.544	True	89.0	High-Low	stay	twobytwo	89.0	0.83	orange	9.0	cue_stay	magnitude	stay	stim	poldrack-single-stim	s358	0	False
289.76	1.0	291.104	0.9	2.0	True	71.0	High-Low	stay	twobytwo	71.0	0.444	blue	4.0	cue_stay	magnitude	stay	stim	poldrack-single-stim	s358	0	False
292.664	1.0	294.684	0.9	2.136	True	71.0	Orange-Blue	n/a	twobytwo	71.0	1.12	blue	7.0	task_switch	color	switch	stim	poldrack-single-stim	s358	0	False
294.904	1.0	295.928	0.1	2.136	True	89.0	Magnitude	n/a	twobytwo	89.0	0.924	blue	9.0	task_switch	magnitude	switch	stim	poldrack-single-stim	s358	0	False
297.144	1.0	298.061	0.1	2.136	True	89.0	Orange-Blue	n/a	twobytwo	89.0	0.817	orange	9.0	task_switch	color	switch	stim	poldrack-single-stim	s358	0	False
299.384	1.0	300.222	0.1	2.0	True	71.0	Color	switch	twobytwo	71.0	0.738	blue	3.0	cue_switch	color	stay	stim	poldrack-single-stim	s358	0	False
302.289	1.0	303.881	0.9	2.136	True	71.0	Orange-Blue	switch	twobytwo	71.0	0.692	blue	8.0	cue_switch	color	stay	stim	poldrack-single-stim	s358	0	False
304.53	1.0	305.332	0.1	2.0	True	89.0	High-Low	n/a	twobytwo	89.0	0.702	orange	9.0	task_switch	magnitude	switch	stim	poldrack-single-stim	s358	0	False
306.634	1.0	307.607	0.1	2.136	True	71.0	Magnitude	switch	twobytwo	71.0	0.873	blue	4.0	cue_switch	magnitude	stay	stim	poldrack-single-stim	s358	0	False
308.875	1.0	309.985	0.1	2.816	True	89.0	Orange-Blue	n/a	twobytwo	89.0	1.01	orange	1.0	task_switch	color	switch	stim	poldrack-single-stim	s358	0	False
311.796	1.0	313.12	0.1	2.136	True	89.0	Orange-Blue	stay	twobytwo	89.0	1.224	orange	7.0	cue_stay	color	stay	stim	poldrack-single-stim	s358	0	False
314.836	1.0	316.189	0.9	2.0	True	89.0	Color	switch	twobytwo	89.0	0.453	orange	3.0	cue_switch	color	stay	stim	poldrack-single-stim	s358	0	False
316.94	1.0	317.92	0.1	2.0	True	89.0	Magnitude	n/a	twobytwo	89.0	0.88	blue	6.0	task_switch	magnitude	switch	stim	poldrack-single-stim	s358	0	False
319.045	1.0	320.191	0.1	2.272	True	89.0	Color	n/a	twobytwo	89.0	1.046	orange	2.0	task_switch	color	switch	stim	poldrack-single-stim	s358	0	False
321.423	1.0	322.071	0.1	2.0	True	89.0	Orange-Blue	switch	twobytwo	89.0	0.548	orange	2.0	cue_switch	color	stay	stim	poldrack-single-stim	s358	0	False
323.527	1.0	324.688	0.1	2.0	True	89.0	High-Low	n/a	twobytwo	89.0	1.061	blue	7.0	task_switch	magnitude	switch	stim	poldrack-single-stim	s358	0	False
325.631	1.0	326.415	0.1	2.0	True	71.0	Color	n/a	twobytwo	71.0	0.684	blue	6.0	task_switch	color	switch	stim	poldrack-single-stim	s358	0	False
328.536	1.0	330.11	0.9	2.408	True	71.0	High-Low	n/a	twobytwo	71.0	0.674	orange	1.0	task_switch	magnitude	switch	stim	poldrack-single-stim	s358	0	False
331.847	1.0	333.688	0.9	2.272	True	89.0	Orange-Blue	n/a	twobytwo	89.0	0.941	orange	7.0	task_switch	color	switch	stim	poldrack-single-stim	s358	0	False
334.223	1.0	335.207	0.1	2.136	True	71.0	Magnitude	n/a	twobytwo	71.0	0.884	blue	2.0	task_switch	magnitude	switch	stim	poldrack-single-stim	s358	0	False
336.464	1.0	337.507	0.1	2.0	True	71.0	High-Low	switch	twobytwo	71.0	0.943	orange	4.0	cue_switch	magnitude	stay	stim	poldrack-single-stim	s358	0	False
339.368	1.0	340.682	0.9	2.0	True	71.0	Orange-Blue	n/a	twobytwo	71.0	0.414	blue	6.0	task_switch	color	switch	stim	poldrack-single-stim	s358	0	False
342.272	1.0	343.783	0.9	2.136	True	71.0	Magnitude	n/a	twobytwo	71.0	0.611	orange	1.0	task_switch	magnitude	switch	stim	poldrack-single-stim	s358	0	False
344.511	1.0	345.407	0.1	2.0	True	89.0	Magnitude	stay	twobytwo	89.0	0.796	orange	7.0	cue_stay	magnitude	stay	stim	poldrack-single-stim	s358	0	False
347.413	1.0	348.979	0.9	2.136	True	71.0	High-Low	switch	twobytwo	71.0	0.666	orange	1.0	cue_switch	magnitude	stay	stim	poldrack-single-stim	s358	0	False
349.654	1.0	350.704	0.1	2.408	True	89.0	Color	n/a	twobytwo	89.0	0.95	orange	4.0	task_switch	color	switch	stim	poldrack-single-stim	s358	0	False
352.965	1.0	354.5	0.9	2.136	False	89.0	Magnitude	n/a	twobytwo	71.0	0.635	blue	6.0	task_switch	magnitude	switch	stim	poldrack-single-stim	s358	0	False
355.205	1.0	356.362	0.1	2.0	True	89.0	Orange-Blue	n/a	twobytwo	89.0	1.057	orange	4.0	task_switch	color	switch	stim	poldrack-single-stim	s358	0	False
357.31	1.0	358.467	0.1	2.136	True	89.0	High-Low	n/a	twobytwo	89.0	1.057	blue	8.0	task_switch	magnitude	switch	stim	poldrack-single-stim	s358	0	False
360.352	1.0	361.665	0.9	2.272	False	89.0	High-Low	stay	twobytwo	71.0	0.413	orange	6.0	cue_stay	magnitude	stay	stim	poldrack-single-stim	s358	0	False
363.529	1.0	364.882	0.9	2.0	True	89.0	Color	n/a	twobytwo	89.0	0.453	orange	3.0	task_switch	color	switch	stim	poldrack-single-stim	s358	0	False
366.433	1.0	368.077	0.9	2.408	True	71.0	High-Low	n/a	twobytwo	71.0	0.744	blue	4.0	task_switch	magnitude	switch	stim	poldrack-single-stim	s358	0	False
369.747	1.0	371.146	0.9	2.0	True	89.0	Magnitude	switch	twobytwo	89.0	0.499	blue	6.0	cue_switch	magnitude	stay	stim	poldrack-single-stim	s358	0	False
372.652	1.0	374.143	0.9	2.136	True	71.0	High-Low	switch	twobytwo	71.0	0.591	blue	1.0	cue_switch	magnitude	stay	stim	poldrack-single-stim	s358	0	False
374.891	1.0	375.818	0.1	2.408	True	89.0	High-Low	stay	twobytwo	89.0	0.827	blue	9.0	cue_stay	magnitude	stay	stim	poldrack-single-stim	s358	0	False
378.204	1.0	379.598	0.9	2.136	True	71.0	Orange-Blue	n/a	twobytwo	71.0	0.494	blue	9.0	task_switch	color	switch	stim	poldrack-single-stim	s358	0	False
380.444	1.0	381.767	0.1	2.408	True	89.0	Magnitude	n/a	twobytwo	89.0	1.223	blue	8.0	task_switch	magnitude	switch	stim	poldrack-single-stim	s358	0	False
382.956	1.0	383.7	0.1	2.136	True	89.0	Magnitude	stay	twobytwo	89.0	0.644	blue	7.0	cue_stay	magnitude	stay	stim	poldrack-single-stim	s358	0	False
385.996	1.0	387.552	0.9	2.0	True	71.0	Orange-Blue	n/a	twobytwo	71.0	0.656	blue	6.0	task_switch	color	switch	stim	poldrack-single-stim	s358	0	False
388.101	1.0	388.946	0.1	2.272	True	89.0	Orange-Blue	stay	twobytwo	89.0	0.745	orange	9.0	cue_stay	color	stay	stim	poldrack-single-stim	s358	0	False
390.476	1.0	391.693	0.1	2.0	True	71.0	Color	switch	twobytwo	71.0	1.117	blue	1.0	cue_switch	color	stay	stim	poldrack-single-stim	s358	0	False
393.381	1.0	394.913	0.9	2.272	True	89.0	Orange-Blue	switch	twobytwo	89.0	0.632	orange	6.0	cue_switch	color	stay	stim	poldrack-single-stim	s358	0	False
395.756	1.0	396.803	0.1	2.272	True	71.0	Color	switch	twobytwo	71.0	0.947	blue	1.0	cue_switch	color	stay	stim	poldrack-single-stim	s358	0	False
398.133	1.0	399.004	0.1	2.952	False	89.0	High-Low	n/a	twobytwo	71.0	0.771	blue	6.0	task_switch	magnitude	switch	stim	poldrack-single-stim	s358	0	False
401.191	1.0	402.094	0.1	2.68	True	89.0	High-Low	stay	twobytwo	89.0	0.803	orange	9.0	cue_stay	magnitude	stay	stim	poldrack-single-stim	s358	0	False
404.776	1.0	406.179	0.9	2.136	True	89.0	Color	n/a	twobytwo	89.0	0.503	orange	3.0	task_switch	color	switch	stim	poldrack-single-stim	s358	0	False
407.016	1.0	407.94	0.1	2.272	True	71.0	Orange-Blue	switch	twobytwo	71.0	0.824	blue	9.0	cue_switch	color	stay	stim	poldrack-single-stim	s358	0	False
409.392	1.0	410.243	0.1	2.272	True	71.0	Color	switch	twobytwo	71.0	0.751	blue	9.0	cue_switch	color	stay	stim	poldrack-single-stim	s358	0	False
412.568	1.0	414.053	0.9	2.136	True	71.0	Color	stay	twobytwo	71.0	0.585	blue	8.0	cue_stay	color	stay	stim	poldrack-single-stim	s358	0	False
415.608	1.0	417.151	0.9	2.408	True	89.0	Magnitude	n/a	twobytwo	89.0	0.643	orange	9.0	task_switch	magnitude	switch	stim	poldrack-single-stim	s358	0	False
418.921	1.0	420.663	0.9	2.136	True	71.0	Orange-Blue	n/a	twobytwo	71.0	0.842	blue	1.0	task_switch	color	switch	stim	poldrack-single-stim	s358	0	False
421.163	1.0	422.196	0.1	2.136	True	71.0	Color	switch	twobytwo	71.0	0.933	blue	9.0	cue_switch	color	stay	stim	poldrack-single-stim	s358	0	False
423.403	1.0	424.363	0.1	2.0	True	89.0	Magnitude	n/a	twobytwo	89.0	0.86	blue	9.0	task_switch	magnitude	switch	stim	poldrack-single-stim	s358	0	False
426.307	1.0	427.861	0.9	2.0	True	89.0	Magnitude	stay	twobytwo	89.0	0.654	blue	7.0	cue_stay	magnitude	stay	stim	poldrack-single-stim	s358	0	False
429.212	1.0	430.647	0.9	2.0	True	89.0	Color	n/a	twobytwo	89.0	0.535	orange	8.0	task_switch	color	switch	stim	poldrack-single-stim	s358	0	False
432.115	1.0	433.532	0.9	2.0	True	89.0	Magnitude	n/a	twobytwo	89.0	0.517	blue	6.0	task_switch	magnitude	switch	stim	poldrack-single-stim	s358	0	False
434.22	1.0	435.354	0.1	2.0	True	89.0	Color	n/a	twobytwo	89.0	1.034	orange	9.0	task_switch	color	switch	stim	poldrack-single-stim	s358	0	False
436.324	1.0	437.199	0.1	2.272	True	71.0	High-Low	n/a	twobytwo	71.0	0.775	orange	1.0	task_switch	magnitude	switch	stim	poldrack-single-stim	s358	0	False
453.01	1.0	454.548	0.9	2.408	True	89.0	Magnitude	switch	twobytwo	89.0	0.638	blue	7.0	cue_switch	magnitude	stay	stim	poldrack-single-stim	s358	1	False
455.522	1.0	456.284	0.1	2.0	True	71.0	Color	n/a	twobytwo	71.0	0.662	blue	1.0	task_switch	color	switch	stim	poldrack-single-stim	s358	0	False
458.426	1.0	460.195	0.9	2.136	False	71.0	High-Low	n/a	twobytwo	89.0	0.869	blue	2.0	task_switch	magnitude	switch	stim	poldrack-single-stim	s358	0	False
461.466	1.0	462.857	0.9	2.0	True	89.0	High-Low	stay	twobytwo	89.0	0.491	blue	8.0	cue_stay	magnitude	stay	stim	poldrack-single-stim	s358	0	False
463.57	1.0	464.794	0.1	2.136	True	71.0	Color	n/a	twobytwo	71.0	1.124	blue	7.0	task_switch	color	switch	stim	poldrack-single-stim	s358	0	False
465.811	1.0	466.541	0.1	2.544	True	89.0	Color	stay	twobytwo	89.0	0.63	orange	2.0	cue_stay	color	stay	stim	poldrack-single-stim	s358	0	False
469.258	1.0	471.253	0.9	2.68	True	71.0	Orange-Blue	switch	twobytwo	71.0	1.095	blue	1.0	cue_switch	color	stay	stim	poldrack-single-stim	s358	0	False
472.042	1.0	472.877	0.1	3.088	True	71.0	Orange-Blue	stay	twobytwo	71.0	0.735	blue	7.0	cue_stay	color	stay	stim	poldrack-single-stim	s358	0	False
476.035	1.0	477.421	0.9	2.136	True	89.0	Orange-Blue	stay	twobytwo	89.0	0.486	orange	2.0	cue_stay	color	stay	stim	poldrack-single-stim	s358	0	False
478.275	1.0	479.371	0.1	2.544	True	71.0	Magnitude	n/a	twobytwo	71.0	0.996	orange	3.0	task_switch	magnitude	switch	stim	poldrack-single-stim	s358	0	False
481.723	1.0	483.142	0.9	2.0	True	89.0	Orange-Blue	n/a	twobytwo	89.0	0.519	orange	9.0	task_switch	color	switch	stim	poldrack-single-stim	s358	0	False
483.829	1.0	484.612	0.1	2.136	True	89.0	Orange-Blue	stay	twobytwo	89.0	0.683	orange	3.0	cue_stay	color	stay	stim	poldrack-single-stim	s358	0	False
486.07	1.0	486.764	0.1	2.0	True	89.0	Color	switch	twobytwo	89.0	0.594	orange	1.0	cue_switch	color	stay	stim	poldrack-single-stim	s358	0	False
488.173	1.0	488.83	0.1	2.408	True	89.0	Color	stay	twobytwo	89.0	0.557	orange	4.0	cue_stay	color	stay	stim	poldrack-single-stim	s358	0	False
490.686	1.0	491.428	0.1	2.0	False	71.0	High-Low	n/a	twobytwo	89.0	0.642	orange	3.0	task_switch	magnitude	switch	stim	poldrack-single-stim	s358	0	False
492.79	1.0	493.51	0.1	2.0	True	71.0	Magnitude	switch	twobytwo	71.0	0.62	orange	3.0	cue_switch	magnitude	stay	stim	poldrack-single-stim	s358	0	False
495.694	1.0	497.161	0.9	2.0	False	89.0	High-Low	switch	twobytwo	71.0	0.567	orange	9.0	cue_switch	magnitude	stay	stim	poldrack-single-stim	s358	0	False
498.598	1.0	499.984	0.9	2.68	True	89.0	Color	n/a	twobytwo	89.0	0.486	orange	1.0	task_switch	color	switch	stim	poldrack-single-stim	s358	0	False
501.382	1.0	503.173	0.1	2.272	True	89.0	High-Low	n/a	twobytwo	89.0	1.691	blue	6.0	task_switch	magnitude	switch	stim	poldrack-single-stim	s358	0	False
503.76	1.0	504.9	0.1	2.408	True	89.0	Color	n/a	twobytwo	89.0	1.04	orange	2.0	task_switch	color	switch	stim	poldrack-single-stim	s358	0	False
506.272	1.0	507.605	0.1	3.224	True	89.0	Orange-Blue	switch	twobytwo	89.0	1.233	orange	4.0	cue_switch	color	stay	stim	poldrack-single-stim	s358	0	False
510.402	1.0	511.721	0.9	2.408	True	89.0	Orange-Blue	stay	twobytwo	89.0	0.419	orange	1.0	cue_stay	color	stay	stim	poldrack-single-stim	s358	0	False
512.913	1.0	513.576	0.1	2.816	True	89.0	Orange-Blue	stay	twobytwo	89.0	0.563	orange	9.0	cue_stay	color	stay	stim	poldrack-single-stim	s358	0	False
516.634	1.0	517.968	0.9	2.408	True	71.0	Orange-Blue	stay	twobytwo	71.0	0.434	blue	4.0	cue_stay	color	stay	stim	poldrack-single-stim	s358	0	False
519.947	1.0	521.732	0.9	2.136	True	89.0	Magnitude	n/a	twobytwo	89.0	0.885	blue	7.0	task_switch	magnitude	switch	stim	poldrack-single-stim	s358	0	False
522.189	1.0	523.39	0.1	2.136	False	71.0	Color	n/a	twobytwo	89.0	1.101	blue	9.0	task_switch	color	switch	stim	poldrack-single-stim	s358	0	False
524.429	1.0	525.255	0.1	2.0	True	89.0	Magnitude	n/a	twobytwo	89.0	0.726	orange	9.0	task_switch	magnitude	switch	stim	poldrack-single-stim	s358	0	False
526.533	1.0	526.532	0.1	2.0	False	71.0	High-Low	switch	twobytwo	-1.0	n/a	blue	3.0	cue_switch	magnitude	stay	stim	poldrack-single-stim	s358	0	False
529.437	1.0	530.809	0.9	2.272	True	89.0	Magnitude	switch	twobytwo	89.0	0.472	blue	8.0	cue_switch	magnitude	stay	stim	poldrack-single-stim	s358	0	False
531.815	1.0	532.854	0.1	2.408	True	89.0	Color	n/a	twobytwo	89.0	0.939	orange	9.0	task_switch	color	switch	stim	poldrack-single-stim	s358	0	False
534.327	1.0	535.094	0.1	2.0	True	71.0	Orange-Blue	switch	twobytwo	71.0	0.667	blue	4.0	cue_switch	color	stay	stim	poldrack-single-stim	s358	0	False
536.433	1.0	537.489	0.1	2.136	False	71.0	Magnitude	n/a	twobytwo	89.0	0.956	orange	1.0	task_switch	magnitude	switch	stim	poldrack-single-stim	s358	0	False
538.672	1.0	539.512	0.1	2.0	True	89.0	Magnitude	stay	twobytwo	89.0	0.74	orange	7.0	cue_stay	magnitude	stay	stim	poldrack-single-stim	s358	0	False
541.576	1.0	543.148	0.9	2.408	True	71.0	High-Low	switch	twobytwo	71.0	0.672	orange	3.0	cue_switch	magnitude	stay	stim	poldrack-single-stim	s358	0	False
544.088	1.0	545.167	0.1	2.272	True	71.0	Orange-Blue	n/a	twobytwo	71.0	0.979	blue	6.0	task_switch	color	switch	stim	poldrack-single-stim	s358	0	False
546.465	1.0	547.611	0.1	2.0	True	71.0	Magnitude	n/a	twobytwo	71.0	1.046	orange	2.0	task_switch	magnitude	switch	stim	poldrack-single-stim	s358	0	False
548.568	1.0	549.527	0.1	2.272	True	71.0	High-Low	switch	twobytwo	71.0	0.859	orange	2.0	cue_switch	magnitude	stay	stim	poldrack-single-stim	s358	0	False
550.945	1.0	551.923	0.1	2.0	True	71.0	Color	n/a	twobytwo	71.0	0.878	blue	7.0	task_switch	color	switch	stim	poldrack-single-stim	s358	0	False
553.048	1.0	553.981	0.1	2.0	True	89.0	High-Low	n/a	twobytwo	89.0	0.833	blue	6.0	task_switch	magnitude	switch	stim	poldrack-single-stim	s358	0	False
555.953	1.0	557.278	0.9	2.272	True	89.0	Orange-Blue	n/a	twobytwo	89.0	0.425	orange	1.0	task_switch	color	switch	stim	poldrack-single-stim	s358	0	False
559.129	1.0	560.746	0.9	2.136	True	89.0	Magnitude	n/a	twobytwo	89.0	0.717	orange	7.0	task_switch	magnitude	switch	stim	poldrack-single-stim	s358	0	False
561.369	1.0	562.427	0.1	2.0	True	71.0	Orange-Blue	n/a	twobytwo	71.0	0.958	blue	2.0	task_switch	color	switch	stim	poldrack-single-stim	s358	0	False
563.473	1.0	564.608	0.1	2.0	True	89.0	Color	switch	twobytwo	89.0	1.035	orange	4.0	cue_switch	color	stay	stim	poldrack-single-stim	s358	0	False
566.377	1.0	568.282	0.9	2.0	True	89.0	Magnitude	n/a	twobytwo	89.0	1.005	blue	6.0	task_switch	magnitude	switch	stim	poldrack-single-stim	s358	0	False
569.281	1.0	570.861	0.9	2.0	True	89.0	Orange-Blue	n/a	twobytwo	89.0	0.68	orange	1.0	task_switch	color	switch	stim	poldrack-single-stim	s358	0	False
571.385	1.0	572.396	0.1	2.0	True	89.0	Orange-Blue	stay	twobytwo	89.0	0.911	orange	7.0	cue_stay	color	stay	stim	poldrack-single-stim	s358	0	False
574.29	1.0	575.829	0.9	2.136	True	89.0	Color	switch	twobytwo	89.0	0.639	orange	1.0	cue_switch	color	stay	stim	poldrack-single-stim	s358	0	False
576.531	1.0	577.585	0.1	2.0	True	71.0	High-Low	n/a	twobytwo	71.0	0.954	orange	4.0	task_switch	magnitude	switch	stim	poldrack-single-stim	s358	0	False
579.436	1.0	581.346	0.9	2.0	True	71.0	Orange-Blue	n/a	twobytwo	71.0	1.01	blue	6.0	task_switch	color	switch	stim	poldrack-single-stim	s358	0	False
581.54	1.0	582.911	0.1	2.136	True	71.0	High-Low	n/a	twobytwo	71.0	1.271	orange	4.0	task_switch	magnitude	switch	stim	poldrack-single-stim	s358	0	False
583.78	1.0	585.065	0.1	2.0	False	71.0	Orange-Blue	n/a	twobytwo	89.0	1.185	blue	8.0	task_switch	color	switch	stim	poldrack-single-stim	s358	0	False
586.685	1.0	588.05	0.9	2.136	True	89.0	Orange-Blue	stay	twobytwo	89.0	0.465	orange	6.0	cue_stay	color	stay	stim	poldrack-single-stim	s358	0	False
589.726	1.0	591.485	0.9	2.68	False	71.0	High-Low	n/a	twobytwo	89.0	0.859	orange	3.0	task_switch	magnitude	switch	stim	poldrack-single-stim	s358	0	False
593.311	1.0	595.084	0.9	2.272	True	71.0	Orange-Blue	n/a	twobytwo	71.0	0.873	blue	4.0	task_switch	color	switch	stim	poldrack-single-stim	s358	0	False
596.488	1.0	598.032	0.9	2.136	True	71.0	Color	switch	twobytwo	71.0	0.644	blue	6.0	cue_switch	color	stay	stim	poldrack-single-stim	s358	0	False
599.529	1.0	601.046	0.9	2.0	True	71.0	Orange-Blue	switch	twobytwo	71.0	0.617	blue	1.0	cue_switch	color	stay	stim	poldrack-single-stim	s358	0	False
601.634	1.0	602.654	0.1	2.136	True	71.0	Orange-Blue	stay	twobytwo	71.0	0.92	blue	9.0	cue_stay	color	stay	stim	poldrack-single-stim	s358	0	False
604.675	1.0	606.405	0.9	2.68	True	89.0	Magnitude	n/a	twobytwo	89.0	0.83	blue	9.0	task_switch	magnitude	switch	stim	poldrack-single-stim	s358	0	False
607.459	1.0	608.889	0.1	2.272	True	71.0	Orange-Blue	n/a	twobytwo	71.0	1.33	blue	8.0	task_switch	color	switch	stim	poldrack-single-stim	s358	0	False
609.835	1.0	610.443	0.1	2.0	True	71.0	Orange-Blue	stay	twobytwo	71.0	0.508	blue	7.0	cue_stay	color	stay	stim	poldrack-single-stim	s358	0	False
612.739	1.0	614.184	0.9	2.0	True	89.0	Magnitude	n/a	twobytwo	89.0	0.545	blue	6.0	task_switch	magnitude	switch	stim	poldrack-single-stim	s358	0	False
614.843	1.0	614.842	0.1	2.136	False	89.0	Magnitude	stay	twobytwo	-1.0	n/a	orange	9.0	cue_stay	magnitude	stay	stim	poldrack-single-stim	s358	0	False
617.083	1.0	617.829	0.1	2.0	True	71.0	High-Low	switch	twobytwo	71.0	0.646	blue	1.0	cue_switch	magnitude	stay	stim	poldrack-single-stim	s358	0	False
619.988	1.0	621.76	0.9	2.0	True	89.0	Magnitude	switch	twobytwo	89.0	0.872	orange	6.0	cue_switch	magnitude	stay	stim	poldrack-single-stim	s358	0	False
622.091	1.0	622.994	0.1	2.0	True	71.0	High-Low	switch	twobytwo	71.0	0.803	blue	1.0	cue_switch	magnitude	stay	stim	poldrack-single-stim	s358	0	False
624.196	1.0	624.988	0.1	2.272	True	71.0	Color	n/a	twobytwo	71.0	0.692	blue	6.0	task_switch	color	switch	stim	poldrack-single-stim	s358	0	False
626.571	1.0	627.316	0.1	2.408	True	89.0	Color	stay	twobytwo	89.0	0.645	orange	9.0	cue_stay	color	stay	stim	poldrack-single-stim	s358	0	False
629.884	1.0	632.023	0.9	2.0	True	71.0	Magnitude	n/a	twobytwo	71.0	1.239	orange	3.0	task_switch	magnitude	switch	stim	poldrack-single-stim	s358	0	False
631.988	1.0	632.83	0.1	2.0	True	89.0	High-Low	switch	twobytwo	89.0	0.742	blue	9.0	cue_switch	magnitude	stay	stim	poldrack-single-stim	s358	0	False
634.092	1.0	634.927	0.1	2.0	True	89.0	Magnitude	switch	twobytwo	89.0	0.735	blue	9.0	cue_switch	magnitude	stay	stim	poldrack-single-stim	s358	0	False
636.996	1.0	638.673	0.9	2.272	True	89.0	Magnitude	stay	twobytwo	89.0	0.777	blue	8.0	cue_stay	magnitude	stay	stim	poldrack-single-stim	s358	0	False
640.172	1.0	641.655	0.9	2.136	True	89.0	Color	n/a	twobytwo	89.0	0.583	orange	9.0	task_switch	color	switch	stim	poldrack-single-stim	s358	0	False
643.212	1.0	644.864	0.9	2.0	True	71.0	Magnitude	n/a	twobytwo	71.0	0.752	blue	1.0	task_switch	magnitude	switch	stim	poldrack-single-stim	s358	0	False
645.317	1.0	645.316	0.1	2.544	False	89.0	High-Low	switch	twobytwo	-1.0	n/a	blue	9.0	cue_switch	magnitude	stay	stim	poldrack-single-stim	s358	0	False
647.966	1.0	648.898	0.1	2.272	True	71.0	Orange-Blue	n/a	twobytwo	71.0	0.832	blue	9.0	task_switch	color	switch	stim	poldrack-single-stim	s358	0	False
651.143	1.0	652.675	0.9	2.272	True	71.0	Orange-Blue	stay	twobytwo	71.0	0.632	blue	7.0	cue_stay	color	stay	stim	poldrack-single-stim	s358	0	False
654.32	1.0	656.267	0.9	2.0	True	89.0	High-Low	n/a	twobytwo	89.0	1.047	orange	8.0	task_switch	magnitude	switch	stim	poldrack-single-stim	s358	0	False
657.224	1.0	658.769	0.9	2.0	True	71.0	Color	n/a	twobytwo	71.0	0.645	blue	6.0	task_switch	color	switch	stim	poldrack-single-stim	s358	0	False
659.329	1.0	660.78	0.1	2.136	True	89.0	Magnitude	n/a	twobytwo	89.0	1.351	orange	9.0	task_switch	magnitude	switch	stim	poldrack-single-stim	s358	0	False
661.57	1.0	662.476	0.1	2.0	False	89.0	Orange-Blue	n/a	twobytwo	71.0	0.806	orange	1.0	task_switch	color	switch	stim	poldrack-single-stim	s358	0	False
