onset	duration	block_duration	choice	experiment_exp_id	key_press	large_amount	later_delay	response_time	small_amount	trial_id	trial_type	worker_id	junk
3.008	4.0	4.636	larger_later	discount_fixed	89	79.0	92.0	1.72	20.0	n/a	larger_later	s358	False
7.646	4.0	4.568	smaller_sooner	discount_fixed	71	61.0	141.0	1.645	20.0	n/a	smaller_sooner	s358	False
12.215	4.0	4.568	larger_later	discount_fixed	89	43.0	38.0	1.737	20.0	n/a	larger_later	s358	False
16.785	4.0	4.908	smaller_sooner	discount_fixed	71	66.0	145.0	1.787	20.0	n/a	smaller_sooner	s358	False
21.695	4.0	4.84	smaller_sooner	discount_fixed	71	30.0	23.0	2.426	20.0	n/a	smaller_sooner	s358	False
26.537	4.0	5.248	larger_later	discount_fixed	89	32.0	57.0	2.735	20.0	n/a	larger_later	s358	False
31.787	4.0	4.772	smaller_sooner	discount_fixed	71	27.0	91.0	1.565	20.0	n/a	smaller_sooner	s358	False
36.561	4.0	5.996	smaller_sooner	discount_fixed	71	43.0	120.0	2.769	20.0	n/a	smaller_sooner	s358	False
42.56	4.0	5.588	larger_later	discount_fixed	89	75.0	60.0	1.596	20.0	n/a	larger_later	s358	False
48.151	4.0	4.568	smaller_sooner	discount_fixed	71	34.0	176.0	1.261	20.0	n/a	smaller_sooner	s358	False
52.721	4.0	5.112	smaller_sooner	discount_fixed	71	24.0	38.0	1.92	20.0	n/a	smaller_sooner	s358	False
57.835	4.0	5.656	smaller_sooner	discount_fixed	71	82.0	74.0	1.956	20.0	n/a	smaller_sooner	s358	False
63.494	4.0	4.568	larger_later	discount_fixed	89	58.0	53.0	1.809	20.0	n/a	larger_later	s358	False
68.064	4.0	4.772	larger_later	discount_fixed	89	54.0	23.0	1.841	20.0	n/a	larger_later	s358	False
72.838	4.0	5.044	smaller_sooner	discount_fixed	71	41.0	55.0	2.7	20.0	n/a	smaller_sooner	s358	False
77.884	4.0	4.84	smaller_sooner	discount_fixed	71	77.0	142.0	1.624	20.0	n/a	smaller_sooner	s358	False
82.726	4.0	5.18	smaller_sooner	discount_fixed	71	25.0	108.0	1.277	20.0	n/a	smaller_sooner	s358	False
87.908	4.0	5.044	smaller_sooner	discount_fixed	71	33.0	163.0	2.107	20.0	n/a	smaller_sooner	s358	False
92.954	4.0	4.976	smaller_sooner	discount_fixed	71	29.0	75.0	1.335	20.0	n/a	smaller_sooner	s358	False
97.932	4.0	4.976	smaller_sooner	discount_fixed	71	45.0	157.0	1.455	20.0	n/a	smaller_sooner	s358	False
102.909	4.0	5.316	smaller_sooner	discount_fixed	71	31.0	74.0	1.126	20.0	n/a	smaller_sooner	s358	False
108.227	4.0	4.5	larger_later	discount_fixed	89	80.0	39.0	1.331	20.0	n/a	larger_later	s358	False
112.728	4.0	5.044	smaller_sooner	discount_fixed	71	22.0	21.0	2.37	20.0	n/a	smaller_sooner	s358	False
117.774	4.0	4.704	smaller_sooner	discount_fixed	71	52.0	139.0	1.726	20.0	n/a	smaller_sooner	s358	False
122.479	4.0	4.84	smaller_sooner	discount_fixed	71	54.0	126.0	1.491	20.0	n/a	smaller_sooner	s358	False
127.322	4.0	6.744	smaller_sooner	discount_fixed	71	23.0	176.0	1.027	20.0	n/a	smaller_sooner	s358	False
134.068	4.0	4.5	smaller_sooner	discount_fixed	71	24.0	87.0	1.08	20.0	n/a	smaller_sooner	s358	False
138.57	4.0	4.568	smaller_sooner	discount_fixed	71	36.0	140.0	1.597	20.0	n/a	smaller_sooner	s358	False
143.141	4.0	4.704	smaller_sooner	discount_fixed	71	35.0	171.0	1.67	20.0	n/a	smaller_sooner	s358	False
147.847	4.0	4.908	smaller_sooner	discount_fixed	71	34.0	43.0	1.34	20.0	n/a	smaller_sooner	s358	False
152.757	4.0	4.568	larger_later	discount_fixed	89	74.0	121.0	2.774	20.0	n/a	larger_later	s358	False
157.327	4.0	4.772	smaller_sooner	discount_fixed	71	45.0	107.0	1.71	20.0	n/a	smaller_sooner	s358	False
162.101	4.0	4.636	larger_later	discount_fixed	89	77.0	24.0	1.481	20.0	n/a	larger_later	s358	False
166.739	4.0	4.568	smaller_sooner	discount_fixed	71	39.0	161.0	2.496	20.0	n/a	smaller_sooner	s358	False
171.309	4.0	5.452	larger_later	discount_fixed	89	62.0	180.0	2.655	20.0	n/a	larger_later	s358	False
176.763	4.0	5.384	smaller_sooner	discount_fixed	71	24.0	139.0	0.83	20.0	n/a	smaller_sooner	s358	False
182.15	4.0	4.568	larger_later	discount_fixed	89	58.0	72.0	2.312	20.0	n/a	larger_later	s358	False
186.72	4.0	6.268	larger_later	discount_fixed	89	56.0	93.0	1.994	20.0	n/a	larger_later	s358	False
192.99	4.0	5.52	larger_later	discount_fixed	89	45.0	26.0	1.278	20.0	n/a	larger_later	s358	False
198.512	4.0	4.568	smaller_sooner	discount_fixed	71	23.0	42.0	1.12	20.0	n/a	smaller_sooner	s358	False
203.083	4.0	4.636	larger_later	discount_fixed	89	50.0	41.0	1.625	20.0	n/a	larger_later	s358	False
207.721	4.0	4.636	smaller_sooner	discount_fixed	71	25.0	176.0	1.23	20.0	n/a	smaller_sooner	s358	False
212.359	4.0	5.112	larger_later	discount_fixed	89	54.0	22.0	2.344	20.0	n/a	larger_later	s358	False
217.474	4.0	5.316	smaller_sooner	discount_fixed	71	29.0	44.0	3.168	20.0	n/a	smaller_sooner	s358	False
222.792	4.0	4.568	smaller_sooner	discount_fixed	71	24.0	89.0	1.004	20.0	n/a	smaller_sooner	s358	False
227.362	4.0	4.568	smaller_sooner	discount_fixed	71	23.0	77.0	1.327	20.0	n/a	smaller_sooner	s358	False
231.933	4.0	4.568	smaller_sooner	discount_fixed	71	27.0	130.0	0.922	20.0	n/a	smaller_sooner	s358	False
236.503	4.0	4.84	smaller_sooner	discount_fixed	71	23.0	134.0	0.94	20.0	n/a	smaller_sooner	s358	False
241.345	4.0	4.5	smaller_sooner	discount_fixed	71	55.0	107.0	1.96	20.0	n/a	smaller_sooner	s358	False
245.848	4.0	5.656	smaller_sooner	discount_fixed	71	44.0	143.0	1.083	20.0	n/a	smaller_sooner	s358	False
251.505	4.0	4.908	smaller_sooner	discount_fixed	71	23.0	110.0	0.744	20.0	n/a	smaller_sooner	s358	False
256.416	4.0	4.636	larger_later	discount_fixed	89	65.0	156.0	1.839	20.0	n/a	larger_later	s358	False
261.053	4.0	4.5	smaller_sooner	discount_fixed	71	22.0	27.0	0.841	20.0	n/a	smaller_sooner	s358	False
265.555	4.0	4.5	larger_later	discount_fixed	89	50.0	59.0	1.477	20.0	n/a	larger_later	s358	False
270.057	4.0	5.112	smaller_sooner	discount_fixed	71	85.0	129.0	4.507	20.0	n/a	smaller_sooner	s358	False
275.171	4.0	6.132	larger_later	discount_fixed	89	66.0	58.0	3.265	20.0	n/a	larger_later	s358	False
281.304	4.0	4.84	smaller_sooner	discount_fixed	71	49.0	172.0	1.691	20.0	n/a	smaller_sooner	s358	False
286.147	4.0	4.568	larger_later	discount_fixed	89	73.0	44.0	1.906	20.0	n/a	larger_later	s358	False
290.717	4.0	4.704	larger_later	discount_fixed	89	58.0	73.0	2.032	20.0	n/a	larger_later	s358	False
295.422	4.0	5.86	larger_later	discount_fixed	89	71.0	76.0	0.807	20.0	n/a	larger_later	s358	False
301.284	4.0	4.636	larger_later	discount_fixed	89	67.0	74.0	1.077	20.0	n/a	larger_later	s358	False
314.426	4.0	5.316	smaller_sooner	discount_fixed	71	29.0	58.0	1.612	20.0	n/a	smaller_sooner	s358	False
319.744	4.0	4.976	smaller_sooner	discount_fixed	71	39.0	104.0	1.867	20.0	n/a	smaller_sooner	s358	False
324.722	4.0	4.568	smaller_sooner	discount_fixed	71	33.0	103.0	0.864	20.0	n/a	smaller_sooner	s358	False
329.292	4.0	5.52	smaller_sooner	discount_fixed	71	33.0	78.0	0.735	20.0	n/a	smaller_sooner	s358	False
334.815	4.0	5.588	larger_later	discount_fixed	89	74.0	52.0	1.572	20.0	n/a	larger_later	s358	False
340.405	4.0	5.792	smaller_sooner	discount_fixed	71	28.0	132.0	0.947	20.0	n/a	smaller_sooner	s358	False
346.199	4.0	4.568	smaller_sooner	discount_fixed	71	28.0	59.0	2.499	20.0	n/a	smaller_sooner	s358	False
350.769	4.0	5.112	smaller_sooner	discount_fixed	71	28.0	163.0	1.074	20.0	n/a	smaller_sooner	s358	False
355.883	4.0	4.5	smaller_sooner	discount_fixed	71	32.0	74.0	1.628	20.0	n/a	smaller_sooner	s358	False
360.384	4.0	4.84	larger_later	discount_fixed	89	57.0	89.0	0.979	20.0	n/a	larger_later	s358	False
365.227	4.0	4.568	larger_later	discount_fixed	89	70.0	108.0	1.863	20.0	n/a	larger_later	s358	False
369.797	4.0	5.384	larger_later	discount_fixed	89	72.0	95.0	1.494	20.0	n/a	larger_later	s358	False
375.182	4.0	5.044	larger_later	discount_fixed	89	30.0	36.0	2.59	20.0	n/a	larger_later	s358	False
380.229	4.0	4.704	smaller_sooner	discount_fixed	71	41.0	129.0	1.285	20.0	n/a	smaller_sooner	s358	False
384.935	4.0	4.908	larger_later	discount_fixed	89	78.0	129.0	1.366	20.0	n/a	larger_later	s358	False
389.844	4.0	4.908	larger_later	discount_fixed	89	71.0	88.0	0.933	20.0	n/a	larger_later	s358	False
394.755	4.0	4.84	larger_later	discount_fixed	89	65.0	159.0	2.151	20.0	n/a	larger_later	s358	False
399.597	4.0	5.112	smaller_sooner	discount_fixed	71	24.0	125.0	0.894	20.0	n/a	smaller_sooner	s358	False
404.711	4.0	5.112	larger_later	discount_fixed	89	58.0	36.0	0.86	20.0	n/a	larger_later	s358	False
409.825	4.0	4.704	larger_later	discount_fixed	89	63.0	37.0	0.789	20.0	n/a	larger_later	s358	False
414.531	4.0	4.84	larger_later	discount_fixed	89	75.0	41.0	1.314	20.0	n/a	larger_later	s358	False
419.374	4.0	4.84	larger_later	discount_fixed	89	45.0	72.0	1.345	20.0	n/a	larger_later	s358	False
424.215	4.0	6.88	smaller_sooner	discount_fixed	71	25.0	74.0	0.702	20.0	n/a	smaller_sooner	s358	False
431.097	4.0	4.568	larger_later	discount_fixed	89	65.0	137.0	0.774	20.0	n/a	larger_later	s358	False
435.667	4.0	4.772	smaller_sooner	discount_fixed	71	49.0	140.0	0.864	20.0	n/a	smaller_sooner	s358	False
440.442	4.0	7.016	larger_later	discount_fixed	89	67.0	103.0	1.157	20.0	n/a	larger_later	s358	False
447.46	4.0	4.704	larger_later	discount_fixed	89	69.0	172.0	1.119	20.0	n/a	larger_later	s358	False
452.166	4.0	5.18	larger_later	discount_fixed	89	66.0	71.0	0.847	20.0	n/a	larger_later	s358	False
457.348	4.0	5.044	larger_later	discount_fixed	89	71.0	176.0	0.802	20.0	n/a	larger_later	s358	False
462.394	4.0	5.316	smaller_sooner	discount_fixed	71	31.0	76.0	1.165	20.0	n/a	smaller_sooner	s358	False
467.712	4.0	4.568	larger_later	discount_fixed	89	43.0	19.0	1.679	20.0	n/a	larger_later	s358	False
472.282	4.0	4.636	larger_later	discount_fixed	89	60.0	124.0	1.568	20.0	n/a	larger_later	s358	False
476.919	4.0	4.908	smaller_sooner	discount_fixed	71	27.0	142.0	1.271	20.0	n/a	smaller_sooner	s358	False
481.829	4.0	4.5	smaller_sooner	discount_fixed	71	25.0	70.0	1.732	20.0	n/a	smaller_sooner	s358	False
486.331	4.0	4.976	larger_later	discount_fixed	89	44.0	92.0	0.936	20.0	n/a	larger_later	s358	False
491.309	4.0	4.908	larger_later	discount_fixed	89	41.0	27.0	0.668	20.0	n/a	larger_later	s358	False
496.219	4.0	4.568	larger_later	discount_fixed	89	64.0	89.0	0.992	20.0	n/a	larger_later	s358	False
500.789	4.0	4.5	larger_later	discount_fixed	89	78.0	108.0	0.688	20.0	n/a	larger_later	s358	False
505.292	4.0	6.2	larger_later	discount_fixed	89	80.0	145.0	0.89	20.0	n/a	larger_later	s358	False
511.494	4.0	4.704	larger_later	discount_fixed	89	41.0	174.0	2.536	20.0	n/a	larger_later	s358	False
516.2	4.0	5.044	larger_later	discount_fixed	89	42.0	145.0	1.356	20.0	n/a	larger_later	s358	False
521.246	4.0	5.044	larger_later	discount_fixed	89	36.0	114.0	0.782	20.0	n/a	larger_later	s358	False
526.292	4.0	5.18	larger_later	discount_fixed	89	58.0	55.0	0.836	20.0	n/a	larger_later	s358	False
531.474	4.0	4.976	larger_later	discount_fixed	89	81.0	58.0	1.184	20.0	n/a	larger_later	s358	False
536.452	4.0	4.772	smaller_sooner	discount_fixed	71	32.0	111.0	1.597	20.0	n/a	smaller_sooner	s358	False
541.226	4.0	4.772	smaller_sooner	discount_fixed	71	25.0	141.0	1.534	20.0	n/a	smaller_sooner	s358	False
546.001	4.0	5.18	larger_later	discount_fixed	89	67.0	23.0	0.938	20.0	n/a	larger_later	s358	False
551.183	4.0	5.18	larger_later	discount_fixed	89	77.0	161.0	0.792	20.0	n/a	larger_later	s358	False
556.365	4.0	5.248	larger_later	discount_fixed	89	55.0	163.0	0.825	20.0	n/a	larger_later	s358	False
561.614	4.0	4.568	larger_later	discount_fixed	89	40.0	159.0	0.73	20.0	n/a	larger_later	s358	False
566.184	4.0	4.5	larger_later	discount_fixed	89	76.0	161.0	0.94	20.0	n/a	larger_later	s358	False
570.686	4.0	4.908	larger_later	discount_fixed	89	48.0	128.0	0.98	20.0	n/a	larger_later	s358	False
575.596	4.0	4.568	smaller_sooner	discount_fixed	71	39.0	95.0	0.879	20.0	n/a	smaller_sooner	s358	False
580.165	4.0	6.2	larger_later	discount_fixed	89	83.0	105.0	0.679	20.0	n/a	larger_later	s358	False
586.368	4.0	4.908	larger_later	discount_fixed	89	67.0	41.0	0.627	20.0	n/a	larger_later	s358	False
591.278	4.0	5.248	larger_later	discount_fixed	89	56.0	172.0	0.602	20.0	n/a	larger_later	s358	False
596.528	4.0	5.044	smaller_sooner	discount_fixed	71	28.0	123.0	0.882	20.0	n/a	smaller_sooner	s358	False
601.574	4.0	4.636	smaller_sooner	discount_fixed	71	50.0	129.0	1.394	20.0	n/a	smaller_sooner	s358	False
606.212	4.0	4.704	smaller_sooner	discount_fixed	71	23.0	61.0	1.11	20.0	n/a	smaller_sooner	s358	False
