onset	duration	movement_onset	CTI	block_duration	correct	correct_response	cue	cue_switch	experiment_exp_id	key_press	response_time	stim_color	stim_number	switch_type	task	task_switch	trial_id	trial_type	worker_id	first_trial_of_block	junk
3.621	1.0	4.56	0.1	2.136	True	89.0	Orange-Blue	switch	twobytwo	89.0	0.839	blue	9.0	cue_switch	color	stay	stim	poldrack-single-stim	s373	1	False
6.667	1.0	8.051	0.9	2.272	True	89.0	High-Low	n/a	twobytwo	89.0	0.484	orange	4.0	task_switch	magnitude	switch	stim	poldrack-single-stim	s373	0	False
9.846	1.0	11.209	0.9	2.136	True	71.0	Color	n/a	twobytwo	71.0	0.463	orange	1.0	task_switch	color	switch	stim	poldrack-single-stim	s373	0	False
12.889	1.0	14.311	0.9	2.272	True	71.0	Color	stay	twobytwo	71.0	0.522	orange	3.0	cue_stay	color	stay	stim	poldrack-single-stim	s373	0	False
15.272	1.0	16.07	0.1	2.0	True	89.0	High-Low	n/a	twobytwo	89.0	0.698	orange	1.0	task_switch	magnitude	switch	stim	poldrack-single-stim	s373	0	False
18.183	1.0	19.606	0.9	2.816	True	89.0	High-Low	stay	twobytwo	89.0	0.523	orange	2.0	cue_stay	magnitude	stay	stim	poldrack-single-stim	s373	0	False
21.104	1.0	22.055	0.1	2.408	True	71.0	Magnitude	switch	twobytwo	71.0	0.851	blue	9.0	cue_switch	magnitude	stay	stim	poldrack-single-stim	s373	0	False
24.419	1.0	25.921	0.9	2.0	True	71.0	Magnitude	stay	twobytwo	71.0	0.602	orange	6.0	cue_stay	magnitude	stay	stim	poldrack-single-stim	s373	0	False
27.326	1.0	28.704	0.9	2.544	True	89.0	Magnitude	stay	twobytwo	89.0	0.478	orange	4.0	cue_stay	magnitude	stay	stim	poldrack-single-stim	s373	0	False
30.779	1.0	32.201	0.9	2.136	True	71.0	Orange-Blue	n/a	twobytwo	71.0	0.522	orange	1.0	task_switch	color	switch	stim	poldrack-single-stim	s373	0	False
33.822	1.0	35.255	0.9	2.0	True	89.0	High-Low	n/a	twobytwo	89.0	0.533	orange	3.0	task_switch	magnitude	switch	stim	poldrack-single-stim	s373	0	False
35.929	1.0	36.789	0.1	2.0	True	71.0	High-Low	stay	twobytwo	71.0	0.76	orange	6.0	cue_stay	magnitude	stay	stim	poldrack-single-stim	s373	0	False
38.833	1.0	40.3	0.9	2.136	True	89.0	Magnitude	switch	twobytwo	89.0	0.567	blue	1.0	cue_switch	magnitude	stay	stim	poldrack-single-stim	s373	0	False
41.872	1.0	43.275	0.9	2.136	True	71.0	Magnitude	stay	twobytwo	71.0	0.503	blue	7.0	cue_stay	magnitude	stay	stim	poldrack-single-stim	s373	0	False
44.912	1.0	46.317	0.9	2.272	True	89.0	Color	n/a	twobytwo	89.0	0.505	blue	6.0	task_switch	color	switch	stim	poldrack-single-stim	s373	0	False
47.292	1.0	48.209	0.1	3.224	True	71.0	Orange-Blue	switch	twobytwo	71.0	0.817	orange	2.0	cue_switch	color	stay	stim	poldrack-single-stim	s373	0	False
50.623	1.0	51.494	0.1	2.0	True	89.0	Color	switch	twobytwo	89.0	0.771	blue	1.0	cue_switch	color	stay	stim	poldrack-single-stim	s373	0	False
53.529	1.0	55.003	0.9	2.0	True	71.0	Magnitude	n/a	twobytwo	71.0	0.574	blue	6.0	task_switch	magnitude	switch	stim	poldrack-single-stim	s373	0	False
55.642	1.0	56.708	0.1	2.272	True	89.0	Color	n/a	twobytwo	89.0	0.966	blue	4.0	task_switch	color	switch	stim	poldrack-single-stim	s373	0	False
58.824	1.0	60.312	0.9	2.136	True	89.0	Magnitude	n/a	twobytwo	89.0	0.588	blue	1.0	task_switch	magnitude	switch	stim	poldrack-single-stim	s373	0	False
61.071	1.0	62.239	0.1	2.0	True	89.0	High-Low	switch	twobytwo	89.0	1.068	blue	4.0	cue_switch	magnitude	stay	stim	poldrack-single-stim	s373	0	False
63.181	1.0	64.07	0.1	2.0	True	71.0	High-Low	stay	twobytwo	71.0	0.789	orange	6.0	cue_stay	magnitude	stay	stim	poldrack-single-stim	s373	0	False
65.29	1.0	66.084	0.1	2.0	True	71.0	High-Low	stay	twobytwo	71.0	0.694	blue	8.0	cue_stay	magnitude	stay	stim	poldrack-single-stim	s373	0	False
68.194	1.0	69.54	0.9	2.68	True	89.0	High-Low	stay	twobytwo	89.0	0.446	blue	2.0	cue_stay	magnitude	stay	stim	poldrack-single-stim	s373	0	False
70.981	1.0	71.908	0.1	2.0	True	89.0	Orange-Blue	n/a	twobytwo	89.0	0.827	blue	2.0	task_switch	color	switch	stim	poldrack-single-stim	s373	0	False
73.889	1.0	75.274	0.9	2.272	True	71.0	High-Low	n/a	twobytwo	71.0	0.485	orange	9.0	task_switch	magnitude	switch	stim	poldrack-single-stim	s373	0	False
77.072	1.0	78.48	0.9	2.0	True	89.0	Orange-Blue	n/a	twobytwo	89.0	0.508	blue	6.0	task_switch	color	switch	stim	poldrack-single-stim	s373	0	False
79.179	1.0	80.061	0.1	2.272	True	71.0	Color	switch	twobytwo	71.0	0.782	orange	6.0	cue_switch	color	stay	stim	poldrack-single-stim	s373	0	False
81.555	1.0	82.648	0.1	2.952	True	71.0	Orange-Blue	switch	twobytwo	71.0	0.993	orange	4.0	cue_switch	color	stay	stim	poldrack-single-stim	s373	0	False
85.414	1.0	86.853	0.9	2.0	True	71.0	High-Low	n/a	twobytwo	71.0	0.539	blue	6.0	task_switch	magnitude	switch	stim	poldrack-single-stim	s373	0	False
87.52	1.0	88.474	0.1	2.0	True	71.0	Magnitude	switch	twobytwo	71.0	0.854	orange	8.0	cue_switch	magnitude	stay	stim	poldrack-single-stim	s373	0	False
89.628	1.0	90.842	0.1	2.0	True	89.0	Orange-Blue	n/a	twobytwo	89.0	1.114	blue	9.0	task_switch	color	switch	stim	poldrack-single-stim	s373	0	False
91.734	1.0	92.786	0.1	2.0	True	89.0	Orange-Blue	stay	twobytwo	89.0	0.952	blue	7.0	cue_stay	color	stay	stim	poldrack-single-stim	s373	0	False
94.638	1.0	95.942	0.9	2.136	True	71.0	Color	switch	twobytwo	71.0	0.404	orange	3.0	cue_switch	color	stay	stim	poldrack-single-stim	s373	0	False
97.68	1.0	99.1	0.9	2.0	True	89.0	High-Low	n/a	twobytwo	89.0	0.52	orange	3.0	task_switch	magnitude	switch	stim	poldrack-single-stim	s373	0	False
100.588	1.0	101.986	0.9	2.0	True	89.0	Color	n/a	twobytwo	89.0	0.498	blue	9.0	task_switch	color	switch	stim	poldrack-single-stim	s373	0	False
102.694	1.0	103.746	0.1	2.0	True	89.0	Orange-Blue	switch	twobytwo	89.0	0.952	blue	8.0	cue_switch	color	stay	stim	poldrack-single-stim	s373	0	False
104.801	1.0	105.625	0.1	2.272	True	89.0	Magnitude	n/a	twobytwo	89.0	0.724	blue	3.0	task_switch	magnitude	switch	stim	poldrack-single-stim	s373	0	False
107.977	1.0	109.363	0.9	2.136	True	71.0	Orange-Blue	n/a	twobytwo	71.0	0.486	orange	9.0	task_switch	color	switch	stim	poldrack-single-stim	s373	0	False
110.22	1.0	111.101	0.1	2.0	True	71.0	Magnitude	n/a	twobytwo	71.0	0.781	orange	9.0	task_switch	magnitude	switch	stim	poldrack-single-stim	s373	0	False
113.13	1.0	114.482	0.9	2.136	True	71.0	Color	n/a	twobytwo	71.0	0.452	orange	6.0	task_switch	color	switch	stim	poldrack-single-stim	s373	0	False
115.371	1.0	116.104	0.1	2.816	True	89.0	Magnitude	n/a	twobytwo	89.0	0.633	blue	2.0	task_switch	magnitude	switch	stim	poldrack-single-stim	s373	0	False
118.293	1.0	119.05	0.1	2.408	True	89.0	High-Low	switch	twobytwo	89.0	0.657	blue	1.0	cue_switch	magnitude	stay	stim	poldrack-single-stim	s373	0	False
120.807	1.0	121.747	0.1	2.0	True	89.0	Orange-Blue	n/a	twobytwo	89.0	0.84	blue	6.0	task_switch	color	switch	stim	poldrack-single-stim	s373	0	False
123.712	1.0	125.12	0.9	2.136	True	71.0	High-Low	n/a	twobytwo	71.0	0.508	blue	9.0	task_switch	magnitude	switch	stim	poldrack-single-stim	s373	0	False
126.752	1.0	128.155	0.9	2.136	True	89.0	High-Low	stay	twobytwo	89.0	0.503	blue	1.0	cue_stay	magnitude	stay	stim	poldrack-single-stim	s373	0	False
129.792	1.0	131.498	0.9	2.136	True	89.0	Magnitude	switch	twobytwo	89.0	0.806	blue	4.0	cue_switch	magnitude	stay	stim	poldrack-single-stim	s373	0	False
132.835	1.0	134.169	0.9	2.544	True	71.0	Color	n/a	twobytwo	71.0	0.434	orange	3.0	task_switch	color	switch	stim	poldrack-single-stim	s373	0	False
136.282	1.0	137.704	0.9	2.136	True	89.0	High-Low	n/a	twobytwo	89.0	0.522	blue	1.0	task_switch	magnitude	switch	stim	poldrack-single-stim	s373	0	False
138.525	1.0	139.569	0.1	2.0	True	89.0	Color	n/a	twobytwo	89.0	0.944	blue	9.0	task_switch	color	switch	stim	poldrack-single-stim	s373	0	False
141.432	1.0	142.915	0.9	2.0	True	89.0	Magnitude	n/a	twobytwo	89.0	0.583	blue	4.0	task_switch	magnitude	switch	stim	poldrack-single-stim	s373	0	False
144.339	1.0	145.78	0.9	2.0	True	89.0	Magnitude	stay	twobytwo	89.0	0.541	blue	4.0	cue_stay	magnitude	stay	stim	poldrack-single-stim	s373	0	False
147.246	1.0	148.573	0.9	2.0	True	71.0	Color	n/a	twobytwo	71.0	0.427	orange	4.0	task_switch	color	switch	stim	poldrack-single-stim	s373	0	False
149.35	1.0	150.124	0.1	2.136	True	89.0	High-Low	n/a	twobytwo	89.0	0.674	orange	1.0	task_switch	magnitude	switch	stim	poldrack-single-stim	s373	0	False
152.391	1.0	153.861	0.9	2.0	True	71.0	Magnitude	switch	twobytwo	71.0	0.57	orange	6.0	cue_switch	magnitude	stay	stim	poldrack-single-stim	s373	0	False
154.5	1.0	155.817	0.1	2.0	True	71.0	High-Low	switch	twobytwo	71.0	1.217	orange	7.0	cue_switch	magnitude	stay	stim	poldrack-single-stim	s373	0	False
157.407	1.0	158.753	0.9	2.0	True	89.0	High-Low	stay	twobytwo	89.0	0.446	orange	3.0	cue_stay	magnitude	stay	stim	poldrack-single-stim	s373	0	False
160.31	1.0	161.928	0.9	2.136	True	89.0	Orange-Blue	n/a	twobytwo	89.0	0.718	blue	2.0	task_switch	color	switch	stim	poldrack-single-stim	s373	0	False
162.55	1.0	163.441	0.1	2.136	True	71.0	Magnitude	n/a	twobytwo	71.0	0.791	orange	7.0	task_switch	magnitude	switch	stim	poldrack-single-stim	s373	0	False
164.791	1.0	165.524	0.1	2.136	True	89.0	Magnitude	stay	twobytwo	89.0	0.633	blue	3.0	cue_stay	magnitude	stay	stim	poldrack-single-stim	s373	0	False
167.031	1.0	167.769	0.1	2.136	True	89.0	Orange-Blue	n/a	twobytwo	89.0	0.638	blue	3.0	task_switch	color	switch	stim	poldrack-single-stim	s373	0	False
169.276	1.0	170.025	0.1	2.68	True	89.0	Orange-Blue	stay	twobytwo	89.0	0.649	blue	1.0	cue_stay	color	stay	stim	poldrack-single-stim	s373	0	False
172.863	1.0	174.301	0.9	2.544	True	89.0	Color	switch	twobytwo	89.0	0.538	blue	3.0	cue_switch	color	stay	stim	poldrack-single-stim	s373	0	False
176.314	1.0	177.709	0.9	2.272	True	71.0	Orange-Blue	switch	twobytwo	71.0	0.495	orange	8.0	cue_switch	color	stay	stim	poldrack-single-stim	s373	0	False
178.693	1.0	179.837	0.1	2.272	True	71.0	Color	switch	twobytwo	71.0	1.044	orange	2.0	cue_switch	color	stay	stim	poldrack-single-stim	s373	0	False
181.869	1.0	183.308	0.9	2.408	True	71.0	Magnitude	n/a	twobytwo	71.0	0.539	orange	8.0	task_switch	magnitude	switch	stim	poldrack-single-stim	s373	0	False
184.381	1.0	185.335	0.1	2.136	True	71.0	Magnitude	stay	twobytwo	71.0	0.854	blue	8.0	cue_stay	magnitude	stay	stim	poldrack-single-stim	s373	0	False
186.624	1.0	187.618	0.1	2.272	True	71.0	Orange-Blue	n/a	twobytwo	71.0	0.894	orange	4.0	task_switch	color	switch	stim	poldrack-single-stim	s373	0	False
189.008	1.0	190.128	0.1	2.0	True	89.0	Color	switch	twobytwo	89.0	1.02	blue	1.0	cue_switch	color	stay	stim	poldrack-single-stim	s373	0	False
191.912	1.0	193.314	0.9	2.136	True	89.0	Orange-Blue	switch	twobytwo	89.0	0.502	blue	1.0	cue_switch	color	stay	stim	poldrack-single-stim	s373	0	False
194.951	1.0	196.4	0.9	2.272	True	89.0	Orange-Blue	stay	twobytwo	89.0	0.549	blue	4.0	cue_stay	color	stay	stim	poldrack-single-stim	s373	0	False
197.334	1.0	198.257	0.1	2.0	True	71.0	High-Low	n/a	twobytwo	71.0	0.823	orange	9.0	task_switch	magnitude	switch	stim	poldrack-single-stim	s373	0	False
199.443	1.0	200.671	0.1	2.68	False	71.0	Color	n/a	twobytwo	89.0	1.128	orange	4.0	task_switch	color	switch	stim	poldrack-single-stim	s373	0	False
203.03	1.0	204.797	0.9	2.0	True	89.0	Orange-Blue	switch	twobytwo	89.0	0.867	blue	9.0	cue_switch	color	stay	stim	poldrack-single-stim	s373	0	False
205.137	1.0	205.954	0.1	2.0	True	71.0	Magnitude	n/a	twobytwo	71.0	0.717	blue	9.0	task_switch	magnitude	switch	stim	poldrack-single-stim	s373	0	False
208.044	1.0	209.424	0.9	2.0	True	89.0	Magnitude	stay	twobytwo	89.0	0.48	orange	3.0	cue_stay	magnitude	stay	stim	poldrack-single-stim	s373	0	False
210.95	1.0	212.423	0.9	2.272	True	89.0	Color	n/a	twobytwo	89.0	0.573	blue	3.0	task_switch	color	switch	stim	poldrack-single-stim	s373	0	False
213.329	1.0	214.178	0.1	2.0	True	89.0	High-Low	n/a	twobytwo	89.0	0.749	blue	3.0	task_switch	magnitude	switch	stim	poldrack-single-stim	s373	0	False
215.436	1.0	216.398	0.1	2.0	True	71.0	Color	n/a	twobytwo	71.0	0.862	orange	4.0	task_switch	color	switch	stim	poldrack-single-stim	s373	0	False
218.34	1.0	219.817	0.9	2.0	True	71.0	Magnitude	n/a	twobytwo	71.0	0.577	blue	7.0	task_switch	magnitude	switch	stim	poldrack-single-stim	s373	0	False
233.962	1.0	234.761	0.1	2.68	True	71.0	High-Low	switch	twobytwo	71.0	0.699	blue	9.0	cue_switch	magnitude	stay	stim	poldrack-single-stim	s373	1	False
237.549	1.0	238.874	0.9	2.0	True	71.0	Orange-Blue	n/a	twobytwo	71.0	0.425	orange	4.0	task_switch	color	switch	stim	poldrack-single-stim	s373	0	False
240.453	1.0	241.872	0.9	2.136	True	89.0	High-Low	n/a	twobytwo	89.0	0.519	orange	1.0	task_switch	magnitude	switch	stim	poldrack-single-stim	s373	0	False
243.493	1.0	244.964	0.9	2.408	True	89.0	High-Low	stay	twobytwo	89.0	0.571	orange	3.0	cue_stay	magnitude	stay	stim	poldrack-single-stim	s373	0	False
246.005	1.0	246.935	0.1	2.136	True	71.0	Orange-Blue	n/a	twobytwo	71.0	0.83	orange	1.0	task_switch	color	switch	stim	poldrack-single-stim	s373	0	False
249.048	1.0	250.402	0.9	2.0	True	71.0	Orange-Blue	stay	twobytwo	71.0	0.454	orange	2.0	cue_stay	color	stay	stim	poldrack-single-stim	s373	0	False
251.155	1.0	252.277	0.1	2.0	True	89.0	Color	switch	twobytwo	89.0	1.022	blue	9.0	cue_switch	color	stay	stim	poldrack-single-stim	s373	0	False
254.067	1.0	255.707	0.9	2.544	True	71.0	Color	stay	twobytwo	71.0	0.74	orange	6.0	cue_stay	color	stay	stim	poldrack-single-stim	s373	0	False
257.515	1.0	258.847	0.9	2.136	True	71.0	Color	stay	twobytwo	71.0	0.432	orange	4.0	cue_stay	color	stay	stim	poldrack-single-stim	s373	0	False
260.556	1.0	261.988	0.9	2.544	True	89.0	Magnitude	n/a	twobytwo	89.0	0.532	orange	1.0	task_switch	magnitude	switch	stim	poldrack-single-stim	s373	0	False
264.006	1.0	265.361	0.9	2.68	True	71.0	Color	n/a	twobytwo	71.0	0.455	orange	3.0	task_switch	color	switch	stim	poldrack-single-stim	s373	0	False
266.793	1.0	267.529	0.1	2.0	True	71.0	Color	stay	twobytwo	71.0	0.636	orange	6.0	cue_stay	color	stay	stim	poldrack-single-stim	s373	0	False
269.7	1.0	271.032	0.9	2.272	True	89.0	Orange-Blue	switch	twobytwo	89.0	0.432	blue	1.0	cue_switch	color	stay	stim	poldrack-single-stim	s373	0	False
272.875	1.0	274.538	0.9	3.088	True	89.0	Orange-Blue	stay	twobytwo	89.0	0.763	blue	7.0	cue_stay	color	stay	stim	poldrack-single-stim	s373	0	False
276.874	1.0	278.33	0.9	2.0	True	71.0	Magnitude	n/a	twobytwo	71.0	0.556	blue	6.0	task_switch	magnitude	switch	stim	poldrack-single-stim	s373	0	False
278.983	1.0	280.019	0.1	2.136	True	89.0	High-Low	switch	twobytwo	89.0	0.936	orange	2.0	cue_switch	magnitude	stay	stim	poldrack-single-stim	s373	0	False
281.223	1.0	282.001	0.1	2.136	True	89.0	Magnitude	switch	twobytwo	89.0	0.678	blue	1.0	cue_switch	magnitude	stay	stim	poldrack-single-stim	s373	0	False
284.266	1.0	285.665	0.9	2.0	True	89.0	Color	n/a	twobytwo	89.0	0.499	blue	6.0	task_switch	color	switch	stim	poldrack-single-stim	s373	0	False
286.373	1.0	287.273	0.1	2.272	True	89.0	Magnitude	n/a	twobytwo	89.0	0.8	blue	4.0	task_switch	magnitude	switch	stim	poldrack-single-stim	s373	0	False
289.552	1.0	291.024	0.9	2.0	True	89.0	Orange-Blue	n/a	twobytwo	89.0	0.572	blue	1.0	task_switch	color	switch	stim	poldrack-single-stim	s373	0	False
291.659	1.0	292.508	0.1	2.136	True	89.0	Color	switch	twobytwo	89.0	0.749	blue	4.0	cue_switch	color	stay	stim	poldrack-single-stim	s373	0	False
293.899	1.0	294.699	0.1	2.136	True	71.0	Color	stay	twobytwo	71.0	0.7	orange	6.0	cue_stay	color	stay	stim	poldrack-single-stim	s373	0	False
296.144	1.0	297.029	0.1	2.544	True	89.0	Color	stay	twobytwo	89.0	0.785	blue	8.0	cue_stay	color	stay	stim	poldrack-single-stim	s373	0	False
299.595	1.0	301.089	0.9	2.0	True	89.0	Color	stay	twobytwo	89.0	0.594	blue	2.0	cue_stay	color	stay	stim	poldrack-single-stim	s373	0	False
301.699	1.0	302.56	0.1	2.136	True	89.0	Magnitude	n/a	twobytwo	89.0	0.761	blue	2.0	task_switch	magnitude	switch	stim	poldrack-single-stim	s373	0	False
304.739	1.0	306.199	0.9	2.136	True	71.0	Color	n/a	twobytwo	71.0	0.56	orange	9.0	task_switch	color	switch	stim	poldrack-single-stim	s373	0	False
307.779	1.0	309.159	0.9	2.136	True	71.0	Magnitude	n/a	twobytwo	71.0	0.48	blue	6.0	task_switch	magnitude	switch	stim	poldrack-single-stim	s373	0	False
310.021	1.0	310.998	0.1	2.0	False	71.0	High-Low	switch	twobytwo	89.0	0.877	orange	6.0	cue_switch	magnitude	stay	stim	poldrack-single-stim	s373	0	False
312.126	1.0	313.383	0.1	2.136	True	89.0	Magnitude	switch	twobytwo	89.0	1.157	orange	4.0	cue_switch	magnitude	stay	stim	poldrack-single-stim	s373	0	False
315.165	1.0	316.69	0.9	2.0	True	89.0	Orange-Blue	n/a	twobytwo	89.0	0.625	blue	6.0	task_switch	color	switch	stim	poldrack-single-stim	s373	0	False
317.273	1.0	318.362	0.1	2.136	True	71.0	Color	switch	twobytwo	71.0	0.989	orange	8.0	cue_switch	color	stay	stim	poldrack-single-stim	s373	0	False
319.513	1.0	320.399	0.1	2.816	True	71.0	Magnitude	n/a	twobytwo	71.0	0.786	blue	9.0	task_switch	magnitude	switch	stim	poldrack-single-stim	s373	0	False
322.436	1.0	323.381	0.1	2.136	True	71.0	Magnitude	stay	twobytwo	71.0	0.845	blue	7.0	cue_stay	magnitude	stay	stim	poldrack-single-stim	s373	0	False
325.479	1.0	326.992	0.9	2.0	True	89.0	High-Low	switch	twobytwo	89.0	0.613	orange	3.0	cue_switch	magnitude	stay	stim	poldrack-single-stim	s373	0	False
328.388	1.0	329.77	0.9	2.0	True	71.0	Orange-Blue	n/a	twobytwo	71.0	0.482	orange	3.0	task_switch	color	switch	stim	poldrack-single-stim	s373	0	False
331.298	1.0	332.714	0.9	2.272	True	71.0	Magnitude	n/a	twobytwo	71.0	0.516	blue	9.0	task_switch	magnitude	switch	stim	poldrack-single-stim	s373	0	False
333.676	1.0	334.484	0.1	2.0	True	71.0	High-Low	switch	twobytwo	71.0	0.708	blue	8.0	cue_switch	magnitude	stay	stim	poldrack-single-stim	s373	0	False
335.783	1.0	336.723	0.1	2.0	True	89.0	Color	n/a	twobytwo	89.0	0.84	blue	3.0	task_switch	color	switch	stim	poldrack-single-stim	s373	0	False
338.686	1.0	340.123	0.9	2.0	True	71.0	Magnitude	n/a	twobytwo	71.0	0.537	orange	9.0	task_switch	magnitude	switch	stim	poldrack-single-stim	s373	0	False
340.794	1.0	341.494	0.1	2.408	True	71.0	Color	n/a	twobytwo	71.0	0.6	orange	9.0	task_switch	color	switch	stim	poldrack-single-stim	s373	0	False
344.109	1.0	345.495	0.9	2.272	True	71.0	Magnitude	n/a	twobytwo	71.0	0.486	orange	6.0	task_switch	magnitude	switch	stim	poldrack-single-stim	s373	0	False
346.484	1.0	347.391	0.1	2.136	True	89.0	Orange-Blue	n/a	twobytwo	89.0	0.807	blue	2.0	task_switch	color	switch	stim	poldrack-single-stim	s373	0	False
348.728	1.0	349.522	0.1	2.0	True	89.0	Color	switch	twobytwo	89.0	0.694	blue	1.0	cue_switch	color	stay	stim	poldrack-single-stim	s373	0	False
350.839	1.0	351.736	0.1	2.0	True	71.0	Magnitude	n/a	twobytwo	71.0	0.797	blue	6.0	task_switch	magnitude	switch	stim	poldrack-single-stim	s373	0	False
353.743	1.0	355.476	0.9	2.136	True	89.0	Color	n/a	twobytwo	89.0	0.833	blue	9.0	task_switch	color	switch	stim	poldrack-single-stim	s373	0	False
356.784	1.0	358.184	0.9	2.0	True	89.0	Color	stay	twobytwo	89.0	0.5	blue	1.0	cue_stay	color	stay	stim	poldrack-single-stim	s373	0	False
359.691	1.0	361.191	0.9	2.136	True	89.0	Orange-Blue	switch	twobytwo	89.0	0.6	blue	4.0	cue_switch	color	stay	stim	poldrack-single-stim	s373	0	False
362.731	1.0	364.17	0.9	2.408	True	89.0	High-Low	n/a	twobytwo	89.0	0.539	orange	3.0	task_switch	magnitude	switch	stim	poldrack-single-stim	s373	0	False
366.043	1.0	367.647	0.9	2.136	True	89.0	Color	n/a	twobytwo	89.0	0.704	blue	1.0	task_switch	color	switch	stim	poldrack-single-stim	s373	0	False
368.291	1.0	369.383	0.1	2.0	True	71.0	High-Low	n/a	twobytwo	71.0	0.992	blue	9.0	task_switch	magnitude	switch	stim	poldrack-single-stim	s373	0	False
371.196	1.0	372.598	0.9	2.136	True	89.0	Color	n/a	twobytwo	89.0	0.502	blue	4.0	task_switch	color	switch	stim	poldrack-single-stim	s373	0	False
374.238	1.0	375.682	0.9	2.272	True	89.0	Color	stay	twobytwo	89.0	0.544	blue	4.0	cue_stay	color	stay	stim	poldrack-single-stim	s373	0	False
377.417	1.0	378.872	0.9	2.0	True	89.0	High-Low	n/a	twobytwo	89.0	0.555	orange	4.0	task_switch	magnitude	switch	stim	poldrack-single-stim	s373	0	False
379.526	1.0	380.478	0.1	2.408	True	71.0	Color	n/a	twobytwo	71.0	0.852	orange	1.0	task_switch	color	switch	stim	poldrack-single-stim	s373	0	False
382.839	1.0	384.222	0.9	2.0	True	71.0	Orange-Blue	switch	twobytwo	71.0	0.483	orange	6.0	cue_switch	color	stay	stim	poldrack-single-stim	s373	0	False
384.946	1.0	385.705	0.1	2.136	True	71.0	Color	switch	twobytwo	71.0	0.659	orange	7.0	cue_switch	color	stay	stim	poldrack-single-stim	s373	0	False
387.986	1.0	389.391	0.9	2.408	True	71.0	Color	stay	twobytwo	71.0	0.505	orange	3.0	cue_stay	color	stay	stim	poldrack-single-stim	s373	0	False
391.298	1.0	392.704	0.9	2.136	True	89.0	High-Low	n/a	twobytwo	89.0	0.506	blue	2.0	task_switch	magnitude	switch	stim	poldrack-single-stim	s373	0	False
393.546	1.0	394.348	0.1	2.408	True	71.0	Color	n/a	twobytwo	71.0	0.702	orange	7.0	task_switch	color	switch	stim	poldrack-single-stim	s373	0	False
396.061	1.0	396.862	0.1	2.136	True	89.0	Color	stay	twobytwo	89.0	0.701	blue	3.0	cue_stay	color	stay	stim	poldrack-single-stim	s373	0	False
398.304	1.0	399.282	0.1	2.0	True	89.0	Magnitude	n/a	twobytwo	89.0	0.878	blue	3.0	task_switch	magnitude	switch	stim	poldrack-single-stim	s373	0	False
400.41	1.0	402.149	0.1	2.272	True	89.0	Magnitude	stay	twobytwo	89.0	1.639	blue	1.0	cue_stay	magnitude	stay	stim	poldrack-single-stim	s373	0	False
403.589	1.0	404.995	0.9	2.0	True	89.0	High-Low	switch	twobytwo	89.0	0.506	blue	3.0	cue_switch	magnitude	stay	stim	poldrack-single-stim	s373	0	False
406.501	1.0	407.953	0.9	2.272	True	71.0	Magnitude	switch	twobytwo	71.0	0.552	orange	8.0	cue_switch	magnitude	stay	stim	poldrack-single-stim	s373	0	False
408.88	1.0	409.672	0.1	2.272	True	89.0	High-Low	switch	twobytwo	89.0	0.692	orange	2.0	cue_switch	magnitude	stay	stim	poldrack-single-stim	s373	0	False
412.056	1.0	413.536	0.9	2.952	True	71.0	Color	n/a	twobytwo	71.0	0.58	orange	8.0	task_switch	color	switch	stim	poldrack-single-stim	s373	0	False
415.112	1.0	415.914	0.1	2.68	True	89.0	Color	stay	twobytwo	89.0	0.702	blue	8.0	cue_stay	color	stay	stim	poldrack-single-stim	s373	0	False
417.896	1.0	418.974	0.1	2.136	True	89.0	Magnitude	n/a	twobytwo	89.0	0.978	orange	4.0	task_switch	magnitude	switch	stim	poldrack-single-stim	s373	0	False
420.139	1.0	420.921	0.1	2.272	True	89.0	High-Low	switch	twobytwo	89.0	0.682	blue	1.0	cue_switch	magnitude	stay	stim	poldrack-single-stim	s373	0	False
423.323	1.0	424.803	0.9	2.272	True	89.0	Magnitude	switch	twobytwo	89.0	0.58	blue	1.0	cue_switch	magnitude	stay	stim	poldrack-single-stim	s373	0	False
426.5	1.0	427.985	0.9	2.136	True	89.0	Magnitude	stay	twobytwo	89.0	0.585	blue	4.0	cue_stay	magnitude	stay	stim	poldrack-single-stim	s373	0	False
428.739	1.0	429.643	0.1	2.408	True	71.0	Orange-Blue	n/a	twobytwo	71.0	0.804	orange	9.0	task_switch	color	switch	stim	poldrack-single-stim	s373	0	False
431.252	1.0	432.163	0.1	2.136	True	89.0	High-Low	n/a	twobytwo	89.0	0.811	orange	4.0	task_switch	magnitude	switch	stim	poldrack-single-stim	s373	0	False
434.292	1.0	435.688	0.9	2.136	True	71.0	Magnitude	switch	twobytwo	71.0	0.496	blue	9.0	cue_switch	magnitude	stay	stim	poldrack-single-stim	s373	0	False
436.54	1.0	437.536	0.1	2.0	True	89.0	Color	n/a	twobytwo	89.0	0.896	blue	9.0	task_switch	color	switch	stim	poldrack-single-stim	s373	0	False
439.447	1.0	440.79	0.9	2.0	True	71.0	Color	stay	twobytwo	71.0	0.443	orange	3.0	cue_stay	color	stay	stim	poldrack-single-stim	s373	0	False
442.354	1.0	443.797	0.9	2.0	True	89.0	High-Low	n/a	twobytwo	89.0	0.543	blue	3.0	task_switch	magnitude	switch	stim	poldrack-single-stim	s373	0	False
444.466	1.0	445.214	0.1	2.0	True	89.0	Color	n/a	twobytwo	89.0	0.648	blue	3.0	task_switch	color	switch	stim	poldrack-single-stim	s373	0	False
446.573	1.0	447.364	0.1	2.0	True	89.0	Magnitude	n/a	twobytwo	89.0	0.691	orange	4.0	task_switch	magnitude	switch	stim	poldrack-single-stim	s373	0	False
449.48	1.0	450.854	0.9	2.272	True	89.0	Color	n/a	twobytwo	89.0	0.474	blue	7.0	task_switch	color	switch	stim	poldrack-single-stim	s373	0	False
465.376	1.0	466.227	0.1	2.408	True	89.0	Orange-Blue	switch	twobytwo	89.0	0.751	blue	9.0	cue_switch	color	stay	stim	poldrack-single-stim	s373	1	False
468.691	1.0	470.066	0.9	2.0	True	89.0	High-Low	n/a	twobytwo	89.0	0.475	orange	4.0	task_switch	magnitude	switch	stim	poldrack-single-stim	s373	0	False
471.595	1.0	473.045	0.9	2.136	True	71.0	Color	n/a	twobytwo	71.0	0.55	orange	1.0	task_switch	color	switch	stim	poldrack-single-stim	s373	0	False
474.638	1.0	476.009	0.9	2.0	True	71.0	Color	stay	twobytwo	71.0	0.471	orange	3.0	cue_stay	color	stay	stim	poldrack-single-stim	s373	0	False
476.747	1.0	477.538	0.1	2.136	True	89.0	Magnitude	n/a	twobytwo	89.0	0.691	orange	1.0	task_switch	magnitude	switch	stim	poldrack-single-stim	s373	0	False
479.796	1.0	481.14	0.9	2.544	True	89.0	Magnitude	stay	twobytwo	89.0	0.444	orange	2.0	cue_stay	magnitude	stay	stim	poldrack-single-stim	s373	0	False
482.444	1.0	483.359	0.1	2.68	True	71.0	High-Low	switch	twobytwo	71.0	0.815	blue	9.0	cue_switch	magnitude	stay	stim	poldrack-single-stim	s373	0	False
486.031	1.0	487.575	0.9	3.088	True	71.0	High-Low	stay	twobytwo	71.0	0.644	orange	6.0	cue_stay	magnitude	stay	stim	poldrack-single-stim	s373	0	False
490.021	1.0	491.487	0.9	2.136	True	89.0	High-Low	stay	twobytwo	89.0	0.566	orange	4.0	cue_stay	magnitude	stay	stim	poldrack-single-stim	s373	0	False
493.066	1.0	494.43	0.9	2.544	True	71.0	Color	n/a	twobytwo	71.0	0.464	orange	1.0	task_switch	color	switch	stim	poldrack-single-stim	s373	0	False
496.516	1.0	498.301	0.9	2.0	True	89.0	High-Low	n/a	twobytwo	89.0	0.885	orange	3.0	task_switch	magnitude	switch	stim	poldrack-single-stim	s373	0	False
498.626	1.0	499.712	0.1	2.136	True	71.0	High-Low	stay	twobytwo	71.0	0.986	orange	6.0	cue_stay	magnitude	stay	stim	poldrack-single-stim	s373	0	False
501.669	1.0	503.214	0.9	2.0	True	89.0	Magnitude	switch	twobytwo	89.0	0.645	blue	1.0	cue_switch	magnitude	stay	stim	poldrack-single-stim	s373	0	False
504.573	1.0	506.15	0.9	2.408	True	71.0	Magnitude	stay	twobytwo	71.0	0.677	blue	7.0	cue_stay	magnitude	stay	stim	poldrack-single-stim	s373	0	False
507.888	1.0	509.486	0.9	2.0	True	89.0	Orange-Blue	n/a	twobytwo	89.0	0.698	blue	6.0	task_switch	color	switch	stim	poldrack-single-stim	s373	0	False
509.994	1.0	511.185	0.1	2.0	True	71.0	Color	switch	twobytwo	71.0	1.091	orange	2.0	cue_switch	color	stay	stim	poldrack-single-stim	s373	0	False
512.1	1.0	513.235	0.1	2.0	True	89.0	Orange-Blue	switch	twobytwo	89.0	1.035	blue	1.0	cue_switch	color	stay	stim	poldrack-single-stim	s373	0	False
515.008	1.0	516.431	0.9	2.68	True	71.0	Magnitude	n/a	twobytwo	71.0	0.523	blue	6.0	task_switch	magnitude	switch	stim	poldrack-single-stim	s373	0	False
517.797	1.0	518.675	0.1	2.272	True	89.0	Orange-Blue	n/a	twobytwo	89.0	0.778	blue	4.0	task_switch	color	switch	stim	poldrack-single-stim	s373	0	False
520.979	1.0	522.459	0.9	2.408	True	89.0	Magnitude	n/a	twobytwo	89.0	0.58	blue	1.0	task_switch	magnitude	switch	stim	poldrack-single-stim	s373	0	False
523.496	1.0	524.619	0.1	3.224	True	89.0	High-Low	switch	twobytwo	89.0	1.023	blue	4.0	cue_switch	magnitude	stay	stim	poldrack-single-stim	s373	0	False
526.824	1.0	527.606	0.1	2.408	True	71.0	High-Low	stay	twobytwo	71.0	0.682	orange	6.0	cue_stay	magnitude	stay	stim	poldrack-single-stim	s373	0	False
529.339	1.0	530.351	0.1	2.816	True	71.0	High-Low	stay	twobytwo	71.0	0.912	blue	8.0	cue_stay	magnitude	stay	stim	poldrack-single-stim	s373	0	False
533.059	1.0	534.398	0.9	2.408	True	89.0	High-Low	stay	twobytwo	89.0	0.439	blue	2.0	cue_stay	magnitude	stay	stim	poldrack-single-stim	s373	0	False
535.572	1.0	536.465	0.1	2.136	True	89.0	Orange-Blue	n/a	twobytwo	89.0	0.793	blue	2.0	task_switch	color	switch	stim	poldrack-single-stim	s373	0	False
538.612	1.0	539.993	0.9	2.136	True	71.0	Magnitude	n/a	twobytwo	71.0	0.481	orange	9.0	task_switch	magnitude	switch	stim	poldrack-single-stim	s373	0	False
541.655	1.0	543.531	0.9	2.0	True	89.0	Color	n/a	twobytwo	89.0	0.976	blue	6.0	task_switch	color	switch	stim	poldrack-single-stim	s373	0	False
543.761	1.0	544.762	0.1	2.0	True	71.0	Orange-Blue	switch	twobytwo	71.0	0.901	orange	6.0	cue_switch	color	stay	stim	poldrack-single-stim	s373	0	False
545.868	1.0	546.609	0.1	2.272	True	71.0	Color	switch	twobytwo	71.0	0.641	orange	4.0	cue_switch	color	stay	stim	poldrack-single-stim	s373	0	False
549.05	1.0	550.478	0.9	2.408	True	71.0	Magnitude	n/a	twobytwo	71.0	0.528	blue	6.0	task_switch	magnitude	switch	stim	poldrack-single-stim	s373	0	False
551.564	1.0	552.551	0.1	2.0	True	71.0	High-Low	switch	twobytwo	71.0	0.887	orange	8.0	cue_switch	magnitude	stay	stim	poldrack-single-stim	s373	0	False
553.674	1.0	554.537	0.1	2.136	True	89.0	Orange-Blue	n/a	twobytwo	89.0	0.763	blue	9.0	task_switch	color	switch	stim	poldrack-single-stim	s373	0	False
555.917	1.0	556.83	0.1	2.0	True	89.0	Orange-Blue	stay	twobytwo	89.0	0.813	blue	7.0	cue_stay	color	stay	stim	poldrack-single-stim	s373	0	False
558.821	1.0	560.566	0.9	2.408	True	71.0	Color	switch	twobytwo	71.0	0.845	orange	3.0	cue_switch	color	stay	stim	poldrack-single-stim	s373	0	False
562.135	1.0	563.55	0.9	2.272	True	89.0	High-Low	n/a	twobytwo	89.0	0.515	orange	3.0	task_switch	magnitude	switch	stim	poldrack-single-stim	s373	0	False
565.314	1.0	566.932	0.9	2.0	True	89.0	Orange-Blue	n/a	twobytwo	89.0	0.718	blue	9.0	task_switch	color	switch	stim	poldrack-single-stim	s373	0	False
567.423	1.0	568.398	0.1	2.272	True	89.0	Color	switch	twobytwo	89.0	0.875	blue	8.0	cue_switch	color	stay	stim	poldrack-single-stim	s373	0	False
569.805	1.0	571.225	0.1	2.0	True	89.0	High-Low	n/a	twobytwo	89.0	1.32	blue	3.0	task_switch	magnitude	switch	stim	poldrack-single-stim	s373	0	False
572.711	1.0	574.039	0.9	2.0	True	71.0	Orange-Blue	n/a	twobytwo	71.0	0.428	orange	9.0	task_switch	color	switch	stim	poldrack-single-stim	s373	0	False
574.819	1.0	575.901	0.1	2.272	True	71.0	High-Low	n/a	twobytwo	71.0	0.982	orange	9.0	task_switch	magnitude	switch	stim	poldrack-single-stim	s373	0	False
577.995	1.0	579.369	0.9	2.136	True	71.0	Color	n/a	twobytwo	71.0	0.474	orange	6.0	task_switch	color	switch	stim	poldrack-single-stim	s373	0	False
580.238	1.0	581.192	0.1	2.0	True	89.0	Magnitude	n/a	twobytwo	89.0	0.854	blue	2.0	task_switch	magnitude	switch	stim	poldrack-single-stim	s373	0	False
582.345	1.0	583.176	0.1	2.0	True	89.0	High-Low	switch	twobytwo	89.0	0.731	blue	1.0	cue_switch	magnitude	stay	stim	poldrack-single-stim	s373	0	False
584.451	1.0	585.393	0.1	2.0	False	89.0	Color	n/a	twobytwo	71.0	0.842	blue	6.0	task_switch	color	switch	stim	poldrack-single-stim	s373	0	False
587.358	1.0	588.814	0.9	2.0	True	71.0	Magnitude	n/a	twobytwo	71.0	0.556	blue	9.0	task_switch	magnitude	switch	stim	poldrack-single-stim	s373	0	False
590.265	1.0	592.034	0.9	2.0	True	89.0	Magnitude	stay	twobytwo	89.0	0.869	blue	1.0	cue_stay	magnitude	stay	stim	poldrack-single-stim	s373	0	False
593.169	1.0	594.756	0.9	2.136	True	89.0	High-Low	switch	twobytwo	89.0	0.687	blue	4.0	cue_switch	magnitude	stay	stim	poldrack-single-stim	s373	0	False
596.217	1.0	597.543	0.9	2.0	True	71.0	Color	n/a	twobytwo	71.0	0.426	orange	3.0	task_switch	color	switch	stim	poldrack-single-stim	s373	0	False
599.124	1.0	600.505	0.9	2.0	True	89.0	Magnitude	n/a	twobytwo	89.0	0.481	blue	1.0	task_switch	magnitude	switch	stim	poldrack-single-stim	s373	0	False
601.233	1.0	602.215	0.1	2.136	True	89.0	Orange-Blue	n/a	twobytwo	89.0	0.882	blue	9.0	task_switch	color	switch	stim	poldrack-single-stim	s373	0	False
604.276	1.0	605.873	0.9	2.0	True	89.0	High-Low	n/a	twobytwo	89.0	0.697	blue	4.0	task_switch	magnitude	switch	stim	poldrack-single-stim	s373	0	False
607.18	1.0	608.684	0.9	2.136	True	89.0	High-Low	stay	twobytwo	89.0	0.604	blue	4.0	cue_stay	magnitude	stay	stim	poldrack-single-stim	s373	0	False
610.221	1.0	611.573	0.9	2.68	True	71.0	Color	n/a	twobytwo	71.0	0.452	orange	4.0	task_switch	color	switch	stim	poldrack-single-stim	s373	0	False
613.007	1.0	613.822	0.1	2.272	True	89.0	Magnitude	n/a	twobytwo	89.0	0.715	orange	1.0	task_switch	magnitude	switch	stim	poldrack-single-stim	s373	0	False
616.189	1.0	617.664	0.9	2.136	True	71.0	High-Low	switch	twobytwo	71.0	0.575	orange	6.0	cue_switch	magnitude	stay	stim	poldrack-single-stim	s373	0	False
618.432	1.0	619.504	0.1	2.0	True	71.0	Magnitude	switch	twobytwo	71.0	0.972	orange	7.0	cue_switch	magnitude	stay	stim	poldrack-single-stim	s373	0	False
621.336	1.0	622.708	0.9	2.136	True	89.0	Magnitude	stay	twobytwo	89.0	0.472	orange	3.0	cue_stay	magnitude	stay	stim	poldrack-single-stim	s373	0	False
624.378	1.0	625.75	0.9	2.68	True	89.0	Orange-Blue	n/a	twobytwo	89.0	0.472	blue	2.0	task_switch	color	switch	stim	poldrack-single-stim	s373	0	False
627.168	1.0	628.831	0.1	2.272	True	71.0	High-Low	n/a	twobytwo	71.0	1.563	orange	7.0	task_switch	magnitude	switch	stim	poldrack-single-stim	s373	0	False
629.547	1.0	630.298	0.1	2.0	True	89.0	High-Low	stay	twobytwo	89.0	0.651	blue	3.0	cue_stay	magnitude	stay	stim	poldrack-single-stim	s373	0	False
631.654	1.0	632.828	0.1	2.0	True	89.0	Color	n/a	twobytwo	89.0	1.074	blue	3.0	task_switch	color	switch	stim	poldrack-single-stim	s373	0	False
633.758	1.0	634.557	0.1	2.136	True	89.0	Color	stay	twobytwo	89.0	0.699	blue	1.0	cue_stay	color	stay	stim	poldrack-single-stim	s373	0	False
636.799	1.0	638.242	0.9	2.0	True	89.0	Orange-Blue	switch	twobytwo	89.0	0.543	blue	3.0	cue_switch	color	stay	stim	poldrack-single-stim	s373	0	False
639.707	1.0	641.088	0.9	2.0	True	71.0	Color	switch	twobytwo	71.0	0.481	orange	8.0	cue_switch	color	stay	stim	poldrack-single-stim	s373	0	False
641.811	1.0	642.777	0.1	2.0	True	71.0	Orange-Blue	switch	twobytwo	71.0	0.866	orange	2.0	cue_switch	color	stay	stim	poldrack-single-stim	s373	0	False
644.721	1.0	646.134	0.9	2.272	True	71.0	Magnitude	n/a	twobytwo	71.0	0.513	orange	8.0	task_switch	magnitude	switch	stim	poldrack-single-stim	s373	0	False
647.097	1.0	648.273	0.1	2.408	True	71.0	Magnitude	stay	twobytwo	71.0	1.076	blue	8.0	cue_stay	magnitude	stay	stim	poldrack-single-stim	s373	0	False
649.612	1.0	650.451	0.1	2.0	True	71.0	Orange-Blue	n/a	twobytwo	71.0	0.739	orange	4.0	task_switch	color	switch	stim	poldrack-single-stim	s373	0	False
651.719	1.0	652.551	0.1	2.0	True	89.0	Color	switch	twobytwo	89.0	0.732	blue	1.0	cue_switch	color	stay	stim	poldrack-single-stim	s373	0	False
654.625	1.0	656.041	0.9	2.0	True	89.0	Orange-Blue	switch	twobytwo	89.0	0.516	blue	1.0	cue_switch	color	stay	stim	poldrack-single-stim	s373	0	False
657.532	1.0	658.972	0.9	2.272	True	89.0	Orange-Blue	stay	twobytwo	89.0	0.54	blue	4.0	cue_stay	color	stay	stim	poldrack-single-stim	s373	0	False
659.908	1.0	660.844	0.1	2.136	True	71.0	High-Low	n/a	twobytwo	71.0	0.836	orange	9.0	task_switch	magnitude	switch	stim	poldrack-single-stim	s373	0	False
662.151	1.0	663.161	0.1	2.0	True	71.0	Orange-Blue	n/a	twobytwo	71.0	0.91	orange	4.0	task_switch	color	switch	stim	poldrack-single-stim	s373	0	False
665.058	1.0	666.449	0.9	2.544	True	89.0	Color	switch	twobytwo	89.0	0.491	blue	9.0	cue_switch	color	stay	stim	poldrack-single-stim	s373	0	False
667.709	1.0	668.774	0.1	2.272	True	71.0	High-Low	n/a	twobytwo	71.0	0.965	blue	9.0	task_switch	magnitude	switch	stim	poldrack-single-stim	s373	0	False
670.888	1.0	672.299	0.9	2.272	True	89.0	High-Low	stay	twobytwo	89.0	0.511	orange	3.0	cue_stay	magnitude	stay	stim	poldrack-single-stim	s373	0	False
674.066	1.0	675.504	0.9	2.0	True	89.0	Color	n/a	twobytwo	89.0	0.538	blue	3.0	task_switch	color	switch	stim	poldrack-single-stim	s373	0	False
676.173	1.0	677.103	0.1	2.0	True	89.0	Magnitude	n/a	twobytwo	89.0	0.83	blue	3.0	task_switch	magnitude	switch	stim	poldrack-single-stim	s373	0	False
678.277	1.0	679.46	0.1	2.136	True	71.0	Color	n/a	twobytwo	71.0	1.083	orange	4.0	task_switch	color	switch	stim	poldrack-single-stim	s373	0	False
681.32	1.0	682.731	0.9	2.0	True	71.0	High-Low	n/a	twobytwo	71.0	0.511	blue	7.0	task_switch	magnitude	switch	stim	poldrack-single-stim	s373	0	False
