onset	duration	movement_onset	EV	action	block_duration	experiment_exp_id	gain_amount	gain_probability	key_press	loss_amount	loss_probability	num_cards	num_click_in_round	num_loss_cards	risk	response_time	total_cards	trial_id	trial_type	worker_id	junk	feedback
3.012	4.884	7.896	-1.8422515927977088	draw_card	4.884	columbia_card_task_fmri	12.0	0.8333333333333334	89.0	-70.0	0.1666666666666666	6.0	1.0	1.0	0.2391111576011155	4.884	n/a	stim	poldrack-single-stim	s373	False	1
7.898	2.413	10.311	-4.575584926131041	draw_card	2.413	columbia_card_task_fmri	12.0	0.8	89.0	-70.0	0.2	6.0	2.0	1.0	2.479481011125447	2.413	n/a	stim	poldrack-single-stim	s373	False	1
10.313	1.983	12.296	-8.675584926131043	end_round	1.983	columbia_card_task_fmri	12.0	0.75	71.0	-70.0	0.25	6.0	3.0	1.0	5.186486736650057	1.983	2.0	stim	poldrack-single-stim	s373	False	1
13.053	1.5	12.302	n/a	-1.0	2.454	columbia_card_task_fmri	n/a	n/a	-1.0	n/a	n/a	n/a	n/a	n/a	n/a	n/a	n/a	ITI	poldrack-single-stim	s373	False	0
14.758	3.635	18.393	-1.0089182594643753	draw_card	3.635	columbia_card_task_fmri	14.0	0.8333333333333334	89.0	-75.0	0.1666666666666666	6.0	1.0	1.0	2.847817458358133	3.635	n/a	stim	poldrack-single-stim	s373	False	1
18.394	2.471	20.865	-3.975584926131042	draw_card	2.471	columbia_card_task_fmri	14.0	0.8	89.0	-75.0	0.2	6.0	2.0	1.0	5.279444047885345	2.471	2.0	stim	poldrack-single-stim	s373	False	0
21.622	1.5	20.871	n/a	-1.0	2.454	columbia_card_task_fmri	n/a	n/a	-1.0	n/a	n/a	n/a	n/a	n/a	n/a	n/a	n/a	ITI	poldrack-single-stim	s373	False	0
23.327	4.421	27.748	0.6577484072022909	draw_card	4.421	columbia_card_task_fmri	15.0	0.8333333333333334	89.0	-70.0	0.1666666666666666	6.0	1.0	1.0	1.3571273435306352	4.421	1.0	stim	poldrack-single-stim	s373	False	0
28.503	1.5	27.752	n/a	-1.0	2.522	columbia_card_task_fmri	n/a	n/a	-1.0	n/a	n/a	n/a	n/a	n/a	n/a	n/a	n/a	ITI	poldrack-single-stim	s373	False	0
30.277	2.786	33.063	1.4910817405356247	draw_card	2.786	columbia_card_task_fmri	17.0	0.8333333333333334	89.0	-75.0	0.1666666666666666	6.0	1.0	1.0	3.9658362924793913	2.786	n/a	stim	poldrack-single-stim	s373	False	1
33.065	1.373	34.438	-1.5755849261310415	end_round	1.373	columbia_card_task_fmri	17.0	0.8	71.0	-75.0	0.2	6.0	2.0	1.0	6.479429928355874	1.373	1.0	stim	poldrack-single-stim	s373	False	1
35.194	1.5	34.443	n/a	-1.0	2.386	columbia_card_task_fmri	n/a	n/a	-1.0	n/a	n/a	n/a	n/a	n/a	n/a	n/a	n/a	ITI	poldrack-single-stim	s373	False	0
36.832	2.453	39.285	2.824415073868957	draw_card	2.453	columbia_card_task_fmri	24.0	0.75	89.0	-60.0	0.25	8.0	1.0	2.0	6.052501803948818	2.453	n/a	stim	poldrack-single-stim	s373	False	1
39.286	4.176	43.462	-0.175584926131043	draw_card	4.176	columbia_card_task_fmri	24.0	0.7142857142857143	89.0	-60.0	0.2857142857142857	8.0	2.0	2.0	7.626749185607155	4.176	n/a	stim	poldrack-single-stim	s373	False	1
43.468	1.638	45.106	-4.175584926131043	end_round	1.638	columbia_card_task_fmri	24.0	0.6666666666666667	71.0	-60.0	0.3333333333333333	8.0	3.0	2.0	9.277380076876678	1.638	2.0	stim	poldrack-single-stim	s373	False	1
45.862	1.5	45.111	n/a	-1.0	2.454	columbia_card_task_fmri	n/a	n/a	-1.0	n/a	n/a	n/a	n/a	n/a	n/a	n/a	n/a	ITI	poldrack-single-stim	s373	False	0
47.567	2.184	49.751	2.824415073868957	draw_card	2.184	columbia_card_task_fmri	29.0	0.75	89.0	-75.0	0.25	8.0	1.0	2.0	14.712674342287851	2.184	n/a	stim	poldrack-single-stim	s373	False	1
49.752	3.295	53.047	-0.8898706404167548	end_round	3.295	columbia_card_task_fmri	29.0	0.7142857142857143	71.0	-75.0	0.2857142857142857	8.0	2.0	2.0	16.661750096113064	3.295	1.0	stim	poldrack-single-stim	s373	False	1
53.801	1.5	53.05	n/a	-1.0	2.522	columbia_card_task_fmri	n/a	n/a	-1.0	n/a	n/a	n/a	n/a	n/a	n/a	n/a	n/a	ITI	poldrack-single-stim	s373	False	0
55.574	2.271	57.845	-1.3978071483532628	draw_card	2.271	columbia_card_task_fmri	17.0	0.7777777777777778	89.0	-65.0	0.2222222222222222	9.0	1.0	2.0	3.770119409237889	2.271	n/a	stim	poldrack-single-stim	s373	False	1
57.846	1.846	59.692	-3.675584926131043	draw_card	1.846	columbia_card_task_fmri	17.0	0.75	89.0	-65.0	0.25	9.0	2.0	2.0	5.186486736650057	1.846	n/a	stim	poldrack-single-stim	s373	False	1
59.693	1.041	60.734	-6.60415635470247	end_round	1.041	columbia_card_task_fmri	17.0	0.7142857142857143	71.0	-65.0	0.2857142857142857	9.0	3.0	2.0	6.723251190387469	1.041	2.0	stim	poldrack-single-stim	s373	False	1
61.487	1.5	60.736	n/a	-1.0	2.522	columbia_card_task_fmri	n/a	n/a	-1.0	n/a	n/a	n/a	n/a	n/a	n/a	n/a	n/a	ITI	poldrack-single-stim	s373	False	0
63.261	3.689	66.95	2.9244150738689565	end_round	3.689	columbia_card_task_fmri	14.0	0.9	71.0	-95.0	0.1	10.0	1.0	1.0	2.379482448313187	3.689	0.0	stim	poldrack-single-stim	s373	False	1
67.707	1.5	66.956	n/a	-1.0	2.59	columbia_card_task_fmri	n/a	n/a	-1.0	n/a	n/a	n/a	n/a	n/a	n/a	n/a	n/a	ITI	poldrack-single-stim	s373	False	0
69.548	2.65	72.198	-1.1755849261310432	draw_card	2.65	columbia_card_task_fmri	15.0	0.8	89.0	-65.0	0.2	10.0	1.0	2.0	1.6794927601296372	2.65	n/a	stim	poldrack-single-stim	s373	False	1
72.199	1.89	74.089	-2.95336270390882	draw_card	1.89	columbia_card_task_fmri	15.0	0.7777777777777778	89.0	-65.0	0.2222222222222222	10.0	2.0	2.0	2.9386512941657124	1.89	n/a	stim	poldrack-single-stim	s373	False	1
74.091	2.412	76.503	-5.175584926131043	end_round	2.412	columbia_card_task_fmri	15.0	0.75	71.0	-65.0	0.25	10.0	3.0	2.0	4.320472186165862	2.412	2.0	stim	poldrack-single-stim	s373	False	1
77.258	1.5	76.507	n/a	-1.0	2.454	columbia_card_task_fmri	n/a	n/a	-1.0	n/a	n/a	n/a	n/a	n/a	n/a	n/a	n/a	ITI	poldrack-single-stim	s373	False	0
78.964	1.894	80.858	0.4244150738689584	draw_card	1.894	columbia_card_task_fmri	17.0	0.8	89.0	-65.0	0.2	10.0	1.0	2.0	2.479481011125447	1.894	1.0	stim	poldrack-single-stim	s373	False	0
81.611	1.5	80.86	n/a	-1.0	2.318	columbia_card_task_fmri	n/a	n/a	-1.0	n/a	n/a	n/a	n/a	n/a	n/a	n/a	n/a	ITI	poldrack-single-stim	s373	False	0
83.18	3.25	86.43	-1.0089182594643753	draw_card	3.25	columbia_card_task_fmri	13.0	0.8333333333333334	89.0	-70.0	0.1666666666666666	12.0	1.0	2.0	0.6117830765865229	3.25	n/a	stim	poldrack-single-stim	s373	False	1
86.431	0.78	87.211	-2.2664940170401366	end_round	0.78	columbia_card_task_fmri	13.0	0.8181818181818181	71.0	-70.0	0.1818181818181818	12.0	2.0	2.0	1.6921450270969736	0.78	1.0	stim	poldrack-single-stim	s373	False	1
87.968	1.5	87.217	n/a	-1.0	2.25	columbia_card_task_fmri	n/a	n/a	-1.0	n/a	n/a	n/a	n/a	n/a	n/a	n/a	n/a	ITI	poldrack-single-stim	s373	False	0
89.469	2.19	91.659	-1.0089182594643753	draw_card	2.19	columbia_card_task_fmri	15.0	0.8333333333333334	89.0	-80.0	0.1666666666666666	12.0	1.0	2.0	5.083856083716849	2.19	n/a	stim	poldrack-single-stim	s373	False	1
91.66	1.029	92.689	-2.4483121988583183	end_round	1.029	columbia_card_task_fmri	15.0	0.8181818181818181	71.0	-80.0	0.1818181818181818	12.0	2.0	2.0	6.320419498576907	1.029	1.0	stim	poldrack-single-stim	s373	False	1
93.443	1.5	92.692	n/a	-1.0	2.658	columbia_card_task_fmri	n/a	n/a	-1.0	n/a	n/a	n/a	n/a	n/a	n/a	n/a	n/a	ITI	poldrack-single-stim	s373	False	0
95.353	1.866	97.219	-1.975584926131042	draw_card	1.866	columbia_card_task_fmri	14.0	0.8	89.0	-65.0	0.2	15.0	1.0	3.0	1.279498857709001	1.866	n/a	stim	poldrack-single-stim	s373	False	1
97.22	3.164	100.384	-3.10415635470247	draw_card	3.164	columbia_card_task_fmri	14.0	0.7857142857142857	89.0	-65.0	0.2142857142857142	15.0	2.0	3.0	2.09523294460433	3.164	n/a	stim	poldrack-single-stim	s373	False	1
100.387	0.999	101.386	-4.406354156900274	end_round	0.999	columbia_card_task_fmri	14.0	0.7692307692307692	71.0	-65.0	0.2307692307692307	15.0	3.0	3.0	2.9641526622878267	0.999	2.0	stim	poldrack-single-stim	s373	False	1
102.143	1.5	101.392	n/a	-1.0	2.454	columbia_card_task_fmri	n/a	n/a	-1.0	n/a	n/a	n/a	n/a	n/a	n/a	n/a	n/a	ITI	poldrack-single-stim	s373	False	0
103.848	4.528	108.376	-2.050584926131043	draw_card	4.528	columbia_card_task_fmri	1.0	0.9375	89.0	-45.0	0.0625	16.0	1.0	1.0	-19.18477752366763	4.528	n/a	stim	poldrack-single-stim	s373	False	1
108.378	0.588	108.966	-2.2422515927977096	end_round	0.588	columbia_card_task_fmri	1.0	0.9333333333333332	71.0	-45.0	0.0666666666666666	16.0	2.0	1.0	-18.845229622177605	0.588	1.0	stim	poldrack-single-stim	s373	False	1
109.722	1.5	108.971	n/a	-1.0	2.386	columbia_card_task_fmri	n/a	n/a	-1.0	n/a	n/a	n/a	n/a	n/a	n/a	n/a	n/a	ITI	poldrack-single-stim	s373	False	0
111.36	2.673	114.033	-1.1130849261310432	draw_card	2.673	columbia_card_task_fmri	15.0	0.8125	89.0	-70.0	0.1875	16.0	1.0	3.0	2.8560275435931466	2.673	n/a	stim	poldrack-single-stim	s373	False	1
114.035	2.001	116.036	-2.175584926131043	draw_card	2.001	columbia_card_task_fmri	15.0	0.8	89.0	-70.0	0.2	16.0	2.0	3.0	3.6794644242745953	2.001	n/a	stim	poldrack-single-stim	s373	False	1
116.038	1.103	117.141	-3.3898706404167585	end_round	1.103	columbia_card_task_fmri	15.0	0.7857142857142857	71.0	-70.0	0.2142857142857142	16.0	3.0	3.0	4.557154797600557	1.103	2.0	stim	poldrack-single-stim	s373	False	1
117.896	1.5	117.145	n/a	-1.0	2.59	columbia_card_task_fmri	n/a	n/a	-1.0	n/a	n/a	n/a	n/a	n/a	n/a	n/a	n/a	ITI	poldrack-single-stim	s373	False	0
119.738	1.752	121.49	5.824415073868957	draw_card	1.752	columbia_card_task_fmri	30.0	0.7	89.0	-50.0	0.3	10.0	1.0	3.0	6.340037080706399	1.752	1.0	stim	poldrack-single-stim	s373	False	0
122.243	1.5	121.492	n/a	-1.0	2.318	columbia_card_task_fmri	n/a	n/a	-1.0	n/a	n/a	n/a	n/a	n/a	n/a	n/a	n/a	ITI	poldrack-single-stim	s373	False	0
123.812	1.962	125.774	5.224415073868958	draw_card	1.962	columbia_card_task_fmri	17.0	0.8666666666666667	89.0	-70.0	0.1333333333333333	15.0	1.0	2.0	-0.7461545513157759	1.962	n/a	stim	poldrack-single-stim	s373	False	1
125.776	1.444	127.22	4.39584364529753	end_round	1.444	columbia_card_task_fmri	17.0	0.8571428571428572	71.0	-70.0	0.1428571428571428	15.0	2.0	2.0	0.1231756177742866	1.444	1.0	stim	poldrack-single-stim	s373	False	1
127.976	1.5	127.225	n/a	-1.0	2.59	columbia_card_task_fmri	n/a	n/a	-1.0	n/a	n/a	n/a	n/a	n/a	n/a	n/a	n/a	ITI	poldrack-single-stim	s373	False	0
129.818	3.173	132.991	0.4494150738689569	draw_card	3.173	columbia_card_task_fmri	7.0	0.9375	89.0	-95.0	0.0625	16.0	1.0	1.0	-5.630095795468328	3.173	n/a	stim	poldrack-single-stim	s373	False	1
132.994	0.809	133.803	0.0244150738689571	end_round	0.809	columbia_card_task_fmri	7.0	0.9333333333333332	71.0	-95.0	0.0666666666666666	16.0	2.0	1.0	-4.877112874224569	0.809	1.0	stim	poldrack-single-stim	s373	False	1
134.559	1.5	133.808	n/a	-1.0	2.386	columbia_card_task_fmri	n/a	n/a	-1.0	n/a	n/a	n/a	n/a	n/a	n/a	n/a	n/a	ITI	poldrack-single-stim	s373	False	0
136.197	4.876	141.073	2.011915073868957	end_round	4.876	columbia_card_task_fmri	9.0	0.9375	71.0	-100.0	0.0625	16.0	1.0	1.0	-3.935705675074495	4.876	0.0	stim	poldrack-single-stim	s373	False	1
141.828	1.5	141.077	n/a	-1.0	2.318	columbia_card_task_fmri	n/a	n/a	-1.0	n/a	n/a	n/a	n/a	n/a	n/a	n/a	n/a	ITI	poldrack-single-stim	s373	False	0
143.398	1.998	145.396	2.949415073868957	draw_card	1.998	columbia_card_task_fmri	15.0	0.875	89.0	-80.0	0.125	16.0	1.0	2.0	1.0977984977573811	1.998	n/a	stim	poldrack-single-stim	s373	False	1
145.398	1.85	147.248	2.1577484072022908	draw_card	1.85	columbia_card_task_fmri	15.0	0.8666666666666667	89.0	-80.0	0.1333333333333333	16.0	2.0	2.0	1.973278630573592	1.85	n/a	stim	poldrack-single-stim	s373	False	1
147.249	0.688	147.937	1.2529865024403877	end_round	0.688	columbia_card_task_fmri	15.0	0.8571428571428572	71.0	-80.0	0.1428571428571428	16.0	3.0	2.0	2.922549827959184	0.688	2.0	stim	poldrack-single-stim	s373	False	1
148.695	1.5	147.944	n/a	-1.0	2.318	columbia_card_task_fmri	n/a	n/a	-1.0	n/a	n/a	n/a	n/a	n/a	n/a	n/a	n/a	ITI	poldrack-single-stim	s373	False	0
150.265	2.449	152.714	5.074415073868957	draw_card	2.449	columbia_card_task_fmri	16.0	0.875	89.0	-70.0	0.125	16.0	1.0	2.0	-1.8786203826100127	2.449	n/a	stim	poldrack-single-stim	s373	False	1
152.717	1.434	154.151	4.3577484072022905	draw_card	1.434	columbia_card_task_fmri	16.0	0.8666666666666667	89.0	-70.0	0.1333333333333333	16.0	2.0	2.0	-1.0860831248979714	1.434	n/a	stim	poldrack-single-stim	s373	False	1
154.153	1.457	155.61	3.538700788154672	draw_card	1.457	columbia_card_task_fmri	16.0	0.8571428571428572	89.0	-70.0	0.1428571428571428	16.0	3.0	2.0	-0.2267456007387345	1.457	n/a	stim	poldrack-single-stim	s373	False	1
155.612	1.384	156.996	2.593645843099725	end_round	1.384	columbia_card_task_fmri	16.0	0.8461538461538461	71.0	-70.0	0.1538461538461538	16.0	4.0	2.0	0.7084120932095992	1.384	3.0	stim	poldrack-single-stim	s373	False	1
157.748	1.5	156.997	n/a	-1.0	2.318	columbia_card_task_fmri	n/a	n/a	-1.0	n/a	n/a	n/a	n/a	n/a	n/a	n/a	n/a	ITI	poldrack-single-stim	s373	False	0
159.319	3.384	162.703	6.386915073868957	draw_card	3.384	columbia_card_task_fmri	30.0	0.6875	89.0	-45.0	0.3125	16.0	1.0	5.0	4.442884876100184	3.384	1.0	stim	poldrack-single-stim	s373	False	0
163.458	1.5	162.707	n/a	-1.0	2.386	columbia_card_task_fmri	n/a	n/a	-1.0	n/a	n/a	n/a	n/a	n/a	n/a	n/a	n/a	ITI	poldrack-single-stim	s373	False	0
165.096	2.243	167.339	-1.8422515927977088	draw_card	2.243	columbia_card_task_fmri	13.0	0.8333333333333334	89.0	-75.0	0.1666666666666666	6.0	1.0	1.0	2.475144743261783	2.243	n/a	stim	poldrack-single-stim	s373	False	1
167.34	0.686	168.026	-4.775584926131042	end_round	0.686	columbia_card_task_fmri	13.0	0.8	71.0	-75.0	0.2	6.0	2.0	1.0	4.879448968323519	0.686	1.0	stim	poldrack-single-stim	s373	False	1
168.782	1.5	168.031	n/a	-1.0	2.25	columbia_card_task_fmri	n/a	n/a	-1.0	n/a	n/a	n/a	n/a	n/a	n/a	n/a	n/a	ITI	poldrack-single-stim	s373	False	0
170.284	2.058	172.342	-0.1755849261310413	draw_card	2.058	columbia_card_task_fmri	14.0	0.8333333333333334	89.0	-70.0	0.1666666666666666	6.0	1.0	1.0	0.9844551402652542	2.058	n/a	stim	poldrack-single-stim	s373	False	1
172.345	0.539	172.884	-2.975584926131042	end_round	0.539	columbia_card_task_fmri	14.0	0.8	71.0	-70.0	0.2	6.0	2.0	1.0	3.2794698215859093	0.539	1.0	stim	poldrack-single-stim	s373	False	1
173.638	1.5	172.887	n/a	-1.0	2.386	columbia_card_task_fmri	n/a	n/a	-1.0	n/a	n/a	n/a	n/a	n/a	n/a	n/a	n/a	ITI	poldrack-single-stim	s373	False	0
175.276	2.448	177.724	-0.1755849261310413	end_round	2.448	columbia_card_task_fmri	16.0	0.8333333333333334	71.0	-80.0	0.1666666666666666	6.0	1.0	1.0	5.456529544646717	2.448	0.0	stim	poldrack-single-stim	s373	False	1
178.481	1.5	177.73	n/a	-1.0	2.59	columbia_card_task_fmri	n/a	n/a	-1.0	n/a	n/a	n/a	n/a	n/a	n/a	n/a	n/a	ITI	poldrack-single-stim	s373	False	0
180.324	1.55	181.874	2.324415073868958	draw_card	1.55	columbia_card_task_fmri	17.0	0.8333333333333334	89.0	-70.0	0.1666666666666666	6.0	1.0	1.0	2.102472149568623	1.55	n/a	stim	poldrack-single-stim	s373	False	1
181.876	1.29	183.166	-0.5755849261310416	end_round	1.29	columbia_card_task_fmri	17.0	0.8	71.0	-70.0	0.2	6.0	2.0	1.0	4.479454001873069	1.29	1.0	stim	poldrack-single-stim	s373	False	1
183.921	1.5	183.17	n/a	-1.0	2.658	columbia_card_task_fmri	n/a	n/a	-1.0	n/a	n/a	n/a	n/a	n/a	n/a	n/a	n/a	ITI	poldrack-single-stim	s373	False	0
185.831	2.135	187.966	2.324415073868957	draw_card	2.135	columbia_card_task_fmri	25.0	0.75	89.0	-65.0	0.25	8.0	1.0	2.0	8.650549762196963	2.135	n/a	stim	poldrack-single-stim	s373	False	1
187.968	1.801	189.769	-0.8898706404167548	draw_card	1.801	columbia_card_task_fmri	25.0	0.7142857142857143	89.0	-65.0	0.2857142857142857	8.0	2.0	2.0	10.33724581327667	1.801	2.0	stim	poldrack-single-stim	s373	False	0
190.525	1.5	189.774	n/a	-1.0	2.386	columbia_card_task_fmri	n/a	n/a	-1.0	n/a	n/a	n/a	n/a	n/a	n/a	n/a	n/a	ITI	poldrack-single-stim	s373	False	0
192.163	1.881	194.044	2.324415073868957	draw_card	1.881	columbia_card_task_fmri	30.0	0.75	89.0	-80.0	0.25	8.0	1.0	2.0	17.310731882779283	1.881	1.0	stim	poldrack-single-stim	s373	False	0
194.797	1.5	194.046	n/a	-1.0	2.386	columbia_card_task_fmri	n/a	n/a	-1.0	n/a	n/a	n/a	n/a	n/a	n/a	n/a	n/a	ITI	poldrack-single-stim	s373	False	0
196.434	2.074	198.508	2.024415073868958	draw_card	2.074	columbia_card_task_fmri	13.0	0.9	89.0	-95.0	0.1	10.0	1.0	1.0	2.0794868131044204	2.074	n/a	stim	poldrack-single-stim	s373	False	1
198.511	0.889	199.4	0.824415073868957	end_round	0.889	columbia_card_task_fmri	13.0	0.8888888888888888	71.0	-95.0	0.1111111111111111	10.0	2.0	1.0	3.620590707654866	0.889	1.0	stim	poldrack-single-stim	s373	False	1
200.154	1.5	199.403	n/a	-1.0	2.25	columbia_card_task_fmri	n/a	n/a	-1.0	n/a	n/a	n/a	n/a	n/a	n/a	n/a	n/a	ITI	poldrack-single-stim	s373	False	0
201.657	2.055	203.712	3.4244150738689565	draw_card	2.055	columbia_card_task_fmri	14.0	0.9	89.0	-90.0	0.1	10.0	1.0	1.0	0.8795051116328949	2.055	n/a	stim	poldrack-single-stim	s373	False	1
203.715	1.717	205.432	2.2688595183134	draw_card	1.717	columbia_card_task_fmri	14.0	0.8888888888888888	89.0	-90.0	0.1111111111111111	10.0	2.0	1.0	2.363529453249239	1.717	n/a	stim	poldrack-single-stim	s373	False	1
205.433	1.214	206.647	0.824415073868957	end_round	1.214	columbia_card_task_fmri	14.0	0.875	71.0	-90.0	0.125	10.0	3.0	1.0	4.074226264495454	1.214	2.0	stim	poldrack-single-stim	s373	False	1
207.401	1.5	206.65	n/a	-1.0	2.318	columbia_card_task_fmri	n/a	n/a	-1.0	n/a	n/a	n/a	n/a	n/a	n/a	n/a	n/a	ITI	poldrack-single-stim	s373	False	0
208.972	2.966	211.938	-1.3755849261310424	draw_card	2.966	columbia_card_task_fmri	16.0	0.8	89.0	-70.0	0.2	10.0	1.0	2.0	4.079459152479661	2.966	n/a	stim	poldrack-single-stim	s373	False	1
211.939	0.507	212.446	-3.286696037242154	end_round	0.507	columbia_card_task_fmri	16.0	0.7777777777777778	71.0	-70.0	0.2222222222222222	10.0	2.0	2.0	5.4330572166843005	0.507	1.0	stim	poldrack-single-stim	s373	False	1
213.2	1.5	212.449	n/a	-1.0	2.25	columbia_card_task_fmri	n/a	n/a	-1.0	n/a	n/a	n/a	n/a	n/a	n/a	n/a	n/a	ITI	poldrack-single-stim	s373	False	0
214.703	2.49	217.193	-2.092251592797709	end_round	2.49	columbia_card_task_fmri	7.0	0.9166666666666666	71.0	-100.0	0.0833333333333333	12.0	1.0	1.0	-0.7472299971969676	2.49	0.0	stim	poldrack-single-stim	s373	False	1
217.947	1.5	217.196	n/a	-1.0	2.25	columbia_card_task_fmri	n/a	n/a	-1.0	n/a	n/a	n/a	n/a	n/a	n/a	n/a	n/a	ITI	poldrack-single-stim	s373	False	0
219.45	1.624	221.074	-1.8422515927977077	draw_card	1.624	columbia_card_task_fmri	14.0	0.8333333333333334	89.0	-80.0	0.1666666666666666	12.0	1.0	2.0	4.711182719281357	1.624	1.0	stim	poldrack-single-stim	s373	False	0
221.828	1.5	221.077	n/a	-1.0	2.386	columbia_card_task_fmri	n/a	n/a	-1.0	n/a	n/a	n/a	n/a	n/a	n/a	n/a	n/a	ITI	poldrack-single-stim	s373	False	0
223.466	2.123	225.589	-0.175584926131043	draw_card	2.123	columbia_card_task_fmri	15.0	0.8333333333333334	89.0	-75.0	0.1666666666666666	12.0	1.0	2.0	3.2204902908110107	2.123	n/a	stim	poldrack-single-stim	s373	False	1
225.591	0.995	226.586	-1.5392212897674082	draw_card	0.995	columbia_card_task_fmri	15.0	0.8181818181818181	89.0	-75.0	0.1818181818181818	12.0	2.0	2.0	4.391969831031293	0.995	n/a	stim	poldrack-single-stim	s373	False	1
226.588	0.727	227.315	-3.175584926131043	end_round	0.727	columbia_card_task_fmri	15.0	0.8	71.0	-75.0	0.2	12.0	3.0	2.0	5.679439236788273	0.727	2.0	stim	poldrack-single-stim	s373	False	1
228.073	1.5	227.322	n/a	-1.0	2.386	columbia_card_task_fmri	n/a	n/a	-1.0	n/a	n/a	n/a	n/a	n/a	n/a	n/a	n/a	ITI	poldrack-single-stim	s373	False	0
229.712	1.553	231.265	-1.1755849261310432	draw_card	1.553	columbia_card_task_fmri	15.0	0.8	89.0	-65.0	0.2	15.0	1.0	3.0	1.6794927601296372	1.553	1.0	stim	poldrack-single-stim	s373	False	0
232.021	1.5	231.27	n/a	-1.0	2.726	columbia_card_task_fmri	n/a	n/a	-1.0	n/a	n/a	n/a	n/a	n/a	n/a	n/a	n/a	ITI	poldrack-single-stim	s373	False	0
233.999	1.877	235.876	-1.9255849261310432	draw_card	1.877	columbia_card_task_fmri	14.0	0.8125	89.0	-70.0	0.1875	16.0	1.0	3.0	2.4657206999612	1.877	n/a	stim	poldrack-single-stim	s373	False	1
235.879	1.206	237.085	-2.975584926131042	draw_card	1.206	columbia_card_task_fmri	14.0	0.8	89.0	-70.0	0.2	16.0	2.0	3.0	3.2794698215859093	1.206	n/a	stim	poldrack-single-stim	s373	False	1
237.088	2.209	239.297	-4.175584926131043	draw_card	2.209	columbia_card_task_fmri	14.0	0.7857142857142857	89.0	-70.0	0.2142857142857142	16.0	3.0	3.0	4.146834155769003	2.209	n/a	stim	poldrack-single-stim	s373	False	1
239.3	0.754	240.054	-5.560200310746428	end_round	0.754	columbia_card_task_fmri	14.0	0.7692307692307692	71.0	-70.0	0.2307692307692307	16.0	4.0	3.0	5.070750316920265	0.754	3.0	stim	poldrack-single-stim	s373	False	1
240.811	1.5	240.06	n/a	-1.0	2.454	columbia_card_task_fmri	n/a	n/a	-1.0	n/a	n/a	n/a	n/a	n/a	n/a	n/a	n/a	ITI	poldrack-single-stim	s373	False	0
242.518	2.118	244.636	-1.9880849261310432	end_round	2.118	columbia_card_task_fmri	11.0	0.6875	71.0	-30.0	0.3125	16.0	1.0	5.0	-11.316169203759944	2.118	0.0	stim	poldrack-single-stim	s373	False	1
245.394	1.5	244.643	n/a	-1.0	2.318	columbia_card_task_fmri	n/a	n/a	-1.0	n/a	n/a	n/a	n/a	n/a	n/a	n/a	n/a	ITI	poldrack-single-stim	s373	False	0
246.965	1.958	248.923	2.824415073868957	draw_card	1.958	columbia_card_task_fmri	15.0	0.8666666666666667	89.0	-75.0	0.1333333333333333	15.0	1.0	2.0	0.2736319774979669	1.958	n/a	stim	poldrack-single-stim	s373	False	1
248.925	1.711	250.636	1.967272216726101	draw_card	1.711	columbia_card_task_fmri	15.0	0.8571428571428572	89.0	-75.0	0.1428571428571428	15.0	2.0	2.0	1.1729400583077414	1.711	n/a	stim	poldrack-single-stim	s373	False	1
250.639	1.537	252.176	0.9782612277151104	draw_card	1.537	columbia_card_task_fmri	15.0	0.8461538461538461	89.0	-75.0	0.1538461538461538	15.0	3.0	2.0	2.151594863074262	1.537	n/a	stim	poldrack-single-stim	s373	False	1
252.178	1.508	253.686	-0.175584926131043	draw_card	1.508	columbia_card_task_fmri	15.0	0.8333333333333334	89.0	-75.0	0.1666666666666666	15.0	4.0	2.0	3.2204902908110107	1.508	n/a	stim	poldrack-single-stim	s373	False	1
253.688	0.787	254.475	-1.5392212897674082	end_round	0.787	columbia_card_task_fmri	15.0	0.8181818181818181	71.0	-75.0	0.1818181818181818	15.0	5.0	2.0	4.391969831031293	0.787	4.0	stim	poldrack-single-stim	s373	False	1
255.233	1.5	254.482	n/a	-1.0	2.318	columbia_card_task_fmri	n/a	n/a	-1.0	n/a	n/a	n/a	n/a	n/a	n/a	n/a	n/a	ITI	poldrack-single-stim	s373	False	0
256.803	1.484	258.287	4.557748407202292	draw_card	1.484	columbia_card_task_fmri	17.0	0.8666666666666667	89.0	-75.0	0.1333333333333333	15.0	1.0	2.0	0.9534902928478246	1.484	n/a	stim	poldrack-single-stim	s373	False	1
258.289	1.536	259.825	3.681557931011816	draw_card	1.536	columbia_card_task_fmri	17.0	0.8571428571428572	89.0	-75.0	0.1428571428571428	15.0	2.0	2.0	1.872783630163948	1.536	n/a	stim	poldrack-single-stim	s373	False	1
259.828	1.372	261.2	2.6705689200228035	end_round	1.372	columbia_card_task_fmri	17.0	0.8461538461538461	71.0	-75.0	0.1538461538461538	15.0	3.0	2.0	2.873186967968582	1.372	2.0	stim	poldrack-single-stim	s373	False	1
261.956	1.5	261.205	n/a	-1.0	2.59	columbia_card_task_fmri	n/a	n/a	-1.0	n/a	n/a	n/a	n/a	n/a	n/a	n/a	n/a	ITI	poldrack-single-stim	s373	False	0
263.8	2.007	265.807	0.1369150738689569	draw_card	2.007	columbia_card_task_fmri	2.0	0.9375	89.0	-25.0	0.0625	16.0	1.0	1.0	-23.782971380626822	2.007	n/a	stim	poldrack-single-stim	s373	False	1
265.81	2.011	267.821	0.0244150738689568	draw_card	2.011	columbia_card_task_fmri	2.0	0.9333333333333332	89.0	-25.0	0.0666666666666666	16.0	2.0	1.0	-23.583717248114343	2.011	n/a	stim	poldrack-single-stim	s373	False	1
267.824	1.329	269.153	-0.1041563547024714	draw_card	1.329	columbia_card_task_fmri	2.0	0.9285714285714286	89.0	-25.0	0.0714285714285714	16.0	3.0	1.0	-23.36520928135605	1.329	n/a	stim	poldrack-single-stim	s373	False	1
269.156	1.45	270.606	-0.2525080030541199	draw_card	1.45	columbia_card_task_fmri	2.0	0.9230769230769232	89.0	-25.0	0.0769230769230769	16.0	4.0	1.0	-23.124174127527883	1.45	n/a	stim	poldrack-single-stim	s373	False	1
270.608	1.533	272.141	-0.4255849261310428	draw_card	1.533	columbia_card_task_fmri	2.0	0.9166666666666666	89.0	-25.0	0.0833333333333333	16.0	5.0	1.0	-22.85651777139272	1.533	n/a	stim	poldrack-single-stim	s373	False	1
272.152	0.611	272.763	-0.6301303806764978	end_round	0.611	columbia_card_task_fmri	2.0	0.9090909090909092	71.0	-25.0	0.0909090909090909	16.0	6.0	1.0	-22.55704898005274	0.611	5.0	stim	poldrack-single-stim	s373	False	1
273.517	1.5	272.766	n/a	-1.0	2.726	columbia_card_task_fmri	n/a	n/a	-1.0	n/a	n/a	n/a	n/a	n/a	n/a	n/a	n/a	ITI	poldrack-single-stim	s373	False	0
275.496	1.948	277.444	2.324415073868957	draw_card	1.948	columbia_card_task_fmri	9.0	0.9375	89.0	-95.0	0.0625	16.0	1.0	1.0	-5.145984883214627	1.948	1.0	stim	poldrack-single-stim	s373	False	0
278.201	1.5	277.45	n/a	-1.0	2.522	columbia_card_task_fmri	n/a	n/a	-1.0	n/a	n/a	n/a	n/a	n/a	n/a	n/a	n/a	ITI	poldrack-single-stim	s373	False	0
279.976	2.375	282.351	3.886915073868957	draw_card	2.375	columbia_card_task_fmri	11.0	0.9375	89.0	-100.0	0.0625	16.0	1.0	1.0	-3.4515932833270178	2.375	n/a	stim	poldrack-single-stim	s373	False	1
282.353	2.235	284.588	3.4244150738689574	end_round	2.235	columbia_card_task_fmri	11.0	0.9333333333333332	71.0	-100.0	0.0666666666666666	16.0	2.0	1.0	-2.6321675642432183	2.235	1.0	stim	poldrack-single-stim	s373	False	1
285.344	1.5	284.593	n/a	-1.0	3.134	columbia_card_task_fmri	n/a	n/a	-1.0	n/a	n/a	n/a	n/a	n/a	n/a	n/a	n/a	ITI	poldrack-single-stim	s373	False	0
287.731	1.646	289.377	4.449415073868957	draw_card	1.646	columbia_card_task_fmri	16.0	0.875	89.0	-75.0	0.125	16.0	1.0	2.0	-0.2250555917651837	1.646	n/a	stim	poldrack-single-stim	s373	False	1
289.38	0.721	290.101	3.691081740535624	draw_card	0.721	columbia_card_task_fmri	16.0	0.8666666666666667	89.0	-75.0	0.1333333333333333	16.0	2.0	2.0	0.6135610749923188	0.721	n/a	stim	poldrack-single-stim	s373	False	1
290.104	0.582	290.686	2.824415073868958	end_round	0.582	columbia_card_task_fmri	16.0	0.8571428571428572	71.0	-75.0	0.1428571428571428	16.0	3.0	2.0	1.522861785773621	0.582	2.0	stim	poldrack-single-stim	s373	False	1
291.442	1.5	290.691	n/a	-1.0	2.386	columbia_card_task_fmri	n/a	n/a	-1.0	n/a	n/a	n/a	n/a	n/a	n/a	n/a	n/a	ITI	poldrack-single-stim	s373	False	0
293.079	1.941	295.02	4.699415073868957	draw_card	1.941	columbia_card_task_fmri	17.0	0.875	89.0	-80.0	0.125	16.0	1.0	2.0	1.7592262094932387	1.941	n/a	stim	poldrack-single-stim	s373	False	1
295.023	1.958	296.981	3.891081740535625	draw_card	1.958	columbia_card_task_fmri	17.0	0.8666666666666667	89.0	-80.0	0.1333333333333333	16.0	2.0	2.0	2.653138057258598	1.958	n/a	stim	poldrack-single-stim	s373	False	1
296.984	1.221	298.205	2.9672722167261028	draw_card	1.221	columbia_card_task_fmri	17.0	0.8571428571428572	89.0	-80.0	0.1428571428571428	16.0	3.0	2.0	3.6223944794181726	1.221	n/a	stim	poldrack-single-stim	s373	False	1
298.208	0.526	298.734	1.9013381507920333	end_round	0.526	columbia_card_task_fmri	17.0	0.8461538461538461	71.0	-80.0	0.1538461538461538	16.0	4.0	2.0	4.677169091968121	0.526	3.0	stim	poldrack-single-stim	s373	False	1
299.49	1.5	298.739	n/a	-1.0	2.386	columbia_card_task_fmri	n/a	n/a	-1.0	n/a	n/a	n/a	n/a	n/a	n/a	n/a	n/a	ITI	poldrack-single-stim	s373	False	0
312.136	2.314	314.45	-1.0089182594643753	draw_card	2.314	columbia_card_task_fmri	13.0	0.8333333333333334	89.0	-70.0	0.1666666666666666	6.0	1.0	1.0	0.6117830765865229	2.314	n/a	stim	poldrack-single-stim	s373	False	1
314.453	0.866	315.319	-3.775584926131043	end_round	0.866	columbia_card_task_fmri	13.0	0.8	71.0	-70.0	0.2	6.0	2.0	1.0	2.8794753489502263	0.866	1.0	stim	poldrack-single-stim	s373	False	1
316.077	1.5	315.326	n/a	-1.0	2.318	columbia_card_task_fmri	n/a	n/a	-1.0	n/a	n/a	n/a	n/a	n/a	n/a	n/a	n/a	ITI	poldrack-single-stim	s373	False	0
317.647	2.349	319.996	-1.0089182594643753	draw_card	2.349	columbia_card_task_fmri	15.0	0.8333333333333334	89.0	-80.0	0.1666666666666666	6.0	1.0	1.0	5.083856083716849	2.349	n/a	stim	poldrack-single-stim	s373	False	1
319.999	1.692	321.691	-4.175584926131043	end_round	1.692	columbia_card_task_fmri	15.0	0.8	71.0	-80.0	0.2	6.0	2.0	1.0	7.679416700571398	1.692	1.0	stim	poldrack-single-stim	s373	False	1
322.444	1.5	321.693	n/a	-1.0	2.318	columbia_card_task_fmri	n/a	n/a	-1.0	n/a	n/a	n/a	n/a	n/a	n/a	n/a	n/a	ITI	poldrack-single-stim	s373	False	0
324.015	1.354	325.369	0.6577484072022909	draw_card	1.354	columbia_card_task_fmri	16.0	0.8333333333333334	89.0	-75.0	0.1666666666666666	6.0	1.0	1.0	3.593163236751625	1.354	1.0	stim	poldrack-single-stim	s373	False	0
326.124	1.5	325.373	n/a	-1.0	2.862	columbia_card_task_fmri	n/a	n/a	-1.0	n/a	n/a	n/a	n/a	n/a	n/a	n/a	n/a	ITI	poldrack-single-stim	s373	False	0
328.24	1.679	329.919	1.8244150738689568	draw_card	1.679	columbia_card_task_fmri	21.0	0.75	89.0	-55.0	0.25	8.0	1.0	2.0	2.588444798841362	1.679	n/a	stim	poldrack-single-stim	s373	False	1
329.922	1.688	331.61	-0.8898706404167566	draw_card	1.688	columbia_card_task_fmri	21.0	0.7142857142857143	89.0	-55.0	0.2857142857142857	8.0	2.0	2.0	4.012760333413286	1.688	2.0	stim	poldrack-single-stim	s373	False	0
332.368	1.5	331.617	n/a	-1.0	2.726	columbia_card_task_fmri	n/a	n/a	-1.0	n/a	n/a	n/a	n/a	n/a	n/a	n/a	n/a	ITI	poldrack-single-stim	s373	False	0
334.347	1.597	335.944	3.074415073868957	draw_card	1.597	columbia_card_task_fmri	26.0	0.75	89.0	-65.0	0.25	8.0	1.0	2.0	9.083558117452052	1.597	n/a	stim	poldrack-single-stim	s373	False	1
335.946	0.757	336.703	-0.1755849261310395	end_round	0.757	columbia_card_task_fmri	26.0	0.7142857142857143	71.0	-65.0	0.2857142857142857	8.0	2.0	2.0	10.788995598409596	0.757	1.0	stim	poldrack-single-stim	s373	False	1
337.457	1.5	336.706	n/a	-1.0	2.25	columbia_card_task_fmri	n/a	n/a	-1.0	n/a	n/a	n/a	n/a	n/a	n/a	n/a	n/a	ITI	poldrack-single-stim	s373	False	0
338.96	1.769	340.729	-1.8422515927977088	draw_card	1.769	columbia_card_task_fmri	15.0	0.7777777777777778	89.0	-60.0	0.2222222222222222	9.0	1.0	2.0	0.8599836440748518	1.769	n/a	stim	poldrack-single-stim	s373	False	1
340.732	0.894	341.626	-3.925584926131043	end_round	0.894	columbia_card_task_fmri	15.0	0.75	71.0	-60.0	0.25	9.0	2.0	2.0	2.155438342339305	0.894	1.0	stim	poldrack-single-stim	s373	False	1
342.381	1.5	341.63	n/a	-1.0	2.318	columbia_card_task_fmri	n/a	n/a	-1.0	n/a	n/a	n/a	n/a	n/a	n/a	n/a	n/a	ITI	poldrack-single-stim	s373	False	0
343.953	1.871	345.824	2.524415073868958	draw_card	1.871	columbia_card_task_fmri	13.0	0.9	89.0	-90.0	0.1	10.0	1.0	1.0	0.5795099083292534	1.871	n/a	stim	poldrack-single-stim	s373	False	1
345.827	1.069	346.896	1.3799706294245122	draw_card	1.069	columbia_card_task_fmri	13.0	0.8888888888888888	89.0	-90.0	0.1111111111111111	10.0	2.0	1.0	2.049264351629933	1.069	n/a	stim	poldrack-single-stim	s373	False	1
346.899	0.863	347.762	-0.050584926131043	end_round	0.863	columbia_card_task_fmri	13.0	0.875	71.0	-90.0	0.125	10.0	3.0	1.0	3.743511701784815	0.863	2.0	stim	poldrack-single-stim	s373	False	1
348.518	1.5	347.767	n/a	-1.0	2.454	columbia_card_task_fmri	n/a	n/a	-1.0	n/a	n/a	n/a	n/a	n/a	n/a	n/a	n/a	ITI	poldrack-single-stim	s373	False	0
350.225	1.316	351.541	3.824415073868957	draw_card	1.316	columbia_card_task_fmri	15.0	0.9	89.0	-95.0	0.1	10.0	1.0	1.0	2.6794781628800983	1.316	n/a	stim	poldrack-single-stim	s373	False	1
351.543	0.974	352.517	2.6021928516467336	draw_card	0.974	columbia_card_task_fmri	15.0	0.8888888888888888	89.0	-95.0	0.1111111111111111	10.0	2.0	1.0	4.2491218112401405	0.974	n/a	stim	poldrack-single-stim	s373	False	1
352.522	0.648	353.17	1.0744150738689568	end_round	0.648	columbia_card_task_fmri	15.0	0.875	71.0	-95.0	0.125	10.0	3.0	1.0	6.058515302085784	0.648	2.0	stim	poldrack-single-stim	s373	False	1
353.927	1.5	353.176	n/a	-1.0	2.522	columbia_card_task_fmri	n/a	n/a	-1.0	n/a	n/a	n/a	n/a	n/a	n/a	n/a	n/a	ITI	poldrack-single-stim	s373	False	0
355.703	1.501	357.204	-0.3755849261310423	draw_card	1.501	columbia_card_task_fmri	16.0	0.8	89.0	-65.0	0.2	10.0	1.0	2.0	2.0794868131044204	1.501	n/a	stim	poldrack-single-stim	s373	False	1
357.207	0.698	357.905	-2.1755849261310414	end_round	0.698	columbia_card_task_fmri	16.0	0.7777777777777778	71.0	-65.0	0.2222222222222222	10.0	2.0	2.0	3.3543852819241486	0.698	1.0	stim	poldrack-single-stim	s373	False	1
358.665	1.5	357.914	n/a	-1.0	2.318	columbia_card_task_fmri	n/a	n/a	-1.0	n/a	n/a	n/a	n/a	n/a	n/a	n/a	n/a	ITI	poldrack-single-stim	s373	False	0
360.236	1.903	362.139	-1.6755849261310432	draw_card	1.903	columbia_card_task_fmri	7.0	0.9166666666666666	89.0	-95.0	0.0833333333333333	12.0	1.0	1.0	-2.1291314424451784	1.903	n/a	stim	poldrack-single-stim	s373	False	1
362.142	1.845	363.987	-2.4483121988583165	end_round	1.845	columbia_card_task_fmri	7.0	0.9090909090909092	71.0	-95.0	0.0909090909090909	12.0	2.0	1.0	-0.9975249585744804	1.845	1.0	stim	poldrack-single-stim	s373	False	1
364.744	1.5	363.993	n/a	-1.0	2.522	columbia_card_task_fmri	n/a	n/a	-1.0	n/a	n/a	n/a	n/a	n/a	n/a	n/a	n/a	ITI	poldrack-single-stim	s373	False	0
366.519	1.307	367.826	-1.0089182594643753	draw_card	1.307	columbia_card_task_fmri	14.0	0.8333333333333334	89.0	-75.0	0.1666666666666666	12.0	1.0	2.0	2.847817458358133	1.307	1.0	stim	poldrack-single-stim	s373	False	0
368.583	1.5	367.832	n/a	-1.0	2.998	columbia_card_task_fmri	n/a	n/a	-1.0	n/a	n/a	n/a	n/a	n/a	n/a	n/a	n/a	ITI	poldrack-single-stim	s373	False	0
370.833	1.526	372.359	0.6577484072022909	draw_card	1.526	columbia_card_task_fmri	15.0	0.8333333333333334	89.0	-70.0	0.1666666666666666	12.0	1.0	2.0	1.3571273435306352	1.526	n/a	stim	poldrack-single-stim	s373	False	1
372.362	1.129	373.491	-0.6301303806764998	end_round	1.129	columbia_card_task_fmri	15.0	0.8181818181818181	71.0	-70.0	0.1818181818181818	12.0	2.0	2.0	2.463522913083107	1.129	1.0	stim	poldrack-single-stim	s373	False	1
374.25	1.5	373.499	n/a	-1.0	2.318	columbia_card_task_fmri	n/a	n/a	-1.0	n/a	n/a	n/a	n/a	n/a	n/a	n/a	n/a	ITI	poldrack-single-stim	s373	False	0
375.821	1.811	377.632	-1.3755849261310424	draw_card	1.811	columbia_card_task_fmri	16.0	0.8	89.0	-70.0	0.2	15.0	1.0	3.0	4.079459152479661	1.811	n/a	stim	poldrack-single-stim	s373	False	1
377.635	1.197	378.832	-2.604156354702472	draw_card	1.197	columbia_card_task_fmri	16.0	0.7857142857142857	89.0	-70.0	0.2142857142857142	15.0	2.0	3.0	4.967475561790113	1.197	n/a	stim	poldrack-single-stim	s373	False	1
378.835	1.347	380.182	-4.021738772284889	draw_card	1.347	columbia_card_task_fmri	16.0	0.7692307692307692	89.0	-70.0	0.2307692307692307	15.0	3.0	3.0	5.913390276272136	1.347	n/a	stim	poldrack-single-stim	s373	False	1
380.185	0.82	381.005	-5.675584926131043	end_round	0.82	columbia_card_task_fmri	16.0	0.75	71.0	-70.0	0.25	15.0	4.0	3.0	6.918517352006152	0.82	3.0	stim	poldrack-single-stim	s373	False	1
381.763	1.5	381.012	n/a	-1.0	2.25	columbia_card_task_fmri	n/a	n/a	-1.0	n/a	n/a	n/a	n/a	n/a	n/a	n/a	n/a	ITI	poldrack-single-stim	s373	False	0
383.267	1.523	384.79	-0.988084926131043	draw_card	1.523	columbia_card_task_fmri	14.0	0.8125	89.0	-65.0	0.1875	16.0	1.0	3.0	0.5141885822341123	1.523	n/a	stim	poldrack-single-stim	s373	False	1
384.793	1.12	385.913	-1.975584926131042	draw_card	1.12	columbia_card_task_fmri	14.0	0.8	89.0	-65.0	0.2	16.0	2.0	3.0	1.279498857709001	1.12	n/a	stim	poldrack-single-stim	s373	False	1
385.917	0.584	386.501	-3.10415635470247	end_round	0.584	columbia_card_task_fmri	14.0	0.7857142857142857	71.0	-65.0	0.2142857142857142	16.0	3.0	3.0	2.09523294460433	0.584	2.0	stim	poldrack-single-stim	s373	False	1
387.258	1.5	386.507	n/a	-1.0	2.454	columbia_card_task_fmri	n/a	n/a	-1.0	n/a	n/a	n/a	n/a	n/a	n/a	n/a	n/a	ITI	poldrack-single-stim	s373	False	0
388.967	1.884	390.851	-1.2380849261310432	draw_card	1.884	columbia_card_task_fmri	16.0	0.8125	89.0	-75.0	0.1875	16.0	1.0	3.0	5.197871158228526	1.884	n/a	stim	poldrack-single-stim	s373	False	1
390.855	1.003	391.858	-2.3755849261310424	draw_card	1.003	columbia_card_task_fmri	16.0	0.8	89.0	-75.0	0.2	16.0	2.0	3.0	6.079434531427733	1.003	n/a	stim	poldrack-single-stim	s373	False	1
391.863	0.659	392.522	-3.675584926131042	end_round	0.659	columbia_card_task_fmri	16.0	0.7857142857142857	71.0	-75.0	0.2142857142857142	16.0	3.0	3.0	7.019081076928753	0.659	2.0	stim	poldrack-single-stim	s373	False	1
393.28	1.5	392.529	n/a	-1.0	2.318	columbia_card_task_fmri	n/a	n/a	-1.0	n/a	n/a	n/a	n/a	n/a	n/a	n/a	n/a	ITI	poldrack-single-stim	s373	False	0
394.851	2.003	396.854	3.024415073868958	draw_card	2.003	columbia_card_task_fmri	16.0	0.8666666666666667	89.0	-80.0	0.1333333333333333	15.0	1.0	2.0	2.313208292657865	2.003	n/a	stim	poldrack-single-stim	s373	False	1
396.857	1.173	398.03	2.110129359583245	draw_card	1.173	columbia_card_task_fmri	16.0	0.8571428571428572	89.0	-80.0	0.1428571428571428	15.0	2.0	2.0	3.2724721038940494	1.173	n/a	stim	poldrack-single-stim	s373	False	1
398.034	0.909	398.943	1.0551843046381868	end_round	0.909	columbia_card_task_fmri	16.0	0.8461538461538461	71.0	-80.0	0.1538461538461538	15.0	3.0	2.0	4.316372467693181	0.909	2.0	stim	poldrack-single-stim	s373	False	1
399.696	1.5	398.945	n/a	-1.0	2.318	columbia_card_task_fmri	n/a	n/a	-1.0	n/a	n/a	n/a	n/a	n/a	n/a	n/a	n/a	ITI	poldrack-single-stim	s373	False	0
401.268	2.325	403.593	3.891081740535625	draw_card	2.325	columbia_card_task_fmri	17.0	0.8666666666666667	89.0	-80.0	0.1333333333333333	15.0	1.0	2.0	2.653138057258598	2.325	n/a	stim	poldrack-single-stim	s373	False	1
403.597	0.596	404.193	2.9672722167261028	end_round	0.596	columbia_card_task_fmri	17.0	0.8571428571428572	71.0	-80.0	0.1428571428571428	15.0	2.0	2.0	3.6223944794181726	0.596	1.0	stim	poldrack-single-stim	s373	False	1
404.95	1.5	404.199	n/a	-1.0	2.59	columbia_card_task_fmri	n/a	n/a	-1.0	n/a	n/a	n/a	n/a	n/a	n/a	n/a	n/a	ITI	poldrack-single-stim	s373	False	0
406.792	1.508	408.3	-0.175584926131043	draw_card	1.508	columbia_card_task_fmri	1.0	0.9375	89.0	-15.0	0.0625	16.0	1.0	1.0	-26.444027508416376	1.508	n/a	stim	poldrack-single-stim	s373	False	1
408.304	1.314	409.618	-0.2422515927977097	draw_card	1.314	columbia_card_task_fmri	1.0	0.9333333333333332	89.0	-15.0	0.0666666666666666	16.0	2.0	1.0	-26.326027259696588	1.314	n/a	stim	poldrack-single-stim	s373	False	1
409.622	2.077	411.699	-0.3184420689881858	draw_card	2.077	columbia_card_task_fmri	1.0	0.9285714285714286	89.0	-15.0	0.0714285714285714	16.0	3.0	1.0	-26.196619682672328	2.077	n/a	stim	poldrack-single-stim	s373	False	1
411.703	1.138	412.841	-0.4063541569002739	draw_card	1.138	columbia_card_task_fmri	1.0	0.9230769230769232	89.0	-15.0	0.0769230769230769	16.0	4.0	1.0	-26.05386523399176	1.138	n/a	stim	poldrack-single-stim	s373	False	1
412.844	2.157	415.001	-0.5089182594643764	draw_card	2.157	columbia_card_task_fmri	1.0	0.9166666666666666	89.0	-15.0	0.0833333333333333	16.0	5.0	1.0	-25.895338086176213	2.157	n/a	stim	poldrack-single-stim	s373	False	1
415.004	1.154	416.158	-0.6301303806764977	draw_card	1.154	columbia_card_task_fmri	1.0	0.9090909090909092	89.0	-15.0	0.0909090909090909	16.0	6.0	1.0	-25.71796224964752	1.154	n/a	stim	poldrack-single-stim	s373	False	1
416.163	0.648	416.811	-0.775584926131043	end_round	0.648	columbia_card_task_fmri	1.0	0.9	71.0	-15.0	0.1	16.0	7.0	1.0	-25.51777856439798	0.648	6.0	stim	poldrack-single-stim	s373	False	1
417.568	1.5	416.817	n/a	-1.0	2.25	columbia_card_task_fmri	n/a	n/a	-1.0	n/a	n/a	n/a	n/a	n/a	n/a	n/a	n/a	ITI	poldrack-single-stim	s373	False	0
419.071	3.699	422.77	2.949415073868957	draw_card	3.699	columbia_card_task_fmri	10.0	0.9375	89.0	-100.0	0.0625	16.0	1.0	1.0	-3.6936495270470537	3.699	n/a	stim	poldrack-single-stim	s373	False	1
422.774	2.23	425.004	2.491081740535624	end_round	2.23	columbia_card_task_fmri	10.0	0.9333333333333332	71.0	-100.0	0.0666666666666666	16.0	2.0	1.0	-2.881606328952575	2.23	1.0	stim	poldrack-single-stim	s373	False	1
425.76	1.5	425.009	n/a	-1.0	2.25	columbia_card_task_fmri	n/a	n/a	-1.0	n/a	n/a	n/a	n/a	n/a	n/a	n/a	n/a	ITI	poldrack-single-stim	s373	False	0
427.264	2.263	429.527	3.574415073868957	draw_card	2.263	columbia_card_task_fmri	15.0	0.875	89.0	-75.0	0.125	16.0	1.0	2.0	-0.5557688146255657	2.263	n/a	stim	poldrack-single-stim	s373	False	1
429.53	0.646	430.176	2.824415073868957	draw_card	0.646	columbia_card_task_fmri	15.0	0.8666666666666667	89.0	-75.0	0.1333333333333333	16.0	2.0	2.0	0.2736319774979669	0.646	2.0	stim	poldrack-single-stim	s373	False	0
430.934	1.5	430.183	n/a	-1.0	2.522	columbia_card_task_fmri	n/a	n/a	-1.0	n/a	n/a	n/a	n/a	n/a	n/a	n/a	n/a	ITI	poldrack-single-stim	s373	False	0
432.708	1.627	434.335	3.824415073868957	draw_card	1.627	columbia_card_task_fmri	16.0	0.875	89.0	-80.0	0.125	16.0	1.0	2.0	1.4285123009388592	1.627	n/a	stim	poldrack-single-stim	s373	False	1
434.34	0.802	435.142	3.024415073868958	draw_card	0.802	columbia_card_task_fmri	16.0	0.8666666666666667	89.0	-80.0	0.1333333333333333	16.0	2.0	2.0	2.313208292657865	0.802	n/a	stim	poldrack-single-stim	s373	False	1
435.145	0.741	435.886	2.110129359583245	end_round	0.741	columbia_card_task_fmri	16.0	0.8571428571428572	71.0	-80.0	0.1428571428571428	16.0	3.0	2.0	3.2724721038940494	0.741	2.0	stim	poldrack-single-stim	s373	False	1
436.644	1.5	435.893	n/a	-1.0	2.454	columbia_card_task_fmri	n/a	n/a	-1.0	n/a	n/a	n/a	n/a	n/a	n/a	n/a	n/a	ITI	poldrack-single-stim	s373	False	0
438.352	1.778	440.13	1.0119150738689568	draw_card	1.778	columbia_card_task_fmri	4.0	0.6875	89.0	-5.0	0.3125	16.0	1.0	5.0	-26.14568371972905	1.778	n/a	stim	poldrack-single-stim	s373	False	1
440.134	1.589	441.723	0.8244150738689574	draw_card	1.589	columbia_card_task_fmri	4.0	0.6666666666666667	89.0	-5.0	0.3333333333333333	16.0	2.0	5.0	-26.07471646521148	1.589	n/a	stim	poldrack-single-stim	s373	False	1
441.726	1.031	442.757	0.6101293595832423	draw_card	1.031	columbia_card_task_fmri	4.0	0.6428571428571428	89.0	-5.0	0.3571428571428571	16.0	3.0	5.0	-26.004999053146506	1.031	n/a	stim	poldrack-single-stim	s373	False	1
442.761	1.597	444.358	0.3628766123304955	draw_card	1.597	columbia_card_task_fmri	4.0	0.6153846153846154	89.0	-5.0	0.3846153846153846	16.0	4.0	5.0	-25.93893148271702	1.597	n/a	stim	poldrack-single-stim	s373	False	1
444.361	0.837	445.198	0.0744150738689564	draw_card	0.837	columbia_card_task_fmri	4.0	0.5833333333333333	89.0	-5.0	0.4166666666666667	16.0	5.0	5.0	-25.880456322856134	0.837	n/a	stim	poldrack-single-stim	s373	False	1
445.202	1.64	446.842	-0.2664940170401338	end_round	1.64	columbia_card_task_fmri	4.0	0.5454545454545454	71.0	-5.0	0.4545454545454545	16.0	6.0	5.0	-25.83618408910645	1.64	5.0	stim	poldrack-single-stim	s373	False	1
447.601	1.5	446.85	n/a	-1.0	2.25	columbia_card_task_fmri	n/a	n/a	-1.0	n/a	n/a	n/a	n/a	n/a	n/a	n/a	n/a	ITI	poldrack-single-stim	s373	False	0
449.105	1.898	451.003	-1.8422515927977077	draw_card	1.898	columbia_card_task_fmri	14.0	0.8333333333333334	89.0	-80.0	0.1666666666666666	6.0	1.0	1.0	4.711182719281357	1.898	n/a	stim	poldrack-single-stim	s373	False	1
451.007	0.545	451.552	-4.975584926131042	end_round	0.545	columbia_card_task_fmri	14.0	0.8	71.0	-80.0	0.2	6.0	2.0	1.0	7.279421016020361	0.545	1.0	stim	poldrack-single-stim	s373	False	1
452.308	1.5	451.557	n/a	-1.0	2.454	columbia_card_task_fmri	n/a	n/a	-1.0	n/a	n/a	n/a	n/a	n/a	n/a	n/a	n/a	ITI	poldrack-single-stim	s373	False	0
454.015	2.421	456.436	-0.175584926131043	draw_card	2.421	columbia_card_task_fmri	15.0	0.8333333333333334	89.0	-75.0	0.1666666666666666	6.0	1.0	1.0	3.2204902908110107	2.421	n/a	stim	poldrack-single-stim	s373	False	1
456.44	1.297	457.737	-3.175584926131043	draw_card	1.297	columbia_card_task_fmri	15.0	0.8	89.0	-75.0	0.2	6.0	2.0	1.0	5.679439236788273	1.297	n/a	stim	poldrack-single-stim	s373	False	1
457.74	0.564	458.304	-7.675584926131043	end_round	0.564	columbia_card_task_fmri	15.0	0.75	71.0	-75.0	0.25	6.0	3.0	1.0	8.650549762196963	0.564	2.0	stim	poldrack-single-stim	s373	False	1
459.062	1.5	458.311	n/a	-1.0	2.454	columbia_card_task_fmri	n/a	n/a	-1.0	n/a	n/a	n/a	n/a	n/a	n/a	n/a	n/a	ITI	poldrack-single-stim	s373	False	0
460.769	1.071	461.84	1.4910817405356247	draw_card	1.071	columbia_card_task_fmri	16.0	0.8333333333333334	89.0	-70.0	0.1666666666666666	6.0	1.0	1.0	1.7297996815135228	1.071	1.0	stim	poldrack-single-stim	s373	False	0
462.599	1.5	461.848	n/a	-1.0	2.522	columbia_card_task_fmri	n/a	n/a	-1.0	n/a	n/a	n/a	n/a	n/a	n/a	n/a	n/a	ITI	poldrack-single-stim	s373	False	0
464.375	2.091	466.466	2.074415073868957	draw_card	2.091	columbia_card_task_fmri	23.0	0.75	89.0	-60.0	0.25	8.0	1.0	2.0	5.619494208032567	2.091	n/a	stim	poldrack-single-stim	s373	False	1
466.47	0.591	467.061	-0.8898706404167548	end_round	0.591	columbia_card_task_fmri	23.0	0.7142857142857143	71.0	-60.0	0.2857142857142857	8.0	2.0	2.0	7.175000128313446	0.591	1.0	stim	poldrack-single-stim	s373	False	1
467.818	1.5	467.067	n/a	-1.0	2.454	columbia_card_task_fmri	n/a	n/a	-1.0	n/a	n/a	n/a	n/a	n/a	n/a	n/a	n/a	ITI	poldrack-single-stim	s373	False	0
469.527	1.955	471.482	2.574415073868957	draw_card	1.955	columbia_card_task_fmri	27.0	0.75	89.0	-70.0	0.25	8.0	1.0	2.0	11.681610131005815	1.955	n/a	stim	poldrack-single-stim	s373	False	1
471.487	0.564	472.051	-0.8898706404167583	end_round	0.564	columbia_card_task_fmri	27.0	0.7142857142857143	71.0	-70.0	0.2857142857142857	8.0	2.0	2.0	13.499496113157829	0.564	1.0	stim	poldrack-single-stim	s373	False	1
472.808	1.5	472.057	n/a	-1.0	2.658	columbia_card_task_fmri	n/a	n/a	-1.0	n/a	n/a	n/a	n/a	n/a	n/a	n/a	n/a	ITI	poldrack-single-stim	s373	False	0
474.719	1.958	476.677	-2.1755849261310414	draw_card	1.958	columbia_card_task_fmri	16.0	0.7777777777777778	89.0	-65.0	0.2222222222222222	9.0	1.0	2.0	3.3543852819241486	1.958	1.0	stim	poldrack-single-stim	s373	False	0
477.435	1.5	476.684	n/a	-1.0	2.386	columbia_card_task_fmri	n/a	n/a	-1.0	n/a	n/a	n/a	n/a	n/a	n/a	n/a	n/a	ITI	poldrack-single-stim	s373	False	0
479.075	1.826	480.901	3.024415073868958	draw_card	1.826	columbia_card_task_fmri	13.0	0.9	89.0	-85.0	0.1	10.0	1.0	1.0	-0.920464639850394	1.826	n/a	stim	poldrack-single-stim	s373	False	1
480.905	0.597	481.502	1.935526184980068	draw_card	0.597	columbia_card_task_fmri	13.0	0.8888888888888888	89.0	-85.0	0.1111111111111111	10.0	2.0	1.0	0.4779402452070229	0.597	n/a	stim	poldrack-single-stim	s373	False	1
481.505	0.564	482.069	0.574415073868957	end_round	0.564	columbia_card_task_fmri	13.0	0.875	71.0	-85.0	0.125	10.0	3.0	1.0	2.089940220194908	0.564	2.0	stim	poldrack-single-stim	s373	False	1
482.824	1.5	482.073	n/a	-1.0	2.522	columbia_card_task_fmri	n/a	n/a	-1.0	n/a	n/a	n/a	n/a	n/a	n/a	n/a	n/a	ITI	poldrack-single-stim	s373	False	0
484.601	1.596	486.197	-1.975584926131042	draw_card	1.596	columbia_card_task_fmri	14.0	0.8	89.0	-65.0	0.2	10.0	1.0	2.0	1.279498857709001	1.596	n/a	stim	poldrack-single-stim	s373	False	1
486.201	0.533	486.734	-3.7311404816865967	end_round	0.533	columbia_card_task_fmri	14.0	0.7777777777777778	71.0	-65.0	0.2222222222222222	10.0	2.0	2.0	2.522917451262021	0.533	1.0	stim	poldrack-single-stim	s373	False	1
487.492	1.5	486.741	n/a	-1.0	2.59	columbia_card_task_fmri	n/a	n/a	-1.0	n/a	n/a	n/a	n/a	n/a	n/a	n/a	n/a	ITI	poldrack-single-stim	s373	False	0
489.337	2.524	491.861	-0.5755849261310416	draw_card	2.524	columbia_card_task_fmri	17.0	0.8	89.0	-70.0	0.2	10.0	1.0	2.0	4.479454001873069	2.524	n/a	stim	poldrack-single-stim	s373	False	1
491.865	0.482	492.347	-2.5089182594643757	end_round	0.482	columbia_card_task_fmri	17.0	0.7777777777777778	71.0	-70.0	0.2222222222222222	10.0	2.0	2.0	5.848791970711684	0.482	1.0	stim	poldrack-single-stim	s373	False	1
493.105	1.5	492.354	n/a	-1.0	2.386	columbia_card_task_fmri	n/a	n/a	-1.0	n/a	n/a	n/a	n/a	n/a	n/a	n/a	n/a	ITI	poldrack-single-stim	s373	False	0
494.745	2.314	497.059	-1.8422515927977088	draw_card	2.314	columbia_card_task_fmri	13.0	0.8333333333333334	89.0	-75.0	0.1666666666666666	12.0	1.0	2.0	2.475144743261783	2.314	1.0	stim	poldrack-single-stim	s373	False	0
497.818	1.5	497.067	n/a	-1.0	2.59	columbia_card_task_fmri	n/a	n/a	-1.0	n/a	n/a	n/a	n/a	n/a	n/a	n/a	n/a	ITI	poldrack-single-stim	s373	False	0
499.663	2.497	502.16	-0.1755849261310413	draw_card	2.497	columbia_card_task_fmri	14.0	0.8333333333333334	89.0	-70.0	0.1666666666666666	12.0	1.0	2.0	0.9844551402652542	2.497	n/a	stim	poldrack-single-stim	s373	False	1
502.164	0.875	503.039	-1.4483121988583183	end_round	0.875	columbia_card_task_fmri	14.0	0.8181818181818181	71.0	-70.0	0.1818181818181818	12.0	2.0	2.0	2.077833902651921	0.875	1.0	stim	poldrack-single-stim	s373	False	1
503.795	1.5	503.044	n/a	-1.0	2.318	columbia_card_task_fmri	n/a	n/a	-1.0	n/a	n/a	n/a	n/a	n/a	n/a	n/a	n/a	ITI	poldrack-single-stim	s373	False	0
505.368	1.864	507.232	-0.1755849261310413	draw_card	1.864	columbia_card_task_fmri	16.0	0.8333333333333334	89.0	-80.0	0.1666666666666666	12.0	1.0	2.0	5.456529544646717	1.864	n/a	stim	poldrack-single-stim	s373	False	1
507.236	1.192	508.428	-1.6301303806765	draw_card	1.192	columbia_card_task_fmri	16.0	0.8181818181818181	89.0	-80.0	0.1818181818181818	12.0	2.0	2.0	6.706109724231656	1.192	n/a	stim	poldrack-single-stim	s373	False	1
508.432	0.537	508.969	-3.3755849261310424	end_round	0.537	columbia_card_task_fmri	16.0	0.8	71.0	-80.0	0.2	12.0	3.0	2.0	8.079412475026206	0.537	2.0	stim	poldrack-single-stim	s373	False	1
509.727	1.5	508.976	n/a	-1.0	2.25	columbia_card_task_fmri	n/a	n/a	-1.0	n/a	n/a	n/a	n/a	n/a	n/a	n/a	n/a	ITI	poldrack-single-stim	s373	False	0
511.232	1.863	513.095	-0.3755849261310423	draw_card	1.863	columbia_card_task_fmri	16.0	0.8	89.0	-65.0	0.2	15.0	1.0	3.0	2.0794868131044204	1.863	n/a	stim	poldrack-single-stim	s373	False	1
513.1	1.33	514.43	-1.532727783273899	draw_card	1.33	columbia_card_task_fmri	16.0	0.7857142857142857	89.0	-65.0	0.2142857142857142	15.0	2.0	3.0	2.9158730097388563	1.33	n/a	stim	poldrack-single-stim	s373	False	1
514.434	0.954	515.388	-2.867892618438737	end_round	0.954	columbia_card_task_fmri	16.0	0.7692307692307692	71.0	-65.0	0.2307692307692307	15.0	3.0	3.0	3.806791315755678	0.954	2.0	stim	poldrack-single-stim	s373	False	1
516.146	1.5	515.395	n/a	-1.0	2.454	columbia_card_task_fmri	n/a	n/a	-1.0	n/a	n/a	n/a	n/a	n/a	n/a	n/a	n/a	ITI	poldrack-single-stim	s373	False	0
517.854	2.201	520.055	-2.050584926131043	draw_card	2.201	columbia_card_task_fmri	15.0	0.8125	89.0	-75.0	0.1875	16.0	1.0	3.0	4.807563605472804	2.201	n/a	stim	poldrack-single-stim	s373	False	1
520.06	0.961	521.021	-3.175584926131043	draw_card	0.961	columbia_card_task_fmri	15.0	0.8	89.0	-75.0	0.2	16.0	2.0	3.0	5.679439236788273	0.961	n/a	stim	poldrack-single-stim	s373	False	1
521.026	0.442	521.468	-4.461299211845327	end_round	0.442	columbia_card_task_fmri	15.0	0.7857142857142857	71.0	-75.0	0.2142857142857142	16.0	3.0	3.0	6.608759760558176	0.442	2.0	stim	poldrack-single-stim	s373	False	1
522.222	1.5	521.471	n/a	-1.0	3.27	columbia_card_task_fmri	n/a	n/a	-1.0	n/a	n/a	n/a	n/a	n/a	n/a	n/a	n/a	ITI	poldrack-single-stim	s373	False	0
524.747	1.746	526.493	-1.4880849261310432	draw_card	1.746	columbia_card_task_fmri	14.0	0.6875	89.0	-35.0	0.3125	16.0	1.0	5.0	-7.608202385107621	1.746	n/a	stim	poldrack-single-stim	s373	False	1
526.497	1.342	527.839	-2.5089182594643757	draw_card	1.342	columbia_card_task_fmri	14.0	0.6666666666666667	89.0	-35.0	0.3333333333333333	16.0	2.0	5.0	-7.221500095411734	1.342	2.0	stim	poldrack-single-stim	s373	False	0
528.598	1.5	527.847	n/a	-1.0	2.25	columbia_card_task_fmri	n/a	n/a	-1.0	n/a	n/a	n/a	n/a	n/a	n/a	n/a	n/a	ITI	poldrack-single-stim	s373	False	0
530.101	2.206	532.307	3.691081740535624	draw_card	2.206	columbia_card_task_fmri	16.0	0.8666666666666667	89.0	-75.0	0.1333333333333333	15.0	1.0	2.0	0.6135610749923188	2.206	n/a	stim	poldrack-single-stim	s373	False	1
532.312	1.518	533.83	2.824415073868958	draw_card	1.518	columbia_card_task_fmri	16.0	0.8571428571428572	89.0	-75.0	0.1428571428571428	15.0	2.0	2.0	1.522861785773621	1.518	n/a	stim	poldrack-single-stim	s373	False	1
533.834	1.48	535.314	1.8244150738689568	end_round	1.48	columbia_card_task_fmri	16.0	0.8461538461538461	71.0	-75.0	0.1538461538461538	15.0	3.0	2.0	2.512390858821025	1.48	2.0	stim	poldrack-single-stim	s373	False	1
536.07	1.5	535.319	n/a	-1.0	2.25	columbia_card_task_fmri	n/a	n/a	-1.0	n/a	n/a	n/a	n/a	n/a	n/a	n/a	n/a	ITI	poldrack-single-stim	s373	False	0
537.573	1.565	539.138	4.3577484072022905	draw_card	1.565	columbia_card_task_fmri	16.0	0.8666666666666667	89.0	-70.0	0.1333333333333333	15.0	1.0	2.0	-1.0860831248979714	1.565	n/a	stim	poldrack-single-stim	s373	False	1
539.143	0.863	540.006	3.538700788154672	draw_card	0.863	columbia_card_task_fmri	16.0	0.8571428571428572	89.0	-70.0	0.1428571428571428	15.0	2.0	2.0	-0.2267456007387345	0.863	2.0	stim	poldrack-single-stim	s373	False	0
540.764	1.5	540.013	n/a	-1.0	2.318	columbia_card_task_fmri	n/a	n/a	-1.0	n/a	n/a	n/a	n/a	n/a	n/a	n/a	n/a	ITI	poldrack-single-stim	s373	False	0
542.337	2.038	544.375	1.6994150738689568	draw_card	2.038	columbia_card_task_fmri	8.0	0.9375	89.0	-90.0	0.0625	16.0	1.0	1.0	-6.598316149909024	2.038	n/a	stim	poldrack-single-stim	s373	False	1
544.379	1.254	545.633	1.2910817405356236	draw_card	1.254	columbia_card_task_fmri	8.0	0.9333333333333332	89.0	-90.0	0.0666666666666666	16.0	2.0	1.0	-5.874863449347082	1.254	n/a	stim	poldrack-single-stim	s373	False	1
545.639	0.978	546.617	0.8244150738689578	end_round	0.978	columbia_card_task_fmri	8.0	0.9285714285714286	71.0	-90.0	0.0714285714285714	16.0	3.0	1.0	-5.081519269321632	0.978	2.0	stim	poldrack-single-stim	s373	False	1
547.376	1.5	546.625	n/a	-1.0	2.726	columbia_card_task_fmri	n/a	n/a	-1.0	n/a	n/a	n/a	n/a	n/a	n/a	n/a	n/a	ITI	poldrack-single-stim	s373	False	0
549.356	2.076	551.432	3.261915073868957	draw_card	2.076	columbia_card_task_fmri	10.0	0.9375	89.0	-95.0	0.0625	16.0	1.0	1.0	-4.9039292555793885	2.076	n/a	stim	poldrack-single-stim	s373	False	1
551.436	1.739	553.175	2.8244150738689577	end_round	1.739	columbia_card_task_fmri	10.0	0.9333333333333332	71.0	-95.0	0.0666666666666666	16.0	2.0	1.0	-4.128798706524897	1.739	1.0	stim	poldrack-single-stim	s373	False	1
553.929	1.5	553.178	n/a	-1.0	2.386	columbia_card_task_fmri	n/a	n/a	-1.0	n/a	n/a	n/a	n/a	n/a	n/a	n/a	n/a	ITI	poldrack-single-stim	s373	False	0
555.57	1.339	556.909	4.199415073868957	draw_card	1.339	columbia_card_task_fmri	15.0	0.875	89.0	-70.0	0.125	16.0	1.0	2.0	-2.209332920387609	1.339	n/a	stim	poldrack-single-stim	s373	False	1
556.913	0.581	557.494	3.491081740535623	draw_card	0.581	columbia_card_task_fmri	15.0	0.8666666666666667	89.0	-70.0	0.1333333333333333	16.0	2.0	2.0	-1.4260115558803754	0.581	n/a	stim	poldrack-single-stim	s373	False	1
557.498	1.145	558.643	2.6815579310118145	draw_card	1.145	columbia_card_task_fmri	15.0	0.8571428571428572	89.0	-70.0	0.1428571428571428	16.0	3.0	2.0	-0.5766666807236014	1.145	3.0	stim	poldrack-single-stim	s373	False	0
559.4	1.5	558.649	n/a	-1.0	2.318	columbia_card_task_fmri	n/a	n/a	-1.0	n/a	n/a	n/a	n/a	n/a	n/a	n/a	n/a	ITI	poldrack-single-stim	s373	False	0
560.972	1.953	562.925	3.199415073868957	draw_card	1.953	columbia_card_task_fmri	16.0	0.875	89.0	-85.0	0.125	16.0	1.0	2.0	3.082082834843757	1.953	n/a	stim	poldrack-single-stim	s373	False	1
562.93	0.702	563.632	2.35774840720229	draw_card	0.702	columbia_card_task_fmri	16.0	0.8666666666666667	89.0	-85.0	0.1333333333333333	16.0	2.0	2.0	4.012858079926925	0.702	n/a	stim	poldrack-single-stim	s373	False	1
563.636	0.555	564.191	1.3958436452975298	end_round	0.555	columbia_card_task_fmri	16.0	0.8571428571428572	71.0	-85.0	0.1428571428571428	16.0	3.0	2.0	5.022084918246858	0.555	2.0	stim	poldrack-single-stim	s373	False	1
564.951	1.5	564.2	n/a	-1.0	2.25	columbia_card_task_fmri	n/a	n/a	-1.0	n/a	n/a	n/a	n/a	n/a	n/a	n/a	n/a	ITI	poldrack-single-stim	s373	False	0
