duration	onset	block_duration	movement_onset	planning	condition	exp_stage	experiment_exp_id	key_press	problem_id	response_time	trial_id	trial_type	worker_id	junk
5.942	3.011	5.942	8.953	1	UA_with_intermediate	practice	ward_and_allport	71	0.0	5.942	to_hand	poldrack-single-stim	s373	False
0.1	8.954	0.883	9.837	0	UA_with_intermediate	practice	ward_and_allport	82	0.0	0.883	to_board	poldrack-single-stim	s373	False
0.1	9.84	1.486	11.326	0	UA_with_intermediate	practice	ward_and_allport	71	0.0	1.486	to_hand	poldrack-single-stim	s373	False
0.1	11.327	0.416	11.743	0	UA_with_intermediate	practice	ward_and_allport	89	0.0	0.416	to_board	poldrack-single-stim	s373	False
0.1	11.745	1.229	12.974	0	UA_with_intermediate	practice	ward_and_allport	82	0.0	1.229	to_hand	poldrack-single-stim	s373	False
0.1	12.974	0.597	13.571	0	UA_with_intermediate	practice	ward_and_allport	89	0.0	0.597	to_board	poldrack-single-stim	s373	False
1.0	13.577	2.5	13.576	0	UA_with_intermediate	practice	ward_and_allport	-1	0.0	n/a	feedback	poldrack-single-stim	s373	False
4.281	16.079	4.281	20.36	1	UA_with_intermediate	practice	ward_and_allport	89	1.0	4.281	to_hand	poldrack-single-stim	s373	False
0.1	20.36	0.529	20.889	0	UA_with_intermediate	practice	ward_and_allport	82	1.0	0.529	to_board	poldrack-single-stim	s373	False
0.1	20.891	0.637	21.528	0	UA_with_intermediate	practice	ward_and_allport	71	1.0	0.637	to_hand	poldrack-single-stim	s373	False
0.1	21.529	0.585	22.114	0	UA_with_intermediate	practice	ward_and_allport	89	1.0	0.585	to_board	poldrack-single-stim	s373	False
0.1	22.116	1.217	23.333	0	UA_with_intermediate	practice	ward_and_allport	82	1.0	1.217	to_hand	poldrack-single-stim	s373	False
0.1	23.334	0.388	23.722	0	UA_with_intermediate	practice	ward_and_allport	89	1.0	0.388	to_board	poldrack-single-stim	s373	False
1.0	23.727	2.1	23.726	0	UA_with_intermediate	practice	ward_and_allport	-1	1.0	n/a	feedback	poldrack-single-stim	s373	False
3.261	25.829	3.261	29.09	1	UA_without_intermediate	practice	ward_and_allport	82	2.0	3.261	to_hand	poldrack-single-stim	s373	False
0.1	29.091	0.54	29.631	0	UA_without_intermediate	practice	ward_and_allport	89	2.0	0.54	to_board	poldrack-single-stim	s373	False
0.1	29.634	1.23	30.864	0	UA_without_intermediate	practice	ward_and_allport	71	2.0	1.23	to_hand	poldrack-single-stim	s373	False
0.1	30.865	0.308	31.173	0	UA_without_intermediate	practice	ward_and_allport	89	2.0	0.308	to_board	poldrack-single-stim	s373	False
0.1	31.175	0.562	31.737	0	UA_without_intermediate	practice	ward_and_allport	71	2.0	0.562	to_hand	poldrack-single-stim	s373	False
0.1	31.738	0.274	32.012	0	UA_without_intermediate	practice	ward_and_allport	89	2.0	0.274	to_board	poldrack-single-stim	s373	False
1.0	32.017	2.2	32.016	0	UA_without_intermediate	practice	ward_and_allport	-1	2.0	n/a	feedback	poldrack-single-stim	s373	False
2.939	34.218	2.939	37.157	1	UA_without_intermediate	practice	ward_and_allport	71	3.0	2.939	to_hand	poldrack-single-stim	s373	False
0.1	37.158	0.573	37.731	0	UA_without_intermediate	practice	ward_and_allport	89	3.0	0.573	to_board	poldrack-single-stim	s373	False
0.1	37.733	0.897	38.63	0	UA_without_intermediate	practice	ward_and_allport	82	3.0	0.897	to_hand	poldrack-single-stim	s373	False
0.1	38.632	0.384	39.016	0	UA_without_intermediate	practice	ward_and_allport	89	3.0	0.384	to_board	poldrack-single-stim	s373	False
0.1	39.018	0.77	39.788	0	UA_without_intermediate	practice	ward_and_allport	71	3.0	0.77	to_hand	poldrack-single-stim	s373	False
0.1	39.79	0.363	40.153	0	UA_without_intermediate	practice	ward_and_allport	89	3.0	0.363	to_board	poldrack-single-stim	s373	False
1.0	40.158	2.0	40.157	0	UA_without_intermediate	practice	ward_and_allport	-1	3.0	n/a	feedback	poldrack-single-stim	s373	False
5.803	44.165	5.803	49.968	1	PA_with_intermediate	test	ward_and_allport	82	0.0	5.803	to_hand	poldrack-single-stim	s373	False
0.1	49.969	0.545	50.514	0	PA_with_intermediate	test	ward_and_allport	71	0.0	0.545	to_board	poldrack-single-stim	s373	False
0.1	50.515	2.247	52.762	0	PA_with_intermediate	test	ward_and_allport	82	0.0	2.247	to_hand	poldrack-single-stim	s373	False
0.1	52.763	0.404	53.167	0	PA_with_intermediate	test	ward_and_allport	89	0.0	0.404	to_board	poldrack-single-stim	s373	False
0.1	53.169	0.753	53.922	0	PA_with_intermediate	test	ward_and_allport	71	0.0	0.753	to_hand	poldrack-single-stim	s373	False
0.1	53.924	0.309	54.233	0	PA_with_intermediate	test	ward_and_allport	89	0.0	0.309	to_board	poldrack-single-stim	s373	False
1.0	54.236	3.768	54.235	0	PA_with_intermediate	test	ward_and_allport	-1	0.0	n/a	feedback	poldrack-single-stim	s373	False
4.238	58.007	4.238	62.245	1	PA_with_intermediate	test	ward_and_allport	71	1.0	4.238	to_hand	poldrack-single-stim	s373	False
0.1	62.246	0.4	62.646	0	PA_with_intermediate	test	ward_and_allport	82	1.0	0.4	to_board	poldrack-single-stim	s373	False
0.1	62.648	0.631	63.279	0	PA_with_intermediate	test	ward_and_allport	71	1.0	0.631	to_hand	poldrack-single-stim	s373	False
0.1	63.28	0.428	63.708	0	PA_with_intermediate	test	ward_and_allport	89	1.0	0.428	to_board	poldrack-single-stim	s373	False
0.1	63.71	1.171	64.881	0	PA_with_intermediate	test	ward_and_allport	82	1.0	1.171	to_hand	poldrack-single-stim	s373	False
0.1	64.882	0.326	65.208	0	PA_with_intermediate	test	ward_and_allport	71	1.0	0.326	to_board	poldrack-single-stim	s373	False
1.0	65.213	2.68	65.212	0	PA_with_intermediate	test	ward_and_allport	-1	1.0	n/a	feedback	poldrack-single-stim	s373	False
4.259	67.895	4.259	72.154	1	PA_without_intermediate	test	ward_and_allport	82	2.0	4.259	to_hand	poldrack-single-stim	s373	False
0.1	72.156	0.768	72.924	0	PA_without_intermediate	test	ward_and_allport	89	2.0	0.768	to_board	poldrack-single-stim	s373	False
0.1	72.926	3.359	76.285	0	PA_without_intermediate	test	ward_and_allport	82	2.0	3.359	to_hand	poldrack-single-stim	s373	False
0.1	76.286	0.504	76.79	0	PA_without_intermediate	test	ward_and_allport	71	2.0	0.504	to_board	poldrack-single-stim	s373	False
0.1	76.793	2.269	79.062	0	PA_without_intermediate	test	ward_and_allport	82	2.0	2.269	to_hand	poldrack-single-stim	s373	False
0.1	79.063	0.283	79.346	0	PA_without_intermediate	test	ward_and_allport	89	2.0	0.283	to_board	poldrack-single-stim	s373	False
1.0	79.352	3.224	79.351	0	PA_without_intermediate	test	ward_and_allport	-1	2.0	n/a	feedback	poldrack-single-stim	s373	False
3.187	82.579	3.187	85.766	1	PA_without_intermediate	test	ward_and_allport	89	3.0	3.187	to_hand	poldrack-single-stim	s373	False
0.1	85.767	0.482	86.249	0	PA_without_intermediate	test	ward_and_allport	82	3.0	0.482	to_board	poldrack-single-stim	s373	False
0.1	86.252	2.294	88.546	0	PA_without_intermediate	test	ward_and_allport	89	3.0	2.294	to_hand	poldrack-single-stim	s373	False
0.1	88.547	0.336	88.883	0	PA_without_intermediate	test	ward_and_allport	71	3.0	0.336	to_board	poldrack-single-stim	s373	False
0.1	88.886	1.427	90.313	0	PA_without_intermediate	test	ward_and_allport	89	3.0	1.427	to_hand	poldrack-single-stim	s373	False
0.1	90.314	0.336	90.65	0	PA_without_intermediate	test	ward_and_allport	82	3.0	0.336	to_board	poldrack-single-stim	s373	False
1.0	90.657	3.36	90.656	0	PA_without_intermediate	test	ward_and_allport	-1	3.0	n/a	feedback	poldrack-single-stim	s373	False
4.753	94.02	4.753	98.773	1	PA_without_intermediate	test	ward_and_allport	89	4.0	4.753	to_hand	poldrack-single-stim	s373	False
0.1	98.774	0.635	99.409	0	PA_without_intermediate	test	ward_and_allport	71	4.0	0.635	to_board	poldrack-single-stim	s373	False
0.1	99.412	1.464	100.876	0	PA_without_intermediate	test	ward_and_allport	89	4.0	1.464	to_hand	poldrack-single-stim	s373	False
0.1	100.877	0.389	101.266	0	PA_without_intermediate	test	ward_and_allport	71	4.0	0.389	to_board	poldrack-single-stim	s373	False
0.1	101.268	0.782	102.05	0	PA_without_intermediate	test	ward_and_allport	89	4.0	0.782	to_hand	poldrack-single-stim	s373	False
0.1	102.052	0.329	102.381	0	PA_without_intermediate	test	ward_and_allport	82	4.0	0.329	to_board	poldrack-single-stim	s373	False
1.0	102.385	2.0	102.384	0	PA_without_intermediate	test	ward_and_allport	-1	4.0	n/a	feedback	poldrack-single-stim	s373	False
2.896	104.389	2.896	107.285	1	PA_without_intermediate	test	ward_and_allport	71	5.0	2.896	to_hand	poldrack-single-stim	s373	False
0.1	107.286	0.408	107.694	0	PA_without_intermediate	test	ward_and_allport	89	5.0	0.408	to_board	poldrack-single-stim	s373	False
0.1	107.697	1.106	108.803	0	PA_without_intermediate	test	ward_and_allport	71	5.0	1.106	to_hand	poldrack-single-stim	s373	False
0.1	108.803	0.375	109.178	0	PA_without_intermediate	test	ward_and_allport	82	5.0	0.375	to_board	poldrack-single-stim	s373	False
0.1	109.18	1.35	110.53	0	PA_without_intermediate	test	ward_and_allport	71	5.0	1.35	to_hand	poldrack-single-stim	s373	False
0.1	110.531	0.272	110.803	0	PA_without_intermediate	test	ward_and_allport	89	5.0	0.272	to_board	poldrack-single-stim	s373	False
1.0	110.808	2.408	110.807	0	PA_without_intermediate	test	ward_and_allport	-1	5.0	n/a	feedback	poldrack-single-stim	s373	False
3.843	113.218	3.843	117.061	1	PA_with_intermediate	test	ward_and_allport	71	6.0	3.843	to_hand	poldrack-single-stim	s373	False
0.1	117.063	0.402	117.465	0	PA_with_intermediate	test	ward_and_allport	82	6.0	0.402	to_board	poldrack-single-stim	s373	False
0.1	117.468	0.571	118.039	0	PA_with_intermediate	test	ward_and_allport	71	6.0	0.571	to_hand	poldrack-single-stim	s373	False
0.1	118.039	0.446	118.485	0	PA_with_intermediate	test	ward_and_allport	89	6.0	0.446	to_board	poldrack-single-stim	s373	False
0.1	118.489	0.89	119.379	0	PA_with_intermediate	test	ward_and_allport	82	6.0	0.89	to_hand	poldrack-single-stim	s373	False
0.1	119.38	0.396	119.776	0	PA_with_intermediate	test	ward_and_allport	71	6.0	0.396	to_board	poldrack-single-stim	s373	False
1.0	119.781	2.136	119.78	0	PA_with_intermediate	test	ward_and_allport	-1	6.0	n/a	feedback	poldrack-single-stim	s373	False
5.117	121.919	5.117	127.036	1	PA_without_intermediate	test	ward_and_allport	71	7.0	5.117	to_hand	poldrack-single-stim	s373	False
0.1	127.037	0.55	127.587	0	PA_without_intermediate	test	ward_and_allport	82	7.0	0.55	to_board	poldrack-single-stim	s373	False
0.1	127.59	0.947	128.537	0	PA_without_intermediate	test	ward_and_allport	71	7.0	0.947	to_hand	poldrack-single-stim	s373	False
0.1	128.539	5.383	133.922	0	PA_without_intermediate	test	ward_and_allport	71	7.0	5.383	to_board	poldrack-single-stim	s373	False
0.1	133.925	1.738	135.663	0	PA_without_intermediate	test	ward_and_allport	82	7.0	1.738	to_hand	poldrack-single-stim	s373	False
0.1	135.664	0.345	136.009	0	PA_without_intermediate	test	ward_and_allport	89	7.0	0.345	to_board	poldrack-single-stim	s373	False
0.1	136.013	1.895	137.908	0	PA_without_intermediate	test	ward_and_allport	71	7.0	1.895	to_hand	poldrack-single-stim	s373	False
0.1	137.909	0.576	138.485	0	PA_without_intermediate	test	ward_and_allport	89	7.0	0.576	to_board	poldrack-single-stim	s373	False
0.1	138.488	2.963	141.451	0	PA_without_intermediate	test	ward_and_allport	71	7.0	2.963	to_hand	poldrack-single-stim	s373	False
0.1	141.452	0.274	141.726	0	PA_without_intermediate	test	ward_and_allport	82	7.0	0.274	to_board	poldrack-single-stim	s373	False
1.0	141.733	5.128	141.732	0	PA_without_intermediate	test	ward_and_allport	-1	7.0	n/a	feedback	poldrack-single-stim	s373	False
2.808	146.865	2.808	149.673	1	PA_without_intermediate	test	ward_and_allport	71	8.0	2.808	to_hand	poldrack-single-stim	s373	False
0.1	149.673	0.814	150.487	0	PA_without_intermediate	test	ward_and_allport	89	8.0	0.814	to_board	poldrack-single-stim	s373	False
0.1	150.49	0.433	150.923	0	PA_without_intermediate	test	ward_and_allport	71	8.0	0.433	to_hand	poldrack-single-stim	s373	False
0.1	150.925	0.492	151.417	0	PA_without_intermediate	test	ward_and_allport	82	8.0	0.492	to_board	poldrack-single-stim	s373	False
0.1	151.42	0.813	152.233	0	PA_without_intermediate	test	ward_and_allport	71	8.0	0.813	to_hand	poldrack-single-stim	s373	False
0.1	152.234	0.314	152.548	0	PA_without_intermediate	test	ward_and_allport	89	8.0	0.314	to_board	poldrack-single-stim	s373	False
1.0	152.552	2.136	152.551	0	PA_without_intermediate	test	ward_and_allport	-1	8.0	n/a	feedback	poldrack-single-stim	s373	False
3.547	154.693	3.547	158.24	1	PA_without_intermediate	test	ward_and_allport	82	9.0	3.547	to_hand	poldrack-single-stim	s373	False
0.1	158.24	0.387	158.627	0	PA_without_intermediate	test	ward_and_allport	71	9.0	0.387	to_board	poldrack-single-stim	s373	False
0.1	158.632	2.388	161.02	0	PA_without_intermediate	test	ward_and_allport	82	9.0	2.388	to_hand	poldrack-single-stim	s373	False
0.1	161.021	0.389	161.41	0	PA_without_intermediate	test	ward_and_allport	71	9.0	0.389	to_board	poldrack-single-stim	s373	False
0.1	161.414	3.624	165.038	0	PA_without_intermediate	test	ward_and_allport	82	9.0	3.624	to_hand	poldrack-single-stim	s373	False
0.1	165.04	0.34	165.38	0	PA_without_intermediate	test	ward_and_allport	89	9.0	0.34	to_board	poldrack-single-stim	s373	False
1.0	165.387	5.264	165.386	0	PA_without_intermediate	test	ward_and_allport	-1	9.0	n/a	feedback	poldrack-single-stim	s373	False
4.28	170.654	4.28	174.934	1	PA_with_intermediate	test	ward_and_allport	89	10.0	4.28	to_hand	poldrack-single-stim	s373	False
0.1	174.935	1.489	176.424	0	PA_with_intermediate	test	ward_and_allport	71	10.0	1.489	to_board	poldrack-single-stim	s373	False
0.1	176.43	0.873	177.303	0	PA_with_intermediate	test	ward_and_allport	89	10.0	0.873	to_hand	poldrack-single-stim	s373	False
0.1	177.304	0.477	177.781	0	PA_with_intermediate	test	ward_and_allport	82	10.0	0.477	to_board	poldrack-single-stim	s373	False
0.1	177.785	1.975	179.76	0	PA_with_intermediate	test	ward_and_allport	71	10.0	1.975	to_hand	poldrack-single-stim	s373	False
0.1	179.762	0.236	179.998	0	PA_with_intermediate	test	ward_and_allport	89	10.0	0.236	to_board	poldrack-single-stim	s373	False
1.0	180.003	4.04	180.002	0	PA_with_intermediate	test	ward_and_allport	-1	10.0	n/a	feedback	poldrack-single-stim	s373	False
5.209	184.046	5.209	189.255	1	PA_with_intermediate	test	ward_and_allport	71	11.0	5.209	to_hand	poldrack-single-stim	s373	False
0.1	189.257	0.451	189.708	0	PA_with_intermediate	test	ward_and_allport	89	11.0	0.451	to_board	poldrack-single-stim	s373	False
0.1	189.711	0.93	190.641	0	PA_with_intermediate	test	ward_and_allport	71	11.0	0.93	to_hand	poldrack-single-stim	s373	False
0.1	190.642	0.552	191.194	0	PA_with_intermediate	test	ward_and_allport	82	11.0	0.552	to_board	poldrack-single-stim	s373	False
0.1	191.199	0.455	191.654	0	PA_with_intermediate	test	ward_and_allport	89	11.0	0.455	to_hand	poldrack-single-stim	s373	False
0.1	191.656	0.291	191.947	0	PA_with_intermediate	test	ward_and_allport	71	11.0	0.291	to_board	poldrack-single-stim	s373	False
1.0	191.951	2.136	191.95	0	PA_with_intermediate	test	ward_and_allport	-1	11.0	n/a	feedback	poldrack-single-stim	s373	False
5.197	194.09	5.197	199.287	1	PA_with_intermediate	test	ward_and_allport	71	12.0	5.197	to_hand	poldrack-single-stim	s373	False
0.1	199.289	0.965	200.254	0	PA_with_intermediate	test	ward_and_allport	89	12.0	0.965	to_board	poldrack-single-stim	s373	False
0.1	200.258	0.766	201.024	0	PA_with_intermediate	test	ward_and_allport	71	12.0	0.766	to_hand	poldrack-single-stim	s373	False
0.1	201.025	0.476	201.501	0	PA_with_intermediate	test	ward_and_allport	82	12.0	0.476	to_board	poldrack-single-stim	s373	False
0.1	201.505	0.544	202.049	0	PA_with_intermediate	test	ward_and_allport	89	12.0	0.544	to_hand	poldrack-single-stim	s373	False
0.1	202.05	0.416	202.466	0	PA_with_intermediate	test	ward_and_allport	82	12.0	0.416	to_board	poldrack-single-stim	s373	False
1.0	202.473	2.408	202.472	0	PA_with_intermediate	test	ward_and_allport	-1	12.0	n/a	feedback	poldrack-single-stim	s373	False
3.833	204.884	3.833	208.717	1	PA_without_intermediate	test	ward_and_allport	82	13.0	3.833	to_hand	poldrack-single-stim	s373	False
0.1	208.718	0.406	209.124	0	PA_without_intermediate	test	ward_and_allport	89	13.0	0.406	to_board	poldrack-single-stim	s373	False
0.1	209.129	1.464	210.593	0	PA_without_intermediate	test	ward_and_allport	82	13.0	1.464	to_hand	poldrack-single-stim	s373	False
0.1	210.594	0.365	210.959	0	PA_without_intermediate	test	ward_and_allport	89	13.0	0.365	to_board	poldrack-single-stim	s373	False
0.1	210.963	1.728	212.691	0	PA_without_intermediate	test	ward_and_allport	82	13.0	1.728	to_hand	poldrack-single-stim	s373	False
0.1	212.692	0.383	213.075	0	PA_without_intermediate	test	ward_and_allport	71	13.0	0.383	to_board	poldrack-single-stim	s373	False
1.0	213.082	2.68	213.081	0	PA_without_intermediate	test	ward_and_allport	-1	13.0	n/a	feedback	poldrack-single-stim	s373	False
3.876	215.766	3.876	219.642	1	PA_with_intermediate	test	ward_and_allport	82	14.0	3.876	to_hand	poldrack-single-stim	s373	False
0.1	219.643	0.388	220.031	0	PA_with_intermediate	test	ward_and_allport	71	14.0	0.388	to_board	poldrack-single-stim	s373	False
0.1	220.034	0.996	221.03	0	PA_with_intermediate	test	ward_and_allport	82	14.0	0.996	to_hand	poldrack-single-stim	s373	False
0.1	221.032	0.339	221.371	0	PA_with_intermediate	test	ward_and_allport	89	14.0	0.339	to_board	poldrack-single-stim	s373	False
0.1	221.374	1.264	222.638	0	PA_with_intermediate	test	ward_and_allport	71	14.0	1.264	to_hand	poldrack-single-stim	s373	False
0.1	222.64	0.3	222.94	0	PA_with_intermediate	test	ward_and_allport	82	14.0	0.3	to_board	poldrack-single-stim	s373	False
1.0	222.945	4.72	222.944	0	PA_with_intermediate	test	ward_and_allport	-1	14.0	n/a	feedback	poldrack-single-stim	s373	False
3.612	232.672	3.612	236.284	1	PA_without_intermediate	test	ward_and_allport	71	15.0	3.612	to_hand	poldrack-single-stim	s373	False
0.1	236.285	1.082	237.367	0	PA_without_intermediate	test	ward_and_allport	82	15.0	1.082	to_board	poldrack-single-stim	s373	False
0.1	237.372	0.742	238.114	0	PA_without_intermediate	test	ward_and_allport	71	15.0	0.742	to_hand	poldrack-single-stim	s373	False
0.1	238.115	0.41	238.525	0	PA_without_intermediate	test	ward_and_allport	89	15.0	0.41	to_board	poldrack-single-stim	s373	False
0.1	238.53	0.647	239.177	0	PA_without_intermediate	test	ward_and_allport	71	15.0	0.647	to_hand	poldrack-single-stim	s373	False
0.1	239.178	0.265	239.443	0	PA_without_intermediate	test	ward_and_allport	82	15.0	0.265	to_board	poldrack-single-stim	s373	False
1.0	239.451	3.224	239.45	0	PA_without_intermediate	test	ward_and_allport	-1	15.0	n/a	feedback	poldrack-single-stim	s373	False
4.116	242.679	4.116	246.795	1	PA_without_intermediate	test	ward_and_allport	89	16.0	4.116	to_hand	poldrack-single-stim	s373	False
0.1	246.796	0.598	247.394	0	PA_without_intermediate	test	ward_and_allport	82	16.0	0.598	to_board	poldrack-single-stim	s373	False
0.1	247.398	0.876	248.274	0	PA_without_intermediate	test	ward_and_allport	89	16.0	0.876	to_hand	poldrack-single-stim	s373	False
0.1	248.275	0.61	248.885	0	PA_without_intermediate	test	ward_and_allport	82	16.0	0.61	to_board	poldrack-single-stim	s373	False
0.1	248.889	0.87	249.759	0	PA_without_intermediate	test	ward_and_allport	89	16.0	0.87	to_hand	poldrack-single-stim	s373	False
0.1	249.761	0.317	250.078	0	PA_without_intermediate	test	ward_and_allport	71	16.0	0.317	to_board	poldrack-single-stim	s373	False
1.0	250.084	2.272	250.083	0	PA_without_intermediate	test	ward_and_allport	-1	16.0	n/a	feedback	poldrack-single-stim	s373	False
4.755	252.36	4.755	257.115	1	PA_with_intermediate	test	ward_and_allport	89	17.0	4.755	to_hand	poldrack-single-stim	s373	False
0.1	257.116	0.453	257.569	0	PA_with_intermediate	test	ward_and_allport	71	17.0	0.453	to_board	poldrack-single-stim	s373	False
0.1	257.574	0.71	258.284	0	PA_with_intermediate	test	ward_and_allport	89	17.0	0.71	to_hand	poldrack-single-stim	s373	False
0.1	258.285	1.031	259.316	0	PA_with_intermediate	test	ward_and_allport	82	17.0	1.031	to_board	poldrack-single-stim	s373	False
0.1	259.32	0.592	259.912	0	PA_with_intermediate	test	ward_and_allport	71	17.0	0.592	to_hand	poldrack-single-stim	s373	False
0.1	259.913	0.431	260.344	0	PA_with_intermediate	test	ward_and_allport	82	17.0	0.431	to_board	poldrack-single-stim	s373	False
1.0	260.351	3.632	260.35	0	PA_with_intermediate	test	ward_and_allport	-1	17.0	n/a	feedback	poldrack-single-stim	s373	False
3.358	263.988	3.358	267.346	1	PA_without_intermediate	test	ward_and_allport	71	18.0	3.358	to_hand	poldrack-single-stim	s373	False
0.1	267.347	0.368	267.715	0	PA_without_intermediate	test	ward_and_allport	82	18.0	0.368	to_board	poldrack-single-stim	s373	False
0.1	267.72	0.691	268.411	0	PA_without_intermediate	test	ward_and_allport	71	18.0	0.691	to_hand	poldrack-single-stim	s373	False
0.1	268.412	0.318	268.73	0	PA_without_intermediate	test	ward_and_allport	82	18.0	0.318	to_board	poldrack-single-stim	s373	False
0.1	268.735	0.906	269.641	0	PA_without_intermediate	test	ward_and_allport	71	18.0	0.906	to_hand	poldrack-single-stim	s373	False
0.1	269.642	0.256	269.898	0	PA_without_intermediate	test	ward_and_allport	89	18.0	0.256	to_board	poldrack-single-stim	s373	False
1.0	269.906	2.408	269.905	0	PA_without_intermediate	test	ward_and_allport	-1	18.0	n/a	feedback	poldrack-single-stim	s373	False
3.266	272.319	3.266	275.585	1	PA_without_intermediate	test	ward_and_allport	71	19.0	3.266	to_hand	poldrack-single-stim	s373	False
0.1	275.586	1.302	276.888	0	PA_without_intermediate	test	ward_and_allport	82	19.0	1.302	to_board	poldrack-single-stim	s373	False
0.1	276.893	0.493	277.386	0	PA_without_intermediate	test	ward_and_allport	71	19.0	0.493	to_hand	poldrack-single-stim	s373	False
0.1	277.386	0.448	277.834	0	PA_without_intermediate	test	ward_and_allport	89	19.0	0.448	to_board	poldrack-single-stim	s373	False
0.1	277.839	0.549	278.388	0	PA_without_intermediate	test	ward_and_allport	71	19.0	0.549	to_hand	poldrack-single-stim	s373	False
0.1	278.389	0.367	278.756	0	PA_without_intermediate	test	ward_and_allport	82	19.0	0.367	to_board	poldrack-single-stim	s373	False
1.0	278.766	2.0	278.765	0	PA_without_intermediate	test	ward_and_allport	-1	19.0	n/a	feedback	poldrack-single-stim	s373	False
5.424	280.771	5.424	286.195	1	PA_with_intermediate	test	ward_and_allport	82	20.0	5.424	to_hand	poldrack-single-stim	s373	False
0.1	286.196	0.441	286.637	0	PA_with_intermediate	test	ward_and_allport	89	20.0	0.441	to_board	poldrack-single-stim	s373	False
0.1	286.642	0.844	287.486	0	PA_with_intermediate	test	ward_and_allport	82	20.0	0.844	to_hand	poldrack-single-stim	s373	False
0.1	287.487	0.452	287.939	0	PA_with_intermediate	test	ward_and_allport	71	20.0	0.452	to_board	poldrack-single-stim	s373	False
0.1	287.943	0.632	288.575	0	PA_with_intermediate	test	ward_and_allport	89	20.0	0.632	to_hand	poldrack-single-stim	s373	False
0.1	288.576	0.297	288.873	0	PA_with_intermediate	test	ward_and_allport	71	20.0	0.297	to_board	poldrack-single-stim	s373	False
1.0	288.88	2.0	288.879	0	PA_with_intermediate	test	ward_and_allport	-1	20.0	n/a	feedback	poldrack-single-stim	s373	False
4.693	290.885	4.693	295.578	1	PA_with_intermediate	test	ward_and_allport	89	21.0	4.693	to_hand	poldrack-single-stim	s373	False
0.1	295.579	0.398	295.977	0	PA_with_intermediate	test	ward_and_allport	82	21.0	0.398	to_board	poldrack-single-stim	s373	False
0.1	295.982	1.069	297.051	0	PA_with_intermediate	test	ward_and_allport	89	21.0	1.069	to_hand	poldrack-single-stim	s373	False
0.1	297.052	0.455	297.507	0	PA_with_intermediate	test	ward_and_allport	71	21.0	0.455	to_board	poldrack-single-stim	s373	False
0.1	297.512	2.543	300.055	0	PA_with_intermediate	test	ward_and_allport	82	21.0	2.543	to_hand	poldrack-single-stim	s373	False
0.1	300.055	0.314	300.369	0	PA_with_intermediate	test	ward_and_allport	89	21.0	0.314	to_board	poldrack-single-stim	s373	False
1.0	300.378	2.0	300.377	0	PA_with_intermediate	test	ward_and_allport	-1	21.0	n/a	feedback	poldrack-single-stim	s373	False
5.316	302.383	5.316	307.699	1	PA_with_intermediate	test	ward_and_allport	89	22.0	5.316	to_hand	poldrack-single-stim	s373	False
0.1	307.7	0.351	308.051	0	PA_with_intermediate	test	ward_and_allport	82	22.0	0.351	to_board	poldrack-single-stim	s373	False
0.1	308.057	0.399	308.456	0	PA_with_intermediate	test	ward_and_allport	89	22.0	0.399	to_hand	poldrack-single-stim	s373	False
0.1	308.456	0.411	308.867	0	PA_with_intermediate	test	ward_and_allport	71	22.0	0.411	to_board	poldrack-single-stim	s373	False
0.1	308.873	0.844	309.717	0	PA_with_intermediate	test	ward_and_allport	82	22.0	0.844	to_hand	poldrack-single-stim	s373	False
0.1	309.718	0.279	309.997	0	PA_with_intermediate	test	ward_and_allport	89	22.0	0.279	to_board	poldrack-single-stim	s373	False
1.0	310.004	2.408	310.003	0	PA_with_intermediate	test	ward_and_allport	-1	22.0	n/a	feedback	poldrack-single-stim	s373	False
4.067	312.419	4.067	316.486	1	PA_without_intermediate	test	ward_and_allport	89	23.0	4.067	to_hand	poldrack-single-stim	s373	False
0.1	316.488	0.506	316.994	0	PA_without_intermediate	test	ward_and_allport	71	23.0	0.506	to_board	poldrack-single-stim	s373	False
0.1	317.0	0.994	317.994	0	PA_without_intermediate	test	ward_and_allport	89	23.0	0.994	to_hand	poldrack-single-stim	s373	False
0.1	317.995	0.357	318.352	0	PA_without_intermediate	test	ward_and_allport	82	23.0	0.357	to_board	poldrack-single-stim	s373	False
0.1	318.359	0.562	318.921	0	PA_without_intermediate	test	ward_and_allport	89	23.0	0.562	to_hand	poldrack-single-stim	s373	False
0.1	318.921	0.387	319.308	0	PA_without_intermediate	test	ward_and_allport	71	23.0	0.387	to_board	poldrack-single-stim	s373	False
1.0	319.319	2.816	319.318	0	PA_without_intermediate	test	ward_and_allport	-1	23.0	n/a	feedback	poldrack-single-stim	s373	False
4.354	322.141	4.354	326.495	1	PA_with_intermediate	test	ward_and_allport	82	24.0	4.354	to_hand	poldrack-single-stim	s373	False
0.1	326.496	0.601	327.097	0	PA_with_intermediate	test	ward_and_allport	89	24.0	0.601	to_board	poldrack-single-stim	s373	False
0.1	327.104	0.889	327.993	0	PA_with_intermediate	test	ward_and_allport	82	24.0	0.889	to_hand	poldrack-single-stim	s373	False
0.1	327.993	0.475	328.468	0	PA_with_intermediate	test	ward_and_allport	71	24.0	0.475	to_board	poldrack-single-stim	s373	False
0.1	328.474	1.111	329.585	0	PA_with_intermediate	test	ward_and_allport	89	24.0	1.111	to_hand	poldrack-single-stim	s373	False
0.1	329.586	0.337	329.923	0	PA_with_intermediate	test	ward_and_allport	82	24.0	0.337	to_board	poldrack-single-stim	s373	False
1.0	329.933	4.176	329.932	0	PA_with_intermediate	test	ward_and_allport	-1	24.0	n/a	feedback	poldrack-single-stim	s373	False
4.136	334.116	4.136	338.252	1	PA_with_intermediate	test	ward_and_allport	71	25.0	4.136	to_hand	poldrack-single-stim	s373	False
0.1	338.253	0.37	338.623	0	PA_with_intermediate	test	ward_and_allport	82	25.0	0.37	to_board	poldrack-single-stim	s373	False
0.1	338.629	0.649	339.278	0	PA_with_intermediate	test	ward_and_allport	71	25.0	0.649	to_hand	poldrack-single-stim	s373	False
0.1	339.28	0.418	339.698	0	PA_with_intermediate	test	ward_and_allport	89	25.0	0.418	to_board	poldrack-single-stim	s373	False
0.1	339.704	0.353	340.057	0	PA_with_intermediate	test	ward_and_allport	82	25.0	0.353	to_hand	poldrack-single-stim	s373	False
0.1	340.059	0.315	340.374	0	PA_with_intermediate	test	ward_and_allport	89	25.0	0.315	to_board	poldrack-single-stim	s373	False
1.0	340.382	3.36	340.381	0	PA_with_intermediate	test	ward_and_allport	-1	25.0	n/a	feedback	poldrack-single-stim	s373	False
4.657	343.748	4.657	348.405	1	PA_with_intermediate	test	ward_and_allport	89	26.0	4.657	to_hand	poldrack-single-stim	s373	False
0.1	348.406	0.646	349.052	0	PA_with_intermediate	test	ward_and_allport	71	26.0	0.646	to_board	poldrack-single-stim	s373	False
0.1	349.059	0.478	349.537	0	PA_with_intermediate	test	ward_and_allport	89	26.0	0.478	to_hand	poldrack-single-stim	s373	False
0.1	349.538	0.411	349.949	0	PA_with_intermediate	test	ward_and_allport	82	26.0	0.411	to_board	poldrack-single-stim	s373	False
0.1	349.956	0.516	350.472	0	PA_with_intermediate	test	ward_and_allport	71	26.0	0.516	to_hand	poldrack-single-stim	s373	False
0.1	350.473	0.335	350.808	0	PA_with_intermediate	test	ward_and_allport	89	26.0	0.335	to_board	poldrack-single-stim	s373	False
1.0	350.82	2.0	350.819	0	PA_with_intermediate	test	ward_and_allport	-1	26.0	n/a	feedback	poldrack-single-stim	s373	False
3.571	352.826	3.571	356.397	1	PA_without_intermediate	test	ward_and_allport	89	27.0	3.571	to_hand	poldrack-single-stim	s373	False
0.1	356.398	0.342	356.74	0	PA_without_intermediate	test	ward_and_allport	71	27.0	0.342	to_board	poldrack-single-stim	s373	False
0.1	356.747	0.5	357.247	0	PA_without_intermediate	test	ward_and_allport	89	27.0	0.5	to_hand	poldrack-single-stim	s373	False
0.1	357.248	0.4	357.648	0	PA_without_intermediate	test	ward_and_allport	82	27.0	0.4	to_board	poldrack-single-stim	s373	False
0.1	357.654	1.181	358.835	0	PA_without_intermediate	test	ward_and_allport	89	27.0	1.181	to_hand	poldrack-single-stim	s373	False
0.1	358.837	0.228	359.065	0	PA_without_intermediate	test	ward_and_allport	71	27.0	0.228	to_board	poldrack-single-stim	s373	False
1.0	359.073	2.408	359.072	0	PA_without_intermediate	test	ward_and_allport	-1	27.0	n/a	feedback	poldrack-single-stim	s373	False
5.48	361.488	5.48	366.968	1	PA_with_intermediate	test	ward_and_allport	89	28.0	5.48	to_hand	poldrack-single-stim	s373	False
0.1	366.969	0.465	367.434	0	PA_with_intermediate	test	ward_and_allport	82	28.0	0.465	to_board	poldrack-single-stim	s373	False
0.1	367.442	1.932	369.374	0	PA_with_intermediate	test	ward_and_allport	89	28.0	1.932	to_hand	poldrack-single-stim	s373	False
0.1	369.376	0.638	370.014	0	PA_with_intermediate	test	ward_and_allport	71	28.0	0.638	to_board	poldrack-single-stim	s373	False
0.1	370.022	0.702	370.724	0	PA_with_intermediate	test	ward_and_allport	82	28.0	0.702	to_hand	poldrack-single-stim	s373	False
0.1	370.725	0.335	371.06	0	PA_with_intermediate	test	ward_and_allport	71	28.0	0.335	to_board	poldrack-single-stim	s373	False
1.0	371.069	2.816	371.068	0	PA_with_intermediate	test	ward_and_allport	-1	28.0	n/a	feedback	poldrack-single-stim	s373	False
3.06	373.892	3.06	376.952	1	PA_without_intermediate	test	ward_and_allport	82	29.0	3.06	to_hand	poldrack-single-stim	s373	False
0.1	376.953	0.529	377.482	0	PA_without_intermediate	test	ward_and_allport	89	29.0	0.529	to_board	poldrack-single-stim	s373	False
0.1	377.49	3.384	380.874	0	PA_without_intermediate	test	ward_and_allport	82	29.0	3.384	to_hand	poldrack-single-stim	s373	False
0.1	380.875	0.942	381.817	0	PA_without_intermediate	test	ward_and_allport	89	29.0	0.942	to_board	poldrack-single-stim	s373	False
0.1	381.825	0.364	382.189	0	PA_without_intermediate	test	ward_and_allport	82	29.0	0.364	to_hand	poldrack-single-stim	s373	False
0.1	382.189	0.341	382.53	0	PA_without_intermediate	test	ward_and_allport	71	29.0	0.341	to_board	poldrack-single-stim	s373	False
1.0	382.542	3.088	382.541	0	PA_without_intermediate	test	ward_and_allport	-1	29.0	n/a	feedback	poldrack-single-stim	s373	False
3.484	390.642	3.484	394.126	1	PA_without_intermediate	test	ward_and_allport	82	30.0	3.484	to_hand	poldrack-single-stim	s373	False
0.1	394.127	0.489	394.616	0	PA_without_intermediate	test	ward_and_allport	71	30.0	0.489	to_board	poldrack-single-stim	s373	False
0.1	394.622	0.387	395.009	0	PA_without_intermediate	test	ward_and_allport	82	30.0	0.387	to_hand	poldrack-single-stim	s373	False
0.1	395.011	0.463	395.474	0	PA_without_intermediate	test	ward_and_allport	71	30.0	0.463	to_board	poldrack-single-stim	s373	False
0.1	395.482	1.653	397.135	0	PA_without_intermediate	test	ward_and_allport	82	30.0	1.653	to_hand	poldrack-single-stim	s373	False
0.1	397.137	0.254	397.391	0	PA_without_intermediate	test	ward_and_allport	89	30.0	0.254	to_board	poldrack-single-stim	s373	False
1.0	397.4	2.136	397.399	0	PA_without_intermediate	test	ward_and_allport	-1	30.0	n/a	feedback	poldrack-single-stim	s373	False
3.075	399.544	3.075	402.619	1	PA_without_intermediate	test	ward_and_allport	82	31.0	3.075	to_hand	poldrack-single-stim	s373	False
0.1	402.619	0.534	403.153	0	PA_without_intermediate	test	ward_and_allport	71	31.0	0.534	to_board	poldrack-single-stim	s373	False
0.1	403.16	1.135	404.295	0	PA_without_intermediate	test	ward_and_allport	82	31.0	1.135	to_hand	poldrack-single-stim	s373	False
0.1	404.296	0.418	404.714	0	PA_without_intermediate	test	ward_and_allport	89	31.0	0.418	to_board	poldrack-single-stim	s373	False
0.1	404.723	0.565	405.288	0	PA_without_intermediate	test	ward_and_allport	82	31.0	0.565	to_hand	poldrack-single-stim	s373	False
0.1	405.289	0.351	405.64	0	PA_without_intermediate	test	ward_and_allport	71	31.0	0.351	to_board	poldrack-single-stim	s373	False
1.0	405.655	7.168	405.654	0	PA_without_intermediate	test	ward_and_allport	-1	31.0	n/a	feedback	poldrack-single-stim	s373	False
2.937	412.832	2.937	415.769	1	PA_without_intermediate	test	ward_and_allport	82	32.0	2.937	to_hand	poldrack-single-stim	s373	False
0.1	415.77	0.672	416.442	0	PA_without_intermediate	test	ward_and_allport	89	32.0	0.672	to_board	poldrack-single-stim	s373	False
0.1	416.451	1.518	417.969	0	PA_without_intermediate	test	ward_and_allport	82	32.0	1.518	to_hand	poldrack-single-stim	s373	False
0.1	417.97	0.638	418.608	0	PA_without_intermediate	test	ward_and_allport	71	32.0	0.638	to_board	poldrack-single-stim	s373	False
0.1	418.619	0.585	419.204	0	PA_without_intermediate	test	ward_and_allport	82	32.0	0.585	to_hand	poldrack-single-stim	s373	False
0.1	419.205	0.253	419.458	0	PA_without_intermediate	test	ward_and_allport	89	32.0	0.253	to_board	poldrack-single-stim	s373	False
1.0	419.469	2.816	419.468	0	PA_without_intermediate	test	ward_and_allport	-1	32.0	n/a	feedback	poldrack-single-stim	s373	False
2.809	422.292	2.809	425.101	1	PA_with_intermediate	test	ward_and_allport	82	33.0	2.809	to_hand	poldrack-single-stim	s373	False
0.1	425.102	0.463	425.565	0	PA_with_intermediate	test	ward_and_allport	89	33.0	0.463	to_board	poldrack-single-stim	s373	False
0.1	425.572	1.257	426.829	0	PA_with_intermediate	test	ward_and_allport	82	33.0	1.257	to_hand	poldrack-single-stim	s373	False
0.1	426.829	0.625	427.454	0	PA_with_intermediate	test	ward_and_allport	71	33.0	0.625	to_board	poldrack-single-stim	s373	False
0.1	427.462	3.917	431.379	0	PA_with_intermediate	test	ward_and_allport	89	33.0	3.917	to_hand	poldrack-single-stim	s373	False
0.1	431.381	0.225	431.606	0	PA_with_intermediate	test	ward_and_allport	71	33.0	0.225	to_board	poldrack-single-stim	s373	False
0.1	431.615	2.098	433.713	0	PA_with_intermediate	test	ward_and_allport	71	33.0	2.098	to_hand	poldrack-single-stim	s373	False
0.1	433.714	0.308	434.022	0	PA_with_intermediate	test	ward_and_allport	82	33.0	0.308	to_board	poldrack-single-stim	s373	False
1.0	434.032	2.952	434.031	0	PA_with_intermediate	test	ward_and_allport	-1	33.0	n/a	feedback	poldrack-single-stim	s373	False
5.277	436.991	5.277	442.268	1	PA_with_intermediate	test	ward_and_allport	71	34.0	5.277	to_hand	poldrack-single-stim	s373	False
0.1	442.269	0.347	442.616	0	PA_with_intermediate	test	ward_and_allport	89	34.0	0.347	to_board	poldrack-single-stim	s373	False
0.1	442.625	0.463	443.088	0	PA_with_intermediate	test	ward_and_allport	71	34.0	0.463	to_hand	poldrack-single-stim	s373	False
0.1	443.09	0.427	443.517	0	PA_with_intermediate	test	ward_and_allport	82	34.0	0.427	to_board	poldrack-single-stim	s373	False
0.1	443.527	0.395	443.922	0	PA_with_intermediate	test	ward_and_allport	89	34.0	0.395	to_hand	poldrack-single-stim	s373	False
0.1	443.924	0.291	444.215	0	PA_with_intermediate	test	ward_and_allport	82	34.0	0.291	to_board	poldrack-single-stim	s373	False
1.0	444.224	2.136	444.223	0	PA_with_intermediate	test	ward_and_allport	-1	34.0	n/a	feedback	poldrack-single-stim	s373	False
3.575	446.369	3.575	449.944	1	PA_without_intermediate	test	ward_and_allport	89	35.0	3.575	to_hand	poldrack-single-stim	s373	False
0.1	449.945	0.384	450.329	0	PA_without_intermediate	test	ward_and_allport	82	35.0	0.384	to_board	poldrack-single-stim	s373	False
0.1	450.338	0.334	450.672	0	PA_without_intermediate	test	ward_and_allport	89	35.0	0.334	to_hand	poldrack-single-stim	s373	False
0.1	450.673	0.377	451.05	0	PA_without_intermediate	test	ward_and_allport	82	35.0	0.377	to_board	poldrack-single-stim	s373	False
0.1	451.058	0.785	451.843	0	PA_without_intermediate	test	ward_and_allport	89	35.0	0.785	to_hand	poldrack-single-stim	s373	False
0.1	451.844	0.213	452.057	0	PA_without_intermediate	test	ward_and_allport	71	35.0	0.213	to_board	poldrack-single-stim	s373	False
1.0	452.07	2.68	452.069	0	PA_without_intermediate	test	ward_and_allport	-1	35.0	n/a	feedback	poldrack-single-stim	s373	False
2.555	454.759	2.555	457.314	1	PA_without_intermediate	test	ward_and_allport	89	36.0	2.555	to_hand	poldrack-single-stim	s373	False
0.1	457.315	0.322	457.637	0	PA_without_intermediate	test	ward_and_allport	71	36.0	0.322	to_board	poldrack-single-stim	s373	False
0.1	457.645	0.36	458.005	0	PA_without_intermediate	test	ward_and_allport	89	36.0	0.36	to_hand	poldrack-single-stim	s373	False
0.1	458.005	0.397	458.402	0	PA_without_intermediate	test	ward_and_allport	71	36.0	0.397	to_board	poldrack-single-stim	s373	False
0.1	458.411	0.537	458.948	0	PA_without_intermediate	test	ward_and_allport	89	36.0	0.537	to_hand	poldrack-single-stim	s373	False
0.1	458.949	0.357	459.306	0	PA_without_intermediate	test	ward_and_allport	82	36.0	0.357	to_board	poldrack-single-stim	s373	False
1.0	459.319	3.088	459.318	0	PA_without_intermediate	test	ward_and_allport	-1	36.0	n/a	feedback	poldrack-single-stim	s373	False
3.637	462.415	3.637	466.052	1	PA_with_intermediate	test	ward_and_allport	82	37.0	3.637	to_hand	poldrack-single-stim	s373	False
0.1	466.053	0.635	466.688	0	PA_with_intermediate	test	ward_and_allport	89	37.0	0.635	to_board	poldrack-single-stim	s373	False
0.1	466.695	0.54	467.235	0	PA_with_intermediate	test	ward_and_allport	82	37.0	0.54	to_hand	poldrack-single-stim	s373	False
0.1	467.237	0.865	468.102	0	PA_with_intermediate	test	ward_and_allport	71	37.0	0.865	to_board	poldrack-single-stim	s373	False
0.1	468.11	0.662	468.772	0	PA_with_intermediate	test	ward_and_allport	89	37.0	0.662	to_hand	poldrack-single-stim	s373	False
0.1	468.772	0.192	468.964	0	PA_with_intermediate	test	ward_and_allport	71	37.0	0.192	to_board	poldrack-single-stim	s373	False
1.0	468.975	2.0	468.974	0	PA_with_intermediate	test	ward_and_allport	-1	37.0	n/a	feedback	poldrack-single-stim	s373	False
2.713	470.985	2.713	473.698	1	PA_without_intermediate	test	ward_and_allport	71	38.0	2.713	to_hand	poldrack-single-stim	s373	False
0.1	473.699	0.847	474.546	0	PA_without_intermediate	test	ward_and_allport	89	38.0	0.847	to_board	poldrack-single-stim	s373	False
0.1	474.556	0.858	475.414	0	PA_without_intermediate	test	ward_and_allport	71	38.0	0.858	to_hand	poldrack-single-stim	s373	False
0.1	475.415	0.367	475.782	0	PA_without_intermediate	test	ward_and_allport	89	38.0	0.367	to_board	poldrack-single-stim	s373	False
0.1	475.789	0.6	476.389	0	PA_without_intermediate	test	ward_and_allport	71	38.0	0.6	to_hand	poldrack-single-stim	s373	False
0.1	476.389	0.276	476.665	0	PA_without_intermediate	test	ward_and_allport	82	38.0	0.276	to_board	poldrack-single-stim	s373	False
1.0	476.677	2.0	476.676	0	PA_without_intermediate	test	ward_and_allport	-1	38.0	n/a	feedback	poldrack-single-stim	s373	False
2.62	478.682	2.62	481.302	1	PA_without_intermediate	test	ward_and_allport	89	39.0	2.62	to_hand	poldrack-single-stim	s373	False
0.1	481.303	0.469	481.772	0	PA_without_intermediate	test	ward_and_allport	82	39.0	0.469	to_board	poldrack-single-stim	s373	False
0.1	481.779	0.651	482.43	0	PA_without_intermediate	test	ward_and_allport	89	39.0	0.651	to_hand	poldrack-single-stim	s373	False
0.1	482.43	0.367	482.797	0	PA_without_intermediate	test	ward_and_allport	71	39.0	0.367	to_board	poldrack-single-stim	s373	False
0.1	482.807	0.342	483.149	0	PA_without_intermediate	test	ward_and_allport	89	39.0	0.342	to_hand	poldrack-single-stim	s373	False
0.1	483.15	0.253	483.403	0	PA_without_intermediate	test	ward_and_allport	82	39.0	0.253	to_board	poldrack-single-stim	s373	False
1.0	483.413	2.0	483.412	0	PA_without_intermediate	test	ward_and_allport	-1	39.0	n/a	feedback	poldrack-single-stim	s373	False
4.468	485.419	4.468	489.887	1	PA_with_intermediate	test	ward_and_allport	89	40.0	4.468	to_hand	poldrack-single-stim	s373	False
0.1	489.889	0.354	490.243	0	PA_with_intermediate	test	ward_and_allport	71	40.0	0.354	to_board	poldrack-single-stim	s373	False
0.1	490.25	0.386	490.636	0	PA_with_intermediate	test	ward_and_allport	89	40.0	0.386	to_hand	poldrack-single-stim	s373	False
0.1	490.637	0.368	491.005	0	PA_with_intermediate	test	ward_and_allport	82	40.0	0.368	to_board	poldrack-single-stim	s373	False
0.1	491.015	0.391	491.406	0	PA_with_intermediate	test	ward_and_allport	71	40.0	0.391	to_hand	poldrack-single-stim	s373	False
0.1	491.407	0.333	491.74	0	PA_with_intermediate	test	ward_and_allport	82	40.0	0.333	to_board	poldrack-single-stim	s373	False
1.0	491.75	2.544	491.749	0	PA_with_intermediate	test	ward_and_allport	-1	40.0	n/a	feedback	poldrack-single-stim	s373	False
2.551	494.302	2.551	496.853	1	PA_without_intermediate	test	ward_and_allport	82	41.0	2.551	to_hand	poldrack-single-stim	s373	False
0.1	496.854	0.467	497.321	0	PA_without_intermediate	test	ward_and_allport	71	41.0	0.467	to_board	poldrack-single-stim	s373	False
0.1	497.332	0.375	497.707	0	PA_without_intermediate	test	ward_and_allport	82	41.0	0.375	to_hand	poldrack-single-stim	s373	False
0.1	497.709	0.449	498.158	0	PA_without_intermediate	test	ward_and_allport	89	41.0	0.449	to_board	poldrack-single-stim	s373	False
0.1	498.167	0.834	499.001	0	PA_without_intermediate	test	ward_and_allport	82	41.0	0.834	to_hand	poldrack-single-stim	s373	False
0.1	499.003	0.3	499.303	0	PA_without_intermediate	test	ward_and_allport	71	41.0	0.3	to_board	poldrack-single-stim	s373	False
1.0	499.313	2.272	499.312	0	PA_without_intermediate	test	ward_and_allport	-1	41.0	n/a	feedback	poldrack-single-stim	s373	False
5.513	501.591	5.513	507.104	1	PA_with_intermediate	test	ward_and_allport	71	42.0	5.513	to_hand	poldrack-single-stim	s373	False
0.1	507.106	0.439	507.545	0	PA_with_intermediate	test	ward_and_allport	82	42.0	0.439	to_board	poldrack-single-stim	s373	False
0.1	507.552	0.429	507.981	0	PA_with_intermediate	test	ward_and_allport	71	42.0	0.429	to_hand	poldrack-single-stim	s373	False
0.1	507.982	0.426	508.408	0	PA_with_intermediate	test	ward_and_allport	89	42.0	0.426	to_board	poldrack-single-stim	s373	False
0.1	508.417	0.352	508.769	0	PA_with_intermediate	test	ward_and_allport	82	42.0	0.352	to_hand	poldrack-single-stim	s373	False
0.1	508.77	0.395	509.165	0	PA_with_intermediate	test	ward_and_allport	89	42.0	0.395	to_board	poldrack-single-stim	s373	False
1.0	509.177	4.04	509.176	0	PA_with_intermediate	test	ward_and_allport	-1	42.0	n/a	feedback	poldrack-single-stim	s373	False
4.096	513.228	4.096	517.324	1	PA_with_intermediate	test	ward_and_allport	89	43.0	4.096	to_hand	poldrack-single-stim	s373	False
0.1	517.325	0.368	517.693	0	PA_with_intermediate	test	ward_and_allport	82	43.0	0.368	to_board	poldrack-single-stim	s373	False
0.1	517.702	0.437	518.139	0	PA_with_intermediate	test	ward_and_allport	89	43.0	0.437	to_hand	poldrack-single-stim	s373	False
0.1	518.14	0.374	518.514	0	PA_with_intermediate	test	ward_and_allport	71	43.0	0.374	to_board	poldrack-single-stim	s373	False
0.1	518.524	0.316	518.84	0	PA_with_intermediate	test	ward_and_allport	82	43.0	0.316	to_hand	poldrack-single-stim	s373	False
0.1	518.841	0.326	519.167	0	PA_with_intermediate	test	ward_and_allport	71	43.0	0.326	to_board	poldrack-single-stim	s373	False
1.0	519.18	2.272	519.179	0	PA_with_intermediate	test	ward_and_allport	-1	43.0	n/a	feedback	poldrack-single-stim	s373	False
4.112	521.459	4.112	525.571	1	PA_with_intermediate	test	ward_and_allport	71	44.0	4.112	to_hand	poldrack-single-stim	s373	False
0.1	525.573	0.37	525.943	0	PA_with_intermediate	test	ward_and_allport	89	44.0	0.37	to_board	poldrack-single-stim	s373	False
0.1	525.951	0.577	526.528	0	PA_with_intermediate	test	ward_and_allport	71	44.0	0.577	to_hand	poldrack-single-stim	s373	False
0.1	526.528	0.391	526.919	0	PA_with_intermediate	test	ward_and_allport	82	44.0	0.391	to_board	poldrack-single-stim	s373	False
0.1	526.929	0.297	527.226	0	PA_with_intermediate	test	ward_and_allport	89	44.0	0.297	to_hand	poldrack-single-stim	s373	False
0.1	527.227	0.231	527.458	0	PA_with_intermediate	test	ward_and_allport	71	44.0	0.231	to_board	poldrack-single-stim	s373	False
1.0	527.469	2.136	527.468	0	PA_with_intermediate	test	ward_and_allport	-1	44.0	n/a	feedback	poldrack-single-stim	s373	False
4.392	534.617	4.392	539.009	1	PA_with_intermediate	test	ward_and_allport	82	45.0	4.392	to_hand	poldrack-single-stim	s373	False
0.1	539.01	0.579	539.589	0	PA_with_intermediate	test	ward_and_allport	71	45.0	0.579	to_board	poldrack-single-stim	s373	False
0.1	539.598	0.562	540.16	0	PA_with_intermediate	test	ward_and_allport	82	45.0	0.562	to_hand	poldrack-single-stim	s373	False
0.1	540.162	0.492	540.654	0	PA_with_intermediate	test	ward_and_allport	89	45.0	0.492	to_board	poldrack-single-stim	s373	False
0.1	540.665	0.514	541.179	0	PA_with_intermediate	test	ward_and_allport	71	45.0	0.514	to_hand	poldrack-single-stim	s373	False
0.1	541.179	0.367	541.546	0	PA_with_intermediate	test	ward_and_allport	82	45.0	0.367	to_board	poldrack-single-stim	s373	False
1.0	541.56	2.0	541.559	0	PA_with_intermediate	test	ward_and_allport	-1	45.0	n/a	feedback	poldrack-single-stim	s373	False
2.674	543.57	2.674	546.244	1	PA_with_intermediate	test	ward_and_allport	82	46.0	2.674	to_hand	poldrack-single-stim	s373	False
0.1	546.245	1.188	547.433	0	PA_with_intermediate	test	ward_and_allport	71	46.0	1.188	to_board	poldrack-single-stim	s373	False
0.1	547.44	1.328	548.768	0	PA_with_intermediate	test	ward_and_allport	82	46.0	1.328	to_hand	poldrack-single-stim	s373	False
0.1	548.768	0.745	549.513	0	PA_with_intermediate	test	ward_and_allport	89	46.0	0.745	to_board	poldrack-single-stim	s373	False
0.1	549.522	1.225	550.747	0	PA_with_intermediate	test	ward_and_allport	71	46.0	1.225	to_hand	poldrack-single-stim	s373	False
0.1	550.748	0.319	551.067	0	PA_with_intermediate	test	ward_and_allport	89	46.0	0.319	to_board	poldrack-single-stim	s373	False
1.0	551.081	2.0	551.08	0	PA_with_intermediate	test	ward_and_allport	-1	46.0	n/a	feedback	poldrack-single-stim	s373	False
3.667	553.091	3.667	556.758	1	PA_without_intermediate	test	ward_and_allport	71	47.0	3.667	to_hand	poldrack-single-stim	s373	False
0.1	556.759	0.411	557.17	0	PA_without_intermediate	test	ward_and_allport	82	47.0	0.411	to_board	poldrack-single-stim	s373	False
0.1	557.182	0.453	557.635	0	PA_without_intermediate	test	ward_and_allport	71	47.0	0.453	to_hand	poldrack-single-stim	s373	False
0.1	557.635	0.392	558.027	0	PA_without_intermediate	test	ward_and_allport	82	47.0	0.392	to_board	poldrack-single-stim	s373	False
0.1	558.036	0.44	558.476	0	PA_without_intermediate	test	ward_and_allport	71	47.0	0.44	to_hand	poldrack-single-stim	s373	False
0.1	558.478	0.31	558.788	0	PA_without_intermediate	test	ward_and_allport	89	47.0	0.31	to_board	poldrack-single-stim	s373	False
1.0	558.801	2.408	558.8	0	PA_without_intermediate	test	ward_and_allport	-1	47.0	n/a	feedback	poldrack-single-stim	s373	False
