duration	onset	block_duration	movement_onset	planning	condition	exp_stage	experiment_exp_id	key_press	problem_id	response_time	trial_id	trial_type	worker_id	junk
4.715	3.007	4.715	7.722	1	UA_with_intermediate	practice	ward_and_allport	71	0.0	4.715	to_hand	poldrack-single-stim	s445	False
0.1	7.722	1.642	9.364	0	UA_with_intermediate	practice	ward_and_allport	82	0.0	1.642	to_board	poldrack-single-stim	s445	False
0.1	9.367	0.817	10.184	0	UA_with_intermediate	practice	ward_and_allport	71	0.0	0.817	to_hand	poldrack-single-stim	s445	False
0.1	10.185	0.31	10.495	0	UA_with_intermediate	practice	ward_and_allport	89	0.0	0.31	to_board	poldrack-single-stim	s445	False
0.1	10.497	1.161	11.658	0	UA_with_intermediate	practice	ward_and_allport	82	0.0	1.161	to_hand	poldrack-single-stim	s445	False
0.1	11.659	0.324	11.983	0	UA_with_intermediate	practice	ward_and_allport	89	0.0	0.324	to_board	poldrack-single-stim	s445	False
1.0	11.986	2.5	11.985	0	UA_with_intermediate	practice	ward_and_allport	-1	0.0	n/a	feedback	poldrack-single-stim	s445	False
2.332	14.489	2.332	16.821	1	UA_with_intermediate	practice	ward_and_allport	89	1.0	2.332	to_hand	poldrack-single-stim	s445	False
0.1	16.822	1.163	17.985	0	UA_with_intermediate	practice	ward_and_allport	82	1.0	1.163	to_board	poldrack-single-stim	s445	False
0.1	17.987	0.464	18.451	0	UA_with_intermediate	practice	ward_and_allport	71	1.0	0.464	to_hand	poldrack-single-stim	s445	False
0.1	18.452	0.381	18.833	0	UA_with_intermediate	practice	ward_and_allport	89	1.0	0.381	to_board	poldrack-single-stim	s445	False
0.1	18.834	0.832	19.666	0	UA_with_intermediate	practice	ward_and_allport	82	1.0	0.832	to_hand	poldrack-single-stim	s445	False
0.1	19.667	0.221	19.888	0	UA_with_intermediate	practice	ward_and_allport	89	1.0	0.221	to_board	poldrack-single-stim	s445	False
1.0	19.891	2.1	19.89	0	UA_with_intermediate	practice	ward_and_allport	-1	1.0	n/a	feedback	poldrack-single-stim	s445	False
2.058	21.993	2.058	24.051	1	UA_without_intermediate	practice	ward_and_allport	82	2.0	2.058	to_hand	poldrack-single-stim	s445	False
0.1	24.051	0.326	24.377	0	UA_without_intermediate	practice	ward_and_allport	89	2.0	0.326	to_board	poldrack-single-stim	s445	False
0.1	24.379	1.438	25.817	0	UA_without_intermediate	practice	ward_and_allport	71	2.0	1.438	to_hand	poldrack-single-stim	s445	False
0.1	25.818	0.289	26.107	0	UA_without_intermediate	practice	ward_and_allport	89	2.0	0.289	to_board	poldrack-single-stim	s445	False
0.1	26.109	0.488	26.597	0	UA_without_intermediate	practice	ward_and_allport	71	2.0	0.488	to_hand	poldrack-single-stim	s445	False
0.1	26.598	0.232	26.83	0	UA_without_intermediate	practice	ward_and_allport	89	2.0	0.232	to_board	poldrack-single-stim	s445	False
1.0	26.833	2.2	26.832	0	UA_without_intermediate	practice	ward_and_allport	-1	2.0	n/a	feedback	poldrack-single-stim	s445	False
1.886	29.034	1.886	30.92	1	UA_without_intermediate	practice	ward_and_allport	71	3.0	1.886	to_hand	poldrack-single-stim	s445	False
0.1	30.921	0.341	31.262	0	UA_without_intermediate	practice	ward_and_allport	89	3.0	0.341	to_board	poldrack-single-stim	s445	False
0.1	31.264	0.965	32.229	0	UA_without_intermediate	practice	ward_and_allport	82	3.0	0.965	to_hand	poldrack-single-stim	s445	False
0.1	32.23	0.281	32.511	0	UA_without_intermediate	practice	ward_and_allport	89	3.0	0.281	to_board	poldrack-single-stim	s445	False
0.1	32.512	0.526	33.038	0	UA_without_intermediate	practice	ward_and_allport	71	3.0	0.526	to_hand	poldrack-single-stim	s445	False
0.1	33.039	0.256	33.295	0	UA_without_intermediate	practice	ward_and_allport	89	3.0	0.256	to_board	poldrack-single-stim	s445	False
1.0	33.299	2.0	33.298	0	UA_without_intermediate	practice	ward_and_allport	-1	3.0	n/a	feedback	poldrack-single-stim	s445	False
3.313	37.306	3.313	40.619	1	PA_without_intermediate	test	ward_and_allport	82	0.0	3.313	to_hand	poldrack-single-stim	s445	False
0.1	40.619	0.576	41.195	0	PA_without_intermediate	test	ward_and_allport	89	0.0	0.576	to_board	poldrack-single-stim	s445	False
0.1	41.198	2.126	43.324	0	PA_without_intermediate	test	ward_and_allport	82	0.0	2.126	to_hand	poldrack-single-stim	s445	False
0.1	43.325	0.409	43.734	0	PA_without_intermediate	test	ward_and_allport	71	0.0	0.409	to_board	poldrack-single-stim	s445	False
0.1	43.737	0.579	44.316	0	PA_without_intermediate	test	ward_and_allport	82	0.0	0.579	to_hand	poldrack-single-stim	s445	False
0.1	44.318	0.244	44.562	0	PA_without_intermediate	test	ward_and_allport	89	0.0	0.244	to_board	poldrack-single-stim	s445	False
1.0	44.565	3.088	44.564	0	PA_without_intermediate	test	ward_and_allport	-1	0.0	n/a	feedback	poldrack-single-stim	s445	False
3.078	47.655	3.078	50.733	1	PA_with_intermediate	test	ward_and_allport	71	1.0	3.078	to_hand	poldrack-single-stim	s445	False
0.1	50.734	0.589	51.323	0	PA_with_intermediate	test	ward_and_allport	89	1.0	0.589	to_board	poldrack-single-stim	s445	False
0.1	51.325	0.406	51.731	0	PA_with_intermediate	test	ward_and_allport	71	1.0	0.406	to_hand	poldrack-single-stim	s445	False
0.1	51.732	0.316	52.048	0	PA_with_intermediate	test	ward_and_allport	82	1.0	0.316	to_board	poldrack-single-stim	s445	False
0.1	52.05	0.388	52.438	0	PA_with_intermediate	test	ward_and_allport	71	1.0	0.388	to_hand	poldrack-single-stim	s445	False
0.1	52.439	0.665	53.104	0	PA_with_intermediate	test	ward_and_allport	71	1.0	0.665	to_board	poldrack-single-stim	s445	False
0.1	53.107	0.349	53.456	0	PA_with_intermediate	test	ward_and_allport	89	1.0	0.349	to_hand	poldrack-single-stim	s445	False
0.1	53.456	0.58	54.036	0	PA_with_intermediate	test	ward_and_allport	71	1.0	0.58	to_board	poldrack-single-stim	s445	False
1.0	54.04	2.0	54.039	0	PA_with_intermediate	test	ward_and_allport	-1	1.0	n/a	feedback	poldrack-single-stim	s445	False
2.919	56.043	2.919	58.962	1	PA_without_intermediate	test	ward_and_allport	89	2.0	2.919	to_hand	poldrack-single-stim	s445	False
0.1	58.962	0.572	59.534	0	PA_without_intermediate	test	ward_and_allport	82	2.0	0.572	to_board	poldrack-single-stim	s445	False
0.1	59.536	1.7	61.236	0	PA_without_intermediate	test	ward_and_allport	89	2.0	1.7	to_hand	poldrack-single-stim	s445	False
0.1	61.237	0.45	61.687	0	PA_without_intermediate	test	ward_and_allport	71	2.0	0.45	to_board	poldrack-single-stim	s445	False
0.1	61.689	0.707	62.396	0	PA_without_intermediate	test	ward_and_allport	89	2.0	0.707	to_hand	poldrack-single-stim	s445	False
0.1	62.397	0.365	62.762	0	PA_without_intermediate	test	ward_and_allport	82	2.0	0.365	to_board	poldrack-single-stim	s445	False
1.0	62.766	2.0	62.765	0	PA_without_intermediate	test	ward_and_allport	-1	2.0	n/a	feedback	poldrack-single-stim	s445	False
2.012	64.769	2.012	66.781	1	PA_without_intermediate	test	ward_and_allport	89	3.0	2.012	to_hand	poldrack-single-stim	s445	False
0.1	66.782	0.326	67.108	0	PA_without_intermediate	test	ward_and_allport	71	3.0	0.326	to_board	poldrack-single-stim	s445	False
0.1	67.11	0.723	67.833	0	PA_without_intermediate	test	ward_and_allport	89	3.0	0.723	to_hand	poldrack-single-stim	s445	False
0.1	67.835	0.387	68.222	0	PA_without_intermediate	test	ward_and_allport	71	3.0	0.387	to_board	poldrack-single-stim	s445	False
0.1	68.224	0.847	69.071	0	PA_without_intermediate	test	ward_and_allport	89	3.0	0.847	to_hand	poldrack-single-stim	s445	False
0.1	69.071	0.339	69.41	0	PA_without_intermediate	test	ward_and_allport	82	3.0	0.339	to_board	poldrack-single-stim	s445	False
1.0	69.413	2.0	69.412	0	PA_without_intermediate	test	ward_and_allport	-1	3.0	n/a	feedback	poldrack-single-stim	s445	False
3.619	71.416	3.619	75.035	1	PA_with_intermediate	test	ward_and_allport	82	4.0	3.619	to_hand	poldrack-single-stim	s445	False
0.1	75.036	0.401	75.437	0	PA_with_intermediate	test	ward_and_allport	89	4.0	0.401	to_board	poldrack-single-stim	s445	False
0.1	75.44	0.715	76.155	0	PA_with_intermediate	test	ward_and_allport	82	4.0	0.715	to_hand	poldrack-single-stim	s445	False
0.1	76.156	0.573	76.729	0	PA_with_intermediate	test	ward_and_allport	71	4.0	0.573	to_board	poldrack-single-stim	s445	False
0.1	76.732	0.493	77.225	0	PA_with_intermediate	test	ward_and_allport	89	4.0	0.493	to_hand	poldrack-single-stim	s445	False
0.1	77.226	0.522	77.748	0	PA_with_intermediate	test	ward_and_allport	71	4.0	0.522	to_board	poldrack-single-stim	s445	False
1.0	77.752	2.544	77.751	0	PA_with_intermediate	test	ward_and_allport	-1	4.0	n/a	feedback	poldrack-single-stim	s445	False
3.089	80.3	3.089	83.389	1	PA_without_intermediate	test	ward_and_allport	71	5.0	3.089	to_hand	poldrack-single-stim	s445	False
0.1	83.39	0.568	83.958	0	PA_without_intermediate	test	ward_and_allport	89	5.0	0.568	to_board	poldrack-single-stim	s445	False
0.1	83.961	0.409	84.37	0	PA_without_intermediate	test	ward_and_allport	71	5.0	0.409	to_hand	poldrack-single-stim	s445	False
0.1	84.372	0.346	84.718	0	PA_without_intermediate	test	ward_and_allport	89	5.0	0.346	to_board	poldrack-single-stim	s445	False
0.1	84.721	0.472	85.193	0	PA_without_intermediate	test	ward_and_allport	71	5.0	0.472	to_hand	poldrack-single-stim	s445	False
0.1	85.195	0.61	85.805	0	PA_without_intermediate	test	ward_and_allport	82	5.0	0.61	to_board	poldrack-single-stim	s445	False
1.0	85.809	2.272	85.808	0	PA_without_intermediate	test	ward_and_allport	-1	5.0	n/a	feedback	poldrack-single-stim	s445	False
2.629	88.083	2.629	90.712	1	PA_with_intermediate	test	ward_and_allport	82	6.0	2.629	to_hand	poldrack-single-stim	s445	False
0.1	90.713	0.31	91.023	0	PA_with_intermediate	test	ward_and_allport	89	6.0	0.31	to_board	poldrack-single-stim	s445	False
0.1	91.027	0.552	91.579	0	PA_with_intermediate	test	ward_and_allport	82	6.0	0.552	to_hand	poldrack-single-stim	s445	False
0.1	91.58	0.378	91.958	0	PA_with_intermediate	test	ward_and_allport	71	6.0	0.378	to_board	poldrack-single-stim	s445	False
0.1	91.96	0.517	92.477	0	PA_with_intermediate	test	ward_and_allport	89	6.0	0.517	to_hand	poldrack-single-stim	s445	False
0.1	92.478	0.341	92.819	0	PA_with_intermediate	test	ward_and_allport	71	6.0	0.341	to_board	poldrack-single-stim	s445	False
1.0	92.824	4.04	92.823	0	PA_with_intermediate	test	ward_and_allport	-1	6.0	n/a	feedback	poldrack-single-stim	s445	False
1.717	96.867	1.717	98.584	1	PA_with_intermediate	test	ward_and_allport	71	7.0	1.717	to_hand	poldrack-single-stim	s445	False
0.1	98.585	0.635	99.22	0	PA_with_intermediate	test	ward_and_allport	82	7.0	0.635	to_board	poldrack-single-stim	s445	False
0.1	99.224	0.394	99.618	0	PA_with_intermediate	test	ward_and_allport	71	7.0	0.394	to_hand	poldrack-single-stim	s445	False
0.1	99.618	0.441	100.059	0	PA_with_intermediate	test	ward_and_allport	89	7.0	0.441	to_board	poldrack-single-stim	s445	False
0.1	100.061	1.637	101.698	0	PA_with_intermediate	test	ward_and_allport	82	7.0	1.637	to_hand	poldrack-single-stim	s445	False
0.1	101.7	0.469	102.169	0	PA_with_intermediate	test	ward_and_allport	71	7.0	0.469	to_board	poldrack-single-stim	s445	False
1.0	102.173	2.272	102.172	0	PA_with_intermediate	test	ward_and_allport	-1	7.0	n/a	feedback	poldrack-single-stim	s445	False
2.97	104.447	2.97	107.417	1	PA_with_intermediate	test	ward_and_allport	89	8.0	2.97	to_hand	poldrack-single-stim	s445	False
0.1	107.419	0.27	107.689	0	PA_with_intermediate	test	ward_and_allport	71	8.0	0.27	to_board	poldrack-single-stim	s445	False
0.1	107.692	0.752	108.444	0	PA_with_intermediate	test	ward_and_allport	89	8.0	0.752	to_hand	poldrack-single-stim	s445	False
0.1	108.444	0.576	109.02	0	PA_with_intermediate	test	ward_and_allport	82	8.0	0.576	to_board	poldrack-single-stim	s445	False
0.1	109.024	0.509	109.533	0	PA_with_intermediate	test	ward_and_allport	71	8.0	0.509	to_hand	poldrack-single-stim	s445	False
0.1	109.533	0.346	109.879	0	PA_with_intermediate	test	ward_and_allport	82	8.0	0.346	to_board	poldrack-single-stim	s445	False
1.0	109.883	2.136	109.882	0	PA_with_intermediate	test	ward_and_allport	-1	8.0	n/a	feedback	poldrack-single-stim	s445	False
2.38	112.024	2.38	114.404	1	PA_with_intermediate	test	ward_and_allport	89	9.0	2.38	to_hand	poldrack-single-stim	s445	False
0.1	114.405	0.286	114.691	0	PA_with_intermediate	test	ward_and_allport	71	9.0	0.286	to_board	poldrack-single-stim	s445	False
0.1	114.695	0.341	115.036	0	PA_with_intermediate	test	ward_and_allport	89	9.0	0.341	to_hand	poldrack-single-stim	s445	False
0.1	115.037	0.569	115.606	0	PA_with_intermediate	test	ward_and_allport	82	9.0	0.569	to_board	poldrack-single-stim	s445	False
0.1	115.609	0.428	116.037	0	PA_with_intermediate	test	ward_and_allport	71	9.0	0.428	to_hand	poldrack-single-stim	s445	False
0.1	116.038	0.3	116.338	0	PA_with_intermediate	test	ward_and_allport	82	9.0	0.3	to_board	poldrack-single-stim	s445	False
1.0	116.343	2.0	116.342	0	PA_with_intermediate	test	ward_and_allport	-1	9.0	n/a	feedback	poldrack-single-stim	s445	False
2.849	118.346	2.849	121.195	1	PA_with_intermediate	test	ward_and_allport	71	10.0	2.849	to_hand	poldrack-single-stim	s445	False
0.1	121.197	0.355	121.552	0	PA_with_intermediate	test	ward_and_allport	89	10.0	0.355	to_board	poldrack-single-stim	s445	False
0.1	121.555	0.95	122.505	0	PA_with_intermediate	test	ward_and_allport	71	10.0	0.95	to_hand	poldrack-single-stim	s445	False
0.1	122.506	0.351	122.857	0	PA_with_intermediate	test	ward_and_allport	82	10.0	0.351	to_board	poldrack-single-stim	s445	False
0.1	122.861	1.021	123.882	0	PA_with_intermediate	test	ward_and_allport	89	10.0	1.021	to_hand	poldrack-single-stim	s445	False
0.1	123.883	0.244	124.127	0	PA_with_intermediate	test	ward_and_allport	71	10.0	0.244	to_board	poldrack-single-stim	s445	False
1.0	124.132	2.0	124.131	0	PA_with_intermediate	test	ward_and_allport	-1	10.0	n/a	feedback	poldrack-single-stim	s445	False
1.955	126.137	1.955	128.092	1	PA_without_intermediate	test	ward_and_allport	82	11.0	1.955	to_hand	poldrack-single-stim	s445	False
0.1	128.094	0.388	128.482	0	PA_without_intermediate	test	ward_and_allport	89	11.0	0.388	to_board	poldrack-single-stim	s445	False
0.1	128.485	1.198	129.683	0	PA_without_intermediate	test	ward_and_allport	82	11.0	1.198	to_hand	poldrack-single-stim	s445	False
0.1	129.684	0.34	130.024	0	PA_without_intermediate	test	ward_and_allport	71	11.0	0.34	to_board	poldrack-single-stim	s445	False
0.1	130.028	0.485	130.513	0	PA_without_intermediate	test	ward_and_allport	82	11.0	0.485	to_hand	poldrack-single-stim	s445	False
0.1	130.514	0.373	130.887	0	PA_without_intermediate	test	ward_and_allport	89	11.0	0.373	to_board	poldrack-single-stim	s445	False
1.0	130.891	2.408	130.89	0	PA_without_intermediate	test	ward_and_allport	-1	11.0	n/a	feedback	poldrack-single-stim	s445	False
3.477	133.304	3.477	136.781	1	PA_with_intermediate	test	ward_and_allport	89	12.0	3.477	to_hand	poldrack-single-stim	s445	False
0.1	136.781	0.293	137.074	0	PA_with_intermediate	test	ward_and_allport	82	12.0	0.293	to_board	poldrack-single-stim	s445	False
0.1	137.078	0.662	137.74	0	PA_with_intermediate	test	ward_and_allport	89	12.0	0.662	to_hand	poldrack-single-stim	s445	False
0.1	137.742	0.349	138.091	0	PA_with_intermediate	test	ward_and_allport	71	12.0	0.349	to_board	poldrack-single-stim	s445	False
0.1	138.096	0.432	138.528	0	PA_with_intermediate	test	ward_and_allport	82	12.0	0.432	to_hand	poldrack-single-stim	s445	False
0.1	138.529	0.227	138.756	0	PA_with_intermediate	test	ward_and_allport	89	12.0	0.227	to_board	poldrack-single-stim	s445	False
1.0	138.762	3.768	138.761	0	PA_with_intermediate	test	ward_and_allport	-1	12.0	n/a	feedback	poldrack-single-stim	s445	False
3.198	142.535	3.198	145.733	1	PA_with_intermediate	test	ward_and_allport	89	13.0	3.198	to_hand	poldrack-single-stim	s445	False
0.1	145.735	0.246	145.981	0	PA_with_intermediate	test	ward_and_allport	71	13.0	0.246	to_board	poldrack-single-stim	s445	False
0.1	145.985	0.435	146.42	0	PA_with_intermediate	test	ward_and_allport	89	13.0	0.435	to_hand	poldrack-single-stim	s445	False
0.1	146.422	0.29	146.712	0	PA_with_intermediate	test	ward_and_allport	82	13.0	0.29	to_board	poldrack-single-stim	s445	False
0.1	146.715	0.456	147.171	0	PA_with_intermediate	test	ward_and_allport	71	13.0	0.456	to_hand	poldrack-single-stim	s445	False
0.1	147.173	0.275	147.448	0	PA_with_intermediate	test	ward_and_allport	89	13.0	0.275	to_board	poldrack-single-stim	s445	False
1.0	147.453	2.68	147.452	0	PA_with_intermediate	test	ward_and_allport	-1	13.0	n/a	feedback	poldrack-single-stim	s445	False
2.123	150.137	2.123	152.26	1	PA_without_intermediate	test	ward_and_allport	82	14.0	2.123	to_hand	poldrack-single-stim	s445	False
0.1	152.262	0.323	152.585	0	PA_without_intermediate	test	ward_and_allport	71	14.0	0.323	to_board	poldrack-single-stim	s445	False
0.1	152.588	0.483	153.071	0	PA_without_intermediate	test	ward_and_allport	82	14.0	0.483	to_hand	poldrack-single-stim	s445	False
0.1	153.072	0.367	153.439	0	PA_without_intermediate	test	ward_and_allport	71	14.0	0.367	to_board	poldrack-single-stim	s445	False
0.1	153.444	1.355	154.799	0	PA_without_intermediate	test	ward_and_allport	82	14.0	1.355	to_hand	poldrack-single-stim	s445	False
0.1	154.799	0.23	155.029	0	PA_without_intermediate	test	ward_and_allport	89	14.0	0.23	to_board	poldrack-single-stim	s445	False
1.0	155.035	3.224	155.034	0	PA_without_intermediate	test	ward_and_allport	-1	14.0	n/a	feedback	poldrack-single-stim	s445	False
2.372	163.266	2.372	165.638	1	PA_without_intermediate	test	ward_and_allport	82	15.0	2.372	to_hand	poldrack-single-stim	s445	False
0.1	165.639	0.292	165.931	0	PA_without_intermediate	test	ward_and_allport	71	15.0	0.292	to_board	poldrack-single-stim	s445	False
0.1	165.934	0.347	166.281	0	PA_without_intermediate	test	ward_and_allport	82	15.0	0.347	to_hand	poldrack-single-stim	s445	False
0.1	166.283	0.225	166.508	0	PA_without_intermediate	test	ward_and_allport	71	15.0	0.225	to_board	poldrack-single-stim	s445	False
0.1	166.512	0.398	166.91	0	PA_without_intermediate	test	ward_and_allport	82	15.0	0.398	to_hand	poldrack-single-stim	s445	False
0.1	166.912	0.261	167.173	0	PA_without_intermediate	test	ward_and_allport	89	15.0	0.261	to_board	poldrack-single-stim	s445	False
1.0	167.178	3.36	167.177	0	PA_without_intermediate	test	ward_and_allport	-1	15.0	n/a	feedback	poldrack-single-stim	s445	False
1.976	170.544	1.976	172.52	1	PA_without_intermediate	test	ward_and_allport	71	16.0	1.976	to_hand	poldrack-single-stim	s445	False
0.1	172.521	0.295	172.816	0	PA_without_intermediate	test	ward_and_allport	82	16.0	0.295	to_board	poldrack-single-stim	s445	False
0.1	172.821	0.885	173.706	0	PA_without_intermediate	test	ward_and_allport	71	16.0	0.885	to_hand	poldrack-single-stim	s445	False
0.1	173.707	0.242	173.949	0	PA_without_intermediate	test	ward_and_allport	89	16.0	0.242	to_board	poldrack-single-stim	s445	False
0.1	173.953	0.298	174.251	0	PA_without_intermediate	test	ward_and_allport	71	16.0	0.298	to_hand	poldrack-single-stim	s445	False
0.1	174.252	0.238	174.49	0	PA_without_intermediate	test	ward_and_allport	82	16.0	0.238	to_board	poldrack-single-stim	s445	False
1.0	174.494	2.0	174.493	0	PA_without_intermediate	test	ward_and_allport	-1	16.0	n/a	feedback	poldrack-single-stim	s445	False
2.724	176.498	2.724	179.222	1	PA_without_intermediate	test	ward_and_allport	89	17.0	2.724	to_hand	poldrack-single-stim	s445	False
0.1	179.224	0.287	179.511	0	PA_without_intermediate	test	ward_and_allport	71	17.0	0.287	to_board	poldrack-single-stim	s445	False
0.1	179.515	0.582	180.097	0	PA_without_intermediate	test	ward_and_allport	89	17.0	0.582	to_hand	poldrack-single-stim	s445	False
0.1	180.098	0.636	180.734	0	PA_without_intermediate	test	ward_and_allport	82	17.0	0.636	to_board	poldrack-single-stim	s445	False
0.1	180.738	1.817	182.555	0	PA_without_intermediate	test	ward_and_allport	89	17.0	1.817	to_hand	poldrack-single-stim	s445	False
0.1	182.556	0.291	182.847	0	PA_without_intermediate	test	ward_and_allport	71	17.0	0.291	to_board	poldrack-single-stim	s445	False
1.0	182.853	2.408	182.852	0	PA_without_intermediate	test	ward_and_allport	-1	17.0	n/a	feedback	poldrack-single-stim	s445	False
2.603	185.267	2.603	187.87	1	PA_with_intermediate	test	ward_and_allport	82	18.0	2.603	to_hand	poldrack-single-stim	s445	False
0.1	187.871	0.477	188.348	0	PA_with_intermediate	test	ward_and_allport	71	18.0	0.477	to_board	poldrack-single-stim	s445	False
0.1	188.351	0.404	188.755	0	PA_with_intermediate	test	ward_and_allport	82	18.0	0.404	to_hand	poldrack-single-stim	s445	False
0.1	188.757	0.356	189.113	0	PA_with_intermediate	test	ward_and_allport	89	18.0	0.356	to_board	poldrack-single-stim	s445	False
0.1	189.118	0.711	189.829	0	PA_with_intermediate	test	ward_and_allport	71	18.0	0.711	to_hand	poldrack-single-stim	s445	False
0.1	189.83	0.27	190.1	0	PA_with_intermediate	test	ward_and_allport	82	18.0	0.27	to_board	poldrack-single-stim	s445	False
1.0	190.106	2.136	190.105	0	PA_with_intermediate	test	ward_and_allport	-1	18.0	n/a	feedback	poldrack-single-stim	s445	False
1.481	192.246	1.481	193.727	1	PA_without_intermediate	test	ward_and_allport	71	19.0	1.481	to_hand	poldrack-single-stim	s445	False
0.1	193.729	0.37	194.099	0	PA_without_intermediate	test	ward_and_allport	89	19.0	0.37	to_board	poldrack-single-stim	s445	False
0.1	194.104	0.696	194.8	0	PA_without_intermediate	test	ward_and_allport	71	19.0	0.696	to_hand	poldrack-single-stim	s445	False
0.1	194.801	0.277	195.078	0	PA_without_intermediate	test	ward_and_allport	82	19.0	0.277	to_board	poldrack-single-stim	s445	False
0.1	195.083	0.42	195.503	0	PA_without_intermediate	test	ward_and_allport	71	19.0	0.42	to_hand	poldrack-single-stim	s445	False
0.1	195.503	0.229	195.732	0	PA_without_intermediate	test	ward_and_allport	89	19.0	0.229	to_board	poldrack-single-stim	s445	False
1.0	195.738	5.128	195.737	0	PA_without_intermediate	test	ward_and_allport	-1	19.0	n/a	feedback	poldrack-single-stim	s445	False
1.251	200.871	1.251	202.122	1	PA_without_intermediate	test	ward_and_allport	71	20.0	1.251	to_hand	poldrack-single-stim	s445	False
0.1	202.124	0.289	202.413	0	PA_without_intermediate	test	ward_and_allport	89	20.0	0.289	to_board	poldrack-single-stim	s445	False
0.1	202.418	0.444	202.862	0	PA_without_intermediate	test	ward_and_allport	71	20.0	0.444	to_hand	poldrack-single-stim	s445	False
0.1	202.863	0.213	203.076	0	PA_without_intermediate	test	ward_and_allport	89	20.0	0.213	to_board	poldrack-single-stim	s445	False
0.1	203.08	0.679	203.759	0	PA_without_intermediate	test	ward_and_allport	71	20.0	0.679	to_hand	poldrack-single-stim	s445	False
0.1	203.761	0.262	204.023	0	PA_without_intermediate	test	ward_and_allport	82	20.0	0.262	to_board	poldrack-single-stim	s445	False
1.0	204.029	2.136	204.028	0	PA_without_intermediate	test	ward_and_allport	-1	20.0	n/a	feedback	poldrack-single-stim	s445	False
1.918	206.169	1.918	208.087	1	PA_without_intermediate	test	ward_and_allport	89	21.0	1.918	to_hand	poldrack-single-stim	s445	False
0.1	208.088	0.199	208.287	0	PA_without_intermediate	test	ward_and_allport	82	21.0	0.199	to_board	poldrack-single-stim	s445	False
0.1	208.292	0.677	208.969	0	PA_without_intermediate	test	ward_and_allport	89	21.0	0.677	to_hand	poldrack-single-stim	s445	False
0.1	208.97	0.223	209.193	0	PA_without_intermediate	test	ward_and_allport	82	21.0	0.223	to_board	poldrack-single-stim	s445	False
0.1	209.198	1.152	210.35	0	PA_without_intermediate	test	ward_and_allport	89	21.0	1.152	to_hand	poldrack-single-stim	s445	False
0.1	210.351	0.243	210.594	0	PA_without_intermediate	test	ward_and_allport	71	21.0	0.243	to_board	poldrack-single-stim	s445	False
1.0	210.601	5.264	210.6	0	PA_without_intermediate	test	ward_and_allport	-1	21.0	n/a	feedback	poldrack-single-stim	s445	False
2.039	215.871	2.039	217.91	1	PA_with_intermediate	test	ward_and_allport	82	22.0	2.039	to_hand	poldrack-single-stim	s445	False
0.1	217.912	0.231	218.143	0	PA_with_intermediate	test	ward_and_allport	89	22.0	0.231	to_board	poldrack-single-stim	s445	False
0.1	218.147	0.377	218.524	0	PA_with_intermediate	test	ward_and_allport	82	22.0	0.377	to_hand	poldrack-single-stim	s445	False
0.1	218.526	0.482	219.008	0	PA_with_intermediate	test	ward_and_allport	71	22.0	0.482	to_board	poldrack-single-stim	s445	False
0.1	219.014	0.415	219.429	0	PA_with_intermediate	test	ward_and_allport	89	22.0	0.415	to_hand	poldrack-single-stim	s445	False
0.1	219.43	0.195	219.625	0	PA_with_intermediate	test	ward_and_allport	82	22.0	0.195	to_board	poldrack-single-stim	s445	False
1.0	219.633	4.04	219.632	0	PA_with_intermediate	test	ward_and_allport	-1	22.0	n/a	feedback	poldrack-single-stim	s445	False
3.069	223.679	3.069	226.748	1	PA_with_intermediate	test	ward_and_allport	71	23.0	3.069	to_hand	poldrack-single-stim	s445	False
0.1	226.749	0.279	227.028	0	PA_with_intermediate	test	ward_and_allport	82	23.0	0.279	to_board	poldrack-single-stim	s445	False
0.1	227.034	0.251	227.285	0	PA_with_intermediate	test	ward_and_allport	71	23.0	0.251	to_hand	poldrack-single-stim	s445	False
0.1	227.286	0.257	227.543	0	PA_with_intermediate	test	ward_and_allport	89	23.0	0.257	to_board	poldrack-single-stim	s445	False
0.1	227.549	0.345	227.894	0	PA_with_intermediate	test	ward_and_allport	82	23.0	0.345	to_hand	poldrack-single-stim	s445	False
0.1	227.896	0.236	228.132	0	PA_with_intermediate	test	ward_and_allport	89	23.0	0.236	to_board	poldrack-single-stim	s445	False
1.0	228.139	2.136	228.138	0	PA_with_intermediate	test	ward_and_allport	-1	23.0	n/a	feedback	poldrack-single-stim	s445	False
2.452	230.282	2.452	232.734	1	PA_with_intermediate	test	ward_and_allport	82	24.0	2.452	to_hand	poldrack-single-stim	s445	False
0.1	232.735	0.276	233.011	0	PA_with_intermediate	test	ward_and_allport	71	24.0	0.276	to_board	poldrack-single-stim	s445	False
0.1	233.018	0.365	233.383	0	PA_with_intermediate	test	ward_and_allport	82	24.0	0.365	to_hand	poldrack-single-stim	s445	False
0.1	233.384	0.259	233.643	0	PA_with_intermediate	test	ward_and_allport	89	24.0	0.259	to_board	poldrack-single-stim	s445	False
0.1	233.649	0.341	233.99	0	PA_with_intermediate	test	ward_and_allport	71	24.0	0.341	to_hand	poldrack-single-stim	s445	False
0.1	233.992	0.241	234.233	0	PA_with_intermediate	test	ward_and_allport	82	24.0	0.241	to_board	poldrack-single-stim	s445	False
1.0	234.24	2.408	234.239	0	PA_with_intermediate	test	ward_and_allport	-1	24.0	n/a	feedback	poldrack-single-stim	s445	False
1.376	236.654	1.376	238.03	1	PA_without_intermediate	test	ward_and_allport	71	25.0	1.376	to_hand	poldrack-single-stim	s445	False
0.1	238.031	0.294	238.325	0	PA_without_intermediate	test	ward_and_allport	89	25.0	0.294	to_board	poldrack-single-stim	s445	False
0.1	238.331	0.737	239.068	0	PA_without_intermediate	test	ward_and_allport	71	25.0	0.737	to_hand	poldrack-single-stim	s445	False
0.1	239.069	0.239	239.308	0	PA_without_intermediate	test	ward_and_allport	82	25.0	0.239	to_board	poldrack-single-stim	s445	False
0.1	239.315	0.297	239.612	0	PA_without_intermediate	test	ward_and_allport	71	25.0	0.297	to_hand	poldrack-single-stim	s445	False
0.1	239.612	0.207	239.819	0	PA_without_intermediate	test	ward_and_allport	89	25.0	0.207	to_board	poldrack-single-stim	s445	False
1.0	239.827	2.68	239.826	0	PA_without_intermediate	test	ward_and_allport	-1	25.0	n/a	feedback	poldrack-single-stim	s445	False
2.192	242.514	2.192	244.706	1	PA_with_intermediate	test	ward_and_allport	71	26.0	2.192	to_hand	poldrack-single-stim	s445	False
0.1	244.707	0.285	244.992	0	PA_with_intermediate	test	ward_and_allport	82	26.0	0.285	to_board	poldrack-single-stim	s445	False
0.1	244.998	0.392	245.39	0	PA_with_intermediate	test	ward_and_allport	71	26.0	0.392	to_hand	poldrack-single-stim	s445	False
0.1	245.392	0.332	245.724	0	PA_with_intermediate	test	ward_and_allport	89	26.0	0.332	to_board	poldrack-single-stim	s445	False
0.1	245.731	0.629	246.36	0	PA_with_intermediate	test	ward_and_allport	82	26.0	0.629	to_hand	poldrack-single-stim	s445	False
0.1	246.36	0.324	246.684	0	PA_with_intermediate	test	ward_and_allport	89	26.0	0.324	to_board	poldrack-single-stim	s445	False
1.0	246.693	4.72	246.692	0	PA_with_intermediate	test	ward_and_allport	-1	26.0	n/a	feedback	poldrack-single-stim	s445	False
1.776	251.42	1.776	253.196	1	PA_without_intermediate	test	ward_and_allport	89	27.0	1.776	to_hand	poldrack-single-stim	s445	False
0.1	253.197	0.423	253.62	0	PA_without_intermediate	test	ward_and_allport	82	27.0	0.423	to_board	poldrack-single-stim	s445	False
0.1	253.626	0.418	254.044	0	PA_without_intermediate	test	ward_and_allport	89	27.0	0.418	to_hand	poldrack-single-stim	s445	False
0.1	254.045	0.223	254.268	0	PA_without_intermediate	test	ward_and_allport	82	27.0	0.223	to_board	poldrack-single-stim	s445	False
0.1	254.274	0.643	254.917	0	PA_without_intermediate	test	ward_and_allport	89	27.0	0.643	to_hand	poldrack-single-stim	s445	False
0.1	254.918	0.273	255.191	0	PA_without_intermediate	test	ward_and_allport	71	27.0	0.273	to_board	poldrack-single-stim	s445	False
1.0	255.198	3.224	255.197	0	PA_without_intermediate	test	ward_and_allport	-1	27.0	n/a	feedback	poldrack-single-stim	s445	False
1.917	258.429	1.917	260.346	1	PA_without_intermediate	test	ward_and_allport	89	28.0	1.917	to_hand	poldrack-single-stim	s445	False
0.1	260.347	0.227	260.574	0	PA_without_intermediate	test	ward_and_allport	82	28.0	0.227	to_board	poldrack-single-stim	s445	False
0.1	260.58	0.622	261.202	0	PA_without_intermediate	test	ward_and_allport	89	28.0	0.622	to_hand	poldrack-single-stim	s445	False
0.1	261.204	0.251	261.455	0	PA_without_intermediate	test	ward_and_allport	71	28.0	0.251	to_board	poldrack-single-stim	s445	False
0.1	261.462	0.39	261.852	0	PA_without_intermediate	test	ward_and_allport	89	28.0	0.39	to_hand	poldrack-single-stim	s445	False
0.1	261.852	0.2	262.052	0	PA_without_intermediate	test	ward_and_allport	82	28.0	0.2	to_board	poldrack-single-stim	s445	False
1.0	262.06	2.272	262.059	0	PA_without_intermediate	test	ward_and_allport	-1	28.0	n/a	feedback	poldrack-single-stim	s445	False
3.532	264.338	3.532	267.87	1	PA_with_intermediate	test	ward_and_allport	82	29.0	3.532	to_hand	poldrack-single-stim	s445	False
0.1	267.871	0.303	268.174	0	PA_with_intermediate	test	ward_and_allport	89	29.0	0.303	to_board	poldrack-single-stim	s445	False
0.1	268.182	0.359	268.541	0	PA_with_intermediate	test	ward_and_allport	82	29.0	0.359	to_hand	poldrack-single-stim	s445	False
0.1	268.542	0.432	268.974	0	PA_with_intermediate	test	ward_and_allport	71	29.0	0.432	to_board	poldrack-single-stim	s445	False
0.1	268.981	0.355	269.336	0	PA_with_intermediate	test	ward_and_allport	89	29.0	0.355	to_hand	poldrack-single-stim	s445	False
0.1	269.337	0.247	269.584	0	PA_with_intermediate	test	ward_and_allport	82	29.0	0.247	to_board	poldrack-single-stim	s445	False
1.0	269.593	3.632	269.592	0	PA_with_intermediate	test	ward_and_allport	-1	29.0	n/a	feedback	poldrack-single-stim	s445	False
1.814	278.234	1.814	280.048	1	PA_without_intermediate	test	ward_and_allport	82	30.0	1.814	to_hand	poldrack-single-stim	s445	False
0.1	280.049	0.262	280.311	0	PA_without_intermediate	test	ward_and_allport	89	30.0	0.262	to_board	poldrack-single-stim	s445	False
0.1	280.318	0.666	280.984	0	PA_without_intermediate	test	ward_and_allport	82	30.0	0.666	to_hand	poldrack-single-stim	s445	False
0.1	280.984	0.181	281.165	0	PA_without_intermediate	test	ward_and_allport	89	30.0	0.181	to_board	poldrack-single-stim	s445	False
0.1	281.173	0.46	281.633	0	PA_without_intermediate	test	ward_and_allport	82	30.0	0.46	to_hand	poldrack-single-stim	s445	False
0.1	281.634	0.184	281.818	0	PA_without_intermediate	test	ward_and_allport	71	30.0	0.184	to_board	poldrack-single-stim	s445	False
1.0	281.827	2.408	281.826	0	PA_without_intermediate	test	ward_and_allport	-1	30.0	n/a	feedback	poldrack-single-stim	s445	False
1.697	284.243	1.697	285.94	1	PA_without_intermediate	test	ward_and_allport	82	31.0	1.697	to_hand	poldrack-single-stim	s445	False
0.1	285.94	0.255	286.195	0	PA_without_intermediate	test	ward_and_allport	71	31.0	0.255	to_board	poldrack-single-stim	s445	False
0.1	286.203	0.289	286.492	0	PA_without_intermediate	test	ward_and_allport	82	31.0	0.289	to_hand	poldrack-single-stim	s445	False
0.1	286.492	0.241	286.733	0	PA_without_intermediate	test	ward_and_allport	89	31.0	0.241	to_board	poldrack-single-stim	s445	False
0.1	286.741	0.303	287.044	0	PA_without_intermediate	test	ward_and_allport	82	31.0	0.303	to_hand	poldrack-single-stim	s445	False
0.1	287.045	0.214	287.259	0	PA_without_intermediate	test	ward_and_allport	71	31.0	0.214	to_board	poldrack-single-stim	s445	False
1.0	287.269	2.0	287.268	0	PA_without_intermediate	test	ward_and_allport	-1	31.0	n/a	feedback	poldrack-single-stim	s445	False
1.655	289.275	1.655	290.93	1	PA_with_intermediate	test	ward_and_allport	89	32.0	1.655	to_hand	poldrack-single-stim	s445	False
0.1	290.931	0.161	291.092	0	PA_with_intermediate	test	ward_and_allport	82	32.0	0.161	to_board	poldrack-single-stim	s445	False
0.1	291.098	0.416	291.514	0	PA_with_intermediate	test	ward_and_allport	89	32.0	0.416	to_hand	poldrack-single-stim	s445	False
0.1	291.514	0.222	291.736	0	PA_with_intermediate	test	ward_and_allport	71	32.0	0.222	to_board	poldrack-single-stim	s445	False
0.1	291.742	0.704	292.446	0	PA_with_intermediate	test	ward_and_allport	82	32.0	0.704	to_hand	poldrack-single-stim	s445	False
0.1	292.446	0.186	292.632	0	PA_with_intermediate	test	ward_and_allport	89	32.0	0.186	to_board	poldrack-single-stim	s445	False
0.1	292.637	0.722	293.359	0	PA_with_intermediate	test	ward_and_allport	89	32.0	0.722	to_hand	poldrack-single-stim	s445	False
0.1	293.36	0.33	293.69	0	PA_with_intermediate	test	ward_and_allport	71	32.0	0.33	to_board	poldrack-single-stim	s445	False
1.0	293.697	2.0	293.696	0	PA_with_intermediate	test	ward_and_allport	-1	32.0	n/a	feedback	poldrack-single-stim	s445	False
1.763	295.706	1.763	297.469	1	PA_with_intermediate	test	ward_and_allport	71	33.0	1.763	to_hand	poldrack-single-stim	s445	False
0.1	297.471	0.232	297.703	0	PA_with_intermediate	test	ward_and_allport	89	33.0	0.232	to_board	poldrack-single-stim	s445	False
0.1	297.712	0.377	298.089	0	PA_with_intermediate	test	ward_and_allport	71	33.0	0.377	to_hand	poldrack-single-stim	s445	False
0.1	298.09	0.361	298.451	0	PA_with_intermediate	test	ward_and_allport	82	33.0	0.361	to_board	poldrack-single-stim	s445	False
0.1	298.46	0.428	298.888	0	PA_with_intermediate	test	ward_and_allport	89	33.0	0.428	to_hand	poldrack-single-stim	s445	False
0.1	298.888	0.584	299.472	0	PA_with_intermediate	test	ward_and_allport	82	33.0	0.584	to_board	poldrack-single-stim	s445	False
1.0	299.479	2.0	299.478	0	PA_with_intermediate	test	ward_and_allport	-1	33.0	n/a	feedback	poldrack-single-stim	s445	False
1.369	301.485	1.369	302.854	1	PA_with_intermediate	test	ward_and_allport	89	34.0	1.369	to_hand	poldrack-single-stim	s445	False
0.1	302.856	0.183	303.039	0	PA_with_intermediate	test	ward_and_allport	82	34.0	0.183	to_board	poldrack-single-stim	s445	False
0.1	303.044	0.731	303.775	0	PA_with_intermediate	test	ward_and_allport	89	34.0	0.731	to_hand	poldrack-single-stim	s445	False
0.1	303.776	0.233	304.009	0	PA_with_intermediate	test	ward_and_allport	71	34.0	0.233	to_board	poldrack-single-stim	s445	False
0.1	304.015	0.369	304.384	0	PA_with_intermediate	test	ward_and_allport	82	34.0	0.369	to_hand	poldrack-single-stim	s445	False
0.1	304.385	0.222	304.607	0	PA_with_intermediate	test	ward_and_allport	89	34.0	0.222	to_board	poldrack-single-stim	s445	False
1.0	304.613	2.408	304.612	0	PA_with_intermediate	test	ward_and_allport	-1	34.0	n/a	feedback	poldrack-single-stim	s445	False
2.123	307.027	2.123	309.15	1	PA_without_intermediate	test	ward_and_allport	71	35.0	2.123	to_hand	poldrack-single-stim	s445	False
0.1	309.151	0.451	309.602	0	PA_without_intermediate	test	ward_and_allport	82	35.0	0.451	to_board	poldrack-single-stim	s445	False
0.1	309.608	0.428	310.036	0	PA_without_intermediate	test	ward_and_allport	71	35.0	0.428	to_hand	poldrack-single-stim	s445	False
0.1	310.036	0.281	310.317	0	PA_without_intermediate	test	ward_and_allport	82	35.0	0.281	to_board	poldrack-single-stim	s445	False
0.1	310.332	0.385	310.717	0	PA_without_intermediate	test	ward_and_allport	71	35.0	0.385	to_hand	poldrack-single-stim	s445	False
0.1	310.719	0.21	310.929	0	PA_without_intermediate	test	ward_and_allport	89	35.0	0.21	to_board	poldrack-single-stim	s445	False
1.0	310.94	2.816	310.939	0	PA_without_intermediate	test	ward_and_allport	-1	35.0	n/a	feedback	poldrack-single-stim	s445	False
1.256	313.767	1.256	315.023	1	PA_with_intermediate	test	ward_and_allport	71	36.0	1.256	to_hand	poldrack-single-stim	s445	False
0.1	315.024	0.229	315.253	0	PA_with_intermediate	test	ward_and_allport	89	36.0	0.229	to_board	poldrack-single-stim	s445	False
0.1	315.259	0.241	315.5	0	PA_with_intermediate	test	ward_and_allport	71	36.0	0.241	to_hand	poldrack-single-stim	s445	False
0.1	315.502	0.299	315.801	0	PA_with_intermediate	test	ward_and_allport	82	36.0	0.299	to_board	poldrack-single-stim	s445	False
0.1	315.808	0.567	316.375	0	PA_with_intermediate	test	ward_and_allport	89	36.0	0.567	to_hand	poldrack-single-stim	s445	False
0.1	316.377	0.164	316.541	0	PA_with_intermediate	test	ward_and_allport	71	36.0	0.164	to_board	poldrack-single-stim	s445	False
0.1	316.548	1.281	317.829	0	PA_with_intermediate	test	ward_and_allport	71	36.0	1.281	to_hand	poldrack-single-stim	s445	False
0.1	317.829	0.237	318.066	0	PA_with_intermediate	test	ward_and_allport	82	36.0	0.237	to_board	poldrack-single-stim	s445	False
1.0	318.074	4.176	318.073	0	PA_with_intermediate	test	ward_and_allport	-1	36.0	n/a	feedback	poldrack-single-stim	s445	False
1.84	322.257	1.84	324.097	1	PA_with_intermediate	test	ward_and_allport	82	37.0	1.84	to_hand	poldrack-single-stim	s445	False
0.1	324.099	0.443	324.542	0	PA_with_intermediate	test	ward_and_allport	71	37.0	0.443	to_board	poldrack-single-stim	s445	False
0.1	324.554	0.62	325.174	0	PA_with_intermediate	test	ward_and_allport	82	37.0	0.62	to_hand	poldrack-single-stim	s445	False
0.1	325.175	0.424	325.599	0	PA_with_intermediate	test	ward_and_allport	89	37.0	0.424	to_board	poldrack-single-stim	s445	False
0.1	325.614	0.608	326.222	0	PA_with_intermediate	test	ward_and_allport	71	37.0	0.608	to_hand	poldrack-single-stim	s445	False
0.1	326.223	0.247	326.47	0	PA_with_intermediate	test	ward_and_allport	89	37.0	0.247	to_board	poldrack-single-stim	s445	False
1.0	326.482	3.36	326.481	0	PA_with_intermediate	test	ward_and_allport	-1	37.0	n/a	feedback	poldrack-single-stim	s445	False
1.374	329.852	1.374	331.226	1	PA_with_intermediate	test	ward_and_allport	89	38.0	1.374	to_hand	poldrack-single-stim	s445	False
0.1	331.228	0.222	331.45	0	PA_with_intermediate	test	ward_and_allport	82	38.0	0.222	to_board	poldrack-single-stim	s445	False
0.1	331.458	0.822	332.28	0	PA_with_intermediate	test	ward_and_allport	89	38.0	0.822	to_hand	poldrack-single-stim	s445	False
0.1	332.282	0.263	332.545	0	PA_with_intermediate	test	ward_and_allport	71	38.0	0.263	to_board	poldrack-single-stim	s445	False
0.1	332.552	0.92	333.472	0	PA_with_intermediate	test	ward_and_allport	82	38.0	0.92	to_hand	poldrack-single-stim	s445	False
0.1	333.474	0.313	333.787	0	PA_with_intermediate	test	ward_and_allport	71	38.0	0.313	to_board	poldrack-single-stim	s445	False
1.0	333.801	2.0	333.8	0	PA_with_intermediate	test	ward_and_allport	-1	38.0	n/a	feedback	poldrack-single-stim	s445	False
2.057	335.811	2.057	337.868	1	PA_without_intermediate	test	ward_and_allport	89	39.0	2.057	to_hand	poldrack-single-stim	s445	False
0.1	337.869	0.207	338.076	0	PA_without_intermediate	test	ward_and_allport	71	39.0	0.207	to_board	poldrack-single-stim	s445	False
0.1	338.085	0.449	338.534	0	PA_without_intermediate	test	ward_and_allport	89	39.0	0.449	to_hand	poldrack-single-stim	s445	False
0.1	338.536	0.216	338.752	0	PA_without_intermediate	test	ward_and_allport	71	39.0	0.216	to_board	poldrack-single-stim	s445	False
0.1	338.76	0.838	339.598	0	PA_without_intermediate	test	ward_and_allport	71	39.0	0.838	to_hand	poldrack-single-stim	s445	False
0.1	339.599	0.462	340.061	0	PA_without_intermediate	test	ward_and_allport	82	39.0	0.462	to_board	poldrack-single-stim	s445	False
0.1	340.071	0.346	340.417	0	PA_without_intermediate	test	ward_and_allport	89	39.0	0.346	to_hand	poldrack-single-stim	s445	False
0.1	340.419	0.235	340.654	0	PA_without_intermediate	test	ward_and_allport	71	39.0	0.235	to_board	poldrack-single-stim	s445	False
1.0	340.663	2.408	340.662	0	PA_without_intermediate	test	ward_and_allport	-1	39.0	n/a	feedback	poldrack-single-stim	s445	False
3.269	343.078	3.269	346.347	1	PA_with_intermediate	test	ward_and_allport	89	40.0	3.269	to_hand	poldrack-single-stim	s445	False
0.1	346.349	0.235	346.584	0	PA_with_intermediate	test	ward_and_allport	71	40.0	0.235	to_board	poldrack-single-stim	s445	False
0.1	346.591	0.446	347.037	0	PA_with_intermediate	test	ward_and_allport	89	40.0	0.446	to_hand	poldrack-single-stim	s445	False
0.1	347.039	0.257	347.296	0	PA_with_intermediate	test	ward_and_allport	82	40.0	0.257	to_board	poldrack-single-stim	s445	False
0.1	347.312	0.25	347.562	0	PA_with_intermediate	test	ward_and_allport	71	40.0	0.25	to_hand	poldrack-single-stim	s445	False
0.1	347.564	0.225	347.789	0	PA_with_intermediate	test	ward_and_allport	89	40.0	0.225	to_board	poldrack-single-stim	s445	False
1.0	347.801	2.816	347.8	0	PA_with_intermediate	test	ward_and_allport	-1	40.0	n/a	feedback	poldrack-single-stim	s445	False
1.251	350.631	1.251	351.882	1	PA_without_intermediate	test	ward_and_allport	82	41.0	1.251	to_hand	poldrack-single-stim	s445	False
0.1	351.883	0.276	352.159	0	PA_without_intermediate	test	ward_and_allport	89	41.0	0.276	to_board	poldrack-single-stim	s445	False
0.1	352.167	0.311	352.478	0	PA_without_intermediate	test	ward_and_allport	82	41.0	0.311	to_hand	poldrack-single-stim	s445	False
0.1	352.479	0.24	352.719	0	PA_without_intermediate	test	ward_and_allport	89	41.0	0.24	to_board	poldrack-single-stim	s445	False
0.1	352.729	0.408	353.137	0	PA_without_intermediate	test	ward_and_allport	82	41.0	0.408	to_hand	poldrack-single-stim	s445	False
0.1	353.138	0.383	353.521	0	PA_without_intermediate	test	ward_and_allport	71	41.0	0.383	to_board	poldrack-single-stim	s445	False
1.0	353.53	3.088	353.529	0	PA_without_intermediate	test	ward_and_allport	-1	41.0	n/a	feedback	poldrack-single-stim	s445	False
1.402	356.626	1.402	358.028	1	PA_without_intermediate	test	ward_and_allport	71	42.0	1.402	to_hand	poldrack-single-stim	s445	False
0.1	358.03	0.241	358.271	0	PA_without_intermediate	test	ward_and_allport	82	42.0	0.241	to_board	poldrack-single-stim	s445	False
0.1	358.283	0.425	358.708	0	PA_without_intermediate	test	ward_and_allport	71	42.0	0.425	to_hand	poldrack-single-stim	s445	False
0.1	358.71	0.181	358.891	0	PA_without_intermediate	test	ward_and_allport	89	42.0	0.181	to_board	poldrack-single-stim	s445	False
0.1	358.901	0.41	359.311	0	PA_without_intermediate	test	ward_and_allport	71	42.0	0.41	to_hand	poldrack-single-stim	s445	False
0.1	359.312	0.209	359.521	0	PA_without_intermediate	test	ward_and_allport	82	42.0	0.209	to_board	poldrack-single-stim	s445	False
1.0	359.534	2.136	359.533	0	PA_without_intermediate	test	ward_and_allport	-1	42.0	n/a	feedback	poldrack-single-stim	s445	False
1.778	361.679	1.778	363.457	1	PA_without_intermediate	test	ward_and_allport	82	43.0	1.778	to_hand	poldrack-single-stim	s445	False
0.1	363.457	0.215	363.672	0	PA_without_intermediate	test	ward_and_allport	71	43.0	0.215	to_board	poldrack-single-stim	s445	False
0.1	363.678	0.724	364.402	0	PA_without_intermediate	test	ward_and_allport	82	43.0	0.724	to_hand	poldrack-single-stim	s445	False
0.1	364.404	0.239	364.643	0	PA_without_intermediate	test	ward_and_allport	89	43.0	0.239	to_board	poldrack-single-stim	s445	False
0.1	364.653	0.309	364.962	0	PA_without_intermediate	test	ward_and_allport	82	43.0	0.309	to_hand	poldrack-single-stim	s445	False
0.1	364.963	0.469	365.432	0	PA_without_intermediate	test	ward_and_allport	71	43.0	0.469	to_board	poldrack-single-stim	s445	False
1.0	365.44	7.168	365.439	0	PA_without_intermediate	test	ward_and_allport	-1	43.0	n/a	feedback	poldrack-single-stim	s445	False
1.282	372.616	1.282	373.898	1	PA_without_intermediate	test	ward_and_allport	71	44.0	1.282	to_hand	poldrack-single-stim	s445	False
0.1	373.899	0.231	374.13	0	PA_without_intermediate	test	ward_and_allport	82	44.0	0.231	to_board	poldrack-single-stim	s445	False
0.1	374.14	0.37	374.51	0	PA_without_intermediate	test	ward_and_allport	71	44.0	0.37	to_hand	poldrack-single-stim	s445	False
0.1	374.511	0.24	374.751	0	PA_without_intermediate	test	ward_and_allport	82	44.0	0.24	to_board	poldrack-single-stim	s445	False
0.1	374.762	0.344	375.106	0	PA_without_intermediate	test	ward_and_allport	71	44.0	0.344	to_hand	poldrack-single-stim	s445	False
0.1	375.108	0.235	375.343	0	PA_without_intermediate	test	ward_and_allport	89	44.0	0.235	to_board	poldrack-single-stim	s445	False
1.0	375.355	2.816	375.354	0	PA_without_intermediate	test	ward_and_allport	-1	44.0	n/a	feedback	poldrack-single-stim	s445	False
1.09	383.186	1.09	384.276	1	PA_with_intermediate	test	ward_and_allport	82	45.0	1.09	to_hand	poldrack-single-stim	s445	False
0.1	384.278	0.767	385.045	0	PA_with_intermediate	test	ward_and_allport	71	45.0	0.767	to_board	poldrack-single-stim	s445	False
0.1	385.061	0.271	385.332	0	PA_with_intermediate	test	ward_and_allport	82	45.0	0.271	to_hand	poldrack-single-stim	s445	False
0.1	385.334	0.306	385.64	0	PA_with_intermediate	test	ward_and_allport	89	45.0	0.306	to_board	poldrack-single-stim	s445	False
0.1	385.658	0.243	385.901	0	PA_with_intermediate	test	ward_and_allport	71	45.0	0.243	to_hand	poldrack-single-stim	s445	False
0.1	385.903	0.304	386.207	0	PA_with_intermediate	test	ward_and_allport	89	45.0	0.304	to_board	poldrack-single-stim	s445	False
1.0	386.227	2.952	386.226	0	PA_with_intermediate	test	ward_and_allport	-1	45.0	n/a	feedback	poldrack-single-stim	s445	False
2.996	389.194	2.996	392.19	1	PA_with_intermediate	test	ward_and_allport	71	46.0	2.996	to_hand	poldrack-single-stim	s445	False
0.1	392.191	0.278	392.469	0	PA_with_intermediate	test	ward_and_allport	82	46.0	0.278	to_board	poldrack-single-stim	s445	False
0.1	392.485	0.391	392.876	0	PA_with_intermediate	test	ward_and_allport	71	46.0	0.391	to_hand	poldrack-single-stim	s445	False
0.1	392.878	0.338	393.216	0	PA_with_intermediate	test	ward_and_allport	89	46.0	0.338	to_board	poldrack-single-stim	s445	False
0.1	393.232	0.682	393.914	0	PA_with_intermediate	test	ward_and_allport	82	46.0	0.682	to_hand	poldrack-single-stim	s445	False
0.1	393.916	0.219	394.135	0	PA_with_intermediate	test	ward_and_allport	71	46.0	0.219	to_board	poldrack-single-stim	s445	False
1.0	394.154	2.136	394.153	0	PA_with_intermediate	test	ward_and_allport	-1	46.0	n/a	feedback	poldrack-single-stim	s445	False
1.591	396.311	1.591	397.902	1	PA_without_intermediate	test	ward_and_allport	89	47.0	1.591	to_hand	poldrack-single-stim	s445	False
0.1	397.903	0.273	398.176	0	PA_without_intermediate	test	ward_and_allport	71	47.0	0.273	to_board	poldrack-single-stim	s445	False
0.1	398.187	0.231	398.418	0	PA_without_intermediate	test	ward_and_allport	89	47.0	0.231	to_hand	poldrack-single-stim	s445	False
0.1	398.419	0.191	398.61	0	PA_without_intermediate	test	ward_and_allport	71	47.0	0.191	to_board	poldrack-single-stim	s445	False
0.1	398.619	0.539	399.158	0	PA_without_intermediate	test	ward_and_allport	89	47.0	0.539	to_hand	poldrack-single-stim	s445	False
0.1	399.16	0.213	399.373	0	PA_without_intermediate	test	ward_and_allport	82	47.0	0.213	to_board	poldrack-single-stim	s445	False
1.0	399.382	2.68	399.381	0	PA_without_intermediate	test	ward_and_allport	-1	47.0	n/a	feedback	poldrack-single-stim	s445	False
