onset	duration	movement_onset	CTI	block_duration	correct	correct_response	cue	cue_switch	experiment_exp_id	key_press	response_time	stim_color	stim_number	switch_type	task	task_switch	trial_id	trial_type	worker_id	first_trial_of_block	junk
4.416	1.0	5.958	0.9	3.224	True	71.0	Magnitude	stay	twobytwo	71.0	0.642	orange	8.0	cue_stay	magnitude	stay	stim	poldrack-single-stim	s445	1	False
8.545	1.0	9.98	0.9	2.408	True	89.0	Color	n/a	twobytwo	89.0	0.535	orange	6.0	task_switch	color	switch	stim	poldrack-single-stim	s445	0	False
11.858	1.0	13.36	0.9	2.816	True	71.0	High-Low	n/a	twobytwo	71.0	0.602	orange	9.0	task_switch	magnitude	switch	stim	poldrack-single-stim	s445	0	False
15.579	1.0	16.874	0.9	2.408	True	71.0	Orange-Blue	n/a	twobytwo	71.0	0.395	blue	9.0	task_switch	color	switch	stim	poldrack-single-stim	s445	0	False
18.091	1.0	19.268	0.1	2.136	True	89.0	Magnitude	n/a	twobytwo	89.0	1.077	blue	2.0	task_switch	magnitude	switch	stim	poldrack-single-stim	s445	0	False
20.331	1.0	21.037	0.1	2.136	True	71.0	Magnitude	stay	twobytwo	71.0	0.606	orange	8.0	cue_stay	magnitude	stay	stim	poldrack-single-stim	s445	0	False
22.571	1.0	23.298	0.1	2.0	True	89.0	High-Low	switch	twobytwo	89.0	0.627	orange	3.0	cue_switch	magnitude	stay	stim	poldrack-single-stim	s445	0	False
24.675	1.0	25.304	0.1	2.0	True	71.0	Magnitude	switch	twobytwo	71.0	0.529	blue	7.0	cue_switch	magnitude	stay	stim	poldrack-single-stim	s445	0	False
26.78	1.0	27.556	0.1	2.272	True	89.0	Orange-Blue	n/a	twobytwo	89.0	0.676	orange	3.0	task_switch	color	switch	stim	poldrack-single-stim	s445	0	False
29.958	1.0	31.377	0.9	2.408	True	71.0	Magnitude	n/a	twobytwo	71.0	0.519	blue	9.0	task_switch	magnitude	switch	stim	poldrack-single-stim	s445	0	False
32.47	1.0	33.216	0.1	2.0	False	71.0	Orange-Blue	n/a	twobytwo	89.0	0.646	blue	8.0	task_switch	color	switch	stim	poldrack-single-stim	s445	0	False
35.375	1.0	36.764	0.9	2.136	True	89.0	Color	switch	twobytwo	89.0	0.489	orange	9.0	cue_switch	color	stay	stim	poldrack-single-stim	s445	0	False
38.416	1.0	39.863	0.9	2.0	True	89.0	High-Low	n/a	twobytwo	89.0	0.547	orange	3.0	task_switch	magnitude	switch	stim	poldrack-single-stim	s445	0	False
41.32	1.0	42.642	0.9	2.408	True	71.0	Orange-Blue	n/a	twobytwo	71.0	0.422	blue	3.0	task_switch	color	switch	stim	poldrack-single-stim	s445	0	False
44.632	1.0	46.002	0.9	2.272	True	89.0	Color	switch	twobytwo	89.0	0.47	orange	2.0	cue_switch	color	stay	stim	poldrack-single-stim	s445	0	False
47.009	1.0	47.792	0.1	2.0	True	71.0	High-Low	n/a	twobytwo	71.0	0.683	orange	9.0	task_switch	magnitude	switch	stim	poldrack-single-stim	s445	0	False
49.114	1.0	49.915	0.1	2.272	True	71.0	Magnitude	switch	twobytwo	71.0	0.701	orange	6.0	cue_switch	magnitude	stay	stim	poldrack-single-stim	s445	0	False
52.29	1.0	53.579	0.9	2.0	True	71.0	Color	n/a	twobytwo	71.0	0.389	blue	8.0	task_switch	color	switch	stim	poldrack-single-stim	s445	0	False
55.195	1.0	56.691	0.9	2.0	True	71.0	High-Low	n/a	twobytwo	71.0	0.596	blue	8.0	task_switch	magnitude	switch	stim	poldrack-single-stim	s445	0	False
58.102	1.0	59.521	0.9	2.272	True	71.0	High-Low	stay	twobytwo	71.0	0.519	blue	6.0	cue_stay	magnitude	stay	stim	poldrack-single-stim	s445	0	False
60.48	1.0	61.275	0.1	2.136	True	89.0	Color	n/a	twobytwo	89.0	0.695	orange	3.0	task_switch	color	switch	stim	poldrack-single-stim	s445	0	False
62.719	1.0	63.394	0.1	2.0	True	89.0	Magnitude	n/a	twobytwo	89.0	0.575	orange	1.0	task_switch	magnitude	switch	stim	poldrack-single-stim	s445	0	False
64.823	1.0	65.57	0.1	2.0	True	71.0	Magnitude	stay	twobytwo	71.0	0.647	blue	9.0	cue_stay	magnitude	stay	stim	poldrack-single-stim	s445	0	False
67.727	1.0	69.288	0.9	2.0	True	89.0	Color	n/a	twobytwo	89.0	0.661	orange	2.0	task_switch	color	switch	stim	poldrack-single-stim	s445	0	False
70.631	1.0	72.111	0.9	2.0	True	71.0	Orange-Blue	switch	twobytwo	71.0	0.58	blue	1.0	cue_switch	color	stay	stim	poldrack-single-stim	s445	0	False
73.536	1.0	75.568	0.9	2.0	True	71.0	Orange-Blue	stay	twobytwo	71.0	1.132	blue	6.0	cue_stay	color	stay	stim	poldrack-single-stim	s445	0	False
76.44	1.0	77.926	0.9	2.136	True	89.0	High-Low	n/a	twobytwo	89.0	0.586	blue	4.0	task_switch	magnitude	switch	stim	poldrack-single-stim	s445	0	False
78.68	1.0	79.724	0.1	2.0	True	71.0	High-Low	stay	twobytwo	71.0	0.944	blue	7.0	cue_stay	magnitude	stay	stim	poldrack-single-stim	s445	0	False
80.784	1.0	81.604	0.1	2.0	True	71.0	Color	n/a	twobytwo	71.0	0.72	blue	9.0	task_switch	color	switch	stim	poldrack-single-stim	s445	0	False
83.688	1.0	85.064	0.9	2.136	True	89.0	Orange-Blue	switch	twobytwo	89.0	0.476	orange	8.0	cue_switch	color	stay	stim	poldrack-single-stim	s445	0	False
85.928	1.0	86.873	0.1	2.0	True	71.0	Color	switch	twobytwo	71.0	0.845	blue	2.0	cue_switch	color	stay	stim	poldrack-single-stim	s445	0	False
88.833	1.0	90.224	0.9	2.136	True	71.0	Magnitude	n/a	twobytwo	71.0	0.491	blue	8.0	task_switch	magnitude	switch	stim	poldrack-single-stim	s445	0	False
91.874	1.0	93.195	0.9	2.68	True	71.0	Color	n/a	twobytwo	71.0	0.421	blue	8.0	task_switch	color	switch	stim	poldrack-single-stim	s445	0	False
94.659	1.0	95.342	0.1	2.272	True	71.0	Color	stay	twobytwo	71.0	0.583	blue	7.0	cue_stay	color	stay	stim	poldrack-single-stim	s445	0	False
97.835	1.0	99.268	0.9	2.136	True	89.0	Color	stay	twobytwo	89.0	0.533	orange	6.0	cue_stay	color	stay	stim	poldrack-single-stim	s445	0	False
100.077	1.0	101.187	0.1	2.0	True	89.0	High-Low	n/a	twobytwo	89.0	1.01	blue	1.0	task_switch	magnitude	switch	stim	poldrack-single-stim	s445	0	False
102.982	1.0	104.306	0.9	2.136	True	89.0	Color	n/a	twobytwo	89.0	0.424	orange	4.0	task_switch	color	switch	stim	poldrack-single-stim	s445	0	False
106.022	1.0	107.384	0.9	2.68	True	89.0	High-Low	n/a	twobytwo	89.0	0.462	blue	1.0	task_switch	magnitude	switch	stim	poldrack-single-stim	s445	0	False
108.806	1.0	109.693	0.1	2.272	True	89.0	Orange-Blue	n/a	twobytwo	89.0	0.787	orange	3.0	task_switch	color	switch	stim	poldrack-single-stim	s445	0	False
111.983	1.0	113.352	0.9	2.0	True	71.0	Color	switch	twobytwo	71.0	0.469	blue	3.0	cue_switch	color	stay	stim	poldrack-single-stim	s445	0	False
114.087	1.0	115.315	0.1	2.0	True	89.0	Magnitude	n/a	twobytwo	89.0	1.128	blue	3.0	task_switch	magnitude	switch	stim	poldrack-single-stim	s445	0	False
116.19	1.0	117.062	0.1	2.136	True	71.0	Magnitude	stay	twobytwo	71.0	0.772	blue	6.0	cue_stay	magnitude	stay	stim	poldrack-single-stim	s445	0	False
119.23	1.0	121.013	0.9	2.0	True	71.0	Magnitude	stay	twobytwo	71.0	0.883	orange	8.0	cue_stay	magnitude	stay	stim	poldrack-single-stim	s445	0	False
122.135	1.0	123.572	0.9	2.0	True	89.0	Magnitude	stay	twobytwo	89.0	0.537	orange	4.0	cue_stay	magnitude	stay	stim	poldrack-single-stim	s445	0	False
124.238	1.0	125.238	0.1	2.0	True	71.0	High-Low	switch	twobytwo	71.0	0.9	orange	7.0	cue_switch	magnitude	stay	stim	poldrack-single-stim	s445	0	False
126.342	1.0	127.412	0.1	2.272	True	89.0	Color	n/a	twobytwo	89.0	0.97	orange	9.0	task_switch	color	switch	stim	poldrack-single-stim	s445	0	False
129.518	1.0	130.978	0.9	2.408	True	89.0	Magnitude	n/a	twobytwo	89.0	0.56	blue	1.0	task_switch	magnitude	switch	stim	poldrack-single-stim	s445	0	False
132.83	1.0	134.4	0.9	2.0	True	89.0	Magnitude	stay	twobytwo	89.0	0.67	blue	1.0	cue_stay	magnitude	stay	stim	poldrack-single-stim	s445	0	False
135.735	1.0	137.32	0.9	2.0	True	89.0	Magnitude	stay	twobytwo	89.0	0.685	blue	3.0	cue_stay	magnitude	stay	stim	poldrack-single-stim	s445	0	False
138.638	1.0	139.954	0.9	2.0	True	71.0	Color	n/a	twobytwo	71.0	0.416	blue	4.0	task_switch	color	switch	stim	poldrack-single-stim	s445	0	False
140.743	1.0	141.695	0.1	2.272	True	89.0	High-Low	n/a	twobytwo	89.0	0.852	blue	1.0	task_switch	magnitude	switch	stim	poldrack-single-stim	s445	0	False
143.118	1.0	143.986	0.1	2.136	True	71.0	High-Low	stay	twobytwo	71.0	0.768	blue	7.0	cue_stay	magnitude	stay	stim	poldrack-single-stim	s445	0	False
145.359	1.0	146.006	0.1	2.0	True	89.0	Color	n/a	twobytwo	89.0	0.547	orange	4.0	task_switch	color	switch	stim	poldrack-single-stim	s445	0	False
148.262	1.0	149.779	0.9	2.544	True	71.0	Orange-Blue	switch	twobytwo	71.0	0.617	blue	8.0	cue_switch	color	stay	stim	poldrack-single-stim	s445	0	False
150.911	1.0	151.897	0.1	2.272	True	71.0	High-Low	n/a	twobytwo	71.0	0.886	blue	7.0	task_switch	magnitude	switch	stim	poldrack-single-stim	s445	0	False
153.288	1.0	154.156	0.1	2.272	True	89.0	High-Low	stay	twobytwo	89.0	0.768	blue	4.0	cue_stay	magnitude	stay	stim	poldrack-single-stim	s445	0	False
155.663	1.0	156.772	0.1	2.0	True	89.0	Magnitude	switch	twobytwo	89.0	1.009	blue	1.0	cue_switch	magnitude	stay	stim	poldrack-single-stim	s445	0	False
157.768	1.0	158.479	0.1	2.0	True	89.0	Magnitude	stay	twobytwo	89.0	0.611	blue	2.0	cue_stay	magnitude	stay	stim	poldrack-single-stim	s445	0	False
159.872	1.0	160.728	0.1	2.136	True	89.0	Color	n/a	twobytwo	89.0	0.756	orange	2.0	task_switch	color	switch	stim	poldrack-single-stim	s445	0	False
162.112	1.0	162.802	0.1	2.0	True	89.0	Magnitude	n/a	twobytwo	89.0	0.59	orange	4.0	task_switch	magnitude	switch	stim	poldrack-single-stim	s445	0	False
165.016	1.0	166.446	0.9	2.136	True	71.0	High-Low	switch	twobytwo	71.0	0.53	orange	6.0	cue_switch	magnitude	stay	stim	poldrack-single-stim	s445	0	False
168.055	1.0	169.455	0.9	2.272	False	89.0	Orange-Blue	n/a	twobytwo	71.0	0.5	orange	8.0	task_switch	color	switch	stim	poldrack-single-stim	s445	0	False
170.432	1.0	171.121	0.1	2.136	True	71.0	Magnitude	n/a	twobytwo	71.0	0.589	orange	8.0	task_switch	magnitude	switch	stim	poldrack-single-stim	s445	0	False
173.472	1.0	174.896	0.9	2.272	True	71.0	Magnitude	stay	twobytwo	71.0	0.524	blue	7.0	cue_stay	magnitude	stay	stim	poldrack-single-stim	s445	0	False
175.848	1.0	176.523	0.1	2.0	True	89.0	Color	n/a	twobytwo	89.0	0.575	orange	6.0	task_switch	color	switch	stim	poldrack-single-stim	s445	0	False
178.752	1.0	180.124	0.9	2.816	True	89.0	Color	stay	twobytwo	89.0	0.472	orange	2.0	cue_stay	color	stay	stim	poldrack-single-stim	s445	0	False
181.673	1.0	182.788	0.1	2.408	True	71.0	Orange-Blue	switch	twobytwo	71.0	1.015	blue	4.0	cue_switch	color	stay	stim	poldrack-single-stim	s445	0	False
184.985	1.0	186.315	0.9	2.0	True	71.0	Orange-Blue	stay	twobytwo	71.0	0.43	blue	8.0	cue_stay	color	stay	stim	poldrack-single-stim	s445	0	False
187.089	1.0	187.798	0.1	2.544	True	71.0	Orange-Blue	stay	twobytwo	71.0	0.609	blue	7.0	cue_stay	color	stay	stim	poldrack-single-stim	s445	0	False
189.739	1.0	190.643	0.1	2.136	True	89.0	High-Low	n/a	twobytwo	89.0	0.804	blue	4.0	task_switch	magnitude	switch	stim	poldrack-single-stim	s445	0	False
191.979	1.0	193.131	0.1	2.0	True	71.0	Orange-Blue	n/a	twobytwo	71.0	1.052	blue	3.0	task_switch	color	switch	stim	poldrack-single-stim	s445	0	False
194.084	1.0	194.803	0.1	2.0	True	89.0	Orange-Blue	stay	twobytwo	89.0	0.619	orange	6.0	cue_stay	color	stay	stim	poldrack-single-stim	s445	0	False
196.187	1.0	196.911	0.1	2.136	True	71.0	Color	switch	twobytwo	71.0	0.624	blue	2.0	cue_switch	color	stay	stim	poldrack-single-stim	s445	0	False
199.228	1.0	200.656	0.9	2.136	True	89.0	Color	stay	twobytwo	89.0	0.528	orange	2.0	cue_stay	color	stay	stim	poldrack-single-stim	s445	0	False
201.467	1.0	202.715	0.1	2.272	True	71.0	Magnitude	n/a	twobytwo	71.0	1.148	orange	9.0	task_switch	magnitude	switch	stim	poldrack-single-stim	s445	0	False
204.645	1.0	206.063	0.9	3.224	True	89.0	High-Low	switch	twobytwo	89.0	0.518	blue	1.0	cue_switch	magnitude	stay	stim	poldrack-single-stim	s445	0	False
208.774	1.0	210.249	0.9	2.0	True	89.0	Magnitude	switch	twobytwo	89.0	0.575	orange	3.0	cue_switch	magnitude	stay	stim	poldrack-single-stim	s445	0	False
210.88	1.0	211.609	0.1	2.0	False	71.0	Color	n/a	twobytwo	89.0	0.629	blue	2.0	task_switch	color	switch	stim	poldrack-single-stim	s445	0	False
212.984	1.0	213.8	0.1	2.272	True	89.0	Magnitude	n/a	twobytwo	89.0	0.716	blue	1.0	task_switch	magnitude	switch	stim	poldrack-single-stim	s445	0	False
216.162	1.0	217.543	0.9	2.136	False	71.0	Color	n/a	twobytwo	89.0	0.481	blue	3.0	task_switch	color	switch	stim	poldrack-single-stim	s445	0	False
232.711	1.0	234.1	0.9	2.0	True	71.0	Magnitude	stay	twobytwo	71.0	0.489	orange	8.0	cue_stay	magnitude	stay	stim	poldrack-single-stim	s445	1	False
235.616	1.0	237.13	0.9	2.0	True	89.0	Color	n/a	twobytwo	89.0	0.614	orange	6.0	task_switch	color	switch	stim	poldrack-single-stim	s445	0	False
238.519	1.0	240.081	0.9	2.0	True	71.0	Magnitude	n/a	twobytwo	71.0	0.662	orange	9.0	task_switch	magnitude	switch	stim	poldrack-single-stim	s445	0	False
241.423	1.0	242.836	0.9	2.68	True	71.0	Orange-Blue	n/a	twobytwo	71.0	0.513	blue	9.0	task_switch	color	switch	stim	poldrack-single-stim	s445	0	False
244.207	1.0	245.178	0.1	2.0	True	89.0	Magnitude	n/a	twobytwo	89.0	0.871	blue	2.0	task_switch	magnitude	switch	stim	poldrack-single-stim	s445	0	False
246.312	1.0	247.094	0.1	2.272	True	71.0	Magnitude	stay	twobytwo	71.0	0.682	orange	8.0	cue_stay	magnitude	stay	stim	poldrack-single-stim	s445	0	False
248.688	1.0	249.591	0.1	2.0	True	89.0	High-Low	switch	twobytwo	89.0	0.803	orange	3.0	cue_switch	magnitude	stay	stim	poldrack-single-stim	s445	0	False
250.793	1.0	251.8	0.1	2.272	True	71.0	Magnitude	switch	twobytwo	71.0	0.907	blue	7.0	cue_switch	magnitude	stay	stim	poldrack-single-stim	s445	0	False
253.17	1.0	254.079	0.1	2.952	True	89.0	Orange-Blue	n/a	twobytwo	89.0	0.809	orange	3.0	task_switch	color	switch	stim	poldrack-single-stim	s445	0	False
257.027	1.0	258.459	0.9	2.0	True	71.0	High-Low	n/a	twobytwo	71.0	0.532	blue	9.0	task_switch	magnitude	switch	stim	poldrack-single-stim	s445	0	False
259.131	1.0	260.185	0.1	2.0	True	71.0	Color	n/a	twobytwo	71.0	0.954	blue	8.0	task_switch	color	switch	stim	poldrack-single-stim	s445	0	False
262.035	1.0	263.389	0.9	2.0	True	89.0	Orange-Blue	switch	twobytwo	89.0	0.454	orange	9.0	cue_switch	color	stay	stim	poldrack-single-stim	s445	0	False
264.939	1.0	266.355	0.9	2.0	True	89.0	High-Low	n/a	twobytwo	89.0	0.516	orange	3.0	task_switch	magnitude	switch	stim	poldrack-single-stim	s445	0	False
267.843	1.0	269.635	0.9	2.136	False	71.0	Color	n/a	twobytwo	89.0	0.892	blue	3.0	task_switch	color	switch	stim	poldrack-single-stim	s445	0	False
270.883	1.0	272.547	0.9	2.0	True	89.0	Orange-Blue	switch	twobytwo	89.0	0.764	orange	2.0	cue_switch	color	stay	stim	poldrack-single-stim	s445	0	False
272.988	1.0	273.791	0.1	2.0	True	71.0	Magnitude	n/a	twobytwo	71.0	0.703	orange	9.0	task_switch	magnitude	switch	stim	poldrack-single-stim	s445	0	False
275.091	1.0	275.924	0.1	2.0	True	71.0	High-Low	switch	twobytwo	71.0	0.733	orange	6.0	cue_switch	magnitude	stay	stim	poldrack-single-stim	s445	0	False
277.996	1.0	279.327	0.9	2.272	True	71.0	Color	n/a	twobytwo	71.0	0.431	blue	8.0	task_switch	color	switch	stim	poldrack-single-stim	s445	0	False
281.172	1.0	282.532	0.9	2.136	True	71.0	High-Low	n/a	twobytwo	71.0	0.46	blue	8.0	task_switch	magnitude	switch	stim	poldrack-single-stim	s445	0	False
284.212	1.0	285.632	0.9	2.0	True	71.0	High-Low	stay	twobytwo	71.0	0.52	blue	6.0	cue_stay	magnitude	stay	stim	poldrack-single-stim	s445	0	False
286.316	1.0	287.106	0.1	2.136	True	89.0	Orange-Blue	n/a	twobytwo	89.0	0.69	orange	3.0	task_switch	color	switch	stim	poldrack-single-stim	s445	0	False
288.558	1.0	289.517	0.1	2.816	True	89.0	Magnitude	n/a	twobytwo	89.0	0.859	orange	1.0	task_switch	magnitude	switch	stim	poldrack-single-stim	s445	0	False
291.479	1.0	292.691	0.1	2.408	True	71.0	Magnitude	stay	twobytwo	71.0	1.112	blue	9.0	cue_stay	magnitude	stay	stim	poldrack-single-stim	s445	0	False
294.791	1.0	296.208	0.9	2.0	True	89.0	Color	n/a	twobytwo	89.0	0.517	orange	2.0	task_switch	color	switch	stim	poldrack-single-stim	s445	0	False
297.694	1.0	299.122	0.9	2.136	False	71.0	Orange-Blue	switch	twobytwo	89.0	0.528	blue	1.0	cue_switch	color	stay	stim	poldrack-single-stim	s445	0	False
300.735	1.0	302.073	0.9	2.136	True	71.0	Orange-Blue	stay	twobytwo	71.0	0.438	blue	6.0	cue_stay	color	stay	stim	poldrack-single-stim	s445	0	False
303.775	1.0	305.112	0.9	2.136	False	89.0	Magnitude	n/a	twobytwo	71.0	0.437	blue	4.0	task_switch	magnitude	switch	stim	poldrack-single-stim	s445	0	False
306.015	1.0	306.731	0.1	2.544	True	71.0	Magnitude	stay	twobytwo	71.0	0.616	blue	7.0	cue_stay	magnitude	stay	stim	poldrack-single-stim	s445	0	False
308.664	1.0	309.364	0.1	2.136	True	71.0	Color	n/a	twobytwo	71.0	0.6	blue	9.0	task_switch	color	switch	stim	poldrack-single-stim	s445	0	False
311.705	1.0	313.159	0.9	2.0	True	89.0	Orange-Blue	switch	twobytwo	89.0	0.554	orange	8.0	cue_switch	color	stay	stim	poldrack-single-stim	s445	0	False
313.81	1.0	314.676	0.1	2.0	True	71.0	Color	switch	twobytwo	71.0	0.766	blue	2.0	cue_switch	color	stay	stim	poldrack-single-stim	s445	0	False
316.714	1.0	318.1	0.9	2.0	True	71.0	Magnitude	n/a	twobytwo	71.0	0.486	blue	8.0	task_switch	magnitude	switch	stim	poldrack-single-stim	s445	0	False
319.619	1.0	320.88	0.9	2.0	True	71.0	Color	n/a	twobytwo	71.0	0.361	blue	8.0	task_switch	color	switch	stim	poldrack-single-stim	s445	0	False
321.722	1.0	322.365	0.1	2.136	True	71.0	Color	stay	twobytwo	71.0	0.543	blue	7.0	cue_stay	color	stay	stim	poldrack-single-stim	s445	0	False
324.762	1.0	326.145	0.9	2.0	True	89.0	Color	stay	twobytwo	89.0	0.483	orange	6.0	cue_stay	color	stay	stim	poldrack-single-stim	s445	0	False
326.868	1.0	327.681	0.1	2.0	True	89.0	High-Low	n/a	twobytwo	89.0	0.713	blue	1.0	task_switch	magnitude	switch	stim	poldrack-single-stim	s445	0	False
329.773	1.0	331.147	0.9	2.0	True	89.0	Orange-Blue	n/a	twobytwo	89.0	0.474	orange	4.0	task_switch	color	switch	stim	poldrack-single-stim	s445	0	False
332.677	1.0	334.098	0.9	2.136	True	89.0	Magnitude	n/a	twobytwo	89.0	0.521	blue	1.0	task_switch	magnitude	switch	stim	poldrack-single-stim	s445	0	False
334.917	1.0	335.679	0.1	2.136	True	89.0	Color	n/a	twobytwo	89.0	0.662	orange	3.0	task_switch	color	switch	stim	poldrack-single-stim	s445	0	False
337.957	1.0	339.58	0.9	2.136	False	71.0	Orange-Blue	switch	twobytwo	89.0	0.723	blue	3.0	cue_switch	color	stay	stim	poldrack-single-stim	s445	0	False
340.196	1.0	340.993	0.1	2.136	True	89.0	Magnitude	n/a	twobytwo	89.0	0.697	blue	3.0	task_switch	magnitude	switch	stim	poldrack-single-stim	s445	0	False
342.436	1.0	343.326	0.1	2.68	True	71.0	Magnitude	stay	twobytwo	71.0	0.79	blue	6.0	cue_stay	magnitude	stay	stim	poldrack-single-stim	s445	0	False
346.02	1.0	347.493	0.9	2.544	True	71.0	Magnitude	stay	twobytwo	71.0	0.573	orange	8.0	cue_stay	magnitude	stay	stim	poldrack-single-stim	s445	0	False
349.469	1.0	350.853	0.9	2.272	True	89.0	Magnitude	stay	twobytwo	89.0	0.484	orange	4.0	cue_stay	magnitude	stay	stim	poldrack-single-stim	s445	0	False
351.846	1.0	352.61	0.1	2.272	True	71.0	High-Low	switch	twobytwo	71.0	0.664	orange	7.0	cue_switch	magnitude	stay	stim	poldrack-single-stim	s445	0	False
354.222	1.0	355.276	0.1	2.408	True	89.0	Orange-Blue	n/a	twobytwo	89.0	0.954	orange	9.0	task_switch	color	switch	stim	poldrack-single-stim	s445	0	False
357.535	1.0	359.224	0.9	2.136	True	89.0	High-Low	n/a	twobytwo	89.0	0.789	blue	1.0	task_switch	magnitude	switch	stim	poldrack-single-stim	s445	0	False
360.576	1.0	362.125	0.9	2.272	True	89.0	High-Low	stay	twobytwo	89.0	0.649	blue	1.0	cue_stay	magnitude	stay	stim	poldrack-single-stim	s445	0	False
363.752	1.0	365.206	0.9	2.0	True	89.0	High-Low	stay	twobytwo	89.0	0.554	blue	3.0	cue_stay	magnitude	stay	stim	poldrack-single-stim	s445	0	False
366.657	1.0	368.912	0.9	2.136	True	71.0	Color	n/a	twobytwo	71.0	1.355	blue	4.0	task_switch	color	switch	stim	poldrack-single-stim	s445	0	False
368.897	1.0	369.941	0.1	2.272	True	89.0	High-Low	n/a	twobytwo	89.0	0.944	blue	1.0	task_switch	magnitude	switch	stim	poldrack-single-stim	s445	0	False
371.273	1.0	372.042	0.1	2.0	True	71.0	High-Low	stay	twobytwo	71.0	0.669	blue	7.0	cue_stay	magnitude	stay	stim	poldrack-single-stim	s445	0	False
373.377	1.0	374.03	0.1	2.68	True	89.0	Orange-Blue	n/a	twobytwo	89.0	0.553	orange	4.0	task_switch	color	switch	stim	poldrack-single-stim	s445	0	False
376.961	1.0	378.399	0.9	2.0	True	71.0	Color	switch	twobytwo	71.0	0.538	blue	8.0	cue_switch	color	stay	stim	poldrack-single-stim	s445	0	False
379.065	1.0	380.044	0.1	2.0	True	71.0	High-Low	n/a	twobytwo	71.0	0.879	blue	7.0	task_switch	magnitude	switch	stim	poldrack-single-stim	s445	0	False
381.171	1.0	381.887	0.1	2.0	True	89.0	High-Low	stay	twobytwo	89.0	0.616	blue	4.0	cue_stay	magnitude	stay	stim	poldrack-single-stim	s445	0	False
383.276	1.0	383.962	0.1	2.272	True	89.0	Magnitude	switch	twobytwo	89.0	0.586	blue	1.0	cue_switch	magnitude	stay	stim	poldrack-single-stim	s445	0	False
385.653	1.0	386.567	0.1	2.0	False	89.0	Magnitude	stay	twobytwo	71.0	0.814	blue	2.0	cue_stay	magnitude	stay	stim	poldrack-single-stim	s445	0	False
387.758	1.0	388.507	0.1	2.0	True	89.0	Orange-Blue	n/a	twobytwo	89.0	0.649	orange	2.0	task_switch	color	switch	stim	poldrack-single-stim	s445	0	False
389.863	1.0	390.7	0.1	2.0	True	89.0	Magnitude	n/a	twobytwo	89.0	0.737	orange	4.0	task_switch	magnitude	switch	stim	poldrack-single-stim	s445	0	False
392.768	1.0	394.22	0.9	2.68	True	71.0	High-Low	switch	twobytwo	71.0	0.552	orange	6.0	cue_switch	magnitude	stay	stim	poldrack-single-stim	s445	0	False
396.351	1.0	397.953	0.9	2.0	False	89.0	Orange-Blue	n/a	twobytwo	71.0	0.702	orange	8.0	task_switch	color	switch	stim	poldrack-single-stim	s445	0	False
398.455	1.0	399.343	0.1	2.136	True	71.0	Magnitude	n/a	twobytwo	71.0	0.788	orange	8.0	task_switch	magnitude	switch	stim	poldrack-single-stim	s445	0	False
401.495	1.0	403.019	0.9	2.408	True	71.0	Magnitude	stay	twobytwo	71.0	0.624	blue	7.0	cue_stay	magnitude	stay	stim	poldrack-single-stim	s445	0	False
404.007	1.0	404.703	0.1	2.136	True	89.0	Color	n/a	twobytwo	89.0	0.596	orange	6.0	task_switch	color	switch	stim	poldrack-single-stim	s445	0	False
407.047	1.0	408.44	0.9	2.0	True	89.0	Color	stay	twobytwo	89.0	0.493	orange	2.0	cue_stay	color	stay	stim	poldrack-single-stim	s445	0	False
409.151	1.0	410.811	0.1	2.0	True	71.0	Orange-Blue	switch	twobytwo	71.0	1.56	blue	4.0	cue_switch	color	stay	stim	poldrack-single-stim	s445	0	False
412.056	1.0	413.467	0.9	2.544	True	71.0	Orange-Blue	stay	twobytwo	71.0	0.511	blue	8.0	cue_stay	color	stay	stim	poldrack-single-stim	s445	0	False
414.704	1.0	415.334	0.1	2.136	True	71.0	Orange-Blue	stay	twobytwo	71.0	0.53	blue	7.0	cue_stay	color	stay	stim	poldrack-single-stim	s445	0	False
416.944	1.0	418.157	0.1	2.544	True	89.0	Magnitude	n/a	twobytwo	89.0	1.113	blue	4.0	task_switch	magnitude	switch	stim	poldrack-single-stim	s445	0	False
419.592	1.0	420.557	0.1	2.68	True	71.0	Orange-Blue	n/a	twobytwo	71.0	0.865	blue	3.0	task_switch	color	switch	stim	poldrack-single-stim	s445	0	False
422.378	1.0	423.225	0.1	2.0	True	89.0	Orange-Blue	stay	twobytwo	89.0	0.747	orange	6.0	cue_stay	color	stay	stim	poldrack-single-stim	s445	0	False
424.483	1.0	425.749	0.1	2.272	True	71.0	Color	switch	twobytwo	71.0	1.166	blue	2.0	cue_switch	color	stay	stim	poldrack-single-stim	s445	0	False
427.661	1.0	428.999	0.9	3.088	True	89.0	Color	stay	twobytwo	89.0	0.438	orange	2.0	cue_stay	color	stay	stim	poldrack-single-stim	s445	0	False
430.854	1.0	431.568	0.1	2.0	True	71.0	Magnitude	n/a	twobytwo	71.0	0.614	orange	9.0	task_switch	magnitude	switch	stim	poldrack-single-stim	s445	0	False
433.758	1.0	435.473	0.9	2.136	True	89.0	High-Low	switch	twobytwo	89.0	0.815	blue	1.0	cue_switch	magnitude	stay	stim	poldrack-single-stim	s445	0	False
436.798	1.0	438.36	0.9	2.136	True	89.0	Magnitude	switch	twobytwo	89.0	0.662	orange	3.0	cue_switch	magnitude	stay	stim	poldrack-single-stim	s445	0	False
439.038	1.0	440.252	0.1	2.0	True	71.0	Orange-Blue	n/a	twobytwo	71.0	1.114	blue	2.0	task_switch	color	switch	stim	poldrack-single-stim	s445	0	False
441.142	1.0	441.906	0.1	2.272	True	89.0	High-Low	n/a	twobytwo	89.0	0.664	blue	1.0	task_switch	magnitude	switch	stim	poldrack-single-stim	s445	0	False
444.318	1.0	445.68	0.9	2.0	True	71.0	Color	n/a	twobytwo	71.0	0.462	blue	3.0	task_switch	color	switch	stim	poldrack-single-stim	s445	0	False
460.732	1.0	462.088	0.9	2.136	True	89.0	Color	stay	twobytwo	89.0	0.456	orange	8.0	cue_stay	color	stay	stim	poldrack-single-stim	s445	1	False
463.774	1.0	465.324	0.9	2.136	True	71.0	Magnitude	n/a	twobytwo	71.0	0.65	orange	6.0	task_switch	magnitude	switch	stim	poldrack-single-stim	s445	0	False
466.814	1.0	468.397	0.9	2.544	True	89.0	Color	n/a	twobytwo	89.0	0.683	orange	9.0	task_switch	color	switch	stim	poldrack-single-stim	s445	0	False
470.263	1.0	471.7	0.9	2.0	True	71.0	High-Low	n/a	twobytwo	71.0	0.537	blue	9.0	task_switch	magnitude	switch	stim	poldrack-single-stim	s445	0	False
472.367	1.0	472.366	0.1	2.136	False	71.0	Orange-Blue	n/a	twobytwo	-1.0	n/a	blue	2.0	task_switch	color	switch	stim	poldrack-single-stim	s445	0	False
474.607	1.0	475.445	0.1	2.136	True	89.0	Orange-Blue	stay	twobytwo	89.0	0.738	orange	8.0	cue_stay	color	stay	stim	poldrack-single-stim	s445	0	False
476.846	1.0	477.549	0.1	2.136	True	89.0	Color	switch	twobytwo	89.0	0.603	orange	3.0	cue_switch	color	stay	stim	poldrack-single-stim	s445	0	False
479.088	1.0	479.742	0.1	2.0	True	71.0	Orange-Blue	switch	twobytwo	71.0	0.554	blue	7.0	cue_switch	color	stay	stim	poldrack-single-stim	s445	0	False
481.192	1.0	481.991	0.1	2.136	True	89.0	Magnitude	n/a	twobytwo	89.0	0.699	orange	3.0	task_switch	magnitude	switch	stim	poldrack-single-stim	s445	0	False
484.232	1.0	485.563	0.9	2.0	True	71.0	Orange-Blue	n/a	twobytwo	71.0	0.431	blue	9.0	task_switch	color	switch	stim	poldrack-single-stim	s445	0	False
486.336	1.0	487.075	0.1	2.136	True	71.0	Magnitude	n/a	twobytwo	71.0	0.639	blue	8.0	task_switch	magnitude	switch	stim	poldrack-single-stim	s445	0	False
489.377	1.0	490.767	0.9	2.816	True	71.0	High-Low	switch	twobytwo	71.0	0.49	orange	9.0	cue_switch	magnitude	stay	stim	poldrack-single-stim	s445	0	False
493.098	1.0	494.596	0.9	2.136	True	89.0	Orange-Blue	n/a	twobytwo	89.0	0.598	orange	3.0	task_switch	color	switch	stim	poldrack-single-stim	s445	0	False
496.138	1.0	497.696	0.9	2.0	True	89.0	Magnitude	n/a	twobytwo	89.0	0.658	blue	3.0	task_switch	magnitude	switch	stim	poldrack-single-stim	s445	0	False
499.043	1.0	500.724	0.9	2.0	True	89.0	High-Low	switch	twobytwo	89.0	0.781	orange	2.0	cue_switch	magnitude	stay	stim	poldrack-single-stim	s445	0	False
501.147	1.0	502.282	0.1	2.272	True	89.0	Color	n/a	twobytwo	89.0	1.035	orange	9.0	task_switch	color	switch	stim	poldrack-single-stim	s445	0	False
503.523	1.0	504.49	0.1	2.0	True	89.0	Orange-Blue	switch	twobytwo	89.0	0.867	orange	6.0	cue_switch	color	stay	stim	poldrack-single-stim	s445	0	False
506.427	1.0	507.808	0.9	2.0	True	71.0	Magnitude	n/a	twobytwo	71.0	0.481	blue	8.0	task_switch	magnitude	switch	stim	poldrack-single-stim	s445	0	False
509.331	1.0	510.693	0.9	2.0	True	71.0	Color	n/a	twobytwo	71.0	0.462	blue	8.0	task_switch	color	switch	stim	poldrack-single-stim	s445	0	False
512.235	1.0	513.661	0.9	2.408	True	71.0	Color	stay	twobytwo	71.0	0.526	blue	6.0	cue_stay	color	stay	stim	poldrack-single-stim	s445	0	False
514.747	1.0	515.869	0.1	2.272	True	89.0	Magnitude	n/a	twobytwo	89.0	1.022	orange	3.0	task_switch	magnitude	switch	stim	poldrack-single-stim	s445	0	False
517.125	1.0	518.705	0.1	2.136	True	89.0	Color	n/a	twobytwo	89.0	1.48	orange	1.0	task_switch	color	switch	stim	poldrack-single-stim	s445	0	False
519.365	1.0	519.987	0.1	2.0	True	71.0	Color	stay	twobytwo	71.0	0.522	blue	9.0	cue_stay	color	stay	stim	poldrack-single-stim	s445	0	False
522.27	1.0	523.781	0.9	2.0	True	89.0	Magnitude	n/a	twobytwo	89.0	0.611	orange	2.0	task_switch	magnitude	switch	stim	poldrack-single-stim	s445	0	False
525.174	1.0	526.821	0.9	2.136	True	89.0	High-Low	switch	twobytwo	89.0	0.747	blue	1.0	cue_switch	magnitude	stay	stim	poldrack-single-stim	s445	0	False
528.214	1.0	530.127	0.9	2.0	True	71.0	High-Low	stay	twobytwo	71.0	1.013	blue	6.0	cue_stay	magnitude	stay	stim	poldrack-single-stim	s445	0	False
531.119	1.0	532.706	0.9	2.136	True	71.0	Color	n/a	twobytwo	71.0	0.687	blue	4.0	task_switch	color	switch	stim	poldrack-single-stim	s445	0	False
533.361	1.0	534.203	0.1	2.408	True	71.0	Color	stay	twobytwo	71.0	0.742	blue	7.0	cue_stay	color	stay	stim	poldrack-single-stim	s445	0	False
535.873	1.0	536.809	0.1	2.136	True	71.0	High-Low	n/a	twobytwo	71.0	0.836	blue	9.0	task_switch	magnitude	switch	stim	poldrack-single-stim	s445	0	False
538.913	1.0	540.208	0.9	2.0	True	71.0	Magnitude	switch	twobytwo	71.0	0.395	orange	8.0	cue_switch	magnitude	stay	stim	poldrack-single-stim	s445	0	False
541.018	1.0	541.792	0.1	2.136	True	89.0	High-Low	switch	twobytwo	89.0	0.674	blue	2.0	cue_switch	magnitude	stay	stim	poldrack-single-stim	s445	0	False
544.059	1.0	545.911	0.9	2.272	False	71.0	Orange-Blue	n/a	twobytwo	89.0	0.952	blue	8.0	task_switch	color	switch	stim	poldrack-single-stim	s445	0	False
547.236	1.0	548.688	0.9	2.0	True	71.0	Magnitude	n/a	twobytwo	71.0	0.552	blue	8.0	task_switch	magnitude	switch	stim	poldrack-single-stim	s445	0	False
549.34	1.0	550.759	0.1	2.408	True	71.0	Magnitude	stay	twobytwo	71.0	1.319	blue	7.0	cue_stay	magnitude	stay	stim	poldrack-single-stim	s445	0	False
552.652	1.0	554.231	0.9	2.0	True	71.0	Magnitude	stay	twobytwo	71.0	0.679	orange	6.0	cue_stay	magnitude	stay	stim	poldrack-single-stim	s445	0	False
554.757	1.0	555.563	0.1	2.136	False	71.0	Color	n/a	twobytwo	89.0	0.706	blue	1.0	task_switch	color	switch	stim	poldrack-single-stim	s445	0	False
557.799	1.0	560.032	0.9	2.408	False	89.0	Magnitude	n/a	twobytwo	71.0	1.333	orange	4.0	task_switch	magnitude	switch	stim	poldrack-single-stim	s445	0	False
561.111	1.0	562.875	0.9	2.136	True	71.0	Color	n/a	twobytwo	71.0	0.864	blue	1.0	task_switch	color	switch	stim	poldrack-single-stim	s445	0	False
563.351	1.0	564.138	0.1	2.408	True	89.0	High-Low	n/a	twobytwo	89.0	0.687	orange	3.0	task_switch	magnitude	switch	stim	poldrack-single-stim	s445	0	False
566.666	1.0	568.156	0.9	2.136	True	89.0	Magnitude	switch	twobytwo	89.0	0.59	blue	3.0	cue_switch	magnitude	stay	stim	poldrack-single-stim	s445	0	False
568.906	1.0	569.683	0.1	2.0	True	71.0	Color	n/a	twobytwo	71.0	0.677	blue	3.0	task_switch	color	switch	stim	poldrack-single-stim	s445	0	False
571.01	1.0	571.98	0.1	2.272	True	71.0	Color	stay	twobytwo	71.0	0.87	blue	6.0	cue_stay	color	stay	stim	poldrack-single-stim	s445	0	False
574.187	1.0	575.852	0.9	2.0	True	89.0	Color	stay	twobytwo	89.0	0.765	orange	8.0	cue_stay	color	stay	stim	poldrack-single-stim	s445	0	False
577.089	1.0	578.938	0.9	2.272	True	89.0	Color	stay	twobytwo	89.0	0.949	orange	4.0	cue_stay	color	stay	stim	poldrack-single-stim	s445	0	False
579.465	1.0	580.893	0.1	2.272	True	89.0	Orange-Blue	switch	twobytwo	89.0	1.328	orange	7.0	cue_switch	color	stay	stim	poldrack-single-stim	s445	0	False
581.842	1.0	582.715	0.1	2.952	True	71.0	Magnitude	n/a	twobytwo	71.0	0.773	orange	9.0	task_switch	magnitude	switch	stim	poldrack-single-stim	s445	0	False
585.698	1.0	587.295	0.9	2.68	True	71.0	Color	n/a	twobytwo	71.0	0.697	blue	1.0	task_switch	color	switch	stim	poldrack-single-stim	s445	0	False
589.282	1.0	590.774	0.9	2.136	True	71.0	Color	stay	twobytwo	71.0	0.592	blue	1.0	cue_stay	color	stay	stim	poldrack-single-stim	s445	0	False
592.323	1.0	594.461	0.9	2.272	True	71.0	Color	stay	twobytwo	71.0	1.238	blue	3.0	cue_stay	color	stay	stim	poldrack-single-stim	s445	0	False
595.499	1.0	597.331	0.9	2.272	True	89.0	Magnitude	n/a	twobytwo	89.0	0.932	blue	4.0	task_switch	magnitude	switch	stim	poldrack-single-stim	s445	0	False
597.875	1.0	598.652	0.1	2.136	True	71.0	Color	n/a	twobytwo	71.0	0.677	blue	1.0	task_switch	color	switch	stim	poldrack-single-stim	s445	0	False
600.115	1.0	601.18	0.1	2.408	True	71.0	Color	stay	twobytwo	71.0	0.965	blue	7.0	cue_stay	color	stay	stim	poldrack-single-stim	s445	0	False
602.627	1.0	603.424	0.1	2.136	True	89.0	High-Low	n/a	twobytwo	89.0	0.697	orange	4.0	task_switch	magnitude	switch	stim	poldrack-single-stim	s445	0	False
605.667	1.0	607.08	0.9	2.136	True	71.0	Magnitude	switch	twobytwo	71.0	0.513	blue	8.0	cue_switch	magnitude	stay	stim	poldrack-single-stim	s445	0	False
607.908	1.0	609.053	0.1	2.0	True	71.0	Color	n/a	twobytwo	71.0	1.045	blue	7.0	task_switch	color	switch	stim	poldrack-single-stim	s445	0	False
610.012	1.0	610.791	0.1	2.0	True	71.0	Color	stay	twobytwo	71.0	0.679	blue	4.0	cue_stay	color	stay	stim	poldrack-single-stim	s445	0	False
612.116	1.0	613.204	0.1	2.0	True	71.0	Orange-Blue	switch	twobytwo	71.0	0.988	blue	1.0	cue_switch	color	stay	stim	poldrack-single-stim	s445	0	False
614.22	1.0	614.878	0.1	2.0	True	71.0	Orange-Blue	stay	twobytwo	71.0	0.558	blue	2.0	cue_stay	color	stay	stim	poldrack-single-stim	s445	0	False
616.323	1.0	617.518	0.1	2.0	True	89.0	Magnitude	n/a	twobytwo	89.0	1.095	orange	2.0	task_switch	magnitude	switch	stim	poldrack-single-stim	s445	0	False
618.428	1.0	619.188	0.1	2.272	True	89.0	Orange-Blue	n/a	twobytwo	89.0	0.66	orange	4.0	task_switch	color	switch	stim	poldrack-single-stim	s445	0	False
621.604	1.0	623.225	0.9	2.408	True	89.0	Color	switch	twobytwo	89.0	0.721	orange	6.0	cue_switch	color	stay	stim	poldrack-single-stim	s445	0	False
624.916	1.0	626.616	0.9	2.0	False	71.0	High-Low	n/a	twobytwo	89.0	0.8	orange	8.0	task_switch	magnitude	switch	stim	poldrack-single-stim	s445	0	False
627.022	1.0	627.845	0.1	2.136	True	89.0	Orange-Blue	n/a	twobytwo	89.0	0.723	orange	8.0	task_switch	color	switch	stim	poldrack-single-stim	s445	0	False
630.063	1.0	631.564	0.9	2.0	True	71.0	Orange-Blue	stay	twobytwo	71.0	0.601	blue	7.0	cue_stay	color	stay	stim	poldrack-single-stim	s445	0	False
632.167	1.0	633.56	0.1	2.136	True	71.0	High-Low	n/a	twobytwo	71.0	1.293	orange	6.0	task_switch	magnitude	switch	stim	poldrack-single-stim	s445	0	False
635.209	1.0	636.7	0.9	2.544	True	89.0	High-Low	stay	twobytwo	89.0	0.591	orange	2.0	cue_stay	magnitude	stay	stim	poldrack-single-stim	s445	0	False
637.858	1.0	638.775	0.1	2.68	False	89.0	Magnitude	switch	twobytwo	71.0	0.817	blue	4.0	cue_switch	magnitude	stay	stim	poldrack-single-stim	s445	0	False
641.442	1.0	642.828	0.9	3.088	True	71.0	Magnitude	stay	twobytwo	71.0	0.486	blue	8.0	cue_stay	magnitude	stay	stim	poldrack-single-stim	s445	0	False
644.634	1.0	645.317	0.1	2.136	True	71.0	Magnitude	stay	twobytwo	71.0	0.583	blue	7.0	cue_stay	magnitude	stay	stim	poldrack-single-stim	s445	0	False
646.874	1.0	647.669	0.1	2.544	False	71.0	Color	n/a	twobytwo	89.0	0.695	blue	4.0	task_switch	color	switch	stim	poldrack-single-stim	s445	0	False
649.522	1.0	650.325	0.1	2.0	True	89.0	Magnitude	n/a	twobytwo	89.0	0.703	blue	3.0	task_switch	magnitude	switch	stim	poldrack-single-stim	s445	0	False
651.626	1.0	652.581	0.1	2.136	True	71.0	Magnitude	stay	twobytwo	71.0	0.855	orange	6.0	cue_stay	magnitude	stay	stim	poldrack-single-stim	s445	0	False
653.866	1.0	654.843	0.1	2.0	True	89.0	High-Low	switch	twobytwo	89.0	0.877	blue	2.0	cue_switch	magnitude	stay	stim	poldrack-single-stim	s445	0	False
656.771	1.0	658.283	0.9	2.408	False	89.0	High-Low	stay	twobytwo	71.0	0.612	orange	2.0	cue_stay	magnitude	stay	stim	poldrack-single-stim	s445	0	False
659.284	1.0	660.174	0.1	2.0	True	89.0	Color	n/a	twobytwo	89.0	0.79	orange	9.0	task_switch	color	switch	stim	poldrack-single-stim	s445	0	False
662.189	1.0	663.535	0.9	2.0	True	71.0	Orange-Blue	switch	twobytwo	71.0	0.446	blue	1.0	cue_switch	color	stay	stim	poldrack-single-stim	s445	0	False
665.094	1.0	666.564	0.9	2.0	True	89.0	Color	switch	twobytwo	89.0	0.57	orange	3.0	cue_switch	color	stay	stim	poldrack-single-stim	s445	0	False
667.199	1.0	668.043	0.1	2.68	True	89.0	Magnitude	n/a	twobytwo	89.0	0.744	blue	2.0	task_switch	magnitude	switch	stim	poldrack-single-stim	s445	0	False
669.985	1.0	670.801	0.1	2.272	True	71.0	Orange-Blue	n/a	twobytwo	71.0	0.716	blue	1.0	task_switch	color	switch	stim	poldrack-single-stim	s445	0	False
673.161	1.0	674.575	0.9	2.408	True	89.0	High-Low	n/a	twobytwo	89.0	0.514	blue	3.0	task_switch	magnitude	switch	stim	poldrack-single-stim	s445	0	False
