onset	duration	movement_onset	block_duration	condition	correct	correct_response	experiment_exp_id	key_press	response_time	trial_id	trial_type	worker_id	junk
3.008	0.5	3.007	0.5	BY	n/a	n/a	dot_pattern_expectancy	-1.0	n/a	cue	BY	s445	False
5.512	0.5	6.707	1.636	BY	1.0	71.0	dot_pattern_expectancy	71.0	1.195	probe	BY	s445	False
7.152	0.5	7.151	0.5	AY	n/a	n/a	dot_pattern_expectancy	-1.0	n/a	cue	AY	s445	False
9.656	0.5	10.319	1.5	AY	1.0	71.0	dot_pattern_expectancy	71.0	0.663	probe	AY	s445	False
11.158	0.5	11.157	0.5	AX	n/a	n/a	dot_pattern_expectancy	-1.0	n/a	cue	AX	s445	False
13.662	0.5	14.181	2.044	AX	1.0	89.0	dot_pattern_expectancy	89.0	0.519	probe	AX	s445	False
15.708	0.5	15.707	0.5	BY	n/a	n/a	dot_pattern_expectancy	-1.0	n/a	cue	BY	s445	False
18.213	0.5	18.641	1.772	BY	1.0	71.0	dot_pattern_expectancy	71.0	0.428	probe	BY	s445	False
19.988	0.5	19.987	0.5	BX	n/a	n/a	dot_pattern_expectancy	-1.0	n/a	cue	BX	s445	False
22.491	0.5	22.977	1.636	BX	1.0	71.0	dot_pattern_expectancy	71.0	0.486	probe	BX	s445	False
24.13	0.5	24.129	0.5	AX	n/a	n/a	dot_pattern_expectancy	-1.0	n/a	cue	AX	s445	False
26.635	0.5	27.079	1.636	AX	1.0	89.0	dot_pattern_expectancy	89.0	0.444	probe	AX	s445	False
28.273	0.5	28.272	0.5	AX	n/a	n/a	dot_pattern_expectancy	-1.0	n/a	cue	AX	s445	False
30.777	0.5	31.285	1.5	AX	1.0	89.0	dot_pattern_expectancy	89.0	0.508	probe	AX	s445	False
32.279	0.5	32.278	0.5	AX	n/a	n/a	dot_pattern_expectancy	-1.0	n/a	cue	AX	s445	False
34.784	0.5	35.229	1.5	AX	1.0	89.0	dot_pattern_expectancy	89.0	0.445	probe	AX	s445	False
36.287	0.5	36.286	0.5	AY	n/a	n/a	dot_pattern_expectancy	-1.0	n/a	cue	AY	s445	False
38.791	0.5	39.326	2.044	AY	1.0	71.0	dot_pattern_expectancy	71.0	0.535	probe	AY	s445	False
40.839	0.5	40.838	0.5	AX	n/a	n/a	dot_pattern_expectancy	-1.0	n/a	cue	AX	s445	False
43.343	0.5	43.999	2.452	AX	1.0	89.0	dot_pattern_expectancy	89.0	0.656	probe	AX	s445	False
45.798	0.5	45.797	0.5	AX	n/a	n/a	dot_pattern_expectancy	-1.0	n/a	cue	AX	s445	False
48.301	0.5	48.727	1.908	AX	1.0	89.0	dot_pattern_expectancy	89.0	0.426	probe	AX	s445	False
50.212	0.5	50.211	0.5	AX	n/a	n/a	dot_pattern_expectancy	-1.0	n/a	cue	AX	s445	False
52.717	0.5	53.137	1.5	AX	1.0	89.0	dot_pattern_expectancy	89.0	0.42	probe	AX	s445	False
54.22	0.5	54.219	0.5	AX	n/a	n/a	dot_pattern_expectancy	-1.0	n/a	cue	AX	s445	False
56.724	0.5	57.229	1.908	AX	1.0	89.0	dot_pattern_expectancy	89.0	0.505	probe	AX	s445	False
58.636	0.5	58.635	0.5	BX	n/a	n/a	dot_pattern_expectancy	-1.0	n/a	cue	BX	s445	False
61.141	0.5	61.549	2.18	BX	1.0	71.0	dot_pattern_expectancy	71.0	0.408	probe	BX	s445	False
63.324	0.5	63.323	0.5	AX	n/a	n/a	dot_pattern_expectancy	-1.0	n/a	cue	AX	s445	False
65.829	0.5	66.623	1.5	AX	1.0	89.0	dot_pattern_expectancy	89.0	0.794	probe	AX	s445	False
67.331	0.5	67.33	0.5	BY	n/a	n/a	dot_pattern_expectancy	-1.0	n/a	cue	BY	s445	False
69.837	0.5	70.528	1.908	BY	1.0	71.0	dot_pattern_expectancy	71.0	0.691	probe	BY	s445	False
71.748	0.5	71.747	0.5	BX	n/a	n/a	dot_pattern_expectancy	-1.0	n/a	cue	BX	s445	False
74.252	0.5	74.714	2.316	BX	1.0	71.0	dot_pattern_expectancy	71.0	0.462	probe	BX	s445	False
76.571	0.5	76.57	0.5	AY	n/a	n/a	dot_pattern_expectancy	-1.0	n/a	cue	AY	s445	False
79.075	0.5	79.074	2.316	AY	0.0	71.0	dot_pattern_expectancy	-1.0	n/a	probe	AY	s445	False
81.394	0.5	81.393	0.5	BX	n/a	n/a	dot_pattern_expectancy	-1.0	n/a	cue	BX	s445	False
83.899	0.5	84.275	1.636	BX	1.0	71.0	dot_pattern_expectancy	71.0	0.376	probe	BX	s445	False
85.538	0.5	85.537	0.5	AY	n/a	n/a	dot_pattern_expectancy	-1.0	n/a	cue	AY	s445	False
88.042	0.5	88.475	1.5	AY	1.0	71.0	dot_pattern_expectancy	71.0	0.433	probe	AY	s445	False
89.544	0.5	89.543	0.5	BY	n/a	n/a	dot_pattern_expectancy	-1.0	n/a	cue	BY	s445	False
92.049	0.5	92.431	1.908	BY	1.0	71.0	dot_pattern_expectancy	71.0	0.382	probe	BY	s445	False
93.96	0.5	93.959	0.5	AX	n/a	n/a	dot_pattern_expectancy	-1.0	n/a	cue	AX	s445	False
96.464	0.5	96.832	1.5	AX	1.0	89.0	dot_pattern_expectancy	89.0	0.368	probe	AX	s445	False
97.967	0.5	97.966	0.5	AY	n/a	n/a	dot_pattern_expectancy	-1.0	n/a	cue	AY	s445	False
100.474	0.5	101.083	2.316	AY	1.0	71.0	dot_pattern_expectancy	71.0	0.609	probe	AY	s445	False
102.792	0.5	102.791	0.5	AX	n/a	n/a	dot_pattern_expectancy	-1.0	n/a	cue	AX	s445	False
105.296	0.5	105.742	1.5	AX	1.0	89.0	dot_pattern_expectancy	89.0	0.446	probe	AX	s445	False
106.798	0.5	106.797	0.5	AY	n/a	n/a	dot_pattern_expectancy	-1.0	n/a	cue	AY	s445	False
109.302	0.5	109.953	2.724	AY	1.0	71.0	dot_pattern_expectancy	71.0	0.651	probe	AY	s445	False
112.029	0.5	112.028	0.5	AX	n/a	n/a	dot_pattern_expectancy	-1.0	n/a	cue	AX	s445	False
114.533	0.5	115.065	1.5	AX	1.0	89.0	dot_pattern_expectancy	89.0	0.532	probe	AX	s445	False
116.035	0.5	116.034	0.5	AX	n/a	n/a	dot_pattern_expectancy	-1.0	n/a	cue	AX	s445	False
118.539	0.5	119.059	1.636	AX	1.0	89.0	dot_pattern_expectancy	89.0	0.52	probe	AX	s445	False
120.179	0.5	120.178	0.5	AX	n/a	n/a	dot_pattern_expectancy	-1.0	n/a	cue	AX	s445	False
122.683	0.5	123.148	1.636	AX	1.0	89.0	dot_pattern_expectancy	89.0	0.465	probe	AX	s445	False
124.321	0.5	124.32	0.5	AX	n/a	n/a	dot_pattern_expectancy	-1.0	n/a	cue	AX	s445	False
126.826	0.5	127.5	1.772	AX	1.0	89.0	dot_pattern_expectancy	89.0	0.674	probe	AX	s445	False
128.601	0.5	128.6	0.5	BY	n/a	n/a	dot_pattern_expectancy	-1.0	n/a	cue	BY	s445	False
131.105	0.5	131.104	1.772	BY	0.0	71.0	dot_pattern_expectancy	-1.0	n/a	probe	BY	s445	False
132.88	0.5	132.879	0.5	AX	n/a	n/a	dot_pattern_expectancy	-1.0	n/a	cue	AX	s445	False
135.384	0.5	135.772	1.5	AX	1.0	89.0	dot_pattern_expectancy	89.0	0.388	probe	AX	s445	False
136.887	0.5	136.886	0.5	BY	n/a	n/a	dot_pattern_expectancy	-1.0	n/a	cue	BY	s445	False
139.391	0.5	139.765	2.452	BY	1.0	71.0	dot_pattern_expectancy	71.0	0.374	probe	BY	s445	False
141.844	0.5	141.843	0.5	AX	n/a	n/a	dot_pattern_expectancy	-1.0	n/a	cue	AX	s445	False
144.349	0.5	144.767	1.636	AX	1.0	89.0	dot_pattern_expectancy	89.0	0.418	probe	AX	s445	False
145.988	0.5	145.987	0.5	AX	n/a	n/a	dot_pattern_expectancy	-1.0	n/a	cue	AX	s445	False
148.492	0.5	149.169	1.636	AX	1.0	89.0	dot_pattern_expectancy	89.0	0.677	probe	AX	s445	False
150.131	0.5	150.13	0.5	BX	n/a	n/a	dot_pattern_expectancy	-1.0	n/a	cue	BX	s445	False
152.635	0.5	153.051	1.5	BX	1.0	71.0	dot_pattern_expectancy	71.0	0.416	probe	BX	s445	False
154.138	0.5	154.137	0.5	BX	n/a	n/a	dot_pattern_expectancy	-1.0	n/a	cue	BX	s445	False
156.642	0.5	157.013	1.5	BX	1.0	71.0	dot_pattern_expectancy	71.0	0.371	probe	BX	s445	False
158.144	0.5	158.143	0.5	AX	n/a	n/a	dot_pattern_expectancy	-1.0	n/a	cue	AX	s445	False
160.65	0.5	161.047	2.316	AX	0.0	89.0	dot_pattern_expectancy	71.0	0.397	probe	AX	s445	False
162.969	0.5	162.968	0.5	AY	n/a	n/a	dot_pattern_expectancy	-1.0	n/a	cue	AY	s445	False
165.474	0.5	166.237	2.044	AY	1.0	71.0	dot_pattern_expectancy	71.0	0.763	probe	AY	s445	False
167.52	0.5	167.519	0.5	AX	n/a	n/a	dot_pattern_expectancy	-1.0	n/a	cue	AX	s445	False
170.023	0.5	170.469	3.948	AX	1.0	89.0	dot_pattern_expectancy	89.0	0.446	probe	AX	s445	False
173.973	0.5	173.972	0.5	AX	n/a	n/a	dot_pattern_expectancy	-1.0	n/a	cue	AX	s445	False
176.477	0.5	176.896	1.636	AX	1.0	89.0	dot_pattern_expectancy	89.0	0.419	probe	AX	s445	False
188.623	0.5	188.622	0.5	AY	n/a	n/a	dot_pattern_expectancy	-1.0	n/a	cue	AY	s445	False
191.125	0.5	191.747	1.636	AY	1.0	71.0	dot_pattern_expectancy	71.0	0.622	probe	AY	s445	False
192.763	0.5	192.762	0.5	AX	n/a	n/a	dot_pattern_expectancy	-1.0	n/a	cue	AX	s445	False
195.268	0.5	195.58	1.636	AX	1.0	89.0	dot_pattern_expectancy	89.0	0.312	probe	AX	s445	False
196.907	0.5	196.906	0.5	AX	n/a	n/a	dot_pattern_expectancy	-1.0	n/a	cue	AX	s445	False
199.411	0.5	199.774	1.5	AX	1.0	89.0	dot_pattern_expectancy	89.0	0.363	probe	AX	s445	False
200.913	0.5	200.912	0.5	AX	n/a	n/a	dot_pattern_expectancy	-1.0	n/a	cue	AX	s445	False
203.417	0.5	203.851	1.5	AX	1.0	89.0	dot_pattern_expectancy	89.0	0.434	probe	AX	s445	False
204.918	0.5	204.917	0.5	AX	n/a	n/a	dot_pattern_expectancy	-1.0	n/a	cue	AX	s445	False
207.422	0.5	207.819	1.908	AX	1.0	89.0	dot_pattern_expectancy	89.0	0.397	probe	AX	s445	False
209.332	0.5	209.331	0.5	BX	n/a	n/a	dot_pattern_expectancy	-1.0	n/a	cue	BX	s445	False
211.836	0.5	212.106	1.636	BX	1.0	71.0	dot_pattern_expectancy	71.0	0.27	probe	BX	s445	False
213.475	0.5	213.474	0.5	AX	n/a	n/a	dot_pattern_expectancy	-1.0	n/a	cue	AX	s445	False
215.979	0.5	216.398	2.044	AX	1.0	89.0	dot_pattern_expectancy	89.0	0.419	probe	AX	s445	False
218.026	0.5	218.025	0.5	AX	n/a	n/a	dot_pattern_expectancy	-1.0	n/a	cue	AX	s445	False
220.53	0.5	220.978	1.772	AX	0.0	89.0	dot_pattern_expectancy	71.0	0.448	probe	AX	s445	False
222.305	0.5	222.304	0.5	AX	n/a	n/a	dot_pattern_expectancy	-1.0	n/a	cue	AX	s445	False
224.809	0.5	225.233	1.5	AX	1.0	89.0	dot_pattern_expectancy	89.0	0.424	probe	AX	s445	False
226.313	0.5	226.312	0.5	AX	n/a	n/a	dot_pattern_expectancy	-1.0	n/a	cue	AX	s445	False
228.817	0.5	229.308	2.18	AX	1.0	89.0	dot_pattern_expectancy	89.0	0.491	probe	AX	s445	False
231.0	0.5	230.999	0.5	AX	n/a	n/a	dot_pattern_expectancy	-1.0	n/a	cue	AX	s445	False
233.504	0.5	233.979	1.5	AX	1.0	89.0	dot_pattern_expectancy	89.0	0.475	probe	AX	s445	False
235.007	0.5	235.006	0.5	BX	n/a	n/a	dot_pattern_expectancy	-1.0	n/a	cue	BX	s445	False
237.512	0.5	237.892	3.676	BX	1.0	71.0	dot_pattern_expectancy	71.0	0.38	probe	BX	s445	False
241.191	0.5	241.19	0.5	BY	n/a	n/a	dot_pattern_expectancy	-1.0	n/a	cue	BY	s445	False
243.696	0.5	244.063	1.636	BY	1.0	71.0	dot_pattern_expectancy	71.0	0.367	probe	BY	s445	False
245.335	0.5	245.334	0.5	BY	n/a	n/a	dot_pattern_expectancy	-1.0	n/a	cue	BY	s445	False
247.84	0.5	247.839	1.636	BY	0.0	71.0	dot_pattern_expectancy	-1.0	n/a	probe	BY	s445	False
249.479	0.5	249.478	0.5	BX	n/a	n/a	dot_pattern_expectancy	-1.0	n/a	cue	BX	s445	False
251.984	0.5	251.983	1.5	BX	0.0	71.0	dot_pattern_expectancy	-1.0	n/a	probe	BX	s445	False
253.488	0.5	253.487	0.5	AX	n/a	n/a	dot_pattern_expectancy	-1.0	n/a	cue	AX	s445	False
255.991	0.5	256.408	1.908	AX	1.0	89.0	dot_pattern_expectancy	89.0	0.417	probe	AX	s445	False
257.902	0.5	257.901	0.5	AX	n/a	n/a	dot_pattern_expectancy	-1.0	n/a	cue	AX	s445	False
260.406	0.5	260.831	1.636	AX	1.0	89.0	dot_pattern_expectancy	89.0	0.425	probe	AX	s445	False
262.045	0.5	262.044	0.5	BX	n/a	n/a	dot_pattern_expectancy	-1.0	n/a	cue	BX	s445	False
264.549	0.5	264.888	1.5	BX	1.0	71.0	dot_pattern_expectancy	71.0	0.339	probe	BX	s445	False
266.051	0.5	266.05	0.5	AX	n/a	n/a	dot_pattern_expectancy	-1.0	n/a	cue	AX	s445	False
268.555	0.5	268.98	1.908	AX	1.0	89.0	dot_pattern_expectancy	89.0	0.425	probe	AX	s445	False
270.467	0.5	270.466	0.5	BY	n/a	n/a	dot_pattern_expectancy	-1.0	n/a	cue	BY	s445	False
272.971	0.5	273.117	2.18	BY	1.0	71.0	dot_pattern_expectancy	71.0	0.146	probe	BY	s445	False
275.154	0.5	275.153	0.5	AX	n/a	n/a	dot_pattern_expectancy	-1.0	n/a	cue	AX	s445	False
277.659	0.5	278.365	1.772	AX	1.0	89.0	dot_pattern_expectancy	89.0	0.706	probe	AX	s445	False
279.432	0.5	279.431	0.5	AX	n/a	n/a	dot_pattern_expectancy	-1.0	n/a	cue	AX	s445	False
281.936	0.5	282.575	1.5	AX	1.0	89.0	dot_pattern_expectancy	89.0	0.639	probe	AX	s445	False
283.439	0.5	283.438	0.5	AX	n/a	n/a	dot_pattern_expectancy	-1.0	n/a	cue	AX	s445	False
285.943	0.5	286.985	1.5	AX	1.0	89.0	dot_pattern_expectancy	89.0	1.042	probe	AX	s445	False
287.448	0.5	287.447	0.5	AX	n/a	n/a	dot_pattern_expectancy	-1.0	n/a	cue	AX	s445	False
289.951	0.5	290.361	2.044	AX	1.0	89.0	dot_pattern_expectancy	89.0	0.41	probe	AX	s445	False
291.998	0.5	291.997	0.5	AX	n/a	n/a	dot_pattern_expectancy	-1.0	n/a	cue	AX	s445	False
294.502	0.5	295.06	2.86	AX	1.0	89.0	dot_pattern_expectancy	89.0	0.558	probe	AX	s445	False
297.365	0.5	297.364	0.5	BX	n/a	n/a	dot_pattern_expectancy	-1.0	n/a	cue	BX	s445	False
299.869	0.5	300.29	1.5	BX	1.0	71.0	dot_pattern_expectancy	71.0	0.421	probe	BX	s445	False
301.372	0.5	301.371	0.5	BY	n/a	n/a	dot_pattern_expectancy	-1.0	n/a	cue	BY	s445	False
303.876	0.5	304.295	1.772	BY	1.0	71.0	dot_pattern_expectancy	71.0	0.419	probe	BY	s445	False
305.651	0.5	305.65	0.5	AX	n/a	n/a	dot_pattern_expectancy	-1.0	n/a	cue	AX	s445	False
308.156	0.5	308.155	1.772	AX	0.0	89.0	dot_pattern_expectancy	-1.0	n/a	probe	AX	s445	False
309.929	0.5	309.928	0.5	AX	n/a	n/a	dot_pattern_expectancy	-1.0	n/a	cue	AX	s445	False
312.433	0.5	312.815	2.86	AX	1.0	89.0	dot_pattern_expectancy	89.0	0.382	probe	AX	s445	False
315.295	0.5	315.294	0.5	AX	n/a	n/a	dot_pattern_expectancy	-1.0	n/a	cue	AX	s445	False
317.799	0.5	318.255	1.772	AX	1.0	89.0	dot_pattern_expectancy	89.0	0.456	probe	AX	s445	False
319.573	0.5	319.572	0.5	BX	n/a	n/a	dot_pattern_expectancy	-1.0	n/a	cue	BX	s445	False
322.078	0.5	322.077	1.636	BX	0.0	71.0	dot_pattern_expectancy	-1.0	n/a	probe	BX	s445	False
323.716	0.5	323.715	0.5	BX	n/a	n/a	dot_pattern_expectancy	-1.0	n/a	cue	BX	s445	False
326.221	0.5	326.628	2.452	BX	1.0	71.0	dot_pattern_expectancy	71.0	0.407	probe	BX	s445	False
328.676	0.5	328.675	0.5	AX	n/a	n/a	dot_pattern_expectancy	-1.0	n/a	cue	AX	s445	False
331.18	0.5	331.592	1.636	AX	1.0	89.0	dot_pattern_expectancy	89.0	0.412	probe	AX	s445	False
332.819	0.5	332.818	0.5	BX	n/a	n/a	dot_pattern_expectancy	-1.0	n/a	cue	BX	s445	False
335.323	0.5	335.637	1.5	BX	1.0	71.0	dot_pattern_expectancy	71.0	0.314	probe	BX	s445	False
336.826	0.5	336.825	0.5	AX	n/a	n/a	dot_pattern_expectancy	-1.0	n/a	cue	AX	s445	False
339.33	0.5	339.74	1.636	AX	1.0	89.0	dot_pattern_expectancy	89.0	0.41	probe	AX	s445	False
340.97	0.5	340.969	0.5	AX	n/a	n/a	dot_pattern_expectancy	-1.0	n/a	cue	AX	s445	False
343.474	0.5	343.954	1.636	AX	1.0	89.0	dot_pattern_expectancy	89.0	0.48	probe	AX	s445	False
345.113	0.5	345.112	0.5	BY	n/a	n/a	dot_pattern_expectancy	-1.0	n/a	cue	BY	s445	False
347.616	0.5	347.995	2.18	BY	1.0	71.0	dot_pattern_expectancy	71.0	0.379	probe	BY	s445	False
349.799	0.5	349.798	0.5	AX	n/a	n/a	dot_pattern_expectancy	-1.0	n/a	cue	AX	s445	False
352.304	0.5	353.204	1.5	AX	1.0	89.0	dot_pattern_expectancy	89.0	0.9	probe	AX	s445	False
353.806	0.5	353.805	0.5	AY	n/a	n/a	dot_pattern_expectancy	-1.0	n/a	cue	AY	s445	False
356.309	0.5	356.858	1.636	AY	1.0	71.0	dot_pattern_expectancy	71.0	0.549	probe	AY	s445	False
357.947	0.5	357.946	0.5	AX	n/a	n/a	dot_pattern_expectancy	-1.0	n/a	cue	AX	s445	False
360.451	0.5	361.155	1.636	AX	1.0	89.0	dot_pattern_expectancy	89.0	0.704	probe	AX	s445	False
372.598	0.5	372.597	0.5	AX	n/a	n/a	dot_pattern_expectancy	-1.0	n/a	cue	AX	s445	False
375.102	0.5	375.501	2.18	AX	1.0	89.0	dot_pattern_expectancy	89.0	0.399	probe	AX	s445	False
377.285	0.5	377.284	0.5	AY	n/a	n/a	dot_pattern_expectancy	-1.0	n/a	cue	AY	s445	False
379.788	0.5	380.463	2.316	AY	1.0	71.0	dot_pattern_expectancy	71.0	0.675	probe	AY	s445	False
382.107	0.5	382.106	0.5	AY	n/a	n/a	dot_pattern_expectancy	-1.0	n/a	cue	AY	s445	False
384.611	0.5	385.31	1.636	AY	1.0	71.0	dot_pattern_expectancy	71.0	0.699	probe	AY	s445	False
386.251	0.5	386.25	0.5	BX	n/a	n/a	dot_pattern_expectancy	-1.0	n/a	cue	BX	s445	False
388.755	0.5	389.469	1.908	BX	0.0	71.0	dot_pattern_expectancy	89.0	0.714	probe	BX	s445	False
390.667	0.5	390.666	0.5	AX	n/a	n/a	dot_pattern_expectancy	-1.0	n/a	cue	AX	s445	False
393.171	0.5	393.579	3.54	AX	1.0	89.0	dot_pattern_expectancy	89.0	0.408	probe	AX	s445	False
396.714	0.5	396.713	0.5	BX	n/a	n/a	dot_pattern_expectancy	-1.0	n/a	cue	BX	s445	False
399.217	0.5	399.625	1.636	BX	1.0	71.0	dot_pattern_expectancy	71.0	0.408	probe	BX	s445	False
400.855	0.5	400.854	0.5	BY	n/a	n/a	dot_pattern_expectancy	-1.0	n/a	cue	BY	s445	False
403.359	0.5	403.688	1.5	BY	1.0	71.0	dot_pattern_expectancy	71.0	0.329	probe	BY	s445	False
404.861	0.5	404.86	0.5	AX	n/a	n/a	dot_pattern_expectancy	-1.0	n/a	cue	AX	s445	False
407.366	0.5	407.898	1.5	AX	1.0	89.0	dot_pattern_expectancy	89.0	0.532	probe	AX	s445	False
408.869	0.5	408.868	0.5	AX	n/a	n/a	dot_pattern_expectancy	-1.0	n/a	cue	AX	s445	False
411.373	0.5	411.852	1.772	AX	1.0	89.0	dot_pattern_expectancy	89.0	0.479	probe	AX	s445	False
413.148	0.5	413.147	0.5	BY	n/a	n/a	dot_pattern_expectancy	-1.0	n/a	cue	BY	s445	False
415.652	0.5	416.228	2.452	BY	1.0	71.0	dot_pattern_expectancy	71.0	0.576	probe	BY	s445	False
418.108	0.5	418.107	0.5	AX	n/a	n/a	dot_pattern_expectancy	-1.0	n/a	cue	AX	s445	False
420.612	0.5	421.362	1.908	AX	1.0	89.0	dot_pattern_expectancy	89.0	0.75	probe	AX	s445	False
422.523	0.5	422.522	0.5	BX	n/a	n/a	dot_pattern_expectancy	-1.0	n/a	cue	BX	s445	False
425.027	0.5	425.026	1.636	BX	0.0	71.0	dot_pattern_expectancy	-1.0	n/a	probe	BX	s445	False
426.666	0.5	426.665	0.5	AX	n/a	n/a	dot_pattern_expectancy	-1.0	n/a	cue	AX	s445	False
429.171	0.5	429.601	1.5	AX	1.0	89.0	dot_pattern_expectancy	89.0	0.43	probe	AX	s445	False
430.674	0.5	430.673	0.5	AX	n/a	n/a	dot_pattern_expectancy	-1.0	n/a	cue	AX	s445	False
433.178	0.5	433.684	1.636	AX	1.0	89.0	dot_pattern_expectancy	89.0	0.506	probe	AX	s445	False
434.817	0.5	434.816	0.5	AX	n/a	n/a	dot_pattern_expectancy	-1.0	n/a	cue	AX	s445	False
437.322	0.5	437.321	1.636	AX	0.0	89.0	dot_pattern_expectancy	-1.0	n/a	probe	AX	s445	False
438.962	0.5	438.961	0.5	BY	n/a	n/a	dot_pattern_expectancy	-1.0	n/a	cue	BY	s445	False
441.466	0.5	441.815	2.452	BY	1.0	71.0	dot_pattern_expectancy	71.0	0.349	probe	BY	s445	False
443.921	0.5	443.92	0.5	AX	n/a	n/a	dot_pattern_expectancy	-1.0	n/a	cue	AX	s445	False
446.425	0.5	447.269	1.5	AX	1.0	89.0	dot_pattern_expectancy	89.0	0.844	probe	AX	s445	False
447.928	0.5	447.927	0.5	BY	n/a	n/a	dot_pattern_expectancy	-1.0	n/a	cue	BY	s445	False
450.432	0.5	450.776	1.5	BY	1.0	71.0	dot_pattern_expectancy	71.0	0.344	probe	BY	s445	False
451.934	0.5	451.933	0.5	AX	n/a	n/a	dot_pattern_expectancy	-1.0	n/a	cue	AX	s445	False
454.438	0.5	454.852	1.636	AX	1.0	89.0	dot_pattern_expectancy	89.0	0.414	probe	AX	s445	False
456.077	0.5	456.076	0.5	AX	n/a	n/a	dot_pattern_expectancy	-1.0	n/a	cue	AX	s445	False
458.582	0.5	459.141	1.636	AX	1.0	89.0	dot_pattern_expectancy	89.0	0.559	probe	AX	s445	False
460.221	0.5	460.22	0.5	AY	n/a	n/a	dot_pattern_expectancy	-1.0	n/a	cue	AY	s445	False
462.726	0.5	463.483	1.636	AY	0.0	71.0	dot_pattern_expectancy	89.0	0.757	probe	AY	s445	False
464.365	0.5	464.364	0.5	AX	n/a	n/a	dot_pattern_expectancy	-1.0	n/a	cue	AX	s445	False
466.87	0.5	466.869	1.5	AX	0.0	89.0	dot_pattern_expectancy	-1.0	n/a	probe	AX	s445	False
468.371	0.5	468.37	0.5	AX	n/a	n/a	dot_pattern_expectancy	-1.0	n/a	cue	AX	s445	False
470.875	0.5	470.874	1.5	AX	0.0	89.0	dot_pattern_expectancy	-1.0	n/a	probe	AX	s445	False
472.378	0.5	472.377	0.5	AX	n/a	n/a	dot_pattern_expectancy	-1.0	n/a	cue	AX	s445	False
474.881	0.5	475.321	1.772	AX	1.0	89.0	dot_pattern_expectancy	89.0	0.44	probe	AX	s445	False
476.654	0.5	476.653	0.5	AX	n/a	n/a	dot_pattern_expectancy	-1.0	n/a	cue	AX	s445	False
479.159	0.5	479.71	2.18	AX	1.0	89.0	dot_pattern_expectancy	89.0	0.551	probe	AX	s445	False
481.342	0.5	481.341	0.5	BX	n/a	n/a	dot_pattern_expectancy	-1.0	n/a	cue	BX	s445	False
483.846	0.5	483.845	1.772	BX	0.0	71.0	dot_pattern_expectancy	-1.0	n/a	probe	BX	s445	False
485.621	0.5	485.62	0.5	BY	n/a	n/a	dot_pattern_expectancy	-1.0	n/a	cue	BY	s445	False
488.125	0.5	488.48	1.5	BY	1.0	71.0	dot_pattern_expectancy	71.0	0.355	probe	BY	s445	False
489.629	0.5	489.628	0.5	AX	n/a	n/a	dot_pattern_expectancy	-1.0	n/a	cue	AX	s445	False
492.133	0.5	492.656	1.5	AX	1.0	89.0	dot_pattern_expectancy	89.0	0.523	probe	AX	s445	False
493.636	0.5	493.635	0.5	AX	n/a	n/a	dot_pattern_expectancy	-1.0	n/a	cue	AX	s445	False
496.141	0.5	496.731	1.636	AX	1.0	89.0	dot_pattern_expectancy	89.0	0.59	probe	AX	s445	False
497.78	0.5	497.779	0.5	AY	n/a	n/a	dot_pattern_expectancy	-1.0	n/a	cue	AY	s445	False
500.284	0.5	501.11	2.18	AY	1.0	71.0	dot_pattern_expectancy	71.0	0.826	probe	AY	s445	False
502.467	0.5	502.466	0.5	AY	n/a	n/a	dot_pattern_expectancy	-1.0	n/a	cue	AY	s445	False
504.971	0.5	505.557	2.316	AY	1.0	71.0	dot_pattern_expectancy	71.0	0.586	probe	AY	s445	False
507.29	0.5	507.289	0.5	BX	n/a	n/a	dot_pattern_expectancy	-1.0	n/a	cue	BX	s445	False
509.794	0.5	510.432	1.636	BX	1.0	71.0	dot_pattern_expectancy	71.0	0.638	probe	BX	s445	False
511.433	0.5	511.432	0.5	BX	n/a	n/a	dot_pattern_expectancy	-1.0	n/a	cue	BX	s445	False
513.937	0.5	514.659	2.18	BX	1.0	71.0	dot_pattern_expectancy	71.0	0.722	probe	BX	s445	False
516.12	0.5	516.119	0.5	AY	n/a	n/a	dot_pattern_expectancy	-1.0	n/a	cue	AY	s445	False
518.625	0.5	519.273	2.044	AY	1.0	71.0	dot_pattern_expectancy	71.0	0.648	probe	AY	s445	False
520.672	0.5	520.671	0.5	AX	n/a	n/a	dot_pattern_expectancy	-1.0	n/a	cue	AX	s445	False
523.176	0.5	523.175	1.772	AX	0.0	89.0	dot_pattern_expectancy	-1.0	n/a	probe	AX	s445	False
524.95	0.5	524.949	0.5	AX	n/a	n/a	dot_pattern_expectancy	-1.0	n/a	cue	AX	s445	False
527.455	0.5	527.911	1.5	AX	1.0	89.0	dot_pattern_expectancy	89.0	0.456	probe	AX	s445	False
528.957	0.5	528.956	0.5	AX	n/a	n/a	dot_pattern_expectancy	-1.0	n/a	cue	AX	s445	False
531.461	0.5	531.946	2.18	AX	1.0	89.0	dot_pattern_expectancy	89.0	0.485	probe	AX	s445	False
533.644	0.5	533.643	0.5	AY	n/a	n/a	dot_pattern_expectancy	-1.0	n/a	cue	AY	s445	False
536.149	0.5	536.148	2.452	AY	0.0	71.0	dot_pattern_expectancy	-1.0	n/a	probe	AY	s445	False
538.603	0.5	538.602	0.5	AX	n/a	n/a	dot_pattern_expectancy	-1.0	n/a	cue	AX	s445	False
541.109	0.5	541.525	1.636	AX	1.0	89.0	dot_pattern_expectancy	89.0	0.416	probe	AX	s445	False
542.747	0.5	542.746	0.5	AX	n/a	n/a	dot_pattern_expectancy	-1.0	n/a	cue	AX	s445	False
545.252	0.5	545.715	1.908	AX	1.0	89.0	dot_pattern_expectancy	89.0	0.463	probe	AX	s445	False
557.67	0.5	557.669	0.5	AX	n/a	n/a	dot_pattern_expectancy	-1.0	n/a	cue	AX	s445	False
560.174	0.5	560.633	1.772	AX	1.0	89.0	dot_pattern_expectancy	89.0	0.459	probe	AX	s445	False
561.949	0.5	561.948	0.5	AX	n/a	n/a	dot_pattern_expectancy	-1.0	n/a	cue	AX	s445	False
564.454	0.5	564.871	1.5	AX	1.0	89.0	dot_pattern_expectancy	89.0	0.417	probe	AX	s445	False
565.957	0.5	565.956	0.5	AY	n/a	n/a	dot_pattern_expectancy	-1.0	n/a	cue	AY	s445	False
568.46	0.5	569.066	2.452	AY	1.0	71.0	dot_pattern_expectancy	71.0	0.606	probe	AY	s445	False
570.914	0.5	570.913	0.5	AY	n/a	n/a	dot_pattern_expectancy	-1.0	n/a	cue	AY	s445	False
573.419	0.5	573.993	1.772	AY	1.0	71.0	dot_pattern_expectancy	71.0	0.574	probe	AY	s445	False
575.193	0.5	575.192	0.5	AX	n/a	n/a	dot_pattern_expectancy	-1.0	n/a	cue	AX	s445	False
577.697	0.5	578.331	1.908	AX	1.0	89.0	dot_pattern_expectancy	89.0	0.634	probe	AX	s445	False
579.608	0.5	579.607	0.5	AX	n/a	n/a	dot_pattern_expectancy	-1.0	n/a	cue	AX	s445	False
582.112	0.5	582.54	1.908	AX	1.0	89.0	dot_pattern_expectancy	89.0	0.428	probe	AX	s445	False
584.023	0.5	584.022	0.5	AX	n/a	n/a	dot_pattern_expectancy	-1.0	n/a	cue	AX	s445	False
586.527	0.5	587.002	2.588	AX	1.0	89.0	dot_pattern_expectancy	89.0	0.475	probe	AX	s445	False
589.116	0.5	589.115	0.5	AY	n/a	n/a	dot_pattern_expectancy	-1.0	n/a	cue	AY	s445	False
591.62	0.5	592.136	1.5	AY	1.0	71.0	dot_pattern_expectancy	71.0	0.516	probe	AY	s445	False
593.122	0.5	593.121	0.5	BY	n/a	n/a	dot_pattern_expectancy	-1.0	n/a	cue	BY	s445	False
595.625	0.5	596.078	1.5	BY	1.0	71.0	dot_pattern_expectancy	71.0	0.453	probe	BY	s445	False
597.127	0.5	597.126	0.5	BY	n/a	n/a	dot_pattern_expectancy	-1.0	n/a	cue	BY	s445	False
599.631	0.5	600.3	1.5	BY	1.0	71.0	dot_pattern_expectancy	71.0	0.669	probe	BY	s445	False
601.133	0.5	601.132	0.5	AX	n/a	n/a	dot_pattern_expectancy	-1.0	n/a	cue	AX	s445	False
603.637	0.5	604.339	1.636	AX	1.0	89.0	dot_pattern_expectancy	89.0	0.702	probe	AX	s445	False
605.276	0.5	605.275	0.5	BX	n/a	n/a	dot_pattern_expectancy	-1.0	n/a	cue	BX	s445	False
607.781	0.5	608.287	2.044	BX	1.0	71.0	dot_pattern_expectancy	71.0	0.506	probe	BX	s445	False
609.826	0.5	609.825	0.5	AX	n/a	n/a	dot_pattern_expectancy	-1.0	n/a	cue	AX	s445	False
612.33	0.5	613.602	1.772	AX	0.0	89.0	dot_pattern_expectancy	71.0	1.272	probe	AX	s445	False
614.104	0.5	614.103	0.5	BX	n/a	n/a	dot_pattern_expectancy	-1.0	n/a	cue	BX	s445	False
616.608	0.5	617.298	2.588	BX	1.0	71.0	dot_pattern_expectancy	71.0	0.69	probe	BX	s445	False
619.199	0.5	619.198	0.5	AY	n/a	n/a	dot_pattern_expectancy	-1.0	n/a	cue	AY	s445	False
621.703	0.5	622.261	1.5	AY	1.0	71.0	dot_pattern_expectancy	71.0	0.558	probe	AY	s445	False
623.206	0.5	623.205	0.5	AX	n/a	n/a	dot_pattern_expectancy	-1.0	n/a	cue	AX	s445	False
625.709	0.5	626.605	2.452	AX	0.0	89.0	dot_pattern_expectancy	71.0	0.896	probe	AX	s445	False
628.164	0.5	628.163	0.5	BY	n/a	n/a	dot_pattern_expectancy	-1.0	n/a	cue	BY	s445	False
630.669	0.5	631.121	1.636	BY	1.0	71.0	dot_pattern_expectancy	71.0	0.452	probe	BY	s445	False
632.307	0.5	632.306	0.5	AX	n/a	n/a	dot_pattern_expectancy	-1.0	n/a	cue	AX	s445	False
634.811	0.5	635.57	1.636	AX	1.0	89.0	dot_pattern_expectancy	89.0	0.759	probe	AX	s445	False
636.45	0.5	636.449	0.5	AX	n/a	n/a	dot_pattern_expectancy	-1.0	n/a	cue	AX	s445	False
638.953	0.5	639.435	1.5	AX	1.0	89.0	dot_pattern_expectancy	89.0	0.482	probe	AX	s445	False
640.456	0.5	640.455	0.5	BY	n/a	n/a	dot_pattern_expectancy	-1.0	n/a	cue	BY	s445	False
642.96	0.5	643.363	1.636	BY	1.0	71.0	dot_pattern_expectancy	71.0	0.403	probe	BY	s445	False
644.599	0.5	644.598	0.5	AX	n/a	n/a	dot_pattern_expectancy	-1.0	n/a	cue	AX	s445	False
647.103	0.5	647.555	1.5	AX	1.0	89.0	dot_pattern_expectancy	89.0	0.452	probe	AX	s445	False
648.606	0.5	648.605	0.5	AY	n/a	n/a	dot_pattern_expectancy	-1.0	n/a	cue	AY	s445	False
651.111	0.5	651.755	2.18	AY	1.0	71.0	dot_pattern_expectancy	71.0	0.644	probe	AY	s445	False
653.294	0.5	653.293	0.5	AX	n/a	n/a	dot_pattern_expectancy	-1.0	n/a	cue	AX	s445	False
655.798	0.5	656.253	1.5	AX	1.0	89.0	dot_pattern_expectancy	89.0	0.455	probe	AX	s445	False
657.3	0.5	657.299	0.5	AX	n/a	n/a	dot_pattern_expectancy	-1.0	n/a	cue	AX	s445	False
659.804	0.5	659.803	1.908	AX	0.0	89.0	dot_pattern_expectancy	-1.0	n/a	probe	AX	s445	False
661.715	0.5	661.714	0.5	BY	n/a	n/a	dot_pattern_expectancy	-1.0	n/a	cue	BY	s445	False
664.22	0.5	664.743	1.636	BY	1.0	71.0	dot_pattern_expectancy	71.0	0.523	probe	BY	s445	False
665.86	0.5	665.859	0.5	BY	n/a	n/a	dot_pattern_expectancy	-1.0	n/a	cue	BY	s445	False
668.365	0.5	668.842	1.636	BY	1.0	71.0	dot_pattern_expectancy	71.0	0.477	probe	BY	s445	False
670.004	0.5	670.003	0.5	AX	n/a	n/a	dot_pattern_expectancy	-1.0	n/a	cue	AX	s445	False
672.508	0.5	673.605	1.636	AX	1.0	89.0	dot_pattern_expectancy	89.0	1.097	probe	AX	s445	False
674.147	0.5	674.146	0.5	AX	n/a	n/a	dot_pattern_expectancy	-1.0	n/a	cue	AX	s445	False
676.65	0.5	677.111	1.5	AX	1.0	89.0	dot_pattern_expectancy	89.0	0.461	probe	AX	s445	False
678.153	0.5	678.152	0.5	BY	n/a	n/a	dot_pattern_expectancy	-1.0	n/a	cue	BY	s445	False
680.658	0.5	680.657	2.044	BY	0.0	71.0	dot_pattern_expectancy	-1.0	n/a	probe	BY	s445	False
682.703	0.5	682.702	0.5	AY	n/a	n/a	dot_pattern_expectancy	-1.0	n/a	cue	AY	s445	False
685.207	0.5	685.626	2.18	AY	0.0	71.0	dot_pattern_expectancy	89.0	0.419	probe	AY	s445	False
687.391	0.5	687.39	0.5	AY	n/a	n/a	dot_pattern_expectancy	-1.0	n/a	cue	AY	s445	False
689.895	0.5	690.454	1.636	AY	1.0	71.0	dot_pattern_expectancy	71.0	0.559	probe	AY	s445	False
691.534	0.5	691.533	0.5	AY	n/a	n/a	dot_pattern_expectancy	-1.0	n/a	cue	AY	s445	False
694.038	0.5	694.593	1.772	AY	1.0	71.0	dot_pattern_expectancy	71.0	0.555	probe	AY	s445	False
695.813	0.5	695.812	0.5	BY	n/a	n/a	dot_pattern_expectancy	-1.0	n/a	cue	BY	s445	False
698.317	0.5	698.785	1.5	BY	1.0	71.0	dot_pattern_expectancy	71.0	0.468	probe	BY	s445	False
699.819	0.5	699.818	0.5	BX	n/a	n/a	dot_pattern_expectancy	-1.0	n/a	cue	BX	s445	False
702.324	0.5	702.836	1.908	BX	1.0	71.0	dot_pattern_expectancy	71.0	0.512	probe	BX	s445	False
704.234	0.5	704.233	0.5	AX	n/a	n/a	dot_pattern_expectancy	-1.0	n/a	cue	AX	s445	False
706.738	0.5	707.186	2.044	AX	1.0	89.0	dot_pattern_expectancy	89.0	0.448	probe	AX	s445	False
708.784	0.5	708.783	0.5	AX	n/a	n/a	dot_pattern_expectancy	-1.0	n/a	cue	AX	s445	False
711.288	0.5	711.287	1.636	AX	0.0	89.0	dot_pattern_expectancy	-1.0	n/a	probe	AX	s445	False
712.927	0.5	712.926	0.5	AX	n/a	n/a	dot_pattern_expectancy	-1.0	n/a	cue	AX	s445	False
715.432	0.5	716.162	1.772	AX	1.0	89.0	dot_pattern_expectancy	89.0	0.73	probe	AX	s445	False
717.205	0.5	717.204	0.5	AX	n/a	n/a	dot_pattern_expectancy	-1.0	n/a	cue	AX	s445	False
719.71	0.5	720.285	1.636	AX	1.0	89.0	dot_pattern_expectancy	89.0	0.575	probe	AX	s445	False
721.349	0.5	721.348	0.5	BX	n/a	n/a	dot_pattern_expectancy	-1.0	n/a	cue	BX	s445	False
723.853	0.5	724.42	1.772	BX	1.0	71.0	dot_pattern_expectancy	71.0	0.567	probe	BX	s445	False
725.627	0.5	725.626	0.5	AX	n/a	n/a	dot_pattern_expectancy	-1.0	n/a	cue	AX	s445	False
728.131	0.5	728.13	1.5	AX	0.0	89.0	dot_pattern_expectancy	-1.0	n/a	probe	AX	s445	False
