onset	duration	movement_onset	EV	action	block_duration	experiment_exp_id	gain_amount	gain_probability	key_press	loss_amount	loss_probability	num_cards	num_click_in_round	num_loss_cards	risk	response_time	total_cards	trial_id	trial_type	worker_id	junk	feedback
3.007	4.034	7.041	1.152684873518207	draw_card	4.034	columbia_card_task_fmri	12.0	0.8333333333333334	89.0	-70.0	0.1666666666666666	6.0	1.0	1.0	-3.807635988343797	4.034	n/a	stim	poldrack-single-stim	s445	False	1
7.043	1.296	8.339	-1.5806484598151256	draw_card	1.296	columbia_card_task_fmri	12.0	0.8	89.0	-70.0	0.2	6.0	2.0	1.0	-1.5760623886778546	1.296	2.0	stim	poldrack-single-stim	s445	False	0
9.091	1.5	8.34	n/a	-1.0	2.454	columbia_card_task_fmri	n/a	n/a	-1.0	n/a	n/a	n/a	n/a	n/a	n/a	n/a	n/a	ITI	poldrack-single-stim	s445	False	0
10.798	2.173	12.971	1.9860182068515408	draw_card	2.173	columbia_card_task_fmri	14.0	0.8333333333333334	89.0	-75.0	0.1666666666666666	6.0	1.0	1.0	-1.209059010832604	2.173	n/a	stim	poldrack-single-stim	s445	False	1
12.973	1.491	14.464	-0.980648459815126	draw_card	1.491	columbia_card_task_fmri	14.0	0.8	89.0	-75.0	0.2	6.0	2.0	1.0	1.2144558861856254	1.491	n/a	stim	poldrack-single-stim	s445	False	1
14.465	1.627	16.092	-5.430648459815127	draw_card	1.627	columbia_card_task_fmri	14.0	0.75	89.0	-75.0	0.25	6.0	3.0	1.0	4.14411187887471	1.627	3.0	stim	poldrack-single-stim	s445	False	0
16.845	1.5	16.094	n/a	-1.0	2.454	columbia_card_task_fmri	n/a	n/a	-1.0	n/a	n/a	n/a	n/a	n/a	n/a	n/a	n/a	ITI	poldrack-single-stim	s445	False	0
18.551	2.499	21.05	3.652684873518207	draw_card	2.499	columbia_card_task_fmri	15.0	0.8333333333333334	89.0	-70.0	0.1666666666666666	6.0	1.0	1.0	-2.6941640235510675	2.499	n/a	stim	poldrack-single-stim	s445	False	1
21.051	1.85	22.901	0.819351540184873	draw_card	1.85	columbia_card_task_fmri	15.0	0.8	89.0	-70.0	0.2	6.0	2.0	1.0	-0.3803162359530816	1.85	n/a	stim	poldrack-single-stim	s445	False	1
22.903	2.396	25.299	-3.430648459815127	draw_card	2.396	columbia_card_task_fmri	15.0	0.75	89.0	-70.0	0.25	6.0	3.0	1.0	2.4168938508852875	2.396	n/a	stim	poldrack-single-stim	s445	False	1
25.3	2.569	27.869	-10.513981793148456	end_round	2.569	columbia_card_task_fmri	15.0	0.6666666666666667	71.0	-70.0	0.3333333333333333	6.0	4.0	1.0	5.671439781696151	2.569	3.0	stim	poldrack-single-stim	s445	False	1
28.621	1.5	27.87	n/a	-1.0	2.522	columbia_card_task_fmri	n/a	n/a	-1.0	n/a	n/a	n/a	n/a	n/a	n/a	n/a	n/a	ITI	poldrack-single-stim	s445	False	0
30.395	2.929	33.324	4.486018206851541	draw_card	2.929	columbia_card_task_fmri	17.0	0.8333333333333334	89.0	-75.0	0.1666666666666666	6.0	1.0	1.0	-0.0949119627297463	2.929	n/a	stim	poldrack-single-stim	s445	False	1
33.326	1.103	34.429	1.4193515401848744	draw_card	1.103	columbia_card_task_fmri	17.0	0.8	89.0	-75.0	0.2	6.0	2.0	1.0	2.410831951318009	1.103	n/a	stim	poldrack-single-stim	s445	False	1
34.433	0.966	35.399	-3.180648459815127	draw_card	0.966	columbia_card_task_fmri	17.0	0.75	89.0	-75.0	0.25	6.0	3.0	1.0	5.439800112572705	0.966	n/a	stim	poldrack-single-stim	s445	False	1
35.4	1.665	37.065	-10.847315126481792	draw_card	1.665	columbia_card_task_fmri	17.0	0.6666666666666667	89.0	-75.0	0.3333333333333333	6.0	4.0	1.0	8.963750417304311	1.665	n/a	stim	poldrack-single-stim	s445	False	1
37.066	1.568	38.634	-26.180648459815128	end_round	1.568	columbia_card_task_fmri	17.0	0.5	71.0	-75.0	0.5	6.0	5.0	1.0	11.589309130855902	1.568	4.0	stim	poldrack-single-stim	s445	False	1
39.386	1.5	38.635	n/a	-1.0	2.454	columbia_card_task_fmri	n/a	n/a	-1.0	n/a	n/a	n/a	n/a	n/a	n/a	n/a	n/a	ITI	poldrack-single-stim	s445	False	0
41.091	2.242	43.333	5.819351540184873	draw_card	2.242	columbia_card_task_fmri	24.0	0.75	89.0	-60.0	0.25	8.0	1.0	2.0	1.9851609452178491	2.242	1.0	stim	poldrack-single-stim	s445	False	0
44.086	1.5	43.335	n/a	-1.0	2.658	columbia_card_task_fmri	n/a	n/a	-1.0	n/a	n/a	n/a	n/a	n/a	n/a	n/a	n/a	ITI	poldrack-single-stim	s445	False	0
45.996	2.557	48.553	5.819351540184873	draw_card	2.557	columbia_card_task_fmri	29.0	0.75	89.0	-75.0	0.25	8.0	1.0	2.0	10.624479443602006	2.557	n/a	stim	poldrack-single-stim	s445	False	1
48.554	1.168	49.722	2.105065825899161	draw_card	1.168	columbia_card_task_fmri	29.0	0.7142857142857143	89.0	-75.0	0.2857142857142857	8.0	2.0	2.0	12.569918423808026	1.168	2.0	stim	poldrack-single-stim	s445	False	0
50.475	1.5	49.724	n/a	-1.0	2.386	columbia_card_task_fmri	n/a	n/a	-1.0	n/a	n/a	n/a	n/a	n/a	n/a	n/a	n/a	ITI	poldrack-single-stim	s445	False	0
52.112	1.238	53.35	1.5971293179626531	draw_card	1.238	columbia_card_task_fmri	17.0	0.7777777777777778	89.0	-65.0	0.2222222222222222	9.0	1.0	2.0	-0.2899693061737096	1.238	1.0	stim	poldrack-single-stim	s445	False	0
54.104	1.5	53.353	n/a	-1.0	2.522	columbia_card_task_fmri	n/a	n/a	-1.0	n/a	n/a	n/a	n/a	n/a	n/a	n/a	n/a	ITI	poldrack-single-stim	s445	False	0
55.877	1.435	57.312	5.919351540184873	draw_card	1.435	columbia_card_task_fmri	14.0	0.9	89.0	-95.0	0.1	10.0	1.0	1.0	-1.6756938856121408	1.435	n/a	stim	poldrack-single-stim	s445	False	1
57.314	3.579	60.893	4.7082404290737605	draw_card	3.579	columbia_card_task_fmri	14.0	0.8888888888888888	89.0	-95.0	0.1111111111111111	10.0	2.0	1.0	-0.1257881344578351	3.579	2.0	stim	poldrack-single-stim	s445	False	0
61.646	1.5	60.895	n/a	-1.0	2.59	columbia_card_task_fmri	n/a	n/a	-1.0	n/a	n/a	n/a	n/a	n/a	n/a	n/a	n/a	ITI	poldrack-single-stim	s445	False	0
63.489	4.053	67.542	1.819351540184873	draw_card	4.053	columbia_card_task_fmri	15.0	0.8	89.0	-65.0	0.2	10.0	1.0	2.0	-2.37305024325795	4.053	n/a	stim	poldrack-single-stim	s445	False	1
67.542	1.631	69.173	0.0415737624070962	draw_card	1.631	columbia_card_task_fmri	15.0	0.7777777777777778	89.0	-65.0	0.2222222222222222	10.0	2.0	2.0	-1.1185494032634935	1.631	n/a	stim	poldrack-single-stim	s445	False	1
69.174	0.948	70.122	-2.180648459815127	draw_card	0.948	columbia_card_task_fmri	15.0	0.75	89.0	-65.0	0.25	10.0	3.0	2.0	0.2585477473782234	0.948	n/a	stim	poldrack-single-stim	s445	False	1
70.123	2.079	72.202	-5.037791316957981	draw_card	2.079	columbia_card_task_fmri	15.0	0.7142857142857143	89.0	-65.0	0.2857142857142857	10.0	4.0	2.0	1.7531106275742443	2.079	4.0	stim	poldrack-single-stim	s445	False	0
72.956	1.5	72.205	n/a	-1.0	2.386	columbia_card_task_fmri	n/a	n/a	-1.0	n/a	n/a	n/a	n/a	n/a	n/a	n/a	n/a	ITI	poldrack-single-stim	s445	False	0
74.593	1.787	76.38	3.4193515401848744	draw_card	1.787	columbia_card_task_fmri	17.0	0.8	89.0	-65.0	0.2	10.0	1.0	2.0	-1.5760623886778546	1.787	n/a	stim	poldrack-single-stim	s445	False	1
76.381	1.255	77.636	1.5971293179626531	draw_card	1.255	columbia_card_task_fmri	17.0	0.7777777777777778	89.0	-65.0	0.2222222222222222	10.0	2.0	2.0	-0.2899693061737096	1.255	n/a	stim	poldrack-single-stim	s445	False	1
77.638	1.384	79.022	-0.680648459815127	draw_card	1.384	columbia_card_task_fmri	17.0	0.75	89.0	-65.0	0.25	10.0	3.0	2.0	1.1217883458681897	1.384	n/a	stim	poldrack-single-stim	s445	False	1
79.023	1.976	80.999	-3.609219888386554	draw_card	1.976	columbia_card_task_fmri	17.0	0.7142857142857143	89.0	-65.0	0.2857142857142857	10.0	4.0	2.0	2.653948208651464	1.976	n/a	stim	poldrack-single-stim	s445	False	1
81.0	1.69	82.69	-7.513981793148457	end_round	1.69	columbia_card_task_fmri	17.0	0.6666666666666667	71.0	-65.0	0.3333333333333333	10.0	5.0	2.0	4.2608411072571215	1.69	4.0	stim	poldrack-single-stim	s445	False	1
83.444	1.5	82.693	n/a	-1.0	2.59	columbia_card_task_fmri	n/a	n/a	-1.0	n/a	n/a	n/a	n/a	n/a	n/a	n/a	n/a	ITI	poldrack-single-stim	s445	False	0
85.286	4.384	89.67	1.9860182068515408	draw_card	4.384	columbia_card_task_fmri	13.0	0.8333333333333334	89.0	-70.0	0.1666666666666666	12.0	1.0	2.0	-3.4365150837730667	4.384	n/a	stim	poldrack-single-stim	s445	False	1
89.672	0.934	90.606	0.7284424492757795	draw_card	0.934	columbia_card_task_fmri	13.0	0.8181818181818181	89.0	-70.0	0.1818181818181818	12.0	2.0	2.0	-2.3604465896611373	0.934	2.0	stim	poldrack-single-stim	s445	False	0
91.36	1.5	90.609	n/a	-1.0	2.318	columbia_card_task_fmri	n/a	n/a	-1.0	n/a	n/a	n/a	n/a	n/a	n/a	n/a	n/a	ITI	poldrack-single-stim	s445	False	0
92.929	1.398	94.327	1.9860182068515408	draw_card	1.398	columbia_card_task_fmri	15.0	0.8333333333333334	89.0	-80.0	0.1666666666666666	12.0	1.0	2.0	1.0194793771197157	1.398	1.0	stim	poldrack-single-stim	s445	False	0
95.079	1.5	94.328	n/a	-1.0	2.25	columbia_card_task_fmri	n/a	n/a	-1.0	n/a	n/a	n/a	n/a	n/a	n/a	n/a	n/a	ITI	poldrack-single-stim	s445	False	0
96.58	1.304	97.884	1.019351540184874	draw_card	1.304	columbia_card_task_fmri	14.0	0.8	89.0	-65.0	0.2	15.0	1.0	3.0	-2.7714873113893432	1.304	n/a	stim	poldrack-single-stim	s445	False	1
97.886	1.553	99.439	-0.109219888386554	draw_card	1.553	columbia_card_task_fmri	14.0	0.7857142857142857	89.0	-65.0	0.2142857142857142	15.0	2.0	3.0	-1.9588876923423089	1.553	n/a	stim	poldrack-single-stim	s445	False	1
99.44	4.755	104.195	-1.4114176905843587	draw_card	4.755	columbia_card_task_fmri	14.0	0.7692307692307692	89.0	-65.0	0.2307692307692307	15.0	3.0	3.0	-1.093138744943687	4.755	n/a	stim	poldrack-single-stim	s445	False	1
104.198	3.269	107.467	-2.930648459815127	draw_card	3.269	columbia_card_task_fmri	14.0	0.75	89.0	-65.0	0.25	15.0	4.0	3.0	-0.1730199391798592	3.269	n/a	stim	poldrack-single-stim	s445	False	1
107.469	2.917	110.386	-4.726103005269672	draw_card	2.917	columbia_card_task_fmri	14.0	0.7272727272727273	89.0	-65.0	0.2727272727272727	15.0	5.0	3.0	0.7993508981019772	2.917	5.0	stim	poldrack-single-stim	s445	False	0
111.139	1.5	110.388	n/a	-1.0	2.454	columbia_card_task_fmri	n/a	n/a	-1.0	n/a	n/a	n/a	n/a	n/a	n/a	n/a	n/a	ITI	poldrack-single-stim	s445	False	0
112.845	6.803	119.648	0.944351540184873	end_round	6.803	columbia_card_task_fmri	1.0	0.9375	71.0	-45.0	0.0625	16.0	1.0	1.0	-23.01079499957413	6.803	0.0	stim	poldrack-single-stim	s445	False	1
120.401	1.5	119.65	n/a	-1.0	3.27	columbia_card_task_fmri	n/a	n/a	-1.0	n/a	n/a	n/a	n/a	n/a	n/a	n/a	n/a	ITI	poldrack-single-stim	s445	False	0
122.923	2.097	125.02	1.881851540184873	draw_card	2.097	columbia_card_task_fmri	15.0	0.8125	89.0	-70.0	0.1875	16.0	1.0	3.0	-1.2008783038047357	2.097	n/a	stim	poldrack-single-stim	s445	False	1
125.022	0.799	125.821	0.819351540184873	draw_card	0.799	columbia_card_task_fmri	15.0	0.8	89.0	-70.0	0.2	16.0	2.0	3.0	-0.3803162359530816	0.799	n/a	stim	poldrack-single-stim	s445	False	1
125.823	4.564	130.387	-0.3949341741008423	end_round	4.564	columbia_card_task_fmri	15.0	0.7857142857142857	71.0	-70.0	0.2142857142857142	16.0	3.0	3.0	0.4944586218182465	4.564	2.0	stim	poldrack-single-stim	s445	False	1
131.139	1.5	130.388	n/a	-1.0	2.25	columbia_card_task_fmri	n/a	n/a	-1.0	n/a	n/a	n/a	n/a	n/a	n/a	n/a	n/a	ITI	poldrack-single-stim	s445	False	0
132.64	2.102	134.742	8.819351540184872	draw_card	2.102	columbia_card_task_fmri	30.0	0.7	89.0	-50.0	0.3	10.0	1.0	3.0	2.271846350158981	2.102	n/a	stim	poldrack-single-stim	s445	False	1
134.744	0.876	135.62	6.152684873518212	draw_card	0.876	columbia_card_task_fmri	30.0	0.6666666666666667	89.0	-50.0	0.3333333333333333	10.0	2.0	3.0	3.3205920004776885	0.876	2.0	stim	poldrack-single-stim	s445	False	0
136.374	1.5	135.623	n/a	-1.0	2.25	columbia_card_task_fmri	n/a	n/a	-1.0	n/a	n/a	n/a	n/a	n/a	n/a	n/a	n/a	ITI	poldrack-single-stim	s445	False	0
137.876	1.607	139.483	8.219351540184874	draw_card	1.607	columbia_card_task_fmri	17.0	0.8666666666666667	89.0	-70.0	0.1333333333333333	15.0	1.0	2.0	-4.788614100984795	1.607	n/a	stim	poldrack-single-stim	s445	False	1
139.485	0.903	140.388	7.390780111613446	draw_card	0.903	columbia_card_task_fmri	17.0	0.8571428571428572	89.0	-70.0	0.1428571428571428	15.0	2.0	2.0	-3.923081323774984	0.903	n/a	stim	poldrack-single-stim	s445	False	1
140.39	2.244	142.634	6.434736155569488	draw_card	2.244	columbia_card_task_fmri	17.0	0.8461538461538461	89.0	-70.0	0.1538461538461538	15.0	3.0	2.0	-2.9809442711641942	2.244	n/a	stim	poldrack-single-stim	s445	False	1
142.636	1.231	143.867	5.319351540184875	draw_card	1.231	columbia_card_task_fmri	17.0	0.8333333333333334	89.0	-70.0	0.1666666666666666	15.0	4.0	2.0	-1.9516756020586852	1.231	n/a	stim	poldrack-single-stim	s445	False	1
143.869	3.148	147.017	4.001169722003053	draw_card	3.148	columbia_card_task_fmri	17.0	0.8181818181818181	89.0	-70.0	0.1818181818181818	15.0	5.0	2.0	-0.823344697785501	3.148	5.0	stim	poldrack-single-stim	s445	False	0
147.771	1.5	147.02	n/a	-1.0	2.318	columbia_card_task_fmri	n/a	n/a	-1.0	n/a	n/a	n/a	n/a	n/a	n/a	n/a	n/a	ITI	poldrack-single-stim	s445	False	0
149.34	5.52	154.86	3.444351540184873	end_round	5.52	columbia_card_task_fmri	7.0	0.9375	71.0	-95.0	0.0625	16.0	1.0	1.0	-9.64629261129726	5.52	0.0	stim	poldrack-single-stim	s445	False	1
155.614	1.5	154.863	n/a	-1.0	2.726	columbia_card_task_fmri	n/a	n/a	-1.0	n/a	n/a	n/a	n/a	n/a	n/a	n/a	n/a	ITI	poldrack-single-stim	s445	False	0
157.593	2.335	159.928	5.006851540184873	draw_card	2.335	columbia_card_task_fmri	9.0	0.9375	89.0	-100.0	0.0625	16.0	1.0	1.0	-7.962106081474165	2.335	n/a	stim	poldrack-single-stim	s445	False	1
159.929	1.202	161.131	4.552684873518206	draw_card	1.202	columbia_card_task_fmri	9.0	0.9333333333333332	89.0	-100.0	0.0666666666666666	16.0	2.0	1.0	-7.161849389221217	1.202	n/a	stim	poldrack-single-stim	s445	False	1
161.134	1.327	162.461	4.033637254470588	draw_card	1.327	columbia_card_task_fmri	9.0	0.9285714285714286	89.0	-100.0	0.0714285714285714	16.0	3.0	1.0	-6.2839935910310345	1.327	n/a	stim	poldrack-single-stim	s445	False	1
162.463	2.385	164.848	3.434736155569489	draw_card	2.385	columbia_card_task_fmri	9.0	0.9230769230769232	89.0	-100.0	0.0769230769230769	16.0	4.0	1.0	-5.315336163643966	2.385	n/a	stim	poldrack-single-stim	s445	False	1
164.85	1.13	165.98	2.736018206851541	draw_card	1.13	columbia_card_task_fmri	9.0	0.9166666666666666	89.0	-100.0	0.0833333333333333	16.0	5.0	1.0	-4.239363419490452	1.13	n/a	stim	poldrack-single-stim	s445	False	1
165.983	1.701	167.684	1.910260631093963	draw_card	1.701	columbia_card_task_fmri	9.0	0.9090909090909092	89.0	-100.0	0.0909090909090909	16.0	6.0	1.0	-3.035134405508554	1.701	n/a	stim	poldrack-single-stim	s445	False	1
167.686	2.59	170.276	0.9193515401848726	end_round	2.59	columbia_card_task_fmri	9.0	0.9	71.0	-100.0	0.1	16.0	7.0	1.0	-1.6756938856121408	2.59	6.0	stim	poldrack-single-stim	s445	False	1
171.029	1.5	170.278	n/a	-1.0	2.386	columbia_card_task_fmri	n/a	n/a	-1.0	n/a	n/a	n/a	n/a	n/a	n/a	n/a	n/a	ITI	poldrack-single-stim	s445	False	0
172.667	2.08	174.747	5.944351540184873	draw_card	2.08	columbia_card_task_fmri	15.0	0.875	89.0	-80.0	0.125	16.0	1.0	2.0	-2.952467451425715	2.08	n/a	stim	poldrack-single-stim	s445	False	1
174.749	0.88	175.629	5.152684873518207	draw_card	0.88	columbia_card_task_fmri	15.0	0.8666666666666667	89.0	-80.0	0.1333333333333333	16.0	2.0	2.0	-2.080383405410977	0.88	n/a	stim	poldrack-single-stim	s445	False	1
175.632	0.544	176.176	4.247922968756304	draw_card	0.544	columbia_card_task_fmri	15.0	0.8571428571428572	89.0	-80.0	0.1428571428571428	16.0	3.0	2.0	-1.1345935243548553	0.544	n/a	stim	poldrack-single-stim	s445	False	1
176.178	0.597	176.775	3.203966924800256	draw_card	0.597	columbia_card_task_fmri	15.0	0.8461538461538461	89.0	-80.0	0.1538461538461538	16.0	4.0	2.0	-0.1051379253186866	0.597	n/a	stim	poldrack-single-stim	s445	False	1
176.777	0.412	177.189	1.9860182068515408	draw_card	0.412	columbia_card_task_fmri	15.0	0.8333333333333334	89.0	-80.0	0.1666666666666666	16.0	5.0	2.0	1.0194793771197157	0.412	n/a	stim	poldrack-single-stim	s445	False	1
177.19	0.749	177.939	0.5466242674575978	draw_card	0.749	columbia_card_task_fmri	15.0	0.8181818181818181	89.0	-80.0	0.1818181818181818	16.0	6.0	2.0	2.2522863298737548	0.749	n/a	stim	poldrack-single-stim	s445	False	1
177.942	1.093	179.035	-1.180648459815127	draw_card	1.093	columbia_card_task_fmri	15.0	0.8	89.0	-80.0	0.2	16.0	7.0	2.0	3.607435925207653	1.093	n/a	stim	poldrack-single-stim	s445	False	1
179.037	2.984	182.021	-3.2917595709262395	end_round	2.984	columbia_card_task_fmri	15.0	0.7777777777777778	71.0	-80.0	0.2222222222222222	16.0	8.0	2.0	5.098764328518101	2.984	7.0	stim	poldrack-single-stim	s445	False	1
182.775	1.5	182.024	n/a	-1.0	2.318	columbia_card_task_fmri	n/a	n/a	-1.0	n/a	n/a	n/a	n/a	n/a	n/a	n/a	n/a	ITI	poldrack-single-stim	s445	False	0
184.346	1.855	186.201	8.069351540184872	draw_card	1.855	columbia_card_task_fmri	16.0	0.875	89.0	-70.0	0.125	16.0	1.0	2.0	-5.915787401389071	1.855	n/a	stim	poldrack-single-stim	s445	False	1
186.203	0.856	187.059	7.352684873518206	draw_card	0.856	columbia_card_task_fmri	16.0	0.8666666666666667	89.0	-70.0	0.1333333333333333	16.0	2.0	2.0	-5.126996801453604	0.856	n/a	stim	poldrack-single-stim	s445	False	1
187.062	0.882	187.944	6.533637254470588	draw_card	0.882	columbia_card_task_fmri	16.0	0.8571428571428572	89.0	-70.0	0.1428571428571428	16.0	3.0	2.0	-4.271500232322101	0.882	3.0	stim	poldrack-single-stim	s445	False	0
188.699	1.5	187.948	n/a	-1.0	2.25	columbia_card_task_fmri	n/a	n/a	-1.0	n/a	n/a	n/a	n/a	n/a	n/a	n/a	n/a	ITI	poldrack-single-stim	s445	False	0
190.201	2.214	192.415	9.381851540184872	draw_card	2.214	columbia_card_task_fmri	30.0	0.6875	89.0	-45.0	0.3125	16.0	1.0	5.0	0.380559987904391	2.214	n/a	stim	poldrack-single-stim	s445	False	1
192.416	0.901	193.317	7.8193515401848765	draw_card	0.901	columbia_card_task_fmri	30.0	0.6666666666666667	89.0	-45.0	0.3333333333333333	16.0	2.0	5.0	0.9705638581135788	0.901	n/a	stim	poldrack-single-stim	s445	False	1
193.319	2.778	196.097	6.033637254470585	draw_card	2.778	columbia_card_task_fmri	30.0	0.6428571428571428	89.0	-45.0	0.3571428571428571	16.0	3.0	5.0	1.5502212094523813	2.778	n/a	stim	poldrack-single-stim	s445	False	1
196.1	2.742	198.842	3.9731976940310254	draw_card	2.742	columbia_card_task_fmri	30.0	0.6153846153846154	89.0	-45.0	0.3846153846153846	16.0	4.0	5.0	2.0995710396310443	2.742	n/a	stim	poldrack-single-stim	s445	False	1
198.844	4.282	203.126	1.5693515401848694	draw_card	4.282	columbia_card_task_fmri	30.0	0.5833333333333333	89.0	-45.0	0.4166666666666667	16.0	5.0	5.0	2.585820228575791	4.282	n/a	stim	poldrack-single-stim	s445	False	1
203.128	4.601	207.729	-1.271557550724217	end_round	4.601	columbia_card_task_fmri	30.0	0.5454545454545454	71.0	-45.0	0.4545454545454545	16.0	6.0	5.0	2.9539832775826653	4.601	5.0	stim	poldrack-single-stim	s445	False	1
208.483	1.5	207.732	n/a	-1.0	2.25	columbia_card_task_fmri	n/a	n/a	-1.0	n/a	n/a	n/a	n/a	n/a	n/a	n/a	n/a	ITI	poldrack-single-stim	s445	False	0
209.985	5.159	215.144	1.152684873518207	draw_card	5.159	columbia_card_task_fmri	13.0	0.8333333333333334	89.0	-75.0	0.1666666666666666	6.0	1.0	1.0	-1.5803827855266874	5.159	n/a	stim	poldrack-single-stim	s445	False	1
215.146	3.459	218.605	-1.7806484598151266	draw_card	3.459	columbia_card_task_fmri	13.0	0.8	89.0	-75.0	0.2	6.0	2.0	1.0	0.8157185146945878	3.459	n/a	stim	poldrack-single-stim	s445	False	1
218.607	3.35	221.957	-6.180648459815127	end_round	3.35	columbia_card_task_fmri	13.0	0.75	71.0	-75.0	0.25	6.0	3.0	1.0	3.712266353021633	3.35	2.0	stim	poldrack-single-stim	s445	False	1
222.711	1.5	221.96	n/a	-1.0	2.454	columbia_card_task_fmri	n/a	n/a	-1.0	n/a	n/a	n/a	n/a	n/a	n/a	n/a	n/a	ITI	poldrack-single-stim	s445	False	0
224.417	1.926	226.343	2.8193515401848748	draw_card	1.926	columbia_card_task_fmri	14.0	0.8333333333333334	89.0	-70.0	0.1666666666666666	6.0	1.0	1.0	-3.065357332148896	1.926	n/a	stim	poldrack-single-stim	s445	False	1
226.345	0.803	227.148	0.019351540184874	draw_card	0.803	columbia_card_task_fmri	14.0	0.8	89.0	-70.0	0.2	6.0	2.0	1.0	-0.7789318696815215	0.803	n/a	stim	poldrack-single-stim	s445	False	1
227.151	1.396	228.547	-4.180648459815127	draw_card	1.396	columbia_card_task_fmri	14.0	0.75	89.0	-70.0	0.25	6.0	3.0	1.0	1.9851609452178491	1.396	3.0	stim	poldrack-single-stim	s445	False	0
229.301	1.5	228.55	n/a	-1.0	2.454	columbia_card_task_fmri	n/a	n/a	-1.0	n/a	n/a	n/a	n/a	n/a	n/a	n/a	n/a	ITI	poldrack-single-stim	s445	False	0
231.008	2.454	233.462	2.8193515401848748	draw_card	2.454	columbia_card_task_fmri	16.0	0.8333333333333334	89.0	-80.0	0.1666666666666666	6.0	1.0	1.0	1.3909935109281122	2.454	n/a	stim	poldrack-single-stim	s445	False	1
233.466	0.514	233.98	-0.3806484598151263	draw_card	0.514	columbia_card_task_fmri	16.0	0.8	89.0	-80.0	0.2	6.0	2.0	1.0	4.006350890382187	0.514	2.0	stim	poldrack-single-stim	s445	False	0
234.734	1.5	233.983	n/a	-1.0	2.522	columbia_card_task_fmri	n/a	n/a	-1.0	n/a	n/a	n/a	n/a	n/a	n/a	n/a	n/a	ITI	poldrack-single-stim	s445	False	0
236.509	1.717	238.226	5.319351540184875	draw_card	1.717	columbia_card_task_fmri	17.0	0.8333333333333334	89.0	-70.0	0.1666666666666666	6.0	1.0	1.0	-1.9516756020586852	1.717	1.0	stim	poldrack-single-stim	s445	False	0
238.979	1.5	238.228	n/a	-1.0	2.386	columbia_card_task_fmri	n/a	n/a	-1.0	n/a	n/a	n/a	n/a	n/a	n/a	n/a	n/a	ITI	poldrack-single-stim	s445	False	0
240.62	1.15	241.77	5.319351540184873	draw_card	1.15	columbia_card_task_fmri	25.0	0.75	89.0	-65.0	0.25	8.0	1.0	2.0	4.575983239507004	1.15	n/a	stim	poldrack-single-stim	s445	False	1
241.773	0.942	242.715	2.105065825899161	draw_card	0.942	columbia_card_task_fmri	25.0	0.7142857142857143	89.0	-65.0	0.2857142857142857	8.0	2.0	2.0	6.2584807670621885	0.942	n/a	stim	poldrack-single-stim	s445	False	1
242.718	3.097	245.815	-2.1806484598151235	draw_card	3.097	columbia_card_task_fmri	25.0	0.6666666666666667	89.0	-65.0	0.3333333333333333	8.0	3.0	2.0	8.022971253228178	3.097	n/a	stim	poldrack-single-stim	s445	False	1
245.816	5.01	250.826	-8.180648459815128	end_round	5.01	columbia_card_task_fmri	25.0	0.6	71.0	-65.0	0.4	8.0	4.0	2.0	9.68385472923267	5.01	3.0	stim	poldrack-single-stim	s445	False	1
251.581	1.5	250.83	n/a	-1.0	2.454	columbia_card_task_fmri	n/a	n/a	-1.0	n/a	n/a	n/a	n/a	n/a	n/a	n/a	n/a	ITI	poldrack-single-stim	s445	False	0
253.287	1.277	254.564	5.319351540184873	draw_card	1.277	columbia_card_task_fmri	30.0	0.75	89.0	-80.0	0.25	8.0	1.0	2.0	13.217755151168523	1.277	n/a	stim	poldrack-single-stim	s445	False	1
254.567	0.721	255.288	1.3907801116134495	draw_card	0.721	columbia_card_task_fmri	30.0	0.7142857142857143	89.0	-80.0	0.2857142857142857	8.0	2.0	2.0	15.27583974327368	0.721	n/a	stim	poldrack-single-stim	s445	False	1
255.29	0.596	255.886	-3.847315126481788	draw_card	0.596	columbia_card_task_fmri	30.0	0.6666666666666667	89.0	-80.0	0.3333333333333333	8.0	3.0	2.0	17.434076148223845	0.596	3.0	stim	poldrack-single-stim	s445	False	0
256.64	1.5	255.889	n/a	-1.0	2.522	columbia_card_task_fmri	n/a	n/a	-1.0	n/a	n/a	n/a	n/a	n/a	n/a	n/a	n/a	ITI	poldrack-single-stim	s445	False	0
258.414	1.853	260.267	5.019351540184874	draw_card	1.853	columbia_card_task_fmri	13.0	0.9	89.0	-95.0	0.1	10.0	1.0	1.0	-1.9745748045833975	1.853	1.0	stim	poldrack-single-stim	s445	False	0
261.021	1.5	260.27	n/a	-1.0	2.522	columbia_card_task_fmri	n/a	n/a	-1.0	n/a	n/a	n/a	n/a	n/a	n/a	n/a	n/a	ITI	poldrack-single-stim	s445	False	0
262.795	3.516	266.311	6.419351540184873	draw_card	3.516	columbia_card_task_fmri	14.0	0.9	89.0	-90.0	0.1	10.0	1.0	1.0	-3.169884544919139	3.516	n/a	stim	poldrack-single-stim	s445	False	1
266.314	0.432	266.746	5.263795984629316	draw_card	0.432	columbia_card_task_fmri	14.0	0.8888888888888888	89.0	-90.0	0.1111111111111111	10.0	2.0	1.0	-1.6915881152353265	0.432	n/a	stim	poldrack-single-stim	s445	False	1
266.749	0.33	267.079	3.819351540184873	draw_card	0.33	columbia_card_task_fmri	14.0	0.875	89.0	-90.0	0.125	10.0	3.0	1.0	0.0131159628187234	0.33	n/a	stim	poldrack-single-stim	s445	False	1
267.082	0.341	267.423	1.962208683042017	draw_card	0.341	columbia_card_task_fmri	14.0	0.8571428571428572	89.0	-90.0	0.1428571428571428	10.0	4.0	1.0	2.00445517839853	0.341	n/a	stim	poldrack-single-stim	s445	False	1
267.425	0.369	267.794	-0.5139817931484592	draw_card	0.369	columbia_card_task_fmri	14.0	0.8333333333333334	89.0	-90.0	0.1666666666666666	10.0	5.0	1.0	4.363908962425711	0.369	n/a	stim	poldrack-single-stim	s445	False	1
267.797	1.028	268.825	-3.980648459815126	draw_card	1.028	columbia_card_task_fmri	14.0	0.8	89.0	-90.0	0.2	10.0	6.0	1.0	7.198419060744968	1.028	n/a	stim	poldrack-single-stim	s445	False	1
268.828	1.338	270.166	-9.180648459815128	draw_card	1.338	columbia_card_task_fmri	14.0	0.75	89.0	-90.0	0.25	10.0	7.0	1.0	10.624479443602006	1.338	n/a	stim	poldrack-single-stim	s445	False	1
270.168	2.57	272.738	-17.847315126481792	end_round	2.57	columbia_card_task_fmri	14.0	0.6666666666666667	71.0	-90.0	0.3333333333333333	10.0	8.0	1.0	14.610060479094557	2.57	7.0	stim	poldrack-single-stim	s445	False	1
273.492	1.5	272.741	n/a	-1.0	2.59	columbia_card_task_fmri	n/a	n/a	-1.0	n/a	n/a	n/a	n/a	n/a	n/a	n/a	n/a	ITI	poldrack-single-stim	s445	False	0
275.335	1.586	276.921	1.6193515401848737	draw_card	1.586	columbia_card_task_fmri	16.0	0.8	89.0	-70.0	0.2	10.0	1.0	2.0	0.0183314292442133	1.586	n/a	stim	poldrack-single-stim	s445	False	1
276.924	0.683	277.607	-0.2917595709262377	draw_card	0.683	columbia_card_task_fmri	16.0	0.7777777777777778	89.0	-70.0	0.2222222222222222	10.0	2.0	2.0	1.3675934917468735	0.683	n/a	stim	poldrack-single-stim	s445	False	1
277.611	0.605	278.216	-2.680648459815127	draw_card	0.605	columbia_card_task_fmri	16.0	0.75	89.0	-70.0	0.25	10.0	3.0	2.0	2.8486563904763287	0.605	n/a	stim	poldrack-single-stim	s445	False	1
278.218	0.436	278.654	-5.752077031243698	draw_card	0.436	columbia_card_task_fmri	16.0	0.7142857142857143	89.0	-70.0	0.2857142857142857	10.0	4.0	2.0	4.455994449204638	0.436	4.0	stim	poldrack-single-stim	s445	False	0
279.409	1.5	278.658	n/a	-1.0	2.454	columbia_card_task_fmri	n/a	n/a	-1.0	n/a	n/a	n/a	n/a	n/a	n/a	n/a	n/a	ITI	poldrack-single-stim	s445	False	0
281.115	2.623	283.738	0.9026848735182068	end_round	2.623	columbia_card_task_fmri	7.0	0.9166666666666666	71.0	-100.0	0.0833333333333333	12.0	1.0	1.0	-4.789684711783046	2.623	0.0	stim	poldrack-single-stim	s445	False	1
284.493	1.5	283.742	n/a	-1.0	2.318	columbia_card_task_fmri	n/a	n/a	-1.0	n/a	n/a	n/a	n/a	n/a	n/a	n/a	n/a	ITI	poldrack-single-stim	s445	False	0
286.063	1.331	287.394	1.1526848735182087	draw_card	1.331	columbia_card_task_fmri	14.0	0.8333333333333334	89.0	-80.0	0.1666666666666666	12.0	1.0	2.0	0.6479898880002963	1.331	n/a	stim	poldrack-single-stim	s445	False	1
287.398	0.805	288.203	-0.2715575507242205	draw_card	0.805	columbia_card_task_fmri	14.0	0.8181818181818181	89.0	-80.0	0.1818181818181818	12.0	2.0	2.0	1.8677404830539717	0.805	n/a	stim	poldrack-single-stim	s445	False	1
288.206	0.341	288.547	-1.980648459815126	draw_card	0.341	columbia_card_task_fmri	14.0	0.8	89.0	-80.0	0.2	12.0	3.0	2.0	3.20854395003726	0.341	n/a	stim	poldrack-single-stim	s445	False	1
288.55	0.339	288.889	-4.069537348704016	draw_card	0.339	columbia_card_task_fmri	14.0	0.7777777777777778	89.0	-80.0	0.2222222222222222	12.0	4.0	2.0	4.684091023288048	0.339	n/a	stim	poldrack-single-stim	s445	False	1
288.892	0.642	289.534	-6.680648459815127	draw_card	0.642	columbia_card_task_fmri	14.0	0.75	89.0	-80.0	0.25	12.0	5.0	2.0	6.303710621588998	0.642	5.0	stim	poldrack-single-stim	s445	False	0
290.289	1.5	289.538	n/a	-1.0	2.25	columbia_card_task_fmri	n/a	n/a	-1.0	n/a	n/a	n/a	n/a	n/a	n/a	n/a	n/a	ITI	poldrack-single-stim	s445	False	0
291.792	2.22	294.012	2.819351540184873	draw_card	2.22	columbia_card_task_fmri	15.0	0.8333333333333334	89.0	-75.0	0.1666666666666666	12.0	1.0	2.0	-0.8377053025520951	2.22	n/a	stim	poldrack-single-stim	s445	False	1
294.016	0.23	294.246	1.455715176548508	draw_card	0.23	columbia_card_task_fmri	15.0	0.8181818181818181	89.0	-75.0	0.1818181818181818	12.0	2.0	2.0	0.3298111601679778	0.23	n/a	stim	poldrack-single-stim	s445	False	1
294.248	0.357	294.605	-0.180648459815127	draw_card	0.357	columbia_card_task_fmri	15.0	0.8	89.0	-75.0	0.2	12.0	3.0	2.0	1.6132211862983894	0.357	n/a	stim	poldrack-single-stim	s445	False	1
294.609	0.334	294.943	-2.180648459815125	draw_card	0.334	columbia_card_task_fmri	15.0	0.7777777777777778	89.0	-75.0	0.2222222222222222	12.0	4.0	2.0	3.0256338089001105	0.334	n/a	stim	poldrack-single-stim	s445	False	1
294.946	0.346	295.292	-4.680648459815127	draw_card	0.346	columbia_card_task_fmri	15.0	0.75	89.0	-75.0	0.25	12.0	5.0	2.0	4.575983239507004	0.346	n/a	stim	poldrack-single-stim	s445	False	1
295.296	1.631	296.927	-7.894934174100839	draw_card	1.631	columbia_card_task_fmri	15.0	0.7142857142857143	89.0	-75.0	0.2857142857142857	12.0	6.0	2.0	6.2584807670621885	1.631	n/a	stim	poldrack-single-stim	s445	False	1
296.93	2.13	299.06	-12.180648459815124	draw_card	2.13	columbia_card_task_fmri	15.0	0.6666666666666667	89.0	-75.0	0.3333333333333333	12.0	7.0	2.0	8.022971253228178	2.13	n/a	stim	poldrack-single-stim	s445	False	1
299.062	3.739	302.801	-18.180648459815128	draw_card	3.739	columbia_card_task_fmri	15.0	0.6	89.0	-75.0	0.4	12.0	8.0	2.0	9.68385472923267	3.739	n/a	stim	poldrack-single-stim	s445	False	1
302.803	2.256	305.059	-27.180648459815128	end_round	2.256	columbia_card_task_fmri	15.0	0.5	71.0	-75.0	0.5	12.0	9.0	2.0	10.591223604345975	2.256	8.0	stim	poldrack-single-stim	s445	False	1
305.814	1.5	305.063	n/a	-1.0	2.658	columbia_card_task_fmri	n/a	n/a	-1.0	n/a	n/a	n/a	n/a	n/a	n/a	n/a	n/a	ITI	poldrack-single-stim	s445	False	0
307.725	1.723	309.448	1.819351540184873	draw_card	1.723	columbia_card_task_fmri	15.0	0.8	89.0	-65.0	0.2	15.0	1.0	3.0	-2.37305024325795	1.723	1.0	stim	poldrack-single-stim	s445	False	0
310.202	1.5	309.451	n/a	-1.0	2.454	columbia_card_task_fmri	n/a	n/a	-1.0	n/a	n/a	n/a	n/a	n/a	n/a	n/a	n/a	ITI	poldrack-single-stim	s445	False	0
311.91	0.901	312.811	1.069351540184873	draw_card	0.901	columbia_card_task_fmri	14.0	0.8125	89.0	-70.0	0.1875	16.0	1.0	3.0	-1.589772321835483	0.901	1.0	stim	poldrack-single-stim	s445	False	0
313.566	1.5	312.815	n/a	-1.0	2.386	columbia_card_task_fmri	n/a	n/a	-1.0	n/a	n/a	n/a	n/a	n/a	n/a	n/a	n/a	ITI	poldrack-single-stim	s445	False	0
315.204	0.554	315.758	1.006851540184873	draw_card	0.554	columbia_card_task_fmri	11.0	0.6875	89.0	-30.0	0.3125	16.0	1.0	5.0	-15.285005545164973	0.554	n/a	stim	poldrack-single-stim	s445	False	1
315.762	0.453	316.215	0.1526848735182069	draw_card	0.453	columbia_card_task_fmri	11.0	0.6666666666666667	89.0	-30.0	0.3333333333333333	16.0	2.0	5.0	-14.964874237365656	0.453	n/a	stim	poldrack-single-stim	s445	False	1
316.218	0.42	316.638	-0.8235056026722711	draw_card	0.42	columbia_card_task_fmri	11.0	0.6428571428571428	89.0	-30.0	0.3571428571428571	16.0	3.0	5.0	-14.650281052661974	0.42	n/a	stim	poldrack-single-stim	s445	False	1
316.641	0.338	316.979	-1.9498792290458955	draw_card	0.338	columbia_card_task_fmri	11.0	0.6153846153846154	89.0	-30.0	0.3846153846153846	16.0	4.0	5.0	-14.35207030580366	0.338	4.0	stim	poldrack-single-stim	s445	False	0
317.733	1.5	316.982	n/a	-1.0	2.59	columbia_card_task_fmri	n/a	n/a	-1.0	n/a	n/a	n/a	n/a	n/a	n/a	n/a	n/a	ITI	poldrack-single-stim	s445	False	0
319.577	1.287	320.864	5.819351540184873	draw_card	1.287	columbia_card_task_fmri	15.0	0.8666666666666667	89.0	-75.0	0.1333333333333333	15.0	1.0	2.0	-3.773260417810423	1.287	n/a	stim	poldrack-single-stim	s445	False	1
320.867	0.368	321.235	4.962208683042017	draw_card	0.368	columbia_card_task_fmri	15.0	0.8571428571428572	89.0	-75.0	0.1428571428571428	15.0	2.0	2.0	-2.877624737111077	0.368	n/a	stim	poldrack-single-stim	s445	False	1
321.239	0.344	321.583	3.9731976940310254	draw_card	0.344	columbia_card_task_fmri	15.0	0.8461538461538461	89.0	-75.0	0.1538461538461538	15.0	3.0	2.0	-1.902736561734251	0.344	n/a	stim	poldrack-single-stim	s445	False	1
321.586	0.4	321.986	2.819351540184873	draw_card	0.4	columbia_card_task_fmri	15.0	0.8333333333333334	89.0	-75.0	0.1666666666666666	15.0	4.0	2.0	-0.8377053025520951	0.4	n/a	stim	poldrack-single-stim	s445	False	1
321.99	0.323	322.313	1.455715176548508	draw_card	0.323	columbia_card_task_fmri	15.0	0.8181818181818181	89.0	-75.0	0.1818181818181818	15.0	5.0	2.0	0.3298111601679778	0.323	n/a	stim	poldrack-single-stim	s445	False	1
322.316	0.594	322.91	-0.180648459815127	draw_card	0.594	columbia_card_task_fmri	15.0	0.8	89.0	-75.0	0.2	15.0	6.0	2.0	1.6132211862983894	0.594	6.0	stim	poldrack-single-stim	s445	False	0
323.665	1.5	322.914	n/a	-1.0	2.318	columbia_card_task_fmri	n/a	n/a	-1.0	n/a	n/a	n/a	n/a	n/a	n/a	n/a	n/a	ITI	poldrack-single-stim	s445	False	0
325.237	1.813	327.05	7.552684873518207	draw_card	1.813	columbia_card_task_fmri	17.0	0.8666666666666667	89.0	-75.0	0.1333333333333333	15.0	1.0	2.0	-3.0961977237355534	1.813	n/a	stim	poldrack-single-stim	s445	False	1
327.054	0.186	327.24	6.676494397327732	draw_card	0.186	columbia_card_task_fmri	17.0	0.8571428571428572	89.0	-75.0	0.1428571428571428	15.0	2.0	2.0	-2.1804979047586457	0.186	n/a	stim	poldrack-single-stim	s445	False	1
327.244	0.361	327.605	5.66550538633872	draw_card	0.361	columbia_card_task_fmri	17.0	0.8461538461538461	89.0	-75.0	0.1538461538461538	15.0	3.0	2.0	-1.183780234444704	0.361	n/a	stim	poldrack-single-stim	s445	False	1
327.608	0.492	328.1	4.486018206851541	draw_card	0.492	columbia_card_task_fmri	17.0	0.8333333333333334	89.0	-75.0	0.1666666666666666	15.0	4.0	2.0	-0.0949119627297463	0.492	n/a	stim	poldrack-single-stim	s445	False	1
328.104	0.363	328.467	3.0920788129121446	draw_card	0.363	columbia_card_task_fmri	17.0	0.8181818181818181	89.0	-75.0	0.1818181818181818	15.0	5.0	2.0	1.0987233621061565	0.363	n/a	stim	poldrack-single-stim	s445	False	1
328.471	1.403	329.874	1.4193515401848744	draw_card	1.403	columbia_card_task_fmri	17.0	0.8	89.0	-75.0	0.2	15.0	6.0	2.0	2.410831951318009	1.403	n/a	stim	poldrack-single-stim	s445	False	1
329.878	1.857	331.735	-0.6250929042595681	end_round	1.857	columbia_card_task_fmri	17.0	0.7777777777777778	71.0	-75.0	0.2222222222222222	15.0	7.0	2.0	3.854813683869111	1.857	6.0	stim	poldrack-single-stim	s445	False	1
332.489	1.5	331.738	n/a	-1.0	2.59	columbia_card_task_fmri	n/a	n/a	-1.0	n/a	n/a	n/a	n/a	n/a	n/a	n/a	n/a	ITI	poldrack-single-stim	s445	False	0
334.332	5.296	339.628	3.131851540184873	draw_card	5.296	columbia_card_task_fmri	2.0	0.9375	89.0	-25.0	0.0625	16.0	1.0	1.0	-27.37917343628848	5.296	n/a	stim	poldrack-single-stim	s445	False	1
339.632	0.378	340.01	3.019351540184873	draw_card	0.378	columbia_card_task_fmri	2.0	0.9333333333333332	89.0	-25.0	0.0666666666666666	16.0	2.0	1.0	-27.195725601479303	0.378	n/a	stim	poldrack-single-stim	s445	False	1
340.013	0.322	340.335	2.8907801116134446	draw_card	0.322	columbia_card_task_fmri	2.0	0.9285714285714286	89.0	-25.0	0.0714285714285714	16.0	3.0	1.0	-26.99362443198649	0.322	n/a	stim	poldrack-single-stim	s445	False	1
340.338	0.447	340.785	2.7424284632617963	draw_card	0.447	columbia_card_task_fmri	2.0	0.9230769230769232	89.0	-25.0	0.0769230769230769	16.0	4.0	1.0	-26.76965158295249	0.447	n/a	stim	poldrack-single-stim	s445	False	1
340.788	0.371	341.159	2.569351540184873	draw_card	0.371	columbia_card_task_fmri	2.0	0.9166666666666666	89.0	-25.0	0.0833333333333333	16.0	5.0	1.0	-26.51977646547665	0.371	n/a	stim	poldrack-single-stim	s445	False	1
341.163	1.34	342.503	2.364806085639418	draw_card	1.34	columbia_card_task_fmri	2.0	0.9090909090909092	89.0	-25.0	0.0909090909090909	16.0	6.0	1.0	-26.23888132804189	1.34	n/a	stim	poldrack-single-stim	s445	False	1
342.505	1.036	343.541	2.119351540184873	draw_card	1.036	columbia_card_task_fmri	2.0	0.9	89.0	-25.0	0.1	16.0	7.0	1.0	-25.920369880013936	1.036	7.0	stim	poldrack-single-stim	s445	False	0
344.297	1.5	343.546	n/a	-1.0	2.386	columbia_card_task_fmri	n/a	n/a	-1.0	n/a	n/a	n/a	n/a	n/a	n/a	n/a	n/a	ITI	poldrack-single-stim	s445	False	0
345.937	3.585	349.522	5.319351540184873	end_round	3.585	columbia_card_task_fmri	9.0	0.9375	71.0	-95.0	0.0625	16.0	1.0	1.0	-9.165235872588898	3.585	0.0	stim	poldrack-single-stim	s445	False	1
350.276	1.5	349.525	n/a	-1.0	2.318	columbia_card_task_fmri	n/a	n/a	-1.0	n/a	n/a	n/a	n/a	n/a	n/a	n/a	n/a	ITI	poldrack-single-stim	s445	False	0
351.848	1.685	353.533	6.881851540184873	draw_card	1.685	columbia_card_task_fmri	11.0	0.9375	89.0	-100.0	0.0625	16.0	1.0	1.0	-7.480674632764281	1.685	n/a	stim	poldrack-single-stim	s445	False	1
353.536	0.47	354.006	6.4193515401848735	draw_card	0.47	columbia_card_task_fmri	11.0	0.9333333333333332	89.0	-100.0	0.0666666666666666	16.0	2.0	1.0	-6.665574820938897	0.47	n/a	stim	poldrack-single-stim	s445	False	1
354.009	0.246	354.255	5.890780111613446	draw_card	0.246	columbia_card_task_fmri	11.0	0.9285714285714286	89.0	-100.0	0.0714285714285714	16.0	3.0	1.0	-5.7714470095632	0.246	n/a	stim	poldrack-single-stim	s445	False	1
354.258	0.264	354.522	5.280890001723336	draw_card	0.264	columbia_card_task_fmri	11.0	0.9230769230769232	89.0	-100.0	0.0769230769230769	16.0	4.0	1.0	-4.784845955224988	0.264	n/a	stim	poldrack-single-stim	s445	False	1
354.526	0.454	354.98	4.569351540184873	draw_card	0.454	columbia_card_task_fmri	11.0	0.9166666666666666	89.0	-100.0	0.0833333333333333	16.0	5.0	1.0	-3.688954421736902	0.454	n/a	stim	poldrack-single-stim	s445	False	1
354.984	0.33	355.314	3.728442449275781	draw_card	0.33	columbia_card_task_fmri	11.0	0.9090909090909092	89.0	-100.0	0.0909090909090909	16.0	6.0	1.0	-2.462446585916389	0.33	n/a	stim	poldrack-single-stim	s445	False	1
355.318	0.285	355.603	2.7193515401848734	draw_card	0.285	columbia_card_task_fmri	11.0	0.9	89.0	-100.0	0.1	16.0	7.0	1.0	-1.0778718848170925	0.285	n/a	stim	poldrack-single-stim	s445	False	1
355.607	0.363	355.97	1.486018206851539	draw_card	0.363	columbia_card_task_fmri	11.0	0.8888888888888888	89.0	-100.0	0.1111111111111111	16.0	8.0	1.0	0.5006711171409322	0.363	n/a	stim	poldrack-single-stim	s445	False	1
355.974	0.269	356.243	-0.055648459815127	draw_card	0.269	columbia_card_task_fmri	11.0	0.875	89.0	-100.0	0.125	16.0	9.0	1.0	2.320895594573372	0.269	n/a	stim	poldrack-single-stim	s445	False	1
356.247	0.343	356.59	-2.037791316957983	draw_card	0.343	columbia_card_task_fmri	11.0	0.8571428571428572	89.0	-100.0	0.1428571428571428	16.0	10.0	1.0	4.447086831941135	0.343	n/a	stim	poldrack-single-stim	s445	False	1
356.593	1.16	357.753	-4.680648459815124	draw_card	1.16	columbia_card_task_fmri	11.0	0.8333333333333334	89.0	-100.0	0.1666666666666666	16.0	11.0	1.0	6.966212308660239	1.16	n/a	stim	poldrack-single-stim	s445	False	1
357.757	3.545	361.302	-8.380648459815127	end_round	3.545	columbia_card_task_fmri	11.0	0.8	71.0	-100.0	0.2	16.0	12.0	1.0	9.992413559735212	3.545	11.0	stim	poldrack-single-stim	s445	False	1
362.057	1.5	361.306	n/a	-1.0	2.318	columbia_card_task_fmri	n/a	n/a	-1.0	n/a	n/a	n/a	n/a	n/a	n/a	n/a	n/a	ITI	poldrack-single-stim	s445	False	0
363.628	1.664	365.292	7.444351540184873	draw_card	1.664	columbia_card_task_fmri	16.0	0.875	89.0	-75.0	0.125	16.0	1.0	2.0	-4.269817562440611	1.664	n/a	stim	poldrack-single-stim	s445	False	1
365.295	0.938	366.233	6.68601820685154	draw_card	0.938	columbia_card_task_fmri	16.0	0.8666666666666667	89.0	-75.0	0.1333333333333333	16.0	2.0	2.0	-3.434744396158912	0.938	2.0	stim	poldrack-single-stim	s445	False	0
366.989	1.5	366.238	n/a	-1.0	2.318	columbia_card_task_fmri	n/a	n/a	-1.0	n/a	n/a	n/a	n/a	n/a	n/a	n/a	n/a	ITI	poldrack-single-stim	s445	False	0
368.561	1.384	369.945	7.694351540184873	draw_card	1.384	columbia_card_task_fmri	17.0	0.875	89.0	-80.0	0.125	16.0	1.0	2.0	-2.293622514056125	1.384	n/a	stim	poldrack-single-stim	s445	False	1
369.949	1.051	371.0	6.886018206851541	draw_card	1.051	columbia_card_task_fmri	17.0	0.8666666666666667	89.0	-80.0	0.1333333333333333	16.0	2.0	2.0	-1.4030375260788546	1.051	n/a	stim	poldrack-single-stim	s445	False	1
371.004	0.399	371.403	5.962208683042019	draw_card	0.399	columbia_card_task_fmri	17.0	0.8571428571428572	89.0	-80.0	0.1428571428571428	16.0	3.0	2.0	-0.4371914114413542	0.399	n/a	stim	poldrack-single-stim	s445	False	1
371.407	0.481	371.888	4.89627461710795	draw_card	0.481	columbia_card_task_fmri	17.0	0.8461538461538461	89.0	-80.0	0.1538461538461538	16.0	4.0	2.0	0.6140855616844831	0.481	n/a	stim	poldrack-single-stim	s445	False	1
371.891	0.381	372.272	3.6526848735182087	draw_card	0.381	columbia_card_task_fmri	17.0	0.8333333333333334	89.0	-80.0	0.1666666666666666	16.0	5.0	2.0	1.7625315318993344	0.381	n/a	stim	poldrack-single-stim	s445	False	1
372.276	0.368	372.644	2.1829879038212345	draw_card	0.368	columbia_card_task_fmri	17.0	0.8181818181818181	89.0	-80.0	0.1818181818181818	16.0	6.0	2.0	3.02144877453717	0.368	n/a	stim	poldrack-single-stim	s445	False	1
372.648	0.371	373.019	0.4193515401848744	draw_card	0.371	columbia_card_task_fmri	17.0	0.8	89.0	-80.0	0.2	16.0	7.0	2.0	4.405288138323172	0.371	n/a	stim	poldrack-single-stim	s445	False	1
373.023	0.391	373.414	-1.7362040153706824	draw_card	0.391	columbia_card_task_fmri	17.0	0.7777777777777778	89.0	-80.0	0.2222222222222222	16.0	8.0	2.0	5.928176657178547	0.391	n/a	stim	poldrack-single-stim	s445	False	1
373.417	0.429	373.846	-4.430648459815127	draw_card	0.429	columbia_card_task_fmri	17.0	0.75	89.0	-80.0	0.25	16.0	9.0	2.0	7.599739341856534	0.429	n/a	stim	poldrack-single-stim	s445	False	1
373.85	0.359	374.209	-7.894934174100839	draw_card	0.359	columbia_card_task_fmri	17.0	0.7142857142857143	89.0	-80.0	0.2857142857142857	16.0	10.0	2.0	9.413727746675178	0.359	n/a	stim	poldrack-single-stim	s445	False	1
374.213	0.663	374.876	-12.513981793148456	draw_card	0.663	columbia_card_task_fmri	17.0	0.6666666666666667	89.0	-80.0	0.3333333333333333	16.0	11.0	2.0	11.316063456353724	0.663	n/a	stim	poldrack-single-stim	s445	False	1
374.88	0.664	375.544	-18.98064845981513	draw_card	0.664	columbia_card_task_fmri	17.0	0.6	89.0	-80.0	0.4	16.0	12.0	2.0	13.106653863902544	0.664	n/a	stim	poldrack-single-stim	s445	False	1
375.549	2.832	378.381	-28.680648459815128	end_round	2.832	columbia_card_task_fmri	17.0	0.5	71.0	-80.0	0.5	16.0	13.0	2.0	14.084867430881085	2.832	12.0	stim	poldrack-single-stim	s445	False	1
379.136	1.5	378.385	n/a	-1.0	2.386	columbia_card_task_fmri	n/a	n/a	-1.0	n/a	n/a	n/a	n/a	n/a	n/a	n/a	n/a	ITI	poldrack-single-stim	s445	False	0
391.78	4.033	395.813	1.9860182068515408	draw_card	4.033	columbia_card_task_fmri	13.0	0.8333333333333334	89.0	-70.0	0.1666666666666666	6.0	1.0	1.0	-3.4365150837730667	4.033	n/a	stim	poldrack-single-stim	s445	False	1
395.817	0.645	396.462	-0.7806484598151266	draw_card	0.645	columbia_card_task_fmri	13.0	0.8	89.0	-70.0	0.2	6.0	2.0	1.0	-1.1775143223218336	0.645	n/a	stim	poldrack-single-stim	s445	False	1
396.465	2.023	398.488	-4.930648459815127	draw_card	2.023	columbia_card_task_fmri	13.0	0.75	89.0	-70.0	0.25	6.0	3.0	1.0	1.5534587381431493	2.023	n/a	stim	poldrack-single-stim	s445	False	1
398.491	3.154	401.645	-11.847315126481792	end_round	3.154	columbia_card_task_fmri	13.0	0.6666666666666667	71.0	-70.0	0.3333333333333333	6.0	4.0	1.0	4.731011742269089	3.154	3.0	stim	poldrack-single-stim	s445	False	1
402.401	1.5	401.65	n/a	-1.0	2.25	columbia_card_task_fmri	n/a	n/a	-1.0	n/a	n/a	n/a	n/a	n/a	n/a	n/a	n/a	ITI	poldrack-single-stim	s445	False	0
403.906	1.274	405.18	1.9860182068515408	draw_card	1.274	columbia_card_task_fmri	15.0	0.8333333333333334	89.0	-80.0	0.1666666666666666	6.0	1.0	1.0	1.0194793771197157	1.274	n/a	stim	poldrack-single-stim	s445	False	1
405.183	0.673	405.856	-1.180648459815127	draw_card	0.673	columbia_card_task_fmri	15.0	0.8	89.0	-80.0	0.2	6.0	2.0	1.0	3.607435925207653	0.673	n/a	stim	poldrack-single-stim	s445	False	1
405.86	0.382	406.242	-5.930648459815127	draw_card	0.382	columbia_card_task_fmri	15.0	0.75	89.0	-80.0	0.25	6.0	3.0	1.0	6.73569915035344	0.382	n/a	stim	poldrack-single-stim	s445	False	1
406.245	1.174	407.419	-13.847315126481792	draw_card	1.174	columbia_card_task_fmri	15.0	0.6666666666666667	89.0	-80.0	0.3333333333333333	6.0	4.0	1.0	10.375078928386948	1.174	n/a	stim	poldrack-single-stim	s445	False	1
407.423	0.863	408.286	-29.680648459815128	end_round	0.863	columbia_card_task_fmri	15.0	0.5	71.0	-80.0	0.5	6.0	5.0	1.0	13.086588153542856	0.863	4.0	stim	poldrack-single-stim	s445	False	1
409.042	1.5	408.291	n/a	-1.0	2.386	columbia_card_task_fmri	n/a	n/a	-1.0	n/a	n/a	n/a	n/a	n/a	n/a	n/a	n/a	ITI	poldrack-single-stim	s445	False	0
410.682	1.179	411.861	3.652684873518207	draw_card	1.179	columbia_card_task_fmri	16.0	0.8333333333333334	89.0	-75.0	0.1666666666666666	6.0	1.0	1.0	-0.466322640619687	1.179	n/a	stim	poldrack-single-stim	s445	False	1
411.866	0.367	412.233	0.6193515401848737	draw_card	0.367	columbia_card_task_fmri	16.0	0.8	89.0	-75.0	0.2	6.0	2.0	1.0	2.012013499892113	0.367	2.0	stim	poldrack-single-stim	s445	False	0
412.988	1.5	412.237	n/a	-1.0	2.59	columbia_card_task_fmri	n/a	n/a	-1.0	n/a	n/a	n/a	n/a	n/a	n/a	n/a	n/a	ITI	poldrack-single-stim	s445	False	0
414.833	1.886	416.719	4.819351540184873	draw_card	1.886	columbia_card_task_fmri	21.0	0.75	89.0	-55.0	0.25	8.0	1.0	2.0	-1.467496049785311	1.886	n/a	stim	poldrack-single-stim	s445	False	1
416.724	0.522	417.246	2.1050658258991595	draw_card	0.522	columbia_card_task_fmri	21.0	0.7142857142857143	89.0	-55.0	0.2857142857142857	8.0	2.0	2.0	-0.0481449376585771	0.522	2.0	stim	poldrack-single-stim	s445	False	0
418.002	1.5	417.251	n/a	-1.0	2.658	columbia_card_task_fmri	n/a	n/a	-1.0	n/a	n/a	n/a	n/a	n/a	n/a	n/a	n/a	ITI	poldrack-single-stim	s445	False	0
419.915	1.09	421.005	6.069351540184873	draw_card	1.09	columbia_card_task_fmri	26.0	0.75	89.0	-65.0	0.25	8.0	1.0	2.0	5.007879587633418	1.09	n/a	stim	poldrack-single-stim	s445	False	1
421.009	0.396	421.405	2.8193515401848765	draw_card	0.396	columbia_card_task_fmri	26.0	0.7142857142857143	89.0	-65.0	0.2857142857142857	8.0	2.0	2.0	6.709164341214112	0.396	2.0	stim	poldrack-single-stim	s445	False	0
422.161	1.5	421.41	n/a	-1.0	2.386	columbia_card_task_fmri	n/a	n/a	-1.0	n/a	n/a	n/a	n/a	n/a	n/a	n/a	n/a	ITI	poldrack-single-stim	s445	False	0
423.801	1.119	424.92	1.152684873518207	draw_card	1.119	columbia_card_task_fmri	15.0	0.7777777777777778	89.0	-60.0	0.2222222222222222	9.0	1.0	2.0	-3.1893270536058047	1.119	n/a	stim	poldrack-single-stim	s445	False	1
424.924	0.441	425.365	-0.930648459815127	draw_card	0.441	columbia_card_task_fmri	15.0	0.75	89.0	-60.0	0.25	9.0	2.0	2.0	-1.8989074301939648	0.441	2.0	stim	poldrack-single-stim	s445	False	0
426.12	1.5	425.369	n/a	-1.0	2.386	columbia_card_task_fmri	n/a	n/a	-1.0	n/a	n/a	n/a	n/a	n/a	n/a	n/a	n/a	ITI	poldrack-single-stim	s445	False	0
427.76	2.0	429.76	5.519351540184874	draw_card	2.0	columbia_card_task_fmri	13.0	0.9	89.0	-90.0	0.1	10.0	1.0	1.0	-3.4686554055643803	2.0	1.0	stim	poldrack-single-stim	s445	False	0
430.517	1.5	429.766	n/a	-1.0	2.25	columbia_card_task_fmri	n/a	n/a	-1.0	n/a	n/a	n/a	n/a	n/a	n/a	n/a	n/a	ITI	poldrack-single-stim	s445	False	0
432.022	1.049	433.071	6.819351540184873	draw_card	1.049	columbia_card_task_fmri	15.0	0.9	89.0	-95.0	0.1	10.0	1.0	1.0	-1.376792731372234	1.049	n/a	stim	poldrack-single-stim	s445	False	1
433.075	2.174	435.249	5.59712931796265	draw_card	2.174	columbia_card_task_fmri	15.0	0.8888888888888888	89.0	-95.0	0.1111111111111111	10.0	2.0	1.0	0.1874320831817755	2.174	n/a	stim	poldrack-single-stim	s445	False	1
435.253	1.494	436.747	4.069351540184873	draw_card	1.494	columbia_card_task_fmri	15.0	0.875	89.0	-95.0	0.125	10.0	3.0	1.0	1.9911565322462292	1.494	n/a	stim	poldrack-single-stim	s445	False	1
436.752	1.015	437.767	2.1050658258991595	draw_card	1.015	columbia_card_task_fmri	15.0	0.8571428571428572	89.0	-95.0	0.1428571428571428	10.0	4.0	1.0	4.098086230628056	1.015	4.0	stim	poldrack-single-stim	s445	False	0
438.523	1.5	437.772	n/a	-1.0	2.318	columbia_card_task_fmri	n/a	n/a	-1.0	n/a	n/a	n/a	n/a	n/a	n/a	n/a	n/a	ITI	poldrack-single-stim	s445	False	0
440.096	6.229	446.325	2.6193515401848737	draw_card	6.229	columbia_card_task_fmri	16.0	0.8	89.0	-65.0	0.2	10.0	1.0	2.0	-1.9745748045833904	6.229	n/a	stim	poldrack-single-stim	s445	False	1
446.33	1.518	447.848	0.8193515401848748	draw_card	1.518	columbia_card_task_fmri	16.0	0.7777777777777778	89.0	-65.0	0.2222222222222222	10.0	2.0	2.0	-0.7042771582736549	1.518	n/a	stim	poldrack-single-stim	s445	False	1
447.852	0.769	448.621	-1.430648459815127	draw_card	0.769	columbia_card_task_fmri	16.0	0.75	89.0	-65.0	0.25	10.0	3.0	2.0	0.6901509392894525	0.769	n/a	stim	poldrack-single-stim	s445	False	1
448.625	0.535	449.16	-4.323505602672268	draw_card	0.535	columbia_card_task_fmri	16.0	0.7142857142857143	89.0	-65.0	0.2857142857142857	10.0	4.0	2.0	2.203513007644574	0.535	n/a	stim	poldrack-single-stim	s445	False	1
449.165	0.478	449.643	-8.180648459815124	draw_card	0.478	columbia_card_task_fmri	16.0	0.6666666666666667	89.0	-65.0	0.3333333333333333	10.0	5.0	2.0	3.7907008160983935	0.478	n/a	stim	poldrack-single-stim	s445	False	1
449.647	1.971	451.618	-13.580648459815126	draw_card	1.971	columbia_card_task_fmri	16.0	0.6	89.0	-65.0	0.4	10.0	6.0	2.0	5.284754688600451	1.971	n/a	stim	poldrack-single-stim	s445	False	1
451.623	1.494	453.117	-21.680648459815128	end_round	1.494	columbia_card_task_fmri	16.0	0.5	71.0	-65.0	0.5	10.0	7.0	2.0	6.101004766022747	1.494	6.0	stim	poldrack-single-stim	s445	False	1
453.872	1.5	453.121	n/a	-1.0	2.25	columbia_card_task_fmri	n/a	n/a	-1.0	n/a	n/a	n/a	n/a	n/a	n/a	n/a	n/a	ITI	poldrack-single-stim	s445	False	0
455.376	2.393	457.769	1.319351540184873	draw_card	2.393	columbia_card_task_fmri	7.0	0.9166666666666666	89.0	-95.0	0.0833333333333333	12.0	1.0	1.0	-6.16507069355746	2.393	n/a	stim	poldrack-single-stim	s445	False	1
457.774	0.384	458.158	0.5466242674575996	draw_card	0.384	columbia_card_task_fmri	7.0	0.9090909090909092	89.0	-95.0	0.0909090909090909	12.0	2.0	1.0	-5.038844794617219	0.384	n/a	stim	poldrack-single-stim	s445	False	1
458.161	0.767	458.928	-0.3806484598151272	draw_card	0.767	columbia_card_task_fmri	7.0	0.9	89.0	-95.0	0.1	12.0	3.0	1.0	-3.767402316241192	0.767	n/a	stim	poldrack-single-stim	s445	False	1
458.933	0.391	459.324	-1.513981793148461	draw_card	0.391	columbia_card_task_fmri	7.0	0.8888888888888888	89.0	-95.0	0.1111111111111111	12.0	4.0	1.0	-2.3177566511444283	0.391	n/a	stim	poldrack-single-stim	s445	False	1
459.328	0.386	459.714	-2.930648459815127	draw_card	0.386	columbia_card_task_fmri	7.0	0.875	89.0	-95.0	0.125	12.0	5.0	1.0	-0.6460677236307646	0.386	n/a	stim	poldrack-single-stim	s445	False	1
459.719	0.34	460.059	-4.752077031243698	draw_card	0.34	columbia_card_task_fmri	7.0	0.8571428571428572	89.0	-95.0	0.1428571428571428	12.0	6.0	1.0	1.3067325355181367	0.34	n/a	stim	poldrack-single-stim	s445	False	1
460.063	0.644	460.707	-7.180648459815125	draw_card	0.644	columbia_card_task_fmri	7.0	0.8333333333333334	89.0	-95.0	0.1666666666666666	12.0	7.0	1.0	3.6205554952727823	0.644	7.0	stim	poldrack-single-stim	s445	False	0
461.463	1.5	460.712	n/a	-1.0	2.25	columbia_card_task_fmri	n/a	n/a	-1.0	n/a	n/a	n/a	n/a	n/a	n/a	n/a	n/a	ITI	poldrack-single-stim	s445	False	0
462.966	1.957	464.923	1.9860182068515408	draw_card	1.957	columbia_card_task_fmri	14.0	0.8333333333333334	89.0	-75.0	0.1666666666666666	12.0	1.0	2.0	-1.209059010832604	1.957	n/a	stim	poldrack-single-stim	s445	False	1
464.927	0.711	465.638	0.6375333583666896	draw_card	0.711	columbia_card_task_fmri	14.0	0.8181818181818181	89.0	-75.0	0.1818181818181818	12.0	2.0	2.0	-0.0546034002543294	0.711	n/a	stim	poldrack-single-stim	s445	False	1
465.643	0.38	466.023	-0.980648459815126	draw_card	0.38	columbia_card_task_fmri	14.0	0.8	89.0	-75.0	0.2	12.0	3.0	2.0	1.2144558861856254	0.38	3.0	stim	poldrack-single-stim	s445	False	0
466.779	1.5	466.028	n/a	-1.0	2.386	columbia_card_task_fmri	n/a	n/a	-1.0	n/a	n/a	n/a	n/a	n/a	n/a	n/a	n/a	ITI	poldrack-single-stim	s445	False	0
468.419	1.075	469.494	3.652684873518207	draw_card	1.075	columbia_card_task_fmri	15.0	0.8333333333333334	89.0	-70.0	0.1666666666666666	12.0	1.0	2.0	-2.6941640235510675	1.075	1.0	stim	poldrack-single-stim	s445	False	0
470.249	1.5	469.498	n/a	-1.0	2.386	columbia_card_task_fmri	n/a	n/a	-1.0	n/a	n/a	n/a	n/a	n/a	n/a	n/a	n/a	ITI	poldrack-single-stim	s445	False	0
471.891	0.916	472.807	1.6193515401848737	draw_card	0.916	columbia_card_task_fmri	16.0	0.8	89.0	-70.0	0.2	15.0	1.0	3.0	0.0183314292442133	0.916	n/a	stim	poldrack-single-stim	s445	False	1
472.812	3.287	476.099	0.3907801116134441	draw_card	3.287	columbia_card_task_fmri	16.0	0.7857142857142857	89.0	-70.0	0.2142857142857142	15.0	2.0	3.0	0.9034658900361876	3.287	n/a	stim	poldrack-single-stim	s445	False	1
476.104	0.727	476.831	-1.0268023059689737	draw_card	0.727	columbia_card_task_fmri	16.0	0.7692307692307692	89.0	-70.0	0.2307692307692307	15.0	3.0	3.0	1.8464654110790304	0.727	n/a	stim	poldrack-single-stim	s445	False	1
476.836	0.465	477.301	-2.680648459815127	draw_card	0.465	columbia_card_task_fmri	16.0	0.75	89.0	-70.0	0.25	15.0	4.0	3.0	2.8486563904763287	0.465	n/a	stim	poldrack-single-stim	s445	False	1
477.305	0.442	477.747	-4.63519391436058	draw_card	0.442	columbia_card_task_fmri	16.0	0.7272727272727273	89.0	-70.0	0.2727272727272727	15.0	5.0	3.0	3.907729373171506	0.442	n/a	stim	poldrack-single-stim	s445	False	1
477.752	0.388	478.14	-6.980648459815128	draw_card	0.388	columbia_card_task_fmri	16.0	0.7	89.0	-70.0	0.3	15.0	6.0	3.0	5.013859407543038	0.388	n/a	stim	poldrack-single-stim	s445	False	1
478.144	1.593	479.737	-9.847315126481792	draw_card	1.593	columbia_card_task_fmri	16.0	0.6666666666666667	89.0	-70.0	0.3333333333333333	15.0	7.0	3.0	6.141695178163928	1.593	n/a	stim	poldrack-single-stim	s445	False	1
479.742	1.27	481.012	-13.430648459815128	draw_card	1.27	columbia_card_task_fmri	16.0	0.625	89.0	-70.0	0.375	15.0	8.0	3.0	7.232910975367922	1.27	8.0	stim	poldrack-single-stim	s445	False	0
481.768	1.5	481.017	n/a	-1.0	2.726	columbia_card_task_fmri	n/a	n/a	-1.0	n/a	n/a	n/a	n/a	n/a	n/a	n/a	n/a	ITI	poldrack-single-stim	s445	False	0
483.749	4.921	488.67	2.006851540184873	draw_card	4.921	columbia_card_task_fmri	14.0	0.8125	89.0	-65.0	0.1875	16.0	1.0	3.0	-3.5337070028687343	4.921	n/a	stim	poldrack-single-stim	s445	False	1
488.675	1.265	489.94	1.019351540184874	draw_card	1.265	columbia_card_task_fmri	14.0	0.8	89.0	-65.0	0.2	16.0	2.0	3.0	-2.7714873113893432	1.265	n/a	stim	poldrack-single-stim	s445	False	1
489.945	0.513	490.458	-0.109219888386554	draw_card	0.513	columbia_card_task_fmri	14.0	0.7857142857142857	89.0	-65.0	0.2142857142857142	16.0	3.0	3.0	-1.9588876923423089	0.513	n/a	stim	poldrack-single-stim	s445	False	1
490.462	0.54	491.002	-1.4114176905843587	draw_card	0.54	columbia_card_task_fmri	14.0	0.7692307692307692	89.0	-65.0	0.2307692307692307	16.0	4.0	3.0	-1.093138744943687	0.54	n/a	stim	poldrack-single-stim	s445	False	1
491.007	0.461	491.468	-2.930648459815127	draw_card	0.461	columbia_card_task_fmri	14.0	0.75	89.0	-65.0	0.25	16.0	5.0	3.0	-0.1730199391798592	0.461	n/a	stim	poldrack-single-stim	s445	False	1
491.473	1.137	492.61	-4.726103005269672	draw_card	1.137	columbia_card_task_fmri	14.0	0.7272727272727273	89.0	-65.0	0.2727272727272727	16.0	6.0	3.0	0.7993508981019772	1.137	6.0	stim	poldrack-single-stim	s445	False	0
493.366	1.5	492.615	n/a	-1.0	2.454	columbia_card_task_fmri	n/a	n/a	-1.0	n/a	n/a	n/a	n/a	n/a	n/a	n/a	n/a	ITI	poldrack-single-stim	s445	False	0
495.074	1.704	496.778	1.756851540184873	draw_card	1.704	columbia_card_task_fmri	16.0	0.8125	89.0	-75.0	0.1875	16.0	1.0	3.0	1.1331371982694591	1.704	n/a	stim	poldrack-single-stim	s445	False	1
496.783	0.728	497.511	0.6193515401848737	draw_card	0.728	columbia_card_task_fmri	16.0	0.8	89.0	-75.0	0.2	16.0	2.0	3.0	2.012013499892113	0.728	n/a	stim	poldrack-single-stim	s445	False	1
497.516	0.398	497.914	-0.6806484598151252	draw_card	0.398	columbia_card_task_fmri	16.0	0.7857142857142857	89.0	-75.0	0.2142857142857142	16.0	3.0	3.0	2.9489350180730227	0.398	n/a	stim	poldrack-single-stim	s445	False	1
497.918	0.362	498.28	-2.1806484598151306	draw_card	0.362	columbia_card_task_fmri	16.0	0.7692307692307692	89.0	-75.0	0.2307692307692307	16.0	4.0	3.0	3.947089674302042	0.362	n/a	stim	poldrack-single-stim	s445	False	1
498.284	0.329	498.613	-3.930648459815127	draw_card	0.329	columbia_card_task_fmri	16.0	0.75	89.0	-75.0	0.25	16.0	5.0	3.0	5.007879587633418	0.329	n/a	stim	poldrack-single-stim	s445	False	1
498.619	0.433	499.052	-5.998830277996944	draw_card	0.433	columbia_card_task_fmri	16.0	0.7272727272727273	89.0	-75.0	0.2727272727272727	16.0	6.0	3.0	6.128858602129213	0.433	n/a	stim	poldrack-single-stim	s445	False	1
499.056	0.42	499.476	-8.480648459815129	draw_card	0.42	columbia_card_task_fmri	16.0	0.7	89.0	-75.0	0.3	16.0	7.0	3.0	7.299626284619599	0.42	n/a	stim	poldrack-single-stim	s445	False	1
499.482	3.576	503.058	-11.51398179314846	draw_card	3.576	columbia_card_task_fmri	16.0	0.6666666666666667	89.0	-75.0	0.3333333333333333	16.0	8.0	3.0	8.493349718085192	3.576	n/a	stim	poldrack-single-stim	s445	False	1
503.063	1.914	504.977	-15.305648459815128	draw_card	1.914	columbia_card_task_fmri	16.0	0.625	89.0	-75.0	0.375	16.0	9.0	3.0	9.648297600812455	1.914	9.0	stim	poldrack-single-stim	s445	False	0
505.732	1.5	504.981	n/a	-1.0	2.318	columbia_card_task_fmri	n/a	n/a	-1.0	n/a	n/a	n/a	n/a	n/a	n/a	n/a	n/a	ITI	poldrack-single-stim	s445	False	0
507.305	2.052	509.357	6.019351540184874	draw_card	2.052	columbia_card_task_fmri	16.0	0.8666666666666667	89.0	-80.0	0.1333333333333333	15.0	1.0	2.0	-1.7417235353198492	2.052	n/a	stim	poldrack-single-stim	s445	False	1
509.362	0.759	510.121	5.105065825899161	draw_card	0.759	columbia_card_task_fmri	16.0	0.8571428571428572	89.0	-80.0	0.1428571428571428	15.0	2.0	2.0	-0.7859051722084445	0.759	n/a	stim	poldrack-single-stim	s445	False	1
510.125	0.366	510.491	4.050120770954103	draw_card	0.366	columbia_card_task_fmri	16.0	0.8461538461538461	89.0	-80.0	0.1538461538461538	15.0	3.0	2.0	0.2544614890849033	0.366	3.0	stim	poldrack-single-stim	s445	False	0
511.247	1.5	510.496	n/a	-1.0	2.318	columbia_card_task_fmri	n/a	n/a	-1.0	n/a	n/a	n/a	n/a	n/a	n/a	n/a	n/a	ITI	poldrack-single-stim	s445	False	0
512.819	1.004	513.823	6.886018206851541	draw_card	1.004	columbia_card_task_fmri	17.0	0.8666666666666667	89.0	-80.0	0.1333333333333333	15.0	1.0	2.0	-1.4030375260788546	1.004	1.0	stim	poldrack-single-stim	s445	False	0
514.58	1.5	513.829	n/a	-1.0	2.59	columbia_card_task_fmri	n/a	n/a	-1.0	n/a	n/a	n/a	n/a	n/a	n/a	n/a	n/a	ITI	poldrack-single-stim	s445	False	0
516.425	4.541	520.966	2.819351540184873	end_round	4.541	columbia_card_task_fmri	1.0	0.9375	71.0	-15.0	0.0625	16.0	1.0	1.0	-29.70652462088018	4.541	0.0	stim	poldrack-single-stim	s445	False	1
521.722	1.5	520.971	n/a	-1.0	2.726	columbia_card_task_fmri	n/a	n/a	-1.0	n/a	n/a	n/a	n/a	n/a	n/a	n/a	n/a	ITI	poldrack-single-stim	s445	False	0
523.704	1.891	525.595	5.944351540184873	draw_card	1.891	columbia_card_task_fmri	10.0	0.9375	89.0	-100.0	0.0625	16.0	1.0	1.0	-7.721402489242063	1.891	n/a	stim	poldrack-single-stim	s445	False	1
525.599	1.15	526.749	5.48601820685154	draw_card	1.15	columbia_card_task_fmri	10.0	0.9333333333333332	89.0	-100.0	0.0666666666666666	16.0	2.0	1.0	-6.913723889577327	1.15	n/a	stim	poldrack-single-stim	s445	False	1
526.754	0.715	527.469	4.962208683042017	draw_card	0.715	columbia_card_task_fmri	10.0	0.9285714285714286	89.0	-100.0	0.0714285714285714	16.0	3.0	1.0	-6.027731725436677	0.715	n/a	stim	poldrack-single-stim	s445	False	1
527.474	0.341	527.815	4.357813078646412	draw_card	0.341	columbia_card_task_fmri	10.0	0.9230769230769232	89.0	-100.0	0.0769230769230769	16.0	4.0	1.0	-5.050102112407327	0.341	n/a	stim	poldrack-single-stim	s445	False	1
527.82	0.396	528.216	3.652684873518207	draw_card	0.396	columbia_card_task_fmri	10.0	0.9166666666666666	89.0	-100.0	0.0833333333333333	16.0	5.0	1.0	-3.964169587367572	0.396	n/a	stim	poldrack-single-stim	s445	False	1
528.221	0.39	528.611	2.819351540184871	draw_card	0.39	columbia_card_task_fmri	10.0	0.9090909090909092	89.0	-100.0	0.0909090909090909	16.0	6.0	1.0	-2.7488007607533547	0.39	n/a	stim	poldrack-single-stim	s445	False	1
528.616	0.35	528.966	1.819351540184873	draw_card	0.35	columbia_card_task_fmri	10.0	0.9	89.0	-100.0	0.1	16.0	7.0	1.0	-1.376792731372234	0.35	7.0	stim	poldrack-single-stim	s445	False	0
529.722	1.5	528.971	n/a	-1.0	2.522	columbia_card_task_fmri	n/a	n/a	-1.0	n/a	n/a	n/a	n/a	n/a	n/a	n/a	n/a	ITI	poldrack-single-stim	s445	False	0
531.5	1.187	532.687	6.569351540184873	draw_card	1.187	columbia_card_task_fmri	15.0	0.875	89.0	-75.0	0.125	16.0	1.0	2.0	-4.599078847962602	1.187	n/a	stim	poldrack-single-stim	s445	False	1
532.693	0.759	533.452	5.819351540184873	draw_card	0.759	columbia_card_task_fmri	15.0	0.8666666666666667	89.0	-75.0	0.1333333333333333	16.0	2.0	2.0	-3.773260417810423	0.759	n/a	stim	poldrack-single-stim	s445	False	1
533.457	0.546	534.003	4.962208683042017	draw_card	0.546	columbia_card_task_fmri	15.0	0.8571428571428572	89.0	-75.0	0.1428571428571428	16.0	3.0	2.0	-2.877624737111077	0.546	n/a	stim	poldrack-single-stim	s445	False	1
534.008	2.168	536.176	3.9731976940310254	draw_card	2.168	columbia_card_task_fmri	15.0	0.8461538461538461	89.0	-75.0	0.1538461538461538	16.0	4.0	2.0	-1.902736561734251	2.168	n/a	stim	poldrack-single-stim	s445	False	1
536.18	1.105	537.285	2.819351540184873	draw_card	1.105	columbia_card_task_fmri	15.0	0.8333333333333334	89.0	-75.0	0.1666666666666666	16.0	5.0	2.0	-0.8377053025520951	1.105	5.0	stim	poldrack-single-stim	s445	False	0
538.042	1.5	537.291	n/a	-1.0	3.134	columbia_card_task_fmri	n/a	n/a	-1.0	n/a	n/a	n/a	n/a	n/a	n/a	n/a	n/a	ITI	poldrack-single-stim	s445	False	0
540.431	1.168	541.599	6.819351540184873	draw_card	1.168	columbia_card_task_fmri	16.0	0.875	89.0	-80.0	0.125	16.0	1.0	2.0	-2.6230584080760657	1.168	n/a	stim	poldrack-single-stim	s445	False	1
541.604	0.245	541.849	6.019351540184874	draw_card	0.245	columbia_card_task_fmri	16.0	0.8666666666666667	89.0	-80.0	0.1333333333333333	16.0	2.0	2.0	-1.7417235353198492	0.245	n/a	stim	poldrack-single-stim	s445	False	1
541.853	0.258	542.111	5.105065825899161	draw_card	0.258	columbia_card_task_fmri	16.0	0.8571428571428572	89.0	-80.0	0.1428571428571428	16.0	3.0	2.0	-0.7859051722084445	0.258	n/a	stim	poldrack-single-stim	s445	False	1
542.116	0.228	542.344	4.050120770954103	draw_card	0.228	columbia_card_task_fmri	16.0	0.8461538461538461	89.0	-80.0	0.1538461538461538	16.0	4.0	2.0	0.2544614890849033	0.228	n/a	stim	poldrack-single-stim	s445	False	1
542.349	0.496	542.845	2.8193515401848748	draw_card	0.496	columbia_card_task_fmri	16.0	0.8333333333333334	89.0	-80.0	0.1666666666666666	16.0	5.0	2.0	1.3909935109281122	0.496	n/a	stim	poldrack-single-stim	s445	False	1
542.851	0.286	543.137	1.3648060856394162	draw_card	0.286	columbia_card_task_fmri	16.0	0.8181818181818181	89.0	-80.0	0.1818181818181818	16.0	6.0	2.0	2.6368560046077505	0.286	n/a	stim	poldrack-single-stim	s445	False	1
543.141	0.328	543.469	-0.3806484598151263	draw_card	0.328	columbia_card_task_fmri	16.0	0.8	89.0	-80.0	0.2	16.0	7.0	2.0	4.006350890382187	0.328	n/a	stim	poldrack-single-stim	s445	False	1
543.473	0.926	544.399	-2.513981793148461	draw_card	0.926	columbia_card_task_fmri	16.0	0.7777777777777778	89.0	-80.0	0.2222222222222222	16.0	8.0	2.0	5.513459766864038	0.926	n/a	stim	poldrack-single-stim	s445	False	1
544.403	0.735	545.138	-5.180648459815127	draw_card	0.735	columbia_card_task_fmri	16.0	0.75	89.0	-80.0	0.25	16.0	9.0	2.0	7.167708941982006	0.735	n/a	stim	poldrack-single-stim	s445	False	1
545.143	2.262	547.405	-8.609219888386551	draw_card	2.262	columbia_card_task_fmri	16.0	0.7142857142857143	89.0	-80.0	0.2857142857142857	16.0	10.0	2.0	8.96291560613534	2.262	n/a	stim	poldrack-single-stim	s445	False	1
547.409	2.624	550.033	-13.180648459815124	draw_card	2.624	columbia_card_task_fmri	16.0	0.6666666666666667	89.0	-80.0	0.3333333333333333	16.0	11.0	2.0	10.84556171726068	2.624	n/a	stim	poldrack-single-stim	s445	False	1
550.037	1.985	552.022	-19.580648459815126	draw_card	1.985	columbia_card_task_fmri	16.0	0.6	89.0	-80.0	0.4	16.0	12.0	2.0	12.617624802221158	1.985	12.0	stim	poldrack-single-stim	s445	False	0
552.778	1.5	552.027	n/a	-1.0	2.386	columbia_card_task_fmri	n/a	n/a	-1.0	n/a	n/a	n/a	n/a	n/a	n/a	n/a	n/a	ITI	poldrack-single-stim	s445	False	0
554.42	1.832	556.252	4.006851540184873	end_round	1.832	columbia_card_task_fmri	4.0	0.6875	71.0	-5.0	0.3125	16.0	1.0	5.0	-29.46202298135561	1.832	0.0	stim	poldrack-single-stim	s445	False	1
557.008	1.5	556.257	n/a	-1.0	2.386	columbia_card_task_fmri	n/a	n/a	-1.0	n/a	n/a	n/a	n/a	n/a	n/a	n/a	n/a	ITI	poldrack-single-stim	s445	False	0
558.65	1.17	559.82	1.1526848735182087	draw_card	1.17	columbia_card_task_fmri	14.0	0.8333333333333334	89.0	-80.0	0.1666666666666666	6.0	1.0	1.0	0.6479898880002963	1.17	n/a	stim	poldrack-single-stim	s445	False	1
559.825	1.602	561.427	-1.980648459815126	draw_card	1.602	columbia_card_task_fmri	14.0	0.8	89.0	-80.0	0.2	6.0	2.0	1.0	3.20854395003726	1.602	n/a	stim	poldrack-single-stim	s445	False	1
561.433	1.762	563.195	-6.680648459815127	draw_card	1.762	columbia_card_task_fmri	14.0	0.75	89.0	-80.0	0.25	6.0	3.0	1.0	6.303710621588998	1.762	n/a	stim	poldrack-single-stim	s445	False	1
563.2	1.53	564.73	-14.513981793148456	end_round	1.53	columbia_card_task_fmri	14.0	0.6666666666666667	71.0	-80.0	0.3333333333333333	6.0	4.0	1.0	9.904615692126164	1.53	3.0	stim	poldrack-single-stim	s445	False	1
565.486	1.5	564.735	n/a	-1.0	2.318	columbia_card_task_fmri	n/a	n/a	-1.0	n/a	n/a	n/a	n/a	n/a	n/a	n/a	n/a	ITI	poldrack-single-stim	s445	False	0
567.058	1.05	568.108	2.819351540184873	draw_card	1.05	columbia_card_task_fmri	15.0	0.8333333333333334	89.0	-75.0	0.1666666666666666	6.0	1.0	1.0	-0.8377053025520951	1.05	n/a	stim	poldrack-single-stim	s445	False	1
568.116	0.731	568.847	-0.180648459815127	draw_card	0.731	columbia_card_task_fmri	15.0	0.8	89.0	-75.0	0.2	6.0	2.0	1.0	1.6132211862983894	0.731	2.0	stim	poldrack-single-stim	s445	False	0
569.603	1.5	568.852	n/a	-1.0	2.318	columbia_card_task_fmri	n/a	n/a	-1.0	n/a	n/a	n/a	n/a	n/a	n/a	n/a	n/a	ITI	poldrack-single-stim	s445	False	0
571.176	0.832	572.008	4.486018206851541	draw_card	0.832	columbia_card_task_fmri	16.0	0.8333333333333334	89.0	-70.0	0.1666666666666666	6.0	1.0	1.0	-2.322936388645388	0.832	1.0	stim	poldrack-single-stim	s445	False	0
572.763	1.5	572.012	n/a	-1.0	2.862	columbia_card_task_fmri	n/a	n/a	-1.0	n/a	n/a	n/a	n/a	n/a	n/a	n/a	n/a	ITI	poldrack-single-stim	s445	False	0
574.881	1.294	576.175	5.069351540184873	draw_card	1.294	columbia_card_task_fmri	23.0	0.75	89.0	-60.0	0.25	8.0	1.0	2.0	1.5534587381431493	1.294	n/a	stim	poldrack-single-stim	s445	False	1
576.179	0.844	577.023	2.105065825899161	draw_card	0.844	columbia_card_task_fmri	23.0	0.7142857142857143	89.0	-60.0	0.2857142857142857	8.0	2.0	2.0	3.1044150510886865	0.844	2.0	stim	poldrack-single-stim	s445	False	0
577.78	1.5	577.029	n/a	-1.0	2.726	columbia_card_task_fmri	n/a	n/a	-1.0	n/a	n/a	n/a	n/a	n/a	n/a	n/a	n/a	ITI	poldrack-single-stim	s445	False	0
579.76	0.855	580.615	5.569351540184873	draw_card	0.855	columbia_card_task_fmri	27.0	0.75	89.0	-70.0	0.25	8.0	1.0	2.0	7.599739341856534	0.855	n/a	stim	poldrack-single-stim	s445	False	1
580.62	1.678	582.298	2.1050658258991577	draw_card	1.678	columbia_card_task_fmri	27.0	0.7142857142857143	89.0	-70.0	0.2857142857142857	8.0	2.0	2.0	9.413727746675178	1.678	n/a	stim	poldrack-single-stim	s445	False	1
582.302	1.042	583.344	-2.513981793148456	draw_card	1.042	columbia_card_task_fmri	27.0	0.6666666666666667	89.0	-70.0	0.3333333333333333	8.0	3.0	2.0	11.316063456353724	1.042	n/a	stim	poldrack-single-stim	s445	False	1
583.349	4.005	587.354	-8.980648459815129	draw_card	4.005	columbia_card_task_fmri	27.0	0.6	89.0	-70.0	0.4	8.0	4.0	2.0	13.106653863902544	4.005	4.0	stim	poldrack-single-stim	s445	False	0
588.11	1.5	587.359	n/a	-1.0	2.25	columbia_card_task_fmri	n/a	n/a	-1.0	n/a	n/a	n/a	n/a	n/a	n/a	n/a	n/a	ITI	poldrack-single-stim	s445	False	0
589.616	1.764	591.38	0.8193515401848748	draw_card	1.764	columbia_card_task_fmri	16.0	0.7777777777777778	89.0	-65.0	0.2222222222222222	9.0	1.0	2.0	-0.7042771582736549	1.764	n/a	stim	poldrack-single-stim	s445	False	1
591.385	1.17	592.555	-1.430648459815127	draw_card	1.17	columbia_card_task_fmri	16.0	0.75	89.0	-65.0	0.25	9.0	2.0	2.0	0.6901509392894525	1.17	2.0	stim	poldrack-single-stim	s445	False	0
593.311	1.5	592.56	n/a	-1.0	2.318	columbia_card_task_fmri	n/a	n/a	-1.0	n/a	n/a	n/a	n/a	n/a	n/a	n/a	n/a	ITI	poldrack-single-stim	s445	False	0
594.884	3.305	598.189	6.019351540184874	draw_card	3.305	columbia_card_task_fmri	13.0	0.9	89.0	-85.0	0.1	10.0	1.0	1.0	-4.96213592481763	3.305	n/a	stim	poldrack-single-stim	s445	False	1
598.195	1.136	599.331	4.930462651295984	draw_card	1.136	columbia_card_task_fmri	13.0	0.8888888888888888	89.0	-85.0	0.1111111111111111	10.0	2.0	1.0	-3.569805170505653	1.136	n/a	stim	poldrack-single-stim	s445	False	1
599.335	0.438	599.773	3.569351540184873	draw_card	0.438	columbia_card_task_fmri	13.0	0.875	89.0	-85.0	0.125	10.0	3.0	1.0	-1.9641605850560069	0.438	3.0	stim	poldrack-single-stim	s445	False	0
600.529	1.5	599.778	n/a	-1.0	2.454	columbia_card_task_fmri	n/a	n/a	-1.0	n/a	n/a	n/a	n/a	n/a	n/a	n/a	n/a	ITI	poldrack-single-stim	s445	False	0
602.239	1.627	603.866	1.019351540184874	draw_card	1.627	columbia_card_task_fmri	14.0	0.8	89.0	-65.0	0.2	10.0	1.0	2.0	-2.7714873113893432	1.627	n/a	stim	poldrack-single-stim	s445	False	1
603.871	0.428	604.299	-0.7362040153706806	draw_card	0.428	columbia_card_task_fmri	14.0	0.7777777777777778	89.0	-65.0	0.2222222222222222	10.0	2.0	2.0	-1.5327846986844378	0.428	n/a	stim	poldrack-single-stim	s445	False	1
604.305	0.397	604.702	-2.930648459815127	draw_card	0.397	columbia_card_task_fmri	14.0	0.75	89.0	-65.0	0.25	10.0	3.0	2.0	-0.1730199391798592	0.397	3.0	stim	poldrack-single-stim	s445	False	0
605.459	1.5	604.708	n/a	-1.0	2.522	columbia_card_task_fmri	n/a	n/a	-1.0	n/a	n/a	n/a	n/a	n/a	n/a	n/a	n/a	ITI	poldrack-single-stim	s445	False	0
607.235	0.812	608.047	2.4193515401848744	draw_card	0.812	columbia_card_task_fmri	17.0	0.8	89.0	-70.0	0.2	10.0	1.0	2.0	0.4170100287061018	0.812	n/a	stim	poldrack-single-stim	s445	False	1
608.052	0.503	608.555	0.4860182068515408	draw_card	0.503	columbia_card_task_fmri	17.0	0.7777777777777778	89.0	-70.0	0.2222222222222222	10.0	2.0	2.0	1.7820613607581637	0.503	n/a	stim	poldrack-single-stim	s445	False	1
608.56	0.316	608.876	-1.930648459815127	draw_card	0.316	columbia_card_task_fmri	17.0	0.75	89.0	-70.0	0.25	10.0	3.0	2.0	3.280447547923273	0.316	n/a	stim	poldrack-single-stim	s445	False	1
608.882	0.399	609.281	-5.037791316957985	draw_card	0.399	columbia_card_task_fmri	17.0	0.7142857142857143	89.0	-70.0	0.2857142857142857	10.0	4.0	2.0	4.906577130270563	0.399	n/a	stim	poldrack-single-stim	s445	False	1
609.292	0.798	610.09	-9.180648459815124	draw_card	0.798	columbia_card_task_fmri	17.0	0.6666666666666667	89.0	-70.0	0.3333333333333333	10.0	5.0	2.0	6.611976896970511	0.798	n/a	stim	poldrack-single-stim	s445	False	1
610.095	0.786	610.881	-14.980648459815129	draw_card	0.786	columbia_card_task_fmri	17.0	0.6	89.0	-70.0	0.4	10.0	6.0	2.0	8.217259349495208	0.786	6.0	stim	poldrack-single-stim	s445	False	0
611.638	1.5	610.887	n/a	-1.0	2.318	columbia_card_task_fmri	n/a	n/a	-1.0	n/a	n/a	n/a	n/a	n/a	n/a	n/a	n/a	ITI	poldrack-single-stim	s445	False	0
613.211	0.847	614.058	1.152684873518207	draw_card	0.847	columbia_card_task_fmri	13.0	0.8333333333333334	89.0	-75.0	0.1666666666666666	12.0	1.0	2.0	-1.5803827855266874	0.847	1.0	stim	poldrack-single-stim	s445	False	0
614.813	1.5	614.062	n/a	-1.0	2.522	columbia_card_task_fmri	n/a	n/a	-1.0	n/a	n/a	n/a	n/a	n/a	n/a	n/a	n/a	ITI	poldrack-single-stim	s445	False	0
616.59	1.629	618.219	2.8193515401848748	draw_card	1.629	columbia_card_task_fmri	14.0	0.8333333333333334	89.0	-70.0	0.1666666666666666	12.0	1.0	2.0	-3.065357332148896	1.629	n/a	stim	poldrack-single-stim	s445	False	1
618.225	0.84	619.065	1.5466242674575978	draw_card	0.84	columbia_card_task_fmri	14.0	0.8181818181818181	89.0	-70.0	0.1818181818181818	12.0	2.0	2.0	-1.976221516329602	0.84	n/a	stim	poldrack-single-stim	s445	False	1
619.071	0.66	619.731	0.019351540184874	draw_card	0.66	columbia_card_task_fmri	14.0	0.8	89.0	-70.0	0.2	12.0	3.0	2.0	-0.7789318696815215	0.66	n/a	stim	poldrack-single-stim	s445	False	1
619.738	0.8	620.538	-1.847315126481793	draw_card	0.8	columbia_card_task_fmri	14.0	0.7777777777777778	89.0	-70.0	0.2222222222222222	12.0	4.0	2.0	0.5387481664771343	0.8	4.0	stim	poldrack-single-stim	s445	False	0
621.295	1.5	620.544	n/a	-1.0	2.998	columbia_card_task_fmri	n/a	n/a	-1.0	n/a	n/a	n/a	n/a	n/a	n/a	n/a	n/a	ITI	poldrack-single-stim	s445	False	0
623.549	0.807	624.356	2.8193515401848748	draw_card	0.807	columbia_card_task_fmri	16.0	0.8333333333333334	89.0	-80.0	0.1666666666666666	12.0	1.0	2.0	1.3909935109281122	0.807	n/a	stim	poldrack-single-stim	s445	False	1
624.362	0.495	624.857	1.3648060856394162	draw_card	0.495	columbia_card_task_fmri	16.0	0.8181818181818181	89.0	-80.0	0.1818181818181818	12.0	2.0	2.0	2.6368560046077505	0.495	n/a	stim	poldrack-single-stim	s445	False	1
624.863	0.458	625.321	-0.3806484598151263	draw_card	0.458	columbia_card_task_fmri	16.0	0.8	89.0	-80.0	0.2	12.0	3.0	2.0	4.006350890382187	0.458	n/a	stim	poldrack-single-stim	s445	False	1
625.327	1.222	626.549	-2.513981793148461	draw_card	1.222	columbia_card_task_fmri	16.0	0.7777777777777778	89.0	-80.0	0.2222222222222222	12.0	4.0	2.0	5.513459766864038	1.222	n/a	stim	poldrack-single-stim	s445	False	1
626.554	1.476	628.03	-5.180648459815127	draw_card	1.476	columbia_card_task_fmri	16.0	0.75	89.0	-80.0	0.25	12.0	5.0	2.0	7.167708941982006	1.476	n/a	stim	poldrack-single-stim	s445	False	1
628.038	1.932	629.97	-8.609219888386551	draw_card	1.932	columbia_card_task_fmri	16.0	0.7142857142857143	89.0	-80.0	0.2857142857142857	12.0	6.0	2.0	8.96291560613534	1.932	n/a	stim	poldrack-single-stim	s445	False	1
629.976	2.346	632.322	-13.180648459815124	draw_card	2.346	columbia_card_task_fmri	16.0	0.6666666666666667	89.0	-80.0	0.3333333333333333	12.0	7.0	2.0	10.84556171726068	2.346	7.0	stim	poldrack-single-stim	s445	False	0
633.079	1.5	632.328	n/a	-1.0	2.318	columbia_card_task_fmri	n/a	n/a	-1.0	n/a	n/a	n/a	n/a	n/a	n/a	n/a	n/a	ITI	poldrack-single-stim	s445	False	0
634.653	1.961	636.614	2.6193515401848737	draw_card	1.961	columbia_card_task_fmri	16.0	0.8	89.0	-65.0	0.2	15.0	1.0	3.0	-1.9745748045833904	1.961	n/a	stim	poldrack-single-stim	s445	False	1
636.62	0.613	637.233	1.4622086830420171	draw_card	0.613	columbia_card_task_fmri	16.0	0.7857142857142857	89.0	-65.0	0.2142857142857142	15.0	2.0	3.0	-1.1412465469837727	0.613	n/a	stim	poldrack-single-stim	s445	False	1
637.24	0.423	637.663	0.1270438478771796	draw_card	0.423	columbia_card_task_fmri	16.0	0.7692307692307692	89.0	-65.0	0.2307692307692307	15.0	3.0	3.0	-0.2534215520905363	0.423	3.0	stim	poldrack-single-stim	s445	False	0
638.42	1.5	637.669	n/a	-1.0	2.25	columbia_card_task_fmri	n/a	n/a	-1.0	n/a	n/a	n/a	n/a	n/a	n/a	n/a	n/a	ITI	poldrack-single-stim	s445	False	0
639.925	0.851	640.776	0.944351540184873	draw_card	0.851	columbia_card_task_fmri	15.0	0.8125	89.0	-75.0	0.1875	16.0	1.0	3.0	0.7440622034235815	0.851	n/a	stim	poldrack-single-stim	s445	False	1
640.782	0.409	641.191	-0.180648459815127	draw_card	0.409	columbia_card_task_fmri	15.0	0.8	89.0	-75.0	0.2	16.0	2.0	3.0	1.6132211862983894	0.409	n/a	stim	poldrack-single-stim	s445	False	1
641.198	2.485	643.683	-1.4663627455294117	draw_card	2.485	columbia_card_task_fmri	15.0	0.7857142857142857	89.0	-75.0	0.2142857142857142	16.0	3.0	3.0	2.5397866743563	2.485	n/a	stim	poldrack-single-stim	s445	False	1
643.687	0.947	644.634	-2.9498792290459006	draw_card	0.947	columbia_card_task_fmri	15.0	0.7692307692307692	89.0	-75.0	0.2307692307692307	16.0	4.0	3.0	3.5269117024441243	0.947	4.0	stim	poldrack-single-stim	s445	False	0
645.392	1.5	644.641	n/a	-1.0	2.454	columbia_card_task_fmri	n/a	n/a	-1.0	n/a	n/a	n/a	n/a	n/a	n/a	n/a	n/a	ITI	poldrack-single-stim	s445	False	0
647.103	0.505	647.608	1.506851540184873	draw_card	0.505	columbia_card_task_fmri	14.0	0.6875	89.0	-35.0	0.3125	16.0	1.0	5.0	-11.610581257443377	0.505	1.0	stim	poldrack-single-stim	s445	False	0
648.366	1.5	647.615	n/a	-1.0	2.318	columbia_card_task_fmri	n/a	n/a	-1.0	n/a	n/a	n/a	n/a	n/a	n/a	n/a	n/a	ITI	poldrack-single-stim	s445	False	0
649.941	1.646	651.587	6.68601820685154	draw_card	1.646	columbia_card_task_fmri	16.0	0.8666666666666667	89.0	-75.0	0.1333333333333333	15.0	1.0	2.0	-3.434744396158912	1.646	n/a	stim	poldrack-single-stim	s445	False	1
651.594	1.124	652.718	5.819351540184875	draw_card	1.124	columbia_card_task_fmri	16.0	0.8571428571428572	89.0	-75.0	0.1428571428571428	15.0	2.0	2.0	-2.5290762190559306	1.124	n/a	stim	poldrack-single-stim	s445	False	1
652.724	0.418	653.142	4.819351540184873	draw_card	0.418	columbia_card_task_fmri	16.0	0.8461538461538461	89.0	-75.0	0.1538461538461538	15.0	3.0	2.0	-1.5432728572153636	0.418	n/a	stim	poldrack-single-stim	s445	False	1
653.148	3.274	656.422	3.652684873518207	draw_card	3.274	columbia_card_task_fmri	16.0	0.8333333333333334	89.0	-75.0	0.1666666666666666	15.0	4.0	2.0	-0.466322640619687	3.274	n/a	stim	poldrack-single-stim	s445	False	1
656.428	0.436	656.864	2.2738969947303262	draw_card	0.436	columbia_card_task_fmri	16.0	0.8181818181818181	89.0	-75.0	0.1818181818181818	15.0	5.0	2.0	0.7142537166524079	0.436	n/a	stim	poldrack-single-stim	s445	False	1
656.87	1.838	658.708	0.6193515401848737	draw_card	1.838	columbia_card_task_fmri	16.0	0.8	89.0	-75.0	0.2	15.0	6.0	2.0	2.012013499892113	1.838	n/a	stim	poldrack-single-stim	s445	False	1
658.714	1.999	660.713	-1.4028706820373469	draw_card	1.999	columbia_card_task_fmri	16.0	0.7777777777777778	89.0	-75.0	0.2222222222222222	15.0	7.0	2.0	3.4402111638898987	1.999	7.0	stim	poldrack-single-stim	s445	False	0
661.47	1.5	660.719	n/a	-1.0	2.318	columbia_card_task_fmri	n/a	n/a	-1.0	n/a	n/a	n/a	n/a	n/a	n/a	n/a	n/a	ITI	poldrack-single-stim	s445	False	0
663.044	1.561	664.605	7.352684873518206	draw_card	1.561	columbia_card_task_fmri	16.0	0.8666666666666667	89.0	-70.0	0.1333333333333333	15.0	1.0	2.0	-5.126996801453604	1.561	n/a	stim	poldrack-single-stim	s445	False	1
664.613	0.6	665.213	6.533637254470588	draw_card	0.6	columbia_card_task_fmri	16.0	0.8571428571428572	89.0	-70.0	0.1428571428571428	15.0	2.0	2.0	-4.271500232322101	0.6	2.0	stim	poldrack-single-stim	s445	False	0
665.97	1.5	665.219	n/a	-1.0	2.59	columbia_card_task_fmri	n/a	n/a	-1.0	n/a	n/a	n/a	n/a	n/a	n/a	n/a	n/a	ITI	poldrack-single-stim	s445	False	0
667.816	1.938	669.754	4.694351540184873	draw_card	1.938	columbia_card_task_fmri	8.0	0.9375	89.0	-90.0	0.0625	16.0	1.0	1.0	-10.60803443980242	1.938	n/a	stim	poldrack-single-stim	s445	False	1
669.761	0.379	670.14	4.28601820685154	draw_card	0.379	columbia_card_task_fmri	8.0	0.9333333333333332	89.0	-90.0	0.0666666666666666	16.0	2.0	1.0	-9.889470472509869	0.379	n/a	stim	poldrack-single-stim	s445	False	1
670.146	1.883	672.029	3.819351540184874	draw_card	1.883	columbia_card_task_fmri	8.0	0.9285714285714286	89.0	-90.0	0.0714285714285714	16.0	3.0	1.0	-9.10116820382006	1.883	3.0	stim	poldrack-single-stim	s445	False	0
672.786	1.5	672.035	n/a	-1.0	2.25	columbia_card_task_fmri	n/a	n/a	-1.0	n/a	n/a	n/a	n/a	n/a	n/a	n/a	n/a	ITI	poldrack-single-stim	s445	False	0
674.292	1.303	675.595	6.256851540184873	draw_card	1.303	columbia_card_task_fmri	10.0	0.9375	89.0	-95.0	0.0625	16.0	1.0	1.0	-8.924664105523693	1.303	n/a	stim	poldrack-single-stim	s445	False	1
675.601	0.221	675.822	5.819351540184874	draw_card	0.221	columbia_card_task_fmri	10.0	0.9333333333333332	89.0	-95.0	0.0666666666666666	16.0	2.0	1.0	-8.15410237892625	0.221	n/a	stim	poldrack-single-stim	s445	False	1
675.828	0.356	676.184	5.319351540184874	draw_card	0.356	columbia_card_task_fmri	10.0	0.9285714285714286	89.0	-95.0	0.0714285714285714	16.0	3.0	1.0	-7.308799628990506	0.356	n/a	stim	poldrack-single-stim	s445	False	1
676.191	0.226	676.417	4.742428463261796	draw_card	0.226	columbia_card_task_fmri	10.0	0.9230769230769232	89.0	-95.0	0.0769230769230769	16.0	4.0	1.0	-6.376038799854708	0.226	n/a	stim	poldrack-single-stim	s445	False	1
676.423	0.36	676.783	4.069351540184873	draw_card	0.36	columbia_card_task_fmri	10.0	0.9166666666666666	89.0	-95.0	0.0833333333333333	16.0	5.0	1.0	-5.339913332463031	0.36	n/a	stim	poldrack-single-stim	s445	False	1
676.788	0.315	677.103	3.2738969947303262	draw_card	0.315	columbia_card_task_fmri	10.0	0.9090909090909092	89.0	-95.0	0.0909090909090909	16.0	6.0	1.0	-4.180252050267953	0.315	n/a	stim	poldrack-single-stim	s445	False	1
677.107	0.372	677.479	2.319351540184873	draw_card	0.372	columbia_card_task_fmri	10.0	0.9	89.0	-95.0	0.1	16.0	7.0	1.0	-2.871090413073354	0.372	n/a	stim	poldrack-single-stim	s445	False	1
677.485	1.501	678.986	1.152684873518207	draw_card	1.501	columbia_card_task_fmri	10.0	0.8888888888888888	89.0	-95.0	0.1111111111111111	16.0	8.0	1.0	-1.3784701649238542	1.501	n/a	stim	poldrack-single-stim	s445	False	1
678.991	1.58	680.571	-0.305648459815127	draw_card	1.58	columbia_card_task_fmri	10.0	0.875	89.0	-95.0	0.125	16.0	9.0	1.0	0.3427398477734229	1.58	n/a	stim	poldrack-single-stim	s445	False	1
680.576	2.433	683.009	-2.180648459815125	end_round	2.433	columbia_card_task_fmri	10.0	0.8571428571428572	71.0	-95.0	0.1428571428571428	16.0	10.0	1.0	2.3533468153517987	2.433	9.0	stim	poldrack-single-stim	s445	False	1
683.765	1.5	683.014	n/a	-1.0	2.25	columbia_card_task_fmri	n/a	n/a	-1.0	n/a	n/a	n/a	n/a	n/a	n/a	n/a	n/a	ITI	poldrack-single-stim	s445	False	0
