onset	duration	movement_onset	CTI	block_duration	correct	correct_response	cue	cue_switch	experiment_exp_id	key_press	response_time	stim_color	stim_number	switch_type	task	task_switch	trial_id	trial_type	worker_id	first_trial_of_block	junk
3.614	1.0	4.498	0.1	2.136	False	71.0	Color	n/a	twobytwo	89.0	0.784	blue	9.0	task_switch	color	switch	stim	poldrack-single-stim	s465	1	False
6.655	1.0	8.132	0.9	2.68	True	89.0	Color	stay	twobytwo	89.0	0.577	orange	6.0	cue_stay	color	stay	stim	poldrack-single-stim	s465	0	False
9.44	1.0	10.107	0.1	2.544	True	89.0	Orange-Blue	switch	twobytwo	89.0	0.567	orange	1.0	cue_switch	color	stay	stim	poldrack-single-stim	s465	0	False
12.888	1.0	14.299	0.9	2.272	True	89.0	Color	switch	twobytwo	89.0	0.511	orange	8.0	cue_switch	color	stay	stim	poldrack-single-stim	s465	0	False
16.065	1.0	17.5	0.9	2.272	True	89.0	Orange-Blue	switch	twobytwo	89.0	0.535	orange	8.0	cue_switch	color	stay	stim	poldrack-single-stim	s465	0	False
19.241	1.0	20.612	0.9	2.408	True	89.0	Magnitude	n/a	twobytwo	89.0	0.471	blue	7.0	task_switch	magnitude	switch	stim	poldrack-single-stim	s465	0	False
21.753	1.0	22.537	0.1	2.136	True	89.0	Magnitude	stay	twobytwo	89.0	0.684	blue	6.0	cue_stay	magnitude	stay	stim	poldrack-single-stim	s465	0	False
24.793	1.0	26.014	0.9	2.272	True	71.0	Orange-Blue	n/a	twobytwo	71.0	0.321	blue	9.0	task_switch	color	switch	stim	poldrack-single-stim	s465	0	False
27.969	1.0	29.352	0.9	2.0	True	89.0	Color	switch	twobytwo	89.0	0.483	orange	3.0	cue_switch	color	stay	stim	poldrack-single-stim	s465	0	False
30.075	1.0	31.0	0.1	2.136	False	71.0	Orange-Blue	switch	twobytwo	89.0	0.825	blue	7.0	cue_switch	color	stay	stim	poldrack-single-stim	s465	0	False
32.316	1.0	33.097	0.1	2.272	True	89.0	Orange-Blue	stay	twobytwo	89.0	0.681	orange	4.0	cue_stay	color	stay	stim	poldrack-single-stim	s465	0	False
35.492	1.0	36.917	0.9	2.0	True	89.0	Magnitude	n/a	twobytwo	89.0	0.525	blue	8.0	task_switch	magnitude	switch	stim	poldrack-single-stim	s465	0	False
38.397	1.0	39.949	0.9	2.68	True	71.0	Color	n/a	twobytwo	71.0	0.652	blue	6.0	task_switch	color	switch	stim	poldrack-single-stim	s465	0	False
41.981	1.0	43.447	0.9	2.0	True	71.0	Orange-Blue	switch	twobytwo	71.0	0.566	blue	9.0	cue_switch	color	stay	stim	poldrack-single-stim	s465	0	False
44.884	1.0	46.447	0.9	2.0	True	71.0	High-Low	n/a	twobytwo	71.0	0.663	blue	2.0	task_switch	magnitude	switch	stim	poldrack-single-stim	s465	0	False
46.989	1.0	48.135	0.1	2.0	True	89.0	High-Low	stay	twobytwo	89.0	1.046	orange	7.0	cue_stay	magnitude	stay	stim	poldrack-single-stim	s465	0	False
49.893	1.0	51.181	0.9	2.272	True	71.0	Color	n/a	twobytwo	71.0	0.388	blue	8.0	task_switch	color	switch	stim	poldrack-single-stim	s465	0	False
52.269	1.0	53.426	0.1	2.0	True	71.0	High-Low	n/a	twobytwo	71.0	1.057	blue	3.0	task_switch	magnitude	switch	stim	poldrack-single-stim	s465	0	False
54.373	1.0	55.227	0.1	2.0	True	89.0	Color	n/a	twobytwo	89.0	0.754	orange	4.0	task_switch	color	switch	stim	poldrack-single-stim	s465	0	False
57.28	1.0	58.875	0.9	2.0	True	89.0	Magnitude	n/a	twobytwo	89.0	0.695	orange	7.0	task_switch	magnitude	switch	stim	poldrack-single-stim	s465	0	False
59.386	1.0	60.17	0.1	2.68	True	89.0	Magnitude	stay	twobytwo	89.0	0.684	orange	9.0	cue_stay	magnitude	stay	stim	poldrack-single-stim	s465	0	False
62.97	1.0	64.529	0.9	2.0	True	89.0	Magnitude	stay	twobytwo	89.0	0.659	orange	6.0	cue_stay	magnitude	stay	stim	poldrack-single-stim	s465	0	False
65.075	1.0	65.91	0.1	2.136	True	71.0	Orange-Blue	n/a	twobytwo	71.0	0.735	blue	6.0	task_switch	color	switch	stim	poldrack-single-stim	s465	0	False
67.316	1.0	68.224	0.1	2.408	True	71.0	Color	switch	twobytwo	71.0	0.808	blue	8.0	cue_switch	color	stay	stim	poldrack-single-stim	s465	0	False
70.627	1.0	71.96	0.9	2.136	True	71.0	Color	stay	twobytwo	71.0	0.433	blue	3.0	cue_stay	color	stay	stim	poldrack-single-stim	s465	0	False
73.667	1.0	74.974	0.9	2.0	True	71.0	Color	stay	twobytwo	71.0	0.407	blue	3.0	cue_stay	color	stay	stim	poldrack-single-stim	s465	0	False
75.771	1.0	76.64	0.1	2.0	True	89.0	Magnitude	n/a	twobytwo	89.0	0.769	blue	6.0	task_switch	magnitude	switch	stim	poldrack-single-stim	s465	0	False
77.876	1.0	78.685	0.1	2.544	True	71.0	Orange-Blue	n/a	twobytwo	71.0	0.709	blue	8.0	task_switch	color	switch	stim	poldrack-single-stim	s465	0	False
80.523	1.0	81.274	0.1	2.136	True	89.0	Orange-Blue	stay	twobytwo	89.0	0.651	orange	2.0	cue_stay	color	stay	stim	poldrack-single-stim	s465	0	False
82.763	1.0	83.415	0.1	2.544	True	71.0	Orange-Blue	stay	twobytwo	71.0	0.552	blue	9.0	cue_stay	color	stay	stim	poldrack-single-stim	s465	0	False
85.412	1.0	86.331	0.1	2.68	True	71.0	High-Low	n/a	twobytwo	71.0	0.819	orange	2.0	task_switch	magnitude	switch	stim	poldrack-single-stim	s465	0	False
88.996	1.0	90.497	0.9	2.0	True	71.0	Magnitude	switch	twobytwo	71.0	0.601	blue	3.0	cue_switch	magnitude	stay	stim	poldrack-single-stim	s465	0	False
91.9	1.0	93.273	0.9	2.272	True	89.0	Orange-Blue	n/a	twobytwo	89.0	0.473	orange	1.0	task_switch	color	switch	stim	poldrack-single-stim	s465	0	False
94.277	1.0	95.26	0.1	3.088	True	89.0	High-Low	n/a	twobytwo	89.0	0.883	orange	9.0	task_switch	magnitude	switch	stim	poldrack-single-stim	s465	0	False
97.468	1.0	98.235	0.1	2.0	False	71.0	Color	n/a	twobytwo	89.0	0.667	blue	9.0	task_switch	color	switch	stim	poldrack-single-stim	s465	0	False
99.572	1.0	100.431	0.1	2.136	True	89.0	Color	stay	twobytwo	89.0	0.759	orange	3.0	cue_stay	color	stay	stim	poldrack-single-stim	s465	0	False
101.813	1.0	102.733	0.1	2.136	True	89.0	Magnitude	n/a	twobytwo	89.0	0.82	orange	8.0	task_switch	magnitude	switch	stim	poldrack-single-stim	s465	0	False
104.054	1.0	104.802	0.1	2.0	True	71.0	Magnitude	stay	twobytwo	71.0	0.648	orange	3.0	cue_stay	magnitude	stay	stim	poldrack-single-stim	s465	0	False
106.959	1.0	108.505	0.9	2.272	True	71.0	High-Low	switch	twobytwo	71.0	0.646	blue	3.0	cue_switch	magnitude	stay	stim	poldrack-single-stim	s465	0	False
109.337	1.0	110.105	0.1	2.0	True	89.0	Orange-Blue	n/a	twobytwo	89.0	0.668	orange	2.0	task_switch	color	switch	stim	poldrack-single-stim	s465	0	False
112.242	1.0	113.707	0.9	2.136	True	71.0	Magnitude	n/a	twobytwo	71.0	0.565	orange	2.0	task_switch	magnitude	switch	stim	poldrack-single-stim	s465	0	False
115.282	1.0	116.897	0.9	2.136	True	89.0	Color	n/a	twobytwo	89.0	0.715	orange	4.0	task_switch	color	switch	stim	poldrack-single-stim	s465	0	False
117.522	1.0	118.247	0.1	2.544	True	71.0	Color	stay	twobytwo	71.0	0.625	blue	1.0	cue_stay	color	stay	stim	poldrack-single-stim	s465	0	False
120.971	1.0	122.492	0.9	2.0	True	89.0	Magnitude	n/a	twobytwo	89.0	0.621	blue	7.0	task_switch	magnitude	switch	stim	poldrack-single-stim	s465	0	False
123.875	1.0	125.406	0.9	2.136	True	89.0	Magnitude	stay	twobytwo	89.0	0.631	blue	8.0	cue_stay	magnitude	stay	stim	poldrack-single-stim	s465	0	False
126.915	1.0	128.304	0.9	2.136	False	89.0	Orange-Blue	n/a	twobytwo	71.0	0.489	orange	6.0	task_switch	color	switch	stim	poldrack-single-stim	s465	0	False
129.955	1.0	131.484	0.9	2.136	True	71.0	High-Low	n/a	twobytwo	71.0	0.629	blue	3.0	task_switch	magnitude	switch	stim	poldrack-single-stim	s465	0	False
132.195	1.0	132.94	0.1	2.0	True	89.0	Orange-Blue	n/a	twobytwo	89.0	0.645	orange	8.0	task_switch	color	switch	stim	poldrack-single-stim	s465	0	False
135.1	1.0	136.621	0.9	2.136	True	71.0	Magnitude	n/a	twobytwo	71.0	0.621	orange	4.0	task_switch	magnitude	switch	stim	poldrack-single-stim	s465	0	False
138.141	1.0	139.869	0.9	2.0	True	89.0	Magnitude	stay	twobytwo	89.0	0.828	blue	9.0	cue_stay	magnitude	stay	stim	poldrack-single-stim	s465	0	False
140.246	1.0	141.344	0.1	2.136	True	89.0	High-Low	switch	twobytwo	89.0	0.998	blue	6.0	cue_switch	magnitude	stay	stim	poldrack-single-stim	s465	0	False
142.487	1.0	143.447	0.1	2.816	True	71.0	Color	n/a	twobytwo	71.0	0.86	blue	9.0	task_switch	color	switch	stim	poldrack-single-stim	s465	0	False
146.207	1.0	147.94	0.9	2.136	True	89.0	Color	stay	twobytwo	89.0	0.833	orange	2.0	cue_stay	color	stay	stim	poldrack-single-stim	s465	0	False
148.446	1.0	149.212	0.1	2.0	True	71.0	Color	stay	twobytwo	71.0	0.666	blue	8.0	cue_stay	color	stay	stim	poldrack-single-stim	s465	0	False
150.551	1.0	151.734	0.1	2.0	True	89.0	High-Low	n/a	twobytwo	89.0	1.083	orange	9.0	task_switch	magnitude	switch	stim	poldrack-single-stim	s465	0	False
153.454	1.0	155.04	0.9	2.272	True	89.0	High-Low	stay	twobytwo	89.0	0.686	blue	6.0	cue_stay	magnitude	stay	stim	poldrack-single-stim	s465	0	False
155.831	1.0	156.633	0.1	2.0	True	71.0	Color	n/a	twobytwo	71.0	0.702	blue	2.0	task_switch	color	switch	stim	poldrack-single-stim	s465	0	False
158.735	1.0	160.279	0.9	2.0	True	89.0	High-Low	n/a	twobytwo	89.0	0.644	orange	8.0	task_switch	magnitude	switch	stim	poldrack-single-stim	s465	0	False
160.841	1.0	161.658	0.1	2.0	True	71.0	Color	n/a	twobytwo	71.0	0.717	blue	8.0	task_switch	color	switch	stim	poldrack-single-stim	s465	0	False
162.947	1.0	164.169	0.1	2.408	True	71.0	High-Low	n/a	twobytwo	71.0	1.122	blue	2.0	task_switch	magnitude	switch	stim	poldrack-single-stim	s465	0	False
165.46	1.0	166.532	0.1	2.272	True	89.0	High-Low	stay	twobytwo	89.0	0.972	blue	6.0	cue_stay	magnitude	stay	stim	poldrack-single-stim	s465	0	False
168.637	1.0	170.35	0.9	2.136	True	89.0	Orange-Blue	n/a	twobytwo	89.0	0.813	orange	1.0	task_switch	color	switch	stim	poldrack-single-stim	s465	0	False
170.877	1.0	171.861	0.1	2.0	True	89.0	Color	switch	twobytwo	89.0	0.884	orange	6.0	cue_switch	color	stay	stim	poldrack-single-stim	s465	0	False
172.981	1.0	174.068	0.1	2.0	True	71.0	Magnitude	n/a	twobytwo	71.0	0.987	orange	1.0	task_switch	magnitude	switch	stim	poldrack-single-stim	s465	0	False
175.086	1.0	176.283	0.1	2.136	True	71.0	Orange-Blue	n/a	twobytwo	71.0	1.097	blue	2.0	task_switch	color	switch	stim	poldrack-single-stim	s465	0	False
178.127	1.0	179.565	0.9	2.0	True	71.0	Magnitude	n/a	twobytwo	71.0	0.538	blue	3.0	task_switch	magnitude	switch	stim	poldrack-single-stim	s465	0	False
180.232	1.0	181.189	0.1	2.136	False	71.0	Color	n/a	twobytwo	89.0	0.857	blue	7.0	task_switch	color	switch	stim	poldrack-single-stim	s465	0	False
183.273	1.0	184.931	0.9	2.408	True	89.0	Color	stay	twobytwo	89.0	0.758	orange	2.0	cue_stay	color	stay	stim	poldrack-single-stim	s465	0	False
185.787	1.0	186.94	0.1	2.136	True	89.0	Magnitude	n/a	twobytwo	89.0	1.053	blue	9.0	task_switch	magnitude	switch	stim	poldrack-single-stim	s465	0	False
188.027	1.0	188.789	0.1	2.0	True	71.0	Color	n/a	twobytwo	71.0	0.662	blue	1.0	task_switch	color	switch	stim	poldrack-single-stim	s465	0	False
190.931	1.0	192.923	0.9	2.136	True	89.0	Magnitude	n/a	twobytwo	89.0	1.092	blue	9.0	task_switch	magnitude	switch	stim	poldrack-single-stim	s465	0	False
193.972	1.0	195.378	0.9	2.272	True	89.0	Magnitude	stay	twobytwo	89.0	0.506	orange	7.0	cue_stay	magnitude	stay	stim	poldrack-single-stim	s465	0	False
197.148	1.0	198.717	0.9	2.0	True	89.0	Orange-Blue	n/a	twobytwo	89.0	0.669	orange	1.0	task_switch	color	switch	stim	poldrack-single-stim	s465	0	False
200.053	1.0	201.594	0.9	2.408	True	71.0	Magnitude	n/a	twobytwo	71.0	0.641	blue	4.0	task_switch	magnitude	switch	stim	poldrack-single-stim	s465	0	False
203.365	1.0	204.931	0.9	2.0	False	71.0	High-Low	switch	twobytwo	89.0	0.666	orange	3.0	cue_switch	magnitude	stay	stim	poldrack-single-stim	s465	0	False
206.27	1.0	207.672	0.9	2.136	True	89.0	Color	n/a	twobytwo	89.0	0.502	orange	1.0	task_switch	color	switch	stim	poldrack-single-stim	s465	0	False
209.31	1.0	210.782	0.9	2.408	True	89.0	High-Low	n/a	twobytwo	89.0	0.572	blue	8.0	task_switch	magnitude	switch	stim	poldrack-single-stim	s465	0	False
212.624	1.0	214.242	0.9	2.136	True	71.0	Orange-Blue	n/a	twobytwo	71.0	0.718	blue	7.0	task_switch	color	switch	stim	poldrack-single-stim	s465	0	False
214.864	1.0	215.716	0.1	2.408	True	89.0	High-Low	n/a	twobytwo	89.0	0.752	blue	8.0	task_switch	magnitude	switch	stim	poldrack-single-stim	s465	0	False
218.178	1.0	219.755	0.9	2.136	True	89.0	Color	n/a	twobytwo	89.0	0.677	orange	9.0	task_switch	color	switch	stim	poldrack-single-stim	s465	0	False
233.926	1.0	234.832	0.1	2.0	False	71.0	Orange-Blue	n/a	twobytwo	89.0	0.806	blue	9.0	task_switch	color	switch	stim	poldrack-single-stim	s465	1	False
236.829	1.0	238.708	0.9	2.272	True	89.0	Orange-Blue	stay	twobytwo	89.0	0.979	orange	6.0	cue_stay	color	stay	stim	poldrack-single-stim	s465	0	False
239.206	1.0	240.501	0.1	2.0	True	89.0	Color	switch	twobytwo	89.0	1.195	orange	1.0	cue_switch	color	stay	stim	poldrack-single-stim	s465	0	False
242.109	1.0	243.713	0.9	2.272	True	89.0	Orange-Blue	switch	twobytwo	89.0	0.704	orange	8.0	cue_switch	color	stay	stim	poldrack-single-stim	s465	0	False
245.286	1.0	246.864	0.9	2.272	True	89.0	Color	switch	twobytwo	89.0	0.678	orange	8.0	cue_switch	color	stay	stim	poldrack-single-stim	s465	0	False
248.461	1.0	249.991	0.9	2.952	True	89.0	High-Low	n/a	twobytwo	89.0	0.63	blue	7.0	task_switch	magnitude	switch	stim	poldrack-single-stim	s465	0	False
251.518	1.0	252.872	0.1	2.68	True	89.0	High-Low	stay	twobytwo	89.0	1.254	blue	6.0	cue_stay	magnitude	stay	stim	poldrack-single-stim	s465	0	False
255.103	1.0	256.497	0.9	2.136	True	71.0	Color	n/a	twobytwo	71.0	0.494	blue	9.0	task_switch	color	switch	stim	poldrack-single-stim	s465	0	False
258.142	1.0	259.767	0.9	2.272	True	89.0	Orange-Blue	switch	twobytwo	89.0	0.725	orange	3.0	cue_switch	color	stay	stim	poldrack-single-stim	s465	0	False
260.518	1.0	261.241	0.1	2.272	True	71.0	Color	switch	twobytwo	71.0	0.623	blue	7.0	cue_switch	color	stay	stim	poldrack-single-stim	s465	0	False
262.895	1.0	263.686	0.1	2.136	True	89.0	Color	stay	twobytwo	89.0	0.691	orange	4.0	cue_stay	color	stay	stim	poldrack-single-stim	s465	0	False
265.935	1.0	267.272	0.9	2.408	True	89.0	Magnitude	n/a	twobytwo	89.0	0.437	blue	8.0	task_switch	magnitude	switch	stim	poldrack-single-stim	s465	0	False
269.247	1.0	271.267	0.9	2.136	True	71.0	Color	n/a	twobytwo	71.0	1.12	blue	6.0	task_switch	color	switch	stim	poldrack-single-stim	s465	0	False
272.287	1.0	273.86	0.9	2.136	True	71.0	Orange-Blue	switch	twobytwo	71.0	0.673	blue	9.0	cue_switch	color	stay	stim	poldrack-single-stim	s465	0	False
275.328	1.0	276.748	0.9	2.0	True	71.0	High-Low	n/a	twobytwo	71.0	0.52	blue	2.0	task_switch	magnitude	switch	stim	poldrack-single-stim	s465	0	False
277.434	1.0	278.427	0.1	2.0	True	89.0	High-Low	stay	twobytwo	89.0	0.893	orange	7.0	cue_stay	magnitude	stay	stim	poldrack-single-stim	s465	0	False
280.338	1.0	281.886	0.9	2.0	True	71.0	Orange-Blue	n/a	twobytwo	71.0	0.648	blue	8.0	task_switch	color	switch	stim	poldrack-single-stim	s465	0	False
282.442	1.0	283.766	0.1	2.0	False	71.0	High-Low	n/a	twobytwo	89.0	1.224	blue	3.0	task_switch	magnitude	switch	stim	poldrack-single-stim	s465	0	False
284.547	1.0	285.573	0.1	2.0	True	89.0	Color	n/a	twobytwo	89.0	0.926	orange	4.0	task_switch	color	switch	stim	poldrack-single-stim	s465	0	False
287.45	1.0	289.058	0.9	2.272	True	89.0	High-Low	n/a	twobytwo	89.0	0.708	orange	7.0	task_switch	magnitude	switch	stim	poldrack-single-stim	s465	0	False
289.827	1.0	290.666	0.1	2.408	True	89.0	High-Low	stay	twobytwo	89.0	0.739	orange	9.0	cue_stay	magnitude	stay	stim	poldrack-single-stim	s465	0	False
293.139	1.0	294.753	0.9	2.0	True	89.0	High-Low	stay	twobytwo	89.0	0.714	orange	6.0	cue_stay	magnitude	stay	stim	poldrack-single-stim	s465	0	False
295.243	1.0	296.085	0.1	2.136	True	71.0	Color	n/a	twobytwo	71.0	0.742	blue	6.0	task_switch	color	switch	stim	poldrack-single-stim	s465	0	False
297.483	1.0	298.455	0.1	2.0	True	71.0	Orange-Blue	switch	twobytwo	71.0	0.872	blue	8.0	cue_switch	color	stay	stim	poldrack-single-stim	s465	0	False
300.388	1.0	301.738	0.9	2.136	True	71.0	Orange-Blue	stay	twobytwo	71.0	0.45	blue	3.0	cue_stay	color	stay	stim	poldrack-single-stim	s465	0	False
303.428	1.0	304.858	0.9	2.544	True	71.0	Orange-Blue	stay	twobytwo	71.0	0.53	blue	3.0	cue_stay	color	stay	stim	poldrack-single-stim	s465	0	False
306.076	1.0	307.245	0.1	2.68	True	89.0	Magnitude	n/a	twobytwo	89.0	1.069	blue	6.0	task_switch	magnitude	switch	stim	poldrack-single-stim	s465	0	False
308.859	1.0	310.141	0.1	3.088	False	71.0	Orange-Blue	n/a	twobytwo	89.0	1.182	blue	8.0	task_switch	color	switch	stim	poldrack-single-stim	s465	0	False
312.052	1.0	313.11	0.1	2.136	True	89.0	Orange-Blue	stay	twobytwo	89.0	0.958	orange	2.0	cue_stay	color	stay	stim	poldrack-single-stim	s465	0	False
314.294	1.0	315.2	0.1	2.544	True	71.0	Orange-Blue	stay	twobytwo	71.0	0.806	blue	9.0	cue_stay	color	stay	stim	poldrack-single-stim	s465	0	False
316.943	1.0	318.04	0.1	2.0	True	71.0	Magnitude	n/a	twobytwo	71.0	0.997	orange	2.0	task_switch	magnitude	switch	stim	poldrack-single-stim	s465	0	False
319.847	1.0	321.351	0.9	2.136	False	71.0	High-Low	switch	twobytwo	89.0	0.604	blue	3.0	cue_switch	magnitude	stay	stim	poldrack-single-stim	s465	0	False
322.887	1.0	324.485	0.9	2.0	True	89.0	Color	n/a	twobytwo	89.0	0.698	orange	1.0	task_switch	color	switch	stim	poldrack-single-stim	s465	0	False
324.993	1.0	326.177	0.1	2.408	True	89.0	Magnitude	n/a	twobytwo	89.0	1.084	orange	9.0	task_switch	magnitude	switch	stim	poldrack-single-stim	s465	0	False
327.506	1.0	328.399	0.1	2.0	True	71.0	Orange-Blue	n/a	twobytwo	71.0	0.793	blue	9.0	task_switch	color	switch	stim	poldrack-single-stim	s465	0	False
329.613	1.0	330.407	0.1	2.0	True	89.0	Orange-Blue	stay	twobytwo	89.0	0.694	orange	3.0	cue_stay	color	stay	stim	poldrack-single-stim	s465	0	False
331.717	1.0	332.611	0.1	2.0	True	89.0	Magnitude	n/a	twobytwo	89.0	0.794	orange	8.0	task_switch	magnitude	switch	stim	poldrack-single-stim	s465	0	False
333.821	1.0	334.509	0.1	2.68	False	71.0	Magnitude	stay	twobytwo	89.0	0.588	orange	3.0	cue_stay	magnitude	stay	stim	poldrack-single-stim	s465	0	False
337.405	1.0	338.822	0.9	2.272	True	71.0	High-Low	switch	twobytwo	71.0	0.517	blue	3.0	cue_switch	magnitude	stay	stim	poldrack-single-stim	s465	0	False
339.782	1.0	340.356	0.1	2.408	True	89.0	Color	n/a	twobytwo	89.0	0.474	orange	2.0	task_switch	color	switch	stim	poldrack-single-stim	s465	0	False
343.096	1.0	344.591	0.9	3.224	True	71.0	Magnitude	n/a	twobytwo	71.0	0.595	orange	2.0	task_switch	magnitude	switch	stim	poldrack-single-stim	s465	0	False
347.224	1.0	348.626	0.9	2.408	True	89.0	Color	n/a	twobytwo	89.0	0.502	orange	4.0	task_switch	color	switch	stim	poldrack-single-stim	s465	0	False
349.736	1.0	350.664	0.1	2.816	True	71.0	Color	stay	twobytwo	71.0	0.828	blue	1.0	cue_stay	color	stay	stim	poldrack-single-stim	s465	0	False
353.457	1.0	355.02	0.9	2.408	False	89.0	Magnitude	n/a	twobytwo	71.0	0.663	blue	7.0	task_switch	magnitude	switch	stim	poldrack-single-stim	s465	0	False
356.77	1.0	358.265	0.9	2.136	True	89.0	Magnitude	stay	twobytwo	89.0	0.595	blue	8.0	cue_stay	magnitude	stay	stim	poldrack-single-stim	s465	0	False
359.811	1.0	361.473	0.9	2.136	True	89.0	Color	n/a	twobytwo	89.0	0.762	orange	6.0	task_switch	color	switch	stim	poldrack-single-stim	s465	0	False
362.851	1.0	364.633	0.9	2.0	True	71.0	Magnitude	n/a	twobytwo	71.0	0.882	blue	3.0	task_switch	magnitude	switch	stim	poldrack-single-stim	s465	0	False
364.956	1.0	365.867	0.1	2.0	True	89.0	Color	n/a	twobytwo	89.0	0.811	orange	8.0	task_switch	color	switch	stim	poldrack-single-stim	s465	0	False
367.859	1.0	369.549	0.9	2.272	True	71.0	High-Low	n/a	twobytwo	71.0	0.79	orange	4.0	task_switch	magnitude	switch	stim	poldrack-single-stim	s465	0	False
371.035	1.0	372.392	0.9	2.408	True	89.0	High-Low	stay	twobytwo	89.0	0.457	blue	9.0	cue_stay	magnitude	stay	stim	poldrack-single-stim	s465	0	False
373.548	1.0	374.329	0.1	2.0	False	89.0	Magnitude	switch	twobytwo	71.0	0.681	blue	6.0	cue_switch	magnitude	stay	stim	poldrack-single-stim	s465	0	False
375.652	1.0	376.338	0.1	2.136	False	71.0	Color	n/a	twobytwo	89.0	0.586	blue	9.0	task_switch	color	switch	stim	poldrack-single-stim	s465	0	False
378.692	1.0	380.191	0.9	2.0	True	89.0	Color	stay	twobytwo	89.0	0.599	orange	2.0	cue_stay	color	stay	stim	poldrack-single-stim	s465	0	False
380.796	1.0	381.77	0.1	2.408	True	71.0	Color	stay	twobytwo	71.0	0.874	blue	8.0	cue_stay	color	stay	stim	poldrack-single-stim	s465	0	False
383.31	1.0	384.499	0.1	2.272	True	89.0	Magnitude	n/a	twobytwo	89.0	1.089	orange	9.0	task_switch	magnitude	switch	stim	poldrack-single-stim	s465	0	False
386.486	1.0	388.02	0.9	2.0	False	89.0	Magnitude	stay	twobytwo	71.0	0.634	blue	6.0	cue_stay	magnitude	stay	stim	poldrack-single-stim	s465	0	False
388.591	1.0	389.768	0.1	2.272	True	71.0	Color	n/a	twobytwo	71.0	1.077	blue	2.0	task_switch	color	switch	stim	poldrack-single-stim	s465	0	False
391.767	1.0	393.436	0.9	2.0	True	89.0	High-Low	n/a	twobytwo	89.0	0.769	orange	8.0	task_switch	magnitude	switch	stim	poldrack-single-stim	s465	0	False
393.872	1.0	394.977	0.1	2.0	True	71.0	Color	n/a	twobytwo	71.0	1.005	blue	8.0	task_switch	color	switch	stim	poldrack-single-stim	s465	0	False
395.977	1.0	397.191	0.1	2.272	True	71.0	Magnitude	n/a	twobytwo	71.0	1.114	blue	2.0	task_switch	magnitude	switch	stim	poldrack-single-stim	s465	0	False
398.354	1.0	399.287	0.1	2.136	True	89.0	Magnitude	stay	twobytwo	89.0	0.833	blue	6.0	cue_stay	magnitude	stay	stim	poldrack-single-stim	s465	0	False
401.395	1.0	403.18	0.9	2.0	True	89.0	Color	n/a	twobytwo	89.0	0.885	orange	1.0	task_switch	color	switch	stim	poldrack-single-stim	s465	0	False
403.499	1.0	404.525	0.1	2.0	True	89.0	Orange-Blue	switch	twobytwo	89.0	0.926	orange	6.0	cue_switch	color	stay	stim	poldrack-single-stim	s465	0	False
405.603	1.0	406.563	0.1	2.0	True	71.0	High-Low	n/a	twobytwo	71.0	0.86	orange	1.0	task_switch	magnitude	switch	stim	poldrack-single-stim	s465	0	False
407.707	1.0	408.435	0.1	2.0	False	71.0	Orange-Blue	n/a	twobytwo	89.0	0.628	blue	2.0	task_switch	color	switch	stim	poldrack-single-stim	s465	0	False
410.611	1.0	412.277	0.9	2.0	True	71.0	Magnitude	n/a	twobytwo	71.0	0.766	blue	3.0	task_switch	magnitude	switch	stim	poldrack-single-stim	s465	0	False
412.714	1.0	413.738	0.1	2.136	False	71.0	Color	n/a	twobytwo	89.0	0.924	blue	7.0	task_switch	color	switch	stim	poldrack-single-stim	s465	0	False
415.755	1.0	417.346	0.9	2.0	True	89.0	Color	stay	twobytwo	89.0	0.691	orange	2.0	cue_stay	color	stay	stim	poldrack-single-stim	s465	0	False
417.859	1.0	418.984	0.1	2.0	True	89.0	Magnitude	n/a	twobytwo	89.0	1.025	blue	9.0	task_switch	magnitude	switch	stim	poldrack-single-stim	s465	0	False
419.964	1.0	419.963	0.1	2.136	False	71.0	Orange-Blue	n/a	twobytwo	-1.0	n/a	blue	1.0	task_switch	color	switch	stim	poldrack-single-stim	s465	0	False
423.003	1.0	424.944	0.9	2.0	False	89.0	Magnitude	n/a	twobytwo	71.0	1.041	blue	9.0	task_switch	magnitude	switch	stim	poldrack-single-stim	s465	0	False
425.908	1.0	427.765	0.9	2.136	True	89.0	Magnitude	stay	twobytwo	89.0	0.957	orange	7.0	cue_stay	magnitude	stay	stim	poldrack-single-stim	s465	0	False
428.948	1.0	431.089	0.9	2.68	True	89.0	Orange-Blue	n/a	twobytwo	89.0	1.241	orange	1.0	task_switch	color	switch	stim	poldrack-single-stim	s465	0	False
432.535	1.0	434.194	0.9	2.272	True	71.0	High-Low	n/a	twobytwo	71.0	0.759	blue	4.0	task_switch	magnitude	switch	stim	poldrack-single-stim	s465	0	False
435.71	1.0	437.159	0.9	2.136	True	71.0	Magnitude	switch	twobytwo	71.0	0.549	orange	3.0	cue_switch	magnitude	stay	stim	poldrack-single-stim	s465	0	False
438.75	1.0	440.175	0.9	2.0	True	89.0	Color	n/a	twobytwo	89.0	0.525	orange	1.0	task_switch	color	switch	stim	poldrack-single-stim	s465	0	False
441.655	1.0	443.099	0.9	2.136	True	89.0	Magnitude	n/a	twobytwo	89.0	0.544	blue	8.0	task_switch	magnitude	switch	stim	poldrack-single-stim	s465	0	False
444.695	1.0	446.171	0.9	2.68	False	71.0	Color	n/a	twobytwo	89.0	0.576	blue	7.0	task_switch	color	switch	stim	poldrack-single-stim	s465	0	False
447.479	1.0	448.818	0.1	2.272	True	89.0	High-Low	n/a	twobytwo	89.0	1.239	blue	8.0	task_switch	magnitude	switch	stim	poldrack-single-stim	s465	0	False
450.656	1.0	452.477	0.9	2.0	True	89.0	Orange-Blue	n/a	twobytwo	89.0	0.921	orange	9.0	task_switch	color	switch	stim	poldrack-single-stim	s465	0	False
466.269	1.0	467.057	0.1	2.0	True	89.0	Magnitude	n/a	twobytwo	89.0	0.688	blue	9.0	task_switch	magnitude	switch	stim	poldrack-single-stim	s465	1	False
469.173	1.0	470.624	0.9	2.136	True	89.0	Magnitude	stay	twobytwo	89.0	0.551	orange	6.0	cue_stay	magnitude	stay	stim	poldrack-single-stim	s465	0	False
471.414	1.0	472.502	0.1	2.0	False	71.0	High-Low	switch	twobytwo	89.0	0.988	orange	1.0	cue_switch	magnitude	stay	stim	poldrack-single-stim	s465	0	False
474.32	1.0	475.775	0.9	2.0	True	89.0	Magnitude	switch	twobytwo	89.0	0.555	orange	8.0	cue_switch	magnitude	stay	stim	poldrack-single-stim	s465	0	False
477.224	1.0	478.715	0.9	2.0	True	89.0	High-Low	switch	twobytwo	89.0	0.591	orange	8.0	cue_switch	magnitude	stay	stim	poldrack-single-stim	s465	0	False
480.129	1.0	481.812	0.9	2.272	True	71.0	Orange-Blue	n/a	twobytwo	71.0	0.783	blue	7.0	task_switch	color	switch	stim	poldrack-single-stim	s465	0	False
482.505	1.0	483.309	0.1	2.408	True	71.0	Orange-Blue	stay	twobytwo	71.0	0.704	blue	6.0	cue_stay	color	stay	stim	poldrack-single-stim	s465	0	False
485.817	1.0	487.331	0.9	2.0	True	89.0	Magnitude	n/a	twobytwo	89.0	0.614	blue	9.0	task_switch	magnitude	switch	stim	poldrack-single-stim	s465	0	False
488.721	1.0	490.365	0.9	2.0	True	71.0	High-Low	switch	twobytwo	71.0	0.744	orange	3.0	cue_switch	magnitude	stay	stim	poldrack-single-stim	s465	0	False
490.825	1.0	492.096	0.1	2.0	True	89.0	Magnitude	switch	twobytwo	89.0	1.171	blue	7.0	cue_switch	magnitude	stay	stim	poldrack-single-stim	s465	0	False
492.93	1.0	494.06	0.1	2.272	True	71.0	Magnitude	stay	twobytwo	71.0	1.03	orange	4.0	cue_stay	magnitude	stay	stim	poldrack-single-stim	s465	0	False
496.106	1.0	497.926	0.9	2.136	False	71.0	Orange-Blue	n/a	twobytwo	89.0	0.92	blue	8.0	task_switch	color	switch	stim	poldrack-single-stim	s465	0	False
499.145	1.0	500.785	0.9	2.0	True	89.0	Magnitude	n/a	twobytwo	89.0	0.74	blue	6.0	task_switch	magnitude	switch	stim	poldrack-single-stim	s465	0	False
502.05	1.0	503.734	0.9	2.544	True	89.0	High-Low	switch	twobytwo	89.0	0.784	blue	9.0	cue_switch	magnitude	stay	stim	poldrack-single-stim	s465	0	False
505.498	1.0	507.605	0.9	2.272	False	71.0	Orange-Blue	n/a	twobytwo	89.0	1.207	blue	2.0	task_switch	color	switch	stim	poldrack-single-stim	s465	0	False
507.874	1.0	509.403	0.1	2.272	False	89.0	Orange-Blue	stay	twobytwo	71.0	1.429	orange	7.0	cue_stay	color	stay	stim	poldrack-single-stim	s465	0	False
511.05	1.0	513.032	0.9	2.0	True	89.0	Magnitude	n/a	twobytwo	89.0	1.082	blue	8.0	task_switch	magnitude	switch	stim	poldrack-single-stim	s465	0	False
513.155	1.0	514.146	0.1	2.0	True	71.0	Color	n/a	twobytwo	71.0	0.891	blue	3.0	task_switch	color	switch	stim	poldrack-single-stim	s465	0	False
515.258	1.0	516.332	0.1	2.136	False	71.0	High-Low	n/a	twobytwo	89.0	0.974	orange	4.0	task_switch	magnitude	switch	stim	poldrack-single-stim	s465	0	False
518.299	1.0	519.958	0.9	2.0	True	89.0	Orange-Blue	n/a	twobytwo	89.0	0.759	orange	7.0	task_switch	color	switch	stim	poldrack-single-stim	s465	0	False
520.404	1.0	521.647	0.1	2.136	True	89.0	Orange-Blue	stay	twobytwo	89.0	1.143	orange	9.0	cue_stay	color	stay	stim	poldrack-single-stim	s465	0	False
523.445	1.0	525.143	0.9	2.272	True	89.0	Orange-Blue	stay	twobytwo	89.0	0.798	orange	6.0	cue_stay	color	stay	stim	poldrack-single-stim	s465	0	False
525.821	1.0	526.947	0.1	2.136	False	89.0	High-Low	n/a	twobytwo	71.0	1.026	blue	6.0	task_switch	magnitude	switch	stim	poldrack-single-stim	s465	0	False
528.062	1.0	529.268	0.1	2.272	True	89.0	Magnitude	switch	twobytwo	89.0	1.106	blue	8.0	cue_switch	magnitude	stay	stim	poldrack-single-stim	s465	0	False
531.238	1.0	532.959	0.9	2.0	True	71.0	Magnitude	stay	twobytwo	71.0	0.821	blue	3.0	cue_stay	magnitude	stay	stim	poldrack-single-stim	s465	0	False
534.142	1.0	535.655	0.9	2.816	True	71.0	Magnitude	stay	twobytwo	71.0	0.613	blue	3.0	cue_stay	magnitude	stay	stim	poldrack-single-stim	s465	0	False
537.062	1.0	538.297	0.1	2.408	False	71.0	Color	n/a	twobytwo	89.0	1.135	blue	6.0	task_switch	color	switch	stim	poldrack-single-stim	s465	0	False
539.574	1.0	541.59	0.1	2.0	True	89.0	Magnitude	n/a	twobytwo	89.0	1.916	blue	8.0	task_switch	magnitude	switch	stim	poldrack-single-stim	s465	0	False
541.679	1.0	542.587	0.1	2.544	True	71.0	Magnitude	stay	twobytwo	71.0	0.808	orange	2.0	cue_stay	magnitude	stay	stim	poldrack-single-stim	s465	0	False
544.327	1.0	545.025	0.1	2.136	True	89.0	Magnitude	stay	twobytwo	89.0	0.598	blue	9.0	cue_stay	magnitude	stay	stim	poldrack-single-stim	s465	0	False
546.566	1.0	547.342	0.1	2.0	False	89.0	Color	n/a	twobytwo	71.0	0.676	orange	2.0	task_switch	color	switch	stim	poldrack-single-stim	s465	0	False
549.471	1.0	551.075	0.9	2.0	True	71.0	Orange-Blue	switch	twobytwo	71.0	0.704	blue	3.0	cue_switch	color	stay	stim	poldrack-single-stim	s465	0	False
552.375	1.0	554.152	0.9	2.136	True	71.0	Magnitude	n/a	twobytwo	71.0	0.877	orange	1.0	task_switch	magnitude	switch	stim	poldrack-single-stim	s465	0	False
554.615	1.0	555.611	0.1	2.136	True	89.0	Color	n/a	twobytwo	89.0	0.896	orange	9.0	task_switch	color	switch	stim	poldrack-single-stim	s465	0	False
556.855	1.0	558.14	0.1	2.272	False	89.0	Magnitude	n/a	twobytwo	71.0	1.185	blue	9.0	task_switch	magnitude	switch	stim	poldrack-single-stim	s465	0	False
559.232	1.0	560.302	0.1	3.224	False	71.0	Magnitude	stay	twobytwo	89.0	0.97	orange	3.0	cue_stay	magnitude	stay	stim	poldrack-single-stim	s465	0	False
562.561	1.0	564.411	0.1	2.0	True	89.0	Orange-Blue	n/a	twobytwo	89.0	1.75	orange	8.0	task_switch	color	switch	stim	poldrack-single-stim	s465	0	False
564.666	1.0	565.994	0.1	2.0	True	89.0	Orange-Blue	stay	twobytwo	89.0	1.228	orange	3.0	cue_stay	color	stay	stim	poldrack-single-stim	s465	0	False
567.57	1.0	569.208	0.9	2.272	True	71.0	Color	switch	twobytwo	71.0	0.738	blue	3.0	cue_switch	color	stay	stim	poldrack-single-stim	s465	0	False
569.947	1.0	571.24	0.1	2.136	False	71.0	High-Low	n/a	twobytwo	89.0	1.193	orange	2.0	task_switch	magnitude	switch	stim	poldrack-single-stim	s465	0	False
572.988	1.0	574.881	0.9	2.0	True	89.0	Color	n/a	twobytwo	89.0	0.993	orange	2.0	task_switch	color	switch	stim	poldrack-single-stim	s465	0	False
575.893	1.0	577.653	0.9	2.0	True	71.0	High-Low	n/a	twobytwo	71.0	0.86	orange	4.0	task_switch	magnitude	switch	stim	poldrack-single-stim	s465	0	False
577.997	1.0	579.442	0.1	2.0	True	71.0	High-Low	stay	twobytwo	71.0	1.345	blue	1.0	cue_stay	magnitude	stay	stim	poldrack-single-stim	s465	0	False
580.902	1.0	583.014	0.9	2.68	False	71.0	Color	n/a	twobytwo	89.0	1.212	blue	7.0	task_switch	color	switch	stim	poldrack-single-stim	s465	0	False
584.486	1.0	584.485	0.9	2.0	False	71.0	Color	stay	twobytwo	-1.0	n/a	blue	8.0	cue_stay	color	stay	stim	poldrack-single-stim	s465	0	False
587.39	1.0	589.338	0.9	2.272	True	89.0	High-Low	n/a	twobytwo	89.0	1.048	orange	6.0	task_switch	magnitude	switch	stim	poldrack-single-stim	s465	0	False
590.566	1.0	593.003	0.9	2.0	False	71.0	Orange-Blue	n/a	twobytwo	89.0	1.537	blue	3.0	task_switch	color	switch	stim	poldrack-single-stim	s465	0	False
592.67	1.0	593.791	0.1	2.272	True	89.0	Magnitude	n/a	twobytwo	89.0	1.021	orange	8.0	task_switch	magnitude	switch	stim	poldrack-single-stim	s465	0	False
595.847	1.0	595.846	0.9	2.952	False	89.0	Color	n/a	twobytwo	-1.0	n/a	orange	4.0	task_switch	color	switch	stim	poldrack-single-stim	s465	0	False
599.703	1.0	601.301	0.9	2.0	True	71.0	Color	stay	twobytwo	71.0	0.698	blue	9.0	cue_stay	color	stay	stim	poldrack-single-stim	s465	0	False
601.807	1.0	602.875	0.1	2.0	True	71.0	Orange-Blue	switch	twobytwo	71.0	0.968	blue	6.0	cue_switch	color	stay	stim	poldrack-single-stim	s465	0	False
603.911	1.0	604.892	0.1	2.0	True	89.0	High-Low	n/a	twobytwo	89.0	0.881	blue	9.0	task_switch	magnitude	switch	stim	poldrack-single-stim	s465	0	False
606.814	1.0	608.246	0.9	2.0	True	71.0	High-Low	stay	twobytwo	71.0	0.532	orange	2.0	cue_stay	magnitude	stay	stim	poldrack-single-stim	s465	0	False
608.919	1.0	609.846	0.1	2.136	True	89.0	High-Low	stay	twobytwo	89.0	0.827	blue	8.0	cue_stay	magnitude	stay	stim	poldrack-single-stim	s465	0	False
611.161	1.0	611.987	0.1	2.0	True	89.0	Color	n/a	twobytwo	89.0	0.726	orange	9.0	task_switch	color	switch	stim	poldrack-single-stim	s465	0	False
614.066	1.0	615.656	0.9	2.0	True	71.0	Color	stay	twobytwo	71.0	0.69	blue	6.0	cue_stay	color	stay	stim	poldrack-single-stim	s465	0	False
616.17	1.0	617.328	0.1	2.0	True	71.0	Magnitude	n/a	twobytwo	71.0	1.058	blue	2.0	task_switch	magnitude	switch	stim	poldrack-single-stim	s465	0	False
619.074	1.0	620.467	0.9	2.272	True	89.0	Orange-Blue	n/a	twobytwo	89.0	0.493	orange	8.0	task_switch	color	switch	stim	poldrack-single-stim	s465	0	False
621.449	1.0	622.31	0.1	2.136	False	89.0	Magnitude	n/a	twobytwo	71.0	0.761	blue	8.0	task_switch	magnitude	switch	stim	poldrack-single-stim	s465	0	False
623.69	1.0	624.561	0.1	2.0	True	71.0	Orange-Blue	n/a	twobytwo	71.0	0.771	blue	2.0	task_switch	color	switch	stim	poldrack-single-stim	s465	0	False
625.794	1.0	626.609	0.1	2.136	True	71.0	Orange-Blue	stay	twobytwo	71.0	0.715	blue	6.0	cue_stay	color	stay	stim	poldrack-single-stim	s465	0	False
628.835	1.0	630.451	0.9	2.816	False	71.0	High-Low	n/a	twobytwo	89.0	0.716	orange	1.0	task_switch	magnitude	switch	stim	poldrack-single-stim	s465	0	False
631.755	1.0	632.699	0.1	2.408	False	89.0	Magnitude	switch	twobytwo	71.0	0.844	orange	6.0	cue_switch	magnitude	stay	stim	poldrack-single-stim	s465	0	False
634.266	1.0	635.397	0.1	2.0	False	89.0	Color	n/a	twobytwo	71.0	1.031	orange	1.0	task_switch	color	switch	stim	poldrack-single-stim	s465	0	False
636.37	1.0	637.544	0.1	2.136	True	71.0	High-Low	n/a	twobytwo	71.0	1.074	blue	2.0	task_switch	magnitude	switch	stim	poldrack-single-stim	s465	0	False
639.411	1.0	641.037	0.9	2.136	True	71.0	Orange-Blue	n/a	twobytwo	71.0	0.726	blue	3.0	task_switch	color	switch	stim	poldrack-single-stim	s465	0	False
641.652	1.0	642.562	0.1	2.136	True	89.0	High-Low	n/a	twobytwo	89.0	0.81	blue	7.0	task_switch	magnitude	switch	stim	poldrack-single-stim	s465	0	False
644.693	1.0	646.182	0.9	2.544	True	71.0	High-Low	stay	twobytwo	71.0	0.589	orange	2.0	cue_stay	magnitude	stay	stim	poldrack-single-stim	s465	0	False
647.342	1.0	648.214	0.1	2.136	False	71.0	Orange-Blue	n/a	twobytwo	89.0	0.772	blue	9.0	task_switch	color	switch	stim	poldrack-single-stim	s465	0	False
649.584	1.0	650.502	0.1	2.0	True	71.0	Magnitude	n/a	twobytwo	71.0	0.818	blue	1.0	task_switch	magnitude	switch	stim	poldrack-single-stim	s465	0	False
652.489	1.0	654.313	0.9	2.0	True	71.0	Orange-Blue	n/a	twobytwo	71.0	0.924	blue	9.0	task_switch	color	switch	stim	poldrack-single-stim	s465	0	False
655.393	1.0	657.182	0.9	2.0	False	89.0	Orange-Blue	stay	twobytwo	71.0	0.889	orange	7.0	cue_stay	color	stay	stim	poldrack-single-stim	s465	0	False
658.297	1.0	659.837	0.9	2.0	True	71.0	High-Low	n/a	twobytwo	71.0	0.64	orange	1.0	task_switch	magnitude	switch	stim	poldrack-single-stim	s465	0	False
661.201	1.0	662.548	0.9	2.136	True	71.0	Orange-Blue	n/a	twobytwo	71.0	0.447	blue	4.0	task_switch	color	switch	stim	poldrack-single-stim	s465	0	False
664.241	1.0	665.803	0.9	2.0	True	89.0	Color	switch	twobytwo	89.0	0.662	orange	3.0	cue_switch	color	stay	stim	poldrack-single-stim	s465	0	False
667.145	1.0	668.818	0.9	2.0	True	71.0	High-Low	n/a	twobytwo	71.0	0.773	orange	1.0	task_switch	magnitude	switch	stim	poldrack-single-stim	s465	0	False
670.048	1.0	671.55	0.9	2.0	True	71.0	Color	n/a	twobytwo	71.0	0.602	blue	8.0	task_switch	color	switch	stim	poldrack-single-stim	s465	0	False
672.952	1.0	674.693	0.9	2.136	True	89.0	Magnitude	n/a	twobytwo	89.0	0.841	blue	7.0	task_switch	magnitude	switch	stim	poldrack-single-stim	s465	0	False
675.192	1.0	676.003	0.1	2.136	True	71.0	Color	n/a	twobytwo	71.0	0.711	blue	8.0	task_switch	color	switch	stim	poldrack-single-stim	s465	0	False
678.231	1.0	679.745	0.9	2.136	True	89.0	High-Low	n/a	twobytwo	89.0	0.614	orange	9.0	task_switch	magnitude	switch	stim	poldrack-single-stim	s465	0	False
