onset	duration	movement_onset	EV	action	block_duration	experiment_exp_id	gain_amount	gain_probability	key_press	loss_amount	loss_probability	num_cards	num_click_in_round	num_loss_cards	risk	response_time	total_cards	trial_id	trial_type	worker_id	junk	feedback
3.012	2.778	5.79	-0.0755507913336195	draw_card	2.778	columbia_card_task_fmri	12.0	0.8333333333333334	89.0	-70.0	0.1666666666666666	6.0	1.0	1.0	-2.9400511934347264	2.778	n/a	stim	poldrack-single-stim	s471	False	1
5.793	1.784	7.577	-2.8088841246669523	draw_card	1.784	columbia_card_task_fmri	12.0	0.8	89.0	-70.0	0.2	6.0	2.0	1.0	-0.7024708260485255	1.784	n/a	stim	poldrack-single-stim	s471	False	1
7.579	1.502	9.081	-6.908884124666954	end_round	1.502	columbia_card_task_fmri	12.0	0.75	71.0	-70.0	0.25	6.0	3.0	1.0	2.001633272960362	1.502	2.0	stim	poldrack-single-stim	s471	False	1
9.835	1.5	9.084	n/a	-1.0	2.318	columbia_card_task_fmri	n/a	n/a	-1.0	n/a	n/a	n/a	n/a	n/a	n/a	n/a	n/a	ITI	poldrack-single-stim	s471	False	0
11.406	1.594	13.0	0.7577825419997144	draw_card	1.594	columbia_card_task_fmri	14.0	0.8333333333333334	89.0	-75.0	0.1666666666666666	6.0	1.0	1.0	-0.3345569882652697	1.594	n/a	stim	poldrack-single-stim	s471	False	1
13.002	0.966	13.968	-2.2088841246669526	draw_card	0.966	columbia_card_task_fmri	14.0	0.8	89.0	-75.0	0.2	6.0	2.0	1.0	2.0944987684764627	0.966	n/a	stim	poldrack-single-stim	s471	False	1
13.97	3.136	17.106	-6.658884124666954	end_round	3.136	columbia_card_task_fmri	14.0	0.75	71.0	-75.0	0.25	6.0	3.0	1.0	5.029922149577956	3.136	2.0	stim	poldrack-single-stim	s471	False	1
17.861	1.5	17.11	n/a	-1.0	2.318	columbia_card_task_fmri	n/a	n/a	-1.0	n/a	n/a	n/a	n/a	n/a	n/a	n/a	n/a	ITI	poldrack-single-stim	s471	False	0
19.431	1.06	20.491	2.4244492086663803	draw_card	1.06	columbia_card_task_fmri	15.0	0.8333333333333334	89.0	-70.0	0.1666666666666666	6.0	1.0	1.0	-1.823476278216706	1.06	n/a	stim	poldrack-single-stim	s471	False	1
20.493	0.649	21.142	-0.4088841246669534	draw_card	0.649	columbia_card_task_fmri	15.0	0.8	89.0	-70.0	0.2	6.0	2.0	1.0	0.4961694112325077	0.649	n/a	stim	poldrack-single-stim	s471	False	1
21.145	1.32	22.465	-4.658884124666954	end_round	1.32	columbia_card_task_fmri	15.0	0.75	71.0	-70.0	0.25	6.0	3.0	1.0	3.299414970407696	1.32	2.0	stim	poldrack-single-stim	s471	False	1
23.219	1.5	22.468	n/a	-1.0	2.862	columbia_card_task_fmri	n/a	n/a	-1.0	n/a	n/a	n/a	n/a	n/a	n/a	n/a	n/a	ITI	poldrack-single-stim	s471	False	0
25.333	1.312	26.645	3.257782541999714	draw_card	1.312	columbia_card_task_fmri	17.0	0.8333333333333334	89.0	-75.0	0.1666666666666666	6.0	1.0	1.0	0.7822346084584808	1.312	n/a	stim	poldrack-single-stim	s471	False	1
26.646	0.647	27.293	0.1911158753330479	draw_card	0.647	columbia_card_task_fmri	17.0	0.8	89.0	-75.0	0.2	6.0	2.0	1.0	3.2933409834119374	0.647	2.0	stim	poldrack-single-stim	s471	False	0
28.049	1.5	27.298	n/a	-1.0	2.726	columbia_card_task_fmri	n/a	n/a	-1.0	n/a	n/a	n/a	n/a	n/a	n/a	n/a	n/a	ITI	poldrack-single-stim	s471	False	0
30.026	1.622	31.648	4.591115875333046	draw_card	1.622	columbia_card_task_fmri	24.0	0.75	89.0	-60.0	0.25	8.0	1.0	2.0	2.866811114110476	1.622	1.0	stim	poldrack-single-stim	s471	False	0
32.402	1.5	31.651	n/a	-1.0	2.25	columbia_card_task_fmri	n/a	n/a	-1.0	n/a	n/a	n/a	n/a	n/a	n/a	n/a	n/a	ITI	poldrack-single-stim	s471	False	0
33.904	1.75	35.654	4.591115875333046	draw_card	1.75	columbia_card_task_fmri	29.0	0.75	89.0	-75.0	0.25	8.0	1.0	2.0	11.520380487309986	1.75	n/a	stim	poldrack-single-stim	s471	False	1
35.656	0.629	36.285	0.8768301610473348	draw_card	0.629	columbia_card_task_fmri	29.0	0.7142857142857143	89.0	-75.0	0.2857142857142857	8.0	2.0	2.0	13.4683053864876	0.629	n/a	stim	poldrack-single-stim	s471	False	1
36.287	0.763	37.05	-4.075550791333618	draw_card	0.763	columbia_card_task_fmri	29.0	0.6666666666666667	89.0	-75.0	0.3333333333333333	8.0	3.0	2.0	15.510842419866664	0.763	n/a	stim	poldrack-single-stim	s471	False	1
37.052	1.309	38.361	-11.008884124666954	end_round	1.309	columbia_card_task_fmri	29.0	0.6	71.0	-75.0	0.4	8.0	4.0	2.0	17.43318497647452	1.309	3.0	stim	poldrack-single-stim	s471	False	1
39.115	1.5	38.364	n/a	-1.0	2.318	columbia_card_task_fmri	n/a	n/a	-1.0	n/a	n/a	n/a	n/a	n/a	n/a	n/a	n/a	ITI	poldrack-single-stim	s471	False	0
40.685	2.42	43.105	0.3688936531108269	draw_card	2.42	columbia_card_task_fmri	17.0	0.7777777777777778	89.0	-65.0	0.2222222222222222	9.0	1.0	2.0	0.5867267588015039	2.42	n/a	stim	poldrack-single-stim	s471	False	1
43.108	0.666	43.774	-1.9088841246669532	draw_card	0.666	columbia_card_task_fmri	17.0	0.75	89.0	-65.0	0.25	9.0	2.0	2.0	2.001633272960362	0.666	2.0	stim	poldrack-single-stim	s471	False	0
44.528	1.5	43.777	n/a	-1.0	2.454	columbia_card_task_fmri	n/a	n/a	-1.0	n/a	n/a	n/a	n/a	n/a	n/a	n/a	n/a	ITI	poldrack-single-stim	s471	False	0
46.234	1.412	47.646	4.691115875333046	draw_card	1.412	columbia_card_task_fmri	14.0	0.9	89.0	-95.0	0.1	10.0	1.0	1.0	-0.8023530155405112	1.412	n/a	stim	poldrack-single-stim	s471	False	1
47.649	0.925	48.574	3.480004764221934	draw_card	0.925	columbia_card_task_fmri	14.0	0.8888888888888888	89.0	-95.0	0.1111111111111111	10.0	2.0	1.0	0.7512874666573452	0.925	n/a	stim	poldrack-single-stim	s471	False	1
48.577	1.515	50.092	1.9661158753330463	draw_card	1.515	columbia_card_task_fmri	14.0	0.875	89.0	-95.0	0.125	10.0	3.0	1.0	2.542418786369687	1.515	n/a	stim	poldrack-single-stim	s471	False	1
50.094	0.934	51.028	0.0196873039044753	draw_card	0.934	columbia_card_task_fmri	14.0	0.8571428571428572	89.0	-95.0	0.1428571428571428	10.0	4.0	1.0	4.634186888232939	0.934	n/a	stim	poldrack-single-stim	s471	False	1
51.031	0.926	51.957	-2.575550791333618	end_round	0.926	columbia_card_task_fmri	14.0	0.8333333333333334	71.0	-95.0	0.1666666666666666	10.0	5.0	1.0	7.112010420479514	0.926	4.0	stim	poldrack-single-stim	s471	False	1
52.711	1.5	51.96	n/a	-1.0	2.522	columbia_card_task_fmri	n/a	n/a	-1.0	n/a	n/a	n/a	n/a	n/a	n/a	n/a	n/a	ITI	poldrack-single-stim	s471	False	0
54.486	1.507	55.993	0.5911158753330465	draw_card	1.507	columbia_card_task_fmri	15.0	0.8	89.0	-65.0	0.2	10.0	1.0	2.0	-1.501507762706744	1.507	n/a	stim	poldrack-single-stim	s471	False	1
55.996	0.537	56.533	-1.1866619024447302	draw_card	0.537	columbia_card_task_fmri	15.0	0.7777777777777778	89.0	-65.0	0.2222222222222222	10.0	2.0	2.0	-0.2438259339753301	0.537	n/a	stim	poldrack-single-stim	s471	False	1
56.534	0.596	57.13	-3.4088841246669537	draw_card	0.596	columbia_card_task_fmri	15.0	0.75	89.0	-65.0	0.25	10.0	3.0	2.0	1.1364977446201294	0.596	n/a	stim	poldrack-single-stim	s471	False	1
57.133	1.899	59.032	-6.266026981809808	end_round	1.899	columbia_card_task_fmri	15.0	0.7142857142857143	71.0	-65.0	0.2857142857142857	10.0	4.0	2.0	2.634284074556	1.899	3.0	stim	poldrack-single-stim	s471	False	1
59.784	1.5	59.033	n/a	-1.0	2.318	columbia_card_task_fmri	n/a	n/a	-1.0	n/a	n/a	n/a	n/a	n/a	n/a	n/a	n/a	ITI	poldrack-single-stim	s471	False	0
61.354	1.348	62.702	2.191115875333048	draw_card	1.348	columbia_card_task_fmri	17.0	0.8	89.0	-65.0	0.2	10.0	1.0	2.0	-0.7024708260485255	1.348	n/a	stim	poldrack-single-stim	s471	False	1
62.704	0.675	63.379	0.3688936531108269	draw_card	0.675	columbia_card_task_fmri	17.0	0.7777777777777778	89.0	-65.0	0.2222222222222222	10.0	2.0	2.0	0.5867267588015039	0.675	n/a	stim	poldrack-single-stim	s471	False	1
63.382	0.869	64.251	-1.9088841246669532	draw_card	0.869	columbia_card_task_fmri	17.0	0.75	89.0	-65.0	0.25	10.0	3.0	2.0	2.001633272960362	0.869	n/a	stim	poldrack-single-stim	s471	False	1
64.253	1.146	65.399	-4.837455553238381	draw_card	1.146	columbia_card_task_fmri	17.0	0.7142857142857143	89.0	-65.0	0.2857142857142857	10.0	4.0	2.0	3.536938912149381	1.146	n/a	stim	poldrack-single-stim	s471	False	1
65.402	1.829	67.231	-8.742217458000283	end_round	1.829	columbia_card_task_fmri	17.0	0.6666666666666667	71.0	-65.0	0.3333333333333333	10.0	5.0	2.0	5.146863061289508	1.829	4.0	stim	poldrack-single-stim	s471	False	1
67.984	1.5	67.233	n/a	-1.0	2.522	columbia_card_task_fmri	n/a	n/a	-1.0	n/a	n/a	n/a	n/a	n/a	n/a	n/a	n/a	ITI	poldrack-single-stim	s471	False	0
69.759	1.662	71.421	0.7577825419997144	draw_card	1.662	columbia_card_task_fmri	13.0	0.8333333333333334	89.0	-70.0	0.1666666666666666	12.0	1.0	2.0	-2.5678712513817707	1.662	n/a	stim	poldrack-single-stim	s471	False	1
71.424	0.478	71.902	-0.4997932155760469	draw_card	0.478	columbia_card_task_fmri	13.0	0.8181818181818181	89.0	-70.0	0.1818181818181818	12.0	2.0	2.0	-1.488870910676873	0.478	n/a	stim	poldrack-single-stim	s471	False	1
71.905	2.595	74.5	-2.0088841246669533	draw_card	2.595	columbia_card_task_fmri	13.0	0.8	89.0	-70.0	0.2	12.0	3.0	2.0	-0.3029349833733192	2.595	n/a	stim	poldrack-single-stim	s471	False	1
74.503	1.84	76.343	-3.8533285691113983	draw_card	1.84	columbia_card_task_fmri	13.0	0.7777777777777778	89.0	-70.0	0.2222222222222222	12.0	4.0	2.0	1.0020198261634263	1.84	4.0	stim	poldrack-single-stim	s471	False	0
77.097	1.5	76.346	n/a	-1.0	2.998	columbia_card_task_fmri	n/a	n/a	-1.0	n/a	n/a	n/a	n/a	n/a	n/a	n/a	n/a	ITI	poldrack-single-stim	s471	False	0
79.349	0.936	80.285	0.7577825419997144	draw_card	0.936	columbia_card_task_fmri	15.0	0.8333333333333334	89.0	-80.0	0.1666666666666666	12.0	1.0	2.0	1.899104549459949	0.936	n/a	stim	poldrack-single-stim	s471	False	1
80.288	0.515	80.803	-0.6816113973942286	draw_card	0.515	columbia_card_task_fmri	15.0	0.8181818181818181	89.0	-80.0	0.1818181818181818	12.0	2.0	2.0	3.1344778016608856	0.515	n/a	stim	poldrack-single-stim	s471	False	1
80.806	0.54	81.346	-2.4088841246669537	draw_card	0.54	columbia_card_task_fmri	15.0	0.8	89.0	-80.0	0.2	12.0	3.0	2.0	4.492256222423769	0.54	n/a	stim	poldrack-single-stim	s471	False	1
81.349	1.054	82.403	-4.519995235778066	draw_card	1.054	columbia_card_task_fmri	15.0	0.7777777777777778	89.0	-80.0	0.2222222222222222	12.0	4.0	2.0	5.986269086823917	1.054	n/a	stim	poldrack-single-stim	s471	False	1
82.405	1.183	83.588	-7.158884124666954	draw_card	1.183	columbia_card_task_fmri	15.0	0.75	89.0	-80.0	0.25	12.0	5.0	2.0	7.625926359209686	1.183	n/a	stim	poldrack-single-stim	s471	False	1
83.592	1.407	84.999	-10.551741267524092	end_round	1.407	columbia_card_task_fmri	15.0	0.7142857142857143	71.0	-80.0	0.2857142857142857	12.0	6.0	2.0	9.405069865687182	1.407	5.0	stim	poldrack-single-stim	s471	False	1
85.752	1.5	85.001	n/a	-1.0	2.318	columbia_card_task_fmri	n/a	n/a	-1.0	n/a	n/a	n/a	n/a	n/a	n/a	n/a	n/a	ITI	poldrack-single-stim	s471	False	0
87.324	1.181	88.505	-0.2088841246669524	draw_card	1.181	columbia_card_task_fmri	14.0	0.8	89.0	-65.0	0.2	15.0	1.0	3.0	-1.9010079791467405	1.181	1.0	stim	poldrack-single-stim	s471	False	0
89.26	1.5	88.509	n/a	-1.0	2.25	columbia_card_task_fmri	n/a	n/a	-1.0	n/a	n/a	n/a	n/a	n/a	n/a	n/a	n/a	ITI	poldrack-single-stim	s471	False	0
90.763	3.039	93.802	-0.2838841246669534	end_round	3.039	columbia_card_task_fmri	1.0	0.9375	71.0	-45.0	0.0625	16.0	1.0	1.0	-22.293106127816927	3.039	0.0	stim	poldrack-single-stim	s471	False	1
94.556	1.5	93.805	n/a	-1.0	2.454	columbia_card_task_fmri	n/a	n/a	-1.0	n/a	n/a	n/a	n/a	n/a	n/a	n/a	n/a	ITI	poldrack-single-stim	s471	False	0
96.263	1.192	97.455	0.6536158753330465	draw_card	1.192	columbia_card_task_fmri	15.0	0.8125	89.0	-70.0	0.1875	16.0	1.0	3.0	-0.3263562161121811	1.192	n/a	stim	poldrack-single-stim	s471	False	1
97.456	0.891	98.347	-0.4088841246669534	draw_card	0.891	columbia_card_task_fmri	15.0	0.8	89.0	-70.0	0.2	16.0	2.0	3.0	0.4961694112325077	0.891	n/a	stim	poldrack-single-stim	s471	False	1
98.35	1.088	99.438	-1.6231698389526688	draw_card	1.088	columbia_card_task_fmri	15.0	0.7857142857142857	89.0	-70.0	0.2142857142857142	16.0	3.0	3.0	1.3729357903190618	1.088	n/a	stim	poldrack-single-stim	s471	False	1
99.442	1.454	100.896	-3.0242687400515704	draw_card	1.454	columbia_card_task_fmri	15.0	0.7692307692307692	89.0	-70.0	0.2307692307692307	16.0	4.0	3.0	2.306916732014635	1.454	n/a	stim	poldrack-single-stim	s471	False	1
100.899	2.481	103.38	-4.658884124666954	end_round	2.481	columbia_card_task_fmri	15.0	0.75	71.0	-70.0	0.25	16.0	5.0	3.0	3.299414970407696	2.481	4.0	stim	poldrack-single-stim	s471	False	1
104.135	1.5	103.384	n/a	-1.0	2.318	columbia_card_task_fmri	n/a	n/a	-1.0	n/a	n/a	n/a	n/a	n/a	n/a	n/a	n/a	ITI	poldrack-single-stim	s471	False	0
105.706	1.42	107.126	7.591115875333046	draw_card	1.42	columbia_card_task_fmri	30.0	0.7	89.0	-50.0	0.3	10.0	1.0	3.0	3.15407714839381	1.42	n/a	stim	poldrack-single-stim	s471	False	1
107.129	1.051	108.18	4.924449208666386	draw_card	1.051	columbia_card_task_fmri	30.0	0.6666666666666667	89.0	-50.0	0.3333333333333333	10.0	2.0	3.0	4.204871619377201	1.051	2.0	stim	poldrack-single-stim	s471	False	0
108.934	1.5	108.183	n/a	-1.0	2.318	columbia_card_task_fmri	n/a	n/a	-1.0	n/a	n/a	n/a	n/a	n/a	n/a	n/a	n/a	ITI	poldrack-single-stim	s471	False	0
110.506	0.858	111.364	6.991115875333047	draw_card	0.858	columbia_card_task_fmri	17.0	0.8666666666666667	89.0	-70.0	0.1333333333333333	15.0	1.0	2.0	-3.923956622668477	0.858	n/a	stim	poldrack-single-stim	s471	False	1
111.367	0.718	112.085	6.162544446761619	draw_card	0.718	columbia_card_task_fmri	17.0	0.8571428571428572	89.0	-70.0	0.1428571428571428	15.0	2.0	2.0	-3.055831231368288	0.718	2.0	stim	poldrack-single-stim	s471	False	0
112.84	1.5	112.089	n/a	-1.0	2.59	columbia_card_task_fmri	n/a	n/a	-1.0	n/a	n/a	n/a	n/a	n/a	n/a	n/a	n/a	ITI	poldrack-single-stim	s471	False	0
114.683	1.225	115.908	2.2161158753330463	draw_card	1.225	columbia_card_task_fmri	7.0	0.9375	89.0	-95.0	0.0625	16.0	1.0	1.0	-8.799556487626166	1.225	n/a	stim	poldrack-single-stim	s471	False	1
115.911	0.487	116.398	1.7911158753330467	draw_card	0.487	columbia_card_task_fmri	7.0	0.9333333333333332	89.0	-95.0	0.0666666666666666	16.0	2.0	1.0	-8.048067814785007	0.487	n/a	stim	poldrack-single-stim	s471	False	1
116.401	0.903	117.304	1.305401589618761	draw_card	0.903	columbia_card_task_fmri	7.0	0.9285714285714286	89.0	-95.0	0.0714285714285714	16.0	3.0	1.0	-7.22388105920351	0.903	n/a	stim	poldrack-single-stim	s471	False	1
117.308	1.496	118.804	0.7449620291791998	draw_card	1.496	columbia_card_task_fmri	7.0	0.9230769230769232	89.0	-95.0	0.0769230769230769	16.0	4.0	1.0	-6.314633852994625	1.496	n/a	stim	poldrack-single-stim	s471	False	1
118.807	0.59	119.397	0.0911158753330465	draw_card	0.59	columbia_card_task_fmri	7.0	0.9166666666666666	89.0	-95.0	0.0833333333333333	16.0	5.0	1.0	-5.304864111555336	0.59	n/a	stim	poldrack-single-stim	s471	False	1
119.4	1.81	121.21	-0.6816113973942268	draw_card	1.81	columbia_card_task_fmri	7.0	0.9090909090909092	89.0	-95.0	0.0909090909090909	16.0	6.0	1.0	-4.174965377919012	1.81	6.0	stim	poldrack-single-stim	s471	False	0
121.966	1.5	121.215	n/a	-1.0	2.25	columbia_card_task_fmri	n/a	n/a	-1.0	n/a	n/a	n/a	n/a	n/a	n/a	n/a	n/a	ITI	poldrack-single-stim	s471	False	0
123.469	1.48	124.949	3.7786158753330463	draw_card	1.48	columbia_card_task_fmri	9.0	0.9375	89.0	-100.0	0.0625	16.0	1.0	1.0	-7.108409145509302	1.48	1.0	stim	poldrack-single-stim	s471	False	0
125.704	1.5	124.953	n/a	-1.0	2.25	columbia_card_task_fmri	n/a	n/a	-1.0	n/a	n/a	n/a	n/a	n/a	n/a	n/a	n/a	ITI	poldrack-single-stim	s471	False	0
127.208	0.734	127.942	4.716115875333046	draw_card	0.734	columbia_card_task_fmri	15.0	0.875	89.0	-80.0	0.125	16.0	1.0	2.0	-2.0824799341752005	0.734	n/a	stim	poldrack-single-stim	s471	False	1
127.946	0.532	128.478	3.92444920866638	draw_card	0.532	columbia_card_task_fmri	15.0	0.8666666666666667	89.0	-80.0	0.1333333333333333	16.0	2.0	2.0	-1.20807671705942	0.532	n/a	stim	poldrack-single-stim	s471	False	1
128.482	0.572	129.054	3.019687303904477	draw_card	0.572	columbia_card_task_fmri	15.0	0.8571428571428572	89.0	-80.0	0.1428571428571428	16.0	3.0	2.0	-0.2599092217234897	0.572	n/a	stim	poldrack-single-stim	s471	False	1
129.057	1.436	130.493	1.9757312599484296	draw_card	1.436	columbia_card_task_fmri	15.0	0.8461538461538461	89.0	-80.0	0.1538461538461538	16.0	4.0	2.0	0.7719851552614898	1.436	n/a	stim	poldrack-single-stim	s471	False	1
130.497	1.739	132.236	0.7577825419997144	end_round	1.739	columbia_card_task_fmri	15.0	0.8333333333333334	71.0	-80.0	0.1666666666666666	16.0	5.0	2.0	1.899104549459949	1.739	4.0	stim	poldrack-single-stim	s471	False	1
132.99	1.5	132.239	n/a	-1.0	2.522	columbia_card_task_fmri	n/a	n/a	-1.0	n/a	n/a	n/a	n/a	n/a	n/a	n/a	n/a	ITI	poldrack-single-stim	s471	False	0
134.766	3.722	138.488	6.841115875333046	draw_card	3.722	columbia_card_task_fmri	16.0	0.875	89.0	-70.0	0.125	16.0	1.0	2.0	-5.054742792082269	3.722	n/a	stim	poldrack-single-stim	s471	False	1
138.492	0.589	139.081	6.12444920866638	draw_card	0.589	columbia_card_task_fmri	16.0	0.8666666666666667	89.0	-70.0	0.1333333333333333	16.0	2.0	2.0	-4.263394655467081	0.589	n/a	stim	poldrack-single-stim	s471	False	1
139.083	0.698	139.781	5.305401589618762	draw_card	0.698	columbia_card_task_fmri	16.0	0.8571428571428572	89.0	-70.0	0.1428571428571428	16.0	3.0	2.0	-3.405275857429426	0.698	n/a	stim	poldrack-single-stim	s471	False	1
139.785	0.96	140.745	4.360346644563815	draw_card	0.96	columbia_card_task_fmri	16.0	0.8461538461538461	89.0	-70.0	0.1538461538461538	16.0	4.0	2.0	-2.47136787248002	0.96	n/a	stim	poldrack-single-stim	s471	False	1
140.749	1.529	142.278	3.257782541999714	end_round	1.529	columbia_card_task_fmri	16.0	0.8333333333333334	71.0	-70.0	0.1666666666666666	16.0	5.0	2.0	-1.451262061074658	1.529	4.0	stim	poldrack-single-stim	s471	False	1
143.033	1.5	142.282	n/a	-1.0	2.454	columbia_card_task_fmri	n/a	n/a	-1.0	n/a	n/a	n/a	n/a	n/a	n/a	n/a	n/a	ITI	poldrack-single-stim	s471	False	0
144.741	1.96	146.701	8.153615875333047	draw_card	1.96	columbia_card_task_fmri	30.0	0.6875	89.0	-45.0	0.3125	16.0	1.0	5.0	1.2587835295659104	1.96	n/a	stim	poldrack-single-stim	s471	False	1
146.705	1.645	148.35	6.59111587533305	draw_card	1.645	columbia_card_task_fmri	30.0	0.6666666666666667	89.0	-45.0	0.3333333333333333	16.0	2.0	5.0	1.850083512834722	1.645	2.0	stim	poldrack-single-stim	s471	False	0
149.104	1.5	148.353	n/a	-1.0	2.25	columbia_card_task_fmri	n/a	n/a	-1.0	n/a	n/a	n/a	n/a	n/a	n/a	n/a	n/a	ITI	poldrack-single-stim	s471	False	0
150.608	3.344	153.952	-0.0755507913336195	draw_card	3.344	columbia_card_task_fmri	13.0	0.8333333333333334	89.0	-75.0	0.1666666666666666	6.0	1.0	1.0	-0.7068020622746829	3.344	n/a	stim	poldrack-single-stim	s471	False	1
153.955	0.681	154.636	-3.0088841246669533	draw_card	0.681	columbia_card_task_fmri	13.0	0.8	89.0	-75.0	0.2	6.0	2.0	1.0	1.6949022126856974	0.681	n/a	stim	poldrack-single-stim	s471	False	1
154.64	0.88	155.52	-7.408884124666954	end_round	0.88	columbia_card_task_fmri	13.0	0.75	71.0	-75.0	0.25	6.0	3.0	1.0	4.597282216175174	0.88	2.0	stim	poldrack-single-stim	s471	False	1
156.275	1.5	155.524	n/a	-1.0	2.454	columbia_card_task_fmri	n/a	n/a	-1.0	n/a	n/a	n/a	n/a	n/a	n/a	n/a	n/a	ITI	poldrack-single-stim	s471	False	0
157.983	0.955	158.938	1.5911158753330483	draw_card	0.955	columbia_card_task_fmri	14.0	0.8333333333333334	89.0	-70.0	0.1666666666666666	6.0	1.0	1.0	-2.195679474094451	0.955	n/a	stim	poldrack-single-stim	s471	False	1
158.941	0.737	159.678	-1.2088841246669524	draw_card	0.737	columbia_card_task_fmri	14.0	0.8	89.0	-70.0	0.2	6.0	2.0	1.0	0.0966118918934526	0.737	n/a	stim	poldrack-single-stim	s471	False	1
159.682	0.86	160.542	-5.408884124666954	end_round	0.86	columbia_card_task_fmri	14.0	0.75	71.0	-70.0	0.25	6.0	3.0	1.0	2.866811114110476	0.86	2.0	stim	poldrack-single-stim	s471	False	1
161.297	1.5	160.546	n/a	-1.0	2.454	columbia_card_task_fmri	n/a	n/a	-1.0	n/a	n/a	n/a	n/a	n/a	n/a	n/a	n/a	ITI	poldrack-single-stim	s471	False	0
163.005	0.913	163.918	1.5911158753330483	draw_card	0.913	columbia_card_task_fmri	16.0	0.8333333333333334	89.0	-80.0	0.1666666666666666	6.0	1.0	1.0	2.271410672754598	0.913	n/a	stim	poldrack-single-stim	s471	False	1
163.923	0.4	164.323	-1.6088841246669527	draw_card	0.4	columbia_card_task_fmri	16.0	0.8	89.0	-80.0	0.2	6.0	2.0	1.0	4.8919096818349175	0.4	n/a	stim	poldrack-single-stim	s471	False	1
164.327	0.959	165.286	-6.408884124666954	draw_card	0.959	columbia_card_task_fmri	16.0	0.75	89.0	-80.0	0.25	6.0	3.0	1.0	8.05861887960667	0.959	n/a	stim	poldrack-single-stim	s471	False	1
165.289	0.923	166.212	-14.40888412466695	end_round	0.923	columbia_card_task_fmri	16.0	0.6666666666666667	71.0	-80.0	0.3333333333333333	6.0	4.0	1.0	11.741756028625495	0.923	3.0	stim	poldrack-single-stim	s471	False	1
166.967	1.5	166.216	n/a	-1.0	2.522	columbia_card_task_fmri	n/a	n/a	-1.0	n/a	n/a	n/a	n/a	n/a	n/a	n/a	n/a	ITI	poldrack-single-stim	s471	False	0
168.743	0.727	169.47	4.091115875333048	draw_card	0.727	columbia_card_task_fmri	17.0	0.8333333333333334	89.0	-70.0	0.1666666666666666	6.0	1.0	1.0	-1.0790372017827394	0.727	n/a	stim	poldrack-single-stim	s471	False	1
169.474	0.407	169.881	1.191115875333048	draw_card	0.407	columbia_card_task_fmri	17.0	0.8	89.0	-70.0	0.2	6.0	2.0	1.0	1.2953149171243863	0.407	n/a	stim	poldrack-single-stim	s471	False	1
169.887	0.421	170.308	-3.1588841246669537	draw_card	0.421	columbia_card_task_fmri	17.0	0.75	89.0	-70.0	0.25	6.0	3.0	1.0	4.164650840845489	0.421	3.0	stim	poldrack-single-stim	s471	False	0
171.062	1.5	170.311	n/a	-1.0	2.454	columbia_card_task_fmri	n/a	n/a	-1.0	n/a	n/a	n/a	n/a	n/a	n/a	n/a	n/a	ITI	poldrack-single-stim	s471	False	0
172.771	3.85	176.621	4.091115875333046	draw_card	3.85	columbia_card_task_fmri	25.0	0.75	89.0	-65.0	0.25	8.0	1.0	2.0	5.462570356267584	3.85	n/a	stim	poldrack-single-stim	s471	False	1
176.625	0.599	177.224	0.8768301610473348	draw_card	0.599	columbia_card_task_fmri	25.0	0.7142857142857143	89.0	-65.0	0.2857142857142857	8.0	2.0	2.0	7.147936935582095	0.599	2.0	stim	poldrack-single-stim	s471	False	0
177.979	1.5	177.228	n/a	-1.0	2.658	columbia_card_task_fmri	n/a	n/a	-1.0	n/a	n/a	n/a	n/a	n/a	n/a	n/a	n/a	ITI	poldrack-single-stim	s471	False	0
179.892	1.507	181.399	4.091115875333046	draw_card	1.507	columbia_card_task_fmri	30.0	0.75	89.0	-80.0	0.25	8.0	1.0	2.0	14.116924858036969	1.507	n/a	stim	poldrack-single-stim	s471	False	1
181.402	0.655	182.057	0.162544446761623	draw_card	0.655	columbia_card_task_fmri	30.0	0.7142857142857143	89.0	-80.0	0.2857142857142857	8.0	2.0	2.0	16.177360698181744	0.655	n/a	stim	poldrack-single-stim	s471	False	1
182.06	0.898	182.958	-5.075550791333614	draw_card	0.898	columbia_card_task_fmri	30.0	0.6666666666666667	89.0	-80.0	0.3333333333333333	8.0	3.0	2.0	18.33786226451096	0.898	3.0	stim	poldrack-single-stim	s471	False	0
183.713	1.5	182.962	n/a	-1.0	2.386	columbia_card_task_fmri	n/a	n/a	-1.0	n/a	n/a	n/a	n/a	n/a	n/a	n/a	n/a	ITI	poldrack-single-stim	s471	False	0
185.354	0.627	185.981	3.791115875333048	draw_card	0.627	columbia_card_task_fmri	13.0	0.9	89.0	-95.0	0.1	10.0	1.0	1.0	-1.1019952284830763	0.627	n/a	stim	poldrack-single-stim	s471	False	1
185.984	0.697	186.681	2.5911158753330463	draw_card	0.697	columbia_card_task_fmri	13.0	0.8888888888888888	89.0	-95.0	0.1111111111111111	10.0	2.0	1.0	0.4373593817789825	0.697	n/a	stim	poldrack-single-stim	s471	False	1
186.685	0.536	187.221	1.0911158753330463	draw_card	0.536	columbia_card_task_fmri	13.0	0.875	89.0	-95.0	0.125	10.0	3.0	1.0	2.2120245292468823	0.536	n/a	stim	poldrack-single-stim	s471	False	1
187.224	1.196	188.42	-0.8374555532383805	draw_card	1.196	columbia_card_task_fmri	13.0	0.8571428571428572	89.0	-95.0	0.1428571428571428	10.0	4.0	1.0	4.284566666063327	1.196	n/a	stim	poldrack-single-stim	s471	False	1
188.424	0.573	188.997	-3.408884124666952	end_round	0.573	columbia_card_task_fmri	13.0	0.8333333333333334	71.0	-95.0	0.1666666666666666	10.0	5.0	1.0	6.739620618678224	0.573	4.0	stim	poldrack-single-stim	s471	False	1
189.753	1.5	189.002	n/a	-1.0	2.522	columbia_card_task_fmri	n/a	n/a	-1.0	n/a	n/a	n/a	n/a	n/a	n/a	n/a	n/a	ITI	poldrack-single-stim	s471	False	0
191.528	1.009	192.537	5.191115875333046	draw_card	1.009	columbia_card_task_fmri	14.0	0.9	89.0	-90.0	0.1	10.0	1.0	1.0	-2.3004954052482027	1.009	1.0	stim	poldrack-single-stim	s471	False	0
193.293	1.5	192.542	n/a	-1.0	2.59	columbia_card_task_fmri	n/a	n/a	-1.0	n/a	n/a	n/a	n/a	n/a	n/a	n/a	n/a	ITI	poldrack-single-stim	s471	False	0
195.137	0.657	195.794	0.3911158753330472	draw_card	0.657	columbia_card_task_fmri	16.0	0.8	89.0	-70.0	0.2	10.0	1.0	2.0	0.8957372041458527	0.657	n/a	stim	poldrack-single-stim	s471	False	1
195.798	0.451	196.249	-1.5199952357780642	draw_card	0.451	columbia_card_task_fmri	16.0	0.7777777777777778	89.0	-70.0	0.2222222222222222	10.0	2.0	2.0	2.2479612554161648	0.451	n/a	stim	poldrack-single-stim	s471	False	1
196.254	0.411	196.665	-3.9088841246669537	draw_card	0.411	columbia_card_task_fmri	16.0	0.75	89.0	-70.0	0.25	10.0	3.0	2.0	3.7320283215915566	0.411	3.0	stim	poldrack-single-stim	s471	False	0
197.42	1.5	196.669	n/a	-1.0	2.386	columbia_card_task_fmri	n/a	n/a	-1.0	n/a	n/a	n/a	n/a	n/a	n/a	n/a	n/a	ITI	poldrack-single-stim	s471	False	0
199.061	2.023	201.084	-0.3255507913336195	draw_card	2.023	columbia_card_task_fmri	7.0	0.9166666666666666	89.0	-100.0	0.0833333333333333	12.0	1.0	1.0	-3.9250305343496414	2.023	n/a	stim	poldrack-single-stim	s471	False	1
201.088	0.846	201.934	-1.136156851939682	end_round	0.846	columbia_card_task_fmri	7.0	0.9090909090909092	71.0	-100.0	0.0909090909090909	12.0	2.0	1.0	-2.7395794175939336	0.846	1.0	stim	poldrack-single-stim	s471	False	1
202.69	1.5	201.939	n/a	-1.0	2.59	columbia_card_task_fmri	n/a	n/a	-1.0	n/a	n/a	n/a	n/a	n/a	n/a	n/a	n/a	ITI	poldrack-single-stim	s471	False	0
204.534	1.055	205.589	-0.0755507913336177	draw_card	1.055	columbia_card_task_fmri	14.0	0.8333333333333334	89.0	-80.0	0.1666666666666666	12.0	1.0	2.0	1.5268063262647829	1.055	n/a	stim	poldrack-single-stim	s471	False	1
205.593	0.911	206.504	-1.499793215576047	draw_card	0.911	columbia_card_task_fmri	14.0	0.8181818181818181	89.0	-80.0	0.1818181818181818	12.0	2.0	2.0	2.749150187241632	0.911	n/a	stim	poldrack-single-stim	s471	False	1
206.507	0.833	207.34	-3.2088841246669526	draw_card	0.833	columbia_card_task_fmri	14.0	0.8	89.0	-80.0	0.2	12.0	3.0	2.0	4.092610126433499	0.833	n/a	stim	poldrack-single-stim	s471	False	1
207.344	1.078	208.422	-5.297773013555843	draw_card	1.078	columbia_card_task_fmri	14.0	0.7777777777777778	89.0	-80.0	0.2222222222222222	12.0	4.0	2.0	5.570869916117552	1.078	n/a	stim	poldrack-single-stim	s471	False	1
208.426	0.54	208.966	-7.908884124666954	end_round	0.54	columbia_card_task_fmri	14.0	0.75	71.0	-80.0	0.25	12.0	5.0	2.0	7.193240643469835	0.54	4.0	stim	poldrack-single-stim	s471	False	1
209.722	1.5	208.971	n/a	-1.0	2.318	columbia_card_task_fmri	n/a	n/a	-1.0	n/a	n/a	n/a	n/a	n/a	n/a	n/a	n/a	ITI	poldrack-single-stim	s471	False	0
211.295	0.84	212.135	1.5911158753330463	draw_card	0.84	columbia_card_task_fmri	15.0	0.8333333333333334	89.0	-75.0	0.1666666666666666	12.0	1.0	2.0	0.0376976898516545	0.84	1.0	stim	poldrack-single-stim	s471	False	0
212.89	1.5	212.139	n/a	-1.0	2.25	columbia_card_task_fmri	n/a	n/a	-1.0	n/a	n/a	n/a	n/a	n/a	n/a	n/a	n/a	ITI	poldrack-single-stim	s471	False	0
214.394	0.491	214.885	0.5911158753330465	draw_card	0.491	columbia_card_task_fmri	15.0	0.8	89.0	-65.0	0.2	15.0	1.0	3.0	-1.501507762706744	0.491	n/a	stim	poldrack-single-stim	s471	False	1
214.889	0.479	215.368	-0.5517412675240958	draw_card	0.479	columbia_card_task_fmri	15.0	0.7857142857142857	89.0	-65.0	0.2142857142857142	15.0	2.0	3.0	-0.6764291582258437	0.479	n/a	stim	poldrack-single-stim	s471	False	1
215.372	1.131	216.503	-1.870422586205417	draw_card	1.131	columbia_card_task_fmri	15.0	0.7692307692307692	89.0	-65.0	0.2307692307692307	15.0	3.0	3.0	0.202497148288792	1.131	n/a	stim	poldrack-single-stim	s471	False	1
216.507	0.786	217.293	-3.4088841246669537	draw_card	0.786	columbia_card_task_fmri	15.0	0.75	89.0	-65.0	0.25	15.0	4.0	3.0	1.1364977446201294	0.786	n/a	stim	poldrack-single-stim	s471	False	1
217.297	1.886	219.183	-5.22706594284877	end_round	1.886	columbia_card_task_fmri	15.0	0.7272727272727273	71.0	-65.0	0.2727272727272727	15.0	5.0	3.0	2.123411641676306	1.886	4.0	stim	poldrack-single-stim	s471	False	1
219.939	1.5	219.188	n/a	-1.0	2.454	columbia_card_task_fmri	n/a	n/a	-1.0	n/a	n/a	n/a	n/a	n/a	n/a	n/a	n/a	ITI	poldrack-single-stim	s471	False	0
221.648	0.701	222.349	-0.1588841246669534	draw_card	0.701	columbia_card_task_fmri	14.0	0.8125	89.0	-70.0	0.1875	16.0	1.0	3.0	-0.7162151656984292	0.701	n/a	stim	poldrack-single-stim	s471	False	1
222.354	0.446	222.8	-1.2088841246669524	draw_card	0.446	columbia_card_task_fmri	14.0	0.8	89.0	-70.0	0.2	16.0	2.0	3.0	0.0966118918934526	0.446	n/a	stim	poldrack-single-stim	s471	False	1
222.804	0.695	223.499	-2.4088841246669537	draw_card	0.695	columbia_card_task_fmri	14.0	0.7857142857142857	89.0	-70.0	0.2142857142857142	16.0	3.0	3.0	0.9630412681355268	0.695	n/a	stim	poldrack-single-stim	s471	False	1
223.503	0.543	224.046	-3.7934995092823383	draw_card	0.543	columbia_card_task_fmri	14.0	0.7692307692307692	89.0	-70.0	0.2307692307692307	16.0	4.0	3.0	1.8860118413869884	0.543	n/a	stim	poldrack-single-stim	s471	False	1
224.05	0.804	224.854	-5.408884124666954	draw_card	0.804	columbia_card_task_fmri	14.0	0.75	89.0	-70.0	0.25	16.0	5.0	3.0	2.866811114110476	0.804	n/a	stim	poldrack-single-stim	s471	False	1
224.858	0.703	225.561	-7.317975033757862	end_round	0.703	columbia_card_task_fmri	14.0	0.7272727272727273	71.0	-70.0	0.2727272727272727	16.0	6.0	3.0	3.9031693261674434	0.703	5.0	stim	poldrack-single-stim	s471	False	1
226.316	1.5	225.565	n/a	-1.0	3.27	columbia_card_task_fmri	n/a	n/a	-1.0	n/a	n/a	n/a	n/a	n/a	n/a	n/a	n/a	ITI	poldrack-single-stim	s471	False	0
228.841	1.352	230.193	-0.2213841246669534	draw_card	1.352	columbia_card_task_fmri	11.0	0.6875	89.0	-30.0	0.3125	16.0	1.0	5.0	-14.470539761522346	1.352	1.0	stim	poldrack-single-stim	s471	False	0
230.948	1.5	230.197	n/a	-1.0	2.25	columbia_card_task_fmri	n/a	n/a	-1.0	n/a	n/a	n/a	n/a	n/a	n/a	n/a	n/a	ITI	poldrack-single-stim	s471	False	0
232.453	0.743	233.196	4.591115875333046	draw_card	0.743	columbia_card_task_fmri	15.0	0.8666666666666667	89.0	-75.0	0.1333333333333333	15.0	1.0	2.0	-2.9055764483398825	0.743	n/a	stim	poldrack-single-stim	s471	False	1
233.2	0.612	233.812	3.7339730181901913	draw_card	0.612	columbia_card_task_fmri	15.0	0.8571428571428572	89.0	-75.0	0.1428571428571428	15.0	2.0	2.0	-2.00743314868393	0.612	n/a	stim	poldrack-single-stim	s471	False	1
233.815	0.323	234.138	2.7449620291792	draw_card	0.323	columbia_card_task_fmri	15.0	0.8461538461538461	89.0	-75.0	0.1538461538461538	15.0	3.0	2.0	-1.0299727234926124	0.323	n/a	stim	poldrack-single-stim	s471	False	1
234.143	0.516	234.659	1.5911158753330463	draw_card	0.516	columbia_card_task_fmri	15.0	0.8333333333333334	89.0	-75.0	0.1666666666666666	15.0	4.0	2.0	0.0376976898516545	0.516	4.0	stim	poldrack-single-stim	s471	False	0
235.415	1.5	234.664	n/a	-1.0	2.25	columbia_card_task_fmri	n/a	n/a	-1.0	n/a	n/a	n/a	n/a	n/a	n/a	n/a	n/a	ITI	poldrack-single-stim	s471	False	0
236.92	0.495	237.415	6.324449208666381	draw_card	0.495	columbia_card_task_fmri	17.0	0.8666666666666667	89.0	-75.0	0.1333333333333333	15.0	1.0	2.0	-2.226604850310032	0.495	1.0	stim	poldrack-single-stim	s471	False	0
238.171	1.5	237.42	n/a	-1.0	2.318	columbia_card_task_fmri	n/a	n/a	-1.0	n/a	n/a	n/a	n/a	n/a	n/a	n/a	n/a	ITI	poldrack-single-stim	s471	False	0
239.744	0.715	240.459	1.9036158753330463	draw_card	0.715	columbia_card_task_fmri	2.0	0.9375	89.0	-25.0	0.0625	16.0	1.0	1.0	-26.814488989730638	0.715	n/a	stim	poldrack-single-stim	s471	False	1
240.463	1.882	242.345	1.7911158753330465	draw_card	1.882	columbia_card_task_fmri	2.0	0.9333333333333332	89.0	-25.0	0.0666666666666666	16.0	2.0	1.0	-26.620661065280323	1.882	n/a	stim	poldrack-single-stim	s471	False	1
242.349	0.506	242.855	1.6625444467616182	draw_card	0.506	columbia_card_task_fmri	2.0	0.9285714285714286	89.0	-25.0	0.0714285714285714	16.0	3.0	1.0	-26.40775988082205	0.506	n/a	stim	poldrack-single-stim	s471	False	1
242.859	1.012	243.871	1.5141927984099697	draw_card	1.012	columbia_card_task_fmri	2.0	0.9230769230769232	89.0	-25.0	0.0769230769230769	16.0	4.0	1.0	-26.172528761121903	1.012	4.0	stim	poldrack-single-stim	s471	False	0
244.627	1.5	243.876	n/a	-1.0	2.726	columbia_card_task_fmri	n/a	n/a	-1.0	n/a	n/a	n/a	n/a	n/a	n/a	n/a	n/a	ITI	poldrack-single-stim	s471	False	0
246.608	2.397	249.005	4.091115875333046	draw_card	2.397	columbia_card_task_fmri	9.0	0.9375	89.0	-95.0	0.0625	16.0	1.0	1.0	-8.31641649369141	2.397	n/a	stim	poldrack-single-stim	s471	False	1
249.009	0.522	249.531	3.6577825419997136	draw_card	0.522	columbia_card_task_fmri	9.0	0.9333333333333332	89.0	-95.0	0.0666666666666666	16.0	2.0	1.0	-7.55013416694587	0.522	n/a	stim	poldrack-single-stim	s471	False	1
249.537	1.016	250.553	3.1625444467616184	draw_card	1.016	columbia_card_task_fmri	9.0	0.9285714285714286	89.0	-95.0	0.0714285714285714	16.0	3.0	1.0	-6.709726484885717	1.016	n/a	stim	poldrack-single-stim	s471	False	1
250.557	0.557	251.114	2.5911158753330463	draw_card	0.557	columbia_card_task_fmri	9.0	0.9230769230769232	89.0	-95.0	0.0769230769230769	16.0	4.0	1.0	-5.782588509377888	0.557	n/a	stim	poldrack-single-stim	s471	False	1
251.119	1.309	252.428	1.9244492086663805	draw_card	1.309	columbia_card_task_fmri	9.0	0.9166666666666666	89.0	-95.0	0.0833333333333333	16.0	5.0	1.0	-4.752954780305522	1.309	5.0	stim	poldrack-single-stim	s471	False	0
253.183	1.5	252.432	n/a	-1.0	2.386	columbia_card_task_fmri	n/a	n/a	-1.0	n/a	n/a	n/a	n/a	n/a	n/a	n/a	n/a	ITI	poldrack-single-stim	s471	False	0
254.824	0.721	255.545	5.653615875333046	draw_card	0.721	columbia_card_task_fmri	11.0	0.9375	89.0	-100.0	0.0625	16.0	1.0	1.0	-6.62514834596718	0.721	n/a	stim	poldrack-single-stim	s471	False	1
255.549	0.498	256.047	5.191115875333047	draw_card	0.498	columbia_card_task_fmri	11.0	0.9333333333333332	89.0	-100.0	0.0666666666666666	16.0	2.0	1.0	-5.8070963717421655	0.498	2.0	stim	poldrack-single-stim	s471	False	0
256.803	1.5	256.052	n/a	-1.0	2.318	columbia_card_task_fmri	n/a	n/a	-1.0	n/a	n/a	n/a	n/a	n/a	n/a	n/a	n/a	ITI	poldrack-single-stim	s471	False	0
258.376	0.38	258.756	6.216115875333046	draw_card	0.38	columbia_card_task_fmri	16.0	0.875	89.0	-75.0	0.125	16.0	1.0	2.0	-3.403588176825448	0.38	n/a	stim	poldrack-single-stim	s471	False	1
258.761	0.412	259.173	5.4577825419997135	draw_card	0.412	columbia_card_task_fmri	16.0	0.8666666666666667	89.0	-75.0	0.1333333333333333	16.0	2.0	2.0	-2.5660955718163514	0.412	n/a	stim	poldrack-single-stim	s471	False	1
259.178	0.531	259.709	4.591115875333048	draw_card	0.531	columbia_card_task_fmri	16.0	0.8571428571428572	89.0	-75.0	0.1428571428571428	16.0	3.0	2.0	-1.657946892516069	0.531	n/a	stim	poldrack-single-stim	s471	False	1
259.713	1.309	261.022	3.5911158753330463	draw_card	1.309	columbia_card_task_fmri	16.0	0.8461538461538461	89.0	-75.0	0.1538461538461538	16.0	4.0	2.0	-0.6695991224230795	1.309	n/a	stim	poldrack-single-stim	s471	False	1
261.027	0.704	261.731	2.4244492086663803	draw_card	0.704	columbia_card_task_fmri	16.0	0.8333333333333334	89.0	-75.0	0.1666666666666666	16.0	5.0	2.0	0.409961656164306	0.704	n/a	stim	poldrack-single-stim	s471	False	1
261.736	1.374	263.11	1.0456613298784998	end_round	1.374	columbia_card_task_fmri	16.0	0.8181818181818181	71.0	-75.0	0.1818181818181818	16.0	6.0	2.0	1.5932156661123216	1.374	5.0	stim	poldrack-single-stim	s471	False	1
263.867	1.5	263.116	n/a	-1.0	2.25	columbia_card_task_fmri	n/a	n/a	-1.0	n/a	n/a	n/a	n/a	n/a	n/a	n/a	n/a	ITI	poldrack-single-stim	s471	False	0
265.372	4.147	269.519	6.466115875333046	draw_card	4.147	columbia_card_task_fmri	17.0	0.875	89.0	-80.0	0.125	16.0	1.0	2.0	-1.421871254132121	4.147	n/a	stim	poldrack-single-stim	s471	False	1
269.524	0.605	270.129	5.6577825419997145	draw_card	0.605	columbia_card_task_fmri	17.0	0.8666666666666667	89.0	-80.0	0.1333333333333333	16.0	2.0	2.0	-0.5290141989972597	0.605	n/a	stim	poldrack-single-stim	s471	False	1
270.134	0.433	270.567	4.733973018190192	draw_card	0.433	columbia_card_task_fmri	17.0	0.8571428571428572	89.0	-80.0	0.1428571428571428	16.0	3.0	2.0	0.4391611990208091	0.433	3.0	stim	poldrack-single-stim	s471	False	0
271.323	1.5	270.572	n/a	-1.0	2.25	columbia_card_task_fmri	n/a	n/a	-1.0	n/a	n/a	n/a	n/a	n/a	n/a	n/a	n/a	ITI	poldrack-single-stim	s471	False	0
283.833	1.204	285.037	0.7577825419997144	draw_card	1.204	columbia_card_task_fmri	13.0	0.8333333333333334	89.0	-70.0	0.1666666666666666	6.0	1.0	1.0	-2.5678712513817707	1.204	n/a	stim	poldrack-single-stim	s471	False	1
285.04	0.644	285.684	-2.0088841246669533	draw_card	0.644	columbia_card_task_fmri	13.0	0.8	89.0	-70.0	0.2	6.0	2.0	1.0	-0.3029349833733192	0.644	2.0	stim	poldrack-single-stim	s471	False	0
286.441	1.5	285.69	n/a	-1.0	2.454	columbia_card_task_fmri	n/a	n/a	-1.0	n/a	n/a	n/a	n/a	n/a	n/a	n/a	n/a	ITI	poldrack-single-stim	s471	False	0
288.15	0.512	288.662	0.7577825419997144	draw_card	0.512	columbia_card_task_fmri	15.0	0.8333333333333334	89.0	-80.0	0.1666666666666666	6.0	1.0	1.0	1.899104549459949	0.512	1.0	stim	poldrack-single-stim	s471	False	0
289.418	1.5	288.667	n/a	-1.0	2.454	columbia_card_task_fmri	n/a	n/a	-1.0	n/a	n/a	n/a	n/a	n/a	n/a	n/a	n/a	ITI	poldrack-single-stim	s471	False	0
291.126	0.495	291.621	2.4244492086663803	draw_card	0.495	columbia_card_task_fmri	16.0	0.8333333333333334	89.0	-75.0	0.1666666666666666	6.0	1.0	1.0	0.409961656164306	0.495	n/a	stim	poldrack-single-stim	s471	False	1
291.625	0.419	292.044	-0.6088841246669527	draw_card	0.419	columbia_card_task_fmri	16.0	0.8	89.0	-75.0	0.2	6.0	2.0	1.0	2.89371844200555	0.419	2.0	stim	poldrack-single-stim	s471	False	0
292.8	1.5	292.049	n/a	-1.0	2.522	columbia_card_task_fmri	n/a	n/a	-1.0	n/a	n/a	n/a	n/a	n/a	n/a	n/a	n/a	ITI	poldrack-single-stim	s471	False	0
294.577	0.466	295.043	3.5911158753330463	draw_card	0.466	columbia_card_task_fmri	21.0	0.75	89.0	-55.0	0.25	8.0	1.0	2.0	-0.5936330411551651	0.466	1.0	stim	poldrack-single-stim	s471	False	0
295.799	1.5	295.048	n/a	-1.0	2.386	columbia_card_task_fmri	n/a	n/a	-1.0	n/a	n/a	n/a	n/a	n/a	n/a	n/a	n/a	ITI	poldrack-single-stim	s471	False	0
297.44	0.402	297.842	4.841115875333046	draw_card	0.402	columbia_card_task_fmri	26.0	0.75	89.0	-65.0	0.25	8.0	1.0	2.0	5.895226563949819	0.402	n/a	stim	poldrack-single-stim	s471	False	1
297.845	0.552	298.397	1.59111587533305	draw_card	0.552	columbia_card_task_fmri	26.0	0.7142857142857143	89.0	-65.0	0.2857142857142857	8.0	2.0	2.0	7.599349147892099	0.552	n/a	stim	poldrack-single-stim	s471	False	1
298.401	0.916	299.317	-2.7422174580002823	draw_card	0.916	columbia_card_task_fmri	26.0	0.6666666666666667	89.0	-65.0	0.3333333333333333	8.0	3.0	2.0	9.386268792165758	0.916	3.0	stim	poldrack-single-stim	s471	False	0
300.074	1.5	299.323	n/a	-1.0	2.454	columbia_card_task_fmri	n/a	n/a	-1.0	n/a	n/a	n/a	n/a	n/a	n/a	n/a	n/a	ITI	poldrack-single-stim	s471	False	0
301.783	0.361	302.144	-0.0755507913336195	draw_card	0.361	columbia_card_task_fmri	15.0	0.7777777777777778	89.0	-60.0	0.2222222222222222	9.0	1.0	2.0	-2.3199918303221203	0.361	n/a	stim	poldrack-single-stim	s471	False	1
302.149	0.395	302.544	-2.1588841246669537	draw_card	0.395	columbia_card_task_fmri	15.0	0.75	89.0	-60.0	0.25	9.0	2.0	2.0	-1.0261337932729262	0.395	n/a	stim	poldrack-single-stim	s471	False	1
302.55	0.452	303.002	-4.837455553238381	draw_card	0.452	columbia_card_task_fmri	15.0	0.7142857142857143	89.0	-60.0	0.2857142857142857	9.0	3.0	2.0	0.3778457167397704	0.452	n/a	stim	poldrack-single-stim	s471	False	1
303.007	0.605	303.612	-8.408884124666951	end_round	0.605	columbia_card_task_fmri	15.0	0.6666666666666667	71.0	-60.0	0.3333333333333333	9.0	4.0	2.0	1.850083512834722	0.605	3.0	stim	poldrack-single-stim	s471	False	1
304.369	1.5	303.618	n/a	-1.0	2.522	columbia_card_task_fmri	n/a	n/a	-1.0	n/a	n/a	n/a	n/a	n/a	n/a	n/a	n/a	ITI	poldrack-single-stim	s471	False	0
306.146	0.781	306.927	4.291115875333047	draw_card	0.781	columbia_card_task_fmri	13.0	0.9	89.0	-90.0	0.1	10.0	1.0	1.0	-2.600102283138352	0.781	n/a	stim	poldrack-single-stim	s471	False	1
306.933	0.623	307.556	3.1466714308886017	draw_card	0.623	columbia_card_task_fmri	13.0	0.8888888888888888	89.0	-90.0	0.1111111111111111	10.0	2.0	1.0	-1.132181722568312	0.623	n/a	stim	poldrack-single-stim	s471	False	1
307.56	1.273	308.833	1.7161158753330463	draw_card	1.273	columbia_card_task_fmri	13.0	0.875	89.0	-90.0	0.125	10.0	3.0	1.0	0.5601476546357418	1.273	n/a	stim	poldrack-single-stim	s471	False	1
308.838	0.53	309.368	-0.1231698389526652	draw_card	0.53	columbia_card_task_fmri	13.0	0.8571428571428572	89.0	-90.0	0.1428571428571428	10.0	4.0	1.0	2.5365548128721755	0.53	n/a	stim	poldrack-single-stim	s471	False	1
309.372	1.214	310.586	-2.57555079133362	end_round	1.214	columbia_card_task_fmri	13.0	0.8333333333333334	71.0	-90.0	0.1666666666666666	10.0	5.0	1.0	4.877755445447882	1.214	4.0	stim	poldrack-single-stim	s471	False	1
311.342	1.5	310.591	n/a	-1.0	2.522	columbia_card_task_fmri	n/a	n/a	-1.0	n/a	n/a	n/a	n/a	n/a	n/a	n/a	n/a	ITI	poldrack-single-stim	s471	False	0
313.12	0.66	313.78	5.591115875333046	draw_card	0.66	columbia_card_task_fmri	15.0	0.9	89.0	-95.0	0.1	10.0	1.0	1.0	-0.502704308801043	0.66	n/a	stim	poldrack-single-stim	s471	False	1
313.784	0.628	314.412	4.368893653110823	draw_card	0.628	columbia_card_task_fmri	15.0	0.8888888888888888	89.0	-95.0	0.1111111111111111	10.0	2.0	1.0	1.0652217524262184	0.628	n/a	stim	poldrack-single-stim	s471	False	1
314.416	1.011	315.427	2.8411158753330463	draw_card	1.011	columbia_card_task_fmri	15.0	0.875	89.0	-95.0	0.125	10.0	3.0	1.0	2.8728189378107984	1.011	n/a	stim	poldrack-single-stim	s471	False	1
315.432	0.47	315.902	0.876830161047333	draw_card	0.47	columbia_card_task_fmri	15.0	0.8571428571428572	89.0	-95.0	0.1428571428571428	10.0	4.0	1.0	4.983812682905501	0.47	n/a	stim	poldrack-single-stim	s471	False	1
315.908	0.604	316.512	-1.7422174580002856	draw_card	0.604	columbia_card_task_fmri	15.0	0.8333333333333334	89.0	-95.0	0.1666666666666666	10.0	5.0	1.0	7.484405456213366	0.604	n/a	stim	poldrack-single-stim	s471	False	1
316.517	1.628	318.145	-5.408884124666954	draw_card	1.628	columbia_card_task_fmri	15.0	0.8	89.0	-95.0	0.2	10.0	6.0	1.0	10.487718977507598	1.628	n/a	stim	poldrack-single-stim	s471	False	1
318.149	0.508	318.657	-10.908884124666953	end_round	0.508	columbia_card_task_fmri	15.0	0.75	71.0	-95.0	0.25	10.0	7.0	1.0	14.116924858036969	0.508	6.0	stim	poldrack-single-stim	s471	False	1
319.413	1.5	318.662	n/a	-1.0	2.59	columbia_card_task_fmri	n/a	n/a	-1.0	n/a	n/a	n/a	n/a	n/a	n/a	n/a	n/a	ITI	poldrack-single-stim	s471	False	0
321.258	0.493	321.751	1.3911158753330473	draw_card	0.493	columbia_card_task_fmri	16.0	0.8	89.0	-65.0	0.2	10.0	1.0	2.0	-1.1019952284830836	0.493	n/a	stim	poldrack-single-stim	s471	False	1
321.756	0.378	322.134	-0.4088841246669517	draw_card	0.378	columbia_card_task_fmri	16.0	0.7777777777777778	89.0	-65.0	0.2222222222222222	10.0	2.0	2.0	0.1714447014388014	0.378	n/a	stim	poldrack-single-stim	s471	False	1
322.14	0.382	322.522	-2.6588841246669537	draw_card	0.382	columbia_card_task_fmri	16.0	0.75	89.0	-65.0	0.25	10.0	3.0	2.0	1.5690600241951174	0.382	n/a	stim	poldrack-single-stim	s471	False	1
322.527	0.557	323.084	-5.551741267524094	draw_card	0.557	columbia_card_task_fmri	16.0	0.7142857142857143	89.0	-65.0	0.2857142857142857	10.0	4.0	2.0	3.0856062349724738	0.557	n/a	stim	poldrack-single-stim	s471	False	1
323.089	0.633	323.722	-9.40888412466695	draw_card	0.633	columbia_card_task_fmri	16.0	0.6666666666666667	89.0	-65.0	0.3333333333333333	10.0	5.0	2.0	4.675862299984566	0.633	n/a	stim	poldrack-single-stim	s471	False	1
323.728	1.119	324.847	-14.808884124666951	end_round	1.119	columbia_card_task_fmri	16.0	0.6	71.0	-65.0	0.4	10.0	6.0	2.0	6.172580085524352	1.119	5.0	stim	poldrack-single-stim	s471	False	1
325.604	1.5	324.853	n/a	-1.0	2.454	columbia_card_task_fmri	n/a	n/a	-1.0	n/a	n/a	n/a	n/a	n/a	n/a	n/a	n/a	ITI	poldrack-single-stim	s471	False	0
327.314	1.474	328.788	0.0911158753330465	draw_card	1.474	columbia_card_task_fmri	7.0	0.9166666666666666	89.0	-95.0	0.0833333333333333	12.0	1.0	1.0	-5.304864111555336	1.474	n/a	stim	poldrack-single-stim	s471	False	1
328.792	0.884	329.676	-0.6816113973942268	draw_card	0.884	columbia_card_task_fmri	7.0	0.9090909090909092	89.0	-95.0	0.0909090909090909	12.0	2.0	1.0	-4.174965377919012	0.884	n/a	stim	poldrack-single-stim	s471	False	1
329.681	0.56	330.241	-1.6088841246669536	draw_card	0.56	columbia_card_task_fmri	7.0	0.9	89.0	-95.0	0.1	12.0	3.0	1.0	-2.899701468193957	0.56	n/a	stim	poldrack-single-stim	s471	False	1
330.246	0.432	330.678	-2.742217458000288	end_round	0.432	columbia_card_task_fmri	7.0	0.8888888888888888	71.0	-95.0	0.1111111111111111	12.0	4.0	1.0	-1.4460687194547504	0.432	3.0	stim	poldrack-single-stim	s471	False	1
331.434	1.5	330.683	n/a	-1.0	2.318	columbia_card_task_fmri	n/a	n/a	-1.0	n/a	n/a	n/a	n/a	n/a	n/a	n/a	n/a	ITI	poldrack-single-stim	s471	False	0
333.007	0.995	334.002	0.7577825419997144	draw_card	0.995	columbia_card_task_fmri	14.0	0.8333333333333334	89.0	-75.0	0.1666666666666666	12.0	1.0	2.0	-0.3345569882652697	0.995	n/a	stim	poldrack-single-stim	s471	False	1
334.007	0.82	334.827	-0.5907023064851369	draw_card	0.82	columbia_card_task_fmri	14.0	0.8181818181818181	89.0	-75.0	0.1818181818181818	12.0	2.0	2.0	0.8226356295736039	0.82	2.0	stim	poldrack-single-stim	s471	False	0
335.584	1.5	334.833	n/a	-1.0	2.25	columbia_card_task_fmri	n/a	n/a	-1.0	n/a	n/a	n/a	n/a	n/a	n/a	n/a	n/a	ITI	poldrack-single-stim	s471	False	0
337.09	0.457	337.547	2.4244492086663803	draw_card	0.457	columbia_card_task_fmri	15.0	0.8333333333333334	89.0	-70.0	0.1666666666666666	12.0	1.0	2.0	-1.823476278216706	0.457	n/a	stim	poldrack-single-stim	s471	False	1
337.552	0.505	338.057	1.1365704207875895	draw_card	0.505	columbia_card_task_fmri	15.0	0.8181818181818181	89.0	-70.0	0.1818181818181818	12.0	2.0	2.0	-0.7184104003783318	0.505	n/a	stim	poldrack-single-stim	s471	False	1
338.062	0.772	338.834	-0.4088841246669534	draw_card	0.772	columbia_card_task_fmri	15.0	0.8	89.0	-70.0	0.2	12.0	3.0	2.0	0.4961694112325077	0.772	n/a	stim	poldrack-single-stim	s471	False	1
338.84	0.499	339.339	-2.297773013555843	draw_card	0.499	columbia_card_task_fmri	15.0	0.7777777777777778	89.0	-70.0	0.2222222222222222	12.0	4.0	2.0	1.8326374397632748	0.499	n/a	stim	poldrack-single-stim	s471	False	1
339.344	1.05	340.394	-4.658884124666954	draw_card	1.05	columbia_card_task_fmri	15.0	0.75	89.0	-70.0	0.25	12.0	5.0	2.0	3.299414970407696	1.05	n/a	stim	poldrack-single-stim	s471	False	1
340.399	0.501	340.9	-7.694598410381238	end_round	0.501	columbia_card_task_fmri	15.0	0.7142857142857143	71.0	-70.0	0.2857142857142857	12.0	6.0	2.0	4.890996339042708	0.501	5.0	stim	poldrack-single-stim	s471	False	1
341.657	1.5	340.906	n/a	-1.0	2.658	columbia_card_task_fmri	n/a	n/a	-1.0	n/a	n/a	n/a	n/a	n/a	n/a	n/a	n/a	ITI	poldrack-single-stim	s471	False	0
343.57	1.51	345.08	0.3911158753330472	draw_card	1.51	columbia_card_task_fmri	16.0	0.8	89.0	-70.0	0.2	15.0	1.0	3.0	0.8957372041458527	1.51	1.0	stim	poldrack-single-stim	s471	False	0
345.837	1.5	345.086	n/a	-1.0	2.454	columbia_card_task_fmri	n/a	n/a	-1.0	n/a	n/a	n/a	n/a	n/a	n/a	n/a	n/a	ITI	poldrack-single-stim	s471	False	0
347.546	0.492	348.038	0.7786158753330465	draw_card	0.492	columbia_card_task_fmri	14.0	0.8125	89.0	-65.0	0.1875	16.0	1.0	3.0	-2.665338054990606	0.492	n/a	stim	poldrack-single-stim	s471	False	1
348.043	0.578	348.621	-0.2088841246669524	draw_card	0.578	columbia_card_task_fmri	14.0	0.8	89.0	-65.0	0.2	16.0	2.0	3.0	-1.9010079791467405	0.578	n/a	stim	poldrack-single-stim	s471	False	1
348.626	0.503	349.129	-1.3374555532383805	draw_card	0.503	columbia_card_task_fmri	14.0	0.7857142857142857	89.0	-65.0	0.2142857142857142	16.0	3.0	3.0	-1.0862678097392615	0.503	3.0	stim	poldrack-single-stim	s471	False	0
349.887	1.5	349.136	n/a	-1.0	2.386	columbia_card_task_fmri	n/a	n/a	-1.0	n/a	n/a	n/a	n/a	n/a	n/a	n/a	n/a	ITI	poldrack-single-stim	s471	False	0
351.529	0.369	351.898	0.5286158753330465	draw_card	0.369	columbia_card_task_fmri	16.0	0.8125	89.0	-75.0	0.1875	16.0	1.0	3.0	2.0130064241411176	0.369	n/a	stim	poldrack-single-stim	s471	False	1
351.903	0.467	352.37	-0.6088841246669527	draw_card	0.467	columbia_card_task_fmri	16.0	0.8	89.0	-75.0	0.2	16.0	2.0	3.0	2.89371844200555	0.467	n/a	stim	poldrack-single-stim	s471	False	1
352.375	0.398	352.773	-1.908884124666952	draw_card	0.398	columbia_card_task_fmri	16.0	0.7857142857142857	89.0	-75.0	0.2142857142857142	16.0	3.0	3.0	3.832501737860113	0.398	n/a	stim	poldrack-single-stim	s471	False	1
352.778	0.381	353.159	-3.408884124666957	draw_card	0.381	columbia_card_task_fmri	16.0	0.7692307692307692	89.0	-75.0	0.2307692307692307	16.0	4.0	3.0	4.832539729945104	0.381	n/a	stim	poldrack-single-stim	s471	False	1
353.164	0.488	353.652	-5.158884124666954	draw_card	0.488	columbia_card_task_fmri	16.0	0.75	89.0	-75.0	0.25	16.0	5.0	3.0	5.895226563949819	0.488	n/a	stim	poldrack-single-stim	s471	False	1
353.658	0.958	354.616	-7.22706594284877	draw_card	0.958	columbia_card_task_fmri	16.0	0.7272727272727273	89.0	-75.0	0.2727272727272727	16.0	6.0	3.0	7.018102204501432	0.958	6.0	stim	poldrack-single-stim	s471	False	0
355.372	1.5	354.621	n/a	-1.0	2.59	columbia_card_task_fmri	n/a	n/a	-1.0	n/a	n/a	n/a	n/a	n/a	n/a	n/a	n/a	ITI	poldrack-single-stim	s471	False	0
357.217	0.607	357.824	4.791115875333047	draw_card	0.607	columbia_card_task_fmri	16.0	0.8666666666666667	89.0	-80.0	0.1333333333333333	15.0	1.0	2.0	-0.8685496523776592	0.607	1.0	stim	poldrack-single-stim	s471	False	0
358.582	1.5	357.831	n/a	-1.0	2.318	columbia_card_task_fmri	n/a	n/a	-1.0	n/a	n/a	n/a	n/a	n/a	n/a	n/a	n/a	ITI	poldrack-single-stim	s471	False	0
360.156	0.517	360.673	5.6577825419997145	draw_card	0.517	columbia_card_task_fmri	17.0	0.8666666666666667	89.0	-80.0	0.1333333333333333	15.0	1.0	2.0	-0.5290141989972597	0.517	n/a	stim	poldrack-single-stim	s471	False	1
360.678	0.475	361.153	4.733973018190192	draw_card	0.475	columbia_card_task_fmri	17.0	0.8571428571428572	89.0	-80.0	0.1428571428571428	15.0	2.0	2.0	0.4391611990208091	0.475	n/a	stim	poldrack-single-stim	s471	False	1
361.159	0.44	361.599	3.668038952256123	draw_card	0.44	columbia_card_task_fmri	17.0	0.8461538461538461	89.0	-80.0	0.1538461538461538	15.0	3.0	2.0	1.4928273350783812	0.44	n/a	stim	poldrack-single-stim	s471	False	1
361.604	0.556	362.16	2.424449208666382	draw_card	0.556	columbia_card_task_fmri	17.0	0.8333333333333334	89.0	-80.0	0.1666666666666666	15.0	4.0	2.0	2.643724452295644	0.556	n/a	stim	poldrack-single-stim	s471	False	1
362.165	1.288	363.453	0.954752238969408	end_round	1.288	columbia_card_task_fmri	17.0	0.8181818181818181	71.0	-80.0	0.1818181818181818	15.0	5.0	2.0	3.905155699843149	1.288	4.0	stim	poldrack-single-stim	s471	False	1
364.21	1.5	363.459	n/a	-1.0	2.59	columbia_card_task_fmri	n/a	n/a	-1.0	n/a	n/a	n/a	n/a	n/a	n/a	n/a	n/a	ITI	poldrack-single-stim	s471	False	0
366.056	1.956	368.012	1.5911158753330463	draw_card	1.956	columbia_card_task_fmri	1.0	0.9375	89.0	-15.0	0.0625	16.0	1.0	1.0	-29.353959080584644	1.956	n/a	stim	poldrack-single-stim	s471	False	1
368.018	0.402	368.42	1.52444920866638	draw_card	0.402	columbia_card_task_fmri	1.0	0.9333333333333332	89.0	-15.0	0.0666666666666666	16.0	2.0	1.0	-29.244467478387232	0.402	n/a	stim	poldrack-single-stim	s471	False	1
368.426	0.92	369.346	1.4482587324759038	end_round	0.92	columbia_card_task_fmri	1.0	0.9285714285714286	71.0	-15.0	0.0714285714285714	16.0	3.0	1.0	-29.123887264134638	0.92	2.0	stim	poldrack-single-stim	s471	False	1
370.103	1.5	369.352	n/a	-1.0	2.386	columbia_card_task_fmri	n/a	n/a	-1.0	n/a	n/a	n/a	n/a	n/a	n/a	n/a	n/a	ITI	poldrack-single-stim	s471	False	0
371.746	1.137	372.883	4.716115875333046	draw_card	1.137	columbia_card_task_fmri	10.0	0.9375	89.0	-100.0	0.0625	16.0	1.0	1.0	-6.8667826539986585	1.137	n/a	stim	poldrack-single-stim	s471	False	1
372.889	0.433	373.322	4.257782541999713	draw_card	0.433	columbia_card_task_fmri	10.0	0.9333333333333332	89.0	-100.0	0.0666666666666666	16.0	2.0	1.0	-6.056125624131457	0.433	n/a	stim	poldrack-single-stim	s471	False	1
373.327	0.509	373.836	3.7339730181901913	draw_card	0.509	columbia_card_task_fmri	10.0	0.9285714285714286	89.0	-100.0	0.0714285714285714	16.0	3.0	1.0	-5.167061619990914	0.509	n/a	stim	poldrack-single-stim	s471	False	1
373.842	1.312	375.154	3.129577413794585	end_round	1.312	columbia_card_task_fmri	10.0	0.9230769230769232	71.0	-100.0	0.0769230769230769	16.0	4.0	1.0	-4.186258011245048	1.312	3.0	stim	poldrack-single-stim	s471	False	1
375.911	1.5	375.16	n/a	-1.0	2.318	columbia_card_task_fmri	n/a	n/a	-1.0	n/a	n/a	n/a	n/a	n/a	n/a	n/a	n/a	ITI	poldrack-single-stim	s471	False	0
377.486	1.066	378.552	5.341115875333046	draw_card	1.066	columbia_card_task_fmri	15.0	0.875	89.0	-75.0	0.125	16.0	1.0	2.0	-3.733840741449829	1.066	n/a	stim	poldrack-single-stim	s471	False	1
378.557	0.365	378.922	4.591115875333046	draw_card	0.365	columbia_card_task_fmri	15.0	0.8666666666666667	89.0	-75.0	0.1333333333333333	16.0	2.0	2.0	-2.9055764483398825	0.365	n/a	stim	poldrack-single-stim	s471	False	1
378.927	0.396	379.323	3.7339730181901913	draw_card	0.396	columbia_card_task_fmri	15.0	0.8571428571428572	89.0	-75.0	0.1428571428571428	16.0	3.0	2.0	-2.00743314868393	0.396	n/a	stim	poldrack-single-stim	s471	False	1
379.329	1.004	380.333	2.7449620291792	draw_card	1.004	columbia_card_task_fmri	15.0	0.8461538461538461	89.0	-75.0	0.1538461538461538	16.0	4.0	2.0	-1.0299727234926124	1.004	n/a	stim	poldrack-single-stim	s471	False	1
380.339	0.781	381.12	1.5911158753330463	draw_card	0.781	columbia_card_task_fmri	15.0	0.8333333333333334	89.0	-75.0	0.1666666666666666	16.0	5.0	2.0	0.0376976898516545	0.781	n/a	stim	poldrack-single-stim	s471	False	1
381.126	1.161	382.287	0.2274795116966814	end_round	1.161	columbia_card_task_fmri	15.0	0.8181818181818181	71.0	-75.0	0.1818181818181818	16.0	6.0	2.0	1.2079211594731447	1.161	5.0	stim	poldrack-single-stim	s471	False	1
383.044	1.5	382.293	n/a	-1.0	2.318	columbia_card_task_fmri	n/a	n/a	-1.0	n/a	n/a	n/a	n/a	n/a	n/a	n/a	n/a	ITI	poldrack-single-stim	s471	False	0
384.617	1.601	386.218	5.591115875333046	draw_card	1.601	columbia_card_task_fmri	16.0	0.875	89.0	-80.0	0.125	16.0	1.0	2.0	-1.7521799045149038	1.601	n/a	stim	poldrack-single-stim	s471	False	1
386.223	0.346	386.569	4.791115875333047	draw_card	0.346	columbia_card_task_fmri	16.0	0.8666666666666667	89.0	-80.0	0.1333333333333333	16.0	2.0	2.0	-0.8685496523776592	0.346	n/a	stim	poldrack-single-stim	s471	False	1
386.575	0.387	386.962	3.876830161047335	draw_card	0.387	columbia_card_task_fmri	16.0	0.8571428571428572	89.0	-80.0	0.1428571428571428	16.0	3.0	2.0	0.0896219132563445	0.387	3.0	stim	poldrack-single-stim	s471	False	0
387.719	1.5	386.968	n/a	-1.0	2.318	columbia_card_task_fmri	n/a	n/a	-1.0	n/a	n/a	n/a	n/a	n/a	n/a	n/a	n/a	ITI	poldrack-single-stim	s471	False	0
389.294	1.002	390.296	2.7786158753330463	draw_card	1.002	columbia_card_task_fmri	4.0	0.6875	89.0	-5.0	0.3125	16.0	1.0	5.0	-29.076290267937235	1.002	1.0	stim	poldrack-single-stim	s471	False	0
391.053	1.5	390.302	n/a	-1.0	2.386	columbia_card_task_fmri	n/a	n/a	-1.0	n/a	n/a	n/a	n/a	n/a	n/a	n/a	n/a	ITI	poldrack-single-stim	s471	False	0
392.697	0.97	393.667	-0.0755507913336177	draw_card	0.97	columbia_card_task_fmri	14.0	0.8333333333333334	89.0	-80.0	0.1666666666666666	6.0	1.0	1.0	1.5268063262647829	0.97	n/a	stim	poldrack-single-stim	s471	False	1
393.672	0.721	394.393	-3.2088841246669526	draw_card	0.721	columbia_card_task_fmri	14.0	0.8	89.0	-80.0	0.2	6.0	2.0	1.0	4.092610126433499	0.721	n/a	stim	poldrack-single-stim	s471	False	1
394.399	0.832	395.231	-7.908884124666954	end_round	0.832	columbia_card_task_fmri	14.0	0.75	71.0	-80.0	0.25	6.0	3.0	1.0	7.193240643469835	0.832	2.0	stim	poldrack-single-stim	s471	False	1
395.988	1.5	395.237	n/a	-1.0	2.25	columbia_card_task_fmri	n/a	n/a	-1.0	n/a	n/a	n/a	n/a	n/a	n/a	n/a	n/a	ITI	poldrack-single-stim	s471	False	0
397.494	0.482	397.976	1.5911158753330463	draw_card	0.482	columbia_card_task_fmri	15.0	0.8333333333333334	89.0	-75.0	0.1666666666666666	6.0	1.0	1.0	0.0376976898516545	0.482	n/a	stim	poldrack-single-stim	s471	False	1
397.981	0.364	398.345	-1.4088841246669537	draw_card	0.364	columbia_card_task_fmri	15.0	0.8	89.0	-75.0	0.2	6.0	2.0	1.0	2.4941042764344346	0.364	n/a	stim	poldrack-single-stim	s471	False	1
398.351	0.497	398.848	-5.908884124666954	draw_card	0.497	columbia_card_task_fmri	15.0	0.75	89.0	-75.0	0.25	6.0	3.0	1.0	5.462570356267584	0.497	3.0	stim	poldrack-single-stim	s471	False	0
399.604	1.5	398.853	n/a	-1.0	2.386	columbia_card_task_fmri	n/a	n/a	-1.0	n/a	n/a	n/a	n/a	n/a	n/a	n/a	n/a	ITI	poldrack-single-stim	s471	False	0
401.247	0.467	401.714	3.257782541999714	draw_card	0.467	columbia_card_task_fmri	16.0	0.8333333333333334	89.0	-70.0	0.1666666666666666	6.0	1.0	1.0	-1.451262061074658	0.467	n/a	stim	poldrack-single-stim	s471	False	1
401.72	0.351	402.071	0.3911158753330472	draw_card	0.351	columbia_card_task_fmri	16.0	0.8	89.0	-70.0	0.2	6.0	2.0	1.0	0.8957372041458527	0.351	n/a	stim	poldrack-single-stim	s471	False	1
402.076	0.347	402.423	-3.9088841246669537	draw_card	0.347	columbia_card_task_fmri	16.0	0.75	89.0	-70.0	0.25	6.0	3.0	1.0	3.7320283215915566	0.347	n/a	stim	poldrack-single-stim	s471	False	1
402.429	1.344	403.773	-11.075550791333615	draw_card	1.344	columbia_card_task_fmri	16.0	0.6666666666666667	89.0	-70.0	0.3333333333333333	6.0	4.0	1.0	7.030959891757632	1.344	4.0	stim	poldrack-single-stim	s471	False	0
404.53	1.5	403.779	n/a	-1.0	2.59	columbia_card_task_fmri	n/a	n/a	-1.0	n/a	n/a	n/a	n/a	n/a	n/a	n/a	n/a	ITI	poldrack-single-stim	s471	False	0
406.376	0.455	406.831	3.8411158753330463	draw_card	0.455	columbia_card_task_fmri	23.0	0.75	89.0	-60.0	0.25	8.0	1.0	2.0	2.4342170952290374	0.455	1.0	stim	poldrack-single-stim	s471	False	0
407.589	1.5	406.838	n/a	-1.0	2.658	columbia_card_task_fmri	n/a	n/a	-1.0	n/a	n/a	n/a	n/a	n/a	n/a	n/a	n/a	ITI	poldrack-single-stim	s471	False	0
409.505	0.663	410.168	4.341115875333046	draw_card	0.663	columbia_card_task_fmri	27.0	0.75	89.0	-70.0	0.25	8.0	1.0	2.0	8.491317994513807	0.663	n/a	stim	poldrack-single-stim	s471	False	1
410.174	0.599	410.773	0.8768301610473312	draw_card	0.599	columbia_card_task_fmri	27.0	0.7142857142857143	89.0	-70.0	0.2857142857142857	8.0	2.0	2.0	10.307970238149268	0.599	n/a	stim	poldrack-single-stim	s471	False	1
410.778	0.622	411.4	-3.7422174580002814	draw_card	0.622	columbia_card_task_fmri	27.0	0.6666666666666667	89.0	-70.0	0.3333333333333333	8.0	3.0	2.0	12.212872452487062	0.622	n/a	stim	poldrack-single-stim	s471	False	1
411.406	1.072	412.478	-10.208884124666952	end_round	1.072	columbia_card_task_fmri	27.0	0.6	71.0	-70.0	0.4	8.0	4.0	2.0	14.005690849684306	1.072	3.0	stim	poldrack-single-stim	s471	False	1
413.235	1.5	412.484	n/a	-1.0	2.386	columbia_card_task_fmri	n/a	n/a	-1.0	n/a	n/a	n/a	n/a	n/a	n/a	n/a	n/a	ITI	poldrack-single-stim	s471	False	0
414.877	0.637	415.514	-0.4088841246669517	draw_card	0.637	columbia_card_task_fmri	16.0	0.7777777777777778	89.0	-65.0	0.2222222222222222	9.0	1.0	2.0	0.1714447014388014	0.637	1.0	stim	poldrack-single-stim	s471	False	0
416.27	1.5	415.519	n/a	-1.0	2.386	columbia_card_task_fmri	n/a	n/a	-1.0	n/a	n/a	n/a	n/a	n/a	n/a	n/a	n/a	ITI	poldrack-single-stim	s471	False	0
417.91	0.665	418.575	4.791115875333047	draw_card	0.665	columbia_card_task_fmri	13.0	0.9	89.0	-85.0	0.1	10.0	1.0	1.0	-4.098016583428102	0.665	n/a	stim	poldrack-single-stim	s471	False	1
418.581	0.379	418.96	3.702226986444157	draw_card	0.379	columbia_card_task_fmri	13.0	0.8888888888888888	89.0	-85.0	0.1111111111111111	10.0	2.0	1.0	-2.701538759700597	0.379	n/a	stim	poldrack-single-stim	s471	False	1
418.966	0.421	419.387	2.3411158753330463	draw_card	0.421	columbia_card_task_fmri	13.0	0.875	89.0	-85.0	0.125	10.0	3.0	1.0	-1.0915542462820935	0.421	n/a	stim	poldrack-single-stim	s471	False	1
419.392	1.584	420.976	0.5911158753330483	end_round	1.584	columbia_card_task_fmri	13.0	0.8571428571428572	71.0	-85.0	0.1428571428571428	10.0	4.0	1.0	0.7887083866004616	1.584	3.0	stim	poldrack-single-stim	s471	False	1
421.734	1.5	420.983	n/a	-1.0	2.25	columbia_card_task_fmri	n/a	n/a	-1.0	n/a	n/a	n/a	n/a	n/a	n/a	n/a	n/a	ITI	poldrack-single-stim	s471	False	0
423.24	1.003	424.243	-0.2088841246669524	draw_card	1.003	columbia_card_task_fmri	14.0	0.8	89.0	-65.0	0.2	10.0	1.0	2.0	-1.9010079791467405	1.003	n/a	stim	poldrack-single-stim	s471	False	1
424.248	0.37	424.618	-1.964439680222507	draw_card	0.37	columbia_card_task_fmri	14.0	0.7777777777777778	89.0	-65.0	0.2222222222222222	10.0	2.0	2.0	-0.6590847146929235	0.37	n/a	stim	poldrack-single-stim	s471	False	1
424.624	0.359	424.983	-4.158884124666954	draw_card	0.359	columbia_card_task_fmri	14.0	0.75	89.0	-65.0	0.25	10.0	3.0	2.0	0.7039468499042201	0.359	n/a	stim	poldrack-single-stim	s471	False	1
424.989	0.414	425.403	-6.980312696095523	draw_card	0.414	columbia_card_task_fmri	14.0	0.7142857142857143	89.0	-65.0	0.2857142857142857	10.0	4.0	2.0	2.1829728294929467	0.414	n/a	stim	poldrack-single-stim	s471	False	1
425.409	1.001	426.41	-10.742217458000283	draw_card	1.001	columbia_card_task_fmri	14.0	0.6666666666666667	89.0	-65.0	0.3333333333333333	10.0	5.0	2.0	3.733891401594022	1.001	n/a	stim	poldrack-single-stim	s471	False	1
426.416	0.472	426.888	-16.008884124666956	end_round	0.472	columbia_card_task_fmri	14.0	0.6	71.0	-65.0	0.4	10.0	6.0	2.0	5.19359077173813	0.472	5.0	stim	poldrack-single-stim	s471	False	1
427.645	1.5	426.894	n/a	-1.0	2.318	columbia_card_task_fmri	n/a	n/a	-1.0	n/a	n/a	n/a	n/a	n/a	n/a	n/a	n/a	ITI	poldrack-single-stim	s471	False	0
429.219	0.785	430.004	1.191115875333048	draw_card	0.785	columbia_card_task_fmri	17.0	0.8	89.0	-70.0	0.2	10.0	1.0	2.0	1.2953149171243863	0.785	n/a	stim	poldrack-single-stim	s471	False	1
430.009	0.344	430.353	-0.7422174580002856	draw_card	0.344	columbia_card_task_fmri	17.0	0.7777777777777778	89.0	-70.0	0.2222222222222222	10.0	2.0	2.0	2.663294617836605	0.344	n/a	stim	poldrack-single-stim	s471	False	1
430.359	0.399	430.758	-3.1588841246669537	draw_card	0.399	columbia_card_task_fmri	17.0	0.75	89.0	-70.0	0.25	10.0	3.0	2.0	4.164650840845489	0.399	n/a	stim	poldrack-single-stim	s471	False	1
430.764	0.943	431.707	-6.266026981809811	end_round	0.943	columbia_card_task_fmri	17.0	0.7142857142857143	71.0	-70.0	0.2857142857142857	10.0	4.0	2.0	5.793747378720283	0.943	3.0	stim	poldrack-single-stim	s471	False	1
432.464	1.5	431.713	n/a	-1.0	2.25	columbia_card_task_fmri	n/a	n/a	-1.0	n/a	n/a	n/a	n/a	n/a	n/a	n/a	n/a	ITI	poldrack-single-stim	s471	False	0
433.97	2.148	436.118	-0.0755507913336195	draw_card	2.148	columbia_card_task_fmri	13.0	0.8333333333333334	89.0	-75.0	0.1666666666666666	12.0	1.0	2.0	-0.7068020622746829	2.148	n/a	stim	poldrack-single-stim	s471	False	1
436.122	0.536	436.658	-1.4088841246669552	draw_card	0.536	columbia_card_task_fmri	13.0	0.8181818181818181	89.0	-75.0	0.1818181818181818	12.0	2.0	2.0	0.4373593817789896	0.536	n/a	stim	poldrack-single-stim	s471	False	1
436.663	0.369	437.032	-3.0088841246669533	draw_card	0.369	columbia_card_task_fmri	13.0	0.8	89.0	-75.0	0.2	12.0	3.0	2.0	1.6949022126856974	0.369	n/a	stim	poldrack-single-stim	s471	False	1
437.038	0.375	437.413	-4.964439680222507	draw_card	0.375	columbia_card_task_fmri	13.0	0.7777777777777778	89.0	-75.0	0.2222222222222222	12.0	4.0	2.0	3.07863720219175	0.375	n/a	stim	poldrack-single-stim	s471	False	1
437.419	1.757	439.176	-7.408884124666954	draw_card	1.757	columbia_card_task_fmri	13.0	0.75	89.0	-75.0	0.25	12.0	5.0	2.0	4.597282216175174	1.757	n/a	stim	poldrack-single-stim	s471	False	1
439.182	0.492	439.674	-10.551741267524092	end_round	0.492	columbia_card_task_fmri	13.0	0.7142857142857143	71.0	-75.0	0.2857142857142857	12.0	6.0	2.0	6.245135783918947	0.492	5.0	stim	poldrack-single-stim	s471	False	1
440.431	1.5	439.68	n/a	-1.0	2.25	columbia_card_task_fmri	n/a	n/a	-1.0	n/a	n/a	n/a	n/a	n/a	n/a	n/a	n/a	ITI	poldrack-single-stim	s471	False	0
441.938	0.919	442.857	1.5911158753330483	draw_card	0.919	columbia_card_task_fmri	14.0	0.8333333333333334	89.0	-70.0	0.1666666666666666	12.0	1.0	2.0	-2.195679474094451	0.919	n/a	stim	poldrack-single-stim	s471	False	1
442.863	0.545	443.408	0.3183886026057714	draw_card	0.545	columbia_card_task_fmri	14.0	0.8181818181818181	89.0	-70.0	0.1818181818181818	12.0	2.0	2.0	-1.1036461735581753	0.545	n/a	stim	poldrack-single-stim	s471	False	1
443.415	0.505	443.92	-1.2088841246669524	draw_card	0.505	columbia_card_task_fmri	14.0	0.8	89.0	-70.0	0.2	12.0	3.0	2.0	0.0966118918934526	0.505	n/a	stim	poldrack-single-stim	s471	False	1
443.927	0.448	444.375	-3.07555079133362	draw_card	0.448	columbia_card_task_fmri	14.0	0.7777777777777778	89.0	-70.0	0.2222222222222222	12.0	4.0	2.0	1.41732351113982	0.448	4.0	stim	poldrack-single-stim	s471	False	0
445.133	1.5	444.382	n/a	-1.0	2.386	columbia_card_task_fmri	n/a	n/a	-1.0	n/a	n/a	n/a	n/a	n/a	n/a	n/a	n/a	ITI	poldrack-single-stim	s471	False	0
446.776	0.521	447.297	1.5911158753330483	draw_card	0.521	columbia_card_task_fmri	16.0	0.8333333333333334	89.0	-80.0	0.1666666666666666	12.0	1.0	2.0	2.271410672754598	0.521	n/a	stim	poldrack-single-stim	s471	False	1
447.303	0.351	447.654	0.1365704207875897	draw_card	0.351	columbia_card_task_fmri	16.0	0.8181818181818181	89.0	-80.0	0.1818181818181818	12.0	2.0	2.0	3.519813051095205	0.351	n/a	stim	poldrack-single-stim	s471	False	1
447.66	0.547	448.207	-1.6088841246669527	draw_card	0.547	columbia_card_task_fmri	16.0	0.8	89.0	-80.0	0.2	12.0	3.0	2.0	4.8919096818349175	0.547	n/a	stim	poldrack-single-stim	s471	False	1
448.214	0.281	448.495	-3.742217458000288	draw_card	0.281	columbia_card_task_fmri	16.0	0.7777777777777778	89.0	-80.0	0.2222222222222222	12.0	4.0	2.0	6.401675343557599	0.281	n/a	stim	poldrack-single-stim	s471	False	1
448.5	0.602	449.102	-6.408884124666954	draw_card	0.602	columbia_card_task_fmri	16.0	0.75	89.0	-80.0	0.25	12.0	5.0	2.0	8.05861887960667	0.602	5.0	stim	poldrack-single-stim	s471	False	0
449.858	1.5	449.107	n/a	-1.0	2.386	columbia_card_task_fmri	n/a	n/a	-1.0	n/a	n/a	n/a	n/a	n/a	n/a	n/a	n/a	ITI	poldrack-single-stim	s471	False	0
451.499	0.714	452.213	1.3911158753330473	draw_card	0.714	columbia_card_task_fmri	16.0	0.8	89.0	-65.0	0.2	15.0	1.0	3.0	-1.1019952284830836	0.714	n/a	stim	poldrack-single-stim	s471	False	1
452.218	0.375	452.593	0.2339730181901906	draw_card	0.375	columbia_card_task_fmri	16.0	0.7857142857142857	89.0	-65.0	0.2142857142857142	15.0	2.0	3.0	-0.2665784966989122	0.375	2.0	stim	poldrack-single-stim	s471	False	0
453.351	1.5	452.6	n/a	-1.0	2.726	columbia_card_task_fmri	n/a	n/a	-1.0	n/a	n/a	n/a	n/a	n/a	n/a	n/a	n/a	ITI	poldrack-single-stim	s471	False	0
455.333	0.659	455.992	-0.2838841246669534	draw_card	0.659	columbia_card_task_fmri	15.0	0.8125	89.0	-75.0	0.1875	16.0	1.0	3.0	1.6230894314098665	0.659	n/a	stim	poldrack-single-stim	s471	False	1
455.998	0.444	456.442	-1.4088841246669537	draw_card	0.444	columbia_card_task_fmri	15.0	0.8	89.0	-75.0	0.2	16.0	2.0	3.0	2.4941042764344346	0.444	n/a	stim	poldrack-single-stim	s471	False	1
456.448	0.33	456.778	-2.6945984103812384	draw_card	0.33	columbia_card_task_fmri	15.0	0.7857142857142857	89.0	-75.0	0.2142857142857142	16.0	3.0	3.0	3.4225519864325875	0.33	n/a	stim	poldrack-single-stim	s471	False	1
456.785	0.521	457.306	-4.178114893897727	draw_card	0.521	columbia_card_task_fmri	15.0	0.7692307692307692	89.0	-75.0	0.2307692307692307	16.0	4.0	3.0	4.411581043712239	0.521	4.0	stim	poldrack-single-stim	s471	False	0
458.065	1.5	457.314	n/a	-1.0	2.454	columbia_card_task_fmri	n/a	n/a	-1.0	n/a	n/a	n/a	n/a	n/a	n/a	n/a	n/a	ITI	poldrack-single-stim	s471	False	0
459.775	0.375	460.15	0.2786158753330465	draw_card	0.375	columbia_card_task_fmri	14.0	0.6875	89.0	-35.0	0.3125	16.0	1.0	5.0	-10.773267236601209	0.375	n/a	stim	poldrack-single-stim	s471	False	1
460.156	0.526	460.682	-0.7422174580002856	draw_card	0.526	columbia_card_task_fmri	14.0	0.6666666666666667	89.0	-35.0	0.3333333333333333	16.0	2.0	5.0	-10.387483294270776	0.526	2.0	stim	poldrack-single-stim	s471	False	0
461.439	1.5	460.688	n/a	-1.0	2.318	columbia_card_task_fmri	n/a	n/a	-1.0	n/a	n/a	n/a	n/a	n/a	n/a	n/a	n/a	ITI	poldrack-single-stim	s471	False	0
463.013	0.377	463.39	5.4577825419997135	draw_card	0.377	columbia_card_task_fmri	16.0	0.8666666666666667	89.0	-75.0	0.1333333333333333	15.0	1.0	2.0	-2.5660955718163514	0.377	n/a	stim	poldrack-single-stim	s471	False	1
463.396	0.357	463.753	4.591115875333048	draw_card	0.357	columbia_card_task_fmri	16.0	0.8571428571428572	89.0	-75.0	0.1428571428571428	15.0	2.0	2.0	-1.657946892516069	0.357	n/a	stim	poldrack-single-stim	s471	False	1
463.76	0.346	464.106	3.5911158753330463	draw_card	0.346	columbia_card_task_fmri	16.0	0.8461538461538461	89.0	-75.0	0.1538461538461538	15.0	3.0	2.0	-0.6695991224230795	0.346	n/a	stim	poldrack-single-stim	s471	False	1
464.113	0.935	465.048	2.4244492086663803	draw_card	0.935	columbia_card_task_fmri	16.0	0.8333333333333334	89.0	-75.0	0.1666666666666666	15.0	4.0	2.0	0.409961656164306	0.935	4.0	stim	poldrack-single-stim	s471	False	0
465.806	1.5	465.055	n/a	-1.0	2.318	columbia_card_task_fmri	n/a	n/a	-1.0	n/a	n/a	n/a	n/a	n/a	n/a	n/a	n/a	ITI	poldrack-single-stim	s471	False	0
467.381	0.32	467.701	6.12444920866638	draw_card	0.32	columbia_card_task_fmri	16.0	0.8666666666666667	89.0	-70.0	0.1333333333333333	15.0	1.0	2.0	-4.263394655467081	0.32	n/a	stim	poldrack-single-stim	s471	False	1
467.707	0.332	468.039	5.305401589618762	draw_card	0.332	columbia_card_task_fmri	16.0	0.8571428571428572	89.0	-70.0	0.1428571428571428	15.0	2.0	2.0	-3.405275857429426	0.332	2.0	stim	poldrack-single-stim	s471	False	0
468.797	1.5	468.046	n/a	-1.0	2.59	columbia_card_task_fmri	n/a	n/a	-1.0	n/a	n/a	n/a	n/a	n/a	n/a	n/a	n/a	ITI	poldrack-single-stim	s471	False	0
470.643	0.689	471.332	3.4661158753330463	draw_card	0.689	columbia_card_task_fmri	8.0	0.9375	89.0	-90.0	0.0625	16.0	1.0	1.0	-9.765716508844768	0.689	n/a	stim	poldrack-single-stim	s471	False	1
471.338	0.461	471.799	3.057782541999713	draw_card	0.461	columbia_card_task_fmri	8.0	0.9333333333333332	89.0	-90.0	0.0666666666666666	16.0	2.0	1.0	-9.043818651522358	0.461	n/a	stim	poldrack-single-stim	s471	False	1
471.806	0.365	472.171	2.591115875333047	draw_card	0.365	columbia_card_task_fmri	8.0	0.9285714285714286	89.0	-90.0	0.0714285714285714	16.0	3.0	1.0	-8.252077368303642	0.365	n/a	stim	poldrack-single-stim	s471	False	1
472.178	0.813	472.991	2.052654336871508	draw_card	0.813	columbia_card_task_fmri	8.0	0.9230769230769232	89.0	-90.0	0.0769230769230769	16.0	4.0	1.0	-7.378615442203607	0.813	n/a	stim	poldrack-single-stim	s471	False	1
472.998	0.443	473.441	1.4244492086663796	end_round	0.443	columbia_card_task_fmri	8.0	0.9166666666666666	71.0	-90.0	0.0833333333333333	16.0	5.0	1.0	-6.408577551670252	0.443	4.0	stim	poldrack-single-stim	s471	False	1
474.199	1.5	473.448	n/a	-1.0	2.726	columbia_card_task_fmri	n/a	n/a	-1.0	n/a	n/a	n/a	n/a	n/a	n/a	n/a	n/a	ITI	poldrack-single-stim	s471	False	0
476.182	0.83	477.012	5.028615875333046	draw_card	0.83	columbia_card_task_fmri	10.0	0.9375	89.0	-95.0	0.0625	16.0	1.0	1.0	-8.07483249660483	0.83	n/a	stim	poldrack-single-stim	s471	False	1
477.02	0.355	477.375	4.591115875333047	draw_card	0.355	columbia_card_task_fmri	10.0	0.9333333333333332	89.0	-95.0	0.0666666666666666	16.0	2.0	1.0	-7.3011537524833265	0.355	n/a	stim	poldrack-single-stim	s471	False	1
477.382	0.555	477.937	4.091115875333047	draw_card	0.555	columbia_card_task_fmri	10.0	0.9285714285714286	89.0	-95.0	0.0714285714285714	16.0	3.0	1.0	-6.452636029780816	0.555	n/a	stim	poldrack-single-stim	s471	False	1
477.944	0.405	478.349	3.5141927984099697	draw_card	0.405	columbia_card_task_fmri	10.0	0.9230769230769232	89.0	-95.0	0.0769230769230769	16.0	4.0	1.0	-5.516553106455362	0.405	n/a	stim	poldrack-single-stim	s471	False	1
478.357	0.412	478.769	2.8411158753330463	draw_card	0.412	columbia_card_task_fmri	10.0	0.9166666666666666	89.0	-95.0	0.0833333333333333	16.0	5.0	1.0	-4.476987836035441	0.412	n/a	stim	poldrack-single-stim	s471	False	1
478.775	0.433	479.208	2.0456613298785	draw_card	0.433	columbia_card_task_fmri	10.0	0.9090909090909092	89.0	-95.0	0.0909090909090909	16.0	6.0	1.0	-3.313756759176286	0.433	n/a	stim	poldrack-single-stim	s471	False	1
479.214	1.797	481.011	1.0911158753330463	draw_card	1.797	columbia_card_task_fmri	10.0	0.9	89.0	-95.0	0.1	16.0	7.0	1.0	-2.0008810537512574	1.797	n/a	stim	poldrack-single-stim	s471	False	1
481.016	0.734	481.75	-0.0755507913336195	end_round	0.734	columbia_card_task_fmri	10.0	0.8888888888888888	71.0	-95.0	0.1111111111111111	16.0	8.0	1.0	-0.5043858998268789	0.734	7.0	stim	poldrack-single-stim	s471	False	1
482.507	1.5	481.756	n/a	-1.0	2.522	columbia_card_task_fmri	n/a	n/a	-1.0	n/a	n/a	n/a	n/a	n/a	n/a	n/a	n/a	ITI	poldrack-single-stim	s471	False	0
484.286	1.031	485.317	5.966115875333046	draw_card	1.031	columbia_card_task_fmri	15.0	0.875	89.0	-70.0	0.125	16.0	1.0	2.0	-5.384939349119257	1.031	1.0	stim	poldrack-single-stim	s471	False	0
486.075	1.5	485.324	n/a	-1.0	3.134	columbia_card_task_fmri	n/a	n/a	-1.0	n/a	n/a	n/a	n/a	n/a	n/a	n/a	n/a	ITI	poldrack-single-stim	s471	False	0
488.466	0.657	489.123	4.966115875333046	draw_card	0.657	columbia_card_task_fmri	16.0	0.875	89.0	-85.0	0.125	16.0	1.0	2.0	-0.1005555545509153	0.657	n/a	stim	poldrack-single-stim	s471	False	1
489.13	0.328	489.458	4.12444920866638	draw_card	0.328	columbia_card_task_fmri	16.0	0.8666666666666667	89.0	-85.0	0.1333333333333333	16.0	2.0	2.0	0.8292065292221409	0.328	n/a	stim	poldrack-single-stim	s471	False	1
489.466	0.312	489.778	3.1625444467616197	draw_card	0.312	columbia_card_task_fmri	16.0	0.8571428571428572	89.0	-85.0	0.1428571428571428	16.0	3.0	2.0	1.8373950180509269	0.312	n/a	stim	poldrack-single-stim	s471	False	1
489.785	0.343	490.128	2.0526543368715062	draw_card	0.343	columbia_card_task_fmri	16.0	0.8461538461538461	89.0	-85.0	0.1538461538461538	16.0	4.0	2.0	2.9346018874207545	0.343	4.0	stim	poldrack-single-stim	s471	False	0
490.886	1.5	490.135	n/a	-1.0	2.386	columbia_card_task_fmri	n/a	n/a	-1.0	n/a	n/a	n/a	n/a	n/a	n/a	n/a	n/a	ITI	poldrack-single-stim	s471	False	0
