onset	duration	block_duration	condition	correct	correct_response	experiment_exp_id	key_press	response_time	stim_color	stim_word	trial_id	trial_type	worker_id	junk
3.506	1.5	2.0	incongruent	1.0	82.0	stroop	82	1.011	green	blue	stim	incongruent	s471	False
5.507	1.5	2.544	congruent	1.0	89.0	stroop	89	0.403	red	red	stim	congruent	s471	False
8.052	1.5	2.136	congruent	1.0	71.0	stroop	71	0.418	blue	blue	stim	congruent	s471	False
10.189	1.5	2.0	congruent	1.0	71.0	stroop	71	0.495	blue	blue	stim	congruent	s471	False
12.191	1.5	2.0	congruent	1.0	82.0	stroop	82	0.449	green	green	stim	congruent	s471	False
14.192	1.5	2.272	congruent	1.0	82.0	stroop	82	0.543	green	green	stim	congruent	s471	False
16.466	1.5	2.0	incongruent	1.0	82.0	stroop	82	0.681	green	blue	stim	incongruent	s471	False
18.468	1.5	2.0	congruent	1.0	82.0	stroop	82	0.564	green	green	stim	congruent	s471	False
20.469	1.5	2.136	incongruent	1.0	71.0	stroop	71	0.755	blue	red	stim	incongruent	s471	False
22.606	1.5	2.0	incongruent	1.0	89.0	stroop	89	0.632	red	green	stim	incongruent	s471	False
24.607	1.5	2.272	incongruent	1.0	82.0	stroop	82	0.728	green	blue	stim	incongruent	s471	False
26.88	1.5	2.136	congruent	1.0	82.0	stroop	82	0.546	green	green	stim	congruent	s471	False
29.018	1.5	2.408	incongruent	1.0	71.0	stroop	71	0.819	blue	red	stim	incongruent	s471	False
31.427	1.5	2.0	congruent	1.0	71.0	stroop	71	0.746	blue	blue	stim	congruent	s471	False
33.429	1.5	2.0	congruent	1.0	89.0	stroop	89	0.431	red	red	stim	congruent	s471	False
35.43	1.5	2.816	incongruent	1.0	82.0	stroop	82	0.494	green	blue	stim	incongruent	s471	False
38.247	1.5	2.0	incongruent	1.0	82.0	stroop	82	0.812	green	red	stim	incongruent	s471	False
40.248	1.5	2.0	incongruent	1.0	89.0	stroop	89	0.722	red	blue	stim	incongruent	s471	False
42.25	1.5	2.136	congruent	1.0	89.0	stroop	89	0.494	red	red	stim	congruent	s471	False
44.387	1.5	2.0	congruent	1.0	82.0	stroop	82	0.625	green	green	stim	congruent	s471	False
46.388	1.5	2.0	incongruent	1.0	89.0	stroop	89	0.63	red	green	stim	incongruent	s471	False
48.389	1.5	2.0	congruent	1.0	89.0	stroop	89	0.781	red	red	stim	congruent	s471	False
50.39	1.5	2.0	incongruent	1.0	89.0	stroop	89	0.85	red	green	stim	incongruent	s471	False
52.392	1.5	2.0	congruent	1.0	82.0	stroop	82	0.459	green	green	stim	congruent	s471	False
54.393	1.5	2.0	incongruent	1.0	71.0	stroop	71	0.451	blue	red	stim	incongruent	s471	False
56.394	1.5	2.0	congruent	1.0	89.0	stroop	89	0.477	red	red	stim	congruent	s471	False
58.396	1.5	2.272	incongruent	1.0	71.0	stroop	71	0.489	blue	green	stim	incongruent	s471	False
60.669	1.5	2.0	incongruent	1.0	89.0	stroop	89	0.581	red	blue	stim	incongruent	s471	False
62.671	1.5	2.136	congruent	1.0	89.0	stroop	89	0.547	red	red	stim	congruent	s471	False
64.809	1.5	2.0	congruent	1.0	71.0	stroop	71	0.539	blue	blue	stim	congruent	s471	False
66.81	1.5	2.136	congruent	1.0	82.0	stroop	82	0.462	green	green	stim	congruent	s471	False
68.947	1.5	2.0	congruent	1.0	89.0	stroop	89	0.523	red	red	stim	congruent	s471	False
70.949	1.5	2.0	congruent	1.0	89.0	stroop	89	0.443	red	red	stim	congruent	s471	False
72.95	1.5	2.0	incongruent	1.0	71.0	stroop	71	0.829	blue	red	stim	incongruent	s471	False
74.952	1.5	2.272	incongruent	1.0	71.0	stroop	71	0.583	blue	green	stim	incongruent	s471	False
77.225	1.5	2.0	incongruent	1.0	71.0	stroop	71	0.525	blue	red	stim	incongruent	s471	False
79.226	1.5	2.136	incongruent	1.0	82.0	stroop	82	0.85	green	red	stim	incongruent	s471	False
81.364	1.5	2.408	congruent	1.0	82.0	stroop	82	0.515	green	green	stim	congruent	s471	False
83.774	1.5	2.272	incongruent	1.0	82.0	stroop	82	0.48	green	blue	stim	incongruent	s471	False
86.047	1.5	2.68	congruent	1.0	82.0	stroop	82	0.52	green	green	stim	congruent	s471	False
88.728	1.5	2.0	congruent	1.0	89.0	stroop	89	0.524	red	red	stim	congruent	s471	False
90.73	1.5	2.408	congruent	1.0	82.0	stroop	82	0.615	green	green	stim	congruent	s471	False
93.139	1.5	2.136	congruent	1.0	71.0	stroop	71	0.582	blue	blue	stim	congruent	s471	False
95.276	1.5	2.68	incongruent	1.0	82.0	stroop	82	0.657	green	red	stim	incongruent	s471	False
97.958	1.5	2.0	incongruent	1.0	71.0	stroop	71	0.7	blue	green	stim	incongruent	s471	False
99.959	1.5	2.136	incongruent	1.0	82.0	stroop	82	0.685	green	red	stim	incongruent	s471	False
102.096	1.5	2.952	congruent	1.0	89.0	stroop	89	0.55	red	red	stim	congruent	s471	False
105.049	1.5	2.0	incongruent	1.0	89.0	stroop	89	0.676	red	blue	stim	incongruent	s471	False
107.051	1.5	2.272	incongruent	1.0	82.0	stroop	82	0.671	green	blue	stim	incongruent	s471	False
109.324	1.5	2.0	incongruent	1.0	71.0	stroop	71	0.611	blue	red	stim	incongruent	s471	False
111.325	1.5	2.0	congruent	1.0	89.0	stroop	89	0.578	red	red	stim	congruent	s471	False
113.327	1.5	2.0	congruent	1.0	82.0	stroop	82	0.513	green	green	stim	congruent	s471	False
115.328	1.5	2.0	incongruent	1.0	89.0	stroop	89	0.59	red	blue	stim	incongruent	s471	False
117.33	1.5	2.136	congruent	1.0	82.0	stroop	82	0.719	green	green	stim	congruent	s471	False
119.468	1.5	2.0	congruent	1.0	89.0	stroop	89	0.544	red	red	stim	congruent	s471	False
121.469	1.5	2.0	incongruent	1.0	71.0	stroop	71	0.765	blue	green	stim	incongruent	s471	False
123.471	1.5	2.136	congruent	1.0	71.0	stroop	71	0.562	blue	blue	stim	congruent	s471	False
125.608	1.5	2.0	incongruent	1.0	71.0	stroop	71	0.908	blue	green	stim	incongruent	s471	False
127.609	1.5	2.0	incongruent	1.0	89.0	stroop	89	0.596	red	green	stim	incongruent	s471	False
129.611	1.5	2.136	incongruent	1.0	82.0	stroop	82	0.698	green	red	stim	incongruent	s471	False
131.748	1.5	2.136	congruent	1.0	82.0	stroop	82	0.528	green	green	stim	congruent	s471	False
133.885	1.5	2.272	congruent	1.0	71.0	stroop	71	0.857	blue	blue	stim	congruent	s471	False
136.158	1.5	2.68	incongruent	1.0	82.0	stroop	82	0.698	green	red	stim	incongruent	s471	False
138.839	1.5	2.0	congruent	1.0	71.0	stroop	71	0.559	blue	blue	stim	congruent	s471	False
140.841	1.5	2.0	congruent	1.0	71.0	stroop	71	0.495	blue	blue	stim	congruent	s471	False
142.842	1.5	2.272	incongruent	1.0	89.0	stroop	89	0.409	red	blue	stim	incongruent	s471	False
145.116	1.5	2.0	incongruent	1.0	89.0	stroop	89	1.083	red	green	stim	incongruent	s471	False
147.117	1.5	2.0	congruent	1.0	71.0	stroop	71	0.557	blue	blue	stim	congruent	s471	False
149.118	1.5	2.0	incongruent	1.0	82.0	stroop	82	0.617	green	blue	stim	incongruent	s471	False
151.12	1.5	2.0	incongruent	1.0	71.0	stroop	71	0.511	blue	red	stim	incongruent	s471	False
153.122	1.5	2.0	incongruent	1.0	71.0	stroop	71	0.481	blue	green	stim	incongruent	s471	False
155.123	1.5	2.0	incongruent	1.0	82.0	stroop	82	0.576	green	red	stim	incongruent	s471	False
157.125	1.5	2.272	congruent	1.0	71.0	stroop	71	0.532	blue	blue	stim	congruent	s471	False
159.398	1.5	2.0	incongruent	1.0	82.0	stroop	82	0.663	green	blue	stim	incongruent	s471	False
161.399	1.5	2.408	congruent	1.0	71.0	stroop	71	0.742	blue	blue	stim	congruent	s471	False
163.808	1.5	2.0	congruent	1.0	71.0	stroop	71	0.482	blue	blue	stim	congruent	s471	False
165.81	1.5	2.136	congruent	1.0	71.0	stroop	71	0.418	blue	blue	stim	congruent	s471	False
167.947	1.5	2.0	congruent	1.0	89.0	stroop	89	0.408	red	red	stim	congruent	s471	False
169.948	1.5	2.0	congruent	1.0	89.0	stroop	89	0.604	red	red	stim	congruent	s471	False
171.949	1.5	2.0	incongruent	1.0	89.0	stroop	89	0.748	red	blue	stim	incongruent	s471	False
173.95	1.5	2.272	congruent	1.0	82.0	stroop	82	0.621	green	green	stim	congruent	s471	False
176.224	1.5	2.0	incongruent	1.0	71.0	stroop	71	0.65	blue	green	stim	incongruent	s471	False
178.226	1.5	2.272	incongruent	1.0	71.0	stroop	71	0.469	blue	red	stim	incongruent	s471	False
180.499	1.5	2.272	incongruent	1.0	89.0	stroop	89	0.485	red	blue	stim	incongruent	s471	False
182.772	1.5	2.0	incongruent	1.0	89.0	stroop	89	0.808	red	green	stim	incongruent	s471	False
184.774	1.5	2.68	congruent	1.0	71.0	stroop	71	1.107	blue	blue	stim	congruent	s471	False
187.455	1.5	2.0	incongruent	0.0	71.0	stroop	82	0.885	blue	green	stim	incongruent	s471	False
189.456	1.5	2.272	congruent	1.0	82.0	stroop	82	0.595	green	green	stim	congruent	s471	False
191.73	1.5	2.0	congruent	1.0	89.0	stroop	89	0.609	red	red	stim	congruent	s471	False
193.732	1.5	2.0	congruent	1.0	71.0	stroop	71	0.592	blue	blue	stim	congruent	s471	False
195.733	1.5	2.272	incongruent	1.0	89.0	stroop	89	0.575	red	green	stim	incongruent	s471	False
198.007	1.5	2.136	congruent	1.0	82.0	stroop	82	0.613	green	green	stim	congruent	s471	False
200.144	1.5	2.544	congruent	1.0	89.0	stroop	89	0.621	red	red	stim	congruent	s471	False
202.689	1.5	2.408	incongruent	1.0	82.0	stroop	82	0.872	green	red	stim	incongruent	s471	False
205.098	1.5	2.0	incongruent	1.0	89.0	stroop	89	0.611	red	green	stim	incongruent	s471	False
207.101	1.5	2.0	incongruent	1.0	89.0	stroop	89	0.606	red	blue	stim	incongruent	s471	False
