onset	duration	SS_delay	block_duration	correct	correct_response	experiment_exp_id	key_press	passed_check	response_time	stopped	trial_id	trial_type	worker_id	junk
3.009	0.85	0.3	2.25	1.0	71.0	stop_signal	71.0	True	0.496	False	stim	stop_failure	s483	False
5.262	0.85	0.25	2.658	1.0	71.0	stop_signal	71.0	True	0.595	False	stim	go	s483	False
7.922	0.85	0.25	2.658	1.0	71.0	stop_signal	71.0	True	0.415	False	stim	go	s483	False
10.583	0.85	0.25	2.25	1.0	71.0	stop_signal	71.0	True	0.471	False	stim	go	s483	False
12.836	0.85	0.25	2.25	1.0	71.0	stop_signal	71.0	True	0.467	False	stim	go	s483	False
15.089	0.85	0.25	2.386	1.0	89.0	stop_signal	89.0	True	0.423	False	stim	go	s483	False
17.477	0.85	0.25	2.794	1.0	89.0	stop_signal	89.0	True	0.433	False	stim	stop_failure	s483	False
20.274	0.85	0.2	2.386	1.0	71.0	stop_signal	-1.0	True	n/a	True	stim	stop_success	s483	False
22.663	0.85	0.25	2.25	1.0	89.0	stop_signal	-1.0	True	n/a	True	stim	stop_success	s483	False
24.916	0.85	0.3	2.25	1.0	71.0	stop_signal	71.0	True	0.526	False	stim	stop_failure	s483	False
27.169	0.85	0.25	2.25	1.0	71.0	stop_signal	-1.0	True	n/a	True	stim	stop_success	s483	False
29.421	0.85	0.3	2.658	1.0	89.0	stop_signal	89.0	True	0.538	False	stim	go	s483	False
32.083	0.85	0.3	2.658	1.0	89.0	stop_signal	89.0	True	0.416	False	stim	go	s483	False
34.744	0.85	0.3	2.25	1.0	89.0	stop_signal	89.0	True	0.49	False	stim	go	s483	False
36.997	0.85	0.3	2.522	1.0	89.0	stop_signal	89.0	True	0.654	False	stim	go	s483	False
39.522	0.85	0.3	2.25	1.0	89.0	stop_signal	89.0	True	0.418	False	stim	go	s483	False
41.774	0.85	0.3	2.522	1.0	89.0	stop_signal	89.0	True	0.427	False	stim	stop_failure	s483	False
44.299	0.85	0.25	2.522	1.0	89.0	stop_signal	89.0	True	0.491	False	stim	go	s483	False
46.824	0.85	0.25	2.522	1.0	71.0	stop_signal	-1.0	True	n/a	True	stim	stop_success	s483	False
49.348	0.85	0.3	2.386	1.0	71.0	stop_signal	-1.0	True	n/a	True	stim	stop_success	s483	False
51.736	0.85	0.35	2.522	1.0	89.0	stop_signal	89.0	True	0.421	False	stim	stop_failure	s483	False
54.261	0.85	0.3	2.522	1.0	89.0	stop_signal	89.0	True	0.414	False	stim	go	s483	False
56.787	0.85	0.3	2.386	1.0	89.0	stop_signal	89.0	True	0.538	False	stim	go	s483	False
59.175	0.85	0.3	2.25	1.0	89.0	stop_signal	89.0	True	0.374	False	stim	go	s483	False
61.429	0.85	0.3	2.522	1.0	71.0	stop_signal	71.0	True	0.644	False	stim	go	s483	False
63.954	0.85	0.3	2.794	1.0	89.0	stop_signal	89.0	True	0.561	False	stim	go	s483	False
66.75	0.85	0.3	2.522	0.0	71.0	stop_signal	89.0	True	0.404	False	stim	stop_failure	s483	False
69.275	0.85	0.25	2.386	1.0	89.0	stop_signal	89.0	True	0.381	False	stim	stop_failure	s483	False
71.664	0.85	0.2	2.25	1.0	71.0	stop_signal	71.0	True	0.518	False	stim	go	s483	False
73.917	0.85	0.2	2.25	1.0	71.0	stop_signal	-1.0	True	n/a	True	stim	stop_success	s483	False
76.17	0.85	0.25	2.25	1.0	89.0	stop_signal	-1.0	True	n/a	True	stim	stop_success	s483	False
78.423	0.85	0.3	2.25	1.0	71.0	stop_signal	-1.0	True	n/a	True	stim	stop_success	s483	False
80.676	0.85	0.35	2.522	1.0	89.0	stop_signal	89.0	True	0.509	False	stim	go	s483	False
83.201	0.85	0.35	2.25	1.0	71.0	stop_signal	71.0	True	0.608	False	stim	go	s483	False
85.455	0.85	0.35	2.25	1.0	71.0	stop_signal	71.0	True	0.469	False	stim	stop_failure	s483	False
87.708	0.85	0.3	2.25	1.0	71.0	stop_signal	71.0	True	0.608	False	stim	go	s483	False
89.96	0.85	0.3	2.25	1.0	89.0	stop_signal	89.0	True	0.416	False	stim	go	s483	False
92.213	0.85	0.3	2.386	1.0	71.0	stop_signal	71.0	True	0.444	False	stim	go	s483	False
94.602	0.85	0.3	2.25	1.0	71.0	stop_signal	71.0	True	0.447	False	stim	go	s483	False
96.855	0.85	0.3	2.25	1.0	71.0	stop_signal	71.0	True	0.375	False	stim	stop_failure	s483	False
99.109	0.85	0.25	2.25	1.0	71.0	stop_signal	71.0	True	0.539	False	stim	go	s483	False
111.87	0.85	0.25	2.25	1.0	89.0	stop_signal	89.0	True	0.487	False	stim	stop_failure	s483	False
114.123	0.85	0.2	2.522	1.0	89.0	stop_signal	89.0	True	0.389	False	stim	stop_failure	s483	False
116.647	0.85	0.15	2.386	1.0	71.0	stop_signal	71.0	True	0.583	False	stim	go	s483	False
119.036	0.85	0.15	2.522	1.0	71.0	stop_signal	71.0	True	0.397	False	stim	go	s483	False
121.561	0.85	0.15	2.25	1.0	71.0	stop_signal	-1.0	True	n/a	True	stim	stop_success	s483	False
123.815	0.85	0.2	2.386	1.0	71.0	stop_signal	71.0	True	0.682	False	stim	go	s483	False
126.204	0.85	0.2	2.386	1.0	89.0	stop_signal	89.0	True	0.618	False	stim	go	s483	False
128.593	0.85	0.2	2.25	1.0	89.0	stop_signal	89.0	True	0.407	False	stim	go	s483	False
130.845	0.85	0.2	2.386	1.0	89.0	stop_signal	89.0	True	0.401	False	stim	go	s483	False
133.234	0.85	0.2	2.386	1.0	89.0	stop_signal	89.0	True	0.547	False	stim	go	s483	False
135.623	0.85	0.2	2.386	1.0	89.0	stop_signal	-1.0	True	n/a	True	stim	stop_success	s483	False
138.012	0.85	0.25	2.658	1.0	71.0	stop_signal	71.0	True	0.532	False	stim	go	s483	False
140.672	0.85	0.25	2.522	1.0	71.0	stop_signal	71.0	True	0.524	False	stim	go	s483	False
143.197	0.85	0.25	2.25	1.0	71.0	stop_signal	-1.0	True	n/a	True	stim	stop_success	s483	False
145.449	0.85	0.3	2.93	1.0	89.0	stop_signal	89.0	True	0.422	False	stim	stop_failure	s483	False
148.382	0.85	0.25	2.25	1.0	89.0	stop_signal	89.0	True	0.512	False	stim	go	s483	False
150.635	0.85	0.25	2.522	1.0	89.0	stop_signal	89.0	True	0.358	False	stim	go	s483	False
153.16	0.85	0.25	2.25	1.0	71.0	stop_signal	-1.0	True	n/a	True	stim	stop_success	s483	False
155.413	0.85	0.3	2.25	1.0	71.0	stop_signal	71.0	True	0.545	False	stim	go	s483	False
157.667	0.85	0.3	2.25	1.0	71.0	stop_signal	71.0	True	0.436	False	stim	go	s483	False
159.92	0.85	0.3	2.25	1.0	89.0	stop_signal	89.0	True	0.58	False	stim	go	s483	False
162.173	0.85	0.3	2.522	1.0	71.0	stop_signal	71.0	True	0.562	False	stim	go	s483	False
164.698	0.85	0.3	3.066	1.0	89.0	stop_signal	89.0	True	0.403	False	stim	stop_failure	s483	False
167.766	0.85	0.25	2.25	1.0	71.0	stop_signal	-1.0	True	n/a	True	stim	stop_success	s483	False
170.019	0.85	0.3	2.386	1.0	89.0	stop_signal	89.0	True	0.475	False	stim	go	s483	False
172.408	0.85	0.3	2.386	1.0	89.0	stop_signal	89.0	True	0.439	False	stim	stop_failure	s483	False
174.796	0.85	0.25	2.522	1.0	89.0	stop_signal	89.0	True	0.512	False	stim	go	s483	False
177.321	0.85	0.25	2.386	1.0	71.0	stop_signal	71.0	True	0.612	False	stim	go	s483	False
179.711	0.85	0.25	2.386	1.0	71.0	stop_signal	71.0	True	0.775	False	stim	go	s483	False
182.1	0.85	0.25	2.794	1.0	71.0	stop_signal	-1.0	True	n/a	True	stim	stop_success	s483	False
184.897	0.85	0.3	2.386	1.0	71.0	stop_signal	71.0	True	0.607	False	stim	go	s483	False
187.286	0.85	0.3	2.25	1.0	71.0	stop_signal	-1.0	True	n/a	True	stim	stop_success	s483	False
189.538	0.85	0.35	2.522	1.0	71.0	stop_signal	71.0	True	0.561	False	stim	stop_failure	s483	False
192.063	0.85	0.3	2.386	1.0	89.0	stop_signal	-1.0	True	n/a	True	stim	stop_success	s483	False
194.452	0.85	0.35	2.386	1.0	89.0	stop_signal	89.0	True	0.601	False	stim	go	s483	False
196.841	0.85	0.35	2.25	1.0	89.0	stop_signal	-1.0	True	n/a	True	stim	stop_success	s483	False
199.093	0.85	0.4	2.386	1.0	71.0	stop_signal	71.0	True	0.61	False	stim	go	s483	False
201.482	0.85	0.4	2.25	1.0	89.0	stop_signal	89.0	True	0.631	False	stim	go	s483	False
203.734	0.85	0.4	2.25	1.0	89.0	stop_signal	-1.0	True	n/a	True	stim	stop_success	s483	False
205.987	0.85	0.45	2.25	1.0	71.0	stop_signal	71.0	True	0.556	False	stim	go	s483	False
208.24	0.85	0.45	2.386	1.0	71.0	stop_signal	71.0	True	0.612	False	stim	go	s483	False
210.629	0.85	0.45	2.25	1.0	71.0	stop_signal	71.0	True	0.64	False	stim	stop_failure	s483	False
223.389	0.85	0.4	2.25	1.0	89.0	stop_signal	89.0	True	0.569	False	stim	stop_failure	s483	False
225.642	0.85	0.35	2.386	1.0	89.0	stop_signal	-1.0	True	n/a	True	stim	stop_success	s483	False
228.031	0.85	0.4	2.386	1.0	89.0	stop_signal	89.0	True	0.389	False	stim	stop_failure	s483	False
230.42	0.85	0.35	2.25	1.0	71.0	stop_signal	71.0	True	0.714	False	stim	go	s483	False
232.672	0.85	0.35	2.522	1.0	71.0	stop_signal	71.0	True	0.508	False	stim	stop_failure	s483	False
235.197	0.85	0.3	2.25	1.0	89.0	stop_signal	89.0	True	0.556	False	stim	go	s483	False
237.45	0.85	0.3	2.386	1.0	71.0	stop_signal	71.0	True	0.756	False	stim	go	s483	False
239.839	0.85	0.3	2.25	1.0	71.0	stop_signal	71.0	True	0.726	False	stim	go	s483	False
242.092	0.85	0.3	2.25	1.0	89.0	stop_signal	-1.0	True	n/a	True	stim	stop_success	s483	False
244.345	0.85	0.35	2.386	1.0	89.0	stop_signal	89.0	True	0.546	False	stim	go	s483	False
246.734	0.85	0.35	2.522	1.0	89.0	stop_signal	89.0	True	0.859	False	stim	go	s483	False
249.26	0.85	0.35	2.386	1.0	71.0	stop_signal	71.0	True	0.456	False	stim	go	s483	False
251.649	0.85	0.35	2.522	1.0	89.0	stop_signal	89.0	True	0.709	False	stim	go	s483	False
254.173	0.85	0.35	2.93	1.0	89.0	stop_signal	-1.0	True	n/a	True	stim	stop_success	s483	False
257.106	0.85	0.4	2.522	1.0	89.0	stop_signal	89.0	True	0.578	False	stim	go	s483	False
259.631	0.85	0.4	2.522	1.0	71.0	stop_signal	71.0	True	0.652	False	stim	go	s483	False
262.156	0.85	0.4	2.25	1.0	89.0	stop_signal	89.0	True	0.608	False	stim	go	s483	False
264.409	0.85	0.4	2.522	1.0	71.0	stop_signal	-1.0	True	n/a	True	stim	stop_success	s483	False
266.935	0.85	0.45	2.386	1.0	71.0	stop_signal	71.0	True	0.586	False	stim	go	s483	False
269.323	0.85	0.45	2.25	1.0	89.0	stop_signal	89.0	True	0.564	False	stim	go	s483	False
271.576	0.85	0.45	2.386	1.0	89.0	stop_signal	89.0	True	0.371	False	stim	go	s483	False
273.964	0.85	0.45	2.25	1.0	71.0	stop_signal	71.0	True	0.592	False	stim	go	s483	False
276.217	0.85	0.45	2.386	1.0	71.0	stop_signal	71.0	True	0.588	False	stim	stop_failure	s483	False
278.605	0.85	0.4	2.522	1.0	71.0	stop_signal	71.0	True	0.6	False	stim	go	s483	False
281.13	0.85	0.4	2.25	1.0	89.0	stop_signal	89.0	True	0.6	False	stim	stop_failure	s483	False
283.383	0.85	0.35	2.386	1.0	89.0	stop_signal	-1.0	True	n/a	True	stim	stop_success	s483	False
285.774	0.85	0.4	2.658	1.0	89.0	stop_signal	89.0	True	0.709	False	stim	go	s483	False
288.435	0.85	0.4	2.25	1.0	89.0	stop_signal	89.0	True	0.491	False	stim	stop_failure	s483	False
290.688	0.85	0.35	3.202	1.0	89.0	stop_signal	89.0	True	0.663	False	stim	go	s483	False
293.892	0.85	0.35	2.386	1.0	89.0	stop_signal	89.0	True	0.678	False	stim	go	s483	False
296.281	0.85	0.35	2.386	1.0	89.0	stop_signal	89.0	True	0.758	False	stim	go	s483	False
298.67	0.85	0.35	2.522	1.0	71.0	stop_signal	-1.0	True	n/a	True	stim	stop_success	s483	False
301.196	0.85	0.4	2.25	1.0	71.0	stop_signal	71.0	True	0.674	False	stim	go	s483	False
303.448	0.85	0.4	2.25	1.0	89.0	stop_signal	-1.0	True	n/a	True	stim	stop_success	s483	False
305.703	0.85	0.45	2.25	1.0	71.0	stop_signal	71.0	True	0.584	False	stim	stop_failure	s483	False
307.956	0.85	0.4	2.93	1.0	89.0	stop_signal	89.0	True	0.637	False	stim	go	s483	False
310.889	0.85	0.4	2.522	1.0	71.0	stop_signal	71.0	True	0.924	False	stim	go	s483	False
313.414	0.85	0.4	2.522	1.0	71.0	stop_signal	71.0	True	0.863	False	stim	go	s483	False
315.938	0.85	0.4	2.25	1.0	71.0	stop_signal	71.0	True	0.557	False	stim	go	s483	False
318.192	0.85	0.4	2.522	1.0	71.0	stop_signal	-1.0	True	n/a	True	stim	stop_success	s483	False
320.716	0.85	0.45	2.25	1.0	89.0	stop_signal	89.0	True	0.606	False	stim	stop_failure	s483	False
322.969	0.85	0.4	2.386	1.0	89.0	stop_signal	89.0	True	0.59	False	stim	go	s483	False
