onset	duration	movement_onset	EV	action	block_duration	experiment_exp_id	gain_amount	gain_probability	key_press	loss_amount	loss_probability	num_cards	num_click_in_round	num_loss_cards	risk	response_time	total_cards	trial_id	trial_type	worker_id	junk	feedback
3.007	5.695	8.702	-0.6374030262666623	draw_card	5.695	columbia_card_task_fmri	12.0	0.8333333333333334	89.0	-70.0	0.1666666666666666	6.0	1.0	1.0	-2.204003785672654	5.695	n/a	stim	poldrack-single-stim	s483	False	1
8.705	1.44	10.145	-3.370736359599995	draw_card	1.44	columbia_card_task_fmri	12.0	0.8	89.0	-70.0	0.2	6.0	2.0	1.0	0.0352175250618316	1.44	n/a	stim	poldrack-single-stim	s483	False	1
10.146	2.03	12.176	-7.4707363595999965	draw_card	2.03	columbia_card_task_fmri	12.0	0.75	89.0	-70.0	0.25	6.0	3.0	1.0	2.741028717755505	2.03	n/a	stim	poldrack-single-stim	s483	False	1
12.177	2.73	14.907	-14.304069692933329	end_round	2.73	columbia_card_task_fmri	12.0	0.6666666666666667	71.0	-70.0	0.3333333333333333	6.0	4.0	1.0	5.887943635102005	2.73	3.0	stim	poldrack-single-stim	s483	False	1
15.66	1.5	14.909	n/a	-1.0	2.454	columbia_card_task_fmri	n/a	n/a	-1.0	n/a	n/a	n/a	n/a	n/a	n/a	n/a	n/a	ITI	poldrack-single-stim	s483	False	0
17.365	4.841	22.206	0.1959303070666715	draw_card	4.841	columbia_card_task_fmri	14.0	0.8333333333333334	89.0	-75.0	0.1666666666666666	6.0	1.0	1.0	0.4033799824538704	4.841	1.0	stim	poldrack-single-stim	s483	False	0
22.96	1.5	22.209	n/a	-1.0	2.454	columbia_card_task_fmri	n/a	n/a	-1.0	n/a	n/a	n/a	n/a	n/a	n/a	n/a	n/a	ITI	poldrack-single-stim	s483	False	0
24.665	4.552	29.217	1.8625969737333377	draw_card	4.552	columbia_card_task_fmri	15.0	0.8333333333333334	89.0	-70.0	0.1666666666666666	6.0	1.0	1.0	-1.0865810507159883	4.552	n/a	stim	poldrack-single-stim	s483	False	1
29.22	1.045	30.265	-0.9707363595999964	draw_card	1.045	columbia_card_task_fmri	15.0	0.8	89.0	-70.0	0.2	6.0	2.0	1.0	1.2346479613188208	1.045	n/a	stim	poldrack-single-stim	s483	False	1
30.266	0.653	30.919	-5.2207363595999965	draw_card	0.653	columbia_card_task_fmri	15.0	0.75	89.0	-70.0	0.25	6.0	3.0	1.0	4.039540628022728	0.653	n/a	stim	poldrack-single-stim	s483	False	1
30.92	0.725	31.645	-12.304069692933329	draw_card	0.725	columbia_card_task_fmri	15.0	0.6666666666666667	89.0	-70.0	0.3333333333333333	6.0	4.0	1.0	7.301673810222852	0.725	4.0	stim	poldrack-single-stim	s483	False	0
32.398	1.5	31.647	n/a	-1.0	2.522	columbia_card_task_fmri	n/a	n/a	-1.0	n/a	n/a	n/a	n/a	n/a	n/a	n/a	n/a	ITI	poldrack-single-stim	s483	False	0
34.171	6.57	40.741	2.695930307066672	draw_card	6.57	columbia_card_task_fmri	17.0	0.8333333333333334	89.0	-75.0	0.1666666666666666	6.0	1.0	1.0	1.5208935805024095	6.57	n/a	stim	poldrack-single-stim	s483	False	1
40.743	0.629	41.372	-0.3707363595999948	draw_card	0.629	columbia_card_task_fmri	17.0	0.8	89.0	-75.0	0.2	6.0	2.0	1.0	4.03346334337084	0.629	n/a	stim	poldrack-single-stim	s483	False	1
41.374	1.026	42.4	-4.9707363595999965	draw_card	1.026	columbia_card_task_fmri	17.0	0.75	89.0	-75.0	0.25	6.0	3.0	1.0	7.069535136019205	1.026	n/a	stim	poldrack-single-stim	s483	False	1
42.401	2.277	44.678	-12.637403026266664	draw_card	2.277	columbia_card_task_fmri	17.0	0.6666666666666667	89.0	-75.0	0.3333333333333333	6.0	4.0	1.0	10.600500095102952	2.277	4.0	stim	poldrack-single-stim	s483	False	0
45.431	1.5	44.68	n/a	-1.0	2.454	columbia_card_task_fmri	n/a	n/a	-1.0	n/a	n/a	n/a	n/a	n/a	n/a	n/a	n/a	ITI	poldrack-single-stim	s483	False	0
47.137	2.566	49.703	4.029263640400004	draw_card	2.566	columbia_card_task_fmri	24.0	0.75	89.0	-60.0	0.25	8.0	1.0	2.0	3.606699150962996	2.566	n/a	stim	poldrack-single-stim	s483	False	1
49.705	0.493	50.198	1.0292636404000035	draw_card	0.493	columbia_card_task_fmri	24.0	0.7142857142857143	89.0	-60.0	0.2857142857142857	8.0	2.0	2.0	5.180360318542142	0.493	2.0	stim	poldrack-single-stim	s483	False	0
50.951	1.5	50.2	n/a	-1.0	2.658	columbia_card_task_fmri	n/a	n/a	-1.0	n/a	n/a	n/a	n/a	n/a	n/a	n/a	n/a	ITI	poldrack-single-stim	s483	False	0
52.861	2.309	55.17	4.029263640400004	draw_card	2.309	columbia_card_task_fmri	29.0	0.75	89.0	-75.0	0.25	8.0	1.0	2.0	12.264154038687366	2.309	n/a	stim	poldrack-single-stim	s483	False	1
55.172	0.493	55.665	0.314977926114292	draw_card	0.493	columbia_card_task_fmri	29.0	0.7142857142857143	89.0	-75.0	0.2857142857142857	8.0	2.0	2.0	14.212756214390424	0.493	2.0	stim	poldrack-single-stim	s483	False	0
56.418	1.5	55.667	n/a	-1.0	2.386	columbia_card_task_fmri	n/a	n/a	-1.0	n/a	n/a	n/a	n/a	n/a	n/a	n/a	n/a	ITI	poldrack-single-stim	s483	False	0
58.055	0.564	58.619	-0.1929585818222159	draw_card	0.564	columbia_card_task_fmri	17.0	0.7777777777777778	89.0	-65.0	0.2222222222222222	9.0	1.0	2.0	1.3252627511123336	0.564	n/a	stim	poldrack-single-stim	s483	False	1
58.62	0.547	59.167	-2.4707363595999965	draw_card	0.547	columbia_card_task_fmri	17.0	0.75	89.0	-65.0	0.25	9.0	2.0	2.0	2.741028717755505	0.547	2.0	stim	poldrack-single-stim	s483	False	0
59.92	1.5	59.169	n/a	-1.0	2.522	columbia_card_task_fmri	n/a	n/a	-1.0	n/a	n/a	n/a	n/a	n/a	n/a	n/a	n/a	ITI	poldrack-single-stim	s483	False	0
61.693	1.482	63.175	4.129263640400003	draw_card	1.482	columbia_card_task_fmri	14.0	0.9	89.0	-95.0	0.1	10.0	1.0	1.0	-0.0647331257405738	1.482	n/a	stim	poldrack-single-stim	s483	False	1
63.177	1.152	64.329	2.918152529288891	draw_card	1.152	columbia_card_task_fmri	14.0	0.8888888888888888	89.0	-95.0	0.1111111111111111	10.0	2.0	1.0	1.4899270656142818	1.152	n/a	stim	poldrack-single-stim	s483	False	1
64.33	1.167	65.497	1.4042636404000035	draw_card	1.167	columbia_card_task_fmri	14.0	0.875	89.0	-95.0	0.125	10.0	3.0	1.0	3.282124899681968	1.167	n/a	stim	poldrack-single-stim	s483	False	1
65.499	0.808	66.307	-0.5421649310285674	draw_card	0.808	columbia_card_task_fmri	14.0	0.8571428571428572	89.0	-95.0	0.1428571428571428	10.0	4.0	1.0	5.3750117404044175	0.808	n/a	stim	poldrack-single-stim	s483	False	1
66.308	0.927	67.235	-3.137403026266661	end_round	0.927	columbia_card_task_fmri	14.0	0.8333333333333334	71.0	-95.0	0.1666666666666666	10.0	5.0	1.0	7.854011419241438	0.927	4.0	stim	poldrack-single-stim	s483	False	1
67.988	1.5	67.237	n/a	-1.0	2.59	columbia_card_task_fmri	n/a	n/a	-1.0	n/a	n/a	n/a	n/a	n/a	n/a	n/a	n/a	ITI	poldrack-single-stim	s483	False	0
69.831	2.446	72.277	0.0292636404000037	draw_card	2.446	columbia_card_task_fmri	15.0	0.8	89.0	-65.0	0.2	10.0	1.0	2.0	-0.7643790518402653	2.446	n/a	stim	poldrack-single-stim	s483	False	1
72.279	1.169	73.448	-1.748514137377773	draw_card	1.169	columbia_card_task_fmri	15.0	0.7777777777777778	89.0	-65.0	0.2222222222222222	10.0	2.0	2.0	0.4941715033312945	1.169	n/a	stim	poldrack-single-stim	s483	False	1
73.45	0.763	74.213	-3.970736359599997	draw_card	0.763	columbia_card_task_fmri	15.0	0.75	89.0	-65.0	0.25	10.0	3.0	2.0	1.8753760216163895	0.763	n/a	stim	poldrack-single-stim	s483	False	1
74.214	0.731	74.945	-6.827879216742851	draw_card	0.731	columbia_card_task_fmri	15.0	0.7142857142857143	89.0	-65.0	0.2857142857142857	10.0	4.0	2.0	3.374042038580044	0.731	n/a	stim	poldrack-single-stim	s483	False	1
74.947	2.044	76.991	-10.63740302626666	draw_card	2.044	columbia_card_task_fmri	15.0	0.6666666666666667	89.0	-65.0	0.3333333333333333	10.0	5.0	2.0	4.945476981890906	2.044	n/a	stim	poldrack-single-stim	s483	False	1
76.992	0.711	77.703	-15.970736359599996	end_round	0.711	columbia_card_task_fmri	15.0	0.6	71.0	-65.0	0.4	10.0	6.0	2.0	6.424421273965585	0.711	5.0	stim	poldrack-single-stim	s483	False	1
78.456	1.5	77.705	n/a	-1.0	2.386	columbia_card_task_fmri	n/a	n/a	-1.0	n/a	n/a	n/a	n/a	n/a	n/a	n/a	n/a	ITI	poldrack-single-stim	s483	False	0
80.093	1.862	81.955	1.6292636404000052	draw_card	1.862	columbia_card_task_fmri	17.0	0.8	89.0	-65.0	0.2	10.0	1.0	2.0	0.0352175250618316	1.862	n/a	stim	poldrack-single-stim	s483	False	1
81.958	3.245	85.203	-0.1929585818222159	draw_card	3.245	columbia_card_task_fmri	17.0	0.7777777777777778	89.0	-65.0	0.2222222222222222	10.0	2.0	2.0	1.3252627511123336	3.245	2.0	stim	poldrack-single-stim	s483	False	0
85.955	1.5	85.204	n/a	-1.0	2.59	columbia_card_task_fmri	n/a	n/a	-1.0	n/a	n/a	n/a	n/a	n/a	n/a	n/a	n/a	ITI	poldrack-single-stim	s483	False	0
87.796	0.492	88.288	0.1959303070666715	draw_card	0.492	columbia_card_task_fmri	13.0	0.8333333333333334	89.0	-70.0	0.1666666666666666	12.0	1.0	2.0	-1.8315344462985976	0.492	n/a	stim	poldrack-single-stim	s483	False	1
88.289	3.658	91.947	-1.0616454505090898	draw_card	3.658	columbia_card_task_fmri	13.0	0.8181818181818181	89.0	-70.0	0.1818181818181818	12.0	2.0	2.0	-0.7517331316563869	3.658	n/a	stim	poldrack-single-stim	s483	False	1
91.949	0.685	92.634	-2.570736359599996	draw_card	0.685	columbia_card_task_fmri	13.0	0.8	89.0	-70.0	0.2	12.0	3.0	2.0	0.4350230989540122	0.685	n/a	stim	poldrack-single-stim	s483	False	1
92.637	0.632	93.269	-4.415180804044441	draw_card	0.632	columbia_card_task_fmri	13.0	0.7777777777777778	89.0	-70.0	0.2222222222222222	12.0	4.0	2.0	1.7408153853957415	0.632	n/a	stim	poldrack-single-stim	s483	False	1
93.272	0.955	94.227	-6.7207363595999965	end_round	0.955	columbia_card_task_fmri	13.0	0.75	71.0	-70.0	0.25	12.0	5.0	2.0	3.173861797296773	0.955	4.0	stim	poldrack-single-stim	s483	False	1
94.979	1.5	94.228	n/a	-1.0	2.318	columbia_card_task_fmri	n/a	n/a	-1.0	n/a	n/a	n/a	n/a	n/a	n/a	n/a	n/a	ITI	poldrack-single-stim	s483	False	0
96.549	0.553	97.102	0.1959303070666715	draw_card	0.553	columbia_card_task_fmri	15.0	0.8333333333333334	89.0	-80.0	0.1666666666666666	12.0	1.0	2.0	2.638440023821566	0.553	1.0	stim	poldrack-single-stim	s483	False	0
97.856	1.5	97.105	n/a	-1.0	2.25	columbia_card_task_fmri	n/a	n/a	-1.0	n/a	n/a	n/a	n/a	n/a	n/a	n/a	n/a	ITI	poldrack-single-stim	s483	False	0
99.359	0.561	99.92	-0.7707363595999952	draw_card	0.561	columbia_card_task_fmri	14.0	0.8	89.0	-65.0	0.2	15.0	1.0	3.0	-1.164169686348508	0.561	n/a	stim	poldrack-single-stim	s483	False	1
99.922	1.066	100.988	-1.8993077881714235	draw_card	1.066	columbia_card_task_fmri	14.0	0.7857142857142857	89.0	-65.0	0.2142857142857142	15.0	2.0	3.0	-0.3488448246606594	1.066	2.0	stim	poldrack-single-stim	s483	False	0
101.741	1.5	100.99	n/a	-1.0	2.454	columbia_card_task_fmri	n/a	n/a	-1.0	n/a	n/a	n/a	n/a	n/a	n/a	n/a	n/a	ITI	poldrack-single-stim	s483	False	0
103.446	4.17	107.616	-0.8457363595999963	end_round	4.17	columbia_card_task_fmri	1.0	0.9375	71.0	-45.0	0.0625	16.0	1.0	1.0	-21.598630980040333	4.17	0.0	stim	poldrack-single-stim	s483	False	1
108.369	1.5	107.618	n/a	-1.0	3.27	columbia_card_task_fmri	n/a	n/a	-1.0	n/a	n/a	n/a	n/a	n/a	n/a	n/a	n/a	ITI	poldrack-single-stim	s483	False	0
110.89	3.817	114.707	0.0917636404000037	draw_card	3.817	columbia_card_task_fmri	15.0	0.8125	89.0	-70.0	0.1875	16.0	1.0	3.0	0.4115862335035274	3.817	n/a	stim	poldrack-single-stim	s483	False	1
114.709	3.491	118.2	-0.9707363595999964	draw_card	3.491	columbia_card_task_fmri	15.0	0.8	89.0	-70.0	0.2	16.0	2.0	3.0	1.2346479613188208	3.491	n/a	stim	poldrack-single-stim	s483	False	1
118.203	1.227	119.43	-2.185022073885712	draw_card	1.227	columbia_card_task_fmri	15.0	0.7857142857142857	89.0	-70.0	0.2142857142857142	16.0	3.0	3.0	2.111957954598779	1.227	n/a	stim	poldrack-single-stim	s483	False	1
119.432	0.693	120.125	-3.586120974984613	draw_card	0.693	columbia_card_task_fmri	15.0	0.7692307692307692	89.0	-70.0	0.2307692307692307	16.0	4.0	3.0	3.0464887080866063	0.693	4.0	stim	poldrack-single-stim	s483	False	0
120.878	1.5	120.127	n/a	-1.0	2.25	columbia_card_task_fmri	n/a	n/a	-1.0	n/a	n/a	n/a	n/a	n/a	n/a	n/a	n/a	ITI	poldrack-single-stim	s483	False	0
122.38	1.367	123.747	7.029263640400004	draw_card	1.367	columbia_card_task_fmri	30.0	0.7	89.0	-50.0	0.3	10.0	1.0	3.0	3.894123600279407	1.367	n/a	stim	poldrack-single-stim	s483	False	1
123.749	2.578	126.327	4.362596973733343	draw_card	2.578	columbia_card_task_fmri	30.0	0.6666666666666667	89.0	-50.0	0.3333333333333333	10.0	2.0	3.0	4.945476981890906	2.578	2.0	stim	poldrack-single-stim	s483	False	0
127.08	1.5	126.329	n/a	-1.0	2.25	columbia_card_task_fmri	n/a	n/a	-1.0	n/a	n/a	n/a	n/a	n/a	n/a	n/a	n/a	ITI	poldrack-single-stim	s483	False	0
128.583	0.531	129.114	6.429263640400004	draw_card	0.531	columbia_card_task_fmri	17.0	0.8666666666666667	89.0	-70.0	0.1333333333333333	15.0	1.0	2.0	-3.1887093468598917	0.531	n/a	stim	poldrack-single-stim	s483	False	1
129.116	1.853	130.969	5.6006922118285765	draw_card	1.853	columbia_card_task_fmri	17.0	0.8571428571428572	89.0	-70.0	0.1428571428571428	15.0	2.0	2.0	-2.3198752938387592	1.853	n/a	stim	poldrack-single-stim	s483	False	1
130.971	3.045	134.016	4.6446482557846185	draw_card	3.045	columbia_card_task_fmri	17.0	0.8461538461538461	89.0	-70.0	0.1538461538461538	15.0	3.0	2.0	-1.3743520073688271	3.045	n/a	stim	poldrack-single-stim	s483	False	1
134.018	0.675	134.693	3.5292636404000053	draw_card	0.675	columbia_card_task_fmri	17.0	0.8333333333333334	89.0	-70.0	0.1666666666666666	15.0	4.0	2.0	-0.3416091592412087	0.675	n/a	stim	poldrack-single-stim	s483	False	1
134.695	0.775	135.47	2.2110818222181834	draw_card	0.775	columbia_card_task_fmri	17.0	0.8181818181818181	89.0	-70.0	0.1818181818181818	15.0	5.0	2.0	0.7902851119961269	0.775	5.0	stim	poldrack-single-stim	s483	False	0
136.223	1.5	135.472	n/a	-1.0	2.318	columbia_card_task_fmri	n/a	n/a	-1.0	n/a	n/a	n/a	n/a	n/a	n/a	n/a	n/a	ITI	poldrack-single-stim	s483	False	0
137.794	2.611	140.405	1.6542636404000035	draw_card	2.611	columbia_card_task_fmri	7.0	0.9375	89.0	-95.0	0.0625	16.0	1.0	1.0	-8.069214657474404	2.611	n/a	stim	poldrack-single-stim	s483	False	1
140.406	1.605	142.011	1.229263640400004	draw_card	1.605	columbia_card_task_fmri	7.0	0.9333333333333332	89.0	-95.0	0.0666666666666666	16.0	2.0	1.0	-7.316847379221819	1.605	n/a	stim	poldrack-single-stim	s483	False	1
142.013	0.8	142.813	0.7435493546857181	draw_card	0.8	columbia_card_task_fmri	7.0	0.9285714285714286	89.0	-95.0	0.0714285714285714	16.0	3.0	1.0	-6.491754811372399	0.8	n/a	stim	poldrack-single-stim	s483	False	1
142.814	1.586	144.4	0.183109794246157	draw_card	1.586	columbia_card_task_fmri	7.0	0.9230769230769232	89.0	-95.0	0.0769230769230769	16.0	4.0	1.0	-5.58157202907136	1.586	4.0	stim	poldrack-single-stim	s483	False	0
145.154	1.5	144.403	n/a	-1.0	2.726	columbia_card_task_fmri	n/a	n/a	-1.0	n/a	n/a	n/a	n/a	n/a	n/a	n/a	n/a	ITI	poldrack-single-stim	s483	False	0
147.133	0.458	147.591	3.2167636404000035	draw_card	0.458	columbia_card_task_fmri	9.0	0.9375	89.0	-100.0	0.0625	16.0	1.0	1.0	-6.3761605084167705	0.458	n/a	stim	poldrack-single-stim	s483	False	1
147.593	1.956	149.549	2.762596973733337	draw_card	1.956	columbia_card_task_fmri	9.0	0.9333333333333332	89.0	-100.0	0.0666666666666666	16.0	2.0	1.0	-5.572076033551092	1.956	n/a	stim	poldrack-single-stim	s483	False	1
149.55	1.229	150.779	2.243549354685719	end_round	1.229	columbia_card_task_fmri	9.0	0.9285714285714286	71.0	-100.0	0.0714285714285714	16.0	3.0	1.0	-4.690272722044359	1.229	2.0	stim	poldrack-single-stim	s483	False	1
151.532	1.5	150.781	n/a	-1.0	2.386	columbia_card_task_fmri	n/a	n/a	-1.0	n/a	n/a	n/a	n/a	n/a	n/a	n/a	n/a	ITI	poldrack-single-stim	s483	False	0
153.17	0.517	153.687	4.154263640400004	draw_card	0.517	columbia_card_task_fmri	15.0	0.875	89.0	-80.0	0.125	16.0	1.0	2.0	-1.345776002054965	0.517	1.0	stim	poldrack-single-stim	s483	False	0
154.441	1.5	153.69	n/a	-1.0	2.318	columbia_card_task_fmri	n/a	n/a	-1.0	n/a	n/a	n/a	n/a	n/a	n/a	n/a	n/a	ITI	poldrack-single-stim	s483	False	0
156.012	3.413	159.425	6.279263640400004	draw_card	3.413	columbia_card_task_fmri	16.0	0.875	89.0	-70.0	0.125	16.0	1.0	2.0	-4.320483449616617	3.413	n/a	stim	poldrack-single-stim	s483	False	1
159.427	0.847	160.274	5.562596973733337	draw_card	0.847	columbia_card_task_fmri	16.0	0.8666666666666667	89.0	-70.0	0.1333333333333333	16.0	2.0	2.0	-3.5284359102470084	0.847	n/a	stim	poldrack-single-stim	s483	False	1
160.275	1.555	161.83	4.743549354685719	draw_card	1.555	columbia_card_task_fmri	16.0	0.8571428571428572	89.0	-70.0	0.1428571428571428	16.0	3.0	2.0	-2.66960026029529	1.555	n/a	stim	poldrack-single-stim	s483	False	1
161.833	0.539	162.372	3.798494409630772	draw_card	0.539	columbia_card_task_fmri	16.0	0.8461538461538461	89.0	-70.0	0.1538461538461538	16.0	4.0	2.0	-1.734957162164612	0.539	n/a	stim	poldrack-single-stim	s483	False	1
162.375	0.596	162.971	2.695930307066672	draw_card	0.596	columbia_card_task_fmri	16.0	0.8333333333333334	89.0	-70.0	0.1666666666666666	16.0	5.0	2.0	-0.7140973363982681	0.596	n/a	stim	poldrack-single-stim	s483	False	1
162.973	1.012	163.985	1.3929000040363653	end_round	1.012	columbia_card_task_fmri	16.0	0.8181818181818181	71.0	-70.0	0.1818181818181818	16.0	6.0	2.0	0.4047739263588568	1.012	5.0	stim	poldrack-single-stim	s483	False	1
164.738	1.5	163.987	n/a	-1.0	2.25	columbia_card_task_fmri	n/a	n/a	-1.0	n/a	n/a	n/a	n/a	n/a	n/a	n/a	n/a	ITI	poldrack-single-stim	s483	False	0
166.241	0.61	166.851	7.5917636404000035	draw_card	0.61	columbia_card_task_fmri	30.0	0.6875	89.0	-45.0	0.3125	16.0	1.0	5.0	1.9977364694165232	0.61	n/a	stim	poldrack-single-stim	s483	False	1
166.853	0.425	167.278	6.029263640400007	draw_card	0.425	columbia_card_task_fmri	30.0	0.6666666666666667	89.0	-45.0	0.3333333333333333	16.0	2.0	5.0	2.5893901912404544	0.425	n/a	stim	poldrack-single-stim	s483	False	1
167.28	3.707	170.987	4.243549354685715	draw_card	3.707	columbia_card_task_fmri	30.0	0.6428571428571428	89.0	-45.0	0.3571428571428571	16.0	3.0	5.0	3.170615652507138	3.707	n/a	stim	poldrack-single-stim	s483	False	1
170.99	1.222	172.212	2.183109794246157	end_round	1.222	columbia_card_task_fmri	30.0	0.6153846153846154	71.0	-45.0	0.3846153846153846	16.0	4.0	5.0	3.721405576158333	1.222	3.0	stim	poldrack-single-stim	s483	False	1
172.965	1.5	172.214	n/a	-1.0	2.25	columbia_card_task_fmri	n/a	n/a	-1.0	n/a	n/a	n/a	n/a	n/a	n/a	n/a	n/a	ITI	poldrack-single-stim	s483	False	0
174.466	0.861	175.327	-0.6374030262666623	draw_card	0.861	columbia_card_task_fmri	13.0	0.8333333333333334	89.0	-75.0	0.1666666666666666	6.0	1.0	1.0	0.0308833287652774	0.861	n/a	stim	poldrack-single-stim	s483	False	1
175.33	3.51	178.84	-3.570736359599996	draw_card	3.51	columbia_card_task_fmri	13.0	0.8	89.0	-75.0	0.2	6.0	2.0	1.0	2.4341172056858014	3.51	n/a	stim	poldrack-single-stim	s483	False	1
178.841	0.585	179.426	-7.9707363595999965	end_round	0.585	columbia_card_task_fmri	13.0	0.75	71.0	-75.0	0.25	6.0	3.0	1.0	5.338088394922124	0.585	2.0	stim	poldrack-single-stim	s483	False	1
180.18	1.5	179.429	n/a	-1.0	2.454	columbia_card_task_fmri	n/a	n/a	-1.0	n/a	n/a	n/a	n/a	n/a	n/a	n/a	n/a	ITI	poldrack-single-stim	s483	False	0
181.887	0.514	182.401	1.0292636404000055	draw_card	0.514	columbia_card_task_fmri	14.0	0.8333333333333334	89.0	-70.0	0.1666666666666666	6.0	1.0	1.0	-1.4590601429763588	0.514	1.0	stim	poldrack-single-stim	s483	False	0
183.154	1.5	182.403	n/a	-1.0	2.454	columbia_card_task_fmri	n/a	n/a	-1.0	n/a	n/a	n/a	n/a	n/a	n/a	n/a	n/a	ITI	poldrack-single-stim	s483	False	0
184.86	2.209	187.069	1.0292636404000055	draw_card	2.209	columbia_card_task_fmri	16.0	0.8333333333333334	89.0	-80.0	0.1666666666666666	6.0	1.0	1.0	3.010962272116643	2.209	n/a	stim	poldrack-single-stim	s483	False	1
187.072	1.278	188.35	-2.170736359599996	end_round	1.278	columbia_card_task_fmri	16.0	0.8	71.0	-80.0	0.2	6.0	2.0	1.0	5.632863938928125	1.278	1.0	stim	poldrack-single-stim	s483	False	1
189.103	1.5	188.352	n/a	-1.0	2.522	columbia_card_task_fmri	n/a	n/a	-1.0	n/a	n/a	n/a	n/a	n/a	n/a	n/a	n/a	ITI	poldrack-single-stim	s483	False	0
190.877	3.304	194.181	3.5292636404000053	draw_card	3.304	columbia_card_task_fmri	17.0	0.8333333333333334	89.0	-70.0	0.1666666666666666	6.0	1.0	1.0	-0.3416091592412087	3.304	n/a	stim	poldrack-single-stim	s483	False	1
194.183	1.052	195.235	0.6292636404000052	draw_card	1.052	columbia_card_task_fmri	17.0	0.8	89.0	-70.0	0.2	6.0	2.0	1.0	2.034290059814168	1.052	n/a	stim	poldrack-single-stim	s483	False	1
195.238	0.694	195.932	-3.720736359599997	end_round	0.694	columbia_card_task_fmri	17.0	0.75	71.0	-70.0	0.25	6.0	3.0	1.0	4.9052353840143965	0.694	2.0	stim	poldrack-single-stim	s483	False	1
196.686	1.5	195.935	n/a	-1.0	2.386	columbia_card_task_fmri	n/a	n/a	-1.0	n/a	n/a	n/a	n/a	n/a	n/a	n/a	n/a	ITI	poldrack-single-stim	s483	False	0
198.324	0.529	198.853	3.5292636404000035	draw_card	0.529	columbia_card_task_fmri	25.0	0.75	89.0	-65.0	0.25	8.0	1.0	2.0	6.203805057131206	0.529	n/a	stim	poldrack-single-stim	s483	False	1
198.855	2.263	201.118	0.314977926114292	draw_card	2.263	columbia_card_task_fmri	25.0	0.7142857142857143	89.0	-65.0	0.2857142857142857	8.0	2.0	2.0	7.88995393329531	2.263	2.0	stim	poldrack-single-stim	s483	False	0
201.871	1.5	201.12	n/a	-1.0	2.454	columbia_card_task_fmri	n/a	n/a	-1.0	n/a	n/a	n/a	n/a	n/a	n/a	n/a	n/a	ITI	poldrack-single-stim	s483	False	0
203.579	0.875	204.454	3.5292636404000035	draw_card	0.875	columbia_card_task_fmri	30.0	0.75	89.0	-80.0	0.25	8.0	1.0	2.0	14.861588912213932	0.875	1.0	stim	poldrack-single-stim	s483	False	0
205.209	1.5	204.458	n/a	-1.0	2.522	columbia_card_task_fmri	n/a	n/a	-1.0	n/a	n/a	n/a	n/a	n/a	n/a	n/a	n/a	ITI	poldrack-single-stim	s483	False	0
206.985	1.707	208.692	3.229263640400005	draw_card	1.707	columbia_card_task_fmri	13.0	0.9	89.0	-95.0	0.1	10.0	1.0	1.0	-0.3645832517719825	1.707	n/a	stim	poldrack-single-stim	s483	False	1
208.695	0.408	209.103	2.0292636404000035	draw_card	0.408	columbia_card_task_fmri	13.0	0.8888888888888888	89.0	-95.0	0.1111111111111111	10.0	2.0	1.0	1.1758004634156762	0.408	n/a	stim	poldrack-single-stim	s483	False	1
209.105	0.857	209.962	0.5292636404000037	end_round	0.857	columbia_card_task_fmri	13.0	0.875	71.0	-95.0	0.125	10.0	3.0	1.0	2.951541956731539	0.857	2.0	stim	poldrack-single-stim	s483	False	1
210.716	1.5	209.965	n/a	-1.0	2.522	columbia_card_task_fmri	n/a	n/a	-1.0	n/a	n/a	n/a	n/a	n/a	n/a	n/a	n/a	ITI	poldrack-single-stim	s483	False	0
212.491	2.231	214.722	4.629263640400003	draw_card	2.231	columbia_card_task_fmri	14.0	0.9	89.0	-90.0	0.1	10.0	1.0	1.0	-1.5639549568332995	2.231	n/a	stim	poldrack-single-stim	s483	False	1
214.725	0.504	215.229	3.4737080848444464	draw_card	0.504	columbia_card_task_fmri	14.0	0.8888888888888888	89.0	-90.0	0.1111111111111111	10.0	2.0	1.0	-0.0806784501975386	0.504	n/a	stim	poldrack-single-stim	s483	False	1
215.232	0.503	215.735	2.0292636404000035	draw_card	0.503	columbia_card_task_fmri	14.0	0.875	89.0	-90.0	0.125	10.0	3.0	1.0	1.629236316123027	0.503	3.0	stim	poldrack-single-stim	s483	False	0
216.488	1.5	215.737	n/a	-1.0	2.59	columbia_card_task_fmri	n/a	n/a	-1.0	n/a	n/a	n/a	n/a	n/a	n/a	n/a	n/a	ITI	poldrack-single-stim	s483	False	0
218.33	0.785	219.115	-0.1707363595999955	draw_card	0.785	columbia_card_task_fmri	16.0	0.8	89.0	-70.0	0.2	10.0	1.0	2.0	1.6344669311398832	0.785	n/a	stim	poldrack-single-stim	s483	False	1
219.118	1.481	220.599	-2.081847470711107	draw_card	1.481	columbia_card_task_fmri	16.0	0.7777777777777778	89.0	-70.0	0.2222222222222222	10.0	2.0	2.0	2.987499375113522	1.481	2.0	stim	poldrack-single-stim	s483	False	0
221.353	1.5	220.602	n/a	-1.0	2.454	columbia_card_task_fmri	n/a	n/a	-1.0	n/a	n/a	n/a	n/a	n/a	n/a	n/a	n/a	ITI	poldrack-single-stim	s483	False	0
223.059	2.508	225.567	-0.8874030262666623	draw_card	2.508	columbia_card_task_fmri	7.0	0.9166666666666666	89.0	-100.0	0.0833333333333333	12.0	1.0	1.0	-3.1897841609495536	2.508	n/a	stim	poldrack-single-stim	s483	False	1
225.57	0.595	226.165	-1.698009086872725	end_round	0.595	columbia_card_task_fmri	7.0	0.9090909090909092	71.0	-100.0	0.0909090909090909	12.0	2.0	1.0	-2.003375258256206	0.595	1.0	stim	poldrack-single-stim	s483	False	1
226.92	1.5	226.169	n/a	-1.0	2.318	columbia_card_task_fmri	n/a	n/a	-1.0	n/a	n/a	n/a	n/a	n/a	n/a	n/a	n/a	ITI	poldrack-single-stim	s483	False	0
228.492	1.949	230.441	-0.6374030262666606	draw_card	1.949	columbia_card_task_fmri	14.0	0.8333333333333334	89.0	-80.0	0.1666666666666666	12.0	1.0	2.0	2.2659210871914084	1.949	n/a	stim	poldrack-single-stim	s483	False	1
230.444	0.52	230.964	-2.06164545050909	draw_card	0.52	columbia_card_task_fmri	14.0	0.8181818181818181	89.0	-80.0	0.1818181818181818	12.0	2.0	2.0	3.488972614490237	0.52	n/a	stim	poldrack-single-stim	s483	False	1
230.967	1.457	232.424	-3.770736359599995	draw_card	1.457	columbia_card_task_fmri	14.0	0.8	89.0	-80.0	0.2	12.0	3.0	2.0	4.83315726808879	1.457	3.0	stim	poldrack-single-stim	s483	False	0
233.178	1.5	232.427	n/a	-1.0	2.25	columbia_card_task_fmri	n/a	n/a	-1.0	n/a	n/a	n/a	n/a	n/a	n/a	n/a	n/a	ITI	poldrack-single-stim	s483	False	0
234.682	2.05	236.732	1.0292636404000035	draw_card	2.05	columbia_card_task_fmri	15.0	0.8333333333333334	89.0	-75.0	0.1666666666666666	12.0	1.0	2.0	0.7758806631013542	2.05	n/a	stim	poldrack-single-stim	s483	False	1
236.735	0.456	237.191	-0.3343727232363613	draw_card	0.456	columbia_card_task_fmri	15.0	0.8181818181818181	89.0	-75.0	0.1818181818181818	12.0	2.0	2.0	1.9468431086644744	0.456	2.0	stim	poldrack-single-stim	s483	False	0
237.945	1.5	237.194	n/a	-1.0	2.658	columbia_card_task_fmri	n/a	n/a	-1.0	n/a	n/a	n/a	n/a	n/a	n/a	n/a	n/a	ITI	poldrack-single-stim	s483	False	0
239.857	2.1	241.957	0.0292636404000037	draw_card	2.1	columbia_card_task_fmri	15.0	0.8	89.0	-65.0	0.2	15.0	1.0	3.0	-0.7643790518402653	2.1	n/a	stim	poldrack-single-stim	s483	False	1
241.959	0.398	242.357	-1.1135935024571386	draw_card	0.398	columbia_card_task_fmri	15.0	0.7857142857142857	89.0	-65.0	0.2142857142857142	15.0	2.0	3.0	0.0612769739180052	0.398	n/a	stim	poldrack-single-stim	s483	False	1
242.359	0.718	243.077	-2.43227482113846	draw_card	0.718	columbia_card_task_fmri	15.0	0.7692307692307692	89.0	-65.0	0.2307692307692307	15.0	3.0	3.0	0.9407872933566068	0.718	n/a	stim	poldrack-single-stim	s483	False	1
243.08	0.941	244.021	-3.970736359599997	end_round	0.941	columbia_card_task_fmri	15.0	0.75	71.0	-65.0	0.25	15.0	4.0	3.0	1.8753760216163895	0.941	3.0	stim	poldrack-single-stim	s483	False	1
244.774	1.5	244.023	n/a	-1.0	2.454	columbia_card_task_fmri	n/a	n/a	-1.0	n/a	n/a	n/a	n/a	n/a	n/a	n/a	n/a	ITI	poldrack-single-stim	s483	False	0
246.481	2.522	249.003	-0.7207363595999963	draw_card	2.522	columbia_card_task_fmri	14.0	0.8125	89.0	-70.0	0.1875	16.0	1.0	3.0	0.021463789505141	2.522	n/a	stim	poldrack-single-stim	s483	False	1
249.005	0.538	249.543	-1.7707363595999952	draw_card	0.538	columbia_card_task_fmri	14.0	0.8	89.0	-70.0	0.2	16.0	2.0	3.0	0.8348332987446128	0.538	2.0	stim	poldrack-single-stim	s483	False	0
250.298	1.5	249.547	n/a	-1.0	2.386	columbia_card_task_fmri	n/a	n/a	-1.0	n/a	n/a	n/a	n/a	n/a	n/a	n/a	n/a	ITI	poldrack-single-stim	s483	False	0
251.937	2.501	254.438	-0.7832363595999963	draw_card	2.501	columbia_card_task_fmri	11.0	0.6875	89.0	-30.0	0.3125	16.0	1.0	5.0	-13.74906679282655	2.501	n/a	stim	poldrack-single-stim	s483	False	1
254.441	1.365	255.806	-1.6374030262666623	end_round	1.365	columbia_card_task_fmri	11.0	0.6666666666666667	71.0	-30.0	0.3333333333333333	16.0	2.0	5.0	-13.425955691937624	1.365	1.0	stim	poldrack-single-stim	s483	False	1
256.559	1.5	255.808	n/a	-1.0	2.59	columbia_card_task_fmri	n/a	n/a	-1.0	n/a	n/a	n/a	n/a	n/a	n/a	n/a	n/a	ITI	poldrack-single-stim	s483	False	0
258.403	1.674	260.077	4.029263640400004	draw_card	1.674	columbia_card_task_fmri	15.0	0.8666666666666667	89.0	-75.0	0.1333333333333333	15.0	1.0	2.0	-2.169501938078028	1.674	n/a	stim	poldrack-single-stim	s483	False	1
260.08	0.422	260.502	3.172120783257148	draw_card	0.422	columbia_card_task_fmri	15.0	0.8571428571428572	89.0	-75.0	0.1428571428571428	15.0	2.0	2.0	-1.2706734646662312	0.422	n/a	stim	poldrack-single-stim	s483	False	1
260.504	0.445	260.949	2.183109794246157	draw_card	0.445	columbia_card_task_fmri	15.0	0.8461538461538461	89.0	-75.0	0.1538461538461538	15.0	3.0	2.0	-0.2925104221919881	0.445	n/a	stim	poldrack-single-stim	s483	False	1
260.952	0.47	261.422	1.0292636404000035	draw_card	0.47	columbia_card_task_fmri	15.0	0.8333333333333334	89.0	-75.0	0.1666666666666666	15.0	4.0	2.0	0.7758806631013542	0.47	n/a	stim	poldrack-single-stim	s483	False	1
261.426	0.56	261.986	-0.3343727232363613	draw_card	0.56	columbia_card_task_fmri	15.0	0.8181818181818181	89.0	-75.0	0.1818181818181818	15.0	5.0	2.0	1.9468431086644744	0.56	n/a	stim	poldrack-single-stim	s483	False	1
261.989	0.652	262.641	-1.9707363595999965	draw_card	0.652	columbia_card_task_fmri	15.0	0.8	89.0	-75.0	0.2	15.0	6.0	2.0	3.2337830138436487	0.652	n/a	stim	poldrack-single-stim	s483	False	1
262.644	0.594	263.238	-3.9707363595999943	end_round	0.594	columbia_card_task_fmri	15.0	0.7777777777777778	71.0	-75.0	0.2222222222222222	15.0	7.0	2.0	4.6498001578098425	0.594	6.0	stim	poldrack-single-stim	s483	False	1
263.993	1.5	263.242	n/a	-1.0	2.318	columbia_card_task_fmri	n/a	n/a	-1.0	n/a	n/a	n/a	n/a	n/a	n/a	n/a	n/a	ITI	poldrack-single-stim	s483	False	0
265.565	1.653	267.218	5.762596973733338	draw_card	1.653	columbia_card_task_fmri	17.0	0.8666666666666667	89.0	-75.0	0.1333333333333333	15.0	1.0	2.0	-1.4900087381290137	1.653	n/a	stim	poldrack-single-stim	s483	False	1
267.221	0.408	267.629	4.886406497542863	draw_card	0.408	columbia_card_task_fmri	17.0	0.8571428571428572	89.0	-75.0	0.1428571428571428	15.0	2.0	2.0	-0.5711845990747264	0.408	2.0	stim	poldrack-single-stim	s483	False	0
268.384	1.5	267.633	n/a	-1.0	2.59	columbia_card_task_fmri	n/a	n/a	-1.0	n/a	n/a	n/a	n/a	n/a	n/a	n/a	n/a	ITI	poldrack-single-stim	s483	False	0
270.227	5.039	275.266	1.3417636404000035	draw_card	5.039	columbia_card_task_fmri	2.0	0.9375	89.0	-25.0	0.0625	16.0	1.0	1.0	-26.164718199406064	5.039	n/a	stim	poldrack-single-stim	s483	False	1
275.27	1.511	276.781	1.2292636404000037	end_round	1.511	columbia_card_task_fmri	2.0	0.9333333333333332	71.0	-25.0	0.0666666666666666	16.0	2.0	1.0	-25.96775043616024	1.511	1.0	stim	poldrack-single-stim	s483	False	1
277.535	1.5	276.784	n/a	-1.0	2.386	columbia_card_task_fmri	n/a	n/a	-1.0	n/a	n/a	n/a	n/a	n/a	n/a	n/a	n/a	ITI	poldrack-single-stim	s483	False	0
279.175	1.41	280.585	3.5292636404000035	draw_card	1.41	columbia_card_task_fmri	9.0	0.9375	89.0	-95.0	0.0625	16.0	1.0	1.0	-7.585503779136761	1.41	n/a	stim	poldrack-single-stim	s483	False	1
280.588	1.1	281.688	3.095930307066671	draw_card	1.1	columbia_card_task_fmri	9.0	0.9333333333333332	89.0	-95.0	0.0666666666666666	16.0	2.0	1.0	-6.818359602907158	1.1	n/a	stim	poldrack-single-stim	s483	False	1
281.691	0.965	282.656	2.600692211828576	end_round	0.965	columbia_card_task_fmri	9.0	0.9285714285714286	71.0	-95.0	0.0714285714285714	16.0	3.0	1.0	-5.97706339203399	0.965	2.0	stim	poldrack-single-stim	s483	False	1
283.411	1.5	282.66	n/a	-1.0	2.318	columbia_card_task_fmri	n/a	n/a	-1.0	n/a	n/a	n/a	n/a	n/a	n/a	n/a	n/a	ITI	poldrack-single-stim	s483	False	0
284.983	1.935	286.918	5.091763640400004	draw_card	1.935	columbia_card_task_fmri	11.0	0.9375	89.0	-100.0	0.0625	16.0	1.0	1.0	-5.892398909871041	1.935	n/a	stim	poldrack-single-stim	s483	False	1
286.92	0.502	287.422	4.629263640400004	draw_card	0.502	columbia_card_task_fmri	11.0	0.9333333333333332	89.0	-100.0	0.0666666666666666	16.0	2.0	1.0	-5.073539031231739	0.502	n/a	stim	poldrack-single-stim	s483	False	1
287.425	0.497	287.922	4.1006922118285765	end_round	0.497	columbia_card_task_fmri	11.0	0.9285714285714286	71.0	-100.0	0.0714285714285714	16.0	3.0	1.0	-4.175533617425394	0.497	2.0	stim	poldrack-single-stim	s483	False	1
288.678	1.5	287.927	n/a	-1.0	2.318	columbia_card_task_fmri	n/a	n/a	-1.0	n/a	n/a	n/a	n/a	n/a	n/a	n/a	n/a	ITI	poldrack-single-stim	s483	False	0
290.249	1.903	292.152	5.654263640400004	draw_card	1.903	columbia_card_task_fmri	16.0	0.875	89.0	-75.0	0.125	16.0	1.0	2.0	-2.6679112101150224	1.903	n/a	stim	poldrack-single-stim	s483	False	1
292.155	1.624	293.779	4.895930307066671	draw_card	1.624	columbia_card_task_fmri	16.0	0.8666666666666667	89.0	-75.0	0.1333333333333333	16.0	2.0	2.0	-1.8297574027000465	1.624	n/a	stim	poldrack-single-stim	s483	False	1
293.783	0.703	294.486	4.029263640400005	draw_card	0.703	columbia_card_task_fmri	16.0	0.8571428571428572	89.0	-75.0	0.1428571428571428	16.0	3.0	2.0	-0.9209310376980042	0.703	n/a	stim	poldrack-single-stim	s483	False	1
294.488	0.592	295.08	3.0292636404000035	draw_card	0.592	columbia_card_task_fmri	16.0	0.8461538461538461	89.0	-75.0	0.1538461538461538	16.0	4.0	2.0	0.0681116685439136	0.592	n/a	stim	poldrack-single-stim	s483	False	1
295.083	0.556	295.639	1.8625969737333377	draw_card	0.556	columbia_card_task_fmri	16.0	0.8333333333333334	89.0	-75.0	0.1666666666666666	16.0	5.0	2.0	1.148385238075086	0.556	n/a	stim	poldrack-single-stim	s483	False	1
295.642	0.747	296.389	0.483809094945457	draw_card	0.747	columbia_card_task_fmri	16.0	0.8181818181818181	89.0	-75.0	0.1818181818181818	16.0	6.0	2.0	2.332370140253836	0.747	n/a	stim	poldrack-single-stim	s483	False	1
296.392	0.582	296.974	-1.1707363595999956	end_round	0.582	columbia_card_task_fmri	16.0	0.8	71.0	-75.0	0.2	16.0	7.0	2.0	3.6336214232286537	0.582	6.0	stim	poldrack-single-stim	s483	False	1
297.729	1.5	296.978	n/a	-1.0	2.318	columbia_card_task_fmri	n/a	n/a	-1.0	n/a	n/a	n/a	n/a	n/a	n/a	n/a	n/a	ITI	poldrack-single-stim	s483	False	0
299.307	1.742	301.049	5.904263640400004	draw_card	1.742	columbia_card_task_fmri	17.0	0.875	89.0	-80.0	0.125	16.0	1.0	2.0	-0.6846855157631424	1.742	1.0	stim	poldrack-single-stim	s483	False	0
301.805	1.5	301.054	n/a	-1.0	2.386	columbia_card_task_fmri	n/a	n/a	-1.0	n/a	n/a	n/a	n/a	n/a	n/a	n/a	n/a	ITI	poldrack-single-stim	s483	False	0
314.449	3.19	317.639	0.1959303070666715	draw_card	3.19	columbia_card_task_fmri	13.0	0.8333333333333334	89.0	-70.0	0.1666666666666666	6.0	1.0	1.0	-1.8315344462985976	3.19	n/a	stim	poldrack-single-stim	s483	False	1
317.641	2.369	320.01	-2.570736359599996	draw_card	2.369	columbia_card_task_fmri	13.0	0.8	89.0	-70.0	0.2	6.0	2.0	1.0	0.4350230989540122	2.369	n/a	stim	poldrack-single-stim	s483	False	1
320.015	1.055	321.07	-6.7207363595999965	end_round	1.055	columbia_card_task_fmri	13.0	0.75	71.0	-70.0	0.25	6.0	3.0	1.0	3.173861797296773	1.055	2.0	stim	poldrack-single-stim	s483	False	1
321.824	1.5	321.073	n/a	-1.0	2.25	columbia_card_task_fmri	n/a	n/a	-1.0	n/a	n/a	n/a	n/a	n/a	n/a	n/a	n/a	ITI	poldrack-single-stim	s483	False	0
323.329	2.667	325.996	0.1959303070666715	draw_card	2.667	columbia_card_task_fmri	15.0	0.8333333333333334	89.0	-80.0	0.1666666666666666	6.0	1.0	1.0	2.638440023821566	2.667	n/a	stim	poldrack-single-stim	s483	False	1
325.999	1.798	327.797	-2.9707363595999965	draw_card	1.798	columbia_card_task_fmri	15.0	0.8	89.0	-80.0	0.2	6.0	2.0	1.0	5.233009060519734	1.798	n/a	stim	poldrack-single-stim	s483	False	1
327.801	1.239	329.04	-7.7207363595999965	end_round	1.239	columbia_card_task_fmri	15.0	0.75	71.0	-80.0	0.25	6.0	3.0	1.0	8.368153558212356	1.239	2.0	stim	poldrack-single-stim	s483	False	1
329.794	1.5	329.043	n/a	-1.0	2.386	columbia_card_task_fmri	n/a	n/a	-1.0	n/a	n/a	n/a	n/a	n/a	n/a	n/a	n/a	ITI	poldrack-single-stim	s483	False	0
331.433	2.702	334.135	1.8625969737333377	draw_card	2.702	columbia_card_task_fmri	16.0	0.8333333333333334	89.0	-75.0	0.1666666666666666	6.0	1.0	1.0	1.148385238075086	2.702	n/a	stim	poldrack-single-stim	s483	False	1
334.139	2.438	336.577	-1.1707363595999956	draw_card	2.438	columbia_card_task_fmri	16.0	0.8	89.0	-75.0	0.2	6.0	2.0	1.0	3.6336214232286537	2.438	n/a	stim	poldrack-single-stim	s483	False	1
336.579	0.782	337.361	-5.7207363595999965	draw_card	0.782	columbia_card_task_fmri	16.0	0.75	89.0	-75.0	0.25	6.0	3.0	1.0	6.636668474740837	0.782	n/a	stim	poldrack-single-stim	s483	False	1
337.364	1.323	338.687	-13.304069692933329	end_round	1.323	columbia_card_task_fmri	16.0	0.6666666666666667	71.0	-75.0	0.3333333333333333	6.0	4.0	1.0	10.129229731785584	1.323	3.0	stim	poldrack-single-stim	s483	False	1
339.442	1.5	338.691	n/a	-1.0	2.59	columbia_card_task_fmri	n/a	n/a	-1.0	n/a	n/a	n/a	n/a	n/a	n/a	n/a	n/a	ITI	poldrack-single-stim	s483	False	0
341.286	4.198	345.484	3.0292636404000035	draw_card	4.198	columbia_card_task_fmri	21.0	0.75	89.0	-55.0	0.25	8.0	1.0	2.0	0.1441294365476864	4.198	1.0	stim	poldrack-single-stim	s483	False	0
346.239	1.5	345.488	n/a	-1.0	2.658	columbia_card_task_fmri	n/a	n/a	-1.0	n/a	n/a	n/a	n/a	n/a	n/a	n/a	n/a	ITI	poldrack-single-stim	s483	False	0
348.15	1.009	349.159	4.279263640400004	draw_card	1.009	columbia_card_task_fmri	26.0	0.75	89.0	-65.0	0.25	8.0	1.0	2.0	6.636668474740837	1.009	n/a	stim	poldrack-single-stim	s483	False	1
349.162	1.06	350.222	1.0292636404000073	draw_card	1.06	columbia_card_task_fmri	26.0	0.7142857142857143	89.0	-65.0	0.2857142857142857	8.0	2.0	2.0	8.341564787589945	1.06	n/a	stim	poldrack-single-stim	s483	False	1
350.226	0.67	350.896	-3.304069692933325	draw_card	0.67	columbia_card_task_fmri	26.0	0.6666666666666667	89.0	-65.0	0.3333333333333333	8.0	3.0	2.0	10.129229731785584	0.67	3.0	stim	poldrack-single-stim	s483	False	0
351.651	1.5	350.9	n/a	-1.0	2.386	columbia_card_task_fmri	n/a	n/a	-1.0	n/a	n/a	n/a	n/a	n/a	n/a	n/a	n/a	ITI	poldrack-single-stim	s483	False	0
353.29	2.213	355.503	-0.6374030262666623	draw_card	2.213	columbia_card_task_fmri	15.0	0.7777777777777778	89.0	-60.0	0.2222222222222222	9.0	1.0	2.0	-1.5834661130762804	2.213	1.0	stim	poldrack-single-stim	s483	False	0
356.258	1.5	355.507	n/a	-1.0	2.386	columbia_card_task_fmri	n/a	n/a	-1.0	n/a	n/a	n/a	n/a	n/a	n/a	n/a	n/a	ITI	poldrack-single-stim	s483	False	0
357.897	1.658	359.555	3.729263640400005	draw_card	1.658	columbia_card_task_fmri	13.0	0.9	89.0	-90.0	0.1	10.0	1.0	1.0	-1.86379026438064	1.658	n/a	stim	poldrack-single-stim	s483	False	1
359.558	0.426	359.984	2.584819195955559	draw_card	0.426	columbia_card_task_fmri	13.0	0.8888888888888888	89.0	-90.0	0.1111111111111111	10.0	2.0	1.0	-0.3947909047834983	0.426	n/a	stim	poldrack-single-stim	s483	False	1
359.988	0.425	360.413	1.1542636404000035	draw_card	0.425	columbia_card_task_fmri	13.0	0.875	89.0	-90.0	0.125	10.0	3.0	1.0	1.2986668189830652	0.425	3.0	stim	poldrack-single-stim	s483	False	0
361.168	1.5	360.417	n/a	-1.0	2.25	columbia_card_task_fmri	n/a	n/a	-1.0	n/a	n/a	n/a	n/a	n/a	n/a	n/a	n/a	ITI	poldrack-single-stim	s483	False	0
362.672	0.96	363.632	5.029263640400004	draw_card	0.96	columbia_card_task_fmri	15.0	0.9	89.0	-95.0	0.1	10.0	1.0	1.0	0.2351197232673811	0.96	n/a	stim	poldrack-single-stim	s483	False	1
363.635	0.474	364.109	3.80704141817778	draw_card	0.474	columbia_card_task_fmri	15.0	0.8888888888888888	89.0	-95.0	0.1111111111111111	10.0	2.0	1.0	1.8040562674929528	0.474	n/a	stim	poldrack-single-stim	s483	False	1
364.114	1.298	365.412	2.2792636404000035	draw_card	1.298	columbia_card_task_fmri	15.0	0.875	89.0	-95.0	0.125	10.0	3.0	1.0	3.612710313334389	1.298	n/a	stim	poldrack-single-stim	s483	False	1
365.416	0.652	366.068	0.3149779261142902	end_round	0.652	columbia_card_task_fmri	15.0	0.8571428571428572	71.0	-95.0	0.1428571428571428	10.0	4.0	1.0	5.724812666221126	0.652	3.0	stim	poldrack-single-stim	s483	False	1
366.822	1.5	366.071	n/a	-1.0	2.318	columbia_card_task_fmri	n/a	n/a	-1.0	n/a	n/a	n/a	n/a	n/a	n/a	n/a	n/a	ITI	poldrack-single-stim	s483	False	0
368.394	1.131	369.525	0.8292636404000044	draw_card	1.131	columbia_card_task_fmri	16.0	0.8	89.0	-65.0	0.2	10.0	1.0	2.0	-0.3645832517719825	1.131	n/a	stim	poldrack-single-stim	s483	False	1
369.529	0.889	370.418	-0.9707363595999944	draw_card	0.889	columbia_card_task_fmri	16.0	0.7777777777777778	89.0	-65.0	0.2222222222222222	10.0	2.0	2.0	0.9097147327790084	0.889	n/a	stim	poldrack-single-stim	s483	False	1
370.421	1.104	371.525	-3.2207363595999965	end_round	1.104	columbia_card_task_fmri	16.0	0.75	71.0	-65.0	0.25	10.0	3.0	2.0	2.308200070506373	1.104	2.0	stim	poldrack-single-stim	s483	False	1
372.28	1.5	371.529	n/a	-1.0	2.25	columbia_card_task_fmri	n/a	n/a	-1.0	n/a	n/a	n/a	n/a	n/a	n/a	n/a	n/a	ITI	poldrack-single-stim	s483	False	0
373.784	1.512	375.296	-0.4707363595999962	draw_card	1.512	columbia_card_task_fmri	7.0	0.9166666666666666	89.0	-95.0	0.0833333333333333	12.0	1.0	1.0	-4.570833994018447	1.512	n/a	stim	poldrack-single-stim	s483	False	1
375.301	0.733	376.034	-1.2434636323272696	draw_card	0.733	columbia_card_task_fmri	7.0	0.9090909090909092	89.0	-95.0	0.0909090909090909	12.0	2.0	1.0	-3.439930822342568	0.733	2.0	stim	poldrack-single-stim	s483	False	0
376.789	1.5	376.038	n/a	-1.0	2.25	columbia_card_task_fmri	n/a	n/a	-1.0	n/a	n/a	n/a	n/a	n/a	n/a	n/a	n/a	ITI	poldrack-single-stim	s483	False	0
378.293	2.082	380.375	0.1959303070666715	draw_card	2.082	columbia_card_task_fmri	14.0	0.8333333333333334	89.0	-75.0	0.1666666666666666	12.0	1.0	2.0	0.4033799824538704	2.082	n/a	stim	poldrack-single-stim	s483	False	1
380.379	0.363	380.742	-1.1525545414181797	draw_card	0.363	columbia_card_task_fmri	14.0	0.8181818181818181	89.0	-75.0	0.1818181818181818	12.0	2.0	2.0	1.5613198403261703	0.363	2.0	stim	poldrack-single-stim	s483	False	0
381.498	1.5	380.747	n/a	-1.0	2.386	columbia_card_task_fmri	n/a	n/a	-1.0	n/a	n/a	n/a	n/a	n/a	n/a	n/a	n/a	ITI	poldrack-single-stim	s483	False	0
383.137	1.785	384.922	1.8625969737333377	draw_card	1.785	columbia_card_task_fmri	15.0	0.8333333333333334	89.0	-70.0	0.1666666666666666	12.0	1.0	2.0	-1.0865810507159883	1.785	n/a	stim	poldrack-single-stim	s483	False	1
384.926	1.528	386.454	0.5747181858545469	draw_card	1.528	columbia_card_task_fmri	15.0	0.8181818181818181	89.0	-70.0	0.1818181818181818	12.0	2.0	2.0	0.0192670533891572	1.528	n/a	stim	poldrack-single-stim	s483	False	1
386.458	0.475	386.933	-0.9707363595999964	end_round	0.475	columbia_card_task_fmri	15.0	0.8	71.0	-70.0	0.2	12.0	3.0	2.0	1.2346479613188208	0.475	2.0	stim	poldrack-single-stim	s483	False	1
387.688	1.5	386.937	n/a	-1.0	2.386	columbia_card_task_fmri	n/a	n/a	-1.0	n/a	n/a	n/a	n/a	n/a	n/a	n/a	n/a	ITI	poldrack-single-stim	s483	False	0
389.328	2.493	391.821	-0.1707363595999955	draw_card	2.493	columbia_card_task_fmri	16.0	0.8	89.0	-70.0	0.2	15.0	1.0	3.0	1.6344669311398832	2.493	n/a	stim	poldrack-single-stim	s483	False	1
391.825	0.46	392.285	-1.399307788171425	draw_card	0.46	columbia_card_task_fmri	16.0	0.7857142857142857	89.0	-70.0	0.2142857142857142	15.0	2.0	3.0	2.522107377437962	0.46	n/a	stim	poldrack-single-stim	s483	False	1
392.288	1.323	393.611	-2.816890205753843	draw_card	1.323	columbia_card_task_fmri	16.0	0.7692307692307692	89.0	-70.0	0.2307692307692307	15.0	3.0	3.0	3.467641873334657	1.323	n/a	stim	poldrack-single-stim	s483	False	1
393.615	0.557	394.172	-4.4707363595999965	end_round	0.557	columbia_card_task_fmri	16.0	0.75	71.0	-70.0	0.25	15.0	4.0	3.0	4.472386084748422	0.557	3.0	stim	poldrack-single-stim	s483	False	1
394.927	1.5	394.176	n/a	-1.0	2.726	columbia_card_task_fmri	n/a	n/a	-1.0	n/a	n/a	n/a	n/a	n/a	n/a	n/a	n/a	ITI	poldrack-single-stim	s483	False	0
396.907	1.372	398.279	0.2167636404000037	draw_card	1.372	columbia_card_task_fmri	14.0	0.8125	89.0	-65.0	0.1875	16.0	1.0	3.0	-1.929076362431388	1.372	n/a	stim	poldrack-single-stim	s483	False	1
398.283	0.487	398.77	-0.7707363595999952	draw_card	0.487	columbia_card_task_fmri	14.0	0.8	89.0	-65.0	0.2	16.0	2.0	3.0	-1.164169686348508	0.487	n/a	stim	poldrack-single-stim	s483	False	1
398.775	0.636	399.411	-1.8993077881714235	draw_card	0.636	columbia_card_task_fmri	14.0	0.7857142857142857	89.0	-65.0	0.2142857142857142	16.0	3.0	3.0	-0.3488448246606594	0.636	n/a	stim	poldrack-single-stim	s483	False	1
399.415	0.573	399.988	-3.201505590369228	end_round	0.573	columbia_card_task_fmri	14.0	0.7692307692307692	71.0	-65.0	0.2307692307692307	16.0	4.0	3.0	0.5196610331368063	0.573	3.0	stim	poldrack-single-stim	s483	False	1
400.743	1.5	399.992	n/a	-1.0	2.454	columbia_card_task_fmri	n/a	n/a	-1.0	n/a	n/a	n/a	n/a	n/a	n/a	n/a	n/a	ITI	poldrack-single-stim	s483	False	0
402.451	1.51	403.961	-0.0332363595999962	draw_card	1.51	columbia_card_task_fmri	16.0	0.8125	89.0	-75.0	0.1875	16.0	1.0	3.0	2.752408499915653	1.51	n/a	stim	poldrack-single-stim	s483	False	1
403.965	0.476	404.441	-1.1707363595999956	draw_card	0.476	columbia_card_task_fmri	16.0	0.8	89.0	-75.0	0.2	16.0	2.0	3.0	3.6336214232286537	0.476	n/a	stim	poldrack-single-stim	s483	False	1
404.445	0.575	405.02	-2.4707363595999947	draw_card	0.575	columbia_card_task_fmri	16.0	0.7857142857142857	89.0	-75.0	0.2142857142857142	16.0	3.0	3.0	4.572912637461144	0.575	n/a	stim	poldrack-single-stim	s483	False	1
405.023	0.749	405.772	-3.9707363596	end_round	0.749	columbia_card_task_fmri	16.0	0.7692307692307692	71.0	-75.0	0.2307692307692307	16.0	4.0	3.0	5.573464331058489	0.749	3.0	stim	poldrack-single-stim	s483	False	1
406.528	1.5	405.777	n/a	-1.0	2.318	columbia_card_task_fmri	n/a	n/a	-1.0	n/a	n/a	n/a	n/a	n/a	n/a	n/a	n/a	ITI	poldrack-single-stim	s483	False	0
408.1	1.889	409.989	4.229263640400005	draw_card	1.889	columbia_card_task_fmri	16.0	0.8666666666666667	89.0	-80.0	0.1333333333333333	15.0	1.0	2.0	-0.1309753659896202	1.889	n/a	stim	poldrack-single-stim	s483	False	1
409.993	0.511	410.504	3.314977926114292	draw_card	0.511	columbia_card_task_fmri	16.0	0.8571428571428572	89.0	-80.0	0.1428571428571428	15.0	2.0	2.0	0.8278387671329241	0.511	n/a	stim	poldrack-single-stim	s483	False	1
410.508	0.747	411.255	2.260032871169233	draw_card	0.747	columbia_card_task_fmri	16.0	0.8461538461538461	89.0	-80.0	0.1538461538461538	15.0	3.0	2.0	1.8712780591693488	0.747	n/a	stim	poldrack-single-stim	s483	False	1
411.26	0.725	411.985	1.0292636404000055	draw_card	0.725	columbia_card_task_fmri	16.0	0.8333333333333334	89.0	-80.0	0.1666666666666666	15.0	4.0	2.0	3.010962272116643	0.725	n/a	stim	poldrack-single-stim	s483	False	1
411.989	0.886	412.875	-0.4252818141454531	draw_card	0.886	columbia_card_task_fmri	16.0	0.8181818181818181	89.0	-80.0	0.1818181818181818	15.0	5.0	2.0	4.260057634247914	0.886	n/a	stim	poldrack-single-stim	s483	False	1
412.88	1.091	413.971	-2.170736359599996	draw_card	1.091	columbia_card_task_fmri	16.0	0.8	89.0	-80.0	0.2	15.0	6.0	2.0	5.632863938928125	1.091	n/a	stim	poldrack-single-stim	s483	False	1
413.974	1.406	415.38	-4.30406969293333	end_round	1.406	columbia_card_task_fmri	16.0	0.7777777777777778	71.0	-80.0	0.2222222222222222	15.0	7.0	2.0	7.143354098704457	1.406	6.0	stim	poldrack-single-stim	s483	False	1
416.136	1.5	415.385	n/a	-1.0	2.318	columbia_card_task_fmri	n/a	n/a	-1.0	n/a	n/a	n/a	n/a	n/a	n/a	n/a	n/a	ITI	poldrack-single-stim	s483	False	0
417.709	2.647	420.356	5.095930307066672	draw_card	2.647	columbia_card_task_fmri	17.0	0.8666666666666667	89.0	-80.0	0.1333333333333333	15.0	1.0	2.0	0.2087920574429418	2.647	n/a	stim	poldrack-single-stim	s483	False	1
420.361	1.018	421.379	4.172120783257149	draw_card	1.018	columbia_card_task_fmri	17.0	0.8571428571428572	89.0	-80.0	0.1428571428571428	15.0	2.0	2.0	1.1776034305407848	1.018	n/a	stim	poldrack-single-stim	s483	False	1
421.384	0.632	422.016	3.10618671732308	draw_card	0.632	columbia_card_task_fmri	17.0	0.8461538461538461	89.0	-80.0	0.1538461538461538	15.0	3.0	2.0	2.2319217180707938	0.632	n/a	stim	poldrack-single-stim	s483	False	1
422.021	0.723	422.744	1.8625969737333397	draw_card	0.723	columbia_card_task_fmri	17.0	0.8333333333333334	89.0	-80.0	0.1666666666666666	15.0	4.0	2.0	3.383487729738299	0.723	n/a	stim	poldrack-single-stim	s483	False	1
422.749	0.719	423.468	0.3929000040363652	draw_card	0.719	columbia_card_task_fmri	17.0	0.8181818181818181	89.0	-80.0	0.1818181818181818	15.0	5.0	2.0	4.645604845483824	0.719	5.0	stim	poldrack-single-stim	s483	False	0
424.224	1.5	423.473	n/a	-1.0	2.59	columbia_card_task_fmri	n/a	n/a	-1.0	n/a	n/a	n/a	n/a	n/a	n/a	n/a	n/a	ITI	poldrack-single-stim	s483	False	0
426.068	1.806	427.874	1.0292636404000035	draw_card	1.806	columbia_card_task_fmri	1.0	0.9375	89.0	-15.0	0.0625	16.0	1.0	1.0	-28.773511561840223	1.806	n/a	stim	poldrack-single-stim	s483	False	1
427.878	1.048	428.926	0.9625969737333372	draw_card	1.048	columbia_card_task_fmri	1.0	0.9333333333333332	89.0	-15.0	0.0666666666666666	16.0	2.0	1.0	-28.659244426570037	1.048	n/a	stim	poldrack-single-stim	s483	False	1
428.931	0.6	429.531	0.8864064975428609	end_round	0.6	columbia_card_task_fmri	1.0	0.9285714285714286	71.0	-15.0	0.0714285714285714	16.0	3.0	1.0	-28.533696134754067	0.6	2.0	stim	poldrack-single-stim	s483	False	1
430.287	1.5	429.536	n/a	-1.0	2.726	columbia_card_task_fmri	n/a	n/a	-1.0	n/a	n/a	n/a	n/a	n/a	n/a	n/a	n/a	ITI	poldrack-single-stim	s483	False	0
432.268	0.647	432.915	4.154263640400004	draw_card	0.647	columbia_card_task_fmri	10.0	0.9375	89.0	-100.0	0.0625	16.0	1.0	1.0	-6.134281349668186	0.647	n/a	stim	poldrack-single-stim	s483	False	1
432.918	1.432	434.35	3.6959303070666714	draw_card	1.432	columbia_card_task_fmri	10.0	0.9333333333333332	89.0	-100.0	0.0666666666666666	16.0	2.0	1.0	-5.322809124571688	1.432	n/a	stim	poldrack-single-stim	s483	False	1
434.356	0.607	434.963	3.172120783257148	end_round	0.607	columbia_card_task_fmri	10.0	0.9285714285714286	71.0	-100.0	0.0714285714285714	16.0	3.0	1.0	-4.432904712067369	0.607	2.0	stim	poldrack-single-stim	s483	False	1
435.719	1.5	434.968	n/a	-1.0	2.522	columbia_card_task_fmri	n/a	n/a	-1.0	n/a	n/a	n/a	n/a	n/a	n/a	n/a	n/a	ITI	poldrack-single-stim	s483	False	0
437.495	2.198	439.693	4.779263640400004	draw_card	2.198	columbia_card_task_fmri	15.0	0.875	89.0	-75.0	0.125	16.0	1.0	2.0	-2.998434737155158	2.198	n/a	stim	poldrack-single-stim	s483	False	1
439.698	0.447	440.145	4.029263640400004	draw_card	0.447	columbia_card_task_fmri	15.0	0.8666666666666667	89.0	-75.0	0.1333333333333333	16.0	2.0	2.0	-2.169501938078028	0.447	n/a	stim	poldrack-single-stim	s483	False	1
440.15	0.465	440.615	3.172120783257148	draw_card	0.465	columbia_card_task_fmri	15.0	0.8571428571428572	89.0	-75.0	0.1428571428571428	16.0	3.0	2.0	-1.2706734646662312	0.465	n/a	stim	poldrack-single-stim	s483	False	1
440.62	0.441	441.061	2.183109794246157	draw_card	0.441	columbia_card_task_fmri	15.0	0.8461538461538461	89.0	-75.0	0.1538461538461538	16.0	4.0	2.0	-0.2925104221919881	0.441	n/a	stim	poldrack-single-stim	s483	False	1
441.066	0.526	441.592	1.0292636404000035	draw_card	0.526	columbia_card_task_fmri	15.0	0.8333333333333334	89.0	-75.0	0.1666666666666666	16.0	5.0	2.0	0.7758806631013542	0.526	n/a	stim	poldrack-single-stim	s483	False	1
441.596	0.798	442.394	-0.3343727232363613	draw_card	0.798	columbia_card_task_fmri	15.0	0.8181818181818181	89.0	-75.0	0.1818181818181818	16.0	6.0	2.0	1.9468431086644744	0.798	n/a	stim	poldrack-single-stim	s483	False	1
442.398	0.481	442.879	-1.9707363595999965	end_round	0.481	columbia_card_task_fmri	15.0	0.8	71.0	-75.0	0.2	16.0	7.0	2.0	3.2337830138436487	0.481	6.0	stim	poldrack-single-stim	s483	False	1
443.634	1.5	442.883	n/a	-1.0	3.134	columbia_card_task_fmri	n/a	n/a	-1.0	n/a	n/a	n/a	n/a	n/a	n/a	n/a	n/a	ITI	poldrack-single-stim	s483	False	0
446.022	2.458	448.48	5.029263640400004	draw_card	2.458	columbia_card_task_fmri	16.0	0.875	89.0	-80.0	0.125	16.0	1.0	2.0	-1.0152325665545376	2.458	n/a	stim	poldrack-single-stim	s483	False	1
448.485	0.374	448.859	4.229263640400005	draw_card	0.374	columbia_card_task_fmri	16.0	0.8666666666666667	89.0	-80.0	0.1333333333333333	16.0	2.0	2.0	-0.1309753659896202	0.374	n/a	stim	poldrack-single-stim	s483	False	1
448.863	0.459	449.322	3.314977926114292	draw_card	0.459	columbia_card_task_fmri	16.0	0.8571428571428572	89.0	-80.0	0.1428571428571428	16.0	3.0	2.0	0.8278387671329241	0.459	n/a	stim	poldrack-single-stim	s483	False	1
449.326	0.524	449.85	2.260032871169233	draw_card	0.524	columbia_card_task_fmri	16.0	0.8461538461538461	89.0	-80.0	0.1538461538461538	16.0	4.0	2.0	1.8712780591693488	0.524	n/a	stim	poldrack-single-stim	s483	False	1
449.854	0.566	450.42	1.0292636404000055	draw_card	0.566	columbia_card_task_fmri	16.0	0.8333333333333334	89.0	-80.0	0.1666666666666666	16.0	5.0	2.0	3.010962272116643	0.566	n/a	stim	poldrack-single-stim	s483	False	1
450.424	0.625	451.049	-0.4252818141454531	draw_card	0.625	columbia_card_task_fmri	16.0	0.8181818181818181	89.0	-80.0	0.1818181818181818	16.0	6.0	2.0	4.260057634247914	0.625	n/a	stim	poldrack-single-stim	s483	False	1
451.053	0.622	451.675	-2.170736359599996	end_round	0.622	columbia_card_task_fmri	16.0	0.8	71.0	-80.0	0.2	16.0	7.0	2.0	5.632863938928125	0.622	6.0	stim	poldrack-single-stim	s483	False	1
452.43	1.5	451.679	n/a	-1.0	2.386	columbia_card_task_fmri	n/a	n/a	-1.0	n/a	n/a	n/a	n/a	n/a	n/a	n/a	n/a	ITI	poldrack-single-stim	s483	False	0
454.07	4.611	458.681	2.2167636404000035	draw_card	4.611	columbia_card_task_fmri	4.0	0.6875	89.0	-5.0	0.3125	16.0	1.0	5.0	-28.48421641253809	4.611	n/a	stim	poldrack-single-stim	s483	False	1
458.686	1.46	460.146	2.0292636404000044	draw_card	1.46	columbia_card_task_fmri	4.0	0.6666666666666667	89.0	-5.0	0.3333333333333333	16.0	2.0	5.0	-28.415222242027284	1.46	n/a	stim	poldrack-single-stim	s483	False	1
460.151	0.632	460.783	1.814977926114289	draw_card	0.632	columbia_card_task_fmri	4.0	0.6428571428571428	89.0	-5.0	0.3571428571428571	16.0	3.0	5.0	-28.347382512554656	0.632	n/a	stim	poldrack-single-stim	s483	False	1
460.787	1.116	461.903	1.5677251788615425	draw_card	1.116	columbia_card_task_fmri	4.0	0.6153846153846154	89.0	-5.0	0.3846153846153846	16.0	4.0	5.0	-28.283041330361662	1.116	n/a	stim	poldrack-single-stim	s483	False	1
461.908	0.462	462.37	1.2792636404000033	draw_card	0.462	columbia_card_task_fmri	4.0	0.5833333333333333	89.0	-5.0	0.4166666666666667	16.0	5.0	5.0	-28.22605293030265	0.462	5.0	stim	poldrack-single-stim	s483	False	0
463.126	1.5	462.375	n/a	-1.0	2.386	columbia_card_task_fmri	n/a	n/a	-1.0	n/a	n/a	n/a	n/a	n/a	n/a	n/a	n/a	ITI	poldrack-single-stim	s483	False	0
464.767	1.851	466.618	-0.6374030262666606	draw_card	1.851	columbia_card_task_fmri	14.0	0.8333333333333334	89.0	-80.0	0.1666666666666666	6.0	1.0	1.0	2.2659210871914084	1.851	n/a	stim	poldrack-single-stim	s483	False	1
466.621	0.559	467.18	-3.770736359599995	draw_card	0.559	columbia_card_task_fmri	14.0	0.8	89.0	-80.0	0.2	6.0	2.0	1.0	4.83315726808879	0.559	n/a	stim	poldrack-single-stim	s483	False	1
467.185	0.637	467.822	-8.470736359599996	draw_card	0.637	columbia_card_task_fmri	14.0	0.75	89.0	-80.0	0.25	6.0	3.0	1.0	7.935277775767972	0.637	n/a	stim	poldrack-single-stim	s483	False	1
467.825	0.786	468.611	-16.304069692933325	end_round	0.786	columbia_card_task_fmri	14.0	0.6666666666666667	71.0	-80.0	0.3333333333333333	6.0	4.0	1.0	11.54304938145424	0.786	3.0	stim	poldrack-single-stim	s483	False	1
469.367	1.5	468.616	n/a	-1.0	2.318	columbia_card_task_fmri	n/a	n/a	-1.0	n/a	n/a	n/a	n/a	n/a	n/a	n/a	n/a	ITI	poldrack-single-stim	s483	False	0
470.94	3.207	474.147	1.0292636404000035	draw_card	3.207	columbia_card_task_fmri	15.0	0.8333333333333334	89.0	-75.0	0.1666666666666666	6.0	1.0	1.0	0.7758806631013542	3.207	n/a	stim	poldrack-single-stim	s483	False	1
474.152	0.402	474.554	-1.9707363595999965	draw_card	0.402	columbia_card_task_fmri	15.0	0.8	89.0	-75.0	0.2	6.0	2.0	1.0	3.2337830138436487	0.402	n/a	stim	poldrack-single-stim	s483	False	1
474.557	0.486	475.043	-6.4707363595999965	draw_card	0.486	columbia_card_task_fmri	15.0	0.75	89.0	-75.0	0.25	6.0	3.0	1.0	6.203805057131206	0.486	n/a	stim	poldrack-single-stim	s483	False	1
475.047	0.61	475.657	-13.970736359599996	end_round	0.61	columbia_card_task_fmri	15.0	0.6666666666666667	71.0	-75.0	0.3333333333333333	6.0	4.0	1.0	9.657962348444492	0.61	3.0	stim	poldrack-single-stim	s483	False	1
476.413	1.5	475.662	n/a	-1.0	2.318	columbia_card_task_fmri	n/a	n/a	-1.0	n/a	n/a	n/a	n/a	n/a	n/a	n/a	n/a	ITI	poldrack-single-stim	s483	False	0
477.985	1.574	479.559	2.695930307066672	draw_card	1.574	columbia_card_task_fmri	16.0	0.8333333333333334	89.0	-70.0	0.1666666666666666	6.0	1.0	1.0	-0.7140973363982681	1.574	1.0	stim	poldrack-single-stim	s483	False	0
480.315	1.5	479.564	n/a	-1.0	2.862	columbia_card_task_fmri	n/a	n/a	-1.0	n/a	n/a	n/a	n/a	n/a	n/a	n/a	n/a	ITI	poldrack-single-stim	s483	False	0
482.432	2.887	485.319	3.2792636404000035	draw_card	2.887	columbia_card_task_fmri	23.0	0.75	89.0	-60.0	0.25	8.0	1.0	2.0	3.173861797296773	2.887	1.0	stim	poldrack-single-stim	s483	False	0
486.075	1.5	485.324	n/a	-1.0	2.726	columbia_card_task_fmri	n/a	n/a	-1.0	n/a	n/a	n/a	n/a	n/a	n/a	n/a	n/a	ITI	poldrack-single-stim	s483	False	0
488.057	0.999	489.056	3.779263640400004	draw_card	0.999	columbia_card_task_fmri	27.0	0.75	89.0	-70.0	0.25	8.0	1.0	2.0	9.233913588465851	0.999	1.0	stim	poldrack-single-stim	s483	False	0
489.811	1.5	489.06	n/a	-1.0	2.25	columbia_card_task_fmri	n/a	n/a	-1.0	n/a	n/a	n/a	n/a	n/a	n/a	n/a	n/a	ITI	poldrack-single-stim	s483	False	0
491.316	0.798	492.114	-0.9707363595999944	draw_card	0.798	columbia_card_task_fmri	16.0	0.7777777777777778	89.0	-65.0	0.2222222222222222	9.0	1.0	2.0	0.9097147327790084	0.798	n/a	stim	poldrack-single-stim	s483	False	1
492.119	1.136	493.255	-3.2207363595999965	draw_card	1.136	columbia_card_task_fmri	16.0	0.75	89.0	-65.0	0.25	9.0	2.0	2.0	2.308200070506373	1.136	n/a	stim	poldrack-single-stim	s483	False	1
493.26	0.645	493.905	-6.113593502457137	draw_card	0.645	columbia_card_task_fmri	16.0	0.7142857142857143	89.0	-65.0	0.2857142857142857	9.0	3.0	2.0	3.825615153797962	0.645	n/a	stim	poldrack-single-stim	s483	False	1
493.909	0.824	494.733	-9.970736359599991	draw_card	0.824	columbia_card_task_fmri	16.0	0.6666666666666667	89.0	-65.0	0.3333333333333333	9.0	4.0	2.0	5.416708196139098	0.824	n/a	stim	poldrack-single-stim	s483	False	1
494.739	1.01	495.749	-15.370736359599997	end_round	1.01	columbia_card_task_fmri	16.0	0.6	71.0	-65.0	0.4	9.0	5.0	2.0	6.914152451411688	1.01	4.0	stim	poldrack-single-stim	s483	False	1
496.505	1.5	495.754	n/a	-1.0	2.318	columbia_card_task_fmri	n/a	n/a	-1.0	n/a	n/a	n/a	n/a	n/a	n/a	n/a	n/a	ITI	poldrack-single-stim	s483	False	0
498.078	1.836	499.914	4.229263640400005	draw_card	1.836	columbia_card_task_fmri	13.0	0.9	89.0	-85.0	0.1	10.0	1.0	1.0	-3.36291643071468	1.836	n/a	stim	poldrack-single-stim	s483	False	1
499.917	0.387	500.304	3.1403747515111142	draw_card	0.387	columbia_card_task_fmri	13.0	0.8888888888888888	89.0	-85.0	0.1111111111111111	10.0	2.0	1.0	-1.965305086173224	0.387	n/a	stim	poldrack-single-stim	s483	False	1
500.31	0.426	500.736	1.7792636404000035	draw_card	0.426	columbia_card_task_fmri	13.0	0.875	89.0	-85.0	0.125	10.0	3.0	1.0	-0.3541349602397119	0.426	n/a	stim	poldrack-single-stim	s483	False	1
500.741	0.432	501.173	0.0292636404000055	draw_card	0.432	columbia_card_task_fmri	13.0	0.8571428571428572	89.0	-85.0	0.1428571428571428	10.0	4.0	1.0	1.5273714068447006	0.432	n/a	stim	poldrack-single-stim	s483	False	1
501.178	0.706	501.884	-2.3040696929333286	draw_card	0.706	columbia_card_task_fmri	13.0	0.8333333333333334	89.0	-85.0	0.1666666666666666	10.0	5.0	1.0	3.7560162985210175	0.706	n/a	stim	poldrack-single-stim	s483	False	1
501.889	0.641	502.53	-5.570736359599996	end_round	0.641	columbia_card_task_fmri	13.0	0.8	71.0	-85.0	0.2	10.0	6.0	1.0	6.432582576068981	0.641	5.0	stim	poldrack-single-stim	s483	False	1
503.286	1.5	502.535	n/a	-1.0	2.454	columbia_card_task_fmri	n/a	n/a	-1.0	n/a	n/a	n/a	n/a	n/a	n/a	n/a	n/a	ITI	poldrack-single-stim	s483	False	0
504.995	3.182	508.177	-0.7707363595999952	draw_card	3.182	columbia_card_task_fmri	14.0	0.8	89.0	-65.0	0.2	10.0	1.0	2.0	-1.164169686348508	3.182	n/a	stim	poldrack-single-stim	s483	False	1
508.182	0.457	508.639	-2.52629191515555	draw_card	0.457	columbia_card_task_fmri	14.0	0.7777777777777778	89.0	-65.0	0.2222222222222222	10.0	2.0	2.0	0.0786332444504651	0.457	n/a	stim	poldrack-single-stim	s483	False	1
508.644	0.498	509.142	-4.7207363595999965	draw_card	0.498	columbia_card_task_fmri	14.0	0.75	89.0	-65.0	0.25	10.0	3.0	2.0	1.4425567455517552	0.498	3.0	stim	poldrack-single-stim	s483	False	0
509.897	1.5	509.146	n/a	-1.0	2.522	columbia_card_task_fmri	n/a	n/a	-1.0	n/a	n/a	n/a	n/a	n/a	n/a	n/a	n/a	ITI	poldrack-single-stim	s483	False	0
511.674	0.935	512.609	0.6292636404000052	draw_card	0.935	columbia_card_task_fmri	17.0	0.8	89.0	-70.0	0.2	10.0	1.0	2.0	2.034290059814168	0.935	n/a	stim	poldrack-single-stim	s483	False	1
512.614	0.865	513.479	-1.3040696929333284	draw_card	0.865	columbia_card_task_fmri	17.0	0.7777777777777778	89.0	-70.0	0.2222222222222222	10.0	2.0	2.0	3.403068901310121	0.865	2.0	stim	poldrack-single-stim	s483	False	0
514.234	1.5	513.483	n/a	-1.0	2.318	columbia_card_task_fmri	n/a	n/a	-1.0	n/a	n/a	n/a	n/a	n/a	n/a	n/a	n/a	ITI	poldrack-single-stim	s483	False	0
515.807	1.579	517.386	-0.6374030262666623	draw_card	1.579	columbia_card_task_fmri	13.0	0.8333333333333334	89.0	-75.0	0.1666666666666666	12.0	1.0	2.0	0.0308833287652774	1.579	n/a	stim	poldrack-single-stim	s483	False	1
517.391	0.361	517.752	-1.970736359599998	draw_card	0.361	columbia_card_task_fmri	13.0	0.8181818181818181	89.0	-75.0	0.1818181818181818	12.0	2.0	2.0	1.1758004634156762	0.361	2.0	stim	poldrack-single-stim	s483	False	0
518.508	1.5	517.757	n/a	-1.0	2.522	columbia_card_task_fmri	n/a	n/a	-1.0	n/a	n/a	n/a	n/a	n/a	n/a	n/a	n/a	ITI	poldrack-single-stim	s483	False	0
520.285	0.881	521.166	1.0292636404000055	draw_card	0.881	columbia_card_task_fmri	14.0	0.8333333333333334	89.0	-70.0	0.1666666666666666	12.0	1.0	2.0	-1.4590601429763588	0.881	n/a	stim	poldrack-single-stim	s483	False	1
521.17	0.795	521.965	-0.2434636323272714	draw_card	0.795	columbia_card_task_fmri	14.0	0.8181818181818181	89.0	-70.0	0.1818181818181818	12.0	2.0	2.0	-0.3662353530417164	0.795	n/a	stim	poldrack-single-stim	s483	False	1
521.97	0.602	522.572	-1.7707363595999952	draw_card	0.602	columbia_card_task_fmri	14.0	0.8	89.0	-70.0	0.2	12.0	3.0	2.0	0.8348332987446128	0.602	n/a	stim	poldrack-single-stim	s483	False	1
522.576	0.615	523.191	-3.637403026266663	draw_card	0.615	columbia_card_task_fmri	14.0	0.7777777777777778	89.0	-70.0	0.2222222222222222	12.0	4.0	2.0	2.1563724709195853	0.615	n/a	stim	poldrack-single-stim	s483	False	1
523.196	0.59	523.786	-5.9707363595999965	end_round	0.59	columbia_card_task_fmri	14.0	0.75	71.0	-70.0	0.25	12.0	5.0	2.0	3.606699150962996	0.59	4.0	stim	poldrack-single-stim	s483	False	1
524.542	1.5	523.791	n/a	-1.0	2.998	columbia_card_task_fmri	n/a	n/a	-1.0	n/a	n/a	n/a	n/a	n/a	n/a	n/a	n/a	ITI	poldrack-single-stim	s483	False	0
526.794	1.533	528.327	1.0292636404000055	draw_card	1.533	columbia_card_task_fmri	16.0	0.8333333333333334	89.0	-80.0	0.1666666666666666	12.0	1.0	2.0	3.010962272116643	1.533	n/a	stim	poldrack-single-stim	s483	False	1
528.333	0.457	528.79	-0.4252818141454531	draw_card	0.457	columbia_card_task_fmri	16.0	0.8181818181818181	89.0	-80.0	0.1818181818181818	12.0	2.0	2.0	4.260057634247914	0.457	n/a	stim	poldrack-single-stim	s483	False	1
528.795	0.5	529.295	-2.170736359599996	draw_card	0.5	columbia_card_task_fmri	16.0	0.8	89.0	-80.0	0.2	12.0	3.0	2.0	5.632863938928125	0.5	n/a	stim	poldrack-single-stim	s483	False	1
529.3	0.483	529.783	-4.30406969293333	end_round	0.483	columbia_card_task_fmri	16.0	0.7777777777777778	71.0	-80.0	0.2222222222222222	12.0	4.0	2.0	7.143354098704457	0.483	3.0	stim	poldrack-single-stim	s483	False	1
530.539	1.5	529.788	n/a	-1.0	2.318	columbia_card_task_fmri	n/a	n/a	-1.0	n/a	n/a	n/a	n/a	n/a	n/a	n/a	n/a	ITI	poldrack-single-stim	s483	False	0
532.111	1.756	533.867	0.8292636404000044	draw_card	1.756	columbia_card_task_fmri	16.0	0.8	89.0	-65.0	0.2	15.0	1.0	3.0	-0.3645832517719825	1.756	n/a	stim	poldrack-single-stim	s483	False	1
533.871	0.503	534.374	-0.3278792167428521	draw_card	0.503	columbia_card_task_fmri	16.0	0.7857142857142857	89.0	-65.0	0.2142857142857142	15.0	2.0	3.0	0.4714038084527843	0.503	n/a	stim	poldrack-single-stim	s483	False	1
534.38	0.781	535.161	-1.6630440519076897	draw_card	0.781	columbia_card_task_fmri	16.0	0.7692307692307692	89.0	-65.0	0.2307692307692307	15.0	3.0	3.0	1.3619184584359658	0.781	n/a	stim	poldrack-single-stim	s483	False	1
535.166	0.782	535.948	-3.2207363595999965	draw_card	0.782	columbia_card_task_fmri	16.0	0.75	89.0	-65.0	0.25	15.0	4.0	3.0	2.308200070506373	0.782	n/a	stim	poldrack-single-stim	s483	False	1
535.953	1.227	537.18	-5.061645450509086	end_round	1.227	columbia_card_task_fmri	16.0	0.7272727272727273	71.0	-65.0	0.2727272727272727	15.0	5.0	3.0	3.3080562107621674	1.227	4.0	stim	poldrack-single-stim	s483	False	1
537.936	1.5	537.185	n/a	-1.0	2.25	columbia_card_task_fmri	n/a	n/a	-1.0	n/a	n/a	n/a	n/a	n/a	n/a	n/a	n/a	ITI	poldrack-single-stim	s483	False	0
539.44	5.666	545.106	-0.8457363595999963	draw_card	5.666	columbia_card_task_fmri	15.0	0.8125	89.0	-75.0	0.1875	16.0	1.0	3.0	2.362261721297074	5.666	1.0	stim	poldrack-single-stim	s483	False	0
545.863	1.5	545.112	n/a	-1.0	2.454	columbia_card_task_fmri	n/a	n/a	-1.0	n/a	n/a	n/a	n/a	n/a	n/a	n/a	n/a	ITI	poldrack-single-stim	s483	False	0
547.572	1.419	548.991	-0.2832363595999962	draw_card	1.419	columbia_card_task_fmri	14.0	0.6875	89.0	-35.0	0.3125	16.0	1.0	5.0	-10.045509735558936	1.419	n/a	stim	poldrack-single-stim	s483	False	1
548.995	0.725	549.72	-1.3040696929333284	draw_card	0.725	columbia_card_task_fmri	14.0	0.6666666666666667	89.0	-35.0	0.3333333333333333	16.0	2.0	5.0	-9.65918594320294	0.725	n/a	stim	poldrack-single-stim	s483	False	1
549.725	0.544	550.269	-2.4707363595999965	end_round	0.544	columbia_card_task_fmri	14.0	0.6428571428571428	71.0	-35.0	0.3571428571428571	16.0	3.0	5.0	-9.27966419447121	0.544	2.0	stim	poldrack-single-stim	s483	False	1
551.025	1.5	550.274	n/a	-1.0	2.318	columbia_card_task_fmri	n/a	n/a	-1.0	n/a	n/a	n/a	n/a	n/a	n/a	n/a	n/a	ITI	poldrack-single-stim	s483	False	0
552.599	1.758	554.357	4.895930307066671	draw_card	1.758	columbia_card_task_fmri	16.0	0.8666666666666667	89.0	-75.0	0.1333333333333333	15.0	1.0	2.0	-1.8297574027000465	1.758	n/a	stim	poldrack-single-stim	s483	False	1
554.363	0.422	554.785	4.029263640400005	draw_card	0.422	columbia_card_task_fmri	16.0	0.8571428571428572	89.0	-75.0	0.1428571428571428	15.0	2.0	2.0	-0.9209310376980042	0.422	n/a	stim	poldrack-single-stim	s483	False	1
554.791	0.435	555.226	3.0292636404000035	draw_card	0.435	columbia_card_task_fmri	16.0	0.8461538461538461	89.0	-75.0	0.1538461538461538	15.0	3.0	2.0	0.0681116685439136	0.435	n/a	stim	poldrack-single-stim	s483	False	1
555.231	0.495	555.726	1.8625969737333377	draw_card	0.495	columbia_card_task_fmri	16.0	0.8333333333333334	89.0	-75.0	0.1666666666666666	15.0	4.0	2.0	1.148385238075086	0.495	n/a	stim	poldrack-single-stim	s483	False	1
555.732	0.433	556.165	0.483809094945457	draw_card	0.433	columbia_card_task_fmri	16.0	0.8181818181818181	89.0	-75.0	0.1818181818181818	15.0	5.0	2.0	2.332370140253836	0.433	n/a	stim	poldrack-single-stim	s483	False	1
556.17	0.634	556.804	-1.1707363595999956	draw_card	0.634	columbia_card_task_fmri	16.0	0.8	89.0	-75.0	0.2	15.0	6.0	2.0	3.6336214232286537	0.634	6.0	stim	poldrack-single-stim	s483	False	0
557.56	1.5	556.809	n/a	-1.0	2.318	columbia_card_task_fmri	n/a	n/a	-1.0	n/a	n/a	n/a	n/a	n/a	n/a	n/a	n/a	ITI	poldrack-single-stim	s483	False	0
559.134	0.454	559.588	5.562596973733337	draw_card	0.454	columbia_card_task_fmri	16.0	0.8666666666666667	89.0	-70.0	0.1333333333333333	15.0	1.0	2.0	-3.5284359102470084	0.454	1.0	stim	poldrack-single-stim	s483	False	0
560.343	1.5	559.592	n/a	-1.0	2.59	columbia_card_task_fmri	n/a	n/a	-1.0	n/a	n/a	n/a	n/a	n/a	n/a	n/a	n/a	ITI	poldrack-single-stim	s483	False	0
562.189	1.224	563.413	2.9042636404000035	draw_card	1.224	columbia_card_task_fmri	8.0	0.9375	89.0	-90.0	0.0625	16.0	1.0	1.0	-9.036586029101237	1.224	1.0	stim	poldrack-single-stim	s483	False	0
564.169	1.5	563.418	n/a	-1.0	2.25	columbia_card_task_fmri	n/a	n/a	-1.0	n/a	n/a	n/a	n/a	n/a	n/a	n/a	n/a	ITI	poldrack-single-stim	s483	False	0
565.674	1.493	567.167	4.466763640400004	draw_card	1.493	columbia_card_task_fmri	10.0	0.9375	89.0	-95.0	0.0625	16.0	1.0	1.0	-7.343642461005899	1.493	n/a	stim	poldrack-single-stim	s483	False	1
567.172	0.378	567.55	4.029263640400004	draw_card	0.378	columbia_card_task_fmri	10.0	0.9333333333333332	89.0	-95.0	0.0666666666666666	16.0	2.0	1.0	-6.5691100089389565	0.378	n/a	stim	poldrack-single-stim	s483	False	1
567.555	0.534	568.089	3.5292636404000044	draw_card	0.534	columbia_card_task_fmri	10.0	0.9285714285714286	89.0	-95.0	0.0714285714285714	16.0	3.0	1.0	-5.719712155099906	0.534	3.0	stim	poldrack-single-stim	s483	False	0
568.846	1.5	568.095	n/a	-1.0	2.25	columbia_card_task_fmri	n/a	n/a	-1.0	n/a	n/a	n/a	n/a	n/a	n/a	n/a	n/a	ITI	poldrack-single-stim	s483	False	0
570.353	1.832	572.185	5.404263640400004	draw_card	1.832	columbia_card_task_fmri	15.0	0.875	89.0	-70.0	0.125	16.0	1.0	2.0	-4.6509834787435125	1.832	1.0	stim	poldrack-single-stim	s483	False	0
572.942	1.5	572.191	n/a	-1.0	2.522	columbia_card_task_fmri	n/a	n/a	-1.0	n/a	n/a	n/a	n/a	n/a	n/a	n/a	n/a	ITI	poldrack-single-stim	s483	False	0
574.72	1.078	575.798	4.404263640400004	draw_card	1.078	columbia_card_task_fmri	16.0	0.875	89.0	-85.0	0.125	16.0	1.0	2.0	0.6375366947313594	1.078	n/a	stim	poldrack-single-stim	s483	False	1
575.802	0.414	576.216	3.5625969737333367	draw_card	0.414	columbia_card_task_fmri	16.0	0.8666666666666667	89.0	-85.0	0.1333333333333333	16.0	2.0	2.0	1.5678948392315917	0.414	n/a	stim	poldrack-single-stim	s483	False	1
576.222	0.566	576.788	2.6006922118285765	draw_card	0.566	columbia_card_task_fmri	16.0	0.8571428571428572	89.0	-85.0	0.1428571428571428	16.0	3.0	2.0	2.576694229963905	0.566	n/a	stim	poldrack-single-stim	s483	False	1
576.794	0.641	577.435	1.4908021019384636	draw_card	0.641	columbia_card_task_fmri	16.0	0.8461538461538461	89.0	-85.0	0.1538461538461538	16.0	4.0	2.0	3.674527533135219	0.641	n/a	stim	poldrack-single-stim	s483	False	1
577.439	0.552	577.991	0.1959303070666715	end_round	0.552	columbia_card_task_fmri	16.0	0.8333333333333334	71.0	-85.0	0.1666666666666666	16.0	5.0	2.0	4.873619748440177	0.552	4.0	stim	poldrack-single-stim	s483	False	1
578.748	1.5	577.997	n/a	-1.0	2.454	columbia_card_task_fmri	n/a	n/a	-1.0	n/a	n/a	n/a	n/a	n/a	n/a	n/a	n/a	ITI	poldrack-single-stim	s483	False	0
