onset	duration	movement_onset	CTI	block_duration	correct	correct_response	cue	cue_switch	experiment_exp_id	key_press	response_time	stim_color	stim_number	switch_type	task	task_switch	trial_id	trial_type	worker_id	first_trial_of_block	junk
3.614	1.0	4.336	0.1	3.224	True	89.0	High-Low	stay	twobytwo	89.0	0.622	blue	1.0	cue_stay	magnitude	stay	stim	poldrack-single-stim	s483	1	False
7.744	1.0	9.195	0.9	2.408	True	71.0	Color	n/a	twobytwo	71.0	0.551	blue	6.0	task_switch	color	switch	stim	poldrack-single-stim	s483	0	False
10.257	1.0	11.096	0.1	2.816	True	71.0	High-Low	n/a	twobytwo	71.0	0.739	orange	7.0	task_switch	magnitude	switch	stim	poldrack-single-stim	s483	0	False
13.178	1.0	14.011	0.1	2.408	True	71.0	Color	n/a	twobytwo	71.0	0.733	blue	8.0	task_switch	color	switch	stim	poldrack-single-stim	s483	0	False
16.49	1.0	17.8	0.9	2.136	True	89.0	High-Low	n/a	twobytwo	89.0	0.41	orange	2.0	task_switch	magnitude	switch	stim	poldrack-single-stim	s483	0	False
19.531	1.0	20.977	0.9	2.136	True	71.0	High-Low	stay	twobytwo	71.0	0.546	blue	6.0	cue_stay	magnitude	stay	stim	poldrack-single-stim	s483	0	False
22.571	1.0	24.066	0.9	2.0	True	89.0	Magnitude	switch	twobytwo	89.0	0.595	blue	1.0	cue_switch	magnitude	stay	stim	poldrack-single-stim	s483	0	False
24.676	1.0	25.541	0.1	2.0	True	71.0	High-Low	switch	twobytwo	71.0	0.765	blue	6.0	cue_switch	magnitude	stay	stim	poldrack-single-stim	s483	0	False
27.58	1.0	28.909	0.9	2.272	True	89.0	Orange-Blue	n/a	twobytwo	89.0	0.429	orange	3.0	task_switch	color	switch	stim	poldrack-single-stim	s483	0	False
29.958	1.0	30.713	0.1	2.408	True	71.0	Magnitude	n/a	twobytwo	71.0	0.655	orange	7.0	task_switch	magnitude	switch	stim	poldrack-single-stim	s483	0	False
33.27	1.0	34.602	0.9	2.0	True	71.0	Orange-Blue	n/a	twobytwo	71.0	0.432	blue	4.0	task_switch	color	switch	stim	poldrack-single-stim	s483	0	False
36.175	1.0	37.574	0.9	2.136	True	89.0	Color	switch	twobytwo	89.0	0.499	orange	8.0	cue_switch	color	stay	stim	poldrack-single-stim	s483	0	False
38.416	1.0	39.513	0.1	2.0	True	71.0	Magnitude	n/a	twobytwo	71.0	0.997	orange	9.0	task_switch	magnitude	switch	stim	poldrack-single-stim	s483	0	False
41.321	1.0	42.981	0.9	2.408	True	71.0	Color	n/a	twobytwo	71.0	0.76	blue	8.0	task_switch	color	switch	stim	poldrack-single-stim	s483	0	False
43.834	1.0	44.557	0.1	2.272	True	71.0	Orange-Blue	switch	twobytwo	71.0	0.623	blue	6.0	cue_switch	color	stay	stim	poldrack-single-stim	s483	0	False
46.209	1.0	47.088	0.1	2.0	True	89.0	High-Low	n/a	twobytwo	89.0	0.779	blue	3.0	task_switch	magnitude	switch	stim	poldrack-single-stim	s483	0	False
49.114	1.0	50.509	0.9	2.272	True	71.0	Magnitude	switch	twobytwo	71.0	0.495	blue	7.0	cue_switch	magnitude	stay	stim	poldrack-single-stim	s483	0	False
52.289	1.0	54.118	0.9	2.0	True	71.0	Orange-Blue	n/a	twobytwo	71.0	0.929	blue	7.0	task_switch	color	switch	stim	poldrack-single-stim	s483	0	False
54.393	1.0	55.273	0.1	2.0	True	71.0	Magnitude	n/a	twobytwo	71.0	0.78	blue	9.0	task_switch	magnitude	switch	stim	poldrack-single-stim	s483	0	False
57.299	1.0	58.638	0.9	2.272	True	89.0	Magnitude	stay	twobytwo	89.0	0.439	blue	2.0	cue_stay	magnitude	stay	stim	poldrack-single-stim	s483	0	False
59.677	1.0	60.317	0.1	2.136	False	89.0	Color	n/a	twobytwo	71.0	0.54	orange	9.0	task_switch	color	switch	stim	poldrack-single-stim	s483	0	False
62.717	1.0	64.183	0.9	2.0	True	89.0	High-Low	n/a	twobytwo	89.0	0.566	blue	3.0	task_switch	magnitude	switch	stim	poldrack-single-stim	s483	0	False
65.621	1.0	67.078	0.9	2.0	True	89.0	High-Low	stay	twobytwo	89.0	0.557	blue	4.0	cue_stay	magnitude	stay	stim	poldrack-single-stim	s483	0	False
68.525	1.0	70.157	0.9	2.0	True	89.0	Color	n/a	twobytwo	89.0	0.732	orange	1.0	task_switch	color	switch	stim	poldrack-single-stim	s483	0	False
70.629	1.0	71.356	0.1	2.0	True	71.0	Orange-Blue	switch	twobytwo	71.0	0.627	blue	3.0	cue_switch	color	stay	stim	poldrack-single-stim	s483	0	False
73.533	1.0	74.821	0.9	2.0	True	71.0	Orange-Blue	stay	twobytwo	71.0	0.388	blue	2.0	cue_stay	color	stay	stim	poldrack-single-stim	s483	0	False
75.638	1.0	76.78	0.1	2.136	True	71.0	Magnitude	n/a	twobytwo	71.0	1.042	blue	7.0	task_switch	magnitude	switch	stim	poldrack-single-stim	s483	0	False
77.879	1.0	78.573	0.1	2.0	True	89.0	Magnitude	stay	twobytwo	89.0	0.594	blue	4.0	cue_stay	magnitude	stay	stim	poldrack-single-stim	s483	0	False
80.784	1.0	82.542	0.9	2.0	True	89.0	Color	n/a	twobytwo	89.0	0.858	orange	4.0	task_switch	color	switch	stim	poldrack-single-stim	s483	0	False
82.888	1.0	83.874	0.1	2.136	True	71.0	Orange-Blue	switch	twobytwo	71.0	0.886	blue	2.0	cue_switch	color	stay	stim	poldrack-single-stim	s483	0	False
85.928	1.0	87.249	0.9	2.0	True	71.0	Color	switch	twobytwo	71.0	0.421	blue	1.0	cue_switch	color	stay	stim	poldrack-single-stim	s483	0	False
88.833	1.0	90.274	0.9	2.136	True	71.0	High-Low	n/a	twobytwo	71.0	0.541	blue	8.0	task_switch	magnitude	switch	stim	poldrack-single-stim	s483	0	False
91.875	1.0	93.197	0.9	2.68	True	89.0	Orange-Blue	n/a	twobytwo	89.0	0.422	orange	8.0	task_switch	color	switch	stim	poldrack-single-stim	s483	0	False
94.66	1.0	95.341	0.1	2.272	True	89.0	Orange-Blue	stay	twobytwo	89.0	0.581	orange	4.0	cue_stay	color	stay	stim	poldrack-single-stim	s483	0	False
97.037	1.0	97.781	0.1	2.136	True	89.0	Orange-Blue	stay	twobytwo	89.0	0.644	orange	4.0	cue_stay	color	stay	stim	poldrack-single-stim	s483	0	False
100.078	1.0	101.488	0.9	2.0	True	89.0	Magnitude	n/a	twobytwo	89.0	0.51	orange	3.0	task_switch	magnitude	switch	stim	poldrack-single-stim	s483	0	False
102.983	1.0	104.345	0.9	2.136	True	89.0	Color	n/a	twobytwo	89.0	0.462	orange	7.0	task_switch	color	switch	stim	poldrack-single-stim	s483	0	False
105.223	1.0	106.187	0.1	2.68	True	89.0	High-Low	n/a	twobytwo	89.0	0.864	blue	4.0	task_switch	magnitude	switch	stim	poldrack-single-stim	s483	0	False
108.007	1.0	108.948	0.1	2.272	True	89.0	Color	n/a	twobytwo	89.0	0.841	orange	6.0	task_switch	color	switch	stim	poldrack-single-stim	s483	0	False
110.384	1.0	111.14	0.1	2.0	True	71.0	Orange-Blue	switch	twobytwo	71.0	0.656	blue	8.0	cue_switch	color	stay	stim	poldrack-single-stim	s483	0	False
113.287	1.0	114.654	0.9	2.0	True	71.0	Magnitude	n/a	twobytwo	71.0	0.467	blue	8.0	task_switch	magnitude	switch	stim	poldrack-single-stim	s483	0	False
116.191	1.0	117.528	0.9	2.136	True	89.0	Magnitude	stay	twobytwo	89.0	0.437	orange	4.0	cue_stay	magnitude	stay	stim	poldrack-single-stim	s483	0	False
119.231	1.0	120.614	0.9	2.0	True	89.0	Magnitude	stay	twobytwo	89.0	0.483	orange	3.0	cue_stay	magnitude	stay	stim	poldrack-single-stim	s483	0	False
122.136	1.0	123.61	0.9	2.0	True	71.0	Magnitude	stay	twobytwo	71.0	0.574	blue	6.0	cue_stay	magnitude	stay	stim	poldrack-single-stim	s483	0	False
124.24	1.0	125.073	0.1	2.0	True	89.0	High-Low	switch	twobytwo	89.0	0.733	blue	2.0	cue_switch	magnitude	stay	stim	poldrack-single-stim	s483	0	False
127.144	1.0	129.177	0.9	2.272	True	71.0	Orange-Blue	n/a	twobytwo	71.0	1.133	blue	4.0	task_switch	color	switch	stim	poldrack-single-stim	s483	0	False
130.32	1.0	131.742	0.9	2.408	True	71.0	Magnitude	n/a	twobytwo	71.0	0.522	orange	6.0	task_switch	magnitude	switch	stim	poldrack-single-stim	s483	0	False
132.832	1.0	133.636	0.1	2.0	True	89.0	Magnitude	stay	twobytwo	89.0	0.704	blue	3.0	cue_stay	magnitude	stay	stim	poldrack-single-stim	s483	0	False
135.736	1.0	137.139	0.9	2.0	True	71.0	Magnitude	stay	twobytwo	71.0	0.503	blue	6.0	cue_stay	magnitude	stay	stim	poldrack-single-stim	s483	0	False
137.84	1.0	139.056	0.1	2.0	False	71.0	Orange-Blue	n/a	twobytwo	89.0	1.116	blue	1.0	task_switch	color	switch	stim	poldrack-single-stim	s483	0	False
139.945	1.0	140.696	0.1	2.272	True	71.0	High-Low	n/a	twobytwo	71.0	0.651	orange	9.0	task_switch	magnitude	switch	stim	poldrack-single-stim	s483	0	False
143.12	1.0	144.434	0.9	2.136	True	71.0	High-Low	stay	twobytwo	71.0	0.414	orange	6.0	cue_stay	magnitude	stay	stim	poldrack-single-stim	s483	0	False
145.36	1.0	146.335	0.1	2.0	True	71.0	Color	n/a	twobytwo	71.0	0.875	blue	6.0	task_switch	color	switch	stim	poldrack-single-stim	s483	0	False
148.264	1.0	149.613	0.9	2.544	True	71.0	Orange-Blue	switch	twobytwo	71.0	0.449	blue	7.0	cue_switch	color	stay	stim	poldrack-single-stim	s483	0	False
151.713	1.0	153.022	0.9	2.272	True	71.0	Magnitude	n/a	twobytwo	71.0	0.409	orange	8.0	task_switch	magnitude	switch	stim	poldrack-single-stim	s483	0	False
154.089	1.0	154.756	0.1	2.272	True	71.0	Magnitude	stay	twobytwo	71.0	0.567	orange	8.0	cue_stay	magnitude	stay	stim	poldrack-single-stim	s483	0	False
156.464	1.0	157.254	0.1	2.0	True	89.0	High-Low	switch	twobytwo	89.0	0.69	orange	4.0	cue_switch	magnitude	stay	stim	poldrack-single-stim	s483	0	False
159.369	1.0	160.73	0.9	2.0	True	89.0	High-Low	stay	twobytwo	89.0	0.461	orange	3.0	cue_stay	magnitude	stay	stim	poldrack-single-stim	s483	0	False
162.273	1.0	163.635	0.9	2.136	True	71.0	Orange-Blue	n/a	twobytwo	71.0	0.462	blue	2.0	task_switch	color	switch	stim	poldrack-single-stim	s483	0	False
164.513	1.0	165.266	0.1	2.0	True	89.0	High-Low	n/a	twobytwo	89.0	0.653	orange	2.0	task_switch	magnitude	switch	stim	poldrack-single-stim	s483	0	False
167.418	1.0	168.77	0.9	2.136	True	71.0	Magnitude	switch	twobytwo	71.0	0.452	blue	8.0	cue_switch	magnitude	stay	stim	poldrack-single-stim	s483	0	False
170.459	1.0	172.297	0.9	2.272	True	71.0	Color	n/a	twobytwo	71.0	0.938	blue	3.0	task_switch	color	switch	stim	poldrack-single-stim	s483	0	False
173.636	1.0	174.969	0.9	2.136	True	71.0	High-Low	n/a	twobytwo	71.0	0.433	orange	7.0	task_switch	magnitude	switch	stim	poldrack-single-stim	s483	0	False
175.877	1.0	176.955	0.1	2.272	True	71.0	High-Low	stay	twobytwo	71.0	0.978	blue	8.0	cue_stay	magnitude	stay	stim	poldrack-single-stim	s483	0	False
179.053	1.0	180.524	0.9	2.0	True	89.0	Color	n/a	twobytwo	89.0	0.571	orange	7.0	task_switch	color	switch	stim	poldrack-single-stim	s483	0	False
181.157	1.0	181.963	0.1	2.816	False	89.0	Color	stay	twobytwo	71.0	0.706	orange	9.0	cue_stay	color	stay	stim	poldrack-single-stim	s483	0	False
184.077	1.0	185.617	0.1	2.408	False	89.0	Orange-Blue	switch	twobytwo	71.0	1.44	orange	2.0	cue_switch	color	stay	stim	poldrack-single-stim	s483	0	False
186.588	1.0	187.317	0.1	2.0	True	71.0	Orange-Blue	stay	twobytwo	71.0	0.629	blue	6.0	cue_stay	color	stay	stim	poldrack-single-stim	s483	0	False
188.693	1.0	189.395	0.1	2.544	True	89.0	Orange-Blue	stay	twobytwo	89.0	0.602	orange	3.0	cue_stay	color	stay	stim	poldrack-single-stim	s483	0	False
191.341	1.0	192.289	0.1	2.136	True	89.0	High-Low	n/a	twobytwo	89.0	0.848	orange	3.0	task_switch	magnitude	switch	stim	poldrack-single-stim	s483	0	False
194.381	1.0	195.784	0.9	2.0	True	71.0	Orange-Blue	n/a	twobytwo	71.0	0.503	blue	1.0	task_switch	color	switch	stim	poldrack-single-stim	s483	0	False
196.486	1.0	197.274	0.1	2.0	True	71.0	Orange-Blue	stay	twobytwo	71.0	0.688	blue	3.0	cue_stay	color	stay	stim	poldrack-single-stim	s483	0	False
198.588	1.0	199.806	0.1	2.136	True	89.0	Color	switch	twobytwo	89.0	1.118	orange	7.0	cue_switch	color	stay	stim	poldrack-single-stim	s483	0	False
201.629	1.0	202.976	0.9	2.136	True	89.0	Color	stay	twobytwo	89.0	0.447	orange	1.0	cue_stay	color	stay	stim	poldrack-single-stim	s483	0	False
203.87	1.0	204.923	0.1	2.272	True	89.0	Magnitude	n/a	twobytwo	89.0	0.953	orange	3.0	task_switch	magnitude	switch	stim	poldrack-single-stim	s483	0	False
206.247	1.0	207.069	0.1	3.224	True	89.0	High-Low	switch	twobytwo	89.0	0.722	blue	3.0	cue_switch	magnitude	stay	stim	poldrack-single-stim	s483	0	False
210.376	1.0	211.722	0.9	2.0	True	71.0	Magnitude	switch	twobytwo	71.0	0.446	blue	9.0	cue_switch	magnitude	stay	stim	poldrack-single-stim	s483	0	False
212.481	1.0	213.283	0.1	2.0	False	71.0	Color	n/a	twobytwo	89.0	0.702	blue	3.0	task_switch	color	switch	stim	poldrack-single-stim	s483	0	False
215.386	1.0	216.764	0.9	2.272	True	71.0	High-Low	n/a	twobytwo	71.0	0.478	blue	8.0	task_switch	magnitude	switch	stim	poldrack-single-stim	s483	0	False
217.764	1.0	218.788	0.1	2.136	True	89.0	Orange-Blue	n/a	twobytwo	89.0	0.924	orange	1.0	task_switch	color	switch	stim	poldrack-single-stim	s483	0	False
233.514	1.0	234.478	0.1	2.0	True	89.0	High-Low	stay	twobytwo	89.0	0.864	blue	1.0	cue_stay	magnitude	stay	stim	poldrack-single-stim	s483	1	False
236.418	1.0	237.952	0.9	2.0	True	71.0	Orange-Blue	n/a	twobytwo	71.0	0.634	blue	6.0	task_switch	color	switch	stim	poldrack-single-stim	s483	0	False
238.522	1.0	239.484	0.1	2.0	True	71.0	Magnitude	n/a	twobytwo	71.0	0.862	orange	7.0	task_switch	magnitude	switch	stim	poldrack-single-stim	s483	0	False
240.627	1.0	241.65	0.1	2.68	True	71.0	Color	n/a	twobytwo	71.0	0.923	blue	8.0	task_switch	color	switch	stim	poldrack-single-stim	s483	0	False
244.212	1.0	245.531	0.9	2.0	True	89.0	High-Low	n/a	twobytwo	89.0	0.419	orange	2.0	task_switch	magnitude	switch	stim	poldrack-single-stim	s483	0	False
247.117	1.0	248.802	0.9	2.272	True	71.0	High-Low	stay	twobytwo	71.0	0.785	blue	6.0	cue_stay	magnitude	stay	stim	poldrack-single-stim	s483	0	False
250.293	1.0	251.807	0.9	2.0	True	89.0	Magnitude	switch	twobytwo	89.0	0.614	blue	1.0	cue_switch	magnitude	stay	stim	poldrack-single-stim	s483	0	False
252.399	1.0	253.25	0.1	2.272	True	71.0	High-Low	switch	twobytwo	71.0	0.751	blue	6.0	cue_switch	magnitude	stay	stim	poldrack-single-stim	s483	0	False
255.576	1.0	256.986	0.9	2.952	True	89.0	Orange-Blue	n/a	twobytwo	89.0	0.51	orange	3.0	task_switch	color	switch	stim	poldrack-single-stim	s483	0	False
258.634	1.0	259.43	0.1	2.0	True	71.0	Magnitude	n/a	twobytwo	71.0	0.696	orange	7.0	task_switch	magnitude	switch	stim	poldrack-single-stim	s483	0	False
261.539	1.0	262.952	0.9	2.0	True	71.0	Color	n/a	twobytwo	71.0	0.513	blue	4.0	task_switch	color	switch	stim	poldrack-single-stim	s483	0	False
264.443	1.0	266.236	0.9	2.0	True	89.0	Orange-Blue	switch	twobytwo	89.0	0.893	orange	8.0	cue_switch	color	stay	stim	poldrack-single-stim	s483	0	False
266.546	1.0	267.472	0.1	2.0	True	71.0	High-Low	n/a	twobytwo	71.0	0.826	orange	9.0	task_switch	magnitude	switch	stim	poldrack-single-stim	s483	0	False
269.451	1.0	271.162	0.9	2.136	True	71.0	Color	n/a	twobytwo	71.0	0.811	blue	8.0	task_switch	color	switch	stim	poldrack-single-stim	s483	0	False
271.691	1.0	272.797	0.1	2.0	True	71.0	Orange-Blue	switch	twobytwo	71.0	1.006	blue	6.0	cue_switch	color	stay	stim	poldrack-single-stim	s483	0	False
273.797	1.0	274.647	0.1	2.0	True	89.0	High-Low	n/a	twobytwo	89.0	0.75	blue	3.0	task_switch	magnitude	switch	stim	poldrack-single-stim	s483	0	False
276.702	1.0	278.122	0.9	2.0	True	71.0	Magnitude	switch	twobytwo	71.0	0.52	blue	7.0	cue_switch	magnitude	stay	stim	poldrack-single-stim	s483	0	False
279.606	1.0	280.966	0.9	2.272	True	71.0	Color	n/a	twobytwo	71.0	0.46	blue	7.0	task_switch	color	switch	stim	poldrack-single-stim	s483	0	False
281.984	1.0	282.868	0.1	2.136	True	71.0	Magnitude	n/a	twobytwo	71.0	0.784	blue	9.0	task_switch	magnitude	switch	stim	poldrack-single-stim	s483	0	False
285.025	1.0	286.521	0.9	2.0	True	89.0	Magnitude	stay	twobytwo	89.0	0.596	blue	2.0	cue_stay	magnitude	stay	stim	poldrack-single-stim	s483	0	False
287.13	1.0	287.787	0.1	2.136	False	89.0	Color	n/a	twobytwo	71.0	0.557	orange	9.0	task_switch	color	switch	stim	poldrack-single-stim	s483	0	False
290.171	1.0	291.501	0.9	2.816	True	89.0	High-Low	n/a	twobytwo	89.0	0.43	blue	3.0	task_switch	magnitude	switch	stim	poldrack-single-stim	s483	0	False
293.892	1.0	295.465	0.9	2.408	True	89.0	High-Low	stay	twobytwo	89.0	0.673	blue	4.0	cue_stay	magnitude	stay	stim	poldrack-single-stim	s483	0	False
297.205	1.0	298.674	0.9	2.0	True	89.0	Color	n/a	twobytwo	89.0	0.569	orange	1.0	task_switch	color	switch	stim	poldrack-single-stim	s483	0	False
299.309	1.0	300.382	0.1	2.136	True	71.0	Orange-Blue	switch	twobytwo	71.0	0.973	blue	3.0	cue_switch	color	stay	stim	poldrack-single-stim	s483	0	False
302.348	1.0	303.607	0.9	2.136	True	71.0	Orange-Blue	stay	twobytwo	71.0	0.359	blue	2.0	cue_stay	color	stay	stim	poldrack-single-stim	s483	0	False
304.589	1.0	305.407	0.1	2.136	True	71.0	High-Low	n/a	twobytwo	71.0	0.718	blue	7.0	task_switch	magnitude	switch	stim	poldrack-single-stim	s483	0	False
306.828	1.0	307.566	0.1	2.544	True	89.0	High-Low	stay	twobytwo	89.0	0.638	blue	4.0	cue_stay	magnitude	stay	stim	poldrack-single-stim	s483	0	False
310.277	1.0	312.182	0.9	2.136	True	89.0	Orange-Blue	n/a	twobytwo	89.0	1.005	orange	4.0	task_switch	color	switch	stim	poldrack-single-stim	s483	0	False
312.517	1.0	313.493	0.1	2.0	True	71.0	Color	switch	twobytwo	71.0	0.876	blue	2.0	cue_switch	color	stay	stim	poldrack-single-stim	s483	0	False
315.421	1.0	317.07	0.9	2.0	True	71.0	Orange-Blue	switch	twobytwo	71.0	0.749	blue	1.0	cue_switch	color	stay	stim	poldrack-single-stim	s483	0	False
318.327	1.0	319.715	0.9	2.0	True	71.0	High-Low	n/a	twobytwo	71.0	0.488	blue	8.0	task_switch	magnitude	switch	stim	poldrack-single-stim	s483	0	False
321.232	1.0	322.8	0.9	2.0	True	89.0	Color	n/a	twobytwo	89.0	0.668	orange	8.0	task_switch	color	switch	stim	poldrack-single-stim	s483	0	False
323.336	1.0	323.933	0.1	2.136	True	89.0	Color	stay	twobytwo	89.0	0.497	orange	4.0	cue_stay	color	stay	stim	poldrack-single-stim	s483	0	False
325.576	1.0	326.393	0.1	2.0	True	89.0	Color	stay	twobytwo	89.0	0.717	orange	4.0	cue_stay	color	stay	stim	poldrack-single-stim	s483	0	False
328.483	1.0	329.832	0.9	2.0	True	89.0	Magnitude	n/a	twobytwo	89.0	0.449	orange	3.0	task_switch	magnitude	switch	stim	poldrack-single-stim	s483	0	False
331.387	1.0	332.956	0.9	2.0	True	89.0	Orange-Blue	n/a	twobytwo	89.0	0.669	orange	7.0	task_switch	color	switch	stim	poldrack-single-stim	s483	0	False
333.491	1.0	334.575	0.1	2.136	False	89.0	High-Low	n/a	twobytwo	71.0	0.984	blue	4.0	task_switch	magnitude	switch	stim	poldrack-single-stim	s483	0	False
335.732	1.0	336.659	0.1	2.136	True	89.0	Color	n/a	twobytwo	89.0	0.827	orange	6.0	task_switch	color	switch	stim	poldrack-single-stim	s483	0	False
337.972	1.0	338.862	0.1	2.136	True	71.0	Orange-Blue	switch	twobytwo	71.0	0.79	blue	8.0	cue_switch	color	stay	stim	poldrack-single-stim	s483	0	False
341.012	1.0	342.33	0.9	2.136	True	71.0	Magnitude	n/a	twobytwo	71.0	0.418	blue	8.0	task_switch	magnitude	switch	stim	poldrack-single-stim	s483	0	False
344.052	1.0	345.368	0.9	2.68	True	89.0	Magnitude	stay	twobytwo	89.0	0.416	orange	4.0	cue_stay	magnitude	stay	stim	poldrack-single-stim	s483	0	False
347.636	1.0	348.97	0.9	2.544	True	89.0	Magnitude	stay	twobytwo	89.0	0.434	orange	3.0	cue_stay	magnitude	stay	stim	poldrack-single-stim	s483	0	False
351.085	1.0	352.589	0.9	2.272	True	71.0	Magnitude	stay	twobytwo	71.0	0.604	blue	6.0	cue_stay	magnitude	stay	stim	poldrack-single-stim	s483	0	False
353.461	1.0	354.143	0.1	2.272	True	89.0	High-Low	switch	twobytwo	89.0	0.582	blue	2.0	cue_switch	magnitude	stay	stim	poldrack-single-stim	s483	0	False
356.638	1.0	357.976	0.9	2.408	True	71.0	Orange-Blue	n/a	twobytwo	71.0	0.438	blue	4.0	task_switch	color	switch	stim	poldrack-single-stim	s483	0	False
359.951	1.0	361.928	0.9	2.136	True	71.0	High-Low	n/a	twobytwo	71.0	1.077	orange	6.0	task_switch	magnitude	switch	stim	poldrack-single-stim	s483	0	False
362.191	1.0	362.92	0.1	2.272	True	89.0	High-Low	stay	twobytwo	89.0	0.629	blue	3.0	cue_stay	magnitude	stay	stim	poldrack-single-stim	s483	0	False
365.368	1.0	366.804	0.9	2.0	True	71.0	High-Low	stay	twobytwo	71.0	0.536	blue	6.0	cue_stay	magnitude	stay	stim	poldrack-single-stim	s483	0	False
367.472	1.0	368.322	0.1	2.136	False	71.0	Color	n/a	twobytwo	89.0	0.75	blue	1.0	task_switch	color	switch	stim	poldrack-single-stim	s483	0	False
369.71	1.0	370.436	0.1	2.272	True	71.0	High-Low	n/a	twobytwo	71.0	0.626	orange	9.0	task_switch	magnitude	switch	stim	poldrack-single-stim	s483	0	False
372.887	1.0	374.527	0.9	2.0	True	71.0	High-Low	stay	twobytwo	71.0	0.74	orange	6.0	cue_stay	magnitude	stay	stim	poldrack-single-stim	s483	0	False
374.992	1.0	376.142	0.1	2.68	True	71.0	Color	n/a	twobytwo	71.0	1.05	blue	6.0	task_switch	color	switch	stim	poldrack-single-stim	s483	0	False
378.576	1.0	380.065	0.9	2.0	True	71.0	Orange-Blue	switch	twobytwo	71.0	0.589	blue	7.0	cue_switch	color	stay	stim	poldrack-single-stim	s483	0	False
381.48	1.0	383.418	0.9	2.0	False	71.0	Magnitude	n/a	twobytwo	89.0	1.038	orange	8.0	task_switch	magnitude	switch	stim	poldrack-single-stim	s483	0	False
383.587	1.0	384.429	0.1	2.0	True	71.0	Magnitude	stay	twobytwo	71.0	0.742	orange	8.0	cue_stay	magnitude	stay	stim	poldrack-single-stim	s483	0	False
385.691	1.0	386.495	0.1	2.272	True	89.0	High-Low	switch	twobytwo	89.0	0.704	orange	4.0	cue_switch	magnitude	stay	stim	poldrack-single-stim	s483	0	False
388.867	1.0	390.227	0.9	2.0	True	89.0	High-Low	stay	twobytwo	89.0	0.46	orange	3.0	cue_stay	magnitude	stay	stim	poldrack-single-stim	s483	0	False
391.772	1.0	393.651	0.9	2.0	True	71.0	Orange-Blue	n/a	twobytwo	71.0	0.979	blue	2.0	task_switch	color	switch	stim	poldrack-single-stim	s483	0	False
393.878	1.0	395.159	0.1	2.0	True	89.0	Magnitude	n/a	twobytwo	89.0	1.181	orange	2.0	task_switch	magnitude	switch	stim	poldrack-single-stim	s483	0	False
396.783	1.0	398.156	0.9	2.68	True	71.0	High-Low	switch	twobytwo	71.0	0.473	blue	8.0	cue_switch	magnitude	stay	stim	poldrack-single-stim	s483	0	False
400.368	1.0	402.056	0.9	2.0	True	71.0	Color	n/a	twobytwo	71.0	0.788	blue	3.0	task_switch	color	switch	stim	poldrack-single-stim	s483	0	False
403.273	1.0	404.842	0.9	2.136	True	71.0	Magnitude	n/a	twobytwo	71.0	0.669	orange	7.0	task_switch	magnitude	switch	stim	poldrack-single-stim	s483	0	False
405.514	1.0	406.263	0.1	2.408	True	71.0	Magnitude	stay	twobytwo	71.0	0.649	blue	8.0	cue_stay	magnitude	stay	stim	poldrack-single-stim	s483	0	False
408.828	1.0	410.153	0.9	2.136	True	89.0	Orange-Blue	n/a	twobytwo	89.0	0.425	orange	7.0	task_switch	color	switch	stim	poldrack-single-stim	s483	0	False
411.068	1.0	412.101	0.1	2.0	True	89.0	Orange-Blue	stay	twobytwo	89.0	0.933	orange	9.0	cue_stay	color	stay	stim	poldrack-single-stim	s483	0	False
413.173	1.0	413.982	0.1	2.0	True	89.0	Color	switch	twobytwo	89.0	0.709	orange	2.0	cue_switch	color	stay	stim	poldrack-single-stim	s483	0	False
415.277	1.0	416.012	0.1	2.544	True	71.0	Color	stay	twobytwo	71.0	0.635	blue	6.0	cue_stay	color	stay	stim	poldrack-single-stim	s483	0	False
417.926	1.0	418.676	0.1	2.136	True	89.0	Color	stay	twobytwo	89.0	0.65	orange	3.0	cue_stay	color	stay	stim	poldrack-single-stim	s483	0	False
420.167	1.0	421.364	0.1	2.544	True	89.0	High-Low	n/a	twobytwo	89.0	1.097	orange	3.0	task_switch	magnitude	switch	stim	poldrack-single-stim	s483	0	False
423.616	1.0	424.95	0.9	2.68	True	71.0	Color	n/a	twobytwo	71.0	0.434	blue	1.0	task_switch	color	switch	stim	poldrack-single-stim	s483	0	False
426.401	1.0	427.022	0.1	2.0	True	71.0	Color	stay	twobytwo	71.0	0.521	blue	3.0	cue_stay	color	stay	stim	poldrack-single-stim	s483	0	False
428.505	1.0	429.382	0.1	2.272	True	89.0	Orange-Blue	switch	twobytwo	89.0	0.777	orange	7.0	cue_switch	color	stay	stim	poldrack-single-stim	s483	0	False
431.682	1.0	432.993	0.9	3.088	True	89.0	Orange-Blue	stay	twobytwo	89.0	0.411	orange	1.0	cue_stay	color	stay	stim	poldrack-single-stim	s483	0	False
434.875	1.0	435.523	0.1	2.0	True	89.0	High-Low	n/a	twobytwo	89.0	0.548	orange	3.0	task_switch	magnitude	switch	stim	poldrack-single-stim	s483	0	False
436.979	1.0	438.353	0.1	2.136	True	89.0	Magnitude	switch	twobytwo	89.0	1.274	blue	3.0	cue_switch	magnitude	stay	stim	poldrack-single-stim	s483	0	False
440.019	1.0	441.668	0.9	2.136	True	71.0	High-Low	switch	twobytwo	71.0	0.749	blue	9.0	cue_switch	magnitude	stay	stim	poldrack-single-stim	s483	0	False
442.258	1.0	443.544	0.1	2.0	True	71.0	Orange-Blue	n/a	twobytwo	71.0	1.186	blue	3.0	task_switch	color	switch	stim	poldrack-single-stim	s483	0	False
445.163	1.0	446.47	0.9	2.272	True	71.0	Magnitude	n/a	twobytwo	71.0	0.407	blue	8.0	task_switch	magnitude	switch	stim	poldrack-single-stim	s483	0	False
447.539	1.0	448.347	0.1	2.0	True	89.0	Color	n/a	twobytwo	89.0	0.708	orange	1.0	task_switch	color	switch	stim	poldrack-single-stim	s483	0	False
463.156	1.0	464.122	0.1	2.136	True	89.0	Magnitude	stay	twobytwo	89.0	0.866	blue	1.0	cue_stay	magnitude	stay	stim	poldrack-single-stim	s483	1	False
466.196	1.0	467.917	0.9	2.136	True	71.0	Color	n/a	twobytwo	71.0	0.821	blue	6.0	task_switch	color	switch	stim	poldrack-single-stim	s483	0	False
468.436	1.0	469.731	0.1	2.544	True	71.0	High-Low	n/a	twobytwo	71.0	1.195	orange	7.0	task_switch	magnitude	switch	stim	poldrack-single-stim	s483	0	False
471.084	1.0	471.854	0.1	2.0	True	71.0	Orange-Blue	n/a	twobytwo	71.0	0.67	blue	8.0	task_switch	color	switch	stim	poldrack-single-stim	s483	0	False
473.988	1.0	475.294	0.9	2.136	True	89.0	High-Low	n/a	twobytwo	89.0	0.406	orange	2.0	task_switch	magnitude	switch	stim	poldrack-single-stim	s483	0	False
477.028	1.0	478.54	0.9	2.136	True	71.0	High-Low	stay	twobytwo	71.0	0.612	blue	6.0	cue_stay	magnitude	stay	stim	poldrack-single-stim	s483	0	False
480.067	1.0	481.453	0.9	2.136	True	89.0	Magnitude	switch	twobytwo	89.0	0.486	blue	1.0	cue_switch	magnitude	stay	stim	poldrack-single-stim	s483	0	False
482.309	1.0	482.98	0.1	2.0	True	71.0	High-Low	switch	twobytwo	71.0	0.571	blue	6.0	cue_switch	magnitude	stay	stim	poldrack-single-stim	s483	0	False
485.215	1.0	486.857	0.9	2.136	True	89.0	Color	n/a	twobytwo	89.0	0.742	orange	3.0	task_switch	color	switch	stim	poldrack-single-stim	s483	0	False
487.455	1.0	488.334	0.1	2.0	True	71.0	High-Low	n/a	twobytwo	71.0	0.779	orange	7.0	task_switch	magnitude	switch	stim	poldrack-single-stim	s483	0	False
490.361	1.0	492.196	0.9	2.136	True	71.0	Orange-Blue	n/a	twobytwo	71.0	0.935	blue	4.0	task_switch	color	switch	stim	poldrack-single-stim	s483	0	False
493.402	1.0	495.16	0.9	2.816	True	89.0	Color	switch	twobytwo	89.0	0.858	orange	8.0	cue_switch	color	stay	stim	poldrack-single-stim	s483	0	False
496.322	1.0	496.995	0.1	2.136	True	71.0	Magnitude	n/a	twobytwo	71.0	0.573	orange	9.0	task_switch	magnitude	switch	stim	poldrack-single-stim	s483	0	False
499.363	1.0	501.011	0.9	2.0	True	71.0	Color	n/a	twobytwo	71.0	0.748	blue	8.0	task_switch	color	switch	stim	poldrack-single-stim	s483	0	False
501.466	1.0	502.365	0.1	2.0	True	71.0	Orange-Blue	switch	twobytwo	71.0	0.799	blue	6.0	cue_switch	color	stay	stim	poldrack-single-stim	s483	0	False
503.571	1.0	504.302	0.1	2.272	True	89.0	Magnitude	n/a	twobytwo	89.0	0.631	blue	3.0	task_switch	magnitude	switch	stim	poldrack-single-stim	s483	0	False
506.747	1.0	508.101	0.9	2.0	True	71.0	High-Low	switch	twobytwo	71.0	0.454	blue	7.0	cue_switch	magnitude	stay	stim	poldrack-single-stim	s483	0	False
509.65	1.0	510.968	0.9	2.0	True	71.0	Orange-Blue	n/a	twobytwo	71.0	0.418	blue	7.0	task_switch	color	switch	stim	poldrack-single-stim	s483	0	False
511.755	1.0	512.525	0.1	2.0	True	71.0	Magnitude	n/a	twobytwo	71.0	0.67	blue	9.0	task_switch	magnitude	switch	stim	poldrack-single-stim	s483	0	False
514.66	1.0	515.988	0.9	2.408	True	89.0	Magnitude	stay	twobytwo	89.0	0.428	blue	2.0	cue_stay	magnitude	stay	stim	poldrack-single-stim	s483	0	False
517.174	1.0	518.172	0.1	2.272	True	89.0	Orange-Blue	n/a	twobytwo	89.0	0.898	orange	9.0	task_switch	color	switch	stim	poldrack-single-stim	s483	0	False
520.352	1.0	521.712	0.9	2.136	True	89.0	Magnitude	n/a	twobytwo	89.0	0.46	blue	3.0	task_switch	magnitude	switch	stim	poldrack-single-stim	s483	0	False
523.392	1.0	524.814	0.9	2.0	True	89.0	Magnitude	stay	twobytwo	89.0	0.522	blue	4.0	cue_stay	magnitude	stay	stim	poldrack-single-stim	s483	0	False
526.297	1.0	527.94	0.9	2.0	True	89.0	Orange-Blue	n/a	twobytwo	89.0	0.743	orange	1.0	task_switch	color	switch	stim	poldrack-single-stim	s483	0	False
528.401	1.0	529.704	0.1	2.136	True	71.0	Color	switch	twobytwo	71.0	1.203	blue	3.0	cue_switch	color	stay	stim	poldrack-single-stim	s483	0	False
531.441	1.0	532.673	0.9	2.0	True	71.0	Color	stay	twobytwo	71.0	0.332	blue	2.0	cue_stay	color	stay	stim	poldrack-single-stim	s483	0	False
533.546	1.0	534.413	0.1	2.136	True	71.0	High-Low	n/a	twobytwo	71.0	0.767	blue	7.0	task_switch	magnitude	switch	stim	poldrack-single-stim	s483	0	False
535.788	1.0	536.633	0.1	2.408	True	89.0	High-Low	stay	twobytwo	89.0	0.745	blue	4.0	cue_stay	magnitude	stay	stim	poldrack-single-stim	s483	0	False
539.1	1.0	540.954	0.9	2.136	True	89.0	Orange-Blue	n/a	twobytwo	89.0	0.954	orange	4.0	task_switch	color	switch	stim	poldrack-single-stim	s483	0	False
541.34	1.0	542.487	0.1	2.0	True	71.0	Color	switch	twobytwo	71.0	1.047	blue	2.0	cue_switch	color	stay	stim	poldrack-single-stim	s483	0	False
544.245	1.0	545.509	0.9	2.136	True	71.0	Orange-Blue	switch	twobytwo	71.0	0.364	blue	1.0	cue_switch	color	stay	stim	poldrack-single-stim	s483	0	False
547.286	1.0	548.961	0.9	2.272	True	71.0	High-Low	n/a	twobytwo	71.0	0.775	blue	8.0	task_switch	magnitude	switch	stim	poldrack-single-stim	s483	0	False
550.463	1.0	552.342	0.9	2.0	True	89.0	Orange-Blue	n/a	twobytwo	89.0	0.979	orange	8.0	task_switch	color	switch	stim	poldrack-single-stim	s483	0	False
552.567	1.0	553.225	0.1	2.408	True	89.0	Orange-Blue	stay	twobytwo	89.0	0.558	orange	4.0	cue_stay	color	stay	stim	poldrack-single-stim	s483	0	False
555.079	1.0	555.758	0.1	2.0	True	89.0	Orange-Blue	stay	twobytwo	89.0	0.579	orange	4.0	cue_stay	color	stay	stim	poldrack-single-stim	s483	0	False
557.984	1.0	559.416	0.9	2.136	True	89.0	High-Low	n/a	twobytwo	89.0	0.532	orange	3.0	task_switch	magnitude	switch	stim	poldrack-single-stim	s483	0	False
561.024	1.0	562.376	0.9	2.408	True	89.0	Color	n/a	twobytwo	89.0	0.452	orange	7.0	task_switch	color	switch	stim	poldrack-single-stim	s483	0	False
563.538	1.0	564.332	0.1	2.136	False	89.0	Magnitude	n/a	twobytwo	71.0	0.694	blue	4.0	task_switch	magnitude	switch	stim	poldrack-single-stim	s483	0	False
565.778	1.0	566.758	0.1	2.408	True	89.0	Color	n/a	twobytwo	89.0	0.88	orange	6.0	task_switch	color	switch	stim	poldrack-single-stim	s483	0	False
568.291	1.0	569.083	0.1	2.136	True	71.0	Orange-Blue	switch	twobytwo	71.0	0.692	blue	8.0	cue_switch	color	stay	stim	poldrack-single-stim	s483	0	False
571.331	1.0	572.704	0.9	2.0	True	71.0	Magnitude	n/a	twobytwo	71.0	0.473	blue	8.0	task_switch	magnitude	switch	stim	poldrack-single-stim	s483	0	False
574.236	1.0	575.655	0.9	2.272	True	89.0	Magnitude	stay	twobytwo	89.0	0.519	orange	4.0	cue_stay	magnitude	stay	stim	poldrack-single-stim	s483	0	False
577.413	1.0	578.709	0.9	2.0	True	89.0	Magnitude	stay	twobytwo	89.0	0.396	orange	3.0	cue_stay	magnitude	stay	stim	poldrack-single-stim	s483	0	False
580.317	1.0	581.697	0.9	2.272	True	71.0	Magnitude	stay	twobytwo	71.0	0.48	blue	6.0	cue_stay	magnitude	stay	stim	poldrack-single-stim	s483	0	False
582.695	1.0	583.517	0.1	2.272	True	89.0	High-Low	switch	twobytwo	89.0	0.722	blue	2.0	cue_switch	magnitude	stay	stim	poldrack-single-stim	s483	0	False
585.871	1.0	587.586	0.9	2.952	True	71.0	Orange-Blue	n/a	twobytwo	71.0	0.815	blue	4.0	task_switch	color	switch	stim	poldrack-single-stim	s483	0	False
589.728	1.0	591.156	0.9	2.68	True	71.0	Magnitude	n/a	twobytwo	71.0	0.528	orange	6.0	task_switch	magnitude	switch	stim	poldrack-single-stim	s483	0	False
592.514	1.0	593.206	0.1	2.136	True	89.0	Magnitude	stay	twobytwo	89.0	0.592	blue	3.0	cue_stay	magnitude	stay	stim	poldrack-single-stim	s483	0	False
595.555	1.0	596.939	0.9	2.272	True	71.0	Magnitude	stay	twobytwo	71.0	0.484	blue	6.0	cue_stay	magnitude	stay	stim	poldrack-single-stim	s483	0	False
597.931	1.0	598.598	0.1	2.272	False	71.0	Color	n/a	twobytwo	89.0	0.567	blue	1.0	task_switch	color	switch	stim	poldrack-single-stim	s483	0	False
600.307	1.0	601.045	0.1	2.136	True	71.0	Magnitude	n/a	twobytwo	71.0	0.638	orange	9.0	task_switch	magnitude	switch	stim	poldrack-single-stim	s483	0	False
603.347	1.0	604.701	0.9	2.408	False	71.0	Magnitude	stay	twobytwo	89.0	0.454	orange	6.0	cue_stay	magnitude	stay	stim	poldrack-single-stim	s483	0	False
605.859	1.0	606.466	0.1	2.136	True	71.0	Orange-Blue	n/a	twobytwo	71.0	0.507	blue	6.0	task_switch	color	switch	stim	poldrack-single-stim	s483	0	False
608.899	1.0	610.473	0.9	2.136	True	71.0	Color	switch	twobytwo	71.0	0.674	blue	7.0	cue_switch	color	stay	stim	poldrack-single-stim	s483	0	False
611.939	1.0	613.429	0.9	2.0	True	71.0	High-Low	n/a	twobytwo	71.0	0.59	orange	8.0	task_switch	magnitude	switch	stim	poldrack-single-stim	s483	0	False
614.044	1.0	614.709	0.1	2.0	True	71.0	High-Low	stay	twobytwo	71.0	0.565	orange	8.0	cue_stay	magnitude	stay	stim	poldrack-single-stim	s483	0	False
616.147	1.0	616.971	0.1	2.0	True	89.0	Magnitude	switch	twobytwo	89.0	0.724	orange	4.0	cue_switch	magnitude	stay	stim	poldrack-single-stim	s483	0	False
619.052	1.0	620.44	0.9	2.0	True	89.0	Magnitude	stay	twobytwo	89.0	0.488	orange	3.0	cue_stay	magnitude	stay	stim	poldrack-single-stim	s483	0	False
621.957	1.0	623.252	0.9	2.0	True	71.0	Orange-Blue	n/a	twobytwo	71.0	0.395	blue	2.0	task_switch	color	switch	stim	poldrack-single-stim	s483	0	False
624.062	1.0	624.884	0.1	2.272	True	89.0	High-Low	n/a	twobytwo	89.0	0.722	orange	2.0	task_switch	magnitude	switch	stim	poldrack-single-stim	s483	0	False
627.239	1.0	628.546	0.9	2.408	True	71.0	Magnitude	switch	twobytwo	71.0	0.407	blue	8.0	cue_switch	magnitude	stay	stim	poldrack-single-stim	s483	0	False
630.551	1.0	631.993	0.9	2.0	True	71.0	Color	n/a	twobytwo	71.0	0.542	blue	3.0	task_switch	color	switch	stim	poldrack-single-stim	s483	0	False
633.455	1.0	634.947	0.9	2.136	True	71.0	High-Low	n/a	twobytwo	71.0	0.592	orange	7.0	task_switch	magnitude	switch	stim	poldrack-single-stim	s483	0	False
635.695	1.0	636.554	0.1	2.0	True	71.0	High-Low	stay	twobytwo	71.0	0.759	blue	8.0	cue_stay	magnitude	stay	stim	poldrack-single-stim	s483	0	False
638.6	1.0	640.234	0.9	2.136	True	89.0	Color	n/a	twobytwo	89.0	0.734	orange	7.0	task_switch	color	switch	stim	poldrack-single-stim	s483	0	False
640.841	1.0	641.387	0.1	2.544	True	89.0	Color	stay	twobytwo	89.0	0.446	orange	9.0	cue_stay	color	stay	stim	poldrack-single-stim	s483	0	False
643.49	1.0	644.153	0.1	2.68	True	89.0	Orange-Blue	switch	twobytwo	89.0	0.563	orange	2.0	cue_switch	color	stay	stim	poldrack-single-stim	s483	0	False
646.276	1.0	646.939	0.1	3.088	True	71.0	Orange-Blue	stay	twobytwo	71.0	0.563	blue	6.0	cue_stay	color	stay	stim	poldrack-single-stim	s483	0	False
649.468	1.0	650.157	0.1	2.136	True	89.0	Orange-Blue	stay	twobytwo	89.0	0.589	orange	3.0	cue_stay	color	stay	stim	poldrack-single-stim	s483	0	False
651.709	1.0	652.301	0.1	2.544	True	89.0	Magnitude	n/a	twobytwo	89.0	0.492	orange	3.0	task_switch	magnitude	switch	stim	poldrack-single-stim	s483	0	False
655.157	1.0	656.543	0.9	2.0	True	71.0	Color	n/a	twobytwo	71.0	0.486	blue	1.0	task_switch	color	switch	stim	poldrack-single-stim	s483	0	False
657.262	1.0	658.431	0.1	2.136	True	71.0	Color	stay	twobytwo	71.0	1.069	blue	3.0	cue_stay	color	stay	stim	poldrack-single-stim	s483	0	False
659.503	1.0	660.671	0.1	2.0	True	89.0	Orange-Blue	switch	twobytwo	89.0	1.068	orange	7.0	cue_switch	color	stay	stim	poldrack-single-stim	s483	0	False
662.408	1.0	663.734	0.9	2.408	True	89.0	Orange-Blue	stay	twobytwo	89.0	0.426	orange	1.0	cue_stay	color	stay	stim	poldrack-single-stim	s483	0	False
664.92	1.0	665.818	0.1	2.0	True	89.0	High-Low	n/a	twobytwo	89.0	0.798	orange	3.0	task_switch	magnitude	switch	stim	poldrack-single-stim	s483	0	False
667.024	1.0	667.998	0.1	2.0	True	89.0	Magnitude	switch	twobytwo	89.0	0.874	blue	3.0	cue_switch	magnitude	stay	stim	poldrack-single-stim	s483	0	False
669.928	1.0	671.929	0.9	2.0	True	71.0	High-Low	switch	twobytwo	71.0	1.101	blue	9.0	cue_switch	magnitude	stay	stim	poldrack-single-stim	s483	0	False
672.032	1.0	672.687	0.1	2.68	True	71.0	Orange-Blue	n/a	twobytwo	71.0	0.555	blue	3.0	task_switch	color	switch	stim	poldrack-single-stim	s483	0	False
675.617	1.0	676.971	0.9	2.272	True	71.0	Magnitude	n/a	twobytwo	71.0	0.454	blue	8.0	task_switch	magnitude	switch	stim	poldrack-single-stim	s483	0	False
677.994	1.0	678.929	0.1	2.408	True	89.0	Orange-Blue	n/a	twobytwo	89.0	0.835	orange	1.0	task_switch	color	switch	stim	poldrack-single-stim	s483	0	False
