duration	onset	block_duration	movement_onset	planning	condition	exp_stage	experiment_exp_id	key_press	problem_id	response_time	trial_id	trial_type	worker_id	junk
6.433	3.009	6.433	9.442	1	UA_with_intermediate	practice	ward_and_allport	71	0.0	6.433	to_hand	poldrack-single-stim	s483	False
0.1	9.443	1.023	10.466	0	UA_with_intermediate	practice	ward_and_allport	82	0.0	1.023	to_board	poldrack-single-stim	s483	False
0.1	10.468	1.715	12.183	0	UA_with_intermediate	practice	ward_and_allport	71	0.0	1.715	to_hand	poldrack-single-stim	s483	False
0.1	12.184	0.72	12.904	0	UA_with_intermediate	practice	ward_and_allport	89	0.0	0.72	to_board	poldrack-single-stim	s483	False
0.1	12.905	0.891	13.796	0	UA_with_intermediate	practice	ward_and_allport	82	0.0	0.891	to_hand	poldrack-single-stim	s483	False
0.1	13.798	0.404	14.202	0	UA_with_intermediate	practice	ward_and_allport	89	0.0	0.404	to_board	poldrack-single-stim	s483	False
1.0	14.205	2.5	14.204	0	UA_with_intermediate	practice	ward_and_allport	-1	0.0	n/a	feedback	poldrack-single-stim	s483	False
4.326	16.708	4.326	21.034	1	UA_with_intermediate	practice	ward_and_allport	89	1.0	4.326	to_hand	poldrack-single-stim	s483	False
0.1	21.035	1.92	22.955	0	UA_with_intermediate	practice	ward_and_allport	82	1.0	1.92	to_board	poldrack-single-stim	s483	False
0.1	22.957	0.894	23.851	0	UA_with_intermediate	practice	ward_and_allport	71	1.0	0.894	to_hand	poldrack-single-stim	s483	False
0.1	23.852	0.284	24.136	0	UA_with_intermediate	practice	ward_and_allport	89	1.0	0.284	to_board	poldrack-single-stim	s483	False
0.1	24.138	1.154	25.292	0	UA_with_intermediate	practice	ward_and_allport	82	1.0	1.154	to_hand	poldrack-single-stim	s483	False
0.1	25.293	0.221	25.514	0	UA_with_intermediate	practice	ward_and_allport	89	1.0	0.221	to_board	poldrack-single-stim	s483	False
1.0	25.517	2.1	25.516	0	UA_with_intermediate	practice	ward_and_allport	-1	1.0	n/a	feedback	poldrack-single-stim	s483	False
2.856	27.618	2.856	30.474	1	UA_without_intermediate	practice	ward_and_allport	82	2.0	2.856	to_hand	poldrack-single-stim	s483	False
0.1	30.475	0.323	30.798	0	UA_without_intermediate	practice	ward_and_allport	89	2.0	0.323	to_board	poldrack-single-stim	s483	False
0.1	30.801	2.131	32.932	0	UA_without_intermediate	practice	ward_and_allport	71	2.0	2.131	to_hand	poldrack-single-stim	s483	False
0.1	32.932	0.934	33.866	0	UA_without_intermediate	practice	ward_and_allport	89	2.0	0.934	to_board	poldrack-single-stim	s483	False
0.1	33.868	0.493	34.361	0	UA_without_intermediate	practice	ward_and_allport	71	2.0	0.493	to_hand	poldrack-single-stim	s483	False
0.1	34.362	0.19	34.552	0	UA_without_intermediate	practice	ward_and_allport	89	2.0	0.19	to_board	poldrack-single-stim	s483	False
1.0	34.555	2.2	34.554	0	UA_without_intermediate	practice	ward_and_allport	-1	2.0	n/a	feedback	poldrack-single-stim	s483	False
2.404	36.757	2.404	39.161	1	UA_without_intermediate	practice	ward_and_allport	71	3.0	2.404	to_hand	poldrack-single-stim	s483	False
0.1	39.162	0.206	39.368	0	UA_without_intermediate	practice	ward_and_allport	89	3.0	0.206	to_board	poldrack-single-stim	s483	False
0.1	39.369	1.622	40.991	0	UA_without_intermediate	practice	ward_and_allport	82	3.0	1.622	to_hand	poldrack-single-stim	s483	False
0.1	40.993	0.206	41.199	0	UA_without_intermediate	practice	ward_and_allport	89	3.0	0.206	to_board	poldrack-single-stim	s483	False
0.1	41.201	1.091	42.292	0	UA_without_intermediate	practice	ward_and_allport	71	3.0	1.091	to_hand	poldrack-single-stim	s483	False
0.1	42.293	0.111	42.404	0	UA_without_intermediate	practice	ward_and_allport	89	3.0	0.111	to_board	poldrack-single-stim	s483	False
1.0	42.407	2.0	42.406	0	UA_without_intermediate	practice	ward_and_allport	-1	3.0	n/a	feedback	poldrack-single-stim	s483	False
3.836	46.414	3.836	50.25	1	PA_without_intermediate	test	ward_and_allport	71	0.0	3.836	to_hand	poldrack-single-stim	s483	False
0.1	50.251	0.871	51.122	0	PA_without_intermediate	test	ward_and_allport	82	0.0	0.871	to_board	poldrack-single-stim	s483	False
0.1	51.124	0.727	51.851	0	PA_without_intermediate	test	ward_and_allport	71	0.0	0.727	to_hand	poldrack-single-stim	s483	False
0.1	51.852	0.201	52.053	0	PA_without_intermediate	test	ward_and_allport	89	0.0	0.201	to_board	poldrack-single-stim	s483	False
0.1	52.055	0.676	52.731	0	PA_without_intermediate	test	ward_and_allport	71	0.0	0.676	to_hand	poldrack-single-stim	s483	False
0.1	52.731	0.219	52.95	0	PA_without_intermediate	test	ward_and_allport	82	0.0	0.219	to_board	poldrack-single-stim	s483	False
1.0	52.953	3.088	52.952	0	PA_without_intermediate	test	ward_and_allport	-1	0.0	n/a	feedback	poldrack-single-stim	s483	False
3.944	56.043	3.944	59.987	1	PA_with_intermediate	test	ward_and_allport	89	1.0	3.944	to_hand	poldrack-single-stim	s483	False
0.1	59.987	0.244	60.231	0	PA_with_intermediate	test	ward_and_allport	71	1.0	0.244	to_board	poldrack-single-stim	s483	False
0.1	60.234	1.283	61.517	0	PA_with_intermediate	test	ward_and_allport	89	1.0	1.283	to_hand	poldrack-single-stim	s483	False
0.1	61.518	0.398	61.916	0	PA_with_intermediate	test	ward_and_allport	82	1.0	0.398	to_board	poldrack-single-stim	s483	False
0.1	61.919	0.97	62.889	0	PA_with_intermediate	test	ward_and_allport	71	1.0	0.97	to_hand	poldrack-single-stim	s483	False
0.1	62.89	0.219	63.109	0	PA_with_intermediate	test	ward_and_allport	82	1.0	0.219	to_board	poldrack-single-stim	s483	False
1.0	63.112	2.0	63.111	0	PA_with_intermediate	test	ward_and_allport	-1	1.0	n/a	feedback	poldrack-single-stim	s483	False
1.87	65.114	1.87	66.984	1	PA_without_intermediate	test	ward_and_allport	89	2.0	1.87	to_hand	poldrack-single-stim	s483	False
0.1	66.986	0.373	67.359	0	PA_without_intermediate	test	ward_and_allport	82	2.0	0.373	to_board	poldrack-single-stim	s483	False
0.1	67.362	1.149	68.511	0	PA_without_intermediate	test	ward_and_allport	89	2.0	1.149	to_hand	poldrack-single-stim	s483	False
0.1	68.513	0.182	68.695	0	PA_without_intermediate	test	ward_and_allport	71	2.0	0.182	to_board	poldrack-single-stim	s483	False
0.1	68.697	0.38	69.077	0	PA_without_intermediate	test	ward_and_allport	89	2.0	0.38	to_hand	poldrack-single-stim	s483	False
0.1	69.077	0.144	69.221	0	PA_without_intermediate	test	ward_and_allport	82	2.0	0.144	to_board	poldrack-single-stim	s483	False
1.0	69.225	2.0	69.224	0	PA_without_intermediate	test	ward_and_allport	-1	2.0	n/a	feedback	poldrack-single-stim	s483	False
3.693	71.228	3.693	74.921	1	PA_without_intermediate	test	ward_and_allport	82	3.0	3.693	to_hand	poldrack-single-stim	s483	False
0.1	74.922	0.172	75.094	0	PA_without_intermediate	test	ward_and_allport	71	3.0	0.172	to_board	poldrack-single-stim	s483	False
0.1	75.096	1.241	76.337	0	PA_without_intermediate	test	ward_and_allport	82	3.0	1.241	to_hand	poldrack-single-stim	s483	False
0.1	76.338	0.242	76.58	0	PA_without_intermediate	test	ward_and_allport	71	3.0	0.242	to_board	poldrack-single-stim	s483	False
0.1	76.583	1.137	77.72	0	PA_without_intermediate	test	ward_and_allport	82	3.0	1.137	to_hand	poldrack-single-stim	s483	False
0.1	77.721	0.215	77.936	0	PA_without_intermediate	test	ward_and_allport	89	3.0	0.215	to_board	poldrack-single-stim	s483	False
1.0	77.94	2.0	77.939	0	PA_without_intermediate	test	ward_and_allport	-1	3.0	n/a	feedback	poldrack-single-stim	s483	False
1.774	79.942	1.774	81.716	1	PA_with_intermediate	test	ward_and_allport	71	4.0	1.774	to_hand	poldrack-single-stim	s483	False
0.1	81.718	0.155	81.873	0	PA_with_intermediate	test	ward_and_allport	89	4.0	0.155	to_board	poldrack-single-stim	s483	False
0.1	81.875	3.057	84.932	0	PA_with_intermediate	test	ward_and_allport	89	4.0	3.057	to_hand	poldrack-single-stim	s483	False
0.1	84.934	0.257	85.191	0	PA_with_intermediate	test	ward_and_allport	82	4.0	0.257	to_board	poldrack-single-stim	s483	False
0.1	85.194	1.09	86.284	0	PA_with_intermediate	test	ward_and_allport	71	4.0	1.09	to_hand	poldrack-single-stim	s483	False
0.1	86.285	0.173	86.458	0	PA_with_intermediate	test	ward_and_allport	89	4.0	0.173	to_board	poldrack-single-stim	s483	False
0.1	86.46	2.166	88.626	0	PA_with_intermediate	test	ward_and_allport	82	4.0	2.166	to_hand	poldrack-single-stim	s483	False
0.1	88.627	0.227	88.854	0	PA_with_intermediate	test	ward_and_allport	89	4.0	0.227	to_board	poldrack-single-stim	s483	False
1.0	88.857	2.544	88.856	0	PA_with_intermediate	test	ward_and_allport	-1	4.0	n/a	feedback	poldrack-single-stim	s483	False
2.349	91.403	2.349	93.752	1	PA_without_intermediate	test	ward_and_allport	71	5.0	2.349	to_hand	poldrack-single-stim	s483	False
0.1	93.754	0.145	93.899	0	PA_without_intermediate	test	ward_and_allport	82	5.0	0.145	to_board	poldrack-single-stim	s483	False
0.1	93.901	0.975	94.876	0	PA_without_intermediate	test	ward_and_allport	71	5.0	0.975	to_hand	poldrack-single-stim	s483	False
0.1	94.877	0.225	95.102	0	PA_without_intermediate	test	ward_and_allport	82	5.0	0.225	to_board	poldrack-single-stim	s483	False
0.1	95.106	0.276	95.382	0	PA_without_intermediate	test	ward_and_allport	71	5.0	0.276	to_hand	poldrack-single-stim	s483	False
0.1	95.382	0.2	95.582	0	PA_without_intermediate	test	ward_and_allport	89	5.0	0.2	to_board	poldrack-single-stim	s483	False
1.0	95.586	2.272	95.585	0	PA_without_intermediate	test	ward_and_allport	-1	5.0	n/a	feedback	poldrack-single-stim	s483	False
3.854	97.862	3.854	101.716	1	PA_with_intermediate	test	ward_and_allport	89	6.0	3.854	to_hand	poldrack-single-stim	s483	False
0.1	101.717	0.298	102.015	0	PA_with_intermediate	test	ward_and_allport	71	6.0	0.298	to_board	poldrack-single-stim	s483	False
0.1	102.018	0.33	102.348	0	PA_with_intermediate	test	ward_and_allport	89	6.0	0.33	to_hand	poldrack-single-stim	s483	False
0.1	102.349	0.668	103.017	0	PA_with_intermediate	test	ward_and_allport	82	6.0	0.668	to_board	poldrack-single-stim	s483	False
0.1	103.021	0.806	103.827	0	PA_with_intermediate	test	ward_and_allport	71	6.0	0.806	to_hand	poldrack-single-stim	s483	False
0.1	103.827	0.161	103.988	0	PA_with_intermediate	test	ward_and_allport	89	6.0	0.161	to_board	poldrack-single-stim	s483	False
1.0	103.992	4.04	103.991	0	PA_with_intermediate	test	ward_and_allport	-1	6.0	n/a	feedback	poldrack-single-stim	s483	False
3.055	108.036	3.055	111.091	1	PA_with_intermediate	test	ward_and_allport	82	7.0	3.055	to_hand	poldrack-single-stim	s483	False
0.1	111.092	0.986	112.078	0	PA_with_intermediate	test	ward_and_allport	71	7.0	0.986	to_board	poldrack-single-stim	s483	False
0.1	112.081	0.373	112.454	0	PA_with_intermediate	test	ward_and_allport	82	7.0	0.373	to_hand	poldrack-single-stim	s483	False
0.1	112.456	0.343	112.799	0	PA_with_intermediate	test	ward_and_allport	89	7.0	0.343	to_board	poldrack-single-stim	s483	False
0.1	112.803	0.889	113.692	0	PA_with_intermediate	test	ward_and_allport	71	7.0	0.889	to_hand	poldrack-single-stim	s483	False
0.1	113.692	0.127	113.819	0	PA_with_intermediate	test	ward_and_allport	82	7.0	0.127	to_board	poldrack-single-stim	s483	False
1.0	113.824	2.272	113.823	0	PA_with_intermediate	test	ward_and_allport	-1	7.0	n/a	feedback	poldrack-single-stim	s483	False
2.746	116.1	2.746	118.846	1	PA_with_intermediate	test	ward_and_allport	71	8.0	2.746	to_hand	poldrack-single-stim	s483	False
0.1	118.848	0.284	119.132	0	PA_with_intermediate	test	ward_and_allport	82	8.0	0.284	to_board	poldrack-single-stim	s483	False
0.1	119.134	0.633	119.767	0	PA_with_intermediate	test	ward_and_allport	71	8.0	0.633	to_hand	poldrack-single-stim	s483	False
0.1	119.768	0.175	119.943	0	PA_with_intermediate	test	ward_and_allport	89	8.0	0.175	to_board	poldrack-single-stim	s483	False
0.1	119.947	1.585	121.532	0	PA_with_intermediate	test	ward_and_allport	82	8.0	1.585	to_hand	poldrack-single-stim	s483	False
0.1	121.533	0.026	121.559	0	PA_with_intermediate	test	ward_and_allport	71	8.0	0.026	to_board	poldrack-single-stim	s483	False
1.0	121.564	2.136	121.563	0	PA_with_intermediate	test	ward_and_allport	-1	8.0	n/a	feedback	poldrack-single-stim	s483	False
4.475	123.703	4.475	128.178	1	PA_with_intermediate	test	ward_and_allport	82	9.0	4.475	to_hand	poldrack-single-stim	s483	False
0.1	128.18	0.222	128.402	0	PA_with_intermediate	test	ward_and_allport	89	9.0	0.222	to_board	poldrack-single-stim	s483	False
0.1	128.404	0.346	128.75	0	PA_with_intermediate	test	ward_and_allport	82	9.0	0.346	to_hand	poldrack-single-stim	s483	False
0.1	128.752	0.307	129.059	0	PA_with_intermediate	test	ward_and_allport	71	9.0	0.307	to_board	poldrack-single-stim	s483	False
0.1	129.062	0.518	129.58	0	PA_with_intermediate	test	ward_and_allport	89	9.0	0.518	to_hand	poldrack-single-stim	s483	False
0.1	129.58	0.19	129.77	0	PA_with_intermediate	test	ward_and_allport	71	9.0	0.19	to_board	poldrack-single-stim	s483	False
1.0	129.775	2.0	129.774	0	PA_with_intermediate	test	ward_and_allport	-1	9.0	n/a	feedback	poldrack-single-stim	s483	False
3.048	131.779	3.048	134.827	1	PA_with_intermediate	test	ward_and_allport	71	10.0	3.048	to_hand	poldrack-single-stim	s483	False
0.1	134.829	0.145	134.974	0	PA_with_intermediate	test	ward_and_allport	82	10.0	0.145	to_board	poldrack-single-stim	s483	False
0.1	134.979	0.896	135.875	0	PA_with_intermediate	test	ward_and_allport	71	10.0	0.896	to_hand	poldrack-single-stim	s483	False
0.1	135.875	0.073	135.948	0	PA_with_intermediate	test	ward_and_allport	89	10.0	0.073	to_board	poldrack-single-stim	s483	False
0.1	135.952	0.736	136.688	0	PA_with_intermediate	test	ward_and_allport	71	10.0	0.736	to_hand	poldrack-single-stim	s483	False
0.1	136.689	1.187	137.876	0	PA_with_intermediate	test	ward_and_allport	71	10.0	1.187	to_board	poldrack-single-stim	s483	False
0.1	137.881	0.784	138.665	0	PA_with_intermediate	test	ward_and_allport	82	10.0	0.784	to_hand	poldrack-single-stim	s483	False
0.1	138.666	0.192	138.858	0	PA_with_intermediate	test	ward_and_allport	71	10.0	0.192	to_board	poldrack-single-stim	s483	False
1.0	138.865	2.0	138.864	0	PA_with_intermediate	test	ward_and_allport	-1	10.0	n/a	feedback	poldrack-single-stim	s483	False
1.806	140.868	1.806	142.674	1	PA_without_intermediate	test	ward_and_allport	71	11.0	1.806	to_hand	poldrack-single-stim	s483	False
0.1	142.675	0.273	142.948	0	PA_without_intermediate	test	ward_and_allport	82	11.0	0.273	to_board	poldrack-single-stim	s483	False
0.1	142.953	0.849	143.802	0	PA_without_intermediate	test	ward_and_allport	71	11.0	0.849	to_hand	poldrack-single-stim	s483	False
0.1	143.802	0.147	143.949	0	PA_without_intermediate	test	ward_and_allport	89	11.0	0.147	to_board	poldrack-single-stim	s483	False
0.1	143.954	0.199	144.153	0	PA_without_intermediate	test	ward_and_allport	71	11.0	0.199	to_hand	poldrack-single-stim	s483	False
0.1	144.154	0.149	144.303	0	PA_without_intermediate	test	ward_and_allport	82	11.0	0.149	to_board	poldrack-single-stim	s483	False
1.0	144.308	2.408	144.307	0	PA_without_intermediate	test	ward_and_allport	-1	11.0	n/a	feedback	poldrack-single-stim	s483	False
2.75	146.72	2.75	149.47	1	PA_with_intermediate	test	ward_and_allport	71	12.0	2.75	to_hand	poldrack-single-stim	s483	False
0.1	149.471	0.248	149.719	0	PA_with_intermediate	test	ward_and_allport	82	12.0	0.248	to_board	poldrack-single-stim	s483	False
0.1	149.722	0.611	150.333	0	PA_with_intermediate	test	ward_and_allport	71	12.0	0.611	to_hand	poldrack-single-stim	s483	False
0.1	150.334	0.168	150.502	0	PA_with_intermediate	test	ward_and_allport	89	12.0	0.168	to_board	poldrack-single-stim	s483	False
0.1	150.506	0.435	150.941	0	PA_with_intermediate	test	ward_and_allport	82	12.0	0.435	to_hand	poldrack-single-stim	s483	False
0.1	150.943	0.221	151.164	0	PA_with_intermediate	test	ward_and_allport	89	12.0	0.221	to_board	poldrack-single-stim	s483	False
1.0	151.17	3.768	151.169	0	PA_with_intermediate	test	ward_and_allport	-1	12.0	n/a	feedback	poldrack-single-stim	s483	False
2.303	154.942	2.303	157.245	1	PA_with_intermediate	test	ward_and_allport	82	13.0	2.303	to_hand	poldrack-single-stim	s483	False
0.1	157.247	0.884	158.131	0	PA_with_intermediate	test	ward_and_allport	71	13.0	0.884	to_board	poldrack-single-stim	s483	False
0.1	158.135	0.679	158.814	0	PA_with_intermediate	test	ward_and_allport	82	13.0	0.679	to_hand	poldrack-single-stim	s483	False
0.1	158.814	0.168	158.982	0	PA_with_intermediate	test	ward_and_allport	89	13.0	0.168	to_board	poldrack-single-stim	s483	False
0.1	158.987	0.868	159.855	0	PA_with_intermediate	test	ward_and_allport	71	13.0	0.868	to_hand	poldrack-single-stim	s483	False
0.1	159.856	0.154	160.01	0	PA_with_intermediate	test	ward_and_allport	82	13.0	0.154	to_board	poldrack-single-stim	s483	False
1.0	160.015	2.68	160.014	0	PA_with_intermediate	test	ward_and_allport	-1	13.0	n/a	feedback	poldrack-single-stim	s483	False
1.514	162.699	1.514	164.213	1	PA_without_intermediate	test	ward_and_allport	82	14.0	1.514	to_hand	poldrack-single-stim	s483	False
0.1	164.213	0.348	164.561	0	PA_without_intermediate	test	ward_and_allport	89	14.0	0.348	to_board	poldrack-single-stim	s483	False
0.1	164.565	1.104	165.669	0	PA_without_intermediate	test	ward_and_allport	82	14.0	1.104	to_hand	poldrack-single-stim	s483	False
0.1	165.669	0.225	165.894	0	PA_without_intermediate	test	ward_and_allport	71	14.0	0.225	to_board	poldrack-single-stim	s483	False
0.1	165.899	0.316	166.215	0	PA_without_intermediate	test	ward_and_allport	82	14.0	0.316	to_hand	poldrack-single-stim	s483	False
0.1	166.215	0.266	166.481	0	PA_without_intermediate	test	ward_and_allport	89	14.0	0.266	to_board	poldrack-single-stim	s483	False
1.0	166.487	3.224	166.486	0	PA_without_intermediate	test	ward_and_allport	-1	14.0	n/a	feedback	poldrack-single-stim	s483	False
2.306	174.717	2.306	177.023	1	PA_without_intermediate	test	ward_and_allport	82	15.0	2.306	to_hand	poldrack-single-stim	s483	False
0.1	177.024	0.176	177.2	0	PA_without_intermediate	test	ward_and_allport	89	15.0	0.176	to_board	poldrack-single-stim	s483	False
0.1	177.204	0.241	177.445	0	PA_without_intermediate	test	ward_and_allport	82	15.0	0.241	to_hand	poldrack-single-stim	s483	False
0.1	177.446	0.494	177.94	0	PA_without_intermediate	test	ward_and_allport	89	15.0	0.494	to_board	poldrack-single-stim	s483	False
0.1	177.945	0.236	178.181	0	PA_without_intermediate	test	ward_and_allport	82	15.0	0.236	to_hand	poldrack-single-stim	s483	False
0.1	178.182	0.152	178.334	0	PA_without_intermediate	test	ward_and_allport	71	15.0	0.152	to_board	poldrack-single-stim	s483	False
1.0	178.339	3.36	178.338	0	PA_without_intermediate	test	ward_and_allport	-1	15.0	n/a	feedback	poldrack-single-stim	s483	False
1.42	181.703	1.42	183.123	1	PA_without_intermediate	test	ward_and_allport	82	16.0	1.42	to_hand	poldrack-single-stim	s483	False
0.1	183.125	0.164	183.289	0	PA_without_intermediate	test	ward_and_allport	89	16.0	0.164	to_board	poldrack-single-stim	s483	False
0.1	183.293	0.203	183.496	0	PA_without_intermediate	test	ward_and_allport	82	16.0	0.203	to_hand	poldrack-single-stim	s483	False
0.1	183.497	0.203	183.7	0	PA_without_intermediate	test	ward_and_allport	89	16.0	0.203	to_board	poldrack-single-stim	s483	False
0.1	183.704	0.3	184.004	0	PA_without_intermediate	test	ward_and_allport	82	16.0	0.3	to_hand	poldrack-single-stim	s483	False
0.1	184.006	0.181	184.187	0	PA_without_intermediate	test	ward_and_allport	71	16.0	0.181	to_board	poldrack-single-stim	s483	False
1.0	184.192	2.0	184.191	0	PA_without_intermediate	test	ward_and_allport	-1	16.0	n/a	feedback	poldrack-single-stim	s483	False
1.798	186.199	1.798	187.997	1	PA_without_intermediate	test	ward_and_allport	71	17.0	1.798	to_hand	poldrack-single-stim	s483	False
0.1	187.998	0.162	188.16	0	PA_without_intermediate	test	ward_and_allport	89	17.0	0.162	to_board	poldrack-single-stim	s483	False
0.1	188.165	0.503	188.668	0	PA_without_intermediate	test	ward_and_allport	71	17.0	0.503	to_hand	poldrack-single-stim	s483	False
0.1	188.669	0.216	188.885	0	PA_without_intermediate	test	ward_and_allport	89	17.0	0.216	to_board	poldrack-single-stim	s483	False
0.1	188.89	0.198	189.088	0	PA_without_intermediate	test	ward_and_allport	71	17.0	0.198	to_hand	poldrack-single-stim	s483	False
0.1	189.089	0.199	189.288	0	PA_without_intermediate	test	ward_and_allport	82	17.0	0.199	to_board	poldrack-single-stim	s483	False
1.0	189.294	2.408	189.293	0	PA_without_intermediate	test	ward_and_allport	-1	17.0	n/a	feedback	poldrack-single-stim	s483	False
3.768	191.707	3.768	195.475	1	PA_with_intermediate	test	ward_and_allport	89	18.0	3.768	to_hand	poldrack-single-stim	s483	False
0.1	195.477	0.161	195.638	0	PA_with_intermediate	test	ward_and_allport	82	18.0	0.161	to_board	poldrack-single-stim	s483	False
0.1	195.642	0.941	196.583	0	PA_with_intermediate	test	ward_and_allport	89	18.0	0.941	to_hand	poldrack-single-stim	s483	False
0.1	196.584	0.628	197.212	0	PA_with_intermediate	test	ward_and_allport	71	18.0	0.628	to_board	poldrack-single-stim	s483	False
0.1	197.217	0.349	197.566	0	PA_with_intermediate	test	ward_and_allport	82	18.0	0.349	to_hand	poldrack-single-stim	s483	False
0.1	197.567	0.245	197.812	0	PA_with_intermediate	test	ward_and_allport	89	18.0	0.245	to_board	poldrack-single-stim	s483	False
1.0	197.819	2.136	197.818	0	PA_with_intermediate	test	ward_and_allport	-1	18.0	n/a	feedback	poldrack-single-stim	s483	False
1.655	199.959	1.655	201.614	1	PA_without_intermediate	test	ward_and_allport	71	19.0	1.655	to_hand	poldrack-single-stim	s483	False
0.1	201.615	0.269	201.884	0	PA_without_intermediate	test	ward_and_allport	89	19.0	0.269	to_board	poldrack-single-stim	s483	False
0.1	201.889	0.324	202.213	0	PA_without_intermediate	test	ward_and_allport	71	19.0	0.324	to_hand	poldrack-single-stim	s483	False
0.1	202.214	0.316	202.53	0	PA_without_intermediate	test	ward_and_allport	82	19.0	0.316	to_board	poldrack-single-stim	s483	False
0.1	202.536	0.361	202.897	0	PA_without_intermediate	test	ward_and_allport	71	19.0	0.361	to_hand	poldrack-single-stim	s483	False
0.1	202.898	0.206	203.104	0	PA_without_intermediate	test	ward_and_allport	89	19.0	0.206	to_board	poldrack-single-stim	s483	False
1.0	203.11	5.128	203.109	0	PA_without_intermediate	test	ward_and_allport	-1	19.0	n/a	feedback	poldrack-single-stim	s483	False
1.636	208.242	1.636	209.878	1	PA_without_intermediate	test	ward_and_allport	82	20.0	1.636	to_hand	poldrack-single-stim	s483	False
0.1	209.88	0.253	210.133	0	PA_without_intermediate	test	ward_and_allport	89	20.0	0.253	to_board	poldrack-single-stim	s483	False
0.1	210.137	0.473	210.61	0	PA_without_intermediate	test	ward_and_allport	82	20.0	0.473	to_hand	poldrack-single-stim	s483	False
0.1	210.612	0.253	210.865	0	PA_without_intermediate	test	ward_and_allport	71	20.0	0.253	to_board	poldrack-single-stim	s483	False
0.1	210.874	0.261	211.135	0	PA_without_intermediate	test	ward_and_allport	82	20.0	0.261	to_hand	poldrack-single-stim	s483	False
0.1	211.136	0.132	211.268	0	PA_without_intermediate	test	ward_and_allport	89	20.0	0.132	to_board	poldrack-single-stim	s483	False
1.0	211.275	2.136	211.274	0	PA_without_intermediate	test	ward_and_allport	-1	20.0	n/a	feedback	poldrack-single-stim	s483	False
1.908	213.417	1.908	215.325	1	PA_without_intermediate	test	ward_and_allport	89	21.0	1.908	to_hand	poldrack-single-stim	s483	False
0.1	215.326	0.279	215.605	0	PA_without_intermediate	test	ward_and_allport	82	21.0	0.279	to_board	poldrack-single-stim	s483	False
0.1	215.61	0.318	215.928	0	PA_without_intermediate	test	ward_and_allport	89	21.0	0.318	to_hand	poldrack-single-stim	s483	False
0.1	215.929	0.326	216.255	0	PA_without_intermediate	test	ward_and_allport	82	21.0	0.326	to_board	poldrack-single-stim	s483	False
0.1	216.261	0.218	216.479	0	PA_without_intermediate	test	ward_and_allport	89	21.0	0.218	to_hand	poldrack-single-stim	s483	False
0.1	216.479	0.127	216.606	0	PA_without_intermediate	test	ward_and_allport	71	21.0	0.127	to_board	poldrack-single-stim	s483	False
1.0	216.614	5.264	216.613	0	PA_without_intermediate	test	ward_and_allport	-1	21.0	n/a	feedback	poldrack-single-stim	s483	False
2.111	221.884	2.111	223.995	1	PA_with_intermediate	test	ward_and_allport	89	22.0	2.111	to_hand	poldrack-single-stim	s483	False
0.1	223.995	0.335	224.33	0	PA_with_intermediate	test	ward_and_allport	71	22.0	0.335	to_board	poldrack-single-stim	s483	False
0.1	224.336	0.278	224.614	0	PA_with_intermediate	test	ward_and_allport	89	22.0	0.278	to_hand	poldrack-single-stim	s483	False
0.1	224.615	0.319	224.934	0	PA_with_intermediate	test	ward_and_allport	82	22.0	0.319	to_board	poldrack-single-stim	s483	False
0.1	224.94	0.522	225.462	0	PA_with_intermediate	test	ward_and_allport	71	22.0	0.522	to_hand	poldrack-single-stim	s483	False
0.1	225.462	0.313	225.775	0	PA_with_intermediate	test	ward_and_allport	82	22.0	0.313	to_board	poldrack-single-stim	s483	False
1.0	225.783	4.04	225.782	0	PA_with_intermediate	test	ward_and_allport	-1	22.0	n/a	feedback	poldrack-single-stim	s483	False
1.318	229.83	1.318	231.148	1	PA_with_intermediate	test	ward_and_allport	82	23.0	1.318	to_hand	poldrack-single-stim	s483	False
0.1	231.148	1.657	232.805	0	PA_with_intermediate	test	ward_and_allport	71	23.0	1.657	to_board	poldrack-single-stim	s483	False
0.1	232.811	0.53	233.341	0	PA_with_intermediate	test	ward_and_allport	82	23.0	0.53	to_hand	poldrack-single-stim	s483	False
0.1	233.343	0.689	234.032	0	PA_with_intermediate	test	ward_and_allport	89	23.0	0.689	to_board	poldrack-single-stim	s483	False
0.1	234.037	0.892	234.929	0	PA_with_intermediate	test	ward_and_allport	71	23.0	0.892	to_hand	poldrack-single-stim	s483	False
0.1	234.93	0.517	235.447	0	PA_with_intermediate	test	ward_and_allport	89	23.0	0.517	to_board	poldrack-single-stim	s483	False
1.0	235.455	2.136	235.454	0	PA_with_intermediate	test	ward_and_allport	-1	23.0	n/a	feedback	poldrack-single-stim	s483	False
1.758	237.598	1.758	239.356	1	PA_with_intermediate	test	ward_and_allport	89	24.0	1.758	to_hand	poldrack-single-stim	s483	False
0.1	239.357	0.275	239.632	0	PA_with_intermediate	test	ward_and_allport	82	24.0	0.275	to_board	poldrack-single-stim	s483	False
0.1	239.638	0.311	239.949	0	PA_with_intermediate	test	ward_and_allport	89	24.0	0.311	to_hand	poldrack-single-stim	s483	False
0.1	239.951	0.528	240.479	0	PA_with_intermediate	test	ward_and_allport	71	24.0	0.528	to_board	poldrack-single-stim	s483	False
0.1	240.485	0.454	240.939	0	PA_with_intermediate	test	ward_and_allport	82	24.0	0.454	to_hand	poldrack-single-stim	s483	False
0.1	240.941	0.256	241.197	0	PA_with_intermediate	test	ward_and_allport	71	24.0	0.256	to_board	poldrack-single-stim	s483	False
1.0	241.204	2.408	241.203	0	PA_with_intermediate	test	ward_and_allport	-1	24.0	n/a	feedback	poldrack-single-stim	s483	False
1.72	243.619	1.72	245.339	1	PA_without_intermediate	test	ward_and_allport	71	25.0	1.72	to_hand	poldrack-single-stim	s483	False
0.1	245.341	0.263	245.604	0	PA_without_intermediate	test	ward_and_allport	89	25.0	0.263	to_board	poldrack-single-stim	s483	False
0.1	245.611	1.608	247.219	0	PA_without_intermediate	test	ward_and_allport	71	25.0	1.608	to_hand	poldrack-single-stim	s483	False
0.1	247.22	0.414	247.634	0	PA_without_intermediate	test	ward_and_allport	82	25.0	0.414	to_board	poldrack-single-stim	s483	False
0.1	247.641	0.778	248.419	0	PA_without_intermediate	test	ward_and_allport	71	25.0	0.778	to_hand	poldrack-single-stim	s483	False
0.1	248.42	0.306	248.726	0	PA_without_intermediate	test	ward_and_allport	89	25.0	0.306	to_board	poldrack-single-stim	s483	False
1.0	248.733	2.68	248.732	0	PA_without_intermediate	test	ward_and_allport	-1	25.0	n/a	feedback	poldrack-single-stim	s483	False
1.749	251.42	1.749	253.169	1	PA_with_intermediate	test	ward_and_allport	71	26.0	1.749	to_hand	poldrack-single-stim	s483	False
0.1	253.17	0.579	253.749	0	PA_with_intermediate	test	ward_and_allport	89	26.0	0.579	to_board	poldrack-single-stim	s483	False
0.1	253.756	0.676	254.432	0	PA_with_intermediate	test	ward_and_allport	71	26.0	0.676	to_hand	poldrack-single-stim	s483	False
0.1	254.433	0.275	254.708	0	PA_with_intermediate	test	ward_and_allport	82	26.0	0.275	to_board	poldrack-single-stim	s483	False
0.1	254.714	0.259	254.973	0	PA_with_intermediate	test	ward_and_allport	89	26.0	0.259	to_hand	poldrack-single-stim	s483	False
0.1	254.975	0.207	255.182	0	PA_with_intermediate	test	ward_and_allport	82	26.0	0.207	to_board	poldrack-single-stim	s483	False
1.0	255.189	4.72	255.188	0	PA_with_intermediate	test	ward_and_allport	-1	26.0	n/a	feedback	poldrack-single-stim	s483	False
2.777	259.916	2.777	262.693	1	PA_without_intermediate	test	ward_and_allport	89	27.0	2.777	to_hand	poldrack-single-stim	s483	False
0.1	262.694	0.243	262.937	0	PA_without_intermediate	test	ward_and_allport	71	27.0	0.243	to_board	poldrack-single-stim	s483	False
0.1	262.944	0.188	263.132	0	PA_without_intermediate	test	ward_and_allport	89	27.0	0.188	to_hand	poldrack-single-stim	s483	False
0.1	263.133	0.181	263.314	0	PA_without_intermediate	test	ward_and_allport	82	27.0	0.181	to_board	poldrack-single-stim	s483	False
0.1	263.321	0.22	263.541	0	PA_without_intermediate	test	ward_and_allport	89	27.0	0.22	to_hand	poldrack-single-stim	s483	False
0.1	263.543	0.164	263.707	0	PA_without_intermediate	test	ward_and_allport	71	27.0	0.164	to_board	poldrack-single-stim	s483	False
1.0	263.715	3.224	263.714	0	PA_without_intermediate	test	ward_and_allport	-1	27.0	n/a	feedback	poldrack-single-stim	s483	False
1.322	266.946	1.322	268.268	1	PA_without_intermediate	test	ward_and_allport	89	28.0	1.322	to_hand	poldrack-single-stim	s483	False
0.1	268.269	0.212	268.481	0	PA_without_intermediate	test	ward_and_allport	71	28.0	0.212	to_board	poldrack-single-stim	s483	False
0.1	268.489	0.311	268.8	0	PA_without_intermediate	test	ward_and_allport	89	28.0	0.311	to_hand	poldrack-single-stim	s483	False
0.1	268.801	1.14	269.941	0	PA_without_intermediate	test	ward_and_allport	71	28.0	1.14	to_board	poldrack-single-stim	s483	False
0.1	269.948	0.315	270.263	0	PA_without_intermediate	test	ward_and_allport	89	28.0	0.315	to_hand	poldrack-single-stim	s483	False
0.1	270.265	0.16	270.425	0	PA_without_intermediate	test	ward_and_allport	82	28.0	0.16	to_board	poldrack-single-stim	s483	False
1.0	270.432	2.272	270.431	0	PA_without_intermediate	test	ward_and_allport	-1	28.0	n/a	feedback	poldrack-single-stim	s483	False
2.19	272.712	2.19	274.902	1	PA_with_intermediate	test	ward_and_allport	71	29.0	2.19	to_hand	poldrack-single-stim	s483	False
0.1	274.903	0.222	275.125	0	PA_with_intermediate	test	ward_and_allport	89	29.0	0.222	to_board	poldrack-single-stim	s483	False
0.1	275.133	0.302	275.435	0	PA_with_intermediate	test	ward_and_allport	71	29.0	0.302	to_hand	poldrack-single-stim	s483	False
0.1	275.437	0.285	275.722	0	PA_with_intermediate	test	ward_and_allport	82	29.0	0.285	to_board	poldrack-single-stim	s483	False
0.1	275.73	0.293	276.023	0	PA_with_intermediate	test	ward_and_allport	89	29.0	0.293	to_hand	poldrack-single-stim	s483	False
0.1	276.024	0.355	276.379	0	PA_with_intermediate	test	ward_and_allport	82	29.0	0.355	to_board	poldrack-single-stim	s483	False
1.0	276.388	3.632	276.387	0	PA_with_intermediate	test	ward_and_allport	-1	29.0	n/a	feedback	poldrack-single-stim	s483	False
1.602	285.029	1.602	286.631	1	PA_without_intermediate	test	ward_and_allport	82	30.0	1.602	to_hand	poldrack-single-stim	s483	False
0.1	286.632	0.273	286.905	0	PA_without_intermediate	test	ward_and_allport	71	30.0	0.273	to_board	poldrack-single-stim	s483	False
0.1	286.912	0.254	287.166	0	PA_without_intermediate	test	ward_and_allport	82	30.0	0.254	to_hand	poldrack-single-stim	s483	False
0.1	287.166	0.215	287.381	0	PA_without_intermediate	test	ward_and_allport	71	30.0	0.215	to_board	poldrack-single-stim	s483	False
0.1	287.388	0.642	288.03	0	PA_without_intermediate	test	ward_and_allport	82	30.0	0.642	to_hand	poldrack-single-stim	s483	False
0.1	288.031	0.122	288.153	0	PA_without_intermediate	test	ward_and_allport	89	30.0	0.122	to_board	poldrack-single-stim	s483	False
1.0	288.162	2.408	288.161	0	PA_without_intermediate	test	ward_and_allport	-1	30.0	n/a	feedback	poldrack-single-stim	s483	False
1.882	290.577	1.882	292.459	1	PA_without_intermediate	test	ward_and_allport	71	31.0	1.882	to_hand	poldrack-single-stim	s483	False
0.1	292.46	0.162	292.622	0	PA_without_intermediate	test	ward_and_allport	89	31.0	0.162	to_board	poldrack-single-stim	s483	False
0.1	292.629	0.256	292.885	0	PA_without_intermediate	test	ward_and_allport	71	31.0	0.256	to_hand	poldrack-single-stim	s483	False
0.1	292.886	0.183	293.069	0	PA_without_intermediate	test	ward_and_allport	89	31.0	0.183	to_board	poldrack-single-stim	s483	False
0.1	293.077	0.867	293.944	0	PA_without_intermediate	test	ward_and_allport	71	31.0	0.867	to_hand	poldrack-single-stim	s483	False
0.1	293.945	0.161	294.106	0	PA_without_intermediate	test	ward_and_allport	82	31.0	0.161	to_board	poldrack-single-stim	s483	False
1.0	294.116	2.0	294.115	0	PA_without_intermediate	test	ward_and_allport	-1	31.0	n/a	feedback	poldrack-single-stim	s483	False
3.841	296.123	3.841	299.964	1	PA_with_intermediate	test	ward_and_allport	89	32.0	3.841	to_hand	poldrack-single-stim	s483	False
0.1	299.964	0.233	300.197	0	PA_with_intermediate	test	ward_and_allport	82	32.0	0.233	to_board	poldrack-single-stim	s483	False
0.1	300.205	0.251	300.456	0	PA_with_intermediate	test	ward_and_allport	89	32.0	0.251	to_hand	poldrack-single-stim	s483	False
0.1	300.456	0.384	300.84	0	PA_with_intermediate	test	ward_and_allport	71	32.0	0.384	to_board	poldrack-single-stim	s483	False
0.1	300.848	1.071	301.919	0	PA_with_intermediate	test	ward_and_allport	82	32.0	1.071	to_hand	poldrack-single-stim	s483	False
0.1	301.92	0.199	302.119	0	PA_with_intermediate	test	ward_and_allport	89	32.0	0.199	to_board	poldrack-single-stim	s483	False
1.0	302.129	2.0	302.128	0	PA_with_intermediate	test	ward_and_allport	-1	32.0	n/a	feedback	poldrack-single-stim	s483	False
1.992	304.138	1.992	306.13	1	PA_with_intermediate	test	ward_and_allport	82	33.0	1.992	to_hand	poldrack-single-stim	s483	False
0.1	306.132	0.224	306.356	0	PA_with_intermediate	test	ward_and_allport	89	33.0	0.224	to_board	poldrack-single-stim	s483	False
0.1	306.364	0.265	306.629	0	PA_with_intermediate	test	ward_and_allport	82	33.0	0.265	to_hand	poldrack-single-stim	s483	False
0.1	306.63	0.24	306.87	0	PA_with_intermediate	test	ward_and_allport	71	33.0	0.24	to_board	poldrack-single-stim	s483	False
0.1	306.877	0.28	307.157	0	PA_with_intermediate	test	ward_and_allport	89	33.0	0.28	to_hand	poldrack-single-stim	s483	False
0.1	307.158	0.223	307.381	0	PA_with_intermediate	test	ward_and_allport	71	33.0	0.223	to_board	poldrack-single-stim	s483	False
1.0	307.388	2.0	307.387	0	PA_with_intermediate	test	ward_and_allport	-1	33.0	n/a	feedback	poldrack-single-stim	s483	False
2.87	309.394	2.87	312.264	1	PA_with_intermediate	test	ward_and_allport	71	34.0	2.87	to_hand	poldrack-single-stim	s483	False
0.1	312.264	0.747	313.011	0	PA_with_intermediate	test	ward_and_allport	89	34.0	0.747	to_board	poldrack-single-stim	s483	False
0.1	313.022	0.288	313.31	0	PA_with_intermediate	test	ward_and_allport	71	34.0	0.288	to_hand	poldrack-single-stim	s483	False
0.1	313.311	0.342	313.653	0	PA_with_intermediate	test	ward_and_allport	82	34.0	0.342	to_board	poldrack-single-stim	s483	False
0.1	313.661	0.244	313.905	0	PA_with_intermediate	test	ward_and_allport	89	34.0	0.244	to_hand	poldrack-single-stim	s483	False
0.1	313.906	0.129	314.035	0	PA_with_intermediate	test	ward_and_allport	71	34.0	0.129	to_board	poldrack-single-stim	s483	False
1.0	314.045	2.408	314.044	0	PA_with_intermediate	test	ward_and_allport	-1	34.0	n/a	feedback	poldrack-single-stim	s483	False
1.564	316.461	1.564	318.025	1	PA_without_intermediate	test	ward_and_allport	89	35.0	1.564	to_hand	poldrack-single-stim	s483	False
0.1	318.025	0.46	318.485	0	PA_without_intermediate	test	ward_and_allport	71	35.0	0.46	to_board	poldrack-single-stim	s483	False
0.1	318.492	0.278	318.77	0	PA_without_intermediate	test	ward_and_allport	89	35.0	0.278	to_hand	poldrack-single-stim	s483	False
0.1	318.77	0.186	318.956	0	PA_without_intermediate	test	ward_and_allport	71	35.0	0.186	to_board	poldrack-single-stim	s483	False
0.1	318.962	0.237	319.199	0	PA_without_intermediate	test	ward_and_allport	89	35.0	0.237	to_hand	poldrack-single-stim	s483	False
0.1	319.2	0.17	319.37	0	PA_without_intermediate	test	ward_and_allport	82	35.0	0.17	to_board	poldrack-single-stim	s483	False
1.0	319.378	2.816	319.377	0	PA_without_intermediate	test	ward_and_allport	-1	35.0	n/a	feedback	poldrack-single-stim	s483	False
2.495	322.199	2.495	324.694	1	PA_with_intermediate	test	ward_and_allport	82	36.0	2.495	to_hand	poldrack-single-stim	s483	False
0.1	324.695	0.197	324.892	0	PA_with_intermediate	test	ward_and_allport	89	36.0	0.197	to_board	poldrack-single-stim	s483	False
0.1	324.898	0.212	325.11	0	PA_with_intermediate	test	ward_and_allport	82	36.0	0.212	to_hand	poldrack-single-stim	s483	False
0.1	325.112	0.331	325.443	0	PA_with_intermediate	test	ward_and_allport	71	36.0	0.331	to_board	poldrack-single-stim	s483	False
0.1	325.453	0.294	325.747	0	PA_with_intermediate	test	ward_and_allport	89	36.0	0.294	to_hand	poldrack-single-stim	s483	False
0.1	325.748	0.194	325.942	0	PA_with_intermediate	test	ward_and_allport	82	36.0	0.194	to_board	poldrack-single-stim	s483	False
1.0	325.952	4.176	325.951	0	PA_with_intermediate	test	ward_and_allport	-1	36.0	n/a	feedback	poldrack-single-stim	s483	False
1.466	330.137	1.466	331.603	1	PA_with_intermediate	test	ward_and_allport	82	37.0	1.466	to_hand	poldrack-single-stim	s483	False
0.1	331.605	1.205	332.81	0	PA_with_intermediate	test	ward_and_allport	71	37.0	1.205	to_board	poldrack-single-stim	s483	False
0.1	332.816	0.684	333.5	0	PA_with_intermediate	test	ward_and_allport	82	37.0	0.684	to_hand	poldrack-single-stim	s483	False
0.1	333.5	0.198	333.698	0	PA_with_intermediate	test	ward_and_allport	89	37.0	0.198	to_board	poldrack-single-stim	s483	False
0.1	333.706	0.43	334.136	0	PA_with_intermediate	test	ward_and_allport	71	37.0	0.43	to_hand	poldrack-single-stim	s483	False
0.1	334.137	0.321	334.458	0	PA_with_intermediate	test	ward_and_allport	89	37.0	0.321	to_board	poldrack-single-stim	s483	False
1.0	334.468	3.36	334.467	0	PA_with_intermediate	test	ward_and_allport	-1	37.0	n/a	feedback	poldrack-single-stim	s483	False
4.007	337.837	4.007	341.844	1	PA_with_intermediate	test	ward_and_allport	82	38.0	4.007	to_hand	poldrack-single-stim	s483	False
0.1	341.845	0.262	342.107	0	PA_with_intermediate	test	ward_and_allport	89	38.0	0.262	to_board	poldrack-single-stim	s483	False
0.1	342.117	0.336	342.453	0	PA_with_intermediate	test	ward_and_allport	82	38.0	0.336	to_hand	poldrack-single-stim	s483	False
0.1	342.454	0.285	342.739	0	PA_with_intermediate	test	ward_and_allport	71	38.0	0.285	to_board	poldrack-single-stim	s483	False
0.1	342.749	0.354	343.103	0	PA_with_intermediate	test	ward_and_allport	89	38.0	0.354	to_hand	poldrack-single-stim	s483	False
0.1	343.104	0.147	343.251	0	PA_with_intermediate	test	ward_and_allport	82	38.0	0.147	to_board	poldrack-single-stim	s483	False
1.0	343.26	2.0	343.259	0	PA_with_intermediate	test	ward_and_allport	-1	38.0	n/a	feedback	poldrack-single-stim	s483	False
2.131	345.267	2.131	347.398	1	PA_without_intermediate	test	ward_and_allport	82	39.0	2.131	to_hand	poldrack-single-stim	s483	False
0.1	347.399	0.286	347.685	0	PA_without_intermediate	test	ward_and_allport	71	39.0	0.286	to_board	poldrack-single-stim	s483	False
0.1	347.693	0.231	347.924	0	PA_without_intermediate	test	ward_and_allport	82	39.0	0.231	to_hand	poldrack-single-stim	s483	False
0.1	347.924	0.219	348.143	0	PA_without_intermediate	test	ward_and_allport	89	39.0	0.219	to_board	poldrack-single-stim	s483	False
0.1	348.15	0.448	348.598	0	PA_without_intermediate	test	ward_and_allport	82	39.0	0.448	to_hand	poldrack-single-stim	s483	False
0.1	348.599	0.179	348.778	0	PA_without_intermediate	test	ward_and_allport	71	39.0	0.179	to_board	poldrack-single-stim	s483	False
1.0	348.786	2.408	348.785	0	PA_without_intermediate	test	ward_and_allport	-1	39.0	n/a	feedback	poldrack-single-stim	s483	False
2.973	351.2	2.973	354.173	1	PA_with_intermediate	test	ward_and_allport	71	40.0	2.973	to_hand	poldrack-single-stim	s483	False
0.1	354.174	0.225	354.399	0	PA_with_intermediate	test	ward_and_allport	89	40.0	0.225	to_board	poldrack-single-stim	s483	False
0.1	354.406	0.542	354.948	0	PA_with_intermediate	test	ward_and_allport	71	40.0	0.542	to_hand	poldrack-single-stim	s483	False
0.1	354.948	0.508	355.456	0	PA_with_intermediate	test	ward_and_allport	82	40.0	0.508	to_board	poldrack-single-stim	s483	False
0.1	355.466	0.295	355.761	0	PA_with_intermediate	test	ward_and_allport	89	40.0	0.295	to_hand	poldrack-single-stim	s483	False
0.1	355.762	0.183	355.945	0	PA_with_intermediate	test	ward_and_allport	71	40.0	0.183	to_board	poldrack-single-stim	s483	False
1.0	355.955	2.816	355.954	0	PA_with_intermediate	test	ward_and_allport	-1	40.0	n/a	feedback	poldrack-single-stim	s483	False
2.273	358.78	2.273	361.053	1	PA_without_intermediate	test	ward_and_allport	89	41.0	2.273	to_hand	poldrack-single-stim	s483	False
0.1	361.054	0.279	361.333	0	PA_without_intermediate	test	ward_and_allport	71	41.0	0.279	to_board	poldrack-single-stim	s483	False
0.1	361.34	0.193	361.533	0	PA_without_intermediate	test	ward_and_allport	89	41.0	0.193	to_hand	poldrack-single-stim	s483	False
0.1	361.533	0.177	361.71	0	PA_without_intermediate	test	ward_and_allport	82	41.0	0.177	to_board	poldrack-single-stim	s483	False
0.1	361.72	0.223	361.943	0	PA_without_intermediate	test	ward_and_allport	89	41.0	0.223	to_hand	poldrack-single-stim	s483	False
0.1	361.944	0.157	362.101	0	PA_without_intermediate	test	ward_and_allport	71	41.0	0.157	to_board	poldrack-single-stim	s483	False
1.0	362.113	3.088	362.112	0	PA_without_intermediate	test	ward_and_allport	-1	41.0	n/a	feedback	poldrack-single-stim	s483	False
1.706	365.209	1.706	366.915	1	PA_without_intermediate	test	ward_and_allport	89	42.0	1.706	to_hand	poldrack-single-stim	s483	False
0.1	366.917	0.422	367.339	0	PA_without_intermediate	test	ward_and_allport	82	42.0	0.422	to_board	poldrack-single-stim	s483	False
0.1	367.345	0.323	367.668	0	PA_without_intermediate	test	ward_and_allport	89	42.0	0.323	to_hand	poldrack-single-stim	s483	False
0.1	367.67	0.157	367.827	0	PA_without_intermediate	test	ward_and_allport	71	42.0	0.157	to_board	poldrack-single-stim	s483	False
0.1	367.835	0.17	368.005	0	PA_without_intermediate	test	ward_and_allport	89	42.0	0.17	to_hand	poldrack-single-stim	s483	False
0.1	368.005	0.136	368.141	0	PA_without_intermediate	test	ward_and_allport	82	42.0	0.136	to_board	poldrack-single-stim	s483	False
1.0	368.15	2.136	368.149	0	PA_without_intermediate	test	ward_and_allport	-1	42.0	n/a	feedback	poldrack-single-stim	s483	False
1.711	370.294	1.711	372.005	1	PA_without_intermediate	test	ward_and_allport	82	43.0	1.711	to_hand	poldrack-single-stim	s483	False
0.1	372.006	0.228	372.234	0	PA_without_intermediate	test	ward_and_allport	71	43.0	0.228	to_board	poldrack-single-stim	s483	False
0.1	372.24	0.239	372.479	0	PA_without_intermediate	test	ward_and_allport	82	43.0	0.239	to_hand	poldrack-single-stim	s483	False
0.1	372.479	0.146	372.625	0	PA_without_intermediate	test	ward_and_allport	89	43.0	0.146	to_board	poldrack-single-stim	s483	False
0.1	372.633	0.229	372.862	0	PA_without_intermediate	test	ward_and_allport	82	43.0	0.229	to_hand	poldrack-single-stim	s483	False
0.1	372.862	0.153	373.015	0	PA_without_intermediate	test	ward_and_allport	71	43.0	0.153	to_board	poldrack-single-stim	s483	False
1.0	373.027	7.168	373.026	0	PA_without_intermediate	test	ward_and_allport	-1	43.0	n/a	feedback	poldrack-single-stim	s483	False
2.045	380.202	2.045	382.247	1	PA_without_intermediate	test	ward_and_allport	71	44.0	2.045	to_hand	poldrack-single-stim	s483	False
0.1	382.248	0.269	382.517	0	PA_without_intermediate	test	ward_and_allport	82	44.0	0.269	to_board	poldrack-single-stim	s483	False
0.1	382.528	0.28	382.808	0	PA_without_intermediate	test	ward_and_allport	71	44.0	0.28	to_hand	poldrack-single-stim	s483	False
0.1	382.808	0.174	382.982	0	PA_without_intermediate	test	ward_and_allport	82	44.0	0.174	to_board	poldrack-single-stim	s483	False
0.1	382.993	0.245	383.238	0	PA_without_intermediate	test	ward_and_allport	71	44.0	0.245	to_hand	poldrack-single-stim	s483	False
0.1	383.238	0.18	383.418	0	PA_without_intermediate	test	ward_and_allport	89	44.0	0.18	to_board	poldrack-single-stim	s483	False
1.0	383.429	2.816	383.428	0	PA_without_intermediate	test	ward_and_allport	-1	44.0	n/a	feedback	poldrack-single-stim	s483	False
1.819	391.257	1.819	393.076	1	PA_with_intermediate	test	ward_and_allport	89	45.0	1.819	to_hand	poldrack-single-stim	s483	False
0.1	393.078	0.829	393.907	0	PA_with_intermediate	test	ward_and_allport	71	45.0	0.829	to_board	poldrack-single-stim	s483	False
0.1	393.918	0.227	394.145	0	PA_with_intermediate	test	ward_and_allport	89	45.0	0.227	to_hand	poldrack-single-stim	s483	False
0.1	394.146	0.395	394.541	0	PA_with_intermediate	test	ward_and_allport	82	45.0	0.395	to_board	poldrack-single-stim	s483	False
0.1	394.553	0.814	395.367	0	PA_with_intermediate	test	ward_and_allport	71	45.0	0.814	to_hand	poldrack-single-stim	s483	False
0.1	395.367	0.194	395.561	0	PA_with_intermediate	test	ward_and_allport	89	45.0	0.194	to_board	poldrack-single-stim	s483	False
1.0	395.574	2.952	395.573	0	PA_with_intermediate	test	ward_and_allport	-1	45.0	n/a	feedback	poldrack-single-stim	s483	False
2.109	398.534	2.109	400.643	1	PA_with_intermediate	test	ward_and_allport	89	46.0	2.109	to_hand	poldrack-single-stim	s483	False
0.1	400.643	0.197	400.84	0	PA_with_intermediate	test	ward_and_allport	82	46.0	0.197	to_board	poldrack-single-stim	s483	False
0.1	400.847	0.275	401.122	0	PA_with_intermediate	test	ward_and_allport	89	46.0	0.275	to_hand	poldrack-single-stim	s483	False
0.1	401.122	0.212	401.334	0	PA_with_intermediate	test	ward_and_allport	71	46.0	0.212	to_board	poldrack-single-stim	s483	False
0.1	401.343	0.26	401.603	0	PA_with_intermediate	test	ward_and_allport	82	46.0	0.26	to_hand	poldrack-single-stim	s483	False
0.1	401.604	0.239	401.843	0	PA_with_intermediate	test	ward_and_allport	71	46.0	0.239	to_board	poldrack-single-stim	s483	False
1.0	401.854	2.136	401.853	0	PA_with_intermediate	test	ward_and_allport	-1	46.0	n/a	feedback	poldrack-single-stim	s483	False
2.273	403.997	2.273	406.27	1	PA_without_intermediate	test	ward_and_allport	89	47.0	2.273	to_hand	poldrack-single-stim	s483	False
0.1	406.271	0.203	406.474	0	PA_without_intermediate	test	ward_and_allport	82	47.0	0.203	to_board	poldrack-single-stim	s483	False
0.1	406.482	0.297	406.779	0	PA_without_intermediate	test	ward_and_allport	89	47.0	0.297	to_hand	poldrack-single-stim	s483	False
0.1	406.781	0.489	407.27	0	PA_without_intermediate	test	ward_and_allport	82	47.0	0.489	to_board	poldrack-single-stim	s483	False
0.1	407.278	0.239	407.517	0	PA_without_intermediate	test	ward_and_allport	89	47.0	0.239	to_hand	poldrack-single-stim	s483	False
0.1	407.517	0.138	407.655	0	PA_without_intermediate	test	ward_and_allport	71	47.0	0.138	to_board	poldrack-single-stim	s483	False
1.0	407.666	2.68	407.665	0	PA_without_intermediate	test	ward_and_allport	-1	47.0	n/a	feedback	poldrack-single-stim	s483	False
