onset	duration	SS_delay	block_duration	correct	correct_response	experiment_exp_id	key_press	passed_check	response_time	stop_response	stopped	trial_id	trial_type	worker_id	junk
3.007	0.85	0.25	2.25	1.0	71.0	motor_selective_stop_signal	71.0	True	0.588	71.0	False	stim	crit_go	s483	False
5.26	0.85	0.25	2.25	1.0	71.0	motor_selective_stop_signal	71.0	True	0.545	71.0	False	stim	crit_go	s483	False
7.514	0.85	0.25	2.35	1.0	89.0	motor_selective_stop_signal	89.0	True	0.403	71.0	False	stim	noncrit_signal	s483	False
9.867	0.85	0.25	2.55	1.0	71.0	motor_selective_stop_signal	71.0	True	0.62	71.0	False	stim	crit_stop_failure	s483	False
12.42	0.85	0.2	2.95	1.0	71.0	motor_selective_stop_signal	71.0	True	0.58	71.0	False	stim	crit_go	s483	False
15.373	0.85	0.2	2.25	1.0	71.0	motor_selective_stop_signal	-1.0	True	n/a	71.0	True	stim	crit_stop_success	s483	False
17.626	0.85	0.25	2.35	1.0	71.0	motor_selective_stop_signal	71.0	True	0.725	71.0	False	stim	crit_go	s483	False
19.978	0.85	0.25	2.55	1.0	89.0	motor_selective_stop_signal	89.0	True	0.394	71.0	False	stim	noncrit_nosignal	s483	False
22.531	0.85	0.25	2.25	1.0	89.0	motor_selective_stop_signal	89.0	True	0.461	71.0	False	stim	noncrit_signal	s483	False
24.783	0.85	0.25	2.35	1.0	89.0	motor_selective_stop_signal	89.0	True	0.388	71.0	False	stim	noncrit_signal	s483	False
27.136	0.85	0.25	2.55	1.0	89.0	motor_selective_stop_signal	89.0	True	0.472	71.0	False	stim	noncrit_signal	s483	False
29.689	0.85	0.25	2.45	1.0	89.0	motor_selective_stop_signal	89.0	True	0.63	71.0	False	stim	noncrit_signal	s483	False
32.142	0.85	0.25	2.35	1.0	71.0	motor_selective_stop_signal	71.0	True	0.591	71.0	False	stim	crit_go	s483	False
34.494	0.85	0.25	2.65	1.0	89.0	motor_selective_stop_signal	89.0	True	0.372	71.0	False	stim	noncrit_nosignal	s483	False
37.147	0.85	0.25	2.55	1.0	89.0	motor_selective_stop_signal	89.0	True	0.418	71.0	False	stim	noncrit_nosignal	s483	False
39.701	0.85	0.25	2.75	1.0	71.0	motor_selective_stop_signal	-1.0	True	n/a	71.0	True	stim	crit_stop_success	s483	False
42.453	0.85	0.3	2.55	1.0	71.0	motor_selective_stop_signal	-1.0	True	n/a	71.0	True	stim	crit_stop_success	s483	False
45.006	0.85	0.35	2.45	1.0	89.0	motor_selective_stop_signal	89.0	True	0.409	71.0	False	stim	noncrit_signal	s483	False
47.46	0.85	0.35	2.75	1.0	71.0	motor_selective_stop_signal	71.0	True	0.671	71.0	False	stim	crit_go	s483	False
50.213	0.85	0.35	2.55	1.0	89.0	motor_selective_stop_signal	89.0	True	0.361	71.0	False	stim	noncrit_nosignal	s483	False
52.766	0.85	0.35	2.35	1.0	71.0	motor_selective_stop_signal	-1.0	True	n/a	71.0	True	stim	crit_stop_success	s483	False
55.118	0.85	0.4	2.25	1.0	71.0	motor_selective_stop_signal	71.0	True	0.613	71.0	False	stim	crit_go	s483	False
57.371	0.85	0.4	2.65	1.0	89.0	motor_selective_stop_signal	89.0	True	0.565	71.0	False	stim	noncrit_nosignal	s483	False
60.024	0.85	0.4	2.25	1.0	71.0	motor_selective_stop_signal	71.0	True	0.69	71.0	False	stim	crit_stop_failure	s483	False
62.277	0.85	0.35	2.35	1.0	89.0	motor_selective_stop_signal	89.0	True	0.424	71.0	False	stim	noncrit_nosignal	s483	False
64.629	0.85	0.35	2.25	1.0	71.0	motor_selective_stop_signal	71.0	True	0.569	71.0	False	stim	crit_go	s483	False
66.882	0.85	0.35	2.35	1.0	89.0	motor_selective_stop_signal	89.0	True	0.356	71.0	False	stim	noncrit_nosignal	s483	False
69.235	0.85	0.35	2.35	1.0	71.0	motor_selective_stop_signal	71.0	True	0.564	71.0	False	stim	crit_go	s483	False
71.588	0.85	0.35	2.25	1.0	89.0	motor_selective_stop_signal	89.0	True	0.611	71.0	False	stim	noncrit_nosignal	s483	False
73.841	0.85	0.35	2.85	1.0	89.0	motor_selective_stop_signal	89.0	True	0.413	71.0	False	stim	noncrit_signal	s483	False
76.693	0.85	0.35	2.35	0.0	71.0	motor_selective_stop_signal	89.0	True	0.463	71.0	False	stim	crit_go	s483	False
79.046	0.85	0.35	2.25	0.0	71.0	motor_selective_stop_signal	89.0	True	0.565	71.0	False	stim	crit_go	s483	False
81.299	0.85	0.35	2.35	1.0	89.0	motor_selective_stop_signal	89.0	True	0.538	71.0	False	stim	noncrit_nosignal	s483	False
83.652	0.85	0.35	2.45	1.0	89.0	motor_selective_stop_signal	89.0	True	0.434	71.0	False	stim	noncrit_nosignal	s483	False
86.105	0.85	0.35	2.25	1.0	71.0	motor_selective_stop_signal	-1.0	True	n/a	71.0	True	stim	crit_stop_success	s483	False
88.357	0.85	0.4	2.25	1.0	89.0	motor_selective_stop_signal	89.0	True	0.484	71.0	False	stim	noncrit_signal	s483	False
90.608	0.85	0.4	2.75	1.0	71.0	motor_selective_stop_signal	71.0	True	0.652	71.0	False	stim	crit_go	s483	False
93.361	0.85	0.4	2.35	1.0	89.0	motor_selective_stop_signal	89.0	True	0.442	71.0	False	stim	noncrit_signal	s483	False
95.713	0.85	0.4	2.75	1.0	89.0	motor_selective_stop_signal	89.0	True	0.415	71.0	False	stim	noncrit_nosignal	s483	False
98.466	0.85	0.4	2.45	1.0	89.0	motor_selective_stop_signal	89.0	True	0.58	71.0	False	stim	noncrit_nosignal	s483	False
100.918	0.85	0.4	2.25	1.0	89.0	motor_selective_stop_signal	89.0	True	0.53	71.0	False	stim	noncrit_nosignal	s483	False
103.171	0.85	0.4	2.35	1.0	71.0	motor_selective_stop_signal	71.0	True	0.589	71.0	False	stim	crit_stop_failure	s483	False
105.523	0.85	0.35	2.65	1.0	89.0	motor_selective_stop_signal	89.0	True	0.491	71.0	False	stim	noncrit_nosignal	s483	False
108.176	0.85	0.35	2.45	0.0	71.0	motor_selective_stop_signal	89.0	True	0.394	71.0	False	stim	crit_stop_failure	s483	False
110.629	0.85	0.3	2.25	1.0	89.0	motor_selective_stop_signal	89.0	True	0.471	71.0	False	stim	noncrit_nosignal	s483	False
112.881	0.85	0.3	2.35	1.0	89.0	motor_selective_stop_signal	89.0	True	0.413	71.0	False	stim	noncrit_signal	s483	False
115.234	0.85	0.3	2.95	1.0	89.0	motor_selective_stop_signal	89.0	True	0.465	71.0	False	stim	noncrit_signal	s483	False
118.186	0.85	0.3	2.25	1.0	71.0	motor_selective_stop_signal	71.0	True	0.615	71.0	False	stim	crit_go	s483	False
120.439	0.85	0.3	2.95	1.0	89.0	motor_selective_stop_signal	89.0	True	0.504	71.0	False	stim	noncrit_nosignal	s483	False
123.392	0.85	0.3	2.45	1.0	89.0	motor_selective_stop_signal	89.0	True	0.46	71.0	False	stim	noncrit_signal	s483	False
136.351	0.85	0.3	2.25	1.0	71.0	motor_selective_stop_signal	-1.0	True	n/a	71.0	True	stim	crit_stop_success	s483	False
138.604	0.85	0.35	2.35	1.0	89.0	motor_selective_stop_signal	89.0	True	0.477	71.0	False	stim	noncrit_nosignal	s483	False
140.957	0.85	0.35	2.45	1.0	89.0	motor_selective_stop_signal	89.0	True	0.391	71.0	False	stim	noncrit_nosignal	s483	False
143.41	0.85	0.35	2.25	1.0	71.0	motor_selective_stop_signal	-1.0	True	n/a	71.0	True	stim	crit_stop_success	s483	False
145.661	0.85	0.4	2.45	1.0	89.0	motor_selective_stop_signal	89.0	True	0.434	71.0	False	stim	noncrit_signal	s483	False
148.114	0.85	0.4	2.75	1.0	89.0	motor_selective_stop_signal	89.0	True	0.453	71.0	False	stim	noncrit_nosignal	s483	False
150.867	0.85	0.4	2.25	1.0	89.0	motor_selective_stop_signal	89.0	True	0.445	71.0	False	stim	noncrit_signal	s483	False
153.119	0.85	0.4	2.35	1.0	89.0	motor_selective_stop_signal	89.0	True	0.419	71.0	False	stim	noncrit_nosignal	s483	False
155.472	0.85	0.4	2.45	1.0	89.0	motor_selective_stop_signal	89.0	True	0.425	71.0	False	stim	noncrit_signal	s483	False
157.924	0.85	0.4	2.35	1.0	71.0	motor_selective_stop_signal	71.0	True	0.761	71.0	False	stim	crit_go	s483	False
160.277	0.85	0.4	2.25	1.0	89.0	motor_selective_stop_signal	89.0	True	0.52	71.0	False	stim	noncrit_signal	s483	False
162.531	0.85	0.4	2.55	1.0	89.0	motor_selective_stop_signal	89.0	True	0.51	71.0	False	stim	noncrit_nosignal	s483	False
165.084	0.85	0.4	2.45	1.0	71.0	motor_selective_stop_signal	71.0	True	0.773	71.0	False	stim	crit_go	s483	False
167.537	0.85	0.4	2.65	1.0	89.0	motor_selective_stop_signal	89.0	True	0.342	71.0	False	stim	noncrit_nosignal	s483	False
170.19	0.85	0.4	2.25	1.0	71.0	motor_selective_stop_signal	-1.0	True	n/a	71.0	True	stim	crit_stop_success	s483	False
172.443	0.85	0.45	2.65	1.0	89.0	motor_selective_stop_signal	89.0	True	0.425	71.0	False	stim	noncrit_signal	s483	False
175.095	0.85	0.45	2.35	1.0	71.0	motor_selective_stop_signal	71.0	True	0.586	71.0	False	stim	crit_go	s483	False
177.448	0.85	0.45	2.25	1.0	89.0	motor_selective_stop_signal	89.0	True	0.461	71.0	False	stim	noncrit_nosignal	s483	False
179.701	0.85	0.45	2.25	1.0	89.0	motor_selective_stop_signal	89.0	True	0.355	71.0	False	stim	noncrit_nosignal	s483	False
181.953	0.85	0.45	2.25	1.0	89.0	motor_selective_stop_signal	89.0	True	0.369	71.0	False	stim	noncrit_nosignal	s483	False
184.205	0.85	0.45	2.35	1.0	89.0	motor_selective_stop_signal	89.0	True	0.36	71.0	False	stim	noncrit_nosignal	s483	False
186.558	0.85	0.45	2.55	1.0	89.0	motor_selective_stop_signal	89.0	True	0.43	71.0	False	stim	noncrit_signal	s483	False
189.111	0.85	0.45	2.35	1.0	89.0	motor_selective_stop_signal	89.0	True	0.534	71.0	False	stim	noncrit_nosignal	s483	False
191.463	0.85	0.45	2.45	1.0	71.0	motor_selective_stop_signal	71.0	True	0.633	71.0	False	stim	crit_stop_failure	s483	False
193.916	0.85	0.4	2.45	1.0	71.0	motor_selective_stop_signal	71.0	True	0.731	71.0	False	stim	crit_go	s483	False
196.369	0.85	0.4	2.35	1.0	71.0	motor_selective_stop_signal	71.0	True	0.535	71.0	False	stim	crit_stop_failure	s483	False
198.721	0.85	0.35	2.25	1.0	89.0	motor_selective_stop_signal	89.0	True	0.529	71.0	False	stim	noncrit_signal	s483	False
200.974	0.85	0.35	2.55	1.0	71.0	motor_selective_stop_signal	71.0	True	0.667	71.0	False	stim	crit_go	s483	False
203.525	0.85	0.35	2.55	1.0	71.0	motor_selective_stop_signal	71.0	True	1.068	71.0	False	stim	crit_go	s483	False
206.077	0.85	0.35	2.25	1.0	89.0	motor_selective_stop_signal	89.0	True	0.496	71.0	False	stim	noncrit_signal	s483	False
208.33	0.85	0.35	2.25	1.0	71.0	motor_selective_stop_signal	71.0	True	0.564	71.0	False	stim	crit_go	s483	False
210.582	0.85	0.35	2.45	1.0	71.0	motor_selective_stop_signal	-1.0	True	n/a	71.0	True	stim	crit_stop_success	s483	False
213.035	0.85	0.4	2.35	1.0	89.0	motor_selective_stop_signal	89.0	True	0.354	71.0	False	stim	noncrit_nosignal	s483	False
215.388	0.85	0.4	2.25	1.0	71.0	motor_selective_stop_signal	71.0	True	0.83	71.0	False	stim	crit_go	s483	False
217.64	0.85	0.4	3.15	1.0	89.0	motor_selective_stop_signal	89.0	True	0.35	71.0	False	stim	noncrit_nosignal	s483	False
220.793	0.85	0.4	2.65	1.0	71.0	motor_selective_stop_signal	71.0	True	0.617	71.0	False	stim	crit_go	s483	False
223.446	0.85	0.4	2.25	1.0	89.0	motor_selective_stop_signal	89.0	True	0.505	71.0	False	stim	noncrit_signal	s483	False
225.699	0.85	0.4	2.45	1.0	71.0	motor_selective_stop_signal	-1.0	True	n/a	71.0	True	stim	crit_stop_success	s483	False
228.152	0.85	0.45	2.85	1.0	89.0	motor_selective_stop_signal	89.0	True	0.393	71.0	False	stim	noncrit_signal	s483	False
231.004	0.85	0.45	2.45	1.0	71.0	motor_selective_stop_signal	71.0	True	0.852	71.0	False	stim	crit_go	s483	False
233.457	0.85	0.45	2.25	1.0	71.0	motor_selective_stop_signal	71.0	True	0.754	71.0	False	stim	crit_go	s483	False
235.709	0.85	0.45	2.25	1.0	89.0	motor_selective_stop_signal	89.0	True	0.497	71.0	False	stim	noncrit_nosignal	s483	False
237.962	0.85	0.45	2.55	1.0	89.0	motor_selective_stop_signal	89.0	True	0.579	71.0	False	stim	noncrit_signal	s483	False
240.514	0.85	0.45	2.25	1.0	71.0	motor_selective_stop_signal	71.0	True	0.588	71.0	False	stim	crit_stop_failure	s483	False
242.768	0.85	0.4	2.35	1.0	71.0	motor_selective_stop_signal	71.0	True	0.653	71.0	False	stim	crit_go	s483	False
245.12	0.85	0.4	2.35	1.0	71.0	motor_selective_stop_signal	-1.0	True	n/a	71.0	True	stim	crit_stop_success	s483	False
247.473	0.85	0.45	2.25	1.0	89.0	motor_selective_stop_signal	89.0	True	0.56	71.0	False	stim	noncrit_nosignal	s483	False
249.726	0.85	0.45	2.35	1.0	89.0	motor_selective_stop_signal	89.0	True	0.551	71.0	False	stim	noncrit_signal	s483	False
252.079	0.85	0.45	2.25	1.0	89.0	motor_selective_stop_signal	89.0	True	0.496	71.0	False	stim	noncrit_nosignal	s483	False
254.331	0.85	0.45	2.45	1.0	89.0	motor_selective_stop_signal	89.0	True	0.523	71.0	False	stim	noncrit_nosignal	s483	False
267.289	0.85	0.45	2.25	1.0	89.0	motor_selective_stop_signal	89.0	True	0.353	71.0	False	stim	noncrit_nosignal	s483	False
269.541	0.85	0.45	2.35	1.0	71.0	motor_selective_stop_signal	71.0	True	0.678	71.0	False	stim	crit_go	s483	False
271.894	0.85	0.45	2.45	1.0	89.0	motor_selective_stop_signal	89.0	True	0.4	71.0	False	stim	noncrit_signal	s483	False
274.347	0.85	0.45	2.25	1.0	71.0	motor_selective_stop_signal	-1.0	True	n/a	71.0	True	stim	crit_stop_success	s483	False
276.599	0.85	0.5	2.25	1.0	89.0	motor_selective_stop_signal	89.0	True	0.435	71.0	False	stim	noncrit_nosignal	s483	False
278.853	0.85	0.5	2.85	1.0	89.0	motor_selective_stop_signal	89.0	True	0.382	71.0	False	stim	noncrit_nosignal	s483	False
281.705	0.85	0.5	2.25	1.0	89.0	motor_selective_stop_signal	89.0	True	0.377	71.0	False	stim	noncrit_nosignal	s483	False
283.958	0.85	0.5	3.45	1.0	89.0	motor_selective_stop_signal	89.0	True	0.611	71.0	False	stim	noncrit_nosignal	s483	False
287.41	0.85	0.5	2.35	1.0	89.0	motor_selective_stop_signal	89.0	True	0.477	71.0	False	stim	noncrit_signal	s483	False
289.77	0.85	0.5	2.35	1.0	89.0	motor_selective_stop_signal	89.0	True	0.573	71.0	False	stim	noncrit_signal	s483	False
292.123	0.85	0.5	2.35	1.0	89.0	motor_selective_stop_signal	89.0	True	0.42	71.0	False	stim	noncrit_nosignal	s483	False
294.476	0.85	0.5	2.45	1.0	71.0	motor_selective_stop_signal	-1.0	True	n/a	71.0	True	stim	crit_stop_success	s483	False
296.929	0.85	0.55	2.55	1.0	89.0	motor_selective_stop_signal	89.0	True	0.384	71.0	False	stim	noncrit_signal	s483	False
299.482	0.85	0.55	2.35	1.0	71.0	motor_selective_stop_signal	71.0	True	0.923	71.0	False	stim	crit_go	s483	False
301.835	0.85	0.55	2.25	1.0	71.0	motor_selective_stop_signal	71.0	True	0.599	71.0	False	stim	crit_stop_failure	s483	False
304.088	0.85	0.5	2.25	1.0	89.0	motor_selective_stop_signal	89.0	True	0.498	71.0	False	stim	noncrit_nosignal	s483	False
306.34	0.85	0.5	3.05	1.0	71.0	motor_selective_stop_signal	71.0	True	0.715	71.0	False	stim	crit_go	s483	False
309.393	0.85	0.5	2.45	1.0	89.0	motor_selective_stop_signal	89.0	True	0.354	71.0	False	stim	noncrit_nosignal	s483	False
311.846	0.85	0.5	2.35	1.0	89.0	motor_selective_stop_signal	89.0	True	0.347	71.0	False	stim	noncrit_nosignal	s483	False
314.199	0.85	0.5	2.25	1.0	71.0	motor_selective_stop_signal	-1.0	True	n/a	71.0	True	stim	crit_stop_success	s483	False
316.452	0.85	0.55	3.25	0.0	71.0	motor_selective_stop_signal	89.0	True	0.432	71.0	False	stim	crit_stop_failure	s483	False
319.704	0.85	0.5	2.95	1.0	89.0	motor_selective_stop_signal	89.0	True	0.361	71.0	False	stim	noncrit_nosignal	s483	False
322.657	0.85	0.5	2.55	1.0	71.0	motor_selective_stop_signal	-1.0	True	n/a	71.0	True	stim	crit_stop_success	s483	False
325.21	0.85	0.55	2.35	1.0	71.0	motor_selective_stop_signal	71.0	True	0.775	71.0	False	stim	crit_go	s483	False
327.563	0.85	0.55	2.55	1.0	71.0	motor_selective_stop_signal	-1.0	True	n/a	71.0	True	stim	crit_stop_success	s483	False
330.116	0.85	0.6	2.35	1.0	71.0	motor_selective_stop_signal	71.0	True	0.843	71.0	False	stim	crit_go	s483	False
332.469	0.85	0.6	2.25	0.0	71.0	motor_selective_stop_signal	-1.0	True	n/a	71.0	True	stim	crit_go	s483	False
334.722	0.85	0.6	2.45	1.0	89.0	motor_selective_stop_signal	89.0	True	0.549	71.0	False	stim	noncrit_signal	s483	False
337.175	0.85	0.6	2.35	1.0	89.0	motor_selective_stop_signal	89.0	True	0.515	71.0	False	stim	noncrit_nosignal	s483	False
339.527	0.85	0.6	2.65	1.0	89.0	motor_selective_stop_signal	89.0	True	0.369	71.0	False	stim	noncrit_signal	s483	False
342.18	0.85	0.6	2.25	1.0	89.0	motor_selective_stop_signal	89.0	True	0.355	71.0	False	stim	noncrit_nosignal	s483	False
344.434	0.85	0.6	2.25	1.0	71.0	motor_selective_stop_signal	71.0	True	0.776	71.0	False	stim	crit_stop_failure	s483	False
346.686	0.85	0.55	2.45	1.0	71.0	motor_selective_stop_signal	71.0	True	0.652	71.0	False	stim	crit_go	s483	False
349.138	0.85	0.55	2.25	1.0	89.0	motor_selective_stop_signal	89.0	True	0.519	71.0	False	stim	noncrit_nosignal	s483	False
351.391	0.85	0.55	2.55	1.0	71.0	motor_selective_stop_signal	-1.0	True	n/a	71.0	True	stim	crit_stop_success	s483	False
353.943	0.85	0.6	2.25	1.0	71.0	motor_selective_stop_signal	71.0	True	0.739	71.0	False	stim	crit_go	s483	False
356.196	0.85	0.6	2.35	1.0	89.0	motor_selective_stop_signal	89.0	True	0.452	71.0	False	stim	noncrit_signal	s483	False
358.549	0.85	0.6	2.25	1.0	71.0	motor_selective_stop_signal	71.0	True	0.633	71.0	False	stim	crit_stop_failure	s483	False
360.802	0.85	0.55	2.55	1.0	71.0	motor_selective_stop_signal	71.0	True	0.576	71.0	False	stim	crit_stop_failure	s483	False
363.354	0.85	0.5	2.55	1.0	89.0	motor_selective_stop_signal	89.0	True	0.428	71.0	False	stim	noncrit_nosignal	s483	False
365.906	0.85	0.5	2.35	1.0	71.0	motor_selective_stop_signal	71.0	True	0.787	71.0	False	stim	crit_go	s483	False
368.258	0.85	0.5	2.35	1.0	71.0	motor_selective_stop_signal	71.0	True	0.978	71.0	False	stim	crit_go	s483	False
370.61	0.85	0.5	2.25	1.0	71.0	motor_selective_stop_signal	71.0	True	0.565	71.0	False	stim	crit_go	s483	False
372.862	0.85	0.5	2.45	1.0	89.0	motor_selective_stop_signal	89.0	True	0.311	71.0	False	stim	noncrit_signal	s483	False
375.315	0.85	0.5	2.25	1.0	71.0	motor_selective_stop_signal	71.0	True	0.865	71.0	False	stim	crit_go	s483	False
377.567	0.85	0.5	2.45	1.0	89.0	motor_selective_stop_signal	89.0	True	0.364	71.0	False	stim	noncrit_signal	s483	False
380.019	0.85	0.5	2.65	1.0	71.0	motor_selective_stop_signal	-1.0	True	n/a	71.0	True	stim	crit_stop_success	s483	False
382.671	0.85	0.55	2.45	1.0	89.0	motor_selective_stop_signal	89.0	True	0.462	71.0	False	stim	noncrit_nosignal	s483	False
385.123	0.85	0.55	2.35	1.0	89.0	motor_selective_stop_signal	89.0	True	0.444	71.0	False	stim	noncrit_nosignal	s483	False
387.475	0.85	0.55	2.25	1.0	89.0	motor_selective_stop_signal	89.0	True	0.438	71.0	False	stim	noncrit_signal	s483	False
400.235	0.85	0.55	2.55	1.0	71.0	motor_selective_stop_signal	71.0	True	0.85	71.0	False	stim	crit_go	s483	False
402.788	0.85	0.55	2.25	1.0	89.0	motor_selective_stop_signal	89.0	True	0.516	71.0	False	stim	noncrit_nosignal	s483	False
405.04	0.85	0.55	2.25	1.0	71.0	motor_selective_stop_signal	71.0	True	0.712	71.0	False	stim	crit_go	s483	False
407.293	0.85	0.55	2.35	1.0	71.0	motor_selective_stop_signal	71.0	True	0.871	71.0	False	stim	crit_go	s483	False
409.645	0.85	0.55	2.25	1.0	89.0	motor_selective_stop_signal	89.0	True	0.481	71.0	False	stim	noncrit_nosignal	s483	False
411.898	0.85	0.55	2.65	1.0	89.0	motor_selective_stop_signal	89.0	True	0.335	71.0	False	stim	noncrit_signal	s483	False
414.55	0.85	0.55	2.35	1.0	89.0	motor_selective_stop_signal	89.0	True	0.345	71.0	False	stim	noncrit_signal	s483	False
416.903	0.85	0.55	2.45	1.0	71.0	motor_selective_stop_signal	71.0	True	0.684	71.0	False	stim	crit_go	s483	False
419.356	0.85	0.55	2.35	1.0	89.0	motor_selective_stop_signal	89.0	True	0.356	71.0	False	stim	noncrit_signal	s483	False
421.709	0.85	0.55	2.25	1.0	71.0	motor_selective_stop_signal	-1.0	True	n/a	71.0	True	stim	crit_stop_success	s483	False
423.961	0.85	0.6	2.25	1.0	71.0	motor_selective_stop_signal	71.0	True	0.806	71.0	False	stim	crit_go	s483	False
426.214	0.85	0.6	2.25	1.0	71.0	motor_selective_stop_signal	-1.0	True	n/a	71.0	True	stim	crit_stop_success	s483	False
428.466	0.85	0.65	2.25	1.0	71.0	motor_selective_stop_signal	71.0	True	0.743	71.0	False	stim	crit_go	s483	False
430.719	0.85	0.65	2.35	0.0	71.0	motor_selective_stop_signal	89.0	True	0.386	71.0	False	stim	crit_stop_failure	s483	False
433.071	0.85	0.6	3.35	1.0	71.0	motor_selective_stop_signal	71.0	True	0.711	71.0	False	stim	crit_go	s483	False
436.423	0.85	0.6	2.55	1.0	71.0	motor_selective_stop_signal	71.0	True	0.736	71.0	False	stim	crit_go	s483	False
438.975	0.85	0.6	2.75	1.0	71.0	motor_selective_stop_signal	-1.0	True	n/a	71.0	True	stim	crit_stop_success	s483	False
441.727	0.85	0.65	2.75	1.0	71.0	motor_selective_stop_signal	71.0	True	0.895	71.0	False	stim	crit_go	s483	False
444.479	0.85	0.65	2.65	1.0	89.0	motor_selective_stop_signal	89.0	True	0.446	71.0	False	stim	noncrit_nosignal	s483	False
447.131	0.85	0.65	2.45	1.0	71.0	motor_selective_stop_signal	-1.0	True	n/a	71.0	True	stim	crit_stop_success	s483	False
449.584	0.85	0.7	2.25	1.0	89.0	motor_selective_stop_signal	89.0	True	0.437	71.0	False	stim	noncrit_nosignal	s483	False
451.836	0.85	0.7	2.35	1.0	71.0	motor_selective_stop_signal	71.0	True	0.882	71.0	False	stim	crit_go	s483	False
454.189	0.85	0.7	2.45	0.0	71.0	motor_selective_stop_signal	-1.0	True	n/a	71.0	True	stim	crit_go	s483	False
456.642	0.85	0.7	3.05	1.0	71.0	motor_selective_stop_signal	71.0	True	0.57	71.0	False	stim	crit_go	s483	False
459.695	0.85	0.7	2.35	1.0	71.0	motor_selective_stop_signal	71.0	True	1.01	71.0	False	stim	crit_go	s483	False
462.047	0.85	0.7	2.25	1.0	89.0	motor_selective_stop_signal	89.0	True	0.567	71.0	False	stim	noncrit_signal	s483	False
464.3	0.85	0.7	2.35	1.0	89.0	motor_selective_stop_signal	89.0	True	0.543	71.0	False	stim	noncrit_nosignal	s483	False
466.653	0.85	0.7	2.35	1.0	89.0	motor_selective_stop_signal	89.0	True	0.499	71.0	False	stim	noncrit_nosignal	s483	False
469.005	0.85	0.7	2.35	1.0	71.0	motor_selective_stop_signal	71.0	True	0.678	71.0	False	stim	crit_go	s483	False
471.358	0.85	0.7	2.35	1.0	89.0	motor_selective_stop_signal	89.0	True	0.586	71.0	False	stim	noncrit_signal	s483	False
473.711	0.85	0.7	2.35	1.0	89.0	motor_selective_stop_signal	89.0	True	0.535	71.0	False	stim	noncrit_nosignal	s483	False
476.065	0.85	0.7	2.25	1.0	89.0	motor_selective_stop_signal	89.0	True	0.514	71.0	False	stim	noncrit_nosignal	s483	False
478.318	0.85	0.7	2.35	0.0	71.0	motor_selective_stop_signal	89.0	True	0.382	71.0	False	stim	crit_stop_failure	s483	False
480.671	0.85	0.65	2.45	1.0	89.0	motor_selective_stop_signal	89.0	True	0.477	71.0	False	stim	noncrit_nosignal	s483	False
483.124	0.85	0.65	2.35	1.0	89.0	motor_selective_stop_signal	89.0	True	0.462	71.0	False	stim	noncrit_nosignal	s483	False
485.477	0.85	0.65	2.85	1.0	71.0	motor_selective_stop_signal	71.0	True	0.718	71.0	False	stim	crit_go	s483	False
488.33	0.85	0.65	2.55	1.0	71.0	motor_selective_stop_signal	71.0	True	0.861	71.0	False	stim	crit_go	s483	False
490.882	0.85	0.65	2.75	1.0	71.0	motor_selective_stop_signal	71.0	True	0.764	71.0	False	stim	crit_go	s483	False
493.635	0.85	0.65	2.25	1.0	89.0	motor_selective_stop_signal	89.0	True	0.516	71.0	False	stim	noncrit_signal	s483	False
495.889	0.85	0.65	2.25	0.0	89.0	motor_selective_stop_signal	71.0	True	0.653	71.0	False	stim	noncrit_nosignal	s483	False
498.141	0.85	0.65	2.85	1.0	71.0	motor_selective_stop_signal	71.0	True	0.745	71.0	False	stim	crit_stop_failure	s483	False
500.993	0.85	0.6	2.35	1.0	89.0	motor_selective_stop_signal	89.0	True	0.751	71.0	False	stim	noncrit_nosignal	s483	False
503.345	0.85	0.6	2.25	1.0	89.0	motor_selective_stop_signal	89.0	True	0.42	71.0	False	stim	noncrit_nosignal	s483	False
505.598	0.85	0.6	2.25	0.0	71.0	motor_selective_stop_signal	89.0	True	0.476	71.0	False	stim	crit_stop_failure	s483	False
507.85	0.85	0.55	2.25	0.0	71.0	motor_selective_stop_signal	89.0	True	1.002	71.0	False	stim	crit_go	s483	False
510.102	0.85	0.55	2.35	1.0	71.0	motor_selective_stop_signal	71.0	True	0.739	71.0	False	stim	crit_go	s483	False
512.455	0.85	0.55	2.65	1.0	71.0	motor_selective_stop_signal	71.0	True	0.903	71.0	False	stim	crit_go	s483	False
515.107	0.85	0.55	2.75	1.0	71.0	motor_selective_stop_signal	71.0	True	0.766	71.0	False	stim	crit_stop_failure	s483	False
517.86	0.85	0.5	2.25	1.0	89.0	motor_selective_stop_signal	89.0	True	0.455	71.0	False	stim	noncrit_nosignal	s483	False
520.113	0.85	0.5	2.75	1.0	71.0	motor_selective_stop_signal	71.0	True	0.73	71.0	False	stim	crit_stop_failure	s483	False
533.371	0.85	0.45	2.25	1.0	89.0	motor_selective_stop_signal	89.0	True	0.497	71.0	False	stim	noncrit_signal	s483	False
535.623	0.85	0.45	2.35	1.0	89.0	motor_selective_stop_signal	89.0	True	0.46	71.0	False	stim	noncrit_nosignal	s483	False
537.976	0.85	0.45	2.35	1.0	71.0	motor_selective_stop_signal	71.0	True	0.773	71.0	False	stim	crit_go	s483	False
540.329	0.85	0.45	2.55	1.0	71.0	motor_selective_stop_signal	71.0	True	0.919	71.0	False	stim	crit_go	s483	False
542.882	0.85	0.45	2.25	1.0	71.0	motor_selective_stop_signal	71.0	True	0.953	71.0	False	stim	crit_go	s483	False
545.134	0.85	0.45	2.25	1.0	89.0	motor_selective_stop_signal	89.0	True	0.55	71.0	False	stim	noncrit_signal	s483	False
547.387	0.85	0.45	2.25	1.0	71.0	motor_selective_stop_signal	71.0	True	0.738	71.0	False	stim	crit_go	s483	False
549.639	0.85	0.45	2.35	1.0	89.0	motor_selective_stop_signal	89.0	True	0.375	71.0	False	stim	noncrit_nosignal	s483	False
551.992	0.85	0.45	2.65	1.0	71.0	motor_selective_stop_signal	-1.0	True	n/a	71.0	True	stim	crit_stop_success	s483	False
554.645	0.85	0.5	2.35	1.0	71.0	motor_selective_stop_signal	71.0	True	0.79	71.0	False	stim	crit_go	s483	False
556.998	0.85	0.5	2.25	1.0	89.0	motor_selective_stop_signal	89.0	True	0.537	71.0	False	stim	noncrit_signal	s483	False
559.25	0.85	0.5	2.35	1.0	71.0	motor_selective_stop_signal	71.0	True	0.85	71.0	False	stim	crit_go	s483	False
561.603	0.85	0.5	2.35	1.0	71.0	motor_selective_stop_signal	71.0	True	0.671	71.0	False	stim	crit_stop_failure	s483	False
563.956	0.85	0.45	2.85	1.0	71.0	motor_selective_stop_signal	71.0	True	0.777	71.0	False	stim	crit_go	s483	False
566.809	0.85	0.45	2.45	1.0	71.0	motor_selective_stop_signal	71.0	True	0.774	71.0	False	stim	crit_go	s483	False
569.261	0.85	0.45	2.35	1.0	89.0	motor_selective_stop_signal	89.0	True	0.436	71.0	False	stim	noncrit_nosignal	s483	False
571.614	0.85	0.45	2.65	1.0	71.0	motor_selective_stop_signal	71.0	True	0.848	71.0	False	stim	crit_go	s483	False
574.266	0.85	0.45	2.25	1.0	89.0	motor_selective_stop_signal	89.0	True	0.343	71.0	False	stim	noncrit_nosignal	s483	False
576.519	0.85	0.45	2.25	1.0	89.0	motor_selective_stop_signal	89.0	True	0.542	71.0	False	stim	noncrit_signal	s483	False
578.773	0.85	0.45	2.25	1.0	71.0	motor_selective_stop_signal	71.0	True	0.716	71.0	False	stim	crit_go	s483	False
581.026	0.85	0.45	2.45	1.0	89.0	motor_selective_stop_signal	89.0	True	0.448	71.0	False	stim	noncrit_nosignal	s483	False
583.48	0.85	0.45	2.35	1.0	89.0	motor_selective_stop_signal	89.0	True	0.44	71.0	False	stim	noncrit_nosignal	s483	False
585.832	0.85	0.45	2.25	1.0	71.0	motor_selective_stop_signal	-1.0	True	n/a	71.0	True	stim	crit_stop_success	s483	False
588.085	0.85	0.5	2.35	1.0	71.0	motor_selective_stop_signal	-1.0	True	n/a	71.0	True	stim	crit_stop_success	s483	False
590.438	0.85	0.55	2.45	1.0	89.0	motor_selective_stop_signal	89.0	True	0.438	71.0	False	stim	noncrit_signal	s483	False
592.89	0.85	0.55	2.35	1.0	89.0	motor_selective_stop_signal	89.0	True	0.425	71.0	False	stim	noncrit_nosignal	s483	False
595.243	0.85	0.55	2.25	1.0	71.0	motor_selective_stop_signal	71.0	True	0.869	71.0	False	stim	crit_go	s483	False
597.495	0.85	0.55	2.25	1.0	89.0	motor_selective_stop_signal	89.0	True	0.483	71.0	False	stim	noncrit_nosignal	s483	False
599.747	0.85	0.55	2.35	1.0	89.0	motor_selective_stop_signal	89.0	True	0.443	71.0	False	stim	noncrit_signal	s483	False
602.099	0.85	0.55	2.35	1.0	71.0	motor_selective_stop_signal	71.0	True	0.72	71.0	False	stim	crit_stop_failure	s483	False
604.451	0.85	0.5	2.35	1.0	71.0	motor_selective_stop_signal	71.0	True	0.821	71.0	False	stim	crit_go	s483	False
606.804	0.85	0.5	2.95	1.0	89.0	motor_selective_stop_signal	89.0	True	0.4	71.0	False	stim	noncrit_nosignal	s483	False
609.757	0.85	0.5	2.25	1.0	71.0	motor_selective_stop_signal	71.0	True	0.828	71.0	False	stim	crit_go	s483	False
612.009	0.85	0.5	2.35	1.0	71.0	motor_selective_stop_signal	71.0	True	0.879	71.0	False	stim	crit_go	s483	False
614.361	0.85	0.5	2.25	1.0	89.0	motor_selective_stop_signal	89.0	True	0.359	71.0	False	stim	noncrit_nosignal	s483	False
616.613	0.85	0.5	2.45	1.0	89.0	motor_selective_stop_signal	89.0	True	0.512	71.0	False	stim	noncrit_signal	s483	False
619.065	0.85	0.5	2.35	1.0	89.0	motor_selective_stop_signal	89.0	True	0.38	71.0	False	stim	noncrit_signal	s483	False
621.418	0.85	0.5	2.55	1.0	89.0	motor_selective_stop_signal	89.0	True	0.349	71.0	False	stim	noncrit_signal	s483	False
623.97	0.85	0.5	2.55	1.0	71.0	motor_selective_stop_signal	71.0	True	0.754	71.0	False	stim	crit_go	s483	False
626.523	0.85	0.5	2.25	1.0	71.0	motor_selective_stop_signal	71.0	True	0.841	71.0	False	stim	crit_go	s483	False
628.776	0.85	0.5	2.25	1.0	71.0	motor_selective_stop_signal	71.0	True	1.155	71.0	False	stim	crit_go	s483	False
631.029	0.85	0.5	2.75	1.0	71.0	motor_selective_stop_signal	-1.0	True	n/a	71.0	True	stim	crit_stop_success	s483	False
633.782	0.85	0.55	2.35	1.0	71.0	motor_selective_stop_signal	71.0	True	0.768	71.0	False	stim	crit_stop_failure	s483	False
636.135	0.85	0.5	2.25	1.0	71.0	motor_selective_stop_signal	-1.0	True	n/a	71.0	True	stim	crit_stop_success	s483	False
638.388	0.85	0.55	2.45	1.0	89.0	motor_selective_stop_signal	89.0	True	0.568	71.0	False	stim	noncrit_nosignal	s483	False
640.84	0.85	0.55	2.25	1.0	71.0	motor_selective_stop_signal	71.0	True	0.807	71.0	False	stim	crit_go	s483	False
643.092	0.85	0.55	2.35	1.0	89.0	motor_selective_stop_signal	89.0	True	0.52	71.0	False	stim	noncrit_nosignal	s483	False
645.445	0.85	0.55	2.25	1.0	89.0	motor_selective_stop_signal	89.0	True	0.375	71.0	False	stim	noncrit_nosignal	s483	False
647.698	0.85	0.55	2.25	1.0	71.0	motor_selective_stop_signal	71.0	True	0.765	71.0	False	stim	crit_stop_failure	s483	False
649.95	0.85	0.5	2.25	1.0	71.0	motor_selective_stop_signal	-1.0	True	n/a	71.0	True	stim	crit_stop_success	s483	False
