onset	duration	block_duration	choice	experiment_exp_id	key_press	large_amount	later_delay	response_time	small_amount	trial_id	trial_type	worker_id	junk
4.014	5.0	6.316	larger_later	discount_fixed	89	31.0	76.0	1.393	20.0	n/a	larger_later	s491	False
11.339	5.0	5.568	larger_later	discount_fixed	89	43.0	19.0	1.376	20.0	n/a	larger_later	s491	False
26.417	5.0	5.636	larger_later	discount_fixed	89	60.0	124.0	1.366	20.0	n/a	larger_later	s491	False
33.063	5.0	5.908	smaller_sooner	discount_fixed	71	27.0	142.0	2.061	20.0	n/a	smaller_sooner	s491	False
39.978	5.0	5.5	larger_later	discount_fixed	89	25.0	70.0	1.935	20.0	n/a	larger_later	s491	False
46.484	5.0	5.976	larger_later	discount_fixed	89	44.0	92.0	0.956	20.0	n/a	larger_later	s491	False
53.466	5.0	5.908	larger_later	discount_fixed	89	41.0	27.0	1.407	20.0	n/a	larger_later	s491	False
60.379	5.0	5.568	larger_later	discount_fixed	89	64.0	89.0	1.197	20.0	n/a	larger_later	s491	False
66.955	5.0	5.5	larger_later	discount_fixed	89	78.0	108.0	1.158	20.0	n/a	larger_later	s491	False
73.462	5.0	7.2	larger_later	discount_fixed	89	80.0	145.0	1.067	20.0	n/a	larger_later	s491	False
81.67	5.0	5.704	larger_later	discount_fixed	89	41.0	174.0	2.057	20.0	n/a	larger_later	s491	False
88.38	5.0	6.044	larger_later	discount_fixed	89	42.0	145.0	1.524	20.0	n/a	larger_later	s491	False
95.431	5.0	6.044	larger_later	discount_fixed	89	36.0	114.0	1.791	20.0	n/a	larger_later	s491	False
102.481	5.0	6.18	larger_later	discount_fixed	89	58.0	55.0	1.171	20.0	n/a	larger_later	s491	False
109.666	5.0	5.976	larger_later	discount_fixed	89	81.0	58.0	1.051	20.0	n/a	larger_later	s491	False
116.649	5.0	5.772	larger_later	discount_fixed	89	32.0	111.0	1.952	20.0	n/a	larger_later	s491	False
123.428	5.0	5.772	smaller_sooner	discount_fixed	71	25.0	141.0	1.748	20.0	n/a	smaller_sooner	s491	False
130.207	5.0	6.18	larger_later	discount_fixed	89	67.0	23.0	1.058	20.0	n/a	larger_later	s491	False
137.393	5.0	6.18	larger_later	discount_fixed	89	77.0	161.0	1.521	20.0	n/a	larger_later	s491	False
144.581	5.0	6.248	larger_later	discount_fixed	89	55.0	163.0	1.553	20.0	n/a	larger_later	s491	False
151.835	5.0	5.568	larger_later	discount_fixed	89	40.0	159.0	2.21	20.0	n/a	larger_later	s491	False
158.412	5.0	5.5	larger_later	discount_fixed	89	76.0	161.0	1.348	20.0	n/a	larger_later	s491	False
164.918	5.0	5.908	larger_later	discount_fixed	89	48.0	128.0	1.594	20.0	n/a	larger_later	s491	False
171.834	5.0	5.568	larger_later	discount_fixed	89	39.0	95.0	1.311	20.0	n/a	larger_later	s491	False
178.409	5.0	7.2	larger_later	discount_fixed	89	83.0	105.0	1.076	20.0	n/a	larger_later	s491	False
186.617	5.0	5.908	larger_later	discount_fixed	89	67.0	41.0	1.004	20.0	n/a	larger_later	s491	False
193.53	5.0	6.248	larger_later	discount_fixed	89	56.0	172.0	1.612	20.0	n/a	larger_later	s491	False
200.787	5.0	6.044	smaller_sooner	discount_fixed	71	28.0	123.0	1.576	20.0	n/a	smaller_sooner	s491	False
207.839	5.0	5.636	larger_later	discount_fixed	89	50.0	129.0	1.204	20.0	n/a	larger_later	s491	False
214.482	5.0	5.704	smaller_sooner	discount_fixed	71	23.0	61.0	1.91	20.0	n/a	smaller_sooner	s491	False
221.193	5.0	5.636	larger_later	discount_fixed	89	79.0	92.0	1.023	20.0	n/a	larger_later	s491	False
227.835	5.0	5.568	larger_later	discount_fixed	89	61.0	141.0	1.32	20.0	n/a	larger_later	s491	False
242.916	5.0	5.568	larger_later	discount_fixed	89	43.0	38.0	1.199	20.0	n/a	larger_later	s491	False
249.489	5.0	5.908	larger_later	discount_fixed	89	66.0	145.0	1.244	20.0	n/a	larger_later	s491	False
256.405	5.0	5.84	larger_later	discount_fixed	89	30.0	23.0	1.494	20.0	n/a	larger_later	s491	False
263.252	5.0	6.248	larger_later	discount_fixed	89	32.0	57.0	1.93	20.0	n/a	larger_later	s491	False
270.507	5.0	5.772	smaller_sooner	discount_fixed	71	27.0	91.0	1.686	20.0	n/a	smaller_sooner	s491	False
277.284	5.0	6.996	larger_later	discount_fixed	89	43.0	120.0	1.419	20.0	n/a	larger_later	s491	False
285.287	5.0	6.588	larger_later	discount_fixed	89	75.0	60.0	1.336	20.0	n/a	larger_later	s491	False
292.883	5.0	5.568	smaller_sooner	discount_fixed	71	34.0	176.0	2.083	20.0	n/a	smaller_sooner	s491	False
299.455	5.0	6.112	smaller_sooner	discount_fixed	71	24.0	38.0	3.629	20.0	n/a	smaller_sooner	s491	False
306.574	5.0	6.656	larger_later	discount_fixed	89	82.0	74.0	1.11	20.0	n/a	larger_later	s491	False
314.236	5.0	5.568	larger_later	discount_fixed	89	58.0	53.0	1.535	20.0	n/a	larger_later	s491	False
320.811	5.0	5.772	larger_later	discount_fixed	89	54.0	23.0	1.151	20.0	n/a	larger_later	s491	False
327.59	5.0	6.044	larger_later	discount_fixed	89	41.0	55.0	0.837	20.0	n/a	larger_later	s491	False
334.642	5.0	5.84	larger_later	discount_fixed	89	77.0	142.0	1.231	20.0	n/a	larger_later	s491	False
341.491	5.0	6.18	smaller_sooner	discount_fixed	71	25.0	108.0	1.495	20.0	n/a	smaller_sooner	s491	False
348.677	5.0	6.044	smaller_sooner	discount_fixed	71	33.0	163.0	2.529	20.0	n/a	smaller_sooner	s491	False
355.728	5.0	5.976	larger_later	discount_fixed	89	29.0	75.0	2.706	20.0	n/a	larger_later	s491	False
362.71	5.0	5.976	larger_later	discount_fixed	89	45.0	157.0	1.529	20.0	n/a	larger_later	s491	False
369.694	5.0	6.316	larger_later	discount_fixed	89	31.0	74.0	3.779	20.0	n/a	larger_later	s491	False
377.019	5.0	5.5	larger_later	discount_fixed	89	80.0	39.0	0.893	20.0	n/a	larger_later	s491	False
383.526	5.0	6.044	smaller_sooner	discount_fixed	71	22.0	21.0	2.199	20.0	n/a	smaller_sooner	s491	False
390.583	5.0	5.704	larger_later	discount_fixed	89	52.0	139.0	0.877	20.0	n/a	larger_later	s491	False
397.293	5.0	5.84	larger_later	discount_fixed	89	54.0	126.0	0.853	20.0	n/a	larger_later	s491	False
404.138	5.0	7.744	smaller_sooner	discount_fixed	71	23.0	176.0	1.392	20.0	n/a	smaller_sooner	s491	False
412.889	5.0	5.5	smaller_sooner	discount_fixed	71	24.0	87.0	1.796	20.0	n/a	smaller_sooner	s491	False
419.395	5.0	5.568	larger_later	discount_fixed	89	36.0	140.0	1.559	20.0	n/a	larger_later	s491	False
425.968	5.0	5.704	larger_later	discount_fixed	89	35.0	171.0	1.985	20.0	n/a	larger_later	s491	False
432.682	5.0	5.908	larger_later	discount_fixed	89	34.0	43.0	1.276	20.0	n/a	larger_later	s491	False
439.595	5.0	5.568	larger_later	discount_fixed	89	74.0	121.0	0.972	20.0	n/a	larger_later	s491	False
446.173	5.0	5.772	larger_later	discount_fixed	89	45.0	107.0	1.106	20.0	n/a	larger_later	s491	False
461.46	5.0	5.636	larger_later	discount_fixed	89	77.0	24.0	0.991	20.0	n/a	larger_later	s491	False
468.103	5.0	5.568	larger_later	discount_fixed	89	39.0	161.0	1.244	20.0	n/a	larger_later	s491	False
474.676	5.0	6.452	larger_later	discount_fixed	89	62.0	180.0	0.876	20.0	n/a	larger_later	s491	False
482.133	5.0	6.384	smaller_sooner	discount_fixed	71	24.0	139.0	1.516	20.0	n/a	smaller_sooner	s491	False
489.525	5.0	5.568	larger_later	discount_fixed	89	58.0	72.0	0.848	20.0	n/a	larger_later	s491	False
496.102	5.0	7.268	larger_later	discount_fixed	89	56.0	93.0	0.739	20.0	n/a	larger_later	s491	False
504.376	5.0	6.52	larger_later	discount_fixed	89	45.0	26.0	0.8	20.0	n/a	larger_later	s491	False
511.901	5.0	5.568	smaller_sooner	discount_fixed	71	23.0	42.0	1.591	20.0	n/a	smaller_sooner	s491	False
518.476	5.0	5.636	larger_later	discount_fixed	89	50.0	41.0	0.893	20.0	n/a	larger_later	s491	False
525.119	5.0	5.636	smaller_sooner	discount_fixed	71	25.0	176.0	1.26	20.0	n/a	smaller_sooner	s491	False
531.763	5.0	6.112	larger_later	discount_fixed	89	54.0	22.0	1.372	20.0	n/a	larger_later	s491	False
538.882	5.0	6.316	larger_later	discount_fixed	89	29.0	44.0	1.801	20.0	n/a	larger_later	s491	False
546.205	5.0	5.568	smaller_sooner	discount_fixed	71	24.0	89.0	1.679	20.0	n/a	smaller_sooner	s491	False
552.782	5.0	5.568	smaller_sooner	discount_fixed	71	23.0	77.0	1.44	20.0	n/a	smaller_sooner	s491	False
559.361	5.0	5.568	smaller_sooner	discount_fixed	71	27.0	130.0	1.679	20.0	n/a	smaller_sooner	s491	False
565.936	5.0	5.84	smaller_sooner	discount_fixed	71	23.0	134.0	1.799	20.0	n/a	smaller_sooner	s491	False
572.782	5.0	5.5	larger_later	discount_fixed	89	55.0	107.0	0.826	20.0	n/a	larger_later	s491	False
579.29	5.0	6.656	larger_later	discount_fixed	89	44.0	143.0	1.536	20.0	n/a	larger_later	s491	False
586.952	5.0	5.908	smaller_sooner	discount_fixed	71	23.0	110.0	1.257	20.0	n/a	smaller_sooner	s491	False
593.866	5.0	5.636	larger_later	discount_fixed	89	65.0	156.0	1.323	20.0	n/a	larger_later	s491	False
600.507	5.0	5.5	larger_later	discount_fixed	89	22.0	27.0	2.321	20.0	n/a	larger_later	s491	False
607.015	5.0	5.5	larger_later	discount_fixed	89	50.0	59.0	1.829	20.0	n/a	larger_later	s491	False
613.521	5.0	6.112	larger_later	discount_fixed	89	85.0	129.0	1.649	20.0	n/a	larger_later	s491	False
620.641	5.0	7.132	larger_later	discount_fixed	89	66.0	58.0	2.492	20.0	n/a	larger_later	s491	False
628.78	5.0	5.84	larger_later	discount_fixed	89	49.0	172.0	0.854	20.0	n/a	larger_later	s491	False
635.627	5.0	5.568	larger_later	discount_fixed	89	73.0	44.0	0.802	20.0	n/a	larger_later	s491	False
642.202	5.0	5.704	larger_later	discount_fixed	89	58.0	73.0	0.915	20.0	n/a	larger_later	s491	False
648.913	5.0	6.86	larger_later	discount_fixed	89	71.0	76.0	0.917	20.0	n/a	larger_later	s491	False
656.779	5.0	5.636	larger_later	discount_fixed	89	67.0	74.0	0.796	20.0	n/a	larger_later	s491	False
663.422	5.0	6.316	larger_later	discount_fixed	89	29.0	58.0	2.076	20.0	n/a	larger_later	s491	False
679.253	5.0	5.976	larger_later	discount_fixed	89	39.0	104.0	1.807	20.0	n/a	larger_later	s491	False
686.235	5.0	5.568	smaller_sooner	discount_fixed	71	33.0	103.0	1.594	20.0	n/a	smaller_sooner	s491	False
692.81	5.0	6.52	smaller_sooner	discount_fixed	71	33.0	78.0	2.369	20.0	n/a	smaller_sooner	s491	False
700.335	5.0	6.588	larger_later	discount_fixed	89	74.0	52.0	0.937	20.0	n/a	larger_later	s491	False
707.929	5.0	6.792	smaller_sooner	discount_fixed	71	28.0	132.0	2.15	20.0	n/a	smaller_sooner	s491	False
715.728	5.0	5.568	smaller_sooner	discount_fixed	71	28.0	59.0	3.031	20.0	n/a	smaller_sooner	s491	False
722.303	5.0	6.112	smaller_sooner	discount_fixed	71	28.0	163.0	1.479	20.0	n/a	smaller_sooner	s491	False
729.422	5.0	5.5	smaller_sooner	discount_fixed	71	32.0	74.0	2.633	20.0	n/a	smaller_sooner	s491	False
735.927	5.0	5.84	larger_later	discount_fixed	89	57.0	89.0	1.458	20.0	n/a	larger_later	s491	False
742.771	5.0	5.568	larger_later	discount_fixed	89	70.0	108.0	1.722	20.0	n/a	larger_later	s491	False
749.345	5.0	6.384	larger_later	discount_fixed	89	72.0	95.0	0.799	20.0	n/a	larger_later	s491	False
756.737	5.0	6.044	larger_later	discount_fixed	89	30.0	36.0	2.09	20.0	n/a	larger_later	s491	False
763.788	5.0	5.704	larger_later	discount_fixed	89	41.0	129.0	1.668	20.0	n/a	larger_later	s491	False
770.499	5.0	5.908	larger_later	discount_fixed	89	78.0	129.0	1.039	20.0	n/a	larger_later	s491	False
777.413	5.0	5.908	larger_later	discount_fixed	89	71.0	88.0	0.943	20.0	n/a	larger_later	s491	False
784.339	5.0	5.84	larger_later	discount_fixed	89	65.0	159.0	0.881	20.0	n/a	larger_later	s491	False
791.184	5.0	6.112	smaller_sooner	discount_fixed	71	24.0	125.0	1.175	20.0	n/a	smaller_sooner	s491	False
798.302	5.0	6.112	larger_later	discount_fixed	89	58.0	36.0	1.364	20.0	n/a	larger_later	s491	False
805.419	5.0	5.704	larger_later	discount_fixed	89	63.0	37.0	2.106	20.0	n/a	larger_later	s491	False
812.129	5.0	5.84	larger_later	discount_fixed	89	75.0	41.0	0.771	20.0	n/a	larger_later	s491	False
818.977	5.0	5.84	larger_later	discount_fixed	89	45.0	72.0	1.031	20.0	n/a	larger_later	s491	False
825.825	5.0	7.88	smaller_sooner	discount_fixed	71	25.0	74.0	0.81	20.0	n/a	smaller_sooner	s491	False
834.712	5.0	5.568	larger_later	discount_fixed	89	65.0	137.0	0.942	20.0	n/a	larger_later	s491	False
841.286	5.0	5.772	larger_later	discount_fixed	89	49.0	140.0	0.721	20.0	n/a	larger_later	s491	False
848.065	5.0	8.016	larger_later	discount_fixed	89	67.0	103.0	0.846	20.0	n/a	larger_later	s491	False
857.089	5.0	5.704	false	discount_fixed	-1	69.0	172.0	n/a	20.0	n/a	false	s491	False
863.8	5.0	6.18	false	discount_fixed	-1	66.0	71.0	n/a	20.0	n/a	false	s491	False
870.988	5.0	6.044	false	discount_fixed	-1	71.0	176.0	n/a	20.0	n/a	false	s491	False
