onset	duration	movement_onset	CTI	block_duration	correct	correct_response	cue	cue_switch	experiment_exp_id	key_press	response_time	stim_color	stim_number	switch_type	task	task_switch	trial_id	trial_type	worker_id	first_trial_of_block	junk
4.415	1.0	5.803	0.9	3.224	True	89.0	Orange-Blue	stay	twobytwo	89.0	0.488	orange	2.0	cue_stay	color	stay	stim	poldrack-single-stim	s491	1	False
7.747	1.0	8.912	0.1	2.408	True	89.0	High-Low	n/a	twobytwo	89.0	1.065	orange	1.0	task_switch	magnitude	switch	stim	poldrack-single-stim	s491	0	False
11.069	1.0	12.465	0.9	2.816	True	89.0	Orange-Blue	n/a	twobytwo	89.0	0.496	orange	1.0	task_switch	color	switch	stim	poldrack-single-stim	s491	0	False
14.79	1.0	16.178	0.9	2.408	True	71.0	High-Low	n/a	twobytwo	71.0	0.488	orange	8.0	task_switch	magnitude	switch	stim	poldrack-single-stim	s491	0	False
17.309	1.0	18.31	0.1	2.136	True	89.0	Color	n/a	twobytwo	89.0	0.901	orange	7.0	task_switch	color	switch	stim	poldrack-single-stim	s491	0	False
20.351	1.0	21.761	0.9	2.136	True	89.0	Color	stay	twobytwo	89.0	0.51	orange	9.0	cue_stay	color	stay	stim	poldrack-single-stim	s491	0	False
23.394	1.0	24.779	0.9	2.0	True	71.0	Orange-Blue	switch	twobytwo	71.0	0.485	blue	8.0	cue_switch	color	stay	stim	poldrack-single-stim	s491	0	False
25.5	1.0	26.393	0.1	2.0	True	71.0	Color	switch	twobytwo	71.0	0.793	blue	6.0	cue_switch	color	stay	stim	poldrack-single-stim	s491	0	False
27.606	1.0	28.527	0.1	2.272	True	89.0	High-Low	n/a	twobytwo	89.0	0.821	blue	3.0	task_switch	magnitude	switch	stim	poldrack-single-stim	s491	0	False
29.985	1.0	30.886	0.1	2.408	True	89.0	Color	n/a	twobytwo	89.0	0.801	orange	1.0	task_switch	color	switch	stim	poldrack-single-stim	s491	0	False
32.5	1.0	33.432	0.1	2.0	True	89.0	Magnitude	n/a	twobytwo	89.0	0.832	orange	1.0	task_switch	magnitude	switch	stim	poldrack-single-stim	s491	0	False
34.606	1.0	35.485	0.1	2.136	True	71.0	High-Low	switch	twobytwo	71.0	0.779	blue	8.0	cue_switch	magnitude	stay	stim	poldrack-single-stim	s491	0	False
37.651	1.0	39.103	0.9	2.0	True	71.0	Color	n/a	twobytwo	71.0	0.552	blue	1.0	task_switch	color	switch	stim	poldrack-single-stim	s491	0	False
40.556	1.0	42.219	0.9	2.408	True	71.0	Magnitude	n/a	twobytwo	71.0	0.763	blue	7.0	task_switch	magnitude	switch	stim	poldrack-single-stim	s491	0	False
43.071	1.0	43.846	0.1	2.272	True	89.0	High-Low	switch	twobytwo	89.0	0.675	blue	3.0	cue_switch	magnitude	stay	stim	poldrack-single-stim	s491	0	False
46.25	1.0	47.708	0.9	2.0	True	71.0	Orange-Blue	n/a	twobytwo	71.0	0.558	blue	4.0	task_switch	color	switch	stim	poldrack-single-stim	s491	0	False
48.355	1.0	49.259	0.1	2.272	True	89.0	Color	switch	twobytwo	89.0	0.804	orange	4.0	cue_switch	color	stay	stim	poldrack-single-stim	s491	0	False
50.733	1.0	51.761	0.1	2.0	True	89.0	Magnitude	n/a	twobytwo	89.0	0.928	orange	4.0	task_switch	magnitude	switch	stim	poldrack-single-stim	s491	0	False
52.839	1.0	53.916	0.1	2.0	True	71.0	Orange-Blue	n/a	twobytwo	71.0	0.977	blue	9.0	task_switch	color	switch	stim	poldrack-single-stim	s491	0	False
55.751	1.0	57.602	0.9	2.272	True	71.0	Orange-Blue	stay	twobytwo	71.0	0.951	blue	2.0	cue_stay	color	stay	stim	poldrack-single-stim	s491	0	False
58.131	1.0	58.979	0.1	2.136	True	71.0	High-Low	n/a	twobytwo	71.0	0.748	orange	8.0	task_switch	magnitude	switch	stim	poldrack-single-stim	s491	0	False
60.373	1.0	61.449	0.1	2.0	True	71.0	Orange-Blue	n/a	twobytwo	71.0	0.976	blue	8.0	task_switch	color	switch	stim	poldrack-single-stim	s491	0	False
62.479	1.0	63.311	0.1	2.0	True	71.0	Orange-Blue	stay	twobytwo	71.0	0.732	blue	7.0	cue_stay	color	stay	stim	poldrack-single-stim	s491	0	False
64.585	1.0	65.702	0.1	2.0	True	71.0	Magnitude	n/a	twobytwo	71.0	1.017	orange	9.0	task_switch	magnitude	switch	stim	poldrack-single-stim	s491	0	False
66.69	1.0	67.632	0.1	2.0	True	71.0	High-Low	switch	twobytwo	71.0	0.842	blue	7.0	cue_switch	magnitude	stay	stim	poldrack-single-stim	s491	0	False
69.598	1.0	71.251	0.9	2.0	True	89.0	High-Low	stay	twobytwo	89.0	0.753	orange	4.0	cue_stay	magnitude	stay	stim	poldrack-single-stim	s491	0	False
72.504	1.0	73.881	0.9	2.136	True	89.0	Orange-Blue	n/a	twobytwo	89.0	0.477	orange	8.0	task_switch	color	switch	stim	poldrack-single-stim	s491	0	False
74.745	1.0	75.762	0.1	2.0	True	71.0	Orange-Blue	stay	twobytwo	71.0	0.917	blue	4.0	cue_stay	color	stay	stim	poldrack-single-stim	s491	0	False
77.651	1.0	79.172	0.9	2.0	True	71.0	High-Low	n/a	twobytwo	71.0	0.621	orange	8.0	task_switch	magnitude	switch	stim	poldrack-single-stim	s491	0	False
80.558	1.0	82.339	0.9	2.136	True	71.0	Magnitude	switch	twobytwo	71.0	0.881	blue	7.0	cue_switch	magnitude	stay	stim	poldrack-single-stim	s491	0	False
82.802	1.0	83.75	0.1	2.0	True	89.0	High-Low	switch	twobytwo	89.0	0.848	orange	2.0	cue_switch	magnitude	stay	stim	poldrack-single-stim	s491	0	False
84.909	1.0	85.767	0.1	2.136	True	71.0	Orange-Blue	n/a	twobytwo	71.0	0.758	blue	7.0	task_switch	color	switch	stim	poldrack-single-stim	s491	0	False
87.949	1.0	89.907	0.9	2.68	True	71.0	High-Low	n/a	twobytwo	71.0	1.058	orange	8.0	task_switch	magnitude	switch	stim	poldrack-single-stim	s491	0	False
90.734	1.0	91.711	0.1	2.272	True	89.0	High-Low	stay	twobytwo	89.0	0.877	blue	3.0	cue_stay	magnitude	stay	stim	poldrack-single-stim	s491	0	False
93.914	1.0	95.276	0.9	2.136	True	71.0	High-Low	stay	twobytwo	71.0	0.462	orange	9.0	cue_stay	magnitude	stay	stim	poldrack-single-stim	s491	0	False
96.157	1.0	97.241	0.1	2.0	True	89.0	Orange-Blue	n/a	twobytwo	89.0	0.984	orange	7.0	task_switch	color	switch	stim	poldrack-single-stim	s491	0	False
99.062	1.0	100.427	0.9	2.136	True	71.0	Magnitude	n/a	twobytwo	71.0	0.465	orange	7.0	task_switch	magnitude	switch	stim	poldrack-single-stim	s491	0	False
102.103	1.0	104.231	0.9	2.68	True	89.0	Orange-Blue	n/a	twobytwo	89.0	1.228	orange	4.0	task_switch	color	switch	stim	poldrack-single-stim	s491	0	False
105.69	1.0	107.345	0.9	2.272	True	89.0	Magnitude	n/a	twobytwo	89.0	0.755	orange	1.0	task_switch	magnitude	switch	stim	poldrack-single-stim	s491	0	False
108.869	1.0	110.624	0.9	2.0	True	89.0	High-Low	switch	twobytwo	89.0	0.855	blue	1.0	cue_switch	magnitude	stay	stim	poldrack-single-stim	s491	0	False
111.777	1.0	113.059	0.9	2.0	True	71.0	Orange-Blue	n/a	twobytwo	71.0	0.382	blue	1.0	task_switch	color	switch	stim	poldrack-single-stim	s491	0	False
114.683	1.0	116.48	0.9	2.136	True	89.0	Orange-Blue	stay	twobytwo	89.0	0.897	orange	7.0	cue_stay	color	stay	stim	poldrack-single-stim	s491	0	False
117.725	1.0	119.247	0.9	2.0	True	71.0	Orange-Blue	stay	twobytwo	71.0	0.622	blue	7.0	cue_stay	color	stay	stim	poldrack-single-stim	s491	0	False
120.633	1.0	122.526	0.9	2.0	True	71.0	Orange-Blue	stay	twobytwo	71.0	0.993	blue	4.0	cue_stay	color	stay	stim	poldrack-single-stim	s491	0	False
122.739	1.0	123.947	0.1	2.0	True	71.0	Color	switch	twobytwo	71.0	1.108	blue	8.0	cue_switch	color	stay	stim	poldrack-single-stim	s491	0	False
124.847	1.0	125.752	0.1	2.272	True	71.0	High-Low	n/a	twobytwo	71.0	0.805	orange	9.0	task_switch	magnitude	switch	stim	poldrack-single-stim	s491	0	False
127.227	1.0	128.254	0.1	2.408	True	89.0	Color	n/a	twobytwo	89.0	0.927	orange	3.0	task_switch	color	switch	stim	poldrack-single-stim	s491	0	False
129.743	1.0	130.599	0.1	2.0	True	71.0	Color	stay	twobytwo	71.0	0.756	blue	3.0	cue_stay	color	stay	stim	poldrack-single-stim	s491	0	False
131.851	1.0	133.094	0.1	2.0	True	89.0	Color	stay	twobytwo	89.0	1.143	orange	6.0	cue_stay	color	stay	stim	poldrack-single-stim	s491	0	False
134.757	1.0	136.257	0.9	2.0	True	89.0	Magnitude	n/a	twobytwo	89.0	0.6	orange	1.0	task_switch	magnitude	switch	stim	poldrack-single-stim	s491	0	False
137.668	1.0	139.473	0.9	2.272	True	89.0	Orange-Blue	n/a	twobytwo	89.0	0.905	orange	8.0	task_switch	color	switch	stim	poldrack-single-stim	s491	0	False
140.046	1.0	140.891	0.1	2.136	True	71.0	Orange-Blue	stay	twobytwo	71.0	0.745	blue	2.0	cue_stay	color	stay	stim	poldrack-single-stim	s491	0	False
143.091	1.0	144.549	0.9	2.0	True	71.0	High-Low	n/a	twobytwo	71.0	0.558	orange	8.0	task_switch	magnitude	switch	stim	poldrack-single-stim	s491	0	False
145.198	1.0	146.05	0.1	2.544	True	71.0	Magnitude	switch	twobytwo	71.0	0.752	orange	7.0	cue_switch	magnitude	stay	stim	poldrack-single-stim	s491	0	False
147.85	1.0	148.874	0.1	2.272	False	71.0	Orange-Blue	n/a	twobytwo	89.0	0.924	blue	8.0	task_switch	color	switch	stim	poldrack-single-stim	s491	0	False
151.027	1.0	152.74	0.9	2.272	True	89.0	Orange-Blue	stay	twobytwo	89.0	0.813	orange	1.0	cue_stay	color	stay	stim	poldrack-single-stim	s491	0	False
153.405	1.0	154.641	0.1	2.0	True	71.0	Color	switch	twobytwo	71.0	1.136	blue	3.0	cue_switch	color	stay	stim	poldrack-single-stim	s491	0	False
155.513	1.0	156.689	0.1	2.0	True	89.0	Color	stay	twobytwo	89.0	1.076	orange	6.0	cue_stay	color	stay	stim	poldrack-single-stim	s491	0	False
158.419	1.0	159.829	0.9	2.136	True	71.0	Magnitude	n/a	twobytwo	71.0	0.51	blue	8.0	task_switch	magnitude	switch	stim	poldrack-single-stim	s491	0	False
160.662	1.0	161.588	0.1	2.0	False	71.0	Color	n/a	twobytwo	89.0	0.826	blue	4.0	task_switch	color	switch	stim	poldrack-single-stim	s491	0	False
162.767	1.0	164.047	0.1	2.136	True	71.0	Orange-Blue	switch	twobytwo	71.0	1.18	blue	6.0	cue_switch	color	stay	stim	poldrack-single-stim	s491	0	False
165.008	1.0	165.813	0.1	2.272	True	71.0	Magnitude	n/a	twobytwo	71.0	0.705	orange	9.0	task_switch	magnitude	switch	stim	poldrack-single-stim	s491	0	False
168.187	1.0	169.951	0.9	2.136	True	89.0	Orange-Blue	n/a	twobytwo	89.0	0.864	orange	4.0	task_switch	color	switch	stim	poldrack-single-stim	s491	0	False
170.431	1.0	171.259	0.1	2.272	True	71.0	Orange-Blue	stay	twobytwo	71.0	0.728	blue	2.0	cue_stay	color	stay	stim	poldrack-single-stim	s491	0	False
172.81	1.0	173.766	0.1	2.0	True	89.0	High-Low	n/a	twobytwo	89.0	0.856	blue	2.0	task_switch	magnitude	switch	stim	poldrack-single-stim	s491	0	False
174.915	1.0	176.118	0.1	2.816	True	89.0	High-Low	stay	twobytwo	89.0	1.103	blue	3.0	cue_stay	magnitude	stay	stim	poldrack-single-stim	s491	0	False
178.637	1.0	180.515	0.9	2.408	True	89.0	Magnitude	switch	twobytwo	89.0	0.978	blue	4.0	cue_switch	magnitude	stay	stim	poldrack-single-stim	s491	0	False
181.152	1.0	181.89	0.1	2.0	True	71.0	Magnitude	stay	twobytwo	71.0	0.638	orange	6.0	cue_stay	magnitude	stay	stim	poldrack-single-stim	s491	0	False
184.061	1.0	185.901	0.9	2.544	True	89.0	Magnitude	stay	twobytwo	89.0	0.94	orange	1.0	cue_stay	magnitude	stay	stim	poldrack-single-stim	s491	0	False
186.711	1.0	187.676	0.1	2.136	True	89.0	Orange-Blue	n/a	twobytwo	89.0	0.865	orange	1.0	task_switch	color	switch	stim	poldrack-single-stim	s491	0	False
188.953	1.0	189.862	0.1	2.0	True	71.0	Magnitude	n/a	twobytwo	71.0	0.809	blue	6.0	task_switch	magnitude	switch	stim	poldrack-single-stim	s491	0	False
191.057	1.0	192.189	0.1	2.0	True	89.0	Magnitude	stay	twobytwo	89.0	1.032	orange	2.0	cue_stay	magnitude	stay	stim	poldrack-single-stim	s491	0	False
193.965	1.0	195.573	0.9	2.136	True	89.0	High-Low	switch	twobytwo	89.0	0.708	blue	4.0	cue_switch	magnitude	stay	stim	poldrack-single-stim	s491	0	False
196.207	1.0	196.954	0.1	2.136	True	89.0	High-Low	stay	twobytwo	89.0	0.647	blue	3.0	cue_stay	magnitude	stay	stim	poldrack-single-stim	s491	0	False
199.25	1.0	200.542	0.9	2.272	True	89.0	Color	n/a	twobytwo	89.0	0.392	orange	1.0	task_switch	color	switch	stim	poldrack-single-stim	s491	0	False
202.429	1.0	204.613	0.9	3.224	True	71.0	Orange-Blue	switch	twobytwo	71.0	1.284	blue	3.0	cue_switch	color	stay	stim	poldrack-single-stim	s491	0	False
205.761	1.0	206.832	0.1	2.0	True	71.0	Color	switch	twobytwo	71.0	0.971	blue	7.0	cue_switch	color	stay	stim	poldrack-single-stim	s491	0	False
207.868	1.0	208.937	0.1	2.0	True	71.0	Magnitude	n/a	twobytwo	71.0	0.969	orange	7.0	task_switch	magnitude	switch	stim	poldrack-single-stim	s491	0	False
210.775	1.0	212.508	0.9	2.272	True	71.0	Color	n/a	twobytwo	71.0	0.833	blue	9.0	task_switch	color	switch	stim	poldrack-single-stim	s491	0	False
213.153	1.0	214.296	0.1	2.136	True	71.0	Magnitude	n/a	twobytwo	71.0	1.043	orange	7.0	task_switch	magnitude	switch	stim	poldrack-single-stim	s491	0	False
229.705	1.0	231.159	0.9	2.0	True	89.0	Color	stay	twobytwo	89.0	0.554	orange	2.0	cue_stay	color	stay	stim	poldrack-single-stim	s491	1	False
231.812	1.0	232.677	0.1	2.0	True	89.0	High-Low	n/a	twobytwo	89.0	0.765	orange	1.0	task_switch	magnitude	switch	stim	poldrack-single-stim	s491	0	False
234.718	1.0	236.039	0.9	2.0	True	89.0	Color	n/a	twobytwo	89.0	0.421	orange	1.0	task_switch	color	switch	stim	poldrack-single-stim	s491	0	False
237.624	1.0	239.178	0.9	2.68	True	71.0	High-Low	n/a	twobytwo	71.0	0.654	orange	8.0	task_switch	magnitude	switch	stim	poldrack-single-stim	s491	0	False
240.411	1.0	241.701	0.1	2.0	True	89.0	Orange-Blue	n/a	twobytwo	89.0	1.19	orange	7.0	task_switch	color	switch	stim	poldrack-single-stim	s491	0	False
243.317	1.0	245.093	0.9	2.272	True	89.0	Orange-Blue	stay	twobytwo	89.0	0.876	orange	9.0	cue_stay	color	stay	stim	poldrack-single-stim	s491	0	False
246.495	1.0	248.545	0.9	2.0	True	71.0	Color	switch	twobytwo	71.0	1.15	blue	8.0	cue_switch	color	stay	stim	poldrack-single-stim	s491	0	False
248.602	1.0	249.79	0.1	2.272	True	71.0	Orange-Blue	switch	twobytwo	71.0	1.088	blue	6.0	cue_switch	color	stay	stim	poldrack-single-stim	s491	0	False
250.979	1.0	251.75	0.1	2.952	True	89.0	High-Low	n/a	twobytwo	89.0	0.671	blue	3.0	task_switch	magnitude	switch	stim	poldrack-single-stim	s491	0	False
254.039	1.0	254.853	0.1	2.0	True	89.0	Color	n/a	twobytwo	89.0	0.714	orange	1.0	task_switch	color	switch	stim	poldrack-single-stim	s491	0	False
256.146	1.0	256.888	0.1	2.0	True	89.0	Magnitude	n/a	twobytwo	89.0	0.642	orange	1.0	task_switch	magnitude	switch	stim	poldrack-single-stim	s491	0	False
258.252	1.0	259.182	0.1	2.0	True	71.0	High-Low	switch	twobytwo	71.0	0.83	blue	8.0	cue_switch	magnitude	stay	stim	poldrack-single-stim	s491	0	False
261.157	1.0	263.109	0.9	2.0	False	71.0	Orange-Blue	n/a	twobytwo	89.0	1.052	blue	1.0	task_switch	color	switch	stim	poldrack-single-stim	s491	0	False
264.063	1.0	265.75	0.9	2.136	True	71.0	Magnitude	n/a	twobytwo	71.0	0.787	blue	7.0	task_switch	magnitude	switch	stim	poldrack-single-stim	s491	0	False
266.306	1.0	267.704	0.1	2.0	True	89.0	High-Low	switch	twobytwo	89.0	1.298	blue	3.0	cue_switch	magnitude	stay	stim	poldrack-single-stim	s491	0	False
269.214	1.0	271.335	0.9	2.0	True	71.0	Color	n/a	twobytwo	71.0	1.221	blue	4.0	task_switch	color	switch	stim	poldrack-single-stim	s491	0	False
271.321	1.0	272.365	0.1	2.0	True	89.0	Orange-Blue	switch	twobytwo	89.0	0.944	orange	4.0	cue_switch	color	stay	stim	poldrack-single-stim	s491	0	False
273.427	1.0	274.524	0.1	2.272	True	89.0	High-Low	n/a	twobytwo	89.0	0.997	orange	4.0	task_switch	magnitude	switch	stim	poldrack-single-stim	s491	0	False
275.805	1.0	277.066	0.1	2.136	True	71.0	Orange-Blue	n/a	twobytwo	71.0	1.161	blue	9.0	task_switch	color	switch	stim	poldrack-single-stim	s491	0	False
278.849	1.0	280.4	0.9	2.0	True	71.0	Orange-Blue	stay	twobytwo	71.0	0.651	blue	2.0	cue_stay	color	stay	stim	poldrack-single-stim	s491	0	False
280.957	1.0	281.782	0.1	2.136	True	71.0	High-Low	n/a	twobytwo	71.0	0.725	orange	8.0	task_switch	magnitude	switch	stim	poldrack-single-stim	s491	0	False
283.201	1.0	284.295	0.1	2.816	True	71.0	Orange-Blue	n/a	twobytwo	71.0	0.994	blue	8.0	task_switch	color	switch	stim	poldrack-single-stim	s491	0	False
286.125	1.0	287.005	0.1	2.408	True	71.0	Orange-Blue	stay	twobytwo	71.0	0.78	blue	7.0	cue_stay	color	stay	stim	poldrack-single-stim	s491	0	False
288.64	1.0	290.397	0.1	2.0	True	71.0	Magnitude	n/a	twobytwo	71.0	1.657	orange	9.0	task_switch	magnitude	switch	stim	poldrack-single-stim	s491	0	False
290.745	1.0	291.874	0.1	2.136	True	71.0	High-Low	switch	twobytwo	71.0	1.029	blue	7.0	cue_switch	magnitude	stay	stim	poldrack-single-stim	s491	0	False
293.787	1.0	295.469	0.9	2.136	True	89.0	High-Low	stay	twobytwo	89.0	0.782	orange	4.0	cue_stay	magnitude	stay	stim	poldrack-single-stim	s491	0	False
296.831	1.0	298.591	0.9	2.136	True	89.0	Orange-Blue	n/a	twobytwo	89.0	0.86	orange	8.0	task_switch	color	switch	stim	poldrack-single-stim	s491	0	False
299.073	1.0	300.257	0.1	2.544	True	71.0	Orange-Blue	stay	twobytwo	71.0	1.084	blue	4.0	cue_stay	color	stay	stim	poldrack-single-stim	s491	0	False
302.522	1.0	304.183	0.9	2.136	True	71.0	High-Low	n/a	twobytwo	71.0	0.761	orange	8.0	task_switch	magnitude	switch	stim	poldrack-single-stim	s491	0	False
305.564	1.0	307.073	0.9	2.0	True	71.0	Magnitude	switch	twobytwo	71.0	0.609	blue	7.0	cue_switch	magnitude	stay	stim	poldrack-single-stim	s491	0	False
307.671	1.0	308.896	0.1	2.0	True	89.0	High-Low	switch	twobytwo	89.0	1.125	orange	2.0	cue_switch	magnitude	stay	stim	poldrack-single-stim	s491	0	False
309.777	1.0	310.703	0.1	2.0	True	71.0	Orange-Blue	n/a	twobytwo	71.0	0.826	blue	7.0	task_switch	color	switch	stim	poldrack-single-stim	s491	0	False
312.682	1.0	314.639	0.9	2.0	True	71.0	High-Low	n/a	twobytwo	71.0	1.057	orange	8.0	task_switch	magnitude	switch	stim	poldrack-single-stim	s491	0	False
314.789	1.0	315.848	0.1	2.136	True	89.0	High-Low	stay	twobytwo	89.0	0.959	blue	3.0	cue_stay	magnitude	stay	stim	poldrack-single-stim	s491	0	False
317.833	1.0	319.307	0.9	2.0	True	71.0	High-Low	stay	twobytwo	71.0	0.574	orange	9.0	cue_stay	magnitude	stay	stim	poldrack-single-stim	s491	0	False
319.94	1.0	320.97	0.1	2.0	False	89.0	Orange-Blue	n/a	twobytwo	71.0	0.93	orange	7.0	task_switch	color	switch	stim	poldrack-single-stim	s491	0	False
322.847	1.0	324.486	0.9	2.0	True	71.0	Magnitude	n/a	twobytwo	71.0	0.739	orange	7.0	task_switch	magnitude	switch	stim	poldrack-single-stim	s491	0	False
325.752	1.0	327.157	0.9	2.136	True	89.0	Color	n/a	twobytwo	89.0	0.505	orange	4.0	task_switch	color	switch	stim	poldrack-single-stim	s491	0	False
328.795	1.0	330.276	0.9	2.136	True	89.0	High-Low	n/a	twobytwo	89.0	0.581	orange	1.0	task_switch	magnitude	switch	stim	poldrack-single-stim	s491	0	False
331.836	1.0	333.335	0.9	2.136	True	89.0	Magnitude	switch	twobytwo	89.0	0.599	blue	1.0	cue_switch	magnitude	stay	stim	poldrack-single-stim	s491	0	False
334.878	1.0	336.654	0.9	2.136	True	71.0	Color	n/a	twobytwo	71.0	0.876	blue	1.0	task_switch	color	switch	stim	poldrack-single-stim	s491	0	False
337.92	1.0	339.529	0.9	2.68	False	89.0	Color	stay	twobytwo	71.0	0.709	orange	7.0	cue_stay	color	stay	stim	poldrack-single-stim	s491	0	False
341.507	1.0	343.275	0.9	2.544	True	71.0	Color	stay	twobytwo	71.0	0.868	blue	7.0	cue_stay	color	stay	stim	poldrack-single-stim	s491	0	False
344.959	1.0	347.028	0.9	2.272	True	71.0	Color	stay	twobytwo	71.0	1.169	blue	4.0	cue_stay	color	stay	stim	poldrack-single-stim	s491	0	False
347.338	1.0	348.091	0.1	2.272	True	71.0	Orange-Blue	switch	twobytwo	71.0	0.653	blue	8.0	cue_switch	color	stay	stim	poldrack-single-stim	s491	0	False
349.715	1.0	351.313	0.1	2.408	True	71.0	Magnitude	n/a	twobytwo	71.0	1.498	orange	9.0	task_switch	magnitude	switch	stim	poldrack-single-stim	s491	0	False
352.228	1.0	353.118	0.1	2.136	True	89.0	Color	n/a	twobytwo	89.0	0.79	orange	3.0	task_switch	color	switch	stim	poldrack-single-stim	s491	0	False
354.471	1.0	355.304	0.1	2.272	True	71.0	Color	stay	twobytwo	71.0	0.733	blue	3.0	cue_stay	color	stay	stim	poldrack-single-stim	s491	0	False
356.849	1.0	357.832	0.1	2.0	True	89.0	Color	stay	twobytwo	89.0	0.883	orange	6.0	cue_stay	color	stay	stim	poldrack-single-stim	s491	0	False
359.756	1.0	361.577	0.9	2.136	True	89.0	High-Low	n/a	twobytwo	89.0	0.921	orange	1.0	task_switch	magnitude	switch	stim	poldrack-single-stim	s491	0	False
362.798	1.0	364.525	0.9	2.272	True	89.0	Color	n/a	twobytwo	89.0	0.827	orange	8.0	task_switch	color	switch	stim	poldrack-single-stim	s491	0	False
365.176	1.0	365.986	0.1	2.0	True	71.0	Color	stay	twobytwo	71.0	0.71	blue	2.0	cue_stay	color	stay	stim	poldrack-single-stim	s491	0	False
368.083	1.0	370.165	0.9	2.68	True	71.0	High-Low	n/a	twobytwo	71.0	1.182	orange	8.0	task_switch	magnitude	switch	stim	poldrack-single-stim	s491	0	False
370.871	1.0	371.596	0.1	2.0	True	71.0	Magnitude	switch	twobytwo	71.0	0.625	orange	7.0	cue_switch	magnitude	stay	stim	poldrack-single-stim	s491	0	False
372.978	1.0	373.72	0.1	2.0	True	71.0	Orange-Blue	n/a	twobytwo	71.0	0.642	blue	8.0	task_switch	color	switch	stim	poldrack-single-stim	s491	0	False
375.884	1.0	377.728	0.9	2.0	True	89.0	Orange-Blue	stay	twobytwo	89.0	0.944	orange	1.0	cue_stay	color	stay	stim	poldrack-single-stim	s491	0	False
377.992	1.0	378.98	0.1	2.272	True	71.0	Color	switch	twobytwo	71.0	0.888	blue	3.0	cue_switch	color	stay	stim	poldrack-single-stim	s491	0	False
380.369	1.0	381.31	0.1	2.0	True	89.0	Color	stay	twobytwo	89.0	0.841	orange	6.0	cue_stay	color	stay	stim	poldrack-single-stim	s491	0	False
383.28	1.0	384.817	0.9	2.0	True	71.0	Magnitude	n/a	twobytwo	71.0	0.637	blue	8.0	task_switch	magnitude	switch	stim	poldrack-single-stim	s491	0	False
385.388	1.0	385.387	0.1	2.0	False	71.0	Orange-Blue	n/a	twobytwo	-1.0	n/a	blue	4.0	task_switch	color	switch	stim	poldrack-single-stim	s491	0	False
387.494	1.0	387.667	0.1	2.68	True	71.0	Color	switch	twobytwo	71.0	0.073	blue	6.0	cue_switch	color	stay	stim	poldrack-single-stim	s491	0	False
390.28	1.0	391.927	0.1	2.0	True	71.0	Magnitude	n/a	twobytwo	71.0	1.547	orange	9.0	task_switch	magnitude	switch	stim	poldrack-single-stim	s491	0	False
393.187	1.0	394.535	0.9	2.136	True	89.0	Color	n/a	twobytwo	89.0	0.448	orange	4.0	task_switch	color	switch	stim	poldrack-single-stim	s491	0	False
395.43	1.0	396.241	0.1	2.408	True	71.0	Color	stay	twobytwo	71.0	0.711	blue	2.0	cue_stay	color	stay	stim	poldrack-single-stim	s491	0	False
397.943	1.0	398.957	0.1	2.136	True	89.0	Magnitude	n/a	twobytwo	89.0	0.914	blue	2.0	task_switch	magnitude	switch	stim	poldrack-single-stim	s491	0	False
400.185	1.0	400.934	0.1	2.0	True	89.0	Magnitude	stay	twobytwo	89.0	0.649	blue	3.0	cue_stay	magnitude	stay	stim	poldrack-single-stim	s491	0	False
403.093	1.0	404.67	0.9	2.0	True	89.0	High-Low	switch	twobytwo	89.0	0.677	blue	4.0	cue_switch	magnitude	stay	stim	poldrack-single-stim	s491	0	False
405.201	1.0	405.959	0.1	2.544	True	71.0	High-Low	stay	twobytwo	71.0	0.658	orange	6.0	cue_stay	magnitude	stay	stim	poldrack-single-stim	s491	0	False
408.651	1.0	410.133	0.9	2.136	True	89.0	High-Low	stay	twobytwo	89.0	0.582	orange	1.0	cue_stay	magnitude	stay	stim	poldrack-single-stim	s491	0	False
410.893	1.0	411.766	0.1	2.544	True	89.0	Color	n/a	twobytwo	89.0	0.773	orange	1.0	task_switch	color	switch	stim	poldrack-single-stim	s491	0	False
413.543	1.0	414.46	0.1	2.68	True	71.0	Magnitude	n/a	twobytwo	71.0	0.817	blue	6.0	task_switch	magnitude	switch	stim	poldrack-single-stim	s491	0	False
416.332	1.0	417.061	0.1	2.0	True	89.0	Magnitude	stay	twobytwo	89.0	0.629	orange	2.0	cue_stay	magnitude	stay	stim	poldrack-single-stim	s491	0	False
419.24	1.0	420.859	0.9	2.272	True	89.0	High-Low	switch	twobytwo	89.0	0.719	blue	4.0	cue_switch	magnitude	stay	stim	poldrack-single-stim	s491	0	False
421.618	1.0	422.907	0.1	3.088	True	89.0	High-Low	stay	twobytwo	89.0	1.189	blue	3.0	cue_stay	magnitude	stay	stim	poldrack-single-stim	s491	0	False
425.61	1.0	426.942	0.9	2.0	True	89.0	Color	n/a	twobytwo	89.0	0.432	orange	1.0	task_switch	color	switch	stim	poldrack-single-stim	s491	0	False
428.518	1.0	429.825	0.9	2.136	True	71.0	Orange-Blue	switch	twobytwo	71.0	0.407	blue	3.0	cue_switch	color	stay	stim	poldrack-single-stim	s491	0	False
430.759	1.0	431.496	0.1	2.136	True	71.0	Color	switch	twobytwo	71.0	0.637	blue	7.0	cue_switch	color	stay	stim	poldrack-single-stim	s491	0	False
433.001	1.0	434.698	0.1	2.0	True	71.0	High-Low	n/a	twobytwo	71.0	1.597	orange	7.0	task_switch	magnitude	switch	stim	poldrack-single-stim	s491	0	False
435.906	1.0	437.756	0.9	2.272	True	71.0	Color	n/a	twobytwo	71.0	0.95	blue	9.0	task_switch	color	switch	stim	poldrack-single-stim	s491	0	False
438.283	1.0	439.023	0.1	2.0	True	71.0	Magnitude	n/a	twobytwo	71.0	0.64	orange	7.0	task_switch	magnitude	switch	stim	poldrack-single-stim	s491	0	False
454.698	1.0	456.171	0.9	2.136	True	89.0	Magnitude	stay	twobytwo	89.0	0.573	orange	2.0	cue_stay	magnitude	stay	stim	poldrack-single-stim	s491	1	False
456.94	1.0	458.032	0.1	2.136	True	89.0	Orange-Blue	n/a	twobytwo	89.0	0.992	orange	1.0	task_switch	color	switch	stim	poldrack-single-stim	s491	0	False
459.984	1.0	461.552	0.9	2.544	True	89.0	High-Low	n/a	twobytwo	89.0	0.668	orange	1.0	task_switch	magnitude	switch	stim	poldrack-single-stim	s491	0	False
463.436	1.0	465.088	0.9	2.0	True	89.0	Color	n/a	twobytwo	89.0	0.752	orange	8.0	task_switch	color	switch	stim	poldrack-single-stim	s491	0	False
465.543	1.0	466.576	0.1	2.136	True	71.0	High-Low	n/a	twobytwo	71.0	0.933	orange	7.0	task_switch	magnitude	switch	stim	poldrack-single-stim	s491	0	False
468.585	1.0	469.96	0.9	2.136	True	71.0	High-Low	stay	twobytwo	71.0	0.475	orange	9.0	cue_stay	magnitude	stay	stim	poldrack-single-stim	s491	0	False
471.628	1.0	473.297	0.9	2.136	True	71.0	Magnitude	switch	twobytwo	71.0	0.769	blue	8.0	cue_switch	magnitude	stay	stim	poldrack-single-stim	s491	0	False
473.871	1.0	474.622	0.1	2.0	True	71.0	High-Low	switch	twobytwo	71.0	0.651	blue	6.0	cue_switch	magnitude	stay	stim	poldrack-single-stim	s491	0	False
475.98	1.0	476.928	0.1	2.136	True	71.0	Orange-Blue	n/a	twobytwo	71.0	0.848	blue	3.0	task_switch	color	switch	stim	poldrack-single-stim	s491	0	False
478.224	1.0	479.222	0.1	2.0	True	89.0	Magnitude	n/a	twobytwo	89.0	0.898	orange	1.0	task_switch	magnitude	switch	stim	poldrack-single-stim	s491	0	False
480.33	1.0	481.343	0.1	2.136	True	89.0	Color	n/a	twobytwo	89.0	0.913	orange	1.0	task_switch	color	switch	stim	poldrack-single-stim	s491	0	False
482.575	1.0	483.974	0.1	2.816	True	71.0	Orange-Blue	switch	twobytwo	71.0	1.299	blue	8.0	cue_switch	color	stay	stim	poldrack-single-stim	s491	0	False
486.298	1.0	487.847	0.9	2.136	True	89.0	High-Low	n/a	twobytwo	89.0	0.649	blue	1.0	task_switch	magnitude	switch	stim	poldrack-single-stim	s491	0	False
489.34	1.0	490.957	0.9	2.0	True	71.0	Orange-Blue	n/a	twobytwo	71.0	0.717	blue	7.0	task_switch	color	switch	stim	poldrack-single-stim	s491	0	False
491.446	1.0	492.581	0.1	2.0	True	71.0	Color	switch	twobytwo	71.0	1.035	blue	3.0	cue_switch	color	stay	stim	poldrack-single-stim	s491	0	False
494.352	1.0	495.839	0.9	2.272	True	89.0	Magnitude	n/a	twobytwo	89.0	0.587	blue	4.0	task_switch	magnitude	switch	stim	poldrack-single-stim	s491	0	False
496.73	1.0	497.634	0.1	2.0	True	89.0	High-Low	switch	twobytwo	89.0	0.804	orange	4.0	cue_switch	magnitude	stay	stim	poldrack-single-stim	s491	0	False
498.835	1.0	499.625	0.1	2.0	True	89.0	Orange-Blue	n/a	twobytwo	89.0	0.69	orange	4.0	task_switch	color	switch	stim	poldrack-single-stim	s491	0	False
500.942	1.0	501.731	0.1	2.0	True	71.0	Magnitude	n/a	twobytwo	71.0	0.689	blue	9.0	task_switch	magnitude	switch	stim	poldrack-single-stim	s491	0	False
503.85	1.0	505.184	0.9	2.408	True	89.0	Magnitude	stay	twobytwo	89.0	0.434	blue	2.0	cue_stay	magnitude	stay	stim	poldrack-single-stim	s491	0	False
506.364	1.0	507.118	0.1	2.272	False	89.0	Color	n/a	twobytwo	71.0	0.654	orange	8.0	task_switch	color	switch	stim	poldrack-single-stim	s491	0	False
508.741	1.0	509.53	0.1	2.136	True	71.0	Magnitude	n/a	twobytwo	71.0	0.689	blue	8.0	task_switch	magnitude	switch	stim	poldrack-single-stim	s491	0	False
510.982	1.0	511.715	0.1	2.0	True	71.0	Magnitude	stay	twobytwo	71.0	0.633	blue	7.0	cue_stay	magnitude	stay	stim	poldrack-single-stim	s491	0	False
513.087	1.0	514.115	0.1	2.0	True	89.0	Color	n/a	twobytwo	89.0	0.928	orange	9.0	task_switch	color	switch	stim	poldrack-single-stim	s491	0	False
515.193	1.0	516.015	0.1	2.136	True	71.0	Orange-Blue	switch	twobytwo	71.0	0.722	blue	7.0	cue_switch	color	stay	stim	poldrack-single-stim	s491	0	False
518.235	1.0	519.719	0.9	2.0	True	89.0	Orange-Blue	stay	twobytwo	89.0	0.584	orange	4.0	cue_stay	color	stay	stim	poldrack-single-stim	s491	0	False
521.141	1.0	523.026	0.9	2.136	True	71.0	High-Low	n/a	twobytwo	71.0	0.985	orange	8.0	task_switch	magnitude	switch	stim	poldrack-single-stim	s491	0	False
523.383	1.0	524.16	0.1	2.408	True	89.0	High-Low	stay	twobytwo	89.0	0.677	blue	4.0	cue_stay	magnitude	stay	stim	poldrack-single-stim	s491	0	False
526.697	1.0	528.78	0.9	2.136	True	89.0	Color	n/a	twobytwo	89.0	1.183	orange	8.0	task_switch	color	switch	stim	poldrack-single-stim	s491	0	False
529.741	1.0	531.311	0.9	2.0	True	71.0	Orange-Blue	switch	twobytwo	71.0	0.67	blue	7.0	cue_switch	color	stay	stim	poldrack-single-stim	s491	0	False
531.848	1.0	532.531	0.1	2.136	True	89.0	Color	switch	twobytwo	89.0	0.583	orange	2.0	cue_switch	color	stay	stim	poldrack-single-stim	s491	0	False
534.09	1.0	535.095	0.1	2.272	True	71.0	Magnitude	n/a	twobytwo	71.0	0.905	blue	7.0	task_switch	magnitude	switch	stim	poldrack-single-stim	s491	0	False
537.269	1.0	539.406	0.9	2.0	True	89.0	Color	n/a	twobytwo	89.0	1.237	orange	8.0	task_switch	color	switch	stim	poldrack-single-stim	s491	0	False
539.375	1.0	540.997	0.1	2.408	True	71.0	Color	stay	twobytwo	71.0	1.522	blue	3.0	cue_stay	color	stay	stim	poldrack-single-stim	s491	0	False
542.69	1.0	544.092	0.9	2.0	True	89.0	Color	stay	twobytwo	89.0	0.502	orange	9.0	cue_stay	color	stay	stim	poldrack-single-stim	s491	0	False
544.796	1.0	545.734	0.1	2.136	True	71.0	High-Low	n/a	twobytwo	71.0	0.838	orange	7.0	task_switch	magnitude	switch	stim	poldrack-single-stim	s491	0	False
547.839	1.0	549.482	0.9	2.408	True	89.0	Color	n/a	twobytwo	89.0	0.743	orange	7.0	task_switch	color	switch	stim	poldrack-single-stim	s491	0	False
551.153	1.0	552.826	0.9	2.136	True	89.0	High-Low	n/a	twobytwo	89.0	0.773	orange	4.0	task_switch	magnitude	switch	stim	poldrack-single-stim	s491	0	False
554.195	1.0	555.552	0.9	2.408	True	89.0	Color	n/a	twobytwo	89.0	0.457	orange	1.0	task_switch	color	switch	stim	poldrack-single-stim	s491	0	False
557.509	1.0	559.38	0.9	2.136	True	71.0	Orange-Blue	switch	twobytwo	71.0	0.971	blue	1.0	cue_switch	color	stay	stim	poldrack-single-stim	s491	0	False
560.552	1.0	562.143	0.9	2.0	True	89.0	Magnitude	n/a	twobytwo	89.0	0.691	blue	1.0	task_switch	magnitude	switch	stim	poldrack-single-stim	s491	0	False
563.458	1.0	564.846	0.9	2.272	True	71.0	Magnitude	stay	twobytwo	71.0	0.488	orange	7.0	cue_stay	magnitude	stay	stim	poldrack-single-stim	s491	0	False
566.637	1.0	568.189	0.9	2.0	True	71.0	Magnitude	stay	twobytwo	71.0	0.652	blue	7.0	cue_stay	magnitude	stay	stim	poldrack-single-stim	s491	0	False
569.544	1.0	570.949	0.9	2.272	True	89.0	Magnitude	stay	twobytwo	89.0	0.505	blue	4.0	cue_stay	magnitude	stay	stim	poldrack-single-stim	s491	0	False
571.922	1.0	572.723	0.1	2.272	True	71.0	High-Low	switch	twobytwo	71.0	0.701	blue	8.0	cue_switch	magnitude	stay	stim	poldrack-single-stim	s491	0	False
574.299	1.0	575.171	0.1	2.952	True	89.0	Color	n/a	twobytwo	89.0	0.772	orange	9.0	task_switch	color	switch	stim	poldrack-single-stim	s491	0	False
577.356	1.0	578.168	0.1	2.68	True	89.0	High-Low	n/a	twobytwo	89.0	0.712	orange	3.0	task_switch	magnitude	switch	stim	poldrack-single-stim	s491	0	False
580.142	1.0	581.203	0.1	2.136	False	89.0	High-Low	stay	twobytwo	71.0	0.961	blue	3.0	cue_stay	magnitude	stay	stim	poldrack-single-stim	s491	0	False
582.385	1.0	583.558	0.1	2.272	True	71.0	High-Low	stay	twobytwo	71.0	1.073	orange	6.0	cue_stay	magnitude	stay	stim	poldrack-single-stim	s491	0	False
585.564	1.0	587.009	0.9	2.272	True	89.0	Orange-Blue	n/a	twobytwo	89.0	0.545	orange	1.0	task_switch	color	switch	stim	poldrack-single-stim	s491	0	False
588.742	1.0	590.411	0.9	2.136	True	71.0	Magnitude	n/a	twobytwo	71.0	0.769	orange	8.0	task_switch	magnitude	switch	stim	poldrack-single-stim	s491	0	False
590.985	1.0	591.98	0.1	2.408	True	89.0	Magnitude	stay	twobytwo	89.0	0.895	blue	2.0	cue_stay	magnitude	stay	stim	poldrack-single-stim	s491	0	False
594.302	1.0	596.276	0.9	2.136	True	89.0	Orange-Blue	n/a	twobytwo	89.0	1.074	orange	8.0	task_switch	color	switch	stim	poldrack-single-stim	s491	0	False
596.545	1.0	598.239	0.1	2.136	True	89.0	Color	switch	twobytwo	89.0	1.594	orange	7.0	cue_switch	color	stay	stim	poldrack-single-stim	s491	0	False
598.787	1.0	599.89	0.1	2.0	True	71.0	Magnitude	n/a	twobytwo	71.0	1.003	blue	8.0	task_switch	magnitude	switch	stim	poldrack-single-stim	s491	0	False
601.692	1.0	603.265	0.9	2.0	True	89.0	Magnitude	stay	twobytwo	89.0	0.673	orange	1.0	cue_stay	magnitude	stay	stim	poldrack-single-stim	s491	0	False
603.8	1.0	605.152	0.1	2.0	True	89.0	High-Low	switch	twobytwo	89.0	1.252	blue	3.0	cue_switch	magnitude	stay	stim	poldrack-single-stim	s491	0	False
605.906	1.0	607.134	0.1	2.0	True	71.0	High-Low	stay	twobytwo	71.0	1.128	orange	6.0	cue_stay	magnitude	stay	stim	poldrack-single-stim	s491	0	False
608.817	1.0	610.469	0.9	2.0	True	71.0	Orange-Blue	n/a	twobytwo	71.0	0.752	blue	8.0	task_switch	color	switch	stim	poldrack-single-stim	s491	0	False
610.922	1.0	611.744	0.1	2.272	True	89.0	High-Low	n/a	twobytwo	89.0	0.722	blue	4.0	task_switch	magnitude	switch	stim	poldrack-single-stim	s491	0	False
613.299	1.0	614.132	0.1	2.408	True	71.0	Magnitude	switch	twobytwo	71.0	0.733	blue	6.0	cue_switch	magnitude	stay	stim	poldrack-single-stim	s491	0	False
615.813	1.0	616.515	0.1	2.0	True	89.0	Color	n/a	twobytwo	89.0	0.602	orange	9.0	task_switch	color	switch	stim	poldrack-single-stim	s491	0	False
618.721	1.0	620.386	0.9	2.136	True	89.0	Magnitude	n/a	twobytwo	89.0	0.765	orange	4.0	task_switch	magnitude	switch	stim	poldrack-single-stim	s491	0	False
620.965	1.0	621.802	0.1	2.0	True	89.0	Magnitude	stay	twobytwo	89.0	0.737	blue	2.0	cue_stay	magnitude	stay	stim	poldrack-single-stim	s491	0	False
623.07	1.0	623.866	0.1	2.136	True	71.0	Orange-Blue	n/a	twobytwo	71.0	0.696	blue	2.0	task_switch	color	switch	stim	poldrack-single-stim	s491	0	False
625.312	1.0	626.206	0.1	2.544	True	71.0	Orange-Blue	stay	twobytwo	71.0	0.794	blue	3.0	cue_stay	color	stay	stim	poldrack-single-stim	s491	0	False
628.763	1.0	630.907	0.9	2.68	True	71.0	Color	switch	twobytwo	71.0	1.244	blue	4.0	cue_switch	color	stay	stim	poldrack-single-stim	s491	0	False
631.55	1.0	632.472	0.1	3.088	True	89.0	Color	stay	twobytwo	89.0	0.822	orange	6.0	cue_stay	color	stay	stim	poldrack-single-stim	s491	0	False
635.545	1.0	636.923	0.9	2.136	True	89.0	Color	stay	twobytwo	89.0	0.478	orange	1.0	cue_stay	color	stay	stim	poldrack-single-stim	s491	0	False
637.787	1.0	638.52	0.1	2.544	True	89.0	High-Low	n/a	twobytwo	89.0	0.633	orange	1.0	task_switch	magnitude	switch	stim	poldrack-single-stim	s491	0	False
640.436	1.0	641.435	0.1	2.0	True	71.0	Color	n/a	twobytwo	71.0	0.899	blue	6.0	task_switch	color	switch	stim	poldrack-single-stim	s491	0	False
642.546	1.0	643.229	0.1	2.136	True	89.0	Color	stay	twobytwo	89.0	0.583	orange	2.0	cue_stay	color	stay	stim	poldrack-single-stim	s491	0	False
645.589	1.0	646.933	0.9	2.0	True	71.0	Orange-Blue	switch	twobytwo	71.0	0.444	blue	4.0	cue_switch	color	stay	stim	poldrack-single-stim	s491	0	False
647.697	1.0	648.441	0.1	2.408	True	71.0	Orange-Blue	stay	twobytwo	71.0	0.644	blue	3.0	cue_stay	color	stay	stim	poldrack-single-stim	s491	0	False
651.011	1.0	652.465	0.9	2.0	True	89.0	Magnitude	n/a	twobytwo	89.0	0.554	orange	1.0	task_switch	magnitude	switch	stim	poldrack-single-stim	s491	0	False
653.919	1.0	655.391	0.9	2.0	True	89.0	High-Low	switch	twobytwo	89.0	0.572	blue	3.0	cue_switch	magnitude	stay	stim	poldrack-single-stim	s491	0	False
656.026	1.0	656.788	0.1	2.0	True	71.0	Magnitude	switch	twobytwo	71.0	0.662	blue	7.0	cue_switch	magnitude	stay	stim	poldrack-single-stim	s491	0	False
658.133	1.0	659.04	0.1	2.68	True	89.0	Color	n/a	twobytwo	89.0	0.807	orange	7.0	task_switch	color	switch	stim	poldrack-single-stim	s491	0	False
661.719	1.0	663.304	0.9	2.272	True	71.0	High-Low	n/a	twobytwo	71.0	0.685	blue	9.0	task_switch	magnitude	switch	stim	poldrack-single-stim	s491	0	False
664.096	1.0	664.898	0.1	2.408	True	89.0	Orange-Blue	n/a	twobytwo	89.0	0.702	orange	7.0	task_switch	color	switch	stim	poldrack-single-stim	s491	0	False
