onset	duration	movement_onset	block_duration	condition	correct	correct_response	experiment_exp_id	key_press	response_time	trial_id	trial_type	worker_id	junk
3.012	0.5	3.011	0.5	BY	n/a	n/a	dot_pattern_expectancy	-1.0	n/a	cue	BY	s491	False
5.518	0.5	5.963	1.636	BY	1.0	71.0	dot_pattern_expectancy	71.0	0.445	probe	BY	s491	False
7.157	0.5	7.156	0.5	AY	n/a	n/a	dot_pattern_expectancy	-1.0	n/a	cue	AY	s491	False
9.663	0.5	10.229	1.5	AY	1.0	71.0	dot_pattern_expectancy	71.0	0.566	probe	AY	s491	False
11.167	0.5	11.166	0.5	AX	n/a	n/a	dot_pattern_expectancy	-1.0	n/a	cue	AX	s491	False
13.672	0.5	14.073	2.044	AX	1.0	89.0	dot_pattern_expectancy	89.0	0.401	probe	AX	s491	False
15.719	0.5	15.718	0.5	BY	n/a	n/a	dot_pattern_expectancy	-1.0	n/a	cue	BY	s491	False
18.225	0.5	18.598	1.772	BY	1.0	71.0	dot_pattern_expectancy	71.0	0.373	probe	BY	s491	False
20.0	0.5	19.999	0.5	BX	n/a	n/a	dot_pattern_expectancy	-1.0	n/a	cue	BX	s491	False
22.506	0.5	22.825	1.636	BX	1.0	71.0	dot_pattern_expectancy	71.0	0.319	probe	BX	s491	False
24.147	0.5	24.146	0.5	AX	n/a	n/a	dot_pattern_expectancy	-1.0	n/a	cue	AX	s491	False
26.655	0.5	27.307	1.636	AX	1.0	89.0	dot_pattern_expectancy	89.0	0.652	probe	AX	s491	False
28.294	0.5	28.293	0.5	AX	n/a	n/a	dot_pattern_expectancy	-1.0	n/a	cue	AX	s491	False
30.8	0.5	31.368	1.5	AX	1.0	89.0	dot_pattern_expectancy	89.0	0.568	probe	AX	s491	False
32.304	0.5	32.303	0.5	AX	n/a	n/a	dot_pattern_expectancy	-1.0	n/a	cue	AX	s491	False
34.81	0.5	35.364	1.5	AX	1.0	89.0	dot_pattern_expectancy	89.0	0.554	probe	AX	s491	False
36.315	0.5	36.314	0.5	AY	n/a	n/a	dot_pattern_expectancy	-1.0	n/a	cue	AY	s491	False
38.821	0.5	39.364	2.044	AY	1.0	71.0	dot_pattern_expectancy	71.0	0.543	probe	AY	s491	False
40.869	0.5	40.868	0.5	AX	n/a	n/a	dot_pattern_expectancy	-1.0	n/a	cue	AX	s491	False
43.375	0.5	43.975	2.452	AX	1.0	89.0	dot_pattern_expectancy	89.0	0.6	probe	AX	s491	False
45.83	0.5	45.829	0.5	AX	n/a	n/a	dot_pattern_expectancy	-1.0	n/a	cue	AX	s491	False
48.335	0.5	48.735	1.908	AX	1.0	89.0	dot_pattern_expectancy	89.0	0.4	probe	AX	s491	False
50.247	0.5	50.246	0.5	AX	n/a	n/a	dot_pattern_expectancy	-1.0	n/a	cue	AX	s491	False
52.751	0.5	53.294	1.5	AX	1.0	89.0	dot_pattern_expectancy	89.0	0.543	probe	AX	s491	False
54.253	0.5	54.252	0.5	AX	n/a	n/a	dot_pattern_expectancy	-1.0	n/a	cue	AX	s491	False
56.759	0.5	57.365	1.908	AX	1.0	89.0	dot_pattern_expectancy	89.0	0.606	probe	AX	s491	False
58.671	0.5	58.67	0.5	BX	n/a	n/a	dot_pattern_expectancy	-1.0	n/a	cue	BX	s491	False
61.175	0.5	61.595	2.18	BX	1.0	71.0	dot_pattern_expectancy	71.0	0.42	probe	BX	s491	False
63.359	0.5	63.358	0.5	AX	n/a	n/a	dot_pattern_expectancy	-1.0	n/a	cue	AX	s491	False
65.866	0.5	66.302	1.5	AX	1.0	89.0	dot_pattern_expectancy	89.0	0.436	probe	AX	s491	False
67.37	0.5	67.369	0.5	BY	n/a	n/a	dot_pattern_expectancy	-1.0	n/a	cue	BY	s491	False
69.876	0.5	70.372	1.908	BY	1.0	71.0	dot_pattern_expectancy	71.0	0.496	probe	BY	s491	False
71.786	0.5	71.785	0.5	BX	n/a	n/a	dot_pattern_expectancy	-1.0	n/a	cue	BX	s491	False
74.293	0.5	74.741	2.316	BX	1.0	71.0	dot_pattern_expectancy	71.0	0.448	probe	BX	s491	False
76.612	0.5	76.611	0.5	AY	n/a	n/a	dot_pattern_expectancy	-1.0	n/a	cue	AY	s491	False
79.117	0.5	79.75	2.316	AY	1.0	71.0	dot_pattern_expectancy	71.0	0.633	probe	AY	s491	False
81.435	0.5	81.434	0.5	BX	n/a	n/a	dot_pattern_expectancy	-1.0	n/a	cue	BX	s491	False
83.94	0.5	84.265	1.636	BX	1.0	71.0	dot_pattern_expectancy	71.0	0.325	probe	BX	s491	False
85.581	0.5	85.58	0.5	AY	n/a	n/a	dot_pattern_expectancy	-1.0	n/a	cue	AY	s491	False
88.086	0.5	88.729	1.5	AY	1.0	71.0	dot_pattern_expectancy	71.0	0.643	probe	AY	s491	False
89.588	0.5	89.587	0.5	BY	n/a	n/a	dot_pattern_expectancy	-1.0	n/a	cue	BY	s491	False
92.094	0.5	92.659	1.908	BY	1.0	71.0	dot_pattern_expectancy	71.0	0.565	probe	BY	s491	False
94.006	0.5	94.005	0.5	AX	n/a	n/a	dot_pattern_expectancy	-1.0	n/a	cue	AX	s491	False
96.51	0.5	96.973	1.5	AX	1.0	89.0	dot_pattern_expectancy	89.0	0.463	probe	AX	s491	False
98.013	0.5	98.012	0.5	AY	n/a	n/a	dot_pattern_expectancy	-1.0	n/a	cue	AY	s491	False
100.521	0.5	101.062	2.316	AY	1.0	71.0	dot_pattern_expectancy	71.0	0.541	probe	AY	s491	False
102.841	0.5	102.84	0.5	AX	n/a	n/a	dot_pattern_expectancy	-1.0	n/a	cue	AX	s491	False
105.348	0.5	106.155	1.5	AX	1.0	89.0	dot_pattern_expectancy	89.0	0.807	probe	AX	s491	False
106.852	0.5	106.851	0.5	AY	n/a	n/a	dot_pattern_expectancy	-1.0	n/a	cue	AY	s491	False
109.357	0.5	109.922	2.724	AY	1.0	71.0	dot_pattern_expectancy	71.0	0.565	probe	AY	s491	False
112.085	0.5	112.084	0.5	AX	n/a	n/a	dot_pattern_expectancy	-1.0	n/a	cue	AX	s491	False
114.592	0.5	115.359	1.5	AX	1.0	89.0	dot_pattern_expectancy	89.0	0.767	probe	AX	s491	False
116.095	0.5	116.094	0.5	AX	n/a	n/a	dot_pattern_expectancy	-1.0	n/a	cue	AX	s491	False
118.601	0.5	119.259	1.636	AX	1.0	89.0	dot_pattern_expectancy	89.0	0.658	probe	AX	s491	False
120.24	0.5	120.239	0.5	AX	n/a	n/a	dot_pattern_expectancy	-1.0	n/a	cue	AX	s491	False
122.746	0.5	123.283	1.636	AX	1.0	89.0	dot_pattern_expectancy	89.0	0.537	probe	AX	s491	False
124.385	0.5	124.384	0.5	AX	n/a	n/a	dot_pattern_expectancy	-1.0	n/a	cue	AX	s491	False
126.89	0.5	127.327	1.772	AX	1.0	89.0	dot_pattern_expectancy	89.0	0.437	probe	AX	s491	False
128.665	0.5	128.664	0.5	BY	n/a	n/a	dot_pattern_expectancy	-1.0	n/a	cue	BY	s491	False
131.171	0.5	131.631	1.772	BY	1.0	71.0	dot_pattern_expectancy	71.0	0.46	probe	BY	s491	False
132.946	0.5	132.945	0.5	AX	n/a	n/a	dot_pattern_expectancy	-1.0	n/a	cue	AX	s491	False
135.452	0.5	136.085	1.5	AX	1.0	89.0	dot_pattern_expectancy	89.0	0.633	probe	AX	s491	False
136.955	0.5	136.954	0.5	BY	n/a	n/a	dot_pattern_expectancy	-1.0	n/a	cue	BY	s491	False
139.462	0.5	139.76	2.452	BY	1.0	71.0	dot_pattern_expectancy	71.0	0.298	probe	BY	s491	False
141.918	0.5	141.917	0.5	AX	n/a	n/a	dot_pattern_expectancy	-1.0	n/a	cue	AX	s491	False
144.423	0.5	144.999	1.636	AX	1.0	89.0	dot_pattern_expectancy	89.0	0.576	probe	AX	s491	False
146.069	0.5	146.068	0.5	AX	n/a	n/a	dot_pattern_expectancy	-1.0	n/a	cue	AX	s491	False
148.576	0.5	149.366	1.636	AX	1.0	89.0	dot_pattern_expectancy	89.0	0.79	probe	AX	s491	False
150.215	0.5	150.214	0.5	BX	n/a	n/a	dot_pattern_expectancy	-1.0	n/a	cue	BX	s491	False
152.721	0.5	153.092	1.5	BX	1.0	71.0	dot_pattern_expectancy	71.0	0.371	probe	BX	s491	False
154.225	0.5	154.224	0.5	BX	n/a	n/a	dot_pattern_expectancy	-1.0	n/a	cue	BX	s491	False
156.731	0.5	157.212	1.5	BX	1.0	71.0	dot_pattern_expectancy	71.0	0.481	probe	BX	s491	False
158.234	0.5	158.233	0.5	AX	n/a	n/a	dot_pattern_expectancy	-1.0	n/a	cue	AX	s491	False
160.74	0.5	161.175	2.316	AX	1.0	89.0	dot_pattern_expectancy	89.0	0.435	probe	AX	s491	False
163.06	0.5	163.059	0.5	AY	n/a	n/a	dot_pattern_expectancy	-1.0	n/a	cue	AY	s491	False
165.567	0.5	166.268	2.044	AY	1.0	71.0	dot_pattern_expectancy	71.0	0.701	probe	AY	s491	False
167.614	0.5	167.613	0.5	AX	n/a	n/a	dot_pattern_expectancy	-1.0	n/a	cue	AX	s491	False
170.12	0.5	170.815	3.948	AX	1.0	89.0	dot_pattern_expectancy	89.0	0.695	probe	AX	s491	False
174.072	0.5	174.071	0.5	AX	n/a	n/a	dot_pattern_expectancy	-1.0	n/a	cue	AX	s491	False
176.577	0.5	177.215	1.636	AX	1.0	89.0	dot_pattern_expectancy	89.0	0.638	probe	AX	s491	False
188.727	0.5	188.726	0.5	AY	n/a	n/a	dot_pattern_expectancy	-1.0	n/a	cue	AY	s491	False
191.233	0.5	191.817	1.636	AY	1.0	71.0	dot_pattern_expectancy	71.0	0.584	probe	AY	s491	False
192.872	0.5	192.871	0.5	AX	n/a	n/a	dot_pattern_expectancy	-1.0	n/a	cue	AX	s491	False
195.377	0.5	195.857	1.636	AX	1.0	89.0	dot_pattern_expectancy	89.0	0.48	probe	AX	s491	False
197.015	0.5	197.014	0.5	AX	n/a	n/a	dot_pattern_expectancy	-1.0	n/a	cue	AX	s491	False
199.522	0.5	200.091	1.5	AX	1.0	89.0	dot_pattern_expectancy	89.0	0.569	probe	AX	s491	False
201.026	0.5	201.025	0.5	AX	n/a	n/a	dot_pattern_expectancy	-1.0	n/a	cue	AX	s491	False
203.533	0.5	204.071	1.5	AX	1.0	89.0	dot_pattern_expectancy	89.0	0.538	probe	AX	s491	False
205.036	0.5	205.035	0.5	AX	n/a	n/a	dot_pattern_expectancy	-1.0	n/a	cue	AX	s491	False
207.542	0.5	207.982	1.908	AX	1.0	89.0	dot_pattern_expectancy	89.0	0.44	probe	AX	s491	False
209.454	0.5	209.453	0.5	BX	n/a	n/a	dot_pattern_expectancy	-1.0	n/a	cue	BX	s491	False
211.96	0.5	212.394	1.636	BX	1.0	71.0	dot_pattern_expectancy	71.0	0.434	probe	BX	s491	False
213.599	0.5	213.598	0.5	AX	n/a	n/a	dot_pattern_expectancy	-1.0	n/a	cue	AX	s491	False
216.106	0.5	216.572	2.044	AX	1.0	89.0	dot_pattern_expectancy	89.0	0.466	probe	AX	s491	False
218.153	0.5	218.152	0.5	AX	n/a	n/a	dot_pattern_expectancy	-1.0	n/a	cue	AX	s491	False
220.658	0.5	221.2	1.772	AX	1.0	89.0	dot_pattern_expectancy	89.0	0.542	probe	AX	s491	False
222.434	0.5	222.433	0.5	AX	n/a	n/a	dot_pattern_expectancy	-1.0	n/a	cue	AX	s491	False
224.939	0.5	225.431	1.5	AX	1.0	89.0	dot_pattern_expectancy	89.0	0.492	probe	AX	s491	False
226.442	0.5	226.441	0.5	AX	n/a	n/a	dot_pattern_expectancy	-1.0	n/a	cue	AX	s491	False
228.948	0.5	229.43	2.18	AX	1.0	89.0	dot_pattern_expectancy	89.0	0.482	probe	AX	s491	False
231.13	0.5	231.129	0.5	AX	n/a	n/a	dot_pattern_expectancy	-1.0	n/a	cue	AX	s491	False
233.635	0.5	234.138	1.5	AX	1.0	89.0	dot_pattern_expectancy	89.0	0.503	probe	AX	s491	False
235.138	0.5	235.137	0.5	BX	n/a	n/a	dot_pattern_expectancy	-1.0	n/a	cue	BX	s491	False
237.643	0.5	237.994	3.676	BX	1.0	71.0	dot_pattern_expectancy	71.0	0.351	probe	BX	s491	False
241.321	0.5	241.32	0.5	BY	n/a	n/a	dot_pattern_expectancy	-1.0	n/a	cue	BY	s491	False
243.826	0.5	244.178	1.636	BY	1.0	71.0	dot_pattern_expectancy	71.0	0.352	probe	BY	s491	False
245.465	0.5	245.464	0.5	BY	n/a	n/a	dot_pattern_expectancy	-1.0	n/a	cue	BY	s491	False
247.97	0.5	248.384	1.636	BY	1.0	71.0	dot_pattern_expectancy	71.0	0.414	probe	BY	s491	False
249.61	0.5	249.609	0.5	BX	n/a	n/a	dot_pattern_expectancy	-1.0	n/a	cue	BX	s491	False
252.117	0.5	252.488	1.5	BX	1.0	71.0	dot_pattern_expectancy	71.0	0.371	probe	BX	s491	False
253.62	0.5	253.619	0.5	AX	n/a	n/a	dot_pattern_expectancy	-1.0	n/a	cue	AX	s491	False
256.123	0.5	256.792	1.908	AX	1.0	89.0	dot_pattern_expectancy	89.0	0.669	probe	AX	s491	False
258.034	0.5	258.033	0.5	AX	n/a	n/a	dot_pattern_expectancy	-1.0	n/a	cue	AX	s491	False
260.54	0.5	261.147	1.636	AX	1.0	89.0	dot_pattern_expectancy	89.0	0.607	probe	AX	s491	False
262.182	0.5	262.181	0.5	BX	n/a	n/a	dot_pattern_expectancy	-1.0	n/a	cue	BX	s491	False
264.687	0.5	265.073	1.5	BX	1.0	71.0	dot_pattern_expectancy	71.0	0.386	probe	BX	s491	False
266.191	0.5	266.19	0.5	AX	n/a	n/a	dot_pattern_expectancy	-1.0	n/a	cue	AX	s491	False
268.696	0.5	269.178	1.908	AX	1.0	89.0	dot_pattern_expectancy	89.0	0.482	probe	AX	s491	False
270.607	0.5	270.606	0.5	BY	n/a	n/a	dot_pattern_expectancy	-1.0	n/a	cue	BY	s491	False
273.115	0.5	273.605	2.18	BY	1.0	71.0	dot_pattern_expectancy	71.0	0.49	probe	BY	s491	False
275.298	0.5	275.297	0.5	AX	n/a	n/a	dot_pattern_expectancy	-1.0	n/a	cue	AX	s491	False
277.806	0.5	278.446	1.772	AX	1.0	89.0	dot_pattern_expectancy	89.0	0.64	probe	AX	s491	False
279.581	0.5	279.58	0.5	AX	n/a	n/a	dot_pattern_expectancy	-1.0	n/a	cue	AX	s491	False
282.086	0.5	282.759	1.5	AX	1.0	89.0	dot_pattern_expectancy	89.0	0.673	probe	AX	s491	False
283.589	0.5	283.588	0.5	AX	n/a	n/a	dot_pattern_expectancy	-1.0	n/a	cue	AX	s491	False
286.095	0.5	286.563	1.5	AX	1.0	89.0	dot_pattern_expectancy	89.0	0.468	probe	AX	s491	False
287.6	0.5	287.599	0.5	AX	n/a	n/a	dot_pattern_expectancy	-1.0	n/a	cue	AX	s491	False
290.106	0.5	290.53	2.044	AX	1.0	89.0	dot_pattern_expectancy	89.0	0.424	probe	AX	s491	False
292.154	0.5	292.153	0.5	AX	n/a	n/a	dot_pattern_expectancy	-1.0	n/a	cue	AX	s491	False
294.661	0.5	295.178	2.86	AX	1.0	89.0	dot_pattern_expectancy	89.0	0.517	probe	AX	s491	False
297.525	0.5	297.524	0.5	BX	n/a	n/a	dot_pattern_expectancy	-1.0	n/a	cue	BX	s491	False
300.032	0.5	300.434	1.5	BX	1.0	71.0	dot_pattern_expectancy	71.0	0.402	probe	BX	s491	False
301.536	0.5	301.535	0.5	BY	n/a	n/a	dot_pattern_expectancy	-1.0	n/a	cue	BY	s491	False
304.04	0.5	304.438	1.772	BY	1.0	71.0	dot_pattern_expectancy	71.0	0.398	probe	BY	s491	False
305.815	0.5	305.814	0.5	AX	n/a	n/a	dot_pattern_expectancy	-1.0	n/a	cue	AX	s491	False
308.32	0.5	308.831	1.772	AX	1.0	89.0	dot_pattern_expectancy	89.0	0.511	probe	AX	s491	False
310.095	0.5	310.094	0.5	AX	n/a	n/a	dot_pattern_expectancy	-1.0	n/a	cue	AX	s491	False
312.599	0.5	313.087	2.86	AX	1.0	89.0	dot_pattern_expectancy	89.0	0.488	probe	AX	s491	False
315.462	0.5	315.461	0.5	AX	n/a	n/a	dot_pattern_expectancy	-1.0	n/a	cue	AX	s491	False
317.969	0.5	318.476	1.772	AX	1.0	89.0	dot_pattern_expectancy	89.0	0.507	probe	AX	s491	False
319.743	0.5	319.742	0.5	BX	n/a	n/a	dot_pattern_expectancy	-1.0	n/a	cue	BX	s491	False
322.25	0.5	322.584	1.636	BX	1.0	71.0	dot_pattern_expectancy	71.0	0.334	probe	BX	s491	False
323.891	0.5	323.89	0.5	BX	n/a	n/a	dot_pattern_expectancy	-1.0	n/a	cue	BX	s491	False
326.397	0.5	326.678	2.452	BX	1.0	71.0	dot_pattern_expectancy	71.0	0.281	probe	BX	s491	False
328.853	0.5	328.852	0.5	AX	n/a	n/a	dot_pattern_expectancy	-1.0	n/a	cue	AX	s491	False
331.358	0.5	331.91	1.636	AX	1.0	89.0	dot_pattern_expectancy	89.0	0.552	probe	AX	s491	False
332.996	0.5	332.995	0.5	BX	n/a	n/a	dot_pattern_expectancy	-1.0	n/a	cue	BX	s491	False
335.504	0.5	335.896	1.5	BX	1.0	71.0	dot_pattern_expectancy	71.0	0.392	probe	BX	s491	False
337.008	0.5	337.007	0.5	AX	n/a	n/a	dot_pattern_expectancy	-1.0	n/a	cue	AX	s491	False
339.513	0.5	340.048	1.636	AX	1.0	89.0	dot_pattern_expectancy	89.0	0.535	probe	AX	s491	False
341.152	0.5	341.151	0.5	AX	n/a	n/a	dot_pattern_expectancy	-1.0	n/a	cue	AX	s491	False
343.656	0.5	344.075	1.636	AX	1.0	89.0	dot_pattern_expectancy	89.0	0.419	probe	AX	s491	False
345.296	0.5	345.295	0.5	BY	n/a	n/a	dot_pattern_expectancy	-1.0	n/a	cue	BY	s491	False
347.801	0.5	348.277	2.18	BY	1.0	71.0	dot_pattern_expectancy	71.0	0.476	probe	BY	s491	False
349.984	0.5	349.983	0.5	AX	n/a	n/a	dot_pattern_expectancy	-1.0	n/a	cue	AX	s491	False
352.49	0.5	353.033	1.5	AX	1.0	89.0	dot_pattern_expectancy	89.0	0.543	probe	AX	s491	False
353.994	0.5	353.993	0.5	AY	n/a	n/a	dot_pattern_expectancy	-1.0	n/a	cue	AY	s491	False
356.5	0.5	357.046	1.636	AY	1.0	71.0	dot_pattern_expectancy	71.0	0.546	probe	AY	s491	False
358.138	0.5	358.137	0.5	AX	n/a	n/a	dot_pattern_expectancy	-1.0	n/a	cue	AX	s491	False
360.645	0.5	361.155	1.636	AX	1.0	89.0	dot_pattern_expectancy	89.0	0.51	probe	AX	s491	False
372.795	0.5	372.794	0.5	AX	n/a	n/a	dot_pattern_expectancy	-1.0	n/a	cue	AX	s491	False
375.301	0.5	375.82	2.18	AX	1.0	89.0	dot_pattern_expectancy	89.0	0.519	probe	AX	s491	False
377.486	0.5	377.485	0.5	AY	n/a	n/a	dot_pattern_expectancy	-1.0	n/a	cue	AY	s491	False
379.992	0.5	380.609	2.316	AY	1.0	71.0	dot_pattern_expectancy	71.0	0.617	probe	AY	s491	False
382.311	0.5	382.31	0.5	AY	n/a	n/a	dot_pattern_expectancy	-1.0	n/a	cue	AY	s491	False
384.818	0.5	385.604	1.636	AY	1.0	71.0	dot_pattern_expectancy	71.0	0.786	probe	AY	s491	False
386.457	0.5	386.456	0.5	BX	n/a	n/a	dot_pattern_expectancy	-1.0	n/a	cue	BX	s491	False
388.962	0.5	389.343	1.908	BX	1.0	71.0	dot_pattern_expectancy	71.0	0.381	probe	BX	s491	False
390.873	0.5	390.872	0.5	AX	n/a	n/a	dot_pattern_expectancy	-1.0	n/a	cue	AX	s491	False
393.38	0.5	394.031	3.54	AX	1.0	89.0	dot_pattern_expectancy	89.0	0.651	probe	AX	s491	False
396.923	0.5	396.922	0.5	BX	n/a	n/a	dot_pattern_expectancy	-1.0	n/a	cue	BX	s491	False
399.43	0.5	400.557	1.636	BX	1.0	71.0	dot_pattern_expectancy	71.0	1.127	probe	BX	s491	False
401.069	0.5	401.068	0.5	BY	n/a	n/a	dot_pattern_expectancy	-1.0	n/a	cue	BY	s491	False
403.574	0.5	404.125	1.5	BY	1.0	71.0	dot_pattern_expectancy	71.0	0.551	probe	BY	s491	False
405.076	0.5	405.075	0.5	AX	n/a	n/a	dot_pattern_expectancy	-1.0	n/a	cue	AX	s491	False
407.582	0.5	407.992	1.5	AX	1.0	89.0	dot_pattern_expectancy	89.0	0.41	probe	AX	s491	False
409.085	0.5	409.084	0.5	AX	n/a	n/a	dot_pattern_expectancy	-1.0	n/a	cue	AX	s491	False
411.592	0.5	412.028	1.772	AX	1.0	89.0	dot_pattern_expectancy	89.0	0.436	probe	AX	s491	False
413.368	0.5	413.367	0.5	BY	n/a	n/a	dot_pattern_expectancy	-1.0	n/a	cue	BY	s491	False
415.874	0.5	416.368	2.452	BY	1.0	71.0	dot_pattern_expectancy	71.0	0.494	probe	BY	s491	False
418.33	0.5	418.329	0.5	AX	n/a	n/a	dot_pattern_expectancy	-1.0	n/a	cue	AX	s491	False
420.835	0.5	421.486	1.908	AX	1.0	89.0	dot_pattern_expectancy	89.0	0.651	probe	AX	s491	False
422.746	0.5	422.745	0.5	BX	n/a	n/a	dot_pattern_expectancy	-1.0	n/a	cue	BX	s491	False
425.253	0.5	425.692	1.636	BX	1.0	71.0	dot_pattern_expectancy	71.0	0.439	probe	BX	s491	False
426.893	0.5	426.892	0.5	AX	n/a	n/a	dot_pattern_expectancy	-1.0	n/a	cue	AX	s491	False
429.397	0.5	429.9	1.5	AX	1.0	89.0	dot_pattern_expectancy	89.0	0.503	probe	AX	s491	False
430.9	0.5	430.899	0.5	AX	n/a	n/a	dot_pattern_expectancy	-1.0	n/a	cue	AX	s491	False
433.406	0.5	433.888	1.636	AX	1.0	89.0	dot_pattern_expectancy	89.0	0.482	probe	AX	s491	False
435.045	0.5	435.044	0.5	AX	n/a	n/a	dot_pattern_expectancy	-1.0	n/a	cue	AX	s491	False
437.551	0.5	438.011	1.636	AX	1.0	89.0	dot_pattern_expectancy	89.0	0.46	probe	AX	s491	False
439.19	0.5	439.189	0.5	BY	n/a	n/a	dot_pattern_expectancy	-1.0	n/a	cue	BY	s491	False
441.696	0.5	442.22	2.452	BY	1.0	71.0	dot_pattern_expectancy	71.0	0.524	probe	BY	s491	False
444.15	0.5	444.149	0.5	AX	n/a	n/a	dot_pattern_expectancy	-1.0	n/a	cue	AX	s491	False
446.656	0.5	447.135	1.5	AX	1.0	89.0	dot_pattern_expectancy	89.0	0.479	probe	AX	s491	False
448.159	0.5	448.158	0.5	BY	n/a	n/a	dot_pattern_expectancy	-1.0	n/a	cue	BY	s491	False
450.665	0.5	451.187	1.5	BY	1.0	71.0	dot_pattern_expectancy	71.0	0.522	probe	BY	s491	False
452.168	0.5	452.167	0.5	AX	n/a	n/a	dot_pattern_expectancy	-1.0	n/a	cue	AX	s491	False
454.674	0.5	455.248	1.636	AX	1.0	89.0	dot_pattern_expectancy	89.0	0.574	probe	AX	s491	False
456.313	0.5	456.312	0.5	AX	n/a	n/a	dot_pattern_expectancy	-1.0	n/a	cue	AX	s491	False
458.818	0.5	459.261	1.636	AX	1.0	89.0	dot_pattern_expectancy	89.0	0.443	probe	AX	s491	False
460.458	0.5	460.457	0.5	AY	n/a	n/a	dot_pattern_expectancy	-1.0	n/a	cue	AY	s491	False
462.964	0.5	463.578	1.636	AY	1.0	71.0	dot_pattern_expectancy	71.0	0.614	probe	AY	s491	False
464.604	0.5	464.603	0.5	AX	n/a	n/a	dot_pattern_expectancy	-1.0	n/a	cue	AX	s491	False
467.109	0.5	467.561	1.5	AX	1.0	89.0	dot_pattern_expectancy	89.0	0.452	probe	AX	s491	False
468.613	0.5	468.612	0.5	AX	n/a	n/a	dot_pattern_expectancy	-1.0	n/a	cue	AX	s491	False
471.119	0.5	471.662	1.5	AX	1.0	89.0	dot_pattern_expectancy	89.0	0.543	probe	AX	s491	False
472.623	0.5	472.622	0.5	AX	n/a	n/a	dot_pattern_expectancy	-1.0	n/a	cue	AX	s491	False
475.131	0.5	475.562	1.772	AX	1.0	89.0	dot_pattern_expectancy	89.0	0.431	probe	AX	s491	False
476.906	0.5	476.905	0.5	AX	n/a	n/a	dot_pattern_expectancy	-1.0	n/a	cue	AX	s491	False
479.412	0.5	479.89	2.18	AX	1.0	89.0	dot_pattern_expectancy	89.0	0.478	probe	AX	s491	False
481.595	0.5	481.594	0.5	BX	n/a	n/a	dot_pattern_expectancy	-1.0	n/a	cue	BX	s491	False
484.101	0.5	484.57	1.772	BX	1.0	71.0	dot_pattern_expectancy	71.0	0.469	probe	BX	s491	False
485.877	0.5	485.876	0.5	BY	n/a	n/a	dot_pattern_expectancy	-1.0	n/a	cue	BY	s491	False
488.383	0.5	488.87	1.5	BY	1.0	71.0	dot_pattern_expectancy	71.0	0.487	probe	BY	s491	False
489.886	0.5	489.885	0.5	AX	n/a	n/a	dot_pattern_expectancy	-1.0	n/a	cue	AX	s491	False
492.39	0.5	492.981	1.5	AX	1.0	89.0	dot_pattern_expectancy	89.0	0.591	probe	AX	s491	False
493.893	0.5	493.892	0.5	AX	n/a	n/a	dot_pattern_expectancy	-1.0	n/a	cue	AX	s491	False
496.399	0.5	496.956	1.636	AX	1.0	89.0	dot_pattern_expectancy	89.0	0.557	probe	AX	s491	False
498.039	0.5	498.038	0.5	AY	n/a	n/a	dot_pattern_expectancy	-1.0	n/a	cue	AY	s491	False
500.544	0.5	501.138	2.18	AY	1.0	71.0	dot_pattern_expectancy	71.0	0.594	probe	AY	s491	False
502.727	0.5	502.726	0.5	AY	n/a	n/a	dot_pattern_expectancy	-1.0	n/a	cue	AY	s491	False
505.233	0.5	506.202	2.316	AY	1.0	71.0	dot_pattern_expectancy	71.0	0.969	probe	AY	s491	False
507.552	0.5	507.551	0.5	BX	n/a	n/a	dot_pattern_expectancy	-1.0	n/a	cue	BX	s491	False
510.058	0.5	510.811	1.636	BX	1.0	71.0	dot_pattern_expectancy	71.0	0.753	probe	BX	s491	False
511.697	0.5	511.696	0.5	BX	n/a	n/a	dot_pattern_expectancy	-1.0	n/a	cue	BX	s491	False
514.204	0.5	514.484	2.18	BX	1.0	71.0	dot_pattern_expectancy	71.0	0.28	probe	BX	s491	False
516.387	0.5	516.386	0.5	AY	n/a	n/a	dot_pattern_expectancy	-1.0	n/a	cue	AY	s491	False
518.891	0.5	519.498	2.044	AY	1.0	71.0	dot_pattern_expectancy	71.0	0.607	probe	AY	s491	False
520.939	0.5	520.938	0.5	AX	n/a	n/a	dot_pattern_expectancy	-1.0	n/a	cue	AX	s491	False
523.445	0.5	523.894	1.772	AX	1.0	89.0	dot_pattern_expectancy	89.0	0.449	probe	AX	s491	False
525.22	0.5	525.219	0.5	AX	n/a	n/a	dot_pattern_expectancy	-1.0	n/a	cue	AX	s491	False
527.726	0.5	528.24	1.5	AX	1.0	89.0	dot_pattern_expectancy	89.0	0.514	probe	AX	s491	False
529.23	0.5	529.229	0.5	AX	n/a	n/a	dot_pattern_expectancy	-1.0	n/a	cue	AX	s491	False
531.735	0.5	532.282	2.18	AX	1.0	89.0	dot_pattern_expectancy	89.0	0.547	probe	AX	s491	False
533.918	0.5	533.917	0.5	AY	n/a	n/a	dot_pattern_expectancy	-1.0	n/a	cue	AY	s491	False
536.423	0.5	537.006	2.452	AY	1.0	71.0	dot_pattern_expectancy	71.0	0.583	probe	AY	s491	False
538.879	0.5	538.878	0.5	AX	n/a	n/a	dot_pattern_expectancy	-1.0	n/a	cue	AX	s491	False
541.386	0.5	541.941	1.636	AX	1.0	89.0	dot_pattern_expectancy	89.0	0.555	probe	AX	s491	False
543.027	0.5	543.026	0.5	AX	n/a	n/a	dot_pattern_expectancy	-1.0	n/a	cue	AX	s491	False
545.531	0.5	546.108	1.908	AX	1.0	89.0	dot_pattern_expectancy	89.0	0.577	probe	AX	s491	False
557.952	0.5	557.951	0.5	AX	n/a	n/a	dot_pattern_expectancy	-1.0	n/a	cue	AX	s491	False
560.457	0.5	561.046	1.772	AX	1.0	89.0	dot_pattern_expectancy	89.0	0.589	probe	AX	s491	False
562.233	0.5	562.232	0.5	AX	n/a	n/a	dot_pattern_expectancy	-1.0	n/a	cue	AX	s491	False
564.739	0.5	565.369	1.5	AX	1.0	89.0	dot_pattern_expectancy	89.0	0.63	probe	AX	s491	False
566.244	0.5	566.243	0.5	AY	n/a	n/a	dot_pattern_expectancy	-1.0	n/a	cue	AY	s491	False
568.749	0.5	569.299	2.452	AY	1.0	71.0	dot_pattern_expectancy	71.0	0.55	probe	AY	s491	False
571.205	0.5	571.204	0.5	AY	n/a	n/a	dot_pattern_expectancy	-1.0	n/a	cue	AY	s491	False
573.712	0.5	574.339	1.772	AY	1.0	71.0	dot_pattern_expectancy	71.0	0.627	probe	AY	s491	False
575.487	0.5	575.486	0.5	AX	n/a	n/a	dot_pattern_expectancy	-1.0	n/a	cue	AX	s491	False
577.991	0.5	578.496	1.908	AX	1.0	89.0	dot_pattern_expectancy	89.0	0.505	probe	AX	s491	False
579.901	0.5	579.9	0.5	AX	n/a	n/a	dot_pattern_expectancy	-1.0	n/a	cue	AX	s491	False
582.406	0.5	582.897	1.908	AX	1.0	89.0	dot_pattern_expectancy	89.0	0.491	probe	AX	s491	False
584.317	0.5	584.316	0.5	AX	n/a	n/a	dot_pattern_expectancy	-1.0	n/a	cue	AX	s491	False
586.823	0.5	587.45	2.588	AX	1.0	89.0	dot_pattern_expectancy	89.0	0.627	probe	AX	s491	False
589.416	0.5	589.415	0.5	AY	n/a	n/a	dot_pattern_expectancy	-1.0	n/a	cue	AY	s491	False
591.921	0.5	592.461	1.5	AY	1.0	71.0	dot_pattern_expectancy	71.0	0.54	probe	AY	s491	False
593.424	0.5	593.423	0.5	BY	n/a	n/a	dot_pattern_expectancy	-1.0	n/a	cue	BY	s491	False
595.93	0.5	596.4	1.5	BY	1.0	71.0	dot_pattern_expectancy	71.0	0.47	probe	BY	s491	False
597.433	0.5	597.432	0.5	BY	n/a	n/a	dot_pattern_expectancy	-1.0	n/a	cue	BY	s491	False
599.938	0.5	600.365	1.5	BY	1.0	71.0	dot_pattern_expectancy	71.0	0.427	probe	BY	s491	False
601.443	0.5	601.442	0.5	AX	n/a	n/a	dot_pattern_expectancy	-1.0	n/a	cue	AX	s491	False
603.948	0.5	604.377	1.636	AX	1.0	89.0	dot_pattern_expectancy	89.0	0.429	probe	AX	s491	False
605.587	0.5	605.586	0.5	BX	n/a	n/a	dot_pattern_expectancy	-1.0	n/a	cue	BX	s491	False
608.092	0.5	608.413	2.044	BX	1.0	71.0	dot_pattern_expectancy	71.0	0.321	probe	BX	s491	False
610.139	0.5	610.138	0.5	AX	n/a	n/a	dot_pattern_expectancy	-1.0	n/a	cue	AX	s491	False
612.645	0.5	613.186	1.772	AX	1.0	89.0	dot_pattern_expectancy	89.0	0.541	probe	AX	s491	False
614.422	0.5	614.421	0.5	BX	n/a	n/a	dot_pattern_expectancy	-1.0	n/a	cue	BX	s491	False
616.927	0.5	617.301	2.588	BX	1.0	71.0	dot_pattern_expectancy	71.0	0.374	probe	BX	s491	False
619.52	0.5	619.519	0.5	AY	n/a	n/a	dot_pattern_expectancy	-1.0	n/a	cue	AY	s491	False
622.027	0.5	622.543	1.5	AY	1.0	71.0	dot_pattern_expectancy	71.0	0.516	probe	AY	s491	False
623.531	0.5	623.53	0.5	AX	n/a	n/a	dot_pattern_expectancy	-1.0	n/a	cue	AX	s491	False
626.036	0.5	626.621	2.452	AX	1.0	89.0	dot_pattern_expectancy	89.0	0.585	probe	AX	s491	False
628.49	0.5	628.489	0.5	BY	n/a	n/a	dot_pattern_expectancy	-1.0	n/a	cue	BY	s491	False
630.994	0.5	631.444	1.636	BY	1.0	71.0	dot_pattern_expectancy	71.0	0.45	probe	BY	s491	False
632.633	0.5	632.632	0.5	AX	n/a	n/a	dot_pattern_expectancy	-1.0	n/a	cue	AX	s491	False
635.138	0.5	635.596	1.636	AX	1.0	89.0	dot_pattern_expectancy	89.0	0.458	probe	AX	s491	False
636.776	0.5	636.775	0.5	AX	n/a	n/a	dot_pattern_expectancy	-1.0	n/a	cue	AX	s491	False
639.283	0.5	639.824	1.5	AX	1.0	89.0	dot_pattern_expectancy	89.0	0.541	probe	AX	s491	False
640.787	0.5	640.786	0.5	BY	n/a	n/a	dot_pattern_expectancy	-1.0	n/a	cue	BY	s491	False
643.292	0.5	643.905	1.636	BY	1.0	71.0	dot_pattern_expectancy	71.0	0.613	probe	BY	s491	False
644.932	0.5	644.931	0.5	AX	n/a	n/a	dot_pattern_expectancy	-1.0	n/a	cue	AX	s491	False
647.436	0.5	647.982	1.5	AX	1.0	89.0	dot_pattern_expectancy	89.0	0.546	probe	AX	s491	False
648.941	0.5	648.94	0.5	AY	n/a	n/a	dot_pattern_expectancy	-1.0	n/a	cue	AY	s491	False
651.447	0.5	652.033	2.18	AY	1.0	71.0	dot_pattern_expectancy	71.0	0.586	probe	AY	s491	False
653.631	0.5	653.63	0.5	AX	n/a	n/a	dot_pattern_expectancy	-1.0	n/a	cue	AX	s491	False
656.135	0.5	656.666	1.5	AX	1.0	89.0	dot_pattern_expectancy	89.0	0.531	probe	AX	s491	False
657.639	0.5	657.638	0.5	AX	n/a	n/a	dot_pattern_expectancy	-1.0	n/a	cue	AX	s491	False
660.143	0.5	660.624	1.908	AX	1.0	89.0	dot_pattern_expectancy	89.0	0.481	probe	AX	s491	False
662.054	0.5	662.053	0.5	BY	n/a	n/a	dot_pattern_expectancy	-1.0	n/a	cue	BY	s491	False
664.559	0.5	664.91	1.636	BY	1.0	71.0	dot_pattern_expectancy	71.0	0.351	probe	BY	s491	False
666.198	0.5	666.197	0.5	BY	n/a	n/a	dot_pattern_expectancy	-1.0	n/a	cue	BY	s491	False
668.702	0.5	669.222	1.636	BY	1.0	71.0	dot_pattern_expectancy	71.0	0.52	probe	BY	s491	False
670.341	0.5	670.34	0.5	AX	n/a	n/a	dot_pattern_expectancy	-1.0	n/a	cue	AX	s491	False
672.846	0.5	673.316	1.636	AX	1.0	89.0	dot_pattern_expectancy	89.0	0.47	probe	AX	s491	False
674.485	0.5	674.484	0.5	AX	n/a	n/a	dot_pattern_expectancy	-1.0	n/a	cue	AX	s491	False
677.002	0.5	677.685	1.5	AX	1.0	89.0	dot_pattern_expectancy	89.0	0.683	probe	AX	s491	False
678.505	0.5	678.504	0.5	BY	n/a	n/a	dot_pattern_expectancy	-1.0	n/a	cue	BY	s491	False
681.011	0.5	681.503	2.044	BY	1.0	71.0	dot_pattern_expectancy	71.0	0.492	probe	BY	s491	False
683.057	0.5	683.056	0.5	AY	n/a	n/a	dot_pattern_expectancy	-1.0	n/a	cue	AY	s491	False
685.566	0.5	686.148	2.18	AY	1.0	71.0	dot_pattern_expectancy	71.0	0.582	probe	AY	s491	False
687.754	0.5	687.753	0.5	AY	n/a	n/a	dot_pattern_expectancy	-1.0	n/a	cue	AY	s491	False
690.259	0.5	690.831	1.636	AY	1.0	71.0	dot_pattern_expectancy	71.0	0.572	probe	AY	s491	False
691.897	0.5	691.896	0.5	AY	n/a	n/a	dot_pattern_expectancy	-1.0	n/a	cue	AY	s491	False
694.403	0.5	694.99	1.772	AY	1.0	71.0	dot_pattern_expectancy	71.0	0.587	probe	AY	s491	False
696.179	0.5	696.178	0.5	BY	n/a	n/a	dot_pattern_expectancy	-1.0	n/a	cue	BY	s491	False
698.685	0.5	699.21	1.5	BY	1.0	71.0	dot_pattern_expectancy	71.0	0.525	probe	BY	s491	False
700.188	0.5	700.187	0.5	BX	n/a	n/a	dot_pattern_expectancy	-1.0	n/a	cue	BX	s491	False
702.693	0.5	703.015	1.908	BX	1.0	71.0	dot_pattern_expectancy	71.0	0.322	probe	BX	s491	False
704.605	0.5	704.604	0.5	AX	n/a	n/a	dot_pattern_expectancy	-1.0	n/a	cue	AX	s491	False
707.11	0.5	707.658	2.044	AX	1.0	89.0	dot_pattern_expectancy	89.0	0.548	probe	AX	s491	False
709.158	0.5	709.157	0.5	AX	n/a	n/a	dot_pattern_expectancy	-1.0	n/a	cue	AX	s491	False
711.664	0.5	712.162	1.636	AX	1.0	89.0	dot_pattern_expectancy	89.0	0.498	probe	AX	s491	False
713.304	0.5	713.303	0.5	AX	n/a	n/a	dot_pattern_expectancy	-1.0	n/a	cue	AX	s491	False
715.816	0.5	716.227	1.772	AX	1.0	89.0	dot_pattern_expectancy	89.0	0.411	probe	AX	s491	False
717.591	0.5	717.59	0.5	AX	n/a	n/a	dot_pattern_expectancy	-1.0	n/a	cue	AX	s491	False
720.096	0.5	720.55	1.636	AX	1.0	89.0	dot_pattern_expectancy	89.0	0.454	probe	AX	s491	False
721.735	0.5	721.734	0.5	BX	n/a	n/a	dot_pattern_expectancy	-1.0	n/a	cue	BX	s491	False
724.241	0.5	724.604	1.772	BX	1.0	71.0	dot_pattern_expectancy	71.0	0.363	probe	BX	s491	False
726.017	0.5	726.016	0.5	AX	n/a	n/a	dot_pattern_expectancy	-1.0	n/a	cue	AX	s491	False
728.524	0.5	729.013	1.5	AX	1.0	89.0	dot_pattern_expectancy	89.0	0.489	probe	AX	s491	False
