onset	duration	movement_onset	CTI	block_duration	correct	correct_response	cue	cue_switch	experiment_exp_id	key_press	response_time	stim_color	stim_number	switch_type	task	task_switch	trial_id	trial_type	worker_id	first_trial_of_block	junk
4.419	1.0	5.889	0.9	3.224	True	89.0	Color	stay	twobytwo	89.0	0.57	orange	3.0	cue_stay	color	stay	stim	poldrack-single-stim	s495	1	False
8.551	1.0	9.943	0.9	2.408	True	71.0	High-Low	n/a	twobytwo	71.0	0.492	blue	2.0	task_switch	magnitude	switch	stim	poldrack-single-stim	s495	0	False
11.064	1.0	11.984	0.1	2.816	True	89.0	Color	n/a	twobytwo	89.0	0.82	orange	4.0	task_switch	color	switch	stim	poldrack-single-stim	s495	0	False
13.988	1.0	15.167	0.1	2.408	True	71.0	Magnitude	n/a	twobytwo	71.0	1.079	blue	4.0	task_switch	magnitude	switch	stim	poldrack-single-stim	s495	0	False
16.503	1.0	17.556	0.1	2.136	True	71.0	Orange-Blue	n/a	twobytwo	71.0	0.953	blue	3.0	task_switch	color	switch	stim	poldrack-single-stim	s495	0	False
18.746	1.0	19.476	0.1	2.136	True	71.0	Orange-Blue	stay	twobytwo	71.0	0.63	blue	1.0	cue_stay	color	stay	stim	poldrack-single-stim	s495	0	False
21.788	1.0	23.119	0.9	2.0	True	89.0	Color	switch	twobytwo	89.0	0.431	orange	2.0	cue_switch	color	stay	stim	poldrack-single-stim	s495	0	False
24.694	1.0	26.085	0.9	2.0	True	89.0	Orange-Blue	switch	twobytwo	89.0	0.491	orange	7.0	cue_switch	color	stay	stim	poldrack-single-stim	s495	0	False
26.802	1.0	27.669	0.1	2.272	True	89.0	Magnitude	n/a	twobytwo	89.0	0.767	orange	7.0	task_switch	magnitude	switch	stim	poldrack-single-stim	s495	0	False
29.184	1.0	29.913	0.1	2.408	True	89.0	Orange-Blue	n/a	twobytwo	89.0	0.629	orange	6.0	task_switch	color	switch	stim	poldrack-single-stim	s495	0	False
31.699	1.0	32.888	0.1	2.0	True	89.0	Magnitude	n/a	twobytwo	89.0	1.089	blue	9.0	task_switch	magnitude	switch	stim	poldrack-single-stim	s495	0	False
33.805	1.0	34.828	0.1	2.136	True	71.0	High-Low	switch	twobytwo	71.0	0.923	orange	3.0	cue_switch	magnitude	stay	stim	poldrack-single-stim	s495	0	False
36.048	1.0	37.212	0.1	2.0	True	71.0	Orange-Blue	n/a	twobytwo	71.0	1.064	blue	7.0	task_switch	color	switch	stim	poldrack-single-stim	s495	0	False
38.153	1.0	38.947	0.1	2.408	True	89.0	Magnitude	n/a	twobytwo	89.0	0.694	orange	9.0	task_switch	magnitude	switch	stim	poldrack-single-stim	s495	0	False
41.467	1.0	42.982	0.9	2.272	True	71.0	High-Low	switch	twobytwo	71.0	0.615	blue	1.0	cue_switch	magnitude	stay	stim	poldrack-single-stim	s495	0	False
44.645	1.0	46.52	0.9	2.0	True	71.0	Orange-Blue	n/a	twobytwo	71.0	0.975	blue	9.0	task_switch	color	switch	stim	poldrack-single-stim	s495	0	False
47.551	1.0	49.311	0.9	2.272	True	71.0	Color	switch	twobytwo	71.0	0.86	blue	8.0	cue_switch	color	stay	stim	poldrack-single-stim	s495	0	False
50.729	1.0	52.481	0.9	2.0	True	71.0	Magnitude	n/a	twobytwo	71.0	0.852	orange	4.0	task_switch	magnitude	switch	stim	poldrack-single-stim	s495	0	False
52.835	1.0	54.102	0.1	2.0	True	89.0	Orange-Blue	n/a	twobytwo	89.0	1.167	orange	2.0	task_switch	color	switch	stim	poldrack-single-stim	s495	0	False
55.745	1.0	57.161	0.9	2.272	True	71.0	Orange-Blue	stay	twobytwo	71.0	0.516	blue	2.0	cue_stay	color	stay	stim	poldrack-single-stim	s495	0	False
58.924	1.0	60.401	0.9	2.136	True	71.0	Magnitude	n/a	twobytwo	71.0	0.577	blue	1.0	task_switch	magnitude	switch	stim	poldrack-single-stim	s495	0	False
61.966	1.0	63.539	0.9	2.0	True	89.0	Orange-Blue	n/a	twobytwo	89.0	0.673	orange	3.0	task_switch	color	switch	stim	poldrack-single-stim	s495	0	False
64.871	1.0	66.366	0.9	2.0	True	71.0	Orange-Blue	stay	twobytwo	71.0	0.595	blue	9.0	cue_stay	color	stay	stim	poldrack-single-stim	s495	0	False
66.978	1.0	67.947	0.1	2.0	True	89.0	Magnitude	n/a	twobytwo	89.0	0.869	blue	8.0	task_switch	magnitude	switch	stim	poldrack-single-stim	s495	0	False
69.903	1.0	71.341	0.9	2.0	True	89.0	High-Low	switch	twobytwo	89.0	0.538	blue	7.0	cue_switch	magnitude	stay	stim	poldrack-single-stim	s495	0	False
72.077	1.0	73.015	0.1	2.0	True	71.0	High-Low	stay	twobytwo	71.0	0.838	blue	3.0	cue_stay	magnitude	stay	stim	poldrack-single-stim	s495	0	False
74.984	1.0	76.426	0.9	2.136	True	89.0	Orange-Blue	n/a	twobytwo	89.0	0.542	orange	6.0	task_switch	color	switch	stim	poldrack-single-stim	s495	0	False
78.027	1.0	79.49	0.9	2.0	True	71.0	Orange-Blue	stay	twobytwo	71.0	0.563	blue	4.0	cue_stay	color	stay	stim	poldrack-single-stim	s495	0	False
80.134	1.0	80.992	0.1	2.0	True	89.0	High-Low	n/a	twobytwo	89.0	0.758	orange	9.0	task_switch	magnitude	switch	stim	poldrack-single-stim	s495	0	False
82.239	1.0	83.077	0.1	2.136	True	89.0	Magnitude	switch	twobytwo	89.0	0.738	orange	6.0	cue_switch	magnitude	stay	stim	poldrack-single-stim	s495	0	False
84.483	1.0	85.239	0.1	2.0	True	89.0	High-Low	switch	twobytwo	89.0	0.656	blue	6.0	cue_switch	magnitude	stay	stim	poldrack-single-stim	s495	0	False
87.391	1.0	88.744	0.9	2.136	True	71.0	Color	n/a	twobytwo	71.0	0.453	blue	9.0	task_switch	color	switch	stim	poldrack-single-stim	s495	0	False
90.435	1.0	91.871	0.9	2.68	True	89.0	High-Low	n/a	twobytwo	89.0	0.536	orange	8.0	task_switch	magnitude	switch	stim	poldrack-single-stim	s495	0	False
93.224	1.0	94.029	0.1	2.272	True	89.0	High-Low	stay	twobytwo	89.0	0.705	blue	6.0	cue_stay	magnitude	stay	stim	poldrack-single-stim	s495	0	False
95.601	1.0	96.332	0.1	2.136	True	71.0	High-Low	stay	twobytwo	71.0	0.631	orange	3.0	cue_stay	magnitude	stay	stim	poldrack-single-stim	s495	0	False
98.642	1.0	100.012	0.9	2.0	True	71.0	Orange-Blue	n/a	twobytwo	71.0	0.47	blue	4.0	task_switch	color	switch	stim	poldrack-single-stim	s495	0	False
100.749	1.0	101.63	0.1	2.136	True	89.0	High-Low	n/a	twobytwo	89.0	0.781	orange	9.0	task_switch	magnitude	switch	stim	poldrack-single-stim	s495	0	False
102.996	1.0	103.966	0.1	2.68	True	71.0	Color	n/a	twobytwo	71.0	0.87	blue	8.0	task_switch	color	switch	stim	poldrack-single-stim	s495	0	False
105.785	1.0	106.678	0.1	2.272	True	71.0	High-Low	n/a	twobytwo	71.0	0.793	blue	4.0	task_switch	magnitude	switch	stim	poldrack-single-stim	s495	0	False
108.965	1.0	110.561	0.9	2.0	True	71.0	Magnitude	switch	twobytwo	71.0	0.696	orange	4.0	cue_switch	magnitude	stay	stim	poldrack-single-stim	s495	0	False
111.87	1.0	113.449	0.9	2.0	True	71.0	Color	n/a	twobytwo	71.0	0.679	blue	9.0	task_switch	color	switch	stim	poldrack-single-stim	s495	0	False
113.976	1.0	115.03	0.1	2.136	True	89.0	Color	stay	twobytwo	89.0	0.954	orange	6.0	cue_stay	color	stay	stim	poldrack-single-stim	s495	0	False
116.22	1.0	117.084	0.1	2.0	True	71.0	Color	stay	twobytwo	71.0	0.764	blue	7.0	cue_stay	color	stay	stim	poldrack-single-stim	s495	0	False
118.327	1.0	119.123	0.1	2.0	True	71.0	Color	stay	twobytwo	71.0	0.696	blue	9.0	cue_stay	color	stay	stim	poldrack-single-stim	s495	0	False
121.234	1.0	122.638	0.9	2.0	True	89.0	Orange-Blue	switch	twobytwo	89.0	0.504	orange	2.0	cue_switch	color	stay	stim	poldrack-single-stim	s495	0	False
123.342	1.0	124.383	0.1	2.272	True	89.0	Magnitude	n/a	twobytwo	89.0	0.941	blue	6.0	task_switch	magnitude	switch	stim	poldrack-single-stim	s495	0	False
126.521	1.0	127.945	0.9	2.408	True	71.0	Orange-Blue	n/a	twobytwo	71.0	0.524	blue	3.0	task_switch	color	switch	stim	poldrack-single-stim	s495	0	False
129.836	1.0	131.264	0.9	2.0	True	89.0	Orange-Blue	stay	twobytwo	89.0	0.528	orange	7.0	cue_stay	color	stay	stim	poldrack-single-stim	s495	0	False
131.942	1.0	133.009	0.1	2.0	True	89.0	Orange-Blue	stay	twobytwo	89.0	0.967	orange	2.0	cue_stay	color	stay	stim	poldrack-single-stim	s495	0	False
134.85	1.0	136.25	0.9	2.0	True	89.0	Magnitude	n/a	twobytwo	89.0	0.5	orange	6.0	task_switch	magnitude	switch	stim	poldrack-single-stim	s495	0	False
136.973	1.0	138.123	0.1	2.272	True	71.0	Orange-Blue	n/a	twobytwo	71.0	1.05	blue	9.0	task_switch	color	switch	stim	poldrack-single-stim	s495	0	False
139.352	1.0	140.169	0.1	2.136	True	71.0	Orange-Blue	stay	twobytwo	71.0	0.717	blue	3.0	cue_stay	color	stay	stim	poldrack-single-stim	s495	0	False
142.396	1.0	143.969	0.9	2.0	True	89.0	High-Low	n/a	twobytwo	89.0	0.673	blue	6.0	task_switch	magnitude	switch	stim	poldrack-single-stim	s495	0	False
145.303	1.0	146.78	0.9	2.544	True	71.0	Magnitude	switch	twobytwo	71.0	0.577	orange	1.0	cue_switch	magnitude	stay	stim	poldrack-single-stim	s495	0	False
147.96	1.0	148.861	0.1	2.272	True	71.0	Color	n/a	twobytwo	71.0	0.801	blue	8.0	task_switch	color	switch	stim	poldrack-single-stim	s495	0	False
150.337	1.0	151.253	0.1	2.272	True	71.0	Color	stay	twobytwo	71.0	0.816	blue	2.0	cue_stay	color	stay	stim	poldrack-single-stim	s495	0	False
152.716	1.0	153.753	0.1	2.0	True	89.0	Orange-Blue	switch	twobytwo	89.0	0.937	orange	2.0	cue_switch	color	stay	stim	poldrack-single-stim	s495	0	False
155.624	1.0	157.058	0.9	2.0	True	89.0	Orange-Blue	stay	twobytwo	89.0	0.534	orange	3.0	cue_stay	color	stay	stim	poldrack-single-stim	s495	0	False
157.731	1.0	158.72	0.1	2.136	True	71.0	High-Low	n/a	twobytwo	71.0	0.889	orange	3.0	task_switch	magnitude	switch	stim	poldrack-single-stim	s495	0	False
160.773	1.0	162.114	0.9	2.0	True	71.0	Color	n/a	twobytwo	71.0	0.441	blue	4.0	task_switch	color	switch	stim	poldrack-single-stim	s495	0	False
162.88	1.0	163.752	0.1	2.136	True	89.0	Orange-Blue	switch	twobytwo	89.0	0.772	orange	8.0	cue_switch	color	stay	stim	poldrack-single-stim	s495	0	False
165.123	1.0	165.955	0.1	2.272	True	89.0	Magnitude	n/a	twobytwo	89.0	0.732	orange	6.0	task_switch	magnitude	switch	stim	poldrack-single-stim	s495	0	False
168.301	1.0	170.012	0.9	2.136	True	71.0	Orange-Blue	n/a	twobytwo	71.0	0.811	blue	7.0	task_switch	color	switch	stim	poldrack-single-stim	s495	0	False
171.344	1.0	172.842	0.9	2.272	True	71.0	Orange-Blue	stay	twobytwo	71.0	0.598	blue	4.0	cue_stay	color	stay	stim	poldrack-single-stim	s495	0	False
174.523	1.0	175.864	0.9	2.0	True	89.0	Magnitude	n/a	twobytwo	89.0	0.441	orange	8.0	task_switch	magnitude	switch	stim	poldrack-single-stim	s495	0	False
177.43	1.0	178.9	0.9	2.816	True	89.0	Magnitude	stay	twobytwo	89.0	0.57	blue	6.0	cue_stay	magnitude	stay	stim	poldrack-single-stim	s495	0	False
180.352	1.0	181.131	0.1	2.408	True	71.0	High-Low	switch	twobytwo	71.0	0.679	orange	2.0	cue_switch	magnitude	stay	stim	poldrack-single-stim	s495	0	False
183.666	1.0	185.125	0.9	2.0	True	71.0	High-Low	stay	twobytwo	71.0	0.559	orange	4.0	cue_stay	magnitude	stay	stim	poldrack-single-stim	s495	0	False
185.772	1.0	186.604	0.1	2.544	True	71.0	High-Low	stay	twobytwo	71.0	0.732	blue	4.0	cue_stay	magnitude	stay	stim	poldrack-single-stim	s495	0	False
188.44	1.0	189.388	0.1	2.136	False	89.0	Color	n/a	twobytwo	71.0	0.848	orange	3.0	task_switch	color	switch	stim	poldrack-single-stim	s495	0	False
191.485	1.0	193.4	0.9	2.0	True	71.0	Magnitude	n/a	twobytwo	71.0	1.015	orange	4.0	task_switch	magnitude	switch	stim	poldrack-single-stim	s495	0	False
194.4	1.0	195.942	0.9	2.0	True	89.0	Magnitude	stay	twobytwo	89.0	0.642	orange	6.0	cue_stay	magnitude	stay	stim	poldrack-single-stim	s495	0	False
197.307	1.0	199.038	0.9	2.136	True	71.0	High-Low	switch	twobytwo	71.0	0.831	orange	4.0	cue_switch	magnitude	stay	stim	poldrack-single-stim	s495	0	False
199.549	1.0	200.928	0.1	2.136	True	89.0	High-Low	stay	twobytwo	89.0	1.279	blue	9.0	cue_stay	magnitude	stay	stim	poldrack-single-stim	s495	0	False
201.79	1.0	202.683	0.1	2.272	True	71.0	Color	n/a	twobytwo	71.0	0.793	blue	9.0	task_switch	color	switch	stim	poldrack-single-stim	s495	0	False
204.971	1.0	206.387	0.9	3.224	True	89.0	Orange-Blue	switch	twobytwo	89.0	0.516	orange	6.0	cue_switch	color	stay	stim	poldrack-single-stim	s495	0	False
208.304	1.0	209.322	0.1	2.0	True	71.0	Color	switch	twobytwo	71.0	0.918	blue	8.0	cue_switch	color	stay	stim	poldrack-single-stim	s495	0	False
211.211	1.0	212.892	0.9	2.0	True	71.0	High-Low	n/a	twobytwo	71.0	0.781	blue	1.0	task_switch	magnitude	switch	stim	poldrack-single-stim	s495	0	False
213.317	1.0	214.215	0.1	2.272	True	89.0	Color	n/a	twobytwo	89.0	0.798	orange	8.0	task_switch	color	switch	stim	poldrack-single-stim	s495	0	False
215.695	1.0	216.742	0.1	2.136	True	89.0	High-Low	n/a	twobytwo	89.0	0.947	orange	9.0	task_switch	magnitude	switch	stim	poldrack-single-stim	s495	0	False
232.252	1.0	233.727	0.9	2.0	True	71.0	High-Low	stay	twobytwo	71.0	0.575	orange	3.0	cue_stay	magnitude	stay	stim	poldrack-single-stim	s495	1	False
235.159	1.0	237.133	0.9	2.0	True	71.0	Orange-Blue	n/a	twobytwo	71.0	1.074	blue	2.0	task_switch	color	switch	stim	poldrack-single-stim	s495	0	False
237.266	1.0	238.138	0.1	2.0	True	71.0	Magnitude	n/a	twobytwo	71.0	0.772	orange	4.0	task_switch	magnitude	switch	stim	poldrack-single-stim	s495	0	False
239.374	1.0	240.261	0.1	2.68	True	71.0	Color	n/a	twobytwo	71.0	0.787	blue	4.0	task_switch	color	switch	stim	poldrack-single-stim	s495	0	False
242.162	1.0	243.124	0.1	2.0	True	71.0	High-Low	n/a	twobytwo	71.0	0.862	blue	3.0	task_switch	magnitude	switch	stim	poldrack-single-stim	s495	0	False
244.271	1.0	245.149	0.1	2.272	True	71.0	High-Low	stay	twobytwo	71.0	0.778	blue	1.0	cue_stay	magnitude	stay	stim	poldrack-single-stim	s495	0	False
247.452	1.0	248.883	0.9	2.0	True	71.0	Magnitude	switch	twobytwo	71.0	0.531	orange	2.0	cue_switch	magnitude	stay	stim	poldrack-single-stim	s495	0	False
250.36	1.0	252.015	0.9	2.272	True	89.0	High-Low	switch	twobytwo	89.0	0.755	orange	7.0	cue_switch	magnitude	stay	stim	poldrack-single-stim	s495	0	False
252.739	1.0	253.675	0.1	2.952	True	89.0	Color	n/a	twobytwo	89.0	0.836	orange	7.0	task_switch	color	switch	stim	poldrack-single-stim	s495	0	False
255.801	1.0	256.624	0.1	2.0	True	89.0	Magnitude	n/a	twobytwo	89.0	0.723	orange	6.0	task_switch	magnitude	switch	stim	poldrack-single-stim	s495	0	False
257.908	1.0	258.839	0.1	2.0	True	71.0	Orange-Blue	n/a	twobytwo	71.0	0.831	blue	9.0	task_switch	color	switch	stim	poldrack-single-stim	s495	0	False
260.014	1.0	261.01	0.1	2.0	True	89.0	Color	switch	twobytwo	89.0	0.896	orange	3.0	cue_switch	color	stay	stim	poldrack-single-stim	s495	0	False
262.122	1.0	263.166	0.1	2.0	False	89.0	Magnitude	n/a	twobytwo	71.0	0.944	blue	7.0	task_switch	magnitude	switch	stim	poldrack-single-stim	s495	0	False
264.229	1.0	265.243	0.1	2.136	True	89.0	Orange-Blue	n/a	twobytwo	89.0	0.914	orange	9.0	task_switch	color	switch	stim	poldrack-single-stim	s495	0	False
267.272	1.0	268.86	0.9	2.0	True	71.0	Color	switch	twobytwo	71.0	0.688	blue	1.0	cue_switch	color	stay	stim	poldrack-single-stim	s495	0	False
270.18	1.0	271.844	0.9	2.0	False	89.0	High-Low	n/a	twobytwo	71.0	0.764	blue	9.0	task_switch	magnitude	switch	stim	poldrack-single-stim	s495	0	False
273.086	1.0	274.852	0.9	2.0	True	89.0	Magnitude	switch	twobytwo	89.0	0.866	blue	8.0	cue_switch	magnitude	stay	stim	poldrack-single-stim	s495	0	False
275.992	1.0	277.872	0.9	2.272	True	89.0	Color	n/a	twobytwo	89.0	0.98	orange	4.0	task_switch	color	switch	stim	poldrack-single-stim	s495	0	False
278.374	1.0	279.548	0.1	2.136	True	71.0	Magnitude	n/a	twobytwo	71.0	1.074	orange	2.0	task_switch	magnitude	switch	stim	poldrack-single-stim	s495	0	False
281.421	1.0	282.817	0.9	2.0	True	71.0	Magnitude	stay	twobytwo	71.0	0.496	blue	2.0	cue_stay	magnitude	stay	stim	poldrack-single-stim	s495	0	False
284.329	1.0	286.26	0.9	2.136	True	71.0	Color	n/a	twobytwo	71.0	1.031	blue	1.0	task_switch	color	switch	stim	poldrack-single-stim	s495	0	False
287.372	1.0	289.209	0.9	2.816	True	71.0	Magnitude	n/a	twobytwo	71.0	0.937	orange	3.0	task_switch	magnitude	switch	stim	poldrack-single-stim	s495	0	False
291.094	1.0	292.735	0.9	2.408	True	89.0	Magnitude	stay	twobytwo	89.0	0.741	blue	9.0	cue_stay	magnitude	stay	stim	poldrack-single-stim	s495	0	False
293.608	1.0	294.63	0.1	2.0	True	71.0	Orange-Blue	n/a	twobytwo	71.0	0.922	blue	8.0	task_switch	color	switch	stim	poldrack-single-stim	s495	0	False
296.517	1.0	297.879	0.9	2.136	True	71.0	Color	switch	twobytwo	71.0	0.462	blue	7.0	cue_switch	color	stay	stim	poldrack-single-stim	s495	0	False
298.759	1.0	299.656	0.1	2.136	True	71.0	Color	stay	twobytwo	71.0	0.797	blue	3.0	cue_stay	color	stay	stim	poldrack-single-stim	s495	0	False
301.802	1.0	303.265	0.9	2.136	True	89.0	High-Low	n/a	twobytwo	89.0	0.563	orange	6.0	task_switch	magnitude	switch	stim	poldrack-single-stim	s495	0	False
304.845	1.0	306.374	0.9	2.544	True	71.0	High-Low	stay	twobytwo	71.0	0.629	blue	4.0	cue_stay	magnitude	stay	stim	poldrack-single-stim	s495	0	False
307.497	1.0	308.464	0.1	2.136	True	89.0	Color	n/a	twobytwo	89.0	0.867	orange	9.0	task_switch	color	switch	stim	poldrack-single-stim	s495	0	False
309.738	1.0	310.531	0.1	2.0	True	89.0	Orange-Blue	switch	twobytwo	89.0	0.693	orange	6.0	cue_switch	color	stay	stim	poldrack-single-stim	s495	0	False
311.863	1.0	312.719	0.1	2.0	True	71.0	Color	switch	twobytwo	71.0	0.756	blue	6.0	cue_switch	color	stay	stim	poldrack-single-stim	s495	0	False
314.77	1.0	316.211	0.9	2.0	True	89.0	Magnitude	n/a	twobytwo	89.0	0.541	blue	9.0	task_switch	magnitude	switch	stim	poldrack-single-stim	s495	0	False
317.677	1.0	319.136	0.9	2.0	True	89.0	Orange-Blue	n/a	twobytwo	89.0	0.559	orange	8.0	task_switch	color	switch	stim	poldrack-single-stim	s495	0	False
319.784	1.0	320.903	0.1	2.136	True	71.0	Orange-Blue	stay	twobytwo	71.0	1.019	blue	6.0	cue_stay	color	stay	stim	poldrack-single-stim	s495	0	False
322.033	1.0	322.992	0.1	2.0	True	89.0	Orange-Blue	stay	twobytwo	89.0	0.859	orange	3.0	cue_stay	color	stay	stim	poldrack-single-stim	s495	0	False
324.942	1.0	326.474	0.9	2.0	True	71.0	High-Low	n/a	twobytwo	71.0	0.632	blue	4.0	task_switch	magnitude	switch	stim	poldrack-single-stim	s495	0	False
327.048	1.0	327.904	0.1	2.0	True	89.0	Color	n/a	twobytwo	89.0	0.756	orange	9.0	task_switch	color	switch	stim	poldrack-single-stim	s495	0	False
329.156	1.0	330.301	0.1	2.136	False	89.0	High-Low	n/a	twobytwo	71.0	1.045	blue	8.0	task_switch	magnitude	switch	stim	poldrack-single-stim	s495	0	False
331.403	1.0	332.34	0.1	2.136	True	71.0	Color	n/a	twobytwo	71.0	0.837	blue	4.0	task_switch	color	switch	stim	poldrack-single-stim	s495	0	False
334.447	1.0	335.886	0.9	2.136	True	89.0	Orange-Blue	switch	twobytwo	89.0	0.539	orange	4.0	cue_switch	color	stay	stim	poldrack-single-stim	s495	0	False
337.491	1.0	339.001	0.9	2.136	True	89.0	High-Low	n/a	twobytwo	89.0	0.61	blue	9.0	task_switch	magnitude	switch	stim	poldrack-single-stim	s495	0	False
339.732	1.0	340.59	0.1	2.68	True	89.0	High-Low	stay	twobytwo	89.0	0.758	orange	6.0	cue_stay	magnitude	stay	stim	poldrack-single-stim	s495	0	False
342.52	1.0	343.296	0.1	2.544	True	89.0	High-Low	stay	twobytwo	89.0	0.676	blue	7.0	cue_stay	magnitude	stay	stim	poldrack-single-stim	s495	0	False
345.17	1.0	345.916	0.1	2.272	True	89.0	High-Low	stay	twobytwo	89.0	0.646	blue	9.0	cue_stay	magnitude	stay	stim	poldrack-single-stim	s495	0	False
348.35	1.0	349.767	0.9	2.272	True	71.0	Magnitude	switch	twobytwo	71.0	0.517	orange	2.0	cue_switch	magnitude	stay	stim	poldrack-single-stim	s495	0	False
350.727	1.0	351.798	0.1	2.408	False	71.0	Color	n/a	twobytwo	89.0	0.971	blue	6.0	task_switch	color	switch	stim	poldrack-single-stim	s495	0	False
354.043	1.0	355.729	0.9	2.136	True	71.0	Magnitude	n/a	twobytwo	71.0	0.786	blue	3.0	task_switch	magnitude	switch	stim	poldrack-single-stim	s495	0	False
357.086	1.0	358.694	0.9	2.272	True	89.0	Magnitude	stay	twobytwo	89.0	0.708	orange	7.0	cue_stay	magnitude	stay	stim	poldrack-single-stim	s495	0	False
359.464	1.0	360.37	0.1	2.0	True	71.0	Magnitude	stay	twobytwo	71.0	0.806	orange	2.0	cue_stay	magnitude	stay	stim	poldrack-single-stim	s495	0	False
362.369	1.0	363.937	0.9	2.136	True	89.0	Orange-Blue	n/a	twobytwo	89.0	0.668	orange	6.0	task_switch	color	switch	stim	poldrack-single-stim	s495	0	False
364.612	1.0	365.396	0.1	2.272	True	89.0	High-Low	n/a	twobytwo	89.0	0.684	blue	9.0	task_switch	magnitude	switch	stim	poldrack-single-stim	s495	0	False
366.991	1.0	367.695	0.1	2.0	True	71.0	High-Low	stay	twobytwo	71.0	0.604	blue	3.0	cue_stay	magnitude	stay	stim	poldrack-single-stim	s495	0	False
369.898	1.0	371.37	0.9	2.68	False	71.0	Color	n/a	twobytwo	89.0	0.572	blue	6.0	task_switch	color	switch	stim	poldrack-single-stim	s495	0	False
373.485	1.0	375.112	0.9	2.0	True	89.0	Orange-Blue	switch	twobytwo	89.0	0.727	orange	1.0	cue_switch	color	stay	stim	poldrack-single-stim	s495	0	False
375.598	1.0	376.581	0.1	2.0	True	89.0	Magnitude	n/a	twobytwo	89.0	0.883	blue	8.0	task_switch	magnitude	switch	stim	poldrack-single-stim	s495	0	False
377.706	1.0	378.598	0.1	2.0	True	71.0	Magnitude	stay	twobytwo	71.0	0.792	blue	2.0	cue_stay	magnitude	stay	stim	poldrack-single-stim	s495	0	False
379.813	1.0	380.801	0.1	2.272	True	71.0	High-Low	switch	twobytwo	71.0	0.888	orange	2.0	cue_switch	magnitude	stay	stim	poldrack-single-stim	s495	0	False
382.994	1.0	384.569	0.9	2.0	True	71.0	High-Low	stay	twobytwo	71.0	0.675	orange	3.0	cue_stay	magnitude	stay	stim	poldrack-single-stim	s495	0	False
385.107	1.0	386.219	0.1	2.0	True	89.0	Color	n/a	twobytwo	89.0	1.012	orange	3.0	task_switch	color	switch	stim	poldrack-single-stim	s495	0	False
388.015	1.0	389.495	0.9	2.0	True	71.0	High-Low	n/a	twobytwo	71.0	0.58	blue	4.0	task_switch	magnitude	switch	stim	poldrack-single-stim	s495	0	False
390.122	1.0	390.987	0.1	2.68	True	89.0	Magnitude	switch	twobytwo	89.0	0.765	orange	8.0	cue_switch	magnitude	stay	stim	poldrack-single-stim	s495	0	False
392.909	1.0	393.807	0.1	2.0	True	89.0	Orange-Blue	n/a	twobytwo	89.0	0.798	orange	6.0	task_switch	color	switch	stim	poldrack-single-stim	s495	0	False
395.817	1.0	397.393	0.9	2.136	True	89.0	Magnitude	n/a	twobytwo	89.0	0.676	blue	7.0	task_switch	magnitude	switch	stim	poldrack-single-stim	s495	0	False
398.86	1.0	400.336	0.9	2.408	True	71.0	Magnitude	stay	twobytwo	71.0	0.576	blue	4.0	cue_stay	magnitude	stay	stim	poldrack-single-stim	s495	0	False
402.174	1.0	403.58	0.9	2.136	True	89.0	Orange-Blue	n/a	twobytwo	89.0	0.506	orange	8.0	task_switch	color	switch	stim	poldrack-single-stim	s495	0	False
405.218	1.0	407.035	0.9	2.0	True	71.0	Orange-Blue	stay	twobytwo	71.0	0.917	blue	6.0	cue_stay	color	stay	stim	poldrack-single-stim	s495	0	False
407.325	1.0	408.321	0.1	2.0	True	89.0	Color	switch	twobytwo	89.0	0.896	orange	2.0	cue_switch	color	stay	stim	poldrack-single-stim	s495	0	False
410.233	1.0	411.597	0.9	2.544	True	89.0	Color	stay	twobytwo	89.0	0.464	orange	4.0	cue_stay	color	stay	stim	poldrack-single-stim	s495	0	False
412.889	1.0	413.836	0.1	2.136	True	71.0	Color	stay	twobytwo	71.0	0.847	blue	4.0	cue_stay	color	stay	stim	poldrack-single-stim	s495	0	False
415.131	1.0	416.081	0.1	2.544	True	71.0	High-Low	n/a	twobytwo	71.0	0.85	orange	3.0	task_switch	magnitude	switch	stim	poldrack-single-stim	s495	0	False
418.583	1.0	419.976	0.9	2.68	True	89.0	Orange-Blue	n/a	twobytwo	89.0	0.493	orange	4.0	task_switch	color	switch	stim	poldrack-single-stim	s495	0	False
422.172	1.0	423.642	0.9	2.0	True	89.0	Orange-Blue	stay	twobytwo	89.0	0.57	orange	6.0	cue_stay	color	stay	stim	poldrack-single-stim	s495	0	False
425.079	1.0	426.516	0.9	2.272	True	89.0	Color	switch	twobytwo	89.0	0.537	orange	4.0	cue_switch	color	stay	stim	poldrack-single-stim	s495	0	False
427.458	1.0	428.515	0.1	3.088	True	71.0	Color	stay	twobytwo	71.0	0.957	blue	9.0	cue_stay	color	stay	stim	poldrack-single-stim	s495	0	False
430.652	1.0	431.389	0.1	2.0	True	89.0	Magnitude	n/a	twobytwo	89.0	0.637	blue	9.0	task_switch	magnitude	switch	stim	poldrack-single-stim	s495	0	False
433.561	1.0	435.349	0.9	2.136	True	89.0	High-Low	switch	twobytwo	89.0	0.888	orange	6.0	cue_switch	magnitude	stay	stim	poldrack-single-stim	s495	0	False
435.802	1.0	436.537	0.1	2.136	True	89.0	Magnitude	switch	twobytwo	89.0	0.635	blue	8.0	cue_switch	magnitude	stay	stim	poldrack-single-stim	s495	0	False
438.847	1.0	440.252	0.9	2.0	True	71.0	Color	n/a	twobytwo	71.0	0.505	blue	1.0	task_switch	color	switch	stim	poldrack-single-stim	s495	0	False
440.954	1.0	441.81	0.1	2.272	True	89.0	Magnitude	n/a	twobytwo	89.0	0.756	orange	8.0	task_switch	magnitude	switch	stim	poldrack-single-stim	s495	0	False
443.332	1.0	444.179	0.1	2.0	True	89.0	Color	n/a	twobytwo	89.0	0.747	orange	9.0	task_switch	color	switch	stim	poldrack-single-stim	s495	0	False
459.755	1.0	461.145	0.9	2.136	True	89.0	Color	stay	twobytwo	89.0	0.49	orange	3.0	cue_stay	color	stay	stim	poldrack-single-stim	s495	1	False
462.799	1.0	464.206	0.9	2.136	True	71.0	Magnitude	n/a	twobytwo	71.0	0.507	blue	2.0	task_switch	magnitude	switch	stim	poldrack-single-stim	s495	0	False
465.042	1.0	465.993	0.1	2.544	True	89.0	Color	n/a	twobytwo	89.0	0.851	orange	4.0	task_switch	color	switch	stim	poldrack-single-stim	s495	0	False
467.694	1.0	468.849	0.1	2.0	True	71.0	Magnitude	n/a	twobytwo	71.0	1.055	blue	4.0	task_switch	magnitude	switch	stim	poldrack-single-stim	s495	0	False
469.801	1.0	470.701	0.1	2.136	True	71.0	Color	n/a	twobytwo	71.0	0.8	blue	3.0	task_switch	color	switch	stim	poldrack-single-stim	s495	0	False
472.044	1.0	472.951	0.1	2.136	True	71.0	Color	stay	twobytwo	71.0	0.807	blue	1.0	cue_stay	color	stay	stim	poldrack-single-stim	s495	0	False
475.087	1.0	476.452	0.9	2.136	True	89.0	Orange-Blue	switch	twobytwo	89.0	0.465	orange	2.0	cue_switch	color	stay	stim	poldrack-single-stim	s495	0	False
478.131	1.0	479.548	0.9	2.0	True	89.0	Color	switch	twobytwo	89.0	0.517	orange	7.0	cue_switch	color	stay	stim	poldrack-single-stim	s495	0	False
480.237	1.0	481.018	0.1	2.136	True	89.0	Magnitude	n/a	twobytwo	89.0	0.681	orange	7.0	task_switch	magnitude	switch	stim	poldrack-single-stim	s495	0	False
482.481	1.0	483.366	0.1	2.0	True	89.0	Color	n/a	twobytwo	89.0	0.785	orange	6.0	task_switch	color	switch	stim	poldrack-single-stim	s495	0	False
484.587	1.0	485.516	0.1	2.136	True	89.0	High-Low	n/a	twobytwo	89.0	0.829	blue	9.0	task_switch	magnitude	switch	stim	poldrack-single-stim	s495	0	False
486.828	1.0	487.761	0.1	2.816	True	71.0	Magnitude	switch	twobytwo	71.0	0.833	orange	3.0	cue_switch	magnitude	stay	stim	poldrack-single-stim	s495	0	False
489.751	1.0	490.881	0.1	2.136	True	71.0	Orange-Blue	n/a	twobytwo	71.0	1.03	blue	7.0	task_switch	color	switch	stim	poldrack-single-stim	s495	0	False
491.994	1.0	492.851	0.1	2.0	True	89.0	Magnitude	n/a	twobytwo	89.0	0.757	orange	9.0	task_switch	magnitude	switch	stim	poldrack-single-stim	s495	0	False
494.904	1.0	496.461	0.9	2.0	True	71.0	High-Low	switch	twobytwo	71.0	0.657	blue	1.0	cue_switch	magnitude	stay	stim	poldrack-single-stim	s495	0	False
497.812	1.0	499.682	0.9	2.272	True	71.0	Color	n/a	twobytwo	71.0	0.97	blue	9.0	task_switch	color	switch	stim	poldrack-single-stim	s495	0	False
500.989	1.0	502.475	0.9	2.0	True	71.0	Orange-Blue	switch	twobytwo	71.0	0.586	blue	8.0	cue_switch	color	stay	stim	poldrack-single-stim	s495	0	False
503.895	1.0	505.801	0.9	2.0	True	71.0	High-Low	n/a	twobytwo	71.0	1.006	orange	4.0	task_switch	magnitude	switch	stim	poldrack-single-stim	s495	0	False
506.001	1.0	506.874	0.1	2.0	False	89.0	Orange-Blue	n/a	twobytwo	71.0	0.773	orange	2.0	task_switch	color	switch	stim	poldrack-single-stim	s495	0	False
508.912	1.0	510.302	0.9	2.408	True	71.0	Orange-Blue	stay	twobytwo	71.0	0.49	blue	2.0	cue_stay	color	stay	stim	poldrack-single-stim	s495	0	False
512.227	1.0	513.723	0.9	2.272	True	71.0	High-Low	n/a	twobytwo	71.0	0.596	blue	1.0	task_switch	magnitude	switch	stim	poldrack-single-stim	s495	0	False
515.408	1.0	516.805	0.9	2.136	True	89.0	Color	n/a	twobytwo	89.0	0.497	orange	3.0	task_switch	color	switch	stim	poldrack-single-stim	s495	0	False
518.452	1.0	520.324	0.9	2.0	True	71.0	Color	stay	twobytwo	71.0	0.972	blue	9.0	cue_stay	color	stay	stim	poldrack-single-stim	s495	0	False
520.559	1.0	521.635	0.1	2.0	True	89.0	High-Low	n/a	twobytwo	89.0	0.976	blue	8.0	task_switch	magnitude	switch	stim	poldrack-single-stim	s495	0	False
523.468	1.0	524.888	0.9	2.136	True	89.0	Magnitude	switch	twobytwo	89.0	0.52	blue	7.0	cue_switch	magnitude	stay	stim	poldrack-single-stim	s495	0	False
525.712	1.0	526.558	0.1	2.0	True	71.0	Magnitude	stay	twobytwo	71.0	0.746	blue	3.0	cue_stay	magnitude	stay	stim	poldrack-single-stim	s495	0	False
528.62	1.0	530.188	0.9	2.136	True	89.0	Color	n/a	twobytwo	89.0	0.668	orange	6.0	task_switch	color	switch	stim	poldrack-single-stim	s495	0	False
531.663	1.0	533.207	0.9	2.408	True	71.0	Color	stay	twobytwo	71.0	0.644	blue	4.0	cue_stay	color	stay	stim	poldrack-single-stim	s495	0	False
534.176	1.0	535.013	0.1	2.136	True	89.0	High-Low	n/a	twobytwo	89.0	0.737	orange	9.0	task_switch	magnitude	switch	stim	poldrack-single-stim	s495	0	False
536.42	1.0	537.258	0.1	2.0	True	89.0	Magnitude	switch	twobytwo	89.0	0.738	orange	6.0	cue_switch	magnitude	stay	stim	poldrack-single-stim	s495	0	False
538.527	1.0	539.542	0.1	2.136	False	89.0	High-Low	switch	twobytwo	71.0	0.915	blue	6.0	cue_switch	magnitude	stay	stim	poldrack-single-stim	s495	0	False
541.571	1.0	542.935	0.9	2.272	True	71.0	Color	n/a	twobytwo	71.0	0.464	blue	9.0	task_switch	color	switch	stim	poldrack-single-stim	s495	0	False
544.751	1.0	546.694	0.9	2.0	False	89.0	High-Low	n/a	twobytwo	71.0	1.043	orange	8.0	task_switch	magnitude	switch	stim	poldrack-single-stim	s495	0	False
546.859	1.0	547.897	0.1	2.408	True	89.0	High-Low	stay	twobytwo	89.0	0.938	blue	6.0	cue_stay	magnitude	stay	stim	poldrack-single-stim	s495	0	False
549.373	1.0	550.191	0.1	2.0	True	71.0	High-Low	stay	twobytwo	71.0	0.718	orange	3.0	cue_stay	magnitude	stay	stim	poldrack-single-stim	s495	0	False
552.28	1.0	553.697	0.9	2.136	True	71.0	Orange-Blue	n/a	twobytwo	71.0	0.517	blue	4.0	task_switch	color	switch	stim	poldrack-single-stim	s495	0	False
554.522	1.0	555.412	0.1	2.408	True	89.0	High-Low	n/a	twobytwo	89.0	0.79	orange	9.0	task_switch	magnitude	switch	stim	poldrack-single-stim	s495	0	False
557.037	1.0	558.044	0.1	2.136	True	71.0	Color	n/a	twobytwo	71.0	0.907	blue	8.0	task_switch	color	switch	stim	poldrack-single-stim	s495	0	False
559.28	1.0	560.159	0.1	2.408	True	71.0	Magnitude	n/a	twobytwo	71.0	0.779	blue	4.0	task_switch	magnitude	switch	stim	poldrack-single-stim	s495	0	False
562.595	1.0	564.06	0.9	2.136	True	71.0	High-Low	switch	twobytwo	71.0	0.565	orange	4.0	cue_switch	magnitude	stay	stim	poldrack-single-stim	s495	0	False
565.639	1.0	567.18	0.9	2.0	False	71.0	Orange-Blue	n/a	twobytwo	89.0	0.641	blue	9.0	task_switch	color	switch	stim	poldrack-single-stim	s495	0	False
567.747	1.0	568.633	0.1	2.272	True	89.0	Orange-Blue	stay	twobytwo	89.0	0.786	orange	6.0	cue_stay	color	stay	stim	poldrack-single-stim	s495	0	False
570.127	1.0	571.094	0.1	2.0	True	71.0	Orange-Blue	stay	twobytwo	71.0	0.867	blue	7.0	cue_stay	color	stay	stim	poldrack-single-stim	s495	0	False
572.233	1.0	573.245	0.1	2.272	True	71.0	Orange-Blue	stay	twobytwo	71.0	0.912	blue	9.0	cue_stay	color	stay	stim	poldrack-single-stim	s495	0	False
575.414	1.0	577.214	0.9	2.272	True	89.0	Color	switch	twobytwo	89.0	0.9	orange	2.0	cue_switch	color	stay	stim	poldrack-single-stim	s495	0	False
577.794	1.0	578.773	0.1	2.952	True	89.0	Magnitude	n/a	twobytwo	89.0	0.879	blue	6.0	task_switch	magnitude	switch	stim	poldrack-single-stim	s495	0	False
581.653	1.0	583.373	0.9	2.68	True	71.0	Orange-Blue	n/a	twobytwo	71.0	0.82	blue	3.0	task_switch	color	switch	stim	poldrack-single-stim	s495	0	False
585.244	1.0	586.91	0.9	2.136	True	89.0	Orange-Blue	stay	twobytwo	89.0	0.766	orange	7.0	cue_stay	color	stay	stim	poldrack-single-stim	s495	0	False
587.487	1.0	588.486	0.1	2.272	True	89.0	Orange-Blue	stay	twobytwo	89.0	0.899	orange	2.0	cue_stay	color	stay	stim	poldrack-single-stim	s495	0	False
590.665	1.0	592.407	0.9	2.272	True	89.0	High-Low	n/a	twobytwo	89.0	0.842	orange	6.0	task_switch	magnitude	switch	stim	poldrack-single-stim	s495	0	False
593.043	1.0	594.222	0.1	2.136	True	71.0	Color	n/a	twobytwo	71.0	1.079	blue	9.0	task_switch	color	switch	stim	poldrack-single-stim	s495	0	False
595.288	1.0	596.125	0.1	2.408	True	71.0	Color	stay	twobytwo	71.0	0.737	blue	3.0	cue_stay	color	stay	stim	poldrack-single-stim	s495	0	False
598.605	1.0	600.085	0.9	2.136	True	89.0	High-Low	n/a	twobytwo	89.0	0.58	blue	6.0	task_switch	magnitude	switch	stim	poldrack-single-stim	s495	0	False
601.649	1.0	603.099	0.9	2.136	True	71.0	Magnitude	switch	twobytwo	71.0	0.55	orange	1.0	cue_switch	magnitude	stay	stim	poldrack-single-stim	s495	0	False
603.891	1.0	604.892	0.1	2.0	True	71.0	Color	n/a	twobytwo	71.0	0.901	blue	8.0	task_switch	color	switch	stim	poldrack-single-stim	s495	0	False
605.998	1.0	606.891	0.1	2.0	True	71.0	Color	stay	twobytwo	71.0	0.793	blue	2.0	cue_stay	color	stay	stim	poldrack-single-stim	s495	0	False
608.104	1.0	609.153	0.1	2.0	True	89.0	Orange-Blue	switch	twobytwo	89.0	0.949	orange	2.0	cue_switch	color	stay	stim	poldrack-single-stim	s495	0	False
611.011	1.0	612.787	0.9	2.0	True	89.0	Orange-Blue	stay	twobytwo	89.0	0.876	orange	3.0	cue_stay	color	stay	stim	poldrack-single-stim	s495	0	False
613.121	1.0	614.019	0.1	2.0	True	71.0	Magnitude	n/a	twobytwo	71.0	0.798	orange	3.0	task_switch	magnitude	switch	stim	poldrack-single-stim	s495	0	False
616.032	1.0	617.433	0.9	2.272	True	71.0	Orange-Blue	n/a	twobytwo	71.0	0.501	blue	4.0	task_switch	color	switch	stim	poldrack-single-stim	s495	0	False
618.413	1.0	619.369	0.1	2.408	True	89.0	Color	switch	twobytwo	89.0	0.856	orange	8.0	cue_switch	color	stay	stim	poldrack-single-stim	s495	0	False
620.928	1.0	621.789	0.1	2.0	True	89.0	Magnitude	n/a	twobytwo	89.0	0.761	orange	6.0	task_switch	magnitude	switch	stim	poldrack-single-stim	s495	0	False
623.834	1.0	625.24	0.9	2.136	True	71.0	Orange-Blue	n/a	twobytwo	71.0	0.506	blue	7.0	task_switch	color	switch	stim	poldrack-single-stim	s495	0	False
626.877	1.0	628.378	0.9	2.0	True	71.0	Orange-Blue	stay	twobytwo	71.0	0.601	blue	4.0	cue_stay	color	stay	stim	poldrack-single-stim	s495	0	False
629.784	1.0	631.238	0.9	2.136	True	89.0	Magnitude	n/a	twobytwo	89.0	0.554	orange	8.0	task_switch	magnitude	switch	stim	poldrack-single-stim	s495	0	False
632.826	1.0	634.371	0.9	2.544	True	89.0	Magnitude	stay	twobytwo	89.0	0.645	blue	6.0	cue_stay	magnitude	stay	stim	poldrack-single-stim	s495	0	False
635.476	1.0	636.559	0.1	2.68	True	71.0	High-Low	switch	twobytwo	71.0	0.983	orange	2.0	cue_switch	magnitude	stay	stim	poldrack-single-stim	s495	0	False
639.063	1.0	640.605	0.9	3.088	True	71.0	High-Low	stay	twobytwo	71.0	0.642	orange	4.0	cue_stay	magnitude	stay	stim	poldrack-single-stim	s495	0	False
642.259	1.0	643.1	0.1	2.136	True	71.0	High-Low	stay	twobytwo	71.0	0.741	blue	4.0	cue_stay	magnitude	stay	stim	poldrack-single-stim	s495	0	False
644.503	1.0	645.455	0.1	2.544	True	89.0	Color	n/a	twobytwo	89.0	0.852	orange	3.0	task_switch	color	switch	stim	poldrack-single-stim	s495	0	False
647.955	1.0	649.554	0.9	2.0	True	71.0	Magnitude	n/a	twobytwo	71.0	0.699	orange	4.0	task_switch	magnitude	switch	stim	poldrack-single-stim	s495	0	False
650.861	1.0	652.297	0.9	2.136	True	89.0	Magnitude	stay	twobytwo	89.0	0.536	orange	6.0	cue_stay	magnitude	stay	stim	poldrack-single-stim	s495	0	False
653.906	1.0	655.451	0.9	2.0	True	71.0	High-Low	switch	twobytwo	71.0	0.645	orange	4.0	cue_switch	magnitude	stay	stim	poldrack-single-stim	s495	0	False
656.011	1.0	657.097	0.1	2.408	True	89.0	High-Low	stay	twobytwo	89.0	0.986	blue	9.0	cue_stay	magnitude	stay	stim	poldrack-single-stim	s495	0	False
658.526	1.0	659.577	0.1	2.0	True	71.0	Color	n/a	twobytwo	71.0	0.951	blue	9.0	task_switch	color	switch	stim	poldrack-single-stim	s495	0	False
661.438	1.0	663.029	0.9	2.0	True	89.0	Orange-Blue	switch	twobytwo	89.0	0.691	orange	6.0	cue_switch	color	stay	stim	poldrack-single-stim	s495	0	False
663.545	1.0	664.582	0.1	2.0	True	71.0	Color	switch	twobytwo	71.0	0.937	blue	8.0	cue_switch	color	stay	stim	poldrack-single-stim	s495	0	False
666.451	1.0	668.024	0.9	2.68	True	71.0	Magnitude	n/a	twobytwo	71.0	0.673	blue	1.0	task_switch	magnitude	switch	stim	poldrack-single-stim	s495	0	False
669.238	1.0	670.073	0.1	2.272	True	89.0	Orange-Blue	n/a	twobytwo	89.0	0.735	orange	8.0	task_switch	color	switch	stim	poldrack-single-stim	s495	0	False
671.616	1.0	672.5	0.1	2.408	True	89.0	High-Low	n/a	twobytwo	89.0	0.784	orange	9.0	task_switch	magnitude	switch	stim	poldrack-single-stim	s495	0	False
