onset	duration	block_duration	correct	correct_response	cue	experiment_exp_id	flanker_location	flanker_middle_direction	flanker_type	key_press	response_time	trial_id	worker_id	junk
3.51	1.7	2.1	1.0	71.0	spatial	attention_network_task	down	right	congruent	71	0.65	stim	s497	False
6.116728	1.7	2.100272	1.0	89.0	double	attention_network_task	down	left	incongruent	89	0.627	stim	s497	False
8.723	1.7	2.1	1.0	71.0	spatial	attention_network_task	up	right	congruent	71	0.68	stim	s497	False
11.330864	1.7	2.100136	1.0	71.0	spatial	attention_network_task	down	right	congruent	71	0.509	stim	s497	False
13.935592	1.7	2.100408	1.0	89.0	double	attention_network_task	up	left	incongruent	89	0.728	stim	s497	False
16.540456	1.7	2.1005439999999997	1.0	71.0	double	attention_network_task	down	right	congruent	71	0.675	stim	s497	False
19.147	1.7	2.1	1.0	71.0	double	attention_network_task	down	right	incongruent	71	0.621	stim	s497	False
21.754864	1.7	2.100136	1.0	71.0	spatial	attention_network_task	up	right	incongruent	71	0.763	stim	s497	False
24.362864000000002	1.7	2.100136	1.0	89.0	double	attention_network_task	up	left	incongruent	89	0.917	stim	s497	False
26.969864	1.7	2.100136	1.0	89.0	spatial	attention_network_task	up	left	incongruent	89	0.988	stim	s497	False
29.577864	1.7	2.100136	1.0	71.0	double	attention_network_task	up	right	congruent	71	0.726	stim	s497	False
32.184728	1.7	2.100272	1.0	89.0	spatial	attention_network_task	down	left	incongruent	89	0.848	stim	s497	False
34.789864	1.7	2.100136	1.0	71.0	spatial	attention_network_task	down	right	incongruent	71	0.695	stim	s497	False
37.397591999999996	1.7	2.100408	1.0	71.0	spatial	attention_network_task	up	right	incongruent	71	0.544	stim	s497	False
40.004	1.7	2.1	1.0	71.0	double	attention_network_task	down	right	incongruent	71	0.574	stim	s497	False
42.611864000000004	1.7	2.100136	1.0	71.0	double	attention_network_task	up	right	congruent	71	0.562	stim	s497	False
45.217	1.7	2.1	1.0	89.0	spatial	attention_network_task	up	left	congruent	89	0.785	stim	s497	False
47.823864	1.7	2.100136	1.0	71.0	double	attention_network_task	down	right	incongruent	71	0.71	stim	s497	False
50.430048	1.7	2.1009520000000004	1.0	89.0	spatial	attention_network_task	up	left	congruent	89	0.75	stim	s497	False
53.037728	1.7	2.100272	1.0	89.0	double	attention_network_task	down	left	congruent	89	1.127	stim	s497	False
55.646864	1.7	2.100136	1.0	89.0	double	attention_network_task	up	left	congruent	89	0.574	stim	s497	False
58.255	1.7	2.1	1.0	89.0	double	attention_network_task	down	left	incongruent	89	0.477	stim	s497	False
60.859864	1.7	2.100136	1.0	71.0	spatial	attention_network_task	down	right	incongruent	71	0.595	stim	s497	False
63.467	1.7	2.1	1.0	71.0	double	attention_network_task	up	right	congruent	71	0.81	stim	s497	False
66.075864	1.7	2.100136	1.0	89.0	spatial	attention_network_task	down	left	incongruent	89	0.815	stim	s497	False
68.680728	1.7	2.100272	1.0	71.0	double	attention_network_task	up	right	incongruent	71	1.054	stim	s497	False
71.288728	1.7	2.100272	1.0	71.0	spatial	attention_network_task	up	right	incongruent	71	0.806	stim	s497	False
73.894864	1.7	2.100136	1.0	89.0	double	attention_network_task	down	left	congruent	89	1.186	stim	s497	False
76.502	1.7	2.1	1.0	89.0	double	attention_network_task	up	left	incongruent	89	1.216	stim	s497	False
79.108864	1.7	2.100136	1.0	71.0	double	attention_network_task	up	right	incongruent	71	0.768	stim	s497	False
81.716	1.7	2.1	1.0	89.0	spatial	attention_network_task	down	left	congruent	89	0.977	stim	s497	False
84.32172800000001	1.7	2.100272	1.0	89.0	double	attention_network_task	down	left	congruent	89	0.952	stim	s497	False
86.929	1.7	2.1	1.0	89.0	spatial	attention_network_task	down	left	incongruent	89	0.841	stim	s497	False
89.536	1.7	2.1	1.0	89.0	spatial	attention_network_task	up	left	incongruent	89	0.73	stim	s497	False
92.142864	1.7	2.100136	1.0	71.0	spatial	attention_network_task	up	right	congruent	71	0.66	stim	s497	False
94.749728	1.7	2.100272	0.0	71.0	spatial	attention_network_task	down	right	congruent	-1	n/a	stim	s497	False
97.355592	1.7	2.100408	1.0	89.0	double	attention_network_task	up	left	incongruent	89	0.751	stim	s497	False
99.962	1.7	2.1	1.0	71.0	double	attention_network_task	down	right	congruent	71	0.551	stim	s497	False
102.567864	1.7	2.100136	1.0	89.0	double	attention_network_task	up	left	congruent	89	0.647	stim	s497	False
105.175864	1.7	2.100136	1.0	89.0	spatial	attention_network_task	up	left	congruent	89	0.795	stim	s497	False
107.784	1.7	2.1	1.0	71.0	double	attention_network_task	down	right	congruent	71	1.02	stim	s497	False
110.390592	1.7	2.100408	1.0	71.0	double	attention_network_task	down	right	incongruent	71	0.849	stim	s497	False
112.994456	1.7	2.1005439999999997	1.0	71.0	spatial	attention_network_task	up	right	congruent	71	1.536	stim	s497	False
115.601864	1.7	2.100136	1.0	89.0	spatial	attention_network_task	up	left	congruent	89	0.681	stim	s497	False
118.208864	1.7	2.100136	1.0	89.0	spatial	attention_network_task	down	left	congruent	89	0.757	stim	s497	False
120.817	1.7	2.1	1.0	89.0	spatial	attention_network_task	down	left	incongruent	89	0.605	stim	s497	False
123.423	1.7	2.1	1.0	71.0	double	attention_network_task	up	right	congruent	71	0.705	stim	s497	False
126.028864	1.7	2.100136	1.0	89.0	double	attention_network_task	down	left	congruent	89	0.973	stim	s497	False
128.637	1.7	2.1	1.0	71.0	double	attention_network_task	up	right	congruent	71	0.485	stim	s497	False
131.242864	1.7	2.100136	1.0	71.0	double	attention_network_task	up	right	congruent	71	0.641	stim	s497	False
133.849	1.7	2.1	1.0	71.0	double	attention_network_task	down	right	congruent	71	0.52	stim	s497	False
136.455592	1.7	2.100408	1.0	89.0	spatial	attention_network_task	down	left	congruent	89	0.627	stim	s497	False
139.063	1.7	2.1	1.0	89.0	spatial	attention_network_task	down	left	incongruent	89	0.663	stim	s497	False
141.669184	1.7	2.100816	1.0	71.0	double	attention_network_task	up	right	incongruent	71	0.638	stim	s497	False
144.27632	1.7	2.1006799999999997	1.0	71.0	spatial	attention_network_task	down	right	congruent	71	0.569	stim	s497	False
146.882	1.7	2.1	1.0	89.0	spatial	attention_network_task	down	left	congruent	89	0.947	stim	s497	False
149.489864	1.7	2.100136	1.0	71.0	spatial	attention_network_task	up	right	congruent	71	0.609	stim	s497	False
152.094864	1.7	2.100136	1.0	71.0	double	attention_network_task	up	right	incongruent	71	0.614	stim	s497	False
154.701864	1.7	2.100136	1.0	89.0	double	attention_network_task	up	left	incongruent	89	0.6	stim	s497	False
157.309	1.7	2.1	1.0	71.0	double	attention_network_task	up	right	incongruent	71	0.609	stim	s497	False
159.913864	1.7	2.100136	1.0	71.0	spatial	attention_network_task	down	right	incongruent	71	0.677	stim	s497	False
162.520048	1.7	2.1009520000000004	1.0	71.0	spatial	attention_network_task	down	right	incongruent	71	0.549	stim	s497	False
165.128864	1.7	2.100136	1.0	89.0	double	attention_network_task	down	left	incongruent	89	0.628	stim	s497	False
167.735592	1.7	2.100408	1.0	71.0	double	attention_network_task	down	right	incongruent	71	0.516	stim	s497	False
180.847048	1.7	2.1009520000000004	1.0	89.0	spatial	attention_network_task	down	left	incongruent	89	0.543	stim	s497	False
183.45486400000001	1.7	2.100136	1.0	89.0	double	attention_network_task	down	left	incongruent	89	0.466	stim	s497	False
186.062728	1.7	2.100272	1.0	89.0	double	attention_network_task	down	left	incongruent	89	0.583	stim	s497	False
188.669728	1.7	2.100272	1.0	89.0	double	attention_network_task	down	left	incongruent	89	0.586	stim	s497	False
191.278	1.7	2.1	1.0	89.0	double	attention_network_task	down	left	congruent	89	0.571	stim	s497	False
193.884	1.7	2.1	1.0	89.0	spatial	attention_network_task	up	left	incongruent	89	0.722	stim	s497	False
196.489728	1.7	2.100272	1.0	89.0	spatial	attention_network_task	up	left	congruent	89	0.838	stim	s497	False
199.097	1.7	2.1	1.0	89.0	spatial	attention_network_task	down	left	congruent	89	1.199	stim	s497	False
201.702	1.7	2.1	1.0	71.0	spatial	attention_network_task	up	right	incongruent	71	0.62	stim	s497	False
204.307728	1.7	2.100272	1.0	89.0	double	attention_network_task	down	left	congruent	89	0.638	stim	s497	False
206.916	1.7	2.1	1.0	71.0	spatial	attention_network_task	down	right	incongruent	71	0.588	stim	s497	False
209.524864	1.7	2.100136	1.0	71.0	spatial	attention_network_task	down	right	congruent	71	0.48	stim	s497	False
212.131728	1.7	2.100272	1.0	89.0	spatial	attention_network_task	up	left	congruent	89	0.572	stim	s497	False
214.74	1.7	2.1	1.0	71.0	spatial	attention_network_task	up	right	congruent	71	0.503	stim	s497	False
217.346	1.7	2.1	1.0	71.0	double	attention_network_task	up	right	incongruent	71	0.586	stim	s497	False
219.953	1.7	2.1	1.0	71.0	double	attention_network_task	down	right	congruent	71	0.639	stim	s497	False
222.56	1.7	2.1	1.0	71.0	spatial	attention_network_task	up	right	incongruent	71	0.55	stim	s497	False
225.165	1.7	2.1	1.0	71.0	double	attention_network_task	down	right	congruent	71	0.873	stim	s497	False
227.771	1.7	2.1	1.0	89.0	spatial	attention_network_task	up	left	incongruent	89	0.937	stim	s497	False
230.377728	1.7	2.100272	1.0	89.0	double	attention_network_task	up	left	congruent	89	0.599	stim	s497	False
232.983864	1.7	2.100136	1.0	71.0	double	attention_network_task	down	right	incongruent	71	0.56	stim	s497	False
235.590912	1.7	2.1010880000000003	0.0	89.0	double	attention_network_task	up	left	incongruent	71	0.822	stim	s497	False
238.197728	1.7	2.100272	1.0	89.0	spatial	attention_network_task	down	left	congruent	89	0.597	stim	s497	False
240.804864	1.7	2.100136	1.0	71.0	spatial	attention_network_task	down	right	congruent	71	0.657	stim	s497	False
243.410864	1.7	2.100136	1.0	89.0	double	attention_network_task	up	left	congruent	89	0.666	stim	s497	False
246.017	1.7	2.1	1.0	89.0	double	attention_network_task	up	left	congruent	89	0.56	stim	s497	False
248.624	1.7	2.1	1.0	71.0	spatial	attention_network_task	down	right	incongruent	71	0.57	stim	s497	False
251.23	1.7	2.1	1.0	71.0	spatial	attention_network_task	up	right	congruent	71	0.636	stim	s497	False
253.835	1.7	2.1	1.0	71.0	double	attention_network_task	down	right	incongruent	71	0.553	stim	s497	False
256.439864	1.7	2.100136	1.0	71.0	spatial	attention_network_task	up	right	incongruent	71	0.675	stim	s497	False
259.045728	1.7	2.100272	1.0	71.0	double	attention_network_task	up	right	incongruent	71	0.639	stim	s497	False
261.653864	1.7	2.100136	1.0	89.0	spatial	attention_network_task	down	left	congruent	89	0.884	stim	s497	False
264.260864	1.7	2.100136	1.0	89.0	double	attention_network_task	up	left	congruent	89	0.623	stim	s497	False
266.867	1.7	2.1	1.0	71.0	double	attention_network_task	up	right	incongruent	71	0.735	stim	s497	False
269.473	1.7	2.1	1.0	71.0	spatial	attention_network_task	up	right	congruent	71	0.575	stim	s497	False
272.080592	1.7	2.100408	1.0	71.0	double	attention_network_task	up	right	congruent	71	0.417	stim	s497	False
274.689456	1.7	2.1005439999999997	1.0	71.0	double	attention_network_task	down	right	congruent	71	0.582	stim	s497	False
277.29659200000003	1.7	2.100408	1.0	89.0	spatial	attention_network_task	up	left	incongruent	89	1.033	stim	s497	False
279.903	1.7	2.1	1.0	89.0	spatial	attention_network_task	down	left	congruent	89	0.547	stim	s497	False
282.51059200000003	1.7	2.100408	1.0	89.0	double	attention_network_task	down	left	congruent	89	0.465	stim	s497	False
285.116	1.7	2.1	1.0	89.0	spatial	attention_network_task	down	left	congruent	89	0.898	stim	s497	False
287.723592	1.7	2.100408	1.0	89.0	spatial	attention_network_task	down	left	congruent	89	0.455	stim	s497	False
290.332	1.7	2.1	1.0	89.0	spatial	attention_network_task	up	left	incongruent	89	1.333	stim	s497	False
292.938	1.7	2.1	1.0	71.0	spatial	attention_network_task	up	right	incongruent	71	0.598	stim	s497	False
295.543592	1.7	2.100408	1.0	71.0	spatial	attention_network_task	up	right	incongruent	71	0.536	stim	s497	False
298.150864	1.7	2.100136	1.0	89.0	spatial	attention_network_task	down	left	incongruent	89	0.943	stim	s497	False
300.76072800000003	1.7	2.100272	1.0	89.0	double	attention_network_task	up	left	incongruent	89	0.563	stim	s497	False
303.367456	1.7	2.1005439999999997	1.0	89.0	double	attention_network_task	down	left	incongruent	89	0.633	stim	s497	False
305.974728	1.7	2.100272	1.0	89.0	spatial	attention_network_task	up	left	incongruent	89	0.637	stim	s497	False
308.584	1.7	2.1	1.0	89.0	spatial	attention_network_task	up	left	incongruent	89	0.623	stim	s497	False
311.188592	1.7	2.100408	1.0	89.0	spatial	attention_network_task	up	left	incongruent	89	0.53	stim	s497	False
313.795	1.7	2.1	1.0	71.0	spatial	attention_network_task	up	right	congruent	71	0.571	stim	s497	False
316.402	1.7	2.1	1.0	89.0	double	attention_network_task	down	left	congruent	89	0.599	stim	s497	False
319.009456	1.7	2.1005439999999997	1.0	89.0	double	attention_network_task	up	left	incongruent	89	0.57	stim	s497	False
321.615592	1.7	2.100408	1.0	71.0	spatial	attention_network_task	down	right	congruent	71	0.554	stim	s497	False
324.222	1.7	2.1	1.0	71.0	spatial	attention_network_task	down	right	congruent	71	0.427	stim	s497	False
326.826864	1.7	2.100136	1.0	71.0	spatial	attention_network_task	up	right	congruent	71	0.621	stim	s497	False
329.432184	1.7	2.100816	1.0	71.0	spatial	attention_network_task	down	right	incongruent	71	0.811	stim	s497	False
332.037864	1.7	2.100136	1.0	89.0	double	attention_network_task	down	left	congruent	89	0.638	stim	s497	False
334.644	1.7	2.1	1.0	71.0	spatial	attention_network_task	up	right	congruent	71	0.697	stim	s497	False
337.250864	1.7	2.100136	1.0	71.0	double	attention_network_task	up	right	incongruent	71	0.519	stim	s497	False
339.858864	1.7	2.100136	1.0	89.0	spatial	attention_network_task	up	left	incongruent	89	0.622	stim	s497	False
342.464864	1.7	2.100136	1.0	89.0	double	attention_network_task	down	left	incongruent	89	0.643	stim	s497	False
345.070456	1.7	2.1005439999999997	1.0	71.0	spatial	attention_network_task	down	right	congruent	71	0.959	stim	s497	False
