onset	duration	movement_onset	EV	action	block_duration	experiment_exp_id	gain_amount	gain_probability	key_press	loss_amount	loss_probability	num_cards	num_click_in_round	num_loss_cards	risk	response_time	total_cards	trial_id	trial_type	worker_id	junk	feedback
3.007	2.942	5.949	-0.4985614825553848	draw_card	2.942	columbia_card_task_fmri	12.0	0.8333333333333334	89.0	-70.0	0.1666666666666666	6.0	1.0	1.0	-1.6489408505306002	2.942	n/a	stim	poldrack-single-stim	s497	False	1
5.952	2.607	8.559	-3.231894815888717	draw_card	2.607	columbia_card_task_fmri	12.0	0.8	89.0	-70.0	0.2	6.0	2.0	1.0	0.5899401234331165	2.607	n/a	stim	poldrack-single-stim	s497	False	1
8.56	2.8	11.36	-7.3318948158887185	end_round	2.8	columbia_card_task_fmri	12.0	0.75	71.0	-70.0	0.25	6.0	3.0	1.0	3.2953973024595413	2.8	2.0	stim	poldrack-single-stim	s497	False	1
12.113	1.5	11.362	n/a	-1.0	2.454	columbia_card_task_fmri	n/a	n/a	-1.0	n/a	n/a	n/a	n/a	n/a	n/a	n/a	n/a	ITI	poldrack-single-stim	s497	False	0
13.82	3.029	16.849	0.3347718507779491	draw_card	3.029	columbia_card_task_fmri	14.0	0.8333333333333334	89.0	-75.0	0.1666666666666666	6.0	1.0	1.0	0.9580510199444774	3.029	1.0	stim	poldrack-single-stim	s497	False	0
17.601	1.5	16.85	n/a	-1.0	2.454	columbia_card_task_fmri	n/a	n/a	-1.0	n/a	n/a	n/a	n/a	n/a	n/a	n/a	n/a	ITI	poldrack-single-stim	s497	False	0
19.307	1.197	20.504	2.0014385174446154	draw_card	1.197	columbia_card_task_fmri	15.0	0.8333333333333334	89.0	-70.0	0.1666666666666666	6.0	1.0	1.0	-0.5316939612672336	1.197	n/a	stim	poldrack-single-stim	s497	False	1
20.506	0.567	21.073	-0.8318948158887187	draw_card	0.567	columbia_card_task_fmri	15.0	0.8	89.0	-70.0	0.2	6.0	2.0	1.0	1.789206684569983	0.567	n/a	stim	poldrack-single-stim	s497	False	1
21.075	0.911	21.986	-5.081894815888719	draw_card	0.911	columbia_card_task_fmri	15.0	0.75	89.0	-70.0	0.25	6.0	3.0	1.0	4.593757795199764	0.911	n/a	stim	poldrack-single-stim	s497	False	1
21.989	0.881	22.87	-12.165228149222049	end_round	0.881	columbia_card_task_fmri	15.0	0.6666666666666667	71.0	-70.0	0.3333333333333333	6.0	4.0	1.0	7.855553859828902	0.881	3.0	stim	poldrack-single-stim	s497	False	1
23.623	1.5	22.872	n/a	-1.0	2.522	columbia_card_task_fmri	n/a	n/a	-1.0	n/a	n/a	n/a	n/a	n/a	n/a	n/a	n/a	ITI	poldrack-single-stim	s497	False	0
25.396	1.764	27.16	2.8347718507779494	draw_card	1.764	columbia_card_task_fmri	17.0	0.8333333333333334	89.0	-75.0	0.1666666666666666	6.0	1.0	1.0	2.075414888294098	1.764	n/a	stim	poldrack-single-stim	s497	False	1
27.161	2.778	29.939	-0.2318948158887173	draw_card	2.778	columbia_card_task_fmri	17.0	0.8	89.0	-75.0	0.2	6.0	2.0	1.0	4.587681194336298	2.778	n/a	stim	poldrack-single-stim	s497	False	1
29.94	1.252	31.192	-4.831894815888719	end_round	1.252	columbia_card_task_fmri	17.0	0.75	71.0	-75.0	0.25	6.0	3.0	1.0	7.623437351680877	1.252	2.0	stim	poldrack-single-stim	s497	False	1
31.945	1.5	31.194	n/a	-1.0	2.454	columbia_card_task_fmri	n/a	n/a	-1.0	n/a	n/a	n/a	n/a	n/a	n/a	n/a	n/a	ITI	poldrack-single-stim	s497	False	0
33.65	1.953	35.603	4.1681051841112815	draw_card	1.953	columbia_card_task_fmri	24.0	0.75	89.0	-60.0	0.25	8.0	1.0	2.0	4.160965590579288	1.953	n/a	stim	poldrack-single-stim	s497	False	1
35.606	1.762	37.368	1.1681051841112813	draw_card	1.762	columbia_card_task_fmri	24.0	0.7142857142857143	89.0	-60.0	0.2857142857142857	8.0	2.0	2.0	5.734453003291577	1.762	n/a	stim	poldrack-single-stim	s497	False	1
37.369	1.512	38.881	-2.8318948158887185	draw_card	1.512	columbia_card_task_fmri	24.0	0.6666666666666667	89.0	-60.0	0.3333333333333333	8.0	3.0	2.0	7.384351902887772	1.512	n/a	stim	poldrack-single-stim	s497	False	1
38.883	3.577	42.46	-8.43189481588872	draw_card	3.577	columbia_card_task_fmri	24.0	0.6	89.0	-60.0	0.4	8.0	4.0	2.0	8.937149855337282	3.577	4.0	stim	poldrack-single-stim	s497	False	0
43.212	1.5	42.461	n/a	-1.0	2.658	columbia_card_task_fmri	n/a	n/a	-1.0	n/a	n/a	n/a	n/a	n/a	n/a	n/a	n/a	ITI	poldrack-single-stim	s497	False	0
45.122	0.72	45.842	4.1681051841112815	draw_card	0.72	columbia_card_task_fmri	29.0	0.75	89.0	-75.0	0.25	8.0	1.0	2.0	12.817614877338954	0.72	n/a	stim	poldrack-single-stim	s497	False	1
45.842	0.594	46.436	0.4538194698255695	draw_card	0.594	columbia_card_task_fmri	29.0	0.7142857142857143	89.0	-75.0	0.2857142857142857	8.0	2.0	2.0	14.766076648311248	0.594	2.0	stim	poldrack-single-stim	s497	False	0
47.189	1.5	46.438	n/a	-1.0	2.386	columbia_card_task_fmri	n/a	n/a	-1.0	n/a	n/a	n/a	n/a	n/a	n/a	n/a	n/a	ITI	poldrack-single-stim	s497	False	0
48.828	0.543	49.371	-0.0541170381109383	draw_card	0.543	columbia_card_task_fmri	17.0	0.7777777777777778	89.0	-65.0	0.2222222222222222	9.0	1.0	2.0	1.8798095620859956	0.543	n/a	stim	poldrack-single-stim	s497	False	1
49.374	0.615	49.989	-2.3318948158887185	draw_card	0.615	columbia_card_task_fmri	17.0	0.75	89.0	-65.0	0.25	9.0	2.0	2.0	3.2953973024595413	0.615	n/a	stim	poldrack-single-stim	s497	False	1
49.991	0.795	50.786	-5.2604662444601455	draw_card	0.795	columbia_card_task_fmri	17.0	0.7142857142857143	89.0	-65.0	0.2857142857142857	9.0	3.0	2.0	4.831383280556565	0.795	n/a	stim	poldrack-single-stim	s497	False	1
50.788	0.863	51.651	-9.165228149222049	end_round	0.863	columbia_card_task_fmri	17.0	0.6666666666666667	71.0	-65.0	0.3333333333333333	9.0	4.0	2.0	6.441962800807744	0.863	3.0	stim	poldrack-single-stim	s497	False	1
52.403	1.5	51.652	n/a	-1.0	2.522	columbia_card_task_fmri	n/a	n/a	-1.0	n/a	n/a	n/a	n/a	n/a	n/a	n/a	n/a	ITI	poldrack-single-stim	s497	False	0
54.177	0.994	55.171	4.268105184111281	draw_card	0.994	columbia_card_task_fmri	14.0	0.9	89.0	-95.0	0.1	10.0	1.0	1.0	0.4900036708908928	0.994	n/a	stim	poldrack-single-stim	s497	False	1
55.173	2.052	57.225	3.056994073000169	end_round	2.052	columbia_card_task_fmri	14.0	0.8888888888888888	71.0	-95.0	0.1111111111111111	10.0	2.0	1.0	2.0444523909263594	2.052	1.0	stim	poldrack-single-stim	s497	False	1
57.979	1.5	57.228	n/a	-1.0	2.59	columbia_card_task_fmri	n/a	n/a	-1.0	n/a	n/a	n/a	n/a	n/a	n/a	n/a	n/a	ITI	poldrack-single-stim	s497	False	0
59.82	0.512	60.332	0.1681051841112812	draw_card	0.512	columbia_card_task_fmri	15.0	0.8	89.0	-65.0	0.2	10.0	1.0	2.0	-0.2095403870305858	0.512	1.0	stim	poldrack-single-stim	s497	False	0
61.084	1.5	60.333	n/a	-1.0	2.386	columbia_card_task_fmri	n/a	n/a	-1.0	n/a	n/a	n/a	n/a	n/a	n/a	n/a	n/a	ITI	poldrack-single-stim	s497	False	0
62.721	0.598	63.319	1.7681051841112827	draw_card	0.598	columbia_card_task_fmri	17.0	0.8	89.0	-65.0	0.2	10.0	1.0	2.0	0.5899401234331165	0.598	n/a	stim	poldrack-single-stim	s497	False	1
63.321	0.83	64.151	-0.0541170381109383	draw_card	0.83	columbia_card_task_fmri	17.0	0.7777777777777778	89.0	-65.0	0.2222222222222222	10.0	2.0	2.0	1.8798095620859956	0.83	n/a	stim	poldrack-single-stim	s497	False	1
64.152	0.473	64.625	-2.3318948158887185	draw_card	0.473	columbia_card_task_fmri	17.0	0.75	89.0	-65.0	0.25	10.0	3.0	2.0	3.2953973024595413	0.473	n/a	stim	poldrack-single-stim	s497	False	1
64.627	0.996	65.623	-5.2604662444601455	draw_card	0.996	columbia_card_task_fmri	17.0	0.7142857142857143	89.0	-65.0	0.2857142857142857	10.0	4.0	2.0	4.831383280556565	0.996	n/a	stim	poldrack-single-stim	s497	False	1
65.624	0.906	66.53	-9.165228149222049	end_round	0.906	columbia_card_task_fmri	17.0	0.6666666666666667	71.0	-65.0	0.3333333333333333	10.0	5.0	2.0	6.441962800807744	0.906	4.0	stim	poldrack-single-stim	s497	False	1
67.283	1.5	66.532	n/a	-1.0	2.59	columbia_card_task_fmri	n/a	n/a	-1.0	n/a	n/a	n/a	n/a	n/a	n/a	n/a	n/a	ITI	poldrack-single-stim	s497	False	0
69.125	2.02	71.145	0.3347718507779491	draw_card	2.02	columbia_card_task_fmri	13.0	0.8333333333333334	89.0	-70.0	0.1666666666666666	12.0	1.0	2.0	-1.2765315361328824	2.02	n/a	stim	poldrack-single-stim	s497	False	1
71.148	0.91	72.058	-0.9228039067978122	draw_card	0.91	columbia_card_task_fmri	13.0	0.8181818181818181	89.0	-70.0	0.1818181818181818	12.0	2.0	2.0	-0.1968963475722063	0.91	n/a	stim	poldrack-single-stim	s497	False	1
72.06	3.399	75.459	-2.431894815888718	draw_card	3.399	columbia_card_task_fmri	13.0	0.8	89.0	-70.0	0.2	12.0	3.0	2.0	0.9896897581795088	3.399	n/a	stim	poldrack-single-stim	s497	False	1
75.461	1.28	76.741	-4.276339260333163	end_round	1.28	columbia_card_task_fmri	13.0	0.7777777777777778	71.0	-70.0	0.2222222222222222	12.0	4.0	2.0	2.2953083683853848	1.28	3.0	stim	poldrack-single-stim	s497	False	1
77.494	1.5	76.743	n/a	-1.0	2.318	columbia_card_task_fmri	n/a	n/a	-1.0	n/a	n/a	n/a	n/a	n/a	n/a	n/a	n/a	ITI	poldrack-single-stim	s497	False	0
79.064	1.259	80.323	0.3347718507779491	draw_card	1.259	columbia_card_task_fmri	15.0	0.8333333333333334	89.0	-80.0	0.1666666666666666	12.0	1.0	2.0	3.1928210443689764	1.259	1.0	stim	poldrack-single-stim	s497	False	0
81.077	1.5	80.326	n/a	-1.0	2.25	columbia_card_task_fmri	n/a	n/a	-1.0	n/a	n/a	n/a	n/a	n/a	n/a	n/a	n/a	ITI	poldrack-single-stim	s497	False	0
82.578	1.743	84.321	-0.6318948158887177	draw_card	1.743	columbia_card_task_fmri	14.0	0.8	89.0	-65.0	0.2	15.0	1.0	3.0	-0.6092707884680877	1.743	n/a	stim	poldrack-single-stim	s497	False	1
84.323	0.806	85.129	-1.7604662444601458	draw_card	0.806	columbia_card_task_fmri	14.0	0.7857142857142857	89.0	-65.0	0.2142857142857142	15.0	2.0	3.0	0.2059328086338752	0.806	n/a	stim	poldrack-single-stim	s497	False	1
85.131	0.929	86.06	-3.0626640466579502	draw_card	0.929	columbia_card_task_fmri	14.0	0.7692307692307692	89.0	-65.0	0.2307692307692307	15.0	3.0	3.0	1.07431602241153	0.929	n/a	stim	poldrack-single-stim	s497	False	1
86.063	1.057	87.12	-4.581894815888719	draw_card	1.057	columbia_card_task_fmri	14.0	0.75	89.0	-65.0	0.25	15.0	4.0	3.0	1.9970882306387023	1.057	4.0	stim	poldrack-single-stim	s497	False	0
87.875	1.5	87.124	n/a	-1.0	2.454	columbia_card_task_fmri	n/a	n/a	-1.0	n/a	n/a	n/a	n/a	n/a	n/a	n/a	n/a	ITI	poldrack-single-stim	s497	False	0
89.582	0.539	90.121	-0.7068948158887187	draw_card	0.539	columbia_card_task_fmri	1.0	0.9375	89.0	-45.0	0.0625	16.0	1.0	1.0	-21.0349233006918	0.539	n/a	stim	poldrack-single-stim	s497	False	1
90.122	0.574	90.696	-0.8985614825553851	draw_card	0.574	columbia_card_task_fmri	1.0	0.9333333333333332	89.0	-45.0	0.0666666666666666	16.0	2.0	1.0	-20.69713334990874	0.574	n/a	stim	poldrack-single-stim	s497	False	1
90.697	0.736	91.433	-1.1176091016030043	draw_card	0.736	columbia_card_task_fmri	1.0	0.9285714285714286	89.0	-45.0	0.0714285714285714	16.0	3.0	1.0	-20.326593030368745	0.736	n/a	stim	poldrack-single-stim	s497	False	1
91.435	0.729	92.164	-1.370356354350257	draw_card	0.729	columbia_card_task_fmri	1.0	0.9230769230769232	89.0	-45.0	0.0769230769230769	16.0	4.0	1.0	-19.917730436913075	0.729	4.0	stim	poldrack-single-stim	s497	False	0
92.918	1.5	92.167	n/a	-1.0	3.27	columbia_card_task_fmri	n/a	n/a	-1.0	n/a	n/a	n/a	n/a	n/a	n/a	n/a	n/a	ITI	poldrack-single-stim	s497	False	0
95.439	0.538	95.977	0.2306051841112812	draw_card	0.538	columbia_card_task_fmri	15.0	0.8125	89.0	-70.0	0.1875	16.0	1.0	3.0	0.9662561347436522	0.538	n/a	stim	poldrack-single-stim	s497	False	1
95.98	0.589	96.569	-0.8318948158887187	draw_card	0.589	columbia_card_task_fmri	15.0	0.8	89.0	-70.0	0.2	16.0	2.0	3.0	1.789206684569983	0.589	n/a	stim	poldrack-single-stim	s497	False	1
96.57	0.577	97.147	-2.046180530174434	draw_card	0.577	columbia_card_task_fmri	15.0	0.7857142857142857	89.0	-70.0	0.2142857142857142	16.0	3.0	3.0	2.6664039458973647	0.577	n/a	stim	poldrack-single-stim	s497	False	1
97.15	1.177	98.327	-3.4472794312733352	draw_card	1.177	columbia_card_task_fmri	15.0	0.7692307692307692	89.0	-70.0	0.2307692307692307	16.0	4.0	3.0	3.6008206864524936	1.177	4.0	stim	poldrack-single-stim	s497	False	0
99.081	1.5	98.33	n/a	-1.0	2.25	columbia_card_task_fmri	n/a	n/a	-1.0	n/a	n/a	n/a	n/a	n/a	n/a	n/a	n/a	ITI	poldrack-single-stim	s497	False	0
100.583	0.878	101.461	7.1681051841112815	draw_card	0.878	columbia_card_task_fmri	30.0	0.7	89.0	-50.0	0.3	10.0	1.0	3.0	4.448357191271377	0.878	1.0	stim	poldrack-single-stim	s497	False	0
102.214	1.5	101.463	n/a	-1.0	2.25	columbia_card_task_fmri	n/a	n/a	-1.0	n/a	n/a	n/a	n/a	n/a	n/a	n/a	n/a	ITI	poldrack-single-stim	s497	False	0
103.716	0.543	104.259	6.568105184111282	draw_card	0.543	columbia_card_task_fmri	17.0	0.8666666666666667	89.0	-70.0	0.1333333333333333	15.0	1.0	2.0	-2.6334804462909034	0.543	n/a	stim	poldrack-single-stim	s497	False	1
104.262	0.616	104.878	5.739533755539855	draw_card	0.616	columbia_card_task_fmri	17.0	0.8571428571428572	89.0	-70.0	0.1428571428571428	15.0	2.0	2.0	-1.764793386234956	0.616	n/a	stim	poldrack-single-stim	s497	False	1
104.88	2.26	107.14	4.7834897994958965	draw_card	2.26	columbia_card_task_fmri	17.0	0.8461538461538461	89.0	-70.0	0.1538461538461538	15.0	3.0	2.0	-0.8194208282196165	2.26	n/a	stim	poldrack-single-stim	s497	False	1
107.142	0.825	107.967	3.6681051841112833	end_round	0.825	columbia_card_task_fmri	17.0	0.8333333333333334	71.0	-70.0	0.1666666666666666	15.0	4.0	2.0	0.2131674251635118	0.825	3.0	stim	poldrack-single-stim	s497	False	1
108.72	1.5	107.969	n/a	-1.0	2.318	columbia_card_task_fmri	n/a	n/a	-1.0	n/a	n/a	n/a	n/a	n/a	n/a	n/a	n/a	ITI	poldrack-single-stim	s497	False	0
110.29	0.8	111.09	1.7931051841112813	draw_card	0.8	columbia_card_task_fmri	7.0	0.9375	89.0	-95.0	0.0625	16.0	1.0	1.0	-7.512968010739986	0.8	n/a	stim	poldrack-single-stim	s497	False	1
111.092	0.912	112.004	1.3681051841112817	draw_card	0.912	columbia_card_task_fmri	7.0	0.9333333333333332	89.0	-95.0	0.0666666666666666	16.0	2.0	1.0	-6.760783052153929	0.912	n/a	stim	poldrack-single-stim	s497	False	1
112.007	1.7	113.707	0.8823908983969957	end_round	1.7	columbia_card_task_fmri	7.0	0.9285714285714286	71.0	-95.0	0.0714285714285714	16.0	3.0	1.0	-5.93587843402852	1.7	2.0	stim	poldrack-single-stim	s497	False	1
114.46	1.5	113.709	n/a	-1.0	2.726	columbia_card_task_fmri	n/a	n/a	-1.0	n/a	n/a	n/a	n/a	n/a	n/a	n/a	n/a	ITI	poldrack-single-stim	s497	False	0
116.439	0.658	117.097	3.355605184111281	draw_card	0.658	columbia_card_task_fmri	9.0	0.9375	89.0	-100.0	0.0625	16.0	1.0	1.0	-5.820309524799292	0.658	n/a	stim	poldrack-single-stim	s497	False	1
117.098	2.952	120.05	2.901438517444615	draw_card	2.952	columbia_card_task_fmri	9.0	0.9333333333333332	89.0	-100.0	0.0666666666666666	16.0	2.0	1.0	-5.016395722291421	2.952	n/a	stim	poldrack-single-stim	s497	False	1
120.052	1.878	121.93	2.382390898396997	draw_card	1.878	columbia_card_task_fmri	9.0	0.9285714285714286	89.0	-100.0	0.0714285714285714	16.0	3.0	1.0	-4.13476834974017	1.878	3.0	stim	poldrack-single-stim	s497	False	0
122.684	1.5	121.933	n/a	-1.0	2.386	columbia_card_task_fmri	n/a	n/a	-1.0	n/a	n/a	n/a	n/a	n/a	n/a	n/a	n/a	ITI	poldrack-single-stim	s497	False	0
124.323	0.614	124.937	4.2931051841112815	draw_card	0.614	columbia_card_task_fmri	15.0	0.875	89.0	-80.0	0.125	16.0	1.0	2.0	-0.7908492371578149	0.614	n/a	stim	poldrack-single-stim	s497	False	1
124.938	0.657	125.595	3.5014385174446154	draw_card	0.657	columbia_card_task_fmri	15.0	0.8666666666666667	89.0	-80.0	0.1333333333333333	16.0	2.0	2.0	0.084056102001746	0.657	n/a	stim	poldrack-single-stim	s497	False	1
125.597	0.576	126.173	2.596676612682712	draw_card	0.576	columbia_card_task_fmri	15.0	0.8571428571428572	89.0	-80.0	0.1428571428571428	16.0	3.0	2.0	1.0327382365644908	0.576	n/a	stim	poldrack-single-stim	s497	False	1
126.175	0.762	126.937	1.5527205687266643	draw_card	0.762	columbia_card_task_fmri	15.0	0.8461538461538461	89.0	-80.0	0.1538461538461538	16.0	4.0	2.0	2.0651603525225752	0.762	n/a	stim	poldrack-single-stim	s497	False	1
126.939	1.12	128.059	0.3347718507779491	end_round	1.12	columbia_card_task_fmri	15.0	0.8333333333333334	71.0	-80.0	0.1666666666666666	16.0	5.0	2.0	3.1928210443689764	1.12	4.0	stim	poldrack-single-stim	s497	False	1
128.813	1.5	128.062	n/a	-1.0	2.318	columbia_card_task_fmri	n/a	n/a	-1.0	n/a	n/a	n/a	n/a	n/a	n/a	n/a	n/a	ITI	poldrack-single-stim	s497	False	0
130.384	2.467	132.851	6.4181051841112815	end_round	2.467	columbia_card_task_fmri	16.0	0.875	71.0	-70.0	0.125	16.0	1.0	2.0	-3.765049614620682	2.467	0.0	stim	poldrack-single-stim	s497	False	1
133.605	1.5	132.854	n/a	-1.0	2.25	columbia_card_task_fmri	n/a	n/a	-1.0	n/a	n/a	n/a	n/a	n/a	n/a	n/a	n/a	ITI	poldrack-single-stim	s497	False	0
135.108	1.041	136.149	7.7306051841112815	draw_card	1.041	columbia_card_task_fmri	30.0	0.6875	89.0	-45.0	0.3125	16.0	1.0	5.0	2.552196815891669	1.041	1.0	stim	poldrack-single-stim	s497	False	0
136.903	1.5	136.152	n/a	-1.0	2.25	columbia_card_task_fmri	n/a	n/a	-1.0	n/a	n/a	n/a	n/a	n/a	n/a	n/a	n/a	ITI	poldrack-single-stim	s497	False	0
138.405	0.925	139.33	-0.4985614825553848	draw_card	0.925	columbia_card_task_fmri	13.0	0.8333333333333334	89.0	-75.0	0.1666666666666666	6.0	1.0	1.0	0.5856065410271043	0.925	n/a	stim	poldrack-single-stim	s497	False	1
139.332	0.652	139.984	-3.431894815888718	draw_card	0.652	columbia_card_task_fmri	13.0	0.8	89.0	-75.0	0.2	6.0	2.0	1.0	2.988523210151719	0.652	2.0	stim	poldrack-single-stim	s497	False	0
140.736	1.5	139.985	n/a	-1.0	2.454	columbia_card_task_fmri	n/a	n/a	-1.0	n/a	n/a	n/a	n/a	n/a	n/a	n/a	n/a	ITI	poldrack-single-stim	s497	False	0
142.443	0.498	142.941	1.168105184111283	draw_card	0.498	columbia_card_task_fmri	14.0	0.8333333333333334	89.0	-70.0	0.1666666666666666	6.0	1.0	1.0	-0.9041158313007857	0.498	1.0	stim	poldrack-single-stim	s497	False	0
143.694	1.5	142.943	n/a	-1.0	2.454	columbia_card_task_fmri	n/a	n/a	-1.0	n/a	n/a	n/a	n/a	n/a	n/a	n/a	n/a	ITI	poldrack-single-stim	s497	False	0
145.401	0.466	145.867	1.168105184111283	draw_card	0.466	columbia_card_task_fmri	16.0	0.8333333333333334	89.0	-80.0	0.1666666666666666	6.0	1.0	1.0	3.565298475868936	0.466	n/a	stim	poldrack-single-stim	s497	False	1
145.869	0.946	146.815	-2.031894815888718	draw_card	0.946	columbia_card_task_fmri	16.0	0.8	89.0	-80.0	0.2	6.0	2.0	1.0	6.186909295672606	0.946	n/a	stim	poldrack-single-stim	s497	False	1
146.817	1.235	148.052	-6.831894815888719	draw_card	1.235	columbia_card_task_fmri	16.0	0.75	89.0	-80.0	0.25	6.0	3.0	1.0	9.354775034085089	1.235	3.0	stim	poldrack-single-stim	s497	False	0
148.806	1.5	148.055	n/a	-1.0	2.522	columbia_card_task_fmri	n/a	n/a	-1.0	n/a	n/a	n/a	n/a	n/a	n/a	n/a	n/a	ITI	poldrack-single-stim	s497	False	0
150.58	0.799	151.379	3.6681051841112833	draw_card	0.799	columbia_card_task_fmri	17.0	0.8333333333333334	89.0	-70.0	0.1666666666666666	6.0	1.0	1.0	0.2131674251635118	0.799	n/a	stim	poldrack-single-stim	s497	False	1
151.382	0.824	152.206	0.7681051841112827	draw_card	0.824	columbia_card_task_fmri	17.0	0.8	89.0	-70.0	0.2	6.0	2.0	1.0	2.58874580204494	0.824	n/a	stim	poldrack-single-stim	s497	False	1
152.207	0.954	153.161	-3.5818948158887185	end_round	0.954	columbia_card_task_fmri	17.0	0.75	71.0	-70.0	0.25	6.0	3.0	1.0	5.45935739997735	0.954	2.0	stim	poldrack-single-stim	s497	False	1
153.914	1.5	153.163	n/a	-1.0	2.386	columbia_card_task_fmri	n/a	n/a	-1.0	n/a	n/a	n/a	n/a	n/a	n/a	n/a	n/a	ITI	poldrack-single-stim	s497	False	0
155.552	3.016	158.568	3.6681051841112815	draw_card	3.016	columbia_card_task_fmri	25.0	0.75	89.0	-65.0	0.25	8.0	1.0	2.0	6.757792265762667	3.016	n/a	stim	poldrack-single-stim	s497	False	1
158.57	0.504	159.074	0.4538194698255695	draw_card	0.504	columbia_card_task_fmri	25.0	0.7142857142857143	89.0	-65.0	0.2857142857142857	8.0	2.0	2.0	8.443778943192513	0.504	n/a	stim	poldrack-single-stim	s497	False	1
159.078	2.006	161.084	-3.831894815888715	draw_card	2.006	columbia_card_task_fmri	25.0	0.6666666666666667	89.0	-65.0	0.3333333333333333	8.0	3.0	2.0	10.2116311257926	2.006	3.0	stim	poldrack-single-stim	s497	False	0
161.837	1.5	161.086	n/a	-1.0	2.454	columbia_card_task_fmri	n/a	n/a	-1.0	n/a	n/a	n/a	n/a	n/a	n/a	n/a	n/a	ITI	poldrack-single-stim	s497	False	0
163.544	1.5	165.044	3.6681051841112815	draw_card	1.5	columbia_card_task_fmri	30.0	0.75	89.0	-80.0	0.25	8.0	1.0	2.0	15.41486514366298	1.5	n/a	stim	poldrack-single-stim	s497	False	1
165.048	1.938	166.986	-0.2604662444601422	end_round	1.938	columbia_card_task_fmri	30.0	0.7142857142857143	71.0	-80.0	0.2857142857142857	8.0	2.0	2.0	17.475808646056613	1.938	1.0	stim	poldrack-single-stim	s497	False	1
167.739	1.5	166.988	n/a	-1.0	2.522	columbia_card_task_fmri	n/a	n/a	-1.0	n/a	n/a	n/a	n/a	n/a	n/a	n/a	n/a	ITI	poldrack-single-stim	s497	False	0
169.514	0.792	170.306	3.3681051841112826	draw_card	0.792	columbia_card_task_fmri	13.0	0.9	89.0	-95.0	0.1	10.0	1.0	1.0	0.190196664598389	0.792	1.0	stim	poldrack-single-stim	s497	False	0
171.06	1.5	170.309	n/a	-1.0	2.522	columbia_card_task_fmri	n/a	n/a	-1.0	n/a	n/a	n/a	n/a	n/a	n/a	n/a	n/a	ITI	poldrack-single-stim	s497	False	0
172.835	0.477	173.312	4.768105184111281	draw_card	0.477	columbia_card_task_fmri	14.0	0.9	89.0	-90.0	0.1	10.0	1.0	1.0	-1.0089942842888782	0.477	n/a	stim	poldrack-single-stim	s497	False	1
173.316	0.447	173.763	3.612549628555725	draw_card	0.447	columbia_card_task_fmri	14.0	0.8888888888888888	89.0	-90.0	0.1111111111111111	10.0	2.0	1.0	0.4740606195365373	0.447	n/a	stim	poldrack-single-stim	s497	False	1
173.766	0.963	174.729	2.168105184111281	draw_card	0.963	columbia_card_task_fmri	14.0	0.875	89.0	-90.0	0.125	10.0	3.0	1.0	2.1837436246865565	0.963	n/a	stim	poldrack-single-stim	s497	False	1
174.732	0.941	175.673	0.3109623269684254	end_round	0.941	columbia_card_task_fmri	14.0	0.8571428571428572	71.0	-90.0	0.1428571428571428	10.0	4.0	1.0	4.1803077009437	0.941	3.0	stim	poldrack-single-stim	s497	False	1
176.426	1.5	175.675	n/a	-1.0	2.59	columbia_card_task_fmri	n/a	n/a	-1.0	n/a	n/a	n/a	n/a	n/a	n/a	n/a	n/a	ITI	poldrack-single-stim	s497	False	0
178.268	2.776	181.044	-0.031894815888718	draw_card	2.776	columbia_card_task_fmri	16.0	0.8	89.0	-70.0	0.2	10.0	1.0	2.0	2.188973566072896	2.776	n/a	stim	poldrack-single-stim	s497	False	1
181.047	1.563	182.61	-1.9430059269998292	draw_card	1.563	columbia_card_task_fmri	16.0	0.7777777777777778	89.0	-70.0	0.2222222222222222	10.0	2.0	2.0	3.5418383740597577	1.563	n/a	stim	poldrack-single-stim	s497	False	1
182.613	0.956	183.569	-4.331894815888719	end_round	0.956	columbia_card_task_fmri	16.0	0.75	71.0	-70.0	0.25	10.0	3.0	2.0	5.0265551238383	0.956	2.0	stim	poldrack-single-stim	s497	False	1
184.322	1.5	183.571	n/a	-1.0	2.454	columbia_card_task_fmri	n/a	n/a	-1.0	n/a	n/a	n/a	n/a	n/a	n/a	n/a	n/a	ITI	poldrack-single-stim	s497	False	0
186.028	2.383	188.411	-0.7485614825553848	draw_card	2.383	columbia_card_task_fmri	7.0	0.9166666666666666	89.0	-100.0	0.0833333333333333	12.0	1.0	1.0	-2.634555073194722	2.383	n/a	stim	poldrack-single-stim	s497	False	1
188.414	1.816	190.23	-1.5591675431614471	draw_card	1.816	columbia_card_task_fmri	7.0	0.9090909090909092	89.0	-100.0	0.0909090909090909	12.0	2.0	1.0	-1.44834483570893	1.816	n/a	stim	poldrack-single-stim	s497	False	1
190.232	2.755	192.987	-2.5318948158887187	end_round	2.755	columbia_card_task_fmri	7.0	0.9	71.0	-100.0	0.1	12.0	3.0	1.0	-0.1096067378805187	2.755	2.0	stim	poldrack-single-stim	s497	False	1
193.741	1.5	192.99	n/a	-1.0	2.318	columbia_card_task_fmri	n/a	n/a	-1.0	n/a	n/a	n/a	n/a	n/a	n/a	n/a	n/a	ITI	poldrack-single-stim	s497	False	0
195.313	2.356	197.669	-0.498561482555383	draw_card	2.356	columbia_card_task_fmri	14.0	0.8333333333333334	89.0	-80.0	0.1666666666666666	12.0	1.0	2.0	2.8203478766864194	2.356	n/a	stim	poldrack-single-stim	s497	False	1
197.672	2.349	200.021	-1.922803906797812	draw_card	2.349	columbia_card_task_fmri	14.0	0.8181818181818181	89.0	-80.0	0.1818181818181818	12.0	2.0	2.0	4.043252658882146	2.349	2.0	stim	poldrack-single-stim	s497	False	0
200.775	1.5	200.024	n/a	-1.0	2.25	columbia_card_task_fmri	n/a	n/a	-1.0	n/a	n/a	n/a	n/a	n/a	n/a	n/a	n/a	ITI	poldrack-single-stim	s497	False	0
202.278	1.126	203.404	1.1681051841112813	draw_card	1.126	columbia_card_task_fmri	15.0	0.8333333333333334	89.0	-75.0	0.1666666666666666	12.0	1.0	2.0	1.3305006833674329	1.126	n/a	stim	poldrack-single-stim	s497	False	1
203.407	1.029	204.436	-0.1955311795250838	draw_card	1.029	columbia_card_task_fmri	15.0	0.8181818181818181	89.0	-75.0	0.1818181818181818	12.0	2.0	2.0	2.5013098817423938	1.029	n/a	stim	poldrack-single-stim	s497	False	1
204.439	1.16	205.599	-1.8318948158887187	draw_card	1.16	columbia_card_task_fmri	15.0	0.8	89.0	-75.0	0.2	12.0	3.0	2.0	3.7880928538955416	1.16	3.0	stim	poldrack-single-stim	s497	False	0
206.353	1.5	205.602	n/a	-1.0	2.658	columbia_card_task_fmri	n/a	n/a	-1.0	n/a	n/a	n/a	n/a	n/a	n/a	n/a	n/a	ITI	poldrack-single-stim	s497	False	0
208.264	0.775	209.039	0.1681051841112812	draw_card	0.775	columbia_card_task_fmri	15.0	0.8	89.0	-65.0	0.2	15.0	1.0	3.0	-0.2095403870305858	0.775	n/a	stim	poldrack-single-stim	s497	False	1
209.041	0.638	209.679	-0.9747519587458612	draw_card	0.638	columbia_card_task_fmri	15.0	0.7857142857142857	89.0	-65.0	0.2142857142857142	15.0	2.0	3.0	0.6159958846743692	0.638	n/a	stim	poldrack-single-stim	s497	False	1
209.682	0.664	210.346	-2.293433277427182	draw_card	0.664	columbia_card_task_fmri	15.0	0.7692307692307692	89.0	-65.0	0.2307692307692307	15.0	3.0	3.0	1.4953850880782935	0.664	n/a	stim	poldrack-single-stim	s497	False	1
210.348	0.914	211.262	-3.8318948158887194	draw_card	0.914	columbia_card_task_fmri	15.0	0.75	89.0	-65.0	0.25	15.0	4.0	3.0	2.429851851118869	0.914	n/a	stim	poldrack-single-stim	s497	False	1
211.266	1.066	212.332	-5.650076634070535	draw_card	1.066	columbia_card_task_fmri	15.0	0.7272727272727273	89.0	-65.0	0.2727272727272727	15.0	5.0	3.0	3.4172317749899577	1.066	n/a	stim	poldrack-single-stim	s497	False	1
212.335	1.277	213.612	-7.8318948158887185	end_round	1.277	columbia_card_task_fmri	15.0	0.7	71.0	-65.0	0.3	15.0	6.0	3.0	4.448357191271377	1.277	5.0	stim	poldrack-single-stim	s497	False	1
214.366	1.5	213.615	n/a	-1.0	2.454	columbia_card_task_fmri	n/a	n/a	-1.0	n/a	n/a	n/a	n/a	n/a	n/a	n/a	n/a	ITI	poldrack-single-stim	s497	False	0
216.073	1.317	217.39	-0.5818948158887187	draw_card	1.317	columbia_card_task_fmri	14.0	0.8125	89.0	-70.0	0.1875	16.0	1.0	3.0	0.5761883364988378	1.317	n/a	stim	poldrack-single-stim	s497	False	1
217.393	0.843	218.236	-1.6318948158887177	draw_card	0.843	columbia_card_task_fmri	14.0	0.8	89.0	-70.0	0.2	16.0	2.0	3.0	1.3894453485404128	0.843	n/a	stim	poldrack-single-stim	s497	False	1
218.238	1.296	219.534	-2.8318948158887185	draw_card	1.296	columbia_card_task_fmri	14.0	0.7857142857142857	89.0	-70.0	0.2142857142857142	16.0	3.0	3.0	2.2563107108817637	1.296	n/a	stim	poldrack-single-stim	s497	False	1
219.537	0.961	220.498	-4.216510200504104	draw_card	0.961	columbia_card_task_fmri	14.0	0.7692307692307692	89.0	-70.0	0.2307692307692307	16.0	4.0	3.0	3.179722246401795	0.961	n/a	stim	poldrack-single-stim	s497	False	1
220.501	0.964	221.465	-5.831894815888719	draw_card	0.964	columbia_card_task_fmri	14.0	0.75	89.0	-70.0	0.25	16.0	5.0	3.0	4.160965590579288	0.964	n/a	stim	poldrack-single-stim	s497	False	1
221.468	0.986	222.454	-7.740985724979627	end_round	0.986	columbia_card_task_fmri	14.0	0.7272727272727273	71.0	-70.0	0.2727272727272727	16.0	6.0	3.0	5.197767735270396	0.986	5.0	stim	poldrack-single-stim	s497	False	1
223.207	1.5	222.456	n/a	-1.0	2.386	columbia_card_task_fmri	n/a	n/a	-1.0	n/a	n/a	n/a	n/a	n/a	n/a	n/a	n/a	ITI	poldrack-single-stim	s497	False	0
224.847	2.472	227.319	-0.6443948158887187	draw_card	2.472	columbia_card_task_fmri	11.0	0.6875	89.0	-30.0	0.3125	16.0	1.0	5.0	-13.190978826109284	2.472	n/a	stim	poldrack-single-stim	s497	False	1
227.322	2.089	229.411	-1.4985614825553848	draw_card	2.089	columbia_card_task_fmri	11.0	0.6666666666666667	89.0	-30.0	0.3333333333333333	16.0	2.0	5.0	-12.868001446579555	2.089	n/a	stim	poldrack-single-stim	s497	False	1
229.415	2.107	231.522	-2.474751958745862	end_round	2.107	columbia_card_task_fmri	11.0	0.6428571428571428	71.0	-30.0	0.3571428571428571	16.0	3.0	5.0	-12.550702030218872	2.107	2.0	stim	poldrack-single-stim	s497	False	1
232.277	1.5	231.526	n/a	-1.0	2.59	columbia_card_task_fmri	n/a	n/a	-1.0	n/a	n/a	n/a	n/a	n/a	n/a	n/a	n/a	ITI	poldrack-single-stim	s497	False	0
234.119	1.546	235.665	4.1681051841112815	draw_card	1.546	columbia_card_task_fmri	15.0	0.8666666666666667	89.0	-75.0	0.1333333333333333	15.0	1.0	2.0	-1.614444624423463	1.546	n/a	stim	poldrack-single-stim	s497	False	1
235.668	2.063	237.731	3.3109623269684256	draw_card	2.063	columbia_card_task_fmri	15.0	0.8571428571428572	89.0	-75.0	0.1428571428571428	15.0	2.0	2.0	-0.7157582630008825	2.063	n/a	stim	poldrack-single-stim	s497	False	1
237.734	1.291	239.025	2.321951337957435	draw_card	1.291	columbia_card_task_fmri	15.0	0.8461538461538461	89.0	-75.0	0.1538461538461538	15.0	3.0	2.0	0.262259057145954	1.291	n/a	stim	poldrack-single-stim	s497	False	1
239.029	1.0	240.029	1.1681051841112813	draw_card	1.0	columbia_card_task_fmri	15.0	0.8333333333333334	89.0	-75.0	0.1666666666666666	15.0	4.0	2.0	1.3305006833674329	1.0	4.0	stim	poldrack-single-stim	s497	False	0
240.783	1.5	240.032	n/a	-1.0	2.318	columbia_card_task_fmri	n/a	n/a	-1.0	n/a	n/a	n/a	n/a	n/a	n/a	n/a	n/a	ITI	poldrack-single-stim	s497	False	0
242.353	1.191	243.544	5.901438517444616	draw_card	1.191	columbia_card_task_fmri	17.0	0.8666666666666667	89.0	-75.0	0.1333333333333333	15.0	1.0	2.0	-0.935059610680586	1.191	n/a	stim	poldrack-single-stim	s497	False	1
243.547	0.868	244.415	5.025248041254141	draw_card	0.868	columbia_card_task_fmri	17.0	0.8571428571428572	89.0	-75.0	0.1428571428571428	15.0	2.0	2.0	-0.0163745054942907	0.868	n/a	stim	poldrack-single-stim	s497	False	1
244.418	0.599	245.017	4.014259030265128	draw_card	0.599	columbia_card_task_fmri	17.0	0.8461538461538461	89.0	-75.0	0.1538461538461538	15.0	3.0	2.0	0.9834051786309814	0.599	3.0	stim	poldrack-single-stim	s497	False	0
245.772	1.5	245.021	n/a	-1.0	2.59	columbia_card_task_fmri	n/a	n/a	-1.0	n/a	n/a	n/a	n/a	n/a	n/a	n/a	n/a	ITI	poldrack-single-stim	s497	False	0
247.614	0.619	248.233	1.4806051841112813	draw_card	0.619	columbia_card_task_fmri	2.0	0.9375	89.0	-25.0	0.0625	16.0	1.0	1.0	-25.59162776223431	0.619	n/a	stim	poldrack-single-stim	s497	False	1
248.236	0.545	248.781	1.3681051841112812	draw_card	0.545	columbia_card_task_fmri	2.0	0.9333333333333332	89.0	-25.0	0.0666666666666666	16.0	2.0	1.0	-25.395323177292383	0.545	n/a	stim	poldrack-single-stim	s497	False	1
248.785	0.745	249.53	1.239533755539853	draw_card	0.745	columbia_card_task_fmri	2.0	0.9285714285714286	89.0	-25.0	0.0714285714285714	16.0	3.0	1.0	-25.179859543908314	0.745	n/a	stim	poldrack-single-stim	s497	False	1
249.533	0.839	250.372	1.0911821071882044	draw_card	0.839	columbia_card_task_fmri	2.0	0.9230769230769232	89.0	-25.0	0.0769230769230769	16.0	4.0	1.0	-24.941972328072524	0.839	n/a	stim	poldrack-single-stim	s497	False	1
250.376	1.029	251.405	0.9181051841112816	draw_card	1.029	columbia_card_task_fmri	2.0	0.9166666666666666	89.0	-25.0	0.0833333333333333	16.0	5.0	1.0	-24.6775776990528	1.029	n/a	stim	poldrack-single-stim	s497	False	1
251.408	0.798	252.206	0.7135597295658265	end_round	0.798	columbia_card_task_fmri	2.0	0.9090909090909092	71.0	-25.0	0.0909090909090909	16.0	6.0	1.0	-24.3814962378323	0.798	5.0	stim	poldrack-single-stim	s497	False	1
252.96	1.5	252.209	n/a	-1.0	2.386	columbia_card_task_fmri	n/a	n/a	-1.0	n/a	n/a	n/a	n/a	n/a	n/a	n/a	n/a	ITI	poldrack-single-stim	s497	False	0
254.6	1.814	256.414	3.6681051841112815	draw_card	1.814	columbia_card_task_fmri	9.0	0.9375	89.0	-95.0	0.0625	16.0	1.0	1.0	-7.029375598516445	1.814	n/a	stim	poldrack-single-stim	s497	False	1
256.417	0.676	257.093	3.234771850777949	draw_card	0.676	columbia_card_task_fmri	9.0	0.9333333333333332	89.0	-95.0	0.0666666666666666	16.0	2.0	1.0	-6.262410255485772	0.676	n/a	stim	poldrack-single-stim	s497	False	1
257.097	0.862	257.959	2.7395337555398536	draw_card	0.862	columbia_card_task_fmri	9.0	0.9285714285714286	89.0	-95.0	0.0714285714285714	16.0	3.0	1.0	-5.421298398990007	0.862	n/a	stim	poldrack-single-stim	s497	False	1
257.962	0.64	258.602	2.168105184111281	draw_card	0.64	columbia_card_task_fmri	9.0	0.9230769230769232	89.0	-95.0	0.0769230769230769	16.0	4.0	1.0	-4.493433102629517	0.64	n/a	stim	poldrack-single-stim	s497	False	1
258.606	0.878	259.484	1.5014385174446152	draw_card	0.878	columbia_card_task_fmri	9.0	0.9166666666666666	89.0	-95.0	0.0833333333333333	16.0	5.0	1.0	-3.4630466095336274	0.878	n/a	stim	poldrack-single-stim	s497	False	1
259.486	0.863	260.349	0.7135597295658263	end_round	0.863	columbia_card_task_fmri	9.0	0.9090909090909092	71.0	-95.0	0.0909090909090909	16.0	6.0	1.0	-2.3101451286900136	0.863	5.0	stim	poldrack-single-stim	s497	False	1
261.104	1.5	260.353	n/a	-1.0	2.318	columbia_card_task_fmri	n/a	n/a	-1.0	n/a	n/a	n/a	n/a	n/a	n/a	n/a	n/a	ITI	poldrack-single-stim	s497	False	0
262.675	1.636	264.311	5.2306051841112815	draw_card	1.636	columbia_card_task_fmri	11.0	0.9375	89.0	-100.0	0.0625	16.0	1.0	1.0	-5.336651830776724	1.636	n/a	stim	poldrack-single-stim	s497	False	1
264.314	0.745	265.059	4.768105184111282	draw_card	0.745	columbia_card_task_fmri	11.0	0.9333333333333332	89.0	-100.0	0.0666666666666666	16.0	2.0	1.0	-4.517959564464015	0.745	n/a	stim	poldrack-single-stim	s497	False	1
265.062	1.234	266.296	4.239533755539855	draw_card	1.234	columbia_card_task_fmri	11.0	0.9285714285714286	89.0	-100.0	0.0714285714285714	16.0	3.0	1.0	-3.620126934219318	1.234	n/a	stim	poldrack-single-stim	s497	False	1
266.3	0.64	266.94	3.629643645649744	draw_card	0.64	columbia_card_task_fmri	11.0	0.9230769230769232	89.0	-100.0	0.0769230769230769	16.0	4.0	1.0	-2.629698167670906	0.64	4.0	stim	poldrack-single-stim	s497	False	0
267.695	1.5	266.944	n/a	-1.0	2.318	columbia_card_task_fmri	n/a	n/a	-1.0	n/a	n/a	n/a	n/a	n/a	n/a	n/a	n/a	ITI	poldrack-single-stim	s497	False	0
269.266	0.566	269.832	5.7931051841112815	draw_card	0.566	columbia_card_task_fmri	16.0	0.875	89.0	-75.0	0.125	16.0	1.0	2.0	-2.112771438441758	0.566	n/a	stim	poldrack-single-stim	s497	False	1
269.835	0.44	270.275	5.034771850777949	draw_card	0.44	columbia_card_task_fmri	16.0	0.8666666666666667	89.0	-75.0	0.1333333333333333	16.0	2.0	2.0	-1.2747547754503508	0.44	n/a	stim	poldrack-single-stim	s497	False	1
270.278	0.43	270.708	4.168105184111283	draw_card	0.43	columbia_card_task_fmri	16.0	0.8571428571428572	89.0	-75.0	0.1428571428571428	16.0	3.0	2.0	-0.3660689665578651	0.43	n/a	stim	poldrack-single-stim	s497	False	1
270.711	0.81	271.521	3.168105184111281	draw_card	0.81	columbia_card_task_fmri	16.0	0.8461538461538461	89.0	-75.0	0.1538461538461538	16.0	4.0	2.0	0.622829613106056	0.81	n/a	stim	poldrack-single-stim	s497	False	1
271.525	0.752	272.277	2.0014385174446154	draw_card	0.752	columbia_card_task_fmri	16.0	0.8333333333333334	89.0	-75.0	0.1666666666666666	16.0	5.0	2.0	1.7029553605841627	0.752	5.0	stim	poldrack-single-stim	s497	False	0
273.032	1.5	272.281	n/a	-1.0	2.318	columbia_card_task_fmri	n/a	n/a	-1.0	n/a	n/a	n/a	n/a	n/a	n/a	n/a	n/a	ITI	poldrack-single-stim	s497	False	0
274.602	0.566	275.168	6.0431051841112815	draw_card	0.566	columbia_card_task_fmri	17.0	0.875	89.0	-80.0	0.125	16.0	1.0	2.0	-0.1298586783757684	0.566	1.0	stim	poldrack-single-stim	s497	False	0
275.923	1.5	275.172	n/a	-1.0	2.386	columbia_card_task_fmri	n/a	n/a	-1.0	n/a	n/a	n/a	n/a	n/a	n/a	n/a	n/a	ITI	poldrack-single-stim	s497	False	0
288.566	1.033	289.599	0.3347718507779491	draw_card	1.033	columbia_card_task_fmri	13.0	0.8333333333333334	89.0	-70.0	0.1666666666666666	6.0	1.0	1.0	-1.2765315361328824	1.033	n/a	stim	poldrack-single-stim	s497	False	1
289.602	0.627	290.229	-2.431894815888718	draw_card	0.627	columbia_card_task_fmri	13.0	0.8	89.0	-70.0	0.2	6.0	2.0	1.0	0.9896897581795088	0.627	n/a	stim	poldrack-single-stim	s497	False	1
290.232	1.056	291.288	-6.581894815888719	end_round	1.056	columbia_card_task_fmri	13.0	0.75	71.0	-70.0	0.25	6.0	3.0	1.0	3.7281786949903406	1.056	2.0	stim	poldrack-single-stim	s497	False	1
292.043	1.5	291.292	n/a	-1.0	2.25	columbia_card_task_fmri	n/a	n/a	-1.0	n/a	n/a	n/a	n/a	n/a	n/a	n/a	n/a	ITI	poldrack-single-stim	s497	False	0
293.547	0.825	294.372	0.3347718507779491	draw_card	0.825	columbia_card_task_fmri	15.0	0.8333333333333334	89.0	-80.0	0.1666666666666666	6.0	1.0	1.0	3.1928210443689764	0.825	n/a	stim	poldrack-single-stim	s497	False	1
294.374	0.355	294.729	-2.8318948158887185	draw_card	0.355	columbia_card_task_fmri	15.0	0.8	89.0	-80.0	0.2	6.0	2.0	1.0	5.787096180748591	0.355	n/a	stim	poldrack-single-stim	s497	False	1
294.733	1.326	296.059	-7.5818948158887185	draw_card	1.326	columbia_card_task_fmri	15.0	0.75	89.0	-80.0	0.25	6.0	3.0	1.0	8.921934986975856	1.326	n/a	stim	poldrack-single-stim	s497	False	1
296.063	0.754	296.817	-15.498561482555385	end_round	0.754	columbia_card_task_fmri	15.0	0.6666666666666667	71.0	-80.0	0.3333333333333333	6.0	4.0	1.0	12.567807847347453	0.754	3.0	stim	poldrack-single-stim	s497	False	1
297.572	1.5	296.821	n/a	-1.0	2.386	columbia_card_task_fmri	n/a	n/a	-1.0	n/a	n/a	n/a	n/a	n/a	n/a	n/a	n/a	ITI	poldrack-single-stim	s497	False	0
299.211	0.67	299.881	2.0014385174446154	draw_card	0.67	columbia_card_task_fmri	16.0	0.8333333333333334	89.0	-75.0	0.1666666666666666	6.0	1.0	1.0	1.7029553605841627	0.67	n/a	stim	poldrack-single-stim	s497	False	1
299.884	0.569	300.453	-1.031894815888718	draw_card	0.569	columbia_card_task_fmri	16.0	0.8	89.0	-75.0	0.2	6.0	2.0	1.0	4.187884763995683	0.569	n/a	stim	poldrack-single-stim	s497	False	1
300.456	0.601	301.057	-5.581894815888719	draw_card	0.601	columbia_card_task_fmri	16.0	0.75	89.0	-75.0	0.25	6.0	3.0	1.0	7.190612720439432	0.601	n/a	stim	poldrack-single-stim	s497	False	1
301.061	1.444	302.505	-13.16522814922205	end_round	1.444	columbia_card_task_fmri	16.0	0.6666666666666667	71.0	-75.0	0.3333333333333333	6.0	4.0	1.0	10.682859037864668	1.444	3.0	stim	poldrack-single-stim	s497	False	1
303.26	1.5	302.509	n/a	-1.0	2.59	columbia_card_task_fmri	n/a	n/a	-1.0	n/a	n/a	n/a	n/a	n/a	n/a	n/a	n/a	ITI	poldrack-single-stim	s497	False	0
305.104	0.707	305.811	3.168105184111281	draw_card	0.707	columbia_card_task_fmri	21.0	0.75	89.0	-55.0	0.25	8.0	1.0	2.0	0.6988366618096293	0.707	n/a	stim	poldrack-single-stim	s497	False	1
305.814	1.764	307.578	0.4538194698255677	end_round	1.764	columbia_card_task_fmri	21.0	0.7142857142857143	71.0	-55.0	0.2857142857142857	8.0	2.0	2.0	2.122312371764828	1.764	1.0	stim	poldrack-single-stim	s497	False	1
308.334	1.5	307.583	n/a	-1.0	2.658	columbia_card_task_fmri	n/a	n/a	-1.0	n/a	n/a	n/a	n/a	n/a	n/a	n/a	n/a	ITI	poldrack-single-stim	s497	False	0
310.246	0.74	310.986	4.4181051841112815	draw_card	0.74	columbia_card_task_fmri	26.0	0.75	89.0	-65.0	0.25	8.0	1.0	2.0	7.190612720439432	0.74	1.0	stim	poldrack-single-stim	s497	False	0
311.74	1.5	310.989	n/a	-1.0	2.386	columbia_card_task_fmri	n/a	n/a	-1.0	n/a	n/a	n/a	n/a	n/a	n/a	n/a	n/a	ITI	poldrack-single-stim	s497	False	0
313.38	0.619	313.999	-0.4985614825553848	draw_card	0.619	columbia_card_task_fmri	15.0	0.7777777777777778	89.0	-60.0	0.2222222222222222	9.0	1.0	2.0	-1.0285023851651791	0.619	1.0	stim	poldrack-single-stim	s497	False	0
314.754	1.5	314.003	n/a	-1.0	2.386	columbia_card_task_fmri	n/a	n/a	-1.0	n/a	n/a	n/a	n/a	n/a	n/a	n/a	n/a	ITI	poldrack-single-stim	s497	False	0
316.393	0.731	317.124	3.8681051841112826	draw_card	0.731	columbia_card_task_fmri	13.0	0.9	89.0	-90.0	0.1	10.0	1.0	1.0	-1.3087822132433011	0.731	n/a	stim	poldrack-single-stim	s497	False	1
317.128	0.827	317.955	2.723660739666837	draw_card	0.827	columbia_card_task_fmri	13.0	0.8888888888888888	89.0	-90.0	0.1111111111111111	10.0	2.0	1.0	0.1599933998388323	0.827	n/a	stim	poldrack-single-stim	s497	False	1
317.959	0.558	318.517	1.2931051841112813	draw_card	0.558	columbia_card_task_fmri	13.0	0.875	89.0	-90.0	0.125	10.0	3.0	1.0	1.853217119708198	0.558	n/a	stim	poldrack-single-stim	s497	False	1
318.521	0.495	319.016	-0.5461805301744305	draw_card	0.495	columbia_card_task_fmri	13.0	0.8571428571428572	89.0	-90.0	0.1428571428571428	10.0	4.0	1.0	3.830562458973517	0.495	n/a	stim	poldrack-single-stim	s497	False	1
319.02	1.006	320.026	-2.998561482555385	draw_card	1.006	columbia_card_task_fmri	13.0	0.8333333333333334	89.0	-90.0	0.1666666666666666	10.0	5.0	1.0	6.172749461652991	1.006	n/a	stim	poldrack-single-stim	s497	False	1
320.03	1.069	321.099	-6.431894815888718	end_round	1.069	columbia_card_task_fmri	13.0	0.8	71.0	-90.0	0.2	10.0	6.0	1.0	8.985702643145736	1.069	5.0	stim	poldrack-single-stim	s497	False	1
321.853	1.5	321.102	n/a	-1.0	2.25	columbia_card_task_fmri	n/a	n/a	-1.0	n/a	n/a	n/a	n/a	n/a	n/a	n/a	n/a	ITI	poldrack-single-stim	s497	False	0
323.357	1.272	324.629	5.1681051841112815	draw_card	1.272	columbia_card_task_fmri	15.0	0.9	89.0	-95.0	0.1	10.0	1.0	1.0	0.7898141828358689	1.272	1.0	stim	poldrack-single-stim	s497	False	0
325.384	1.5	324.633	n/a	-1.0	2.318	columbia_card_task_fmri	n/a	n/a	-1.0	n/a	n/a	n/a	n/a	n/a	n/a	n/a	n/a	ITI	poldrack-single-stim	s497	False	0
326.955	0.495	327.45	0.968105184111282	end_round	0.495	columbia_card_task_fmri	16.0	0.8	71.0	-65.0	0.2	10.0	1.0	2.0	0.190196664598389	0.495	0.0	stim	poldrack-single-stim	s497	False	1
328.205	1.5	327.454	n/a	-1.0	2.25	columbia_card_task_fmri	n/a	n/a	-1.0	n/a	n/a	n/a	n/a	n/a	n/a	n/a	n/a	ITI	poldrack-single-stim	s497	False	0
329.708	0.585	330.293	-0.3318948158887187	draw_card	0.585	columbia_card_task_fmri	7.0	0.9166666666666666	89.0	-95.0	0.0833333333333333	12.0	1.0	1.0	-4.015352606782315	0.585	1.0	stim	poldrack-single-stim	s497	False	0
331.048	1.5	330.297	n/a	-1.0	2.25	columbia_card_task_fmri	n/a	n/a	-1.0	n/a	n/a	n/a	n/a	n/a	n/a	n/a	n/a	ITI	poldrack-single-stim	s497	False	0
332.551	2.112	334.663	0.3347718507779491	draw_card	2.112	columbia_card_task_fmri	14.0	0.8333333333333334	89.0	-75.0	0.1666666666666666	12.0	1.0	2.0	0.9580510199444774	2.112	n/a	stim	poldrack-single-stim	s497	False	1
334.667	0.592	335.259	-1.0137129977069022	draw_card	0.592	columbia_card_task_fmri	14.0	0.8181818181818181	89.0	-75.0	0.1818181818181818	12.0	2.0	2.0	2.1158359142142587	0.592	n/a	stim	poldrack-single-stim	s497	False	1
335.264	0.535	335.799	-2.631894815888717	draw_card	0.535	columbia_card_task_fmri	14.0	0.8	89.0	-75.0	0.2	12.0	3.0	2.0	3.3883056162423277	0.535	n/a	stim	poldrack-single-stim	s497	False	1
335.803	0.503	336.306	-4.6096725936664935	draw_card	0.503	columbia_card_task_fmri	14.0	0.7777777777777778	89.0	-75.0	0.2222222222222222	12.0	4.0	2.0	4.788414801548562	0.503	n/a	stim	poldrack-single-stim	s497	False	1
336.31	0.532	336.842	-7.081894815888719	draw_card	0.532	columbia_card_task_fmri	14.0	0.75	89.0	-75.0	0.25	12.0	5.0	2.0	6.324976128306567	0.532	n/a	stim	poldrack-single-stim	s497	False	1
336.845	0.814	337.659	-10.260466244460146	draw_card	0.814	columbia_card_task_fmri	14.0	0.7142857142857143	89.0	-75.0	0.2857142857142857	12.0	6.0	2.0	7.992213412020511	0.814	n/a	stim	poldrack-single-stim	s497	False	1
337.664	0.994	338.658	-14.498561482555385	end_round	0.994	columbia_card_task_fmri	14.0	0.6666666666666667	71.0	-75.0	0.3333333333333333	12.0	7.0	2.0	9.74040718017551	0.994	6.0	stim	poldrack-single-stim	s497	False	1
339.412	1.5	338.661	n/a	-1.0	2.386	columbia_card_task_fmri	n/a	n/a	-1.0	n/a	n/a	n/a	n/a	n/a	n/a	n/a	n/a	ITI	poldrack-single-stim	s497	False	0
341.052	2.407	343.459	2.0014385174446154	draw_card	2.407	columbia_card_task_fmri	15.0	0.8333333333333334	89.0	-70.0	0.1666666666666666	12.0	1.0	2.0	-0.5316939612672336	2.407	1.0	stim	poldrack-single-stim	s497	False	0
344.214	1.5	343.463	n/a	-1.0	2.386	columbia_card_task_fmri	n/a	n/a	-1.0	n/a	n/a	n/a	n/a	n/a	n/a	n/a	n/a	ITI	poldrack-single-stim	s497	False	0
345.854	1.782	347.636	-0.031894815888718	draw_card	1.782	columbia_card_task_fmri	16.0	0.8	89.0	-70.0	0.2	15.0	1.0	3.0	2.188973566072896	1.782	n/a	stim	poldrack-single-stim	s497	False	1
347.64	0.779	348.419	-1.2604662444601475	draw_card	0.779	columbia_card_task_fmri	16.0	0.7857142857142857	89.0	-70.0	0.2142857142857142	15.0	2.0	3.0	3.076502587308994	0.779	n/a	stim	poldrack-single-stim	s497	False	1
348.424	0.411	348.835	-2.678048662042565	draw_card	0.411	columbia_card_task_fmri	16.0	0.7692307692307692	89.0	-70.0	0.2307692307692307	15.0	3.0	3.0	4.021924392215588	0.411	n/a	stim	poldrack-single-stim	s497	False	1
348.84	0.408	349.248	-4.331894815888719	draw_card	0.408	columbia_card_task_fmri	16.0	0.75	89.0	-70.0	0.25	15.0	4.0	3.0	5.0265551238383	0.408	n/a	stim	poldrack-single-stim	s497	False	1
349.251	0.743	349.994	-6.286440270434172	draw_card	0.743	columbia_card_task_fmri	16.0	0.7272727272727273	89.0	-70.0	0.2727272727272727	15.0	5.0	3.0	6.088067475972203	0.743	n/a	stim	poldrack-single-stim	s497	False	1
349.998	0.643	350.641	-8.63189481588872	draw_card	0.643	columbia_card_task_fmri	16.0	0.7	89.0	-70.0	0.3	15.0	6.0	3.0	7.19660519281576	0.643	n/a	stim	poldrack-single-stim	s497	False	1
350.644	2.172	352.816	-11.498561482555385	draw_card	2.172	columbia_card_task_fmri	16.0	0.6666666666666667	89.0	-70.0	0.3333333333333333	15.0	7.0	3.0	8.326760524591592	2.172	7.0	stim	poldrack-single-stim	s497	False	0
353.57	1.5	352.819	n/a	-1.0	2.726	columbia_card_task_fmri	n/a	n/a	-1.0	n/a	n/a	n/a	n/a	n/a	n/a	n/a	n/a	ITI	poldrack-single-stim	s497	False	0
355.55	0.954	356.504	0.3556051841112813	draw_card	0.954	columbia_card_task_fmri	14.0	0.8125	89.0	-65.0	0.1875	16.0	1.0	3.0	-1.374057873026146	0.954	1.0	stim	poldrack-single-stim	s497	False	0
357.26	1.5	356.509	n/a	-1.0	2.454	columbia_card_task_fmri	n/a	n/a	-1.0	n/a	n/a	n/a	n/a	n/a	n/a	n/a	n/a	ITI	poldrack-single-stim	s497	False	0
358.967	1.609	360.576	0.1056051841112812	draw_card	1.609	columbia_card_task_fmri	16.0	0.8125	89.0	-75.0	0.1875	16.0	1.0	3.0	3.30677570958148	1.609	n/a	stim	poldrack-single-stim	s497	False	1
360.58	0.735	361.315	-1.031894815888718	draw_card	0.735	columbia_card_task_fmri	16.0	0.8	89.0	-75.0	0.2	16.0	2.0	3.0	4.187884763995683	0.735	2.0	stim	poldrack-single-stim	s497	False	0
362.069	1.5	361.318	n/a	-1.0	2.318	columbia_card_task_fmri	n/a	n/a	-1.0	n/a	n/a	n/a	n/a	n/a	n/a	n/a	n/a	ITI	poldrack-single-stim	s497	False	0
363.642	0.663	364.305	4.368105184111283	end_round	0.663	columbia_card_task_fmri	16.0	0.8666666666666667	71.0	-80.0	0.1333333333333333	15.0	1.0	2.0	0.4237708884185807	0.663	0.0	stim	poldrack-single-stim	s497	False	1
365.06	1.5	364.309	n/a	-1.0	2.318	columbia_card_task_fmri	n/a	n/a	-1.0	n/a	n/a	n/a	n/a	n/a	n/a	n/a	n/a	ITI	poldrack-single-stim	s497	False	0
366.632	0.646	367.278	5.23477185077795	draw_card	0.646	columbia_card_task_fmri	17.0	0.8666666666666667	89.0	-80.0	0.1333333333333333	15.0	1.0	2.0	0.7634902034739781	0.646	1.0	stim	poldrack-single-stim	s497	False	0
368.034	1.5	367.283	n/a	-1.0	2.59	columbia_card_task_fmri	n/a	n/a	-1.0	n/a	n/a	n/a	n/a	n/a	n/a	n/a	n/a	ITI	poldrack-single-stim	s497	False	0
369.879	0.945	370.824	1.1681051841112813	draw_card	0.945	columbia_card_task_fmri	1.0	0.9375	89.0	-15.0	0.0625	16.0	1.0	1.0	-28.185550949820065	0.945	1.0	stim	poldrack-single-stim	s497	False	0
371.579	1.5	370.828	n/a	-1.0	2.726	columbia_card_task_fmri	n/a	n/a	-1.0	n/a	n/a	n/a	n/a	n/a	n/a	n/a	n/a	ITI	poldrack-single-stim	s497	False	0
373.56	0.593	374.153	4.2931051841112815	end_round	0.593	columbia_card_task_fmri	10.0	0.9375	71.0	-100.0	0.0625	16.0	1.0	1.0	-5.578482789396606	0.593	0.0	stim	poldrack-single-stim	s497	False	1
374.908	1.5	374.157	n/a	-1.0	2.522	columbia_card_task_fmri	n/a	n/a	-1.0	n/a	n/a	n/a	n/a	n/a	n/a	n/a	n/a	ITI	poldrack-single-stim	s497	False	0
376.685	0.859	377.544	4.9181051841112815	draw_card	0.859	columbia_card_task_fmri	15.0	0.875	89.0	-75.0	0.125	16.0	1.0	2.0	-2.443238761294051	0.859	n/a	stim	poldrack-single-stim	s497	False	1
377.549	0.768	378.317	4.1681051841112815	draw_card	0.768	columbia_card_task_fmri	15.0	0.8666666666666667	89.0	-75.0	0.1333333333333333	16.0	2.0	2.0	-1.614444624423463	0.768	2.0	stim	poldrack-single-stim	s497	False	0
379.072	1.5	378.321	n/a	-1.0	3.134	columbia_card_task_fmri	n/a	n/a	-1.0	n/a	n/a	n/a	n/a	n/a	n/a	n/a	n/a	ITI	poldrack-single-stim	s497	False	0
381.46	0.48	381.94	5.1681051841112815	draw_card	0.48	columbia_card_task_fmri	16.0	0.875	89.0	-80.0	0.125	16.0	1.0	2.0	-0.4603562849305085	0.48	n/a	stim	poldrack-single-stim	s497	False	1
381.945	0.75	382.695	4.368105184111283	draw_card	0.75	columbia_card_task_fmri	16.0	0.8666666666666667	89.0	-80.0	0.1333333333333333	16.0	2.0	2.0	0.4237708884185807	0.75	n/a	stim	poldrack-single-stim	s497	False	1
382.699	0.425	383.124	3.4538194698255698	draw_card	0.425	columbia_card_task_fmri	16.0	0.8571428571428572	89.0	-80.0	0.1428571428571428	16.0	3.0	2.0	1.382451761136494	0.425	3.0	stim	poldrack-single-stim	s497	False	0
383.879	1.5	383.128	n/a	-1.0	2.386	columbia_card_task_fmri	n/a	n/a	-1.0	n/a	n/a	n/a	n/a	n/a	n/a	n/a	n/a	ITI	poldrack-single-stim	s497	False	0
385.52	0.824	386.344	2.355605184111281	draw_card	0.824	columbia_card_task_fmri	4.0	0.6875	89.0	-5.0	0.3125	16.0	1.0	5.0	-27.898785092731544	0.824	n/a	stim	poldrack-single-stim	s497	False	1
386.349	2.455	388.804	2.168105184111281	draw_card	2.455	columbia_card_task_fmri	4.0	0.6666666666666667	89.0	-5.0	0.3333333333333333	16.0	2.0	5.0	-27.830345235488814	2.455	2.0	stim	poldrack-single-stim	s497	False	0
389.559	1.5	388.808	n/a	-1.0	2.386	columbia_card_task_fmri	n/a	n/a	-1.0	n/a	n/a	n/a	n/a	n/a	n/a	n/a	n/a	ITI	poldrack-single-stim	s497	False	0
391.199	0.788	391.987	-0.498561482555383	draw_card	0.788	columbia_card_task_fmri	14.0	0.8333333333333334	89.0	-80.0	0.1666666666666666	6.0	1.0	1.0	2.8203478766864194	0.788	1.0	stim	poldrack-single-stim	s497	False	0
392.742	1.5	391.991	n/a	-1.0	2.318	columbia_card_task_fmri	n/a	n/a	-1.0	n/a	n/a	n/a	n/a	n/a	n/a	n/a	n/a	ITI	poldrack-single-stim	s497	False	0
394.313	0.554	394.867	1.1681051841112813	end_round	0.554	columbia_card_task_fmri	15.0	0.8333333333333334	71.0	-75.0	0.1666666666666666	6.0	1.0	1.0	1.3305006833674329	0.554	0.0	stim	poldrack-single-stim	s497	False	1
395.622	1.5	394.871	n/a	-1.0	2.318	columbia_card_task_fmri	n/a	n/a	-1.0	n/a	n/a	n/a	n/a	n/a	n/a	n/a	n/a	ITI	poldrack-single-stim	s497	False	0
397.193	0.51	397.703	2.8347718507779494	end_round	0.51	columbia_card_task_fmri	16.0	0.8333333333333334	71.0	-70.0	0.1666666666666666	6.0	1.0	1.0	-0.1592661408069844	0.51	0.0	stim	poldrack-single-stim	s497	False	1
398.459	1.5	397.708	n/a	-1.0	2.862	columbia_card_task_fmri	n/a	n/a	-1.0	n/a	n/a	n/a	n/a	n/a	n/a	n/a	n/a	ITI	poldrack-single-stim	s497	False	0
400.576	0.653	401.229	3.418105184111281	draw_card	0.653	columbia_card_task_fmri	23.0	0.75	89.0	-60.0	0.25	8.0	1.0	2.0	3.7281786949903406	0.653	n/a	stim	poldrack-single-stim	s497	False	1
401.233	0.849	402.082	0.4538194698255695	draw_card	0.849	columbia_card_task_fmri	23.0	0.7142857142857143	89.0	-60.0	0.2857142857142857	8.0	2.0	2.0	5.2829155042043325	0.849	n/a	stim	poldrack-single-stim	s497	False	1
402.086	0.713	402.799	-3.498561482555383	draw_card	0.713	columbia_card_task_fmri	23.0	0.6666666666666667	89.0	-60.0	0.3333333333333333	8.0	3.0	2.0	6.913154823781568	0.713	n/a	stim	poldrack-single-stim	s497	False	1
402.804	0.664	403.468	-9.03189481588872	end_round	0.664	columbia_card_task_fmri	23.0	0.6	71.0	-60.0	0.4	8.0	4.0	2.0	8.447451527394364	0.664	3.0	stim	poldrack-single-stim	s497	False	1
404.222	1.5	403.471	n/a	-1.0	2.726	columbia_card_task_fmri	n/a	n/a	-1.0	n/a	n/a	n/a	n/a	n/a	n/a	n/a	n/a	ITI	poldrack-single-stim	s497	False	0
406.203	2.211	408.414	3.9181051841112815	end_round	2.211	columbia_card_task_fmri	27.0	0.75	71.0	-70.0	0.25	8.0	1.0	2.0	9.787618639001586	2.211	0.0	stim	poldrack-single-stim	s497	False	1
409.17	1.5	408.419	n/a	-1.0	2.25	columbia_card_task_fmri	n/a	n/a	-1.0	n/a	n/a	n/a	n/a	n/a	n/a	n/a	n/a	ITI	poldrack-single-stim	s497	False	0
410.675	1.047	411.722	-0.8318948158887169	draw_card	1.047	columbia_card_task_fmri	16.0	0.7777777777777778	89.0	-65.0	0.2222222222222222	9.0	1.0	2.0	1.4643166987201326	1.047	n/a	stim	poldrack-single-stim	s497	False	1
411.726	0.813	412.539	-3.0818948158887185	draw_card	0.813	columbia_card_task_fmri	16.0	0.75	89.0	-65.0	0.25	9.0	2.0	2.0	2.862621616582089	0.813	2.0	stim	poldrack-single-stim	s497	False	0
413.295	1.5	412.544	n/a	-1.0	2.318	columbia_card_task_fmri	n/a	n/a	-1.0	n/a	n/a	n/a	n/a	n/a	n/a	n/a	n/a	ITI	poldrack-single-stim	s497	False	0
414.866	0.55	415.416	4.368105184111283	draw_card	0.55	columbia_card_task_fmri	13.0	0.9	89.0	-85.0	0.1	10.0	1.0	1.0	-2.8076570123442472	0.55	n/a	stim	poldrack-single-stim	s497	False	1
415.42	0.708	416.128	3.279216295222392	draw_card	0.708	columbia_card_task_fmri	13.0	0.8888888888888888	89.0	-85.0	0.1111111111111111	10.0	2.0	1.0	-1.4102807852612145	0.708	n/a	stim	poldrack-single-stim	s497	False	1
416.132	0.682	416.814	1.9181051841112813	draw_card	0.682	columbia_card_task_fmri	13.0	0.875	89.0	-85.0	0.125	10.0	3.0	1.0	0.2006434402147121	0.682	n/a	stim	poldrack-single-stim	s497	False	1
416.819	0.898	417.717	0.168105184111283	draw_card	0.898	columbia_card_task_fmri	13.0	0.8571428571428572	89.0	-85.0	0.1428571428571428	10.0	4.0	1.0	2.0818918751360016	0.898	n/a	stim	poldrack-single-stim	s497	False	1
417.722	0.714	418.436	-2.16522814922205	end_round	0.714	columbia_card_task_fmri	13.0	0.8333333333333334	71.0	-85.0	0.1666666666666666	10.0	5.0	1.0	4.310265608767189	0.714	4.0	stim	poldrack-single-stim	s497	False	1
419.192	1.5	418.441	n/a	-1.0	2.454	columbia_card_task_fmri	n/a	n/a	-1.0	n/a	n/a	n/a	n/a	n/a	n/a	n/a	n/a	ITI	poldrack-single-stim	s497	False	0
420.9	1.257	422.157	-0.6318948158887177	end_round	1.257	columbia_card_task_fmri	14.0	0.8	71.0	-65.0	0.2	10.0	1.0	2.0	-0.6092707884680877	1.257	0.0	stim	poldrack-single-stim	s497	False	1
422.912	1.5	422.161	n/a	-1.0	2.522	columbia_card_task_fmri	n/a	n/a	-1.0	n/a	n/a	n/a	n/a	n/a	n/a	n/a	n/a	ITI	poldrack-single-stim	s497	False	0
424.688	1.764	426.452	0.7681051841112827	draw_card	1.764	columbia_card_task_fmri	17.0	0.8	89.0	-70.0	0.2	10.0	1.0	2.0	2.58874580204494	1.764	1.0	stim	poldrack-single-stim	s497	False	0
427.208	1.5	426.457	n/a	-1.0	2.318	columbia_card_task_fmri	n/a	n/a	-1.0	n/a	n/a	n/a	n/a	n/a	n/a	n/a	n/a	ITI	poldrack-single-stim	s497	False	0
428.781	0.725	429.506	-0.4985614825553848	end_round	0.725	columbia_card_task_fmri	13.0	0.8333333333333334	71.0	-75.0	0.1666666666666666	12.0	1.0	2.0	0.5856065410271043	0.725	0.0	stim	poldrack-single-stim	s497	False	1
430.262	1.5	429.511	n/a	-1.0	2.522	columbia_card_task_fmri	n/a	n/a	-1.0	n/a	n/a	n/a	n/a	n/a	n/a	n/a	n/a	ITI	poldrack-single-stim	s497	False	0
432.038	0.571	432.609	1.168105184111283	draw_card	0.571	columbia_card_task_fmri	14.0	0.8333333333333334	89.0	-70.0	0.1666666666666666	12.0	1.0	2.0	-0.9041158313007857	0.571	n/a	stim	poldrack-single-stim	s497	False	1
432.614	1.034	433.648	-0.1046220886159938	draw_card	1.034	columbia_card_task_fmri	14.0	0.8181818181818181	89.0	-70.0	0.1818181818181818	12.0	2.0	2.0	0.1885448031172742	1.034	n/a	stim	poldrack-single-stim	s497	False	1
433.652	0.827	434.479	-1.6318948158887177	draw_card	0.827	columbia_card_task_fmri	14.0	0.8	89.0	-70.0	0.2	12.0	3.0	2.0	1.3894453485404128	0.827	3.0	stim	poldrack-single-stim	s497	False	0
435.235	1.5	434.484	n/a	-1.0	2.998	columbia_card_task_fmri	n/a	n/a	-1.0	n/a	n/a	n/a	n/a	n/a	n/a	n/a	n/a	ITI	poldrack-single-stim	s497	False	0
437.488	2.919	440.407	1.168105184111283	draw_card	2.919	columbia_card_task_fmri	16.0	0.8333333333333334	89.0	-80.0	0.1666666666666666	12.0	1.0	2.0	3.565298475868936	2.919	n/a	stim	poldrack-single-stim	s497	False	1
440.412	1.304	441.716	-0.2864402704341755	draw_card	1.304	columbia_card_task_fmri	16.0	0.8181818181818181	89.0	-80.0	0.1818181818181818	12.0	2.0	2.0	4.814250141611197	1.304	2.0	stim	poldrack-single-stim	s497	False	0
442.471	1.5	441.72	n/a	-1.0	2.318	columbia_card_task_fmri	n/a	n/a	-1.0	n/a	n/a	n/a	n/a	n/a	n/a	n/a	n/a	ITI	poldrack-single-stim	s497	False	0
444.044	1.168	445.212	0.968105184111282	draw_card	1.168	columbia_card_task_fmri	16.0	0.8	89.0	-65.0	0.2	15.0	1.0	3.0	0.190196664598389	1.168	1.0	stim	poldrack-single-stim	s497	False	0
445.968	1.5	445.217	n/a	-1.0	2.25	columbia_card_task_fmri	n/a	n/a	-1.0	n/a	n/a	n/a	n/a	n/a	n/a	n/a	n/a	ITI	poldrack-single-stim	s497	False	0
447.472	0.458	447.93	-0.7068948158887187	draw_card	0.458	columbia_card_task_fmri	15.0	0.8125	89.0	-75.0	0.1875	16.0	1.0	3.0	2.916676581049387	0.458	n/a	stim	poldrack-single-stim	s497	False	1
447.936	0.547	448.483	-1.8318948158887187	draw_card	0.547	columbia_card_task_fmri	15.0	0.8	89.0	-75.0	0.2	16.0	2.0	3.0	3.7880928538955416	0.547	n/a	stim	poldrack-single-stim	s497	False	1
448.488	0.462	448.95	-3.117609101603003	draw_card	0.462	columbia_card_task_fmri	15.0	0.7857142857142857	89.0	-75.0	0.2142857142857142	16.0	3.0	3.0	4.716947616413329	0.462	n/a	stim	poldrack-single-stim	s497	False	1
448.955	0.453	449.408	-4.601125585119492	draw_card	0.453	columbia_card_task_fmri	15.0	0.7692307692307692	89.0	-75.0	0.2307692307692307	16.0	4.0	3.0	5.706388365392101	0.453	n/a	stim	poldrack-single-stim	s497	False	1
449.413	0.528	449.941	-6.331894815888719	draw_card	0.528	columbia_card_task_fmri	15.0	0.75	89.0	-75.0	0.25	16.0	5.0	3.0	6.757792265762667	0.528	n/a	stim	poldrack-single-stim	s497	False	1
449.945	0.655	450.6	-8.377349361343262	end_round	0.655	columbia_card_task_fmri	15.0	0.7272727272727273	71.0	-75.0	0.2727272727272727	16.0	6.0	3.0	7.868723426948918	0.655	5.0	stim	poldrack-single-stim	s497	False	1
451.356	1.5	450.605	n/a	-1.0	2.454	columbia_card_task_fmri	n/a	n/a	-1.0	n/a	n/a	n/a	n/a	n/a	n/a	n/a	n/a	ITI	poldrack-single-stim	s497	False	0
453.064	0.667	453.731	-0.1443948158887187	draw_card	0.667	columbia_card_task_fmri	14.0	0.6875	89.0	-35.0	0.3125	16.0	1.0	5.0	-9.488726722930764	0.667	n/a	stim	poldrack-single-stim	s497	False	1
453.736	0.694	454.43	-1.1652281492220509	draw_card	0.694	columbia_card_task_fmri	14.0	0.6666666666666667	89.0	-35.0	0.3333333333333333	16.0	2.0	5.0	-9.102514985606271	0.694	2.0	stim	poldrack-single-stim	s497	False	0
455.185	1.5	454.434	n/a	-1.0	2.318	columbia_card_task_fmri	n/a	n/a	-1.0	n/a	n/a	n/a	n/a	n/a	n/a	n/a	n/a	ITI	poldrack-single-stim	s497	False	0
456.757	0.905	457.662	5.034771850777949	draw_card	0.905	columbia_card_task_fmri	16.0	0.8666666666666667	89.0	-75.0	0.1333333333333333	15.0	1.0	2.0	-1.2747547754503508	0.905	n/a	stim	poldrack-single-stim	s497	False	1
457.666	1.383	459.049	4.168105184111283	draw_card	1.383	columbia_card_task_fmri	16.0	0.8571428571428572	89.0	-75.0	0.1428571428571428	15.0	2.0	2.0	-0.3660689665578651	1.383	n/a	stim	poldrack-single-stim	s497	False	1
459.055	0.874	459.929	3.168105184111281	end_round	0.874	columbia_card_task_fmri	16.0	0.8461538461538461	71.0	-75.0	0.1538461538461538	15.0	3.0	2.0	0.622829613106056	0.874	2.0	stim	poldrack-single-stim	s497	False	1
460.684	1.5	459.933	n/a	-1.0	2.318	columbia_card_task_fmri	n/a	n/a	-1.0	n/a	n/a	n/a	n/a	n/a	n/a	n/a	n/a	ITI	poldrack-single-stim	s497	False	0
462.258	1.071	463.329	5.701438517444615	draw_card	1.071	columbia_card_task_fmri	16.0	0.8666666666666667	89.0	-70.0	0.1333333333333333	15.0	1.0	2.0	-2.9731471593227816	1.071	n/a	stim	poldrack-single-stim	s497	False	1
463.333	0.88	464.213	4.882390898396997	draw_card	0.88	columbia_card_task_fmri	16.0	0.8571428571428572	89.0	-70.0	0.1428571428571428	15.0	2.0	2.0	-2.1144602045416647	0.88	n/a	stim	poldrack-single-stim	s497	False	1
464.218	0.875	465.093	3.9373359533420498	draw_card	0.875	columbia_card_task_fmri	16.0	0.8461538461538461	89.0	-70.0	0.1538461538461538	15.0	3.0	2.0	-1.1799695807438937	0.875	3.0	stim	poldrack-single-stim	s497	False	0
465.848	1.5	465.097	n/a	-1.0	2.59	columbia_card_task_fmri	n/a	n/a	-1.0	n/a	n/a	n/a	n/a	n/a	n/a	n/a	n/a	ITI	poldrack-single-stim	s497	False	0
467.694	1.311	469.005	3.043105184111281	draw_card	1.311	columbia_card_task_fmri	8.0	0.9375	89.0	-90.0	0.0625	16.0	1.0	1.0	-8.480087989334201	1.311	n/a	stim	poldrack-single-stim	s497	False	1
469.01	0.899	469.909	2.6347718507779483	draw_card	0.899	columbia_card_task_fmri	8.0	0.9333333333333332	89.0	-90.0	0.0666666666666666	16.0	2.0	1.0	-7.757465706296571	0.899	n/a	stim	poldrack-single-stim	s497	False	1
469.914	0.878	470.792	2.1681051841112824	draw_card	0.878	columbia_card_task_fmri	8.0	0.9285714285714286	89.0	-90.0	0.0714285714285714	16.0	3.0	1.0	-6.964977531279999	0.878	n/a	stim	poldrack-single-stim	s497	False	1
470.798	0.996	471.794	1.629643645649743	draw_card	0.996	columbia_card_task_fmri	8.0	0.9230769230769232	89.0	-90.0	0.0769230769230769	16.0	4.0	1.0	-6.090744136844446	0.996	n/a	stim	poldrack-single-stim	s497	False	1
471.799	1.045	472.844	1.0014385174446143	draw_card	1.045	columbia_card_task_fmri	8.0	0.9166666666666666	89.0	-90.0	0.0833333333333333	16.0	5.0	1.0	-5.119907763553428	1.045	n/a	stim	poldrack-single-stim	s497	False	1
472.848	1.581	474.429	0.2590142750203721	draw_card	1.581	columbia_card_task_fmri	8.0	0.9090909090909092	89.0	-90.0	0.0909090909090909	16.0	6.0	1.0	-4.033628478624731	1.581	n/a	stim	poldrack-single-stim	s497	False	1
474.434	2.584	477.018	-0.6318948158887185	draw_card	2.584	columbia_card_task_fmri	8.0	0.9	89.0	-90.0	0.1	16.0	7.0	1.0	-2.8076570123442472	2.584	n/a	stim	poldrack-single-stim	s497	False	1
477.023	1.314	478.337	-1.720783704777608	end_round	1.314	columbia_card_task_fmri	8.0	0.8888888888888888	71.0	-90.0	0.1111111111111111	16.0	8.0	1.0	-1.4102807852612145	1.314	7.0	stim	poldrack-single-stim	s497	False	1
479.094	1.5	478.343	n/a	-1.0	2.25	columbia_card_task_fmri	n/a	n/a	-1.0	n/a	n/a	n/a	n/a	n/a	n/a	n/a	n/a	ITI	poldrack-single-stim	s497	False	0
480.598	2.244	482.842	4.6056051841112815	draw_card	2.244	columbia_card_task_fmri	10.0	0.9375	89.0	-95.0	0.0625	16.0	1.0	1.0	-6.787571825884804	2.244	n/a	stim	poldrack-single-stim	s497	False	1
482.847	4.901	487.748	4.168105184111282	draw_card	4.901	columbia_card_task_fmri	10.0	0.9333333333333332	89.0	-95.0	0.0666666666666666	16.0	2.0	1.0	-6.013216513175912	4.901	n/a	stim	poldrack-single-stim	s497	False	1
487.752	0.782	488.534	3.6681051841112815	end_round	0.782	columbia_card_task_fmri	10.0	0.9285714285714286	71.0	-95.0	0.0714285714285714	16.0	3.0	1.0	-5.164001267002028	0.782	2.0	stim	poldrack-single-stim	s497	False	1
489.291	1.5	488.54	n/a	-1.0	2.25	columbia_card_task_fmri	n/a	n/a	-1.0	n/a	n/a	n/a	n/a	n/a	n/a	n/a	n/a	ITI	poldrack-single-stim	s497	False	0
490.796	1.421	492.217	5.5431051841112815	draw_card	1.421	columbia_card_task_fmri	15.0	0.875	89.0	-70.0	0.125	16.0	1.0	2.0	-4.095486688889931	1.421	n/a	stim	poldrack-single-stim	s497	False	1
492.221	0.843	493.064	4.834771850777948	draw_card	0.843	columbia_card_task_fmri	15.0	0.8666666666666667	89.0	-70.0	0.1333333333333333	16.0	2.0	2.0	-3.3128075759528777	0.843	n/a	stim	poldrack-single-stim	s497	False	1
493.068	0.777	493.845	4.025248041254139	end_round	0.777	columbia_card_task_fmri	15.0	0.8571428571428572	71.0	-70.0	0.1428571428571428	16.0	3.0	2.0	-2.464120905422224	0.777	2.0	stim	poldrack-single-stim	s497	False	1
494.602	1.5	493.851	n/a	-1.0	2.522	columbia_card_task_fmri	n/a	n/a	-1.0	n/a	n/a	n/a	n/a	n/a	n/a	n/a	n/a	ITI	poldrack-single-stim	s497	False	0
496.379	0.968	497.347	4.5431051841112815	draw_card	0.968	columbia_card_task_fmri	16.0	0.875	89.0	-85.0	0.125	16.0	1.0	2.0	1.1921755296796237	0.968	n/a	stim	poldrack-single-stim	s497	False	1
497.351	0.653	498.004	3.701438517444615	draw_card	0.653	columbia_card_task_fmri	16.0	0.8666666666666667	89.0	-85.0	0.1333333333333333	16.0	2.0	2.0	2.1224100630328597	0.653	n/a	stim	poldrack-single-stim	s497	False	1
498.009	0.958	498.967	2.7395337555398545	end_round	0.958	columbia_card_task_fmri	16.0	0.8571428571428572	71.0	-85.0	0.1428571428571428	16.0	3.0	2.0	3.1310827701432515	0.958	2.0	stim	poldrack-single-stim	s497	False	1
499.723	1.5	498.972	n/a	-1.0	2.454	columbia_card_task_fmri	n/a	n/a	-1.0	n/a	n/a	n/a	n/a	n/a	n/a	n/a	n/a	ITI	poldrack-single-stim	s497	False	0
