onset	duration	movement_onset	EV	action	block_duration	experiment_exp_id	gain_amount	gain_probability	key_press	loss_amount	loss_probability	num_cards	num_click_in_round	num_loss_cards	risk	response_time	total_cards	trial_id	trial_type	worker_id	junk	feedback
3.015	23.066	26.081	1.2510140840123358	draw_card	23.066	columbia_card_task_fmri	12.0	0.8333333333333334	89.0	-70.0	0.1666666666666666	6.0	1.0	1.0	-4.026207242294213	23.066	n/a	stim	poldrack-single-stim	s499	False	1
26.087	10.43	36.517	-1.482319249320997	end_round	10.43	columbia_card_task_fmri	12.0	0.8	71.0	-70.0	0.2	6.0	2.0	1.0	-1.7952563852758487	10.43	1.0	stim	poldrack-single-stim	s499	False	1
37.271	1.5	36.52	n/a	-1.0	2.454	columbia_card_task_fmri	n/a	n/a	-1.0	n/a	n/a	n/a	n/a	n/a	n/a	n/a	n/a	ITI	poldrack-single-stim	s499	False	0
38.979	4.356	43.335	2.0843474173456698	draw_card	4.356	columbia_card_task_fmri	14.0	0.8333333333333334	89.0	-75.0	0.1666666666666666	6.0	1.0	1.0	-1.4283474315412263	4.356	n/a	stim	poldrack-single-stim	s499	False	1
43.338	2.389	45.727	-0.882319249320997	draw_card	2.389	columbia_card_task_fmri	14.0	0.8	89.0	-75.0	0.2	6.0	2.0	1.0	0.9945926399674434	2.389	n/a	stim	poldrack-single-stim	s499	False	1
45.73	1.695	47.425	-5.332319249320998	end_round	1.695	columbia_card_task_fmri	14.0	0.75	71.0	-75.0	0.25	6.0	3.0	1.0	3.9236499927216855	1.695	2.0	stim	poldrack-single-stim	s499	False	1
48.18	1.5	47.429	n/a	-1.0	2.454	columbia_card_task_fmri	n/a	n/a	-1.0	n/a	n/a	n/a	n/a	n/a	n/a	n/a	n/a	ITI	poldrack-single-stim	s499	False	0
49.887	4.25	54.137	3.751014084012336	draw_card	4.25	columbia_card_task_fmri	15.0	0.8333333333333334	89.0	-70.0	0.1666666666666666	6.0	1.0	1.0	-2.9130569225357448	4.25	n/a	stim	poldrack-single-stim	s499	False	1
54.14	0.519	54.659	0.917680750679002	draw_card	0.519	columbia_card_task_fmri	15.0	0.8	89.0	-70.0	0.2	6.0	2.0	1.0	-0.5998104085525284	0.519	2.0	stim	poldrack-single-stim	s499	False	0
55.412	1.5	54.661	n/a	-1.0	2.522	columbia_card_task_fmri	n/a	n/a	-1.0	n/a	n/a	n/a	n/a	n/a	n/a	n/a	n/a	ITI	poldrack-single-stim	s499	False	0
57.187	2.573	59.76	4.58434741734567	draw_card	2.573	columbia_card_task_fmri	17.0	0.8333333333333334	89.0	-75.0	0.1666666666666666	6.0	1.0	1.0	-0.3144746986669418	2.573	n/a	stim	poldrack-single-stim	s499	False	1
59.762	1.039	60.801	1.517680750679003	end_round	1.039	columbia_card_task_fmri	17.0	0.8	71.0	-75.0	0.2	6.0	2.0	1.0	2.190712762944379	1.039	1.0	stim	poldrack-single-stim	s499	False	1
61.555	1.5	60.804	n/a	-1.0	2.454	columbia_card_task_fmri	n/a	n/a	-1.0	n/a	n/a	n/a	n/a	n/a	n/a	n/a	n/a	ITI	poldrack-single-stim	s499	False	0
63.262	2.547	65.809	5.917680750679002	draw_card	2.547	columbia_card_task_fmri	24.0	0.75	89.0	-60.0	0.25	8.0	1.0	2.0	1.765130897981102	2.547	n/a	stim	poldrack-single-stim	s499	False	1
65.81	0.691	66.501	2.917680750679002	draw_card	0.691	columbia_card_task_fmri	24.0	0.7142857142857143	89.0	-60.0	0.2857142857142857	8.0	2.0	2.0	3.3345635179106523	0.691	n/a	stim	poldrack-single-stim	s499	False	1
66.505	2.969	69.474	-1.082319249320998	draw_card	2.969	columbia_card_task_fmri	24.0	0.6666666666666667	89.0	-60.0	0.3333333333333333	8.0	3.0	2.0	4.980555437835676	2.969	n/a	stim	poldrack-single-stim	s499	False	1
69.478	5.611	75.089	-6.682319249320999	draw_card	5.611	columbia_card_task_fmri	24.0	0.6	89.0	-60.0	0.4	8.0	4.0	2.0	6.529961466874241	5.611	n/a	stim	poldrack-single-stim	s499	False	1
75.092	4.623	79.715	-15.082319249320998	draw_card	4.623	columbia_card_task_fmri	24.0	0.5	89.0	-60.0	0.5	8.0	5.0	2.0	7.376451699097792	4.623	n/a	stim	poldrack-single-stim	s499	False	1
79.718	2.08	81.798	-29.082319249321	end_round	2.08	columbia_card_task_fmri	24.0	0.3333333333333333	71.0	-60.0	0.6666666666666666	8.0	6.0	2.0	4.980555437835676	2.08	5.0	stim	poldrack-single-stim	s499	False	1
82.553	1.5	81.802	n/a	-1.0	2.658	columbia_card_task_fmri	n/a	n/a	-1.0	n/a	n/a	n/a	n/a	n/a	n/a	n/a	n/a	ITI	poldrack-single-stim	s499	False	0
84.468	2.327	86.795	5.917680750679002	draw_card	2.327	columbia_card_task_fmri	29.0	0.75	89.0	-75.0	0.25	8.0	1.0	2.0	10.40296946368762	2.327	n/a	stim	poldrack-single-stim	s499	False	1
86.798	0.813	87.611	2.20339503639329	draw_card	0.813	columbia_card_task_fmri	29.0	0.7142857142857143	89.0	-75.0	0.2857142857142857	8.0	2.0	2.0	12.348150115803598	0.813	n/a	stim	poldrack-single-stim	s499	False	1
87.615	0.796	88.411	-2.7489859159876624	draw_card	0.796	columbia_card_task_fmri	29.0	0.6666666666666667	89.0	-75.0	0.3333333333333333	8.0	3.0	2.0	14.388043250482845	0.796	3.0	stim	poldrack-single-stim	s499	False	0
89.166	1.5	88.415	n/a	-1.0	2.386	columbia_card_task_fmri	n/a	n/a	-1.0	n/a	n/a	n/a	n/a	n/a	n/a	n/a	n/a	ITI	poldrack-single-stim	s499	False	0
90.806	0.711	91.517	1.6954585284567822	draw_card	0.711	columbia_card_task_fmri	17.0	0.7777777777777778	89.0	-65.0	0.2222222222222222	9.0	1.0	2.0	-0.5094853067464982	0.711	n/a	stim	poldrack-single-stim	s499	False	1
91.52	0.422	91.942	-0.5823192493209981	draw_card	0.422	columbia_card_task_fmri	17.0	0.75	89.0	-65.0	0.25	9.0	2.0	2.0	0.9019456413384715	0.422	n/a	stim	poldrack-single-stim	s499	False	1
91.945	2.522	94.467	-3.510890677892425	draw_card	2.522	columbia_card_task_fmri	17.0	0.7142857142857143	89.0	-65.0	0.2857142857142857	9.0	3.0	2.0	2.4337790247435294	2.522	n/a	stim	poldrack-single-stim	s499	False	1
94.471	0.505	94.976	-7.415652582654328	draw_card	0.505	columbia_card_task_fmri	17.0	0.6666666666666667	89.0	-65.0	0.3333333333333333	9.0	4.0	2.0	4.040357243143177	0.505	n/a	stim	poldrack-single-stim	s499	False	1
94.979	2.226	97.205	-12.882319249320998	draw_card	2.226	columbia_card_task_fmri	17.0	0.6	89.0	-65.0	0.4	9.0	5.0	2.0	5.552678631059457	2.226	n/a	stim	poldrack-single-stim	s499	False	1
97.21	4.161	101.371	-21.082319249321	draw_card	4.161	columbia_card_task_fmri	17.0	0.5	89.0	-65.0	0.5	9.0	6.0	2.0	6.378914364989221	4.161	6.0	stim	poldrack-single-stim	s499	False	0
102.127	1.5	101.376	n/a	-1.0	2.522	columbia_card_task_fmri	n/a	n/a	-1.0	n/a	n/a	n/a	n/a	n/a	n/a	n/a	n/a	ITI	poldrack-single-stim	s499	False	0
103.903	0.888	104.791	6.017680750679002	draw_card	0.888	columbia_card_task_fmri	14.0	0.9	89.0	-95.0	0.1	10.0	1.0	1.0	-1.894861884314729	0.888	n/a	stim	poldrack-single-stim	s499	False	1
104.796	0.457	105.253	4.80656963956789	draw_card	0.457	columbia_card_task_fmri	14.0	0.8888888888888888	89.0	-95.0	0.1111111111111111	10.0	2.0	1.0	-0.3453435078484332	0.457	2.0	stim	poldrack-single-stim	s499	False	0
106.009	1.5	105.258	n/a	-1.0	2.59	columbia_card_task_fmri	n/a	n/a	-1.0	n/a	n/a	n/a	n/a	n/a	n/a	n/a	n/a	ITI	poldrack-single-stim	s499	False	0
107.852	0.695	108.547	1.917680750679002	draw_card	0.695	columbia_card_task_fmri	15.0	0.8	89.0	-65.0	0.2	10.0	1.0	2.0	-2.592031760649924	0.695	n/a	stim	poldrack-single-stim	s499	False	1
108.551	0.747	109.298	0.1399029729012251	draw_card	0.747	columbia_card_task_fmri	15.0	0.7777777777777778	89.0	-65.0	0.2222222222222222	10.0	2.0	2.0	-1.3378607915845675	0.747	n/a	stim	poldrack-single-stim	s499	False	1
109.302	1.946	111.248	-2.082319249320998	draw_card	1.946	columbia_card_task_fmri	15.0	0.75	89.0	-65.0	0.25	10.0	3.0	2.0	0.0389016592641624	1.946	n/a	stim	poldrack-single-stim	s499	False	1
111.252	2.367	113.619	-4.939462106463852	draw_card	2.367	columbia_card_task_fmri	15.0	0.7142857142857143	89.0	-65.0	0.2857142857142857	10.0	4.0	2.0	1.5331300561564305	2.367	n/a	stim	poldrack-single-stim	s499	False	1
113.624	2.356	115.98	-8.74898591598766	draw_card	2.356	columbia_card_task_fmri	15.0	0.6666666666666667	89.0	-65.0	0.3333333333333333	10.0	5.0	2.0	3.100289021864377	2.356	5.0	stim	poldrack-single-stim	s499	False	0
116.734	1.5	115.983	n/a	-1.0	2.386	columbia_card_task_fmri	n/a	n/a	-1.0	n/a	n/a	n/a	n/a	n/a	n/a	n/a	n/a	ITI	poldrack-single-stim	s499	False	0
118.375	0.635	119.01	3.5176807506790038	draw_card	0.635	columbia_card_task_fmri	17.0	0.8	89.0	-65.0	0.2	10.0	1.0	2.0	-1.7952563852758487	0.635	n/a	stim	poldrack-single-stim	s499	False	1
119.015	0.358	119.373	1.6954585284567822	draw_card	0.358	columbia_card_task_fmri	17.0	0.7777777777777778	89.0	-65.0	0.2222222222222222	10.0	2.0	2.0	-0.5094853067464982	0.358	n/a	stim	poldrack-single-stim	s499	False	1
119.378	1.426	120.804	-0.5823192493209981	draw_card	1.426	columbia_card_task_fmri	17.0	0.75	89.0	-65.0	0.25	10.0	3.0	2.0	0.9019456413384715	1.426	3.0	stim	poldrack-single-stim	s499	False	0
121.56	1.5	120.809	n/a	-1.0	2.59	columbia_card_task_fmri	n/a	n/a	-1.0	n/a	n/a	n/a	n/a	n/a	n/a	n/a	n/a	ITI	poldrack-single-stim	s499	False	0
123.404	0.612	124.016	2.0843474173456698	draw_card	0.612	columbia_card_task_fmri	13.0	0.8333333333333334	89.0	-70.0	0.1666666666666666	12.0	1.0	2.0	-3.655196103301876	0.612	1.0	stim	poldrack-single-stim	s499	False	0
124.772	1.5	124.021	n/a	-1.0	2.318	columbia_card_task_fmri	n/a	n/a	-1.0	n/a	n/a	n/a	n/a	n/a	n/a	n/a	n/a	ITI	poldrack-single-stim	s499	False	0
126.345	0.522	126.867	2.0843474173456698	draw_card	0.522	columbia_card_task_fmri	15.0	0.8333333333333334	89.0	-80.0	0.1666666666666666	12.0	1.0	2.0	0.7996594759615263	0.522	n/a	stim	poldrack-single-stim	s499	False	1
126.871	2.506	129.377	0.6449534779517268	draw_card	2.506	columbia_card_task_fmri	15.0	0.8181818181818181	89.0	-80.0	0.1818181818181818	12.0	2.0	2.0	2.032200101787872	2.506	n/a	stim	poldrack-single-stim	s499	False	1
129.382	0.35	129.732	-1.082319249320998	draw_card	0.35	columbia_card_task_fmri	15.0	0.8	89.0	-80.0	0.2	12.0	3.0	2.0	3.387076817453341	0.35	n/a	stim	poldrack-single-stim	s499	False	1
129.737	1.528	131.265	-3.1934303604321106	draw_card	1.528	columbia_card_task_fmri	15.0	0.7777777777777778	89.0	-80.0	0.2222222222222222	12.0	4.0	2.0	4.878126501592433	1.528	n/a	stim	poldrack-single-stim	s499	False	1
131.27	0.767	132.037	-5.832319249320998	draw_card	0.767	columbia_card_task_fmri	15.0	0.75	89.0	-80.0	0.25	12.0	5.0	2.0	6.51477859599175	0.767	5.0	stim	poldrack-single-stim	s499	False	0
132.793	1.5	132.042	n/a	-1.0	2.25	columbia_card_task_fmri	n/a	n/a	-1.0	n/a	n/a	n/a	n/a	n/a	n/a	n/a	n/a	ITI	poldrack-single-stim	s499	False	0
134.298	0.658	134.956	1.117680750679003	draw_card	0.658	columbia_card_task_fmri	14.0	0.8	89.0	-65.0	0.2	15.0	1.0	3.0	-2.990358603430103	0.658	n/a	stim	poldrack-single-stim	s499	False	1
134.961	0.431	135.392	-0.0108906778924251	draw_card	0.431	columbia_card_task_fmri	14.0	0.7857142857142857	89.0	-65.0	0.2142857142857142	15.0	2.0	3.0	-2.1779809252207443	0.431	n/a	stim	poldrack-single-stim	s499	False	1
135.396	0.725	136.121	-1.3130884800902298	draw_card	0.725	columbia_card_task_fmri	14.0	0.7692307692307692	89.0	-65.0	0.2307692307692307	15.0	3.0	3.0	-1.312456559075386	0.725	n/a	stim	poldrack-single-stim	s499	False	1
136.127	0.773	136.9	-2.832319249320998	draw_card	0.773	columbia_card_task_fmri	14.0	0.75	89.0	-65.0	0.25	15.0	4.0	3.0	-0.3925640243376804	0.773	n/a	stim	poldrack-single-stim	s499	False	1
136.905	1.314	138.219	-4.627773794775543	draw_card	1.314	columbia_card_task_fmri	14.0	0.7272727272727273	89.0	-65.0	0.2727272727272727	15.0	5.0	3.0	0.5795805088439252	1.314	5.0	stim	poldrack-single-stim	s499	False	0
138.975	1.5	138.224	n/a	-1.0	2.454	columbia_card_task_fmri	n/a	n/a	-1.0	n/a	n/a	n/a	n/a	n/a	n/a	n/a	n/a	ITI	poldrack-single-stim	s499	False	0
140.684	0.574	141.258	1.042680750679002	draw_card	0.574	columbia_card_task_fmri	1.0	0.9375	89.0	-45.0	0.0625	16.0	1.0	1.0	-23.21402553932113	0.574	n/a	stim	poldrack-single-stim	s499	False	1
141.264	2.217	143.481	0.8510140840123355	end_round	2.217	columbia_card_task_fmri	1.0	0.9333333333333332	71.0	-45.0	0.0666666666666666	16.0	2.0	1.0	-22.885214040396683	2.217	1.0	stim	poldrack-single-stim	s499	False	1
144.237	1.5	143.486	n/a	-1.0	3.27	columbia_card_task_fmri	n/a	n/a	-1.0	n/a	n/a	n/a	n/a	n/a	n/a	n/a	n/a	ITI	poldrack-single-stim	s499	False	0
146.761	1.59	148.351	1.980180750679002	draw_card	1.59	columbia_card_task_fmri	15.0	0.8125	89.0	-70.0	0.1875	16.0	1.0	3.0	-1.4201688055710733	1.59	n/a	stim	poldrack-single-stim	s499	False	1
148.357	0.691	149.048	0.917680750679002	draw_card	0.691	columbia_card_task_fmri	15.0	0.8	89.0	-70.0	0.2	16.0	2.0	3.0	-0.5998104085525284	0.691	n/a	stim	poldrack-single-stim	s499	False	1
149.054	0.792	149.846	-0.2966049636067134	draw_card	0.792	columbia_card_task_fmri	15.0	0.7857142857142857	89.0	-70.0	0.2142857142857142	16.0	3.0	3.0	0.2747578383626177	0.792	3.0	stim	poldrack-single-stim	s499	False	0
150.602	1.5	149.851	n/a	-1.0	2.25	columbia_card_task_fmri	n/a	n/a	-1.0	n/a	n/a	n/a	n/a	n/a	n/a	n/a	n/a	ITI	poldrack-single-stim	s499	False	0
152.107	1.61	153.717	8.917680750679002	draw_card	1.61	columbia_card_task_fmri	30.0	0.7	89.0	-50.0	0.3	10.0	1.0	3.0	2.051756040345076	1.61	n/a	stim	poldrack-single-stim	s499	False	1
153.722	0.575	154.297	6.251014084012342	draw_card	0.575	columbia_card_task_fmri	30.0	0.6666666666666667	89.0	-50.0	0.3333333333333333	10.0	2.0	3.0	3.100289021864377	0.575	n/a	stim	poldrack-single-stim	s499	False	1
154.302	2.45	156.752	2.917680750679002	draw_card	2.45	columbia_card_task_fmri	30.0	0.625	89.0	-50.0	0.375	10.0	3.0	3.0	4.114808627584111	2.45	n/a	stim	poldrack-single-stim	s499	False	1
156.757	0.705	157.462	-1.3680335350352828	end_round	0.705	columbia_card_task_fmri	30.0	0.5714285714285714	71.0	-50.0	0.4285714285714285	10.0	4.0	3.0	4.972330736684384	0.705	3.0	stim	poldrack-single-stim	s499	False	1
158.219	1.5	157.468	n/a	-1.0	2.25	columbia_card_task_fmri	n/a	n/a	-1.0	n/a	n/a	n/a	n/a	n/a	n/a	n/a	n/a	ITI	poldrack-single-stim	s499	False	0
159.725	1.409	161.134	8.317680750679003	draw_card	1.409	columbia_card_task_fmri	17.0	0.8666666666666667	89.0	-70.0	0.1333333333333333	15.0	1.0	2.0	-5.006882014427578	1.409	1.0	stim	poldrack-single-stim	s499	False	0
161.891	1.5	161.14	n/a	-1.0	2.318	columbia_card_task_fmri	n/a	n/a	-1.0	n/a	n/a	n/a	n/a	n/a	n/a	n/a	n/a	ITI	poldrack-single-stim	s499	False	0
163.463	1.165	164.628	3.542680750679002	end_round	1.165	columbia_card_task_fmri	7.0	0.9375	71.0	-95.0	0.0625	16.0	1.0	1.0	-9.862705716292666	1.165	0.0	stim	poldrack-single-stim	s499	False	1
165.385	1.5	164.634	n/a	-1.0	2.726	columbia_card_task_fmri	n/a	n/a	-1.0	n/a	n/a	n/a	n/a	n/a	n/a	n/a	n/a	ITI	poldrack-single-stim	s499	False	0
167.366	4.66	172.026	5.105180750679002	draw_card	4.66	columbia_card_task_fmri	9.0	0.9375	89.0	-100.0	0.0625	16.0	1.0	1.0	-8.179239123770781	4.66	1.0	stim	poldrack-single-stim	s499	False	0
172.783	1.5	172.032	n/a	-1.0	2.386	columbia_card_task_fmri	n/a	n/a	-1.0	n/a	n/a	n/a	n/a	n/a	n/a	n/a	n/a	ITI	poldrack-single-stim	s499	False	0
174.423	1.628	176.051	6.042680750679002	draw_card	1.628	columbia_card_task_fmri	15.0	0.875	89.0	-80.0	0.125	16.0	1.0	2.0	-3.1712877570824745	1.628	n/a	stim	poldrack-single-stim	s499	False	1
176.058	0.495	176.553	5.251014084012336	draw_card	0.495	columbia_card_task_fmri	15.0	0.8666666666666667	89.0	-80.0	0.1333333333333333	16.0	2.0	2.0	-2.299444162003354	0.495	n/a	stim	poldrack-single-stim	s499	False	1
176.559	0.532	177.091	4.346252179250433	draw_card	0.532	columbia_card_task_fmri	15.0	0.8571428571428572	89.0	-80.0	0.1428571428571428	16.0	3.0	2.0	-1.3539008504223131	0.532	3.0	stim	poldrack-single-stim	s499	False	0
177.848	1.5	177.097	n/a	-1.0	2.318	columbia_card_task_fmri	n/a	n/a	-1.0	n/a	n/a	n/a	n/a	n/a	n/a	n/a	n/a	ITI	poldrack-single-stim	s499	False	0
179.421	1.637	181.058	8.167680750679002	draw_card	1.637	columbia_card_task_fmri	16.0	0.875	89.0	-70.0	0.125	16.0	1.0	2.0	-6.133681071458096	1.637	1.0	stim	poldrack-single-stim	s499	False	0
181.815	1.5	181.064	n/a	-1.0	2.25	columbia_card_task_fmri	n/a	n/a	-1.0	n/a	n/a	n/a	n/a	n/a	n/a	n/a	n/a	ITI	poldrack-single-stim	s499	False	0
183.319	4.192	187.511	9.480180750679002	draw_card	4.192	columbia_card_task_fmri	30.0	0.6875	89.0	-45.0	0.3125	16.0	1.0	5.0	0.160885519212016	4.192	n/a	stim	poldrack-single-stim	s499	False	1
187.517	0.872	188.389	7.917680750679006	draw_card	0.872	columbia_card_task_fmri	30.0	0.6666666666666667	89.0	-45.0	0.3333333333333333	16.0	2.0	5.0	0.7507549060746328	0.872	n/a	stim	poldrack-single-stim	s499	False	1
188.396	1.042	189.438	6.131966464964714	draw_card	1.042	columbia_card_task_fmri	30.0	0.6428571428571428	89.0	-45.0	0.3571428571428571	16.0	3.0	5.0	1.3302844181908426	1.042	3.0	stim	poldrack-single-stim	s499	False	0
190.196	1.5	189.445	n/a	-1.0	2.25	columbia_card_task_fmri	n/a	n/a	-1.0	n/a	n/a	n/a	n/a	n/a	n/a	n/a	n/a	ITI	poldrack-single-stim	s499	False	0
191.701	0.932	192.633	1.2510140840123358	draw_card	0.932	columbia_card_task_fmri	13.0	0.8333333333333334	89.0	-75.0	0.1666666666666666	6.0	1.0	1.0	-1.7995756580210909	0.932	n/a	stim	poldrack-single-stim	s499	False	1
192.639	1.779	194.418	-1.6823192493209975	end_round	1.779	columbia_card_task_fmri	13.0	0.8	71.0	-75.0	0.2	6.0	2.0	1.0	0.5959444227519626	1.779	1.0	stim	poldrack-single-stim	s499	False	1
195.174	1.5	194.423	n/a	-1.0	2.454	columbia_card_task_fmri	n/a	n/a	-1.0	n/a	n/a	n/a	n/a	n/a	n/a	n/a	n/a	ITI	poldrack-single-stim	s499	False	0
196.882	2.834	199.716	2.917680750679004	draw_card	2.834	columbia_card_task_fmri	14.0	0.8333333333333334	89.0	-70.0	0.1666666666666666	6.0	1.0	1.0	-3.284145536835222	2.834	n/a	stim	poldrack-single-stim	s499	False	1
199.721	0.934	200.655	0.1176807506790029	draw_card	0.934	columbia_card_task_fmri	14.0	0.8	89.0	-70.0	0.2	6.0	2.0	1.0	-0.9983283399902164	0.934	n/a	stim	poldrack-single-stim	s499	False	1
200.66	3.105	203.765	-4.082319249320998	end_round	3.105	columbia_card_task_fmri	14.0	0.75	71.0	-70.0	0.25	6.0	3.0	1.0	1.765130897981102	3.105	2.0	stim	poldrack-single-stim	s499	False	1
204.52	1.5	203.769	n/a	-1.0	2.454	columbia_card_task_fmri	n/a	n/a	-1.0	n/a	n/a	n/a	n/a	n/a	n/a	n/a	n/a	ITI	poldrack-single-stim	s499	False	0
206.231	1.501	207.732	2.917680750679004	draw_card	1.501	columbia_card_task_fmri	16.0	0.8333333333333334	89.0	-80.0	0.1666666666666666	6.0	1.0	1.0	1.171091424923851	1.501	n/a	stim	poldrack-single-stim	s499	False	1
207.738	2.005	209.743	-0.2823192493209974	draw_card	2.005	columbia_card_task_fmri	16.0	0.8	89.0	-80.0	0.2	6.0	2.0	1.0	3.7859151134716456	2.005	n/a	stim	poldrack-single-stim	s499	False	1
209.748	0.848	210.596	-5.082319249320998	end_round	0.848	columbia_card_task_fmri	16.0	0.75	71.0	-80.0	0.25	6.0	3.0	1.0	6.946717476199744	0.848	2.0	stim	poldrack-single-stim	s499	False	1
211.361	1.5	210.61	n/a	-1.0	2.522	columbia_card_task_fmri	n/a	n/a	-1.0	n/a	n/a	n/a	n/a	n/a	n/a	n/a	n/a	ITI	poldrack-single-stim	s499	False	0
213.139	1.959	215.098	5.417680750679004	draw_card	1.959	columbia_card_task_fmri	17.0	0.8333333333333334	89.0	-70.0	0.1666666666666666	6.0	1.0	1.0	-2.170770755136509	1.959	n/a	stim	poldrack-single-stim	s499	False	1
215.102	1.771	216.873	2.5176807506790038	draw_card	1.771	columbia_card_task_fmri	17.0	0.8	89.0	-70.0	0.2	6.0	2.0	1.0	0.1973271200427859	1.771	n/a	stim	poldrack-single-stim	s499	False	1
216.878	1.677	218.555	-1.832319249320998	end_round	1.677	columbia_card_task_fmri	17.0	0.75	71.0	-70.0	0.25	6.0	3.0	1.0	3.0601524926830024	1.677	2.0	stim	poldrack-single-stim	s499	False	1
219.313	1.5	218.562	n/a	-1.0	2.386	columbia_card_task_fmri	n/a	n/a	-1.0	n/a	n/a	n/a	n/a	n/a	n/a	n/a	n/a	ITI	poldrack-single-stim	s499	False	0
220.954	1.669	222.623	5.417680750679002	draw_card	1.669	columbia_card_task_fmri	25.0	0.75	89.0	-65.0	0.25	8.0	1.0	2.0	4.355440695589785	1.669	n/a	stim	poldrack-single-stim	s499	False	1
222.63	1.695	224.325	2.20339503639329	draw_card	1.695	columbia_card_task_fmri	25.0	0.7142857142857143	89.0	-65.0	0.2857142857142857	8.0	2.0	2.0	6.037640291896388	1.695	n/a	stim	poldrack-single-stim	s499	False	1
224.333	0.773	225.106	-2.0823192493209945	draw_card	0.773	columbia_card_task_fmri	25.0	0.6666666666666667	89.0	-65.0	0.3333333333333333	8.0	3.0	2.0	7.801843651139798	0.773	n/a	stim	poldrack-single-stim	s499	False	1
225.111	1.302	226.413	-8.082319249320998	end_round	1.302	columbia_card_task_fmri	25.0	0.6	71.0	-65.0	0.4	8.0	4.0	2.0	9.462477808987096	1.302	3.0	stim	poldrack-single-stim	s499	False	1
227.17	1.5	226.419	n/a	-1.0	2.454	columbia_card_task_fmri	n/a	n/a	-1.0	n/a	n/a	n/a	n/a	n/a	n/a	n/a	n/a	ITI	poldrack-single-stim	s499	False	0
228.88	5.237	234.117	5.417680750679002	draw_card	5.237	columbia_card_task_fmri	30.0	0.75	89.0	-80.0	0.25	8.0	1.0	2.0	12.995905493648984	5.237	1.0	stim	poldrack-single-stim	s499	False	0
234.874	1.5	234.123	n/a	-1.0	2.522	columbia_card_task_fmri	n/a	n/a	-1.0	n/a	n/a	n/a	n/a	n/a	n/a	n/a	n/a	ITI	poldrack-single-stim	s499	False	0
236.655	1.649	238.304	5.117680750679003	end_round	1.649	columbia_card_task_fmri	13.0	0.9	71.0	-95.0	0.1	10.0	1.0	1.0	-2.1936638578713072	1.649	0.0	stim	poldrack-single-stim	s499	False	1
239.064	1.5	238.313	n/a	-1.0	2.522	columbia_card_task_fmri	n/a	n/a	-1.0	n/a	n/a	n/a	n/a	n/a	n/a	n/a	n/a	ITI	poldrack-single-stim	s499	False	0
240.842	2.091	242.933	6.517680750679002	draw_card	2.091	columbia_card_task_fmri	14.0	0.9	89.0	-90.0	0.1	10.0	1.0	1.0	-3.388642820418479	2.091	n/a	stim	poldrack-single-stim	s499	False	1
242.939	0.825	243.764	5.362125195123445	draw_card	0.825	columbia_card_task_fmri	14.0	0.8888888888888888	89.0	-90.0	0.1111111111111111	10.0	2.0	1.0	-1.9107519518895515	0.825	2.0	stim	poldrack-single-stim	s499	False	0
244.523	1.5	243.772	n/a	-1.0	2.59	columbia_card_task_fmri	n/a	n/a	-1.0	n/a	n/a	n/a	n/a	n/a	n/a	n/a	n/a	ITI	poldrack-single-stim	s499	False	0
246.37	1.413	247.783	1.7176807506790026	end_round	1.413	columbia_card_task_fmri	16.0	0.8	71.0	-70.0	0.2	10.0	1.0	2.0	-0.2012581973196532	1.413	0.0	stim	poldrack-single-stim	s499	False	1
248.54	1.5	247.789	n/a	-1.0	2.454	columbia_card_task_fmri	n/a	n/a	-1.0	n/a	n/a	n/a	n/a	n/a	n/a	n/a	n/a	ITI	poldrack-single-stim	s499	False	0
250.251	1.953	252.204	1.0010140840123358	end_round	1.953	columbia_card_task_fmri	7.0	0.9166666666666666	71.0	-100.0	0.0833333333333333	12.0	1.0	1.0	-5.007952283230164	1.953	0.0	stim	poldrack-single-stim	s499	False	1
252.962	1.5	252.211	n/a	-1.0	2.318	columbia_card_task_fmri	n/a	n/a	-1.0	n/a	n/a	n/a	n/a	n/a	n/a	n/a	n/a	ITI	poldrack-single-stim	s499	False	0
254.535	1.147	255.682	1.2510140840123376	draw_card	1.147	columbia_card_task_fmri	14.0	0.8333333333333334	89.0	-80.0	0.1666666666666666	12.0	1.0	2.0	0.4282539030097538	1.147	n/a	stim	poldrack-single-stim	s499	False	1
255.689	0.528	256.217	-0.1732283402300916	draw_card	0.528	columbia_card_task_fmri	14.0	0.8181818181818181	89.0	-80.0	0.1818181818181818	12.0	2.0	2.0	1.6477353923295652	0.528	n/a	stim	poldrack-single-stim	s499	False	1
256.223	0.586	256.809	-1.882319249320997	draw_card	0.586	columbia_card_task_fmri	14.0	0.8	89.0	-80.0	0.2	12.0	3.0	2.0	2.988263128682391	0.586	n/a	stim	poldrack-single-stim	s499	False	1
256.816	0.672	257.488	-3.971208138209888	end_round	0.672	columbia_card_task_fmri	14.0	0.7777777777777778	71.0	-80.0	0.2222222222222222	12.0	4.0	2.0	4.463528566975263	0.672	3.0	stim	poldrack-single-stim	s499	False	1
258.249	1.5	257.498	n/a	-1.0	2.25	columbia_card_task_fmri	n/a	n/a	-1.0	n/a	n/a	n/a	n/a	n/a	n/a	n/a	n/a	ITI	poldrack-single-stim	s499	False	0
259.757	3.068	262.825	2.917680750679002	draw_card	3.068	columbia_card_task_fmri	15.0	0.8333333333333334	89.0	-75.0	0.1666666666666666	12.0	1.0	2.0	-1.057087171574686	3.068	n/a	stim	poldrack-single-stim	s499	False	1
262.833	0.499	263.332	1.5540443870426368	draw_card	0.499	columbia_card_task_fmri	15.0	0.8181818181818181	89.0	-75.0	0.1818181818181818	12.0	2.0	2.0	0.110148471727868	0.499	n/a	stim	poldrack-single-stim	s499	False	1
263.34	0.465	263.805	-0.0823192493209981	draw_card	0.465	columbia_card_task_fmri	15.0	0.8	89.0	-75.0	0.2	12.0	3.0	2.0	1.3932707480445998	0.465	n/a	stim	poldrack-single-stim	s499	False	1
263.814	0.487	264.301	-2.0823192493209963	draw_card	0.487	columbia_card_task_fmri	15.0	0.7777777777777778	89.0	-75.0	0.2222222222222222	12.0	4.0	2.0	2.805389441869025	0.487	4.0	stim	poldrack-single-stim	s499	False	0
265.06	1.5	264.309	n/a	-1.0	2.658	columbia_card_task_fmri	n/a	n/a	-1.0	n/a	n/a	n/a	n/a	n/a	n/a	n/a	n/a	ITI	poldrack-single-stim	s499	False	0
266.974	0.984	267.958	1.917680750679002	draw_card	0.984	columbia_card_task_fmri	15.0	0.8	89.0	-65.0	0.2	15.0	1.0	3.0	-2.592031760649924	0.984	1.0	stim	poldrack-single-stim	s499	False	0
268.717	1.5	267.966	n/a	-1.0	2.454	columbia_card_task_fmri	n/a	n/a	-1.0	n/a	n/a	n/a	n/a	n/a	n/a	n/a	n/a	ITI	poldrack-single-stim	s499	False	0
270.429	2.531	272.96	1.167680750679002	draw_card	2.531	columbia_card_task_fmri	14.0	0.8125	89.0	-70.0	0.1875	16.0	1.0	3.0	-1.808962750293503	2.531	n/a	stim	poldrack-single-stim	s499	False	1
272.968	0.77	273.738	0.1176807506790029	draw_card	0.77	columbia_card_task_fmri	14.0	0.8	89.0	-70.0	0.2	16.0	2.0	3.0	-0.9983283399902164	0.77	2.0	stim	poldrack-single-stim	s499	False	0
274.497	1.5	273.746	n/a	-1.0	2.386	columbia_card_task_fmri	n/a	n/a	-1.0	n/a	n/a	n/a	n/a	n/a	n/a	n/a	n/a	ITI	poldrack-single-stim	s499	False	0
276.14	1.63	277.77	1.105180750679002	draw_card	1.63	columbia_card_task_fmri	11.0	0.6875	89.0	-30.0	0.3125	16.0	1.0	5.0	-15.49809040676928	1.63	1.0	stim	poldrack-single-stim	s499	False	0
278.531	1.5	277.78	n/a	-1.0	2.59	columbia_card_task_fmri	n/a	n/a	-1.0	n/a	n/a	n/a	n/a	n/a	n/a	n/a	n/a	ITI	poldrack-single-stim	s499	False	0
280.38	1.901	282.281	5.917680750679002	draw_card	1.901	columbia_card_task_fmri	15.0	0.8666666666666667	89.0	-75.0	0.1333333333333333	15.0	1.0	2.0	-3.991841950331352	1.901	n/a	stim	poldrack-single-stim	s499	False	1
282.287	0.508	282.795	5.0605378935361465	draw_card	0.508	columbia_card_task_fmri	15.0	0.8571428571428572	89.0	-75.0	0.1428571428571428	15.0	2.0	2.0	-3.096466198476204	0.508	n/a	stim	poldrack-single-stim	s499	False	1
282.803	0.533	283.336	4.071526904525156	draw_card	0.533	columbia_card_task_fmri	15.0	0.8461538461538461	89.0	-75.0	0.1538461538461538	15.0	3.0	2.0	-2.121844722260235	0.533	n/a	stim	poldrack-single-stim	s499	False	1
283.343	0.494	283.837	2.917680750679002	draw_card	0.494	columbia_card_task_fmri	15.0	0.8333333333333334	89.0	-75.0	0.1666666666666666	15.0	4.0	2.0	-1.057087171574686	0.494	4.0	stim	poldrack-single-stim	s499	False	0
284.597	1.5	283.846	n/a	-1.0	2.318	columbia_card_task_fmri	n/a	n/a	-1.0	n/a	n/a	n/a	n/a	n/a	n/a	n/a	n/a	ITI	poldrack-single-stim	s499	False	0
286.173	0.566	286.739	7.651014084012337	draw_card	0.566	columbia_card_task_fmri	17.0	0.8666666666666667	89.0	-75.0	0.1333333333333333	15.0	1.0	2.0	-3.3149771186323065	0.566	n/a	stim	poldrack-single-stim	s499	False	1
286.747	0.703	287.45	6.774823607821862	draw_card	0.703	columbia_card_task_fmri	17.0	0.8571428571428572	89.0	-75.0	0.1428571428571428	15.0	2.0	2.0	-2.3995317169089176	0.703	n/a	stim	poldrack-single-stim	s499	False	1
287.459	0.485	287.944	5.763834596832849	draw_card	0.485	columbia_card_task_fmri	17.0	0.8461538461538461	89.0	-75.0	0.1538461538461538	15.0	3.0	2.0	-1.403075082422042	0.485	n/a	stim	poldrack-single-stim	s499	False	1
287.952	0.487	288.439	4.58434741734567	draw_card	0.487	columbia_card_task_fmri	17.0	0.8333333333333334	89.0	-75.0	0.1666666666666666	15.0	4.0	2.0	-0.3144746986669418	0.487	n/a	stim	poldrack-single-stim	s499	False	1
288.445	0.473	288.918	3.190408023406273	draw_card	0.473	columbia_card_task_fmri	17.0	0.8181818181818181	89.0	-75.0	0.1818181818181818	15.0	5.0	2.0	0.8788857870278406	0.473	n/a	stim	poldrack-single-stim	s499	False	1
288.927	1.05	289.977	1.517680750679003	draw_card	1.05	columbia_card_task_fmri	17.0	0.8	89.0	-75.0	0.2	15.0	6.0	2.0	2.190712762944379	1.05	6.0	stim	poldrack-single-stim	s499	False	0
290.735	1.5	289.984	n/a	-1.0	2.59	columbia_card_task_fmri	n/a	n/a	-1.0	n/a	n/a	n/a	n/a	n/a	n/a	n/a	n/a	ITI	poldrack-single-stim	s499	False	0
292.583	1.266	293.849	3.230180750679002	end_round	1.266	columbia_card_task_fmri	2.0	0.9375	71.0	-25.0	0.0625	16.0	1.0	1.0	-27.56741671796633	1.266	0.0	stim	poldrack-single-stim	s499	False	1
294.609	1.5	293.858	n/a	-1.0	2.386	columbia_card_task_fmri	n/a	n/a	-1.0	n/a	n/a	n/a	n/a	n/a	n/a	n/a	n/a	ITI	poldrack-single-stim	s499	False	0
296.256	2.062	298.318	5.417680750679002	draw_card	2.062	columbia_card_task_fmri	9.0	0.9375	89.0	-95.0	0.0625	16.0	1.0	1.0	-9.381864374679054	2.062	n/a	stim	poldrack-single-stim	s499	False	1
298.327	0.553	298.88	4.984347417345669	draw_card	0.553	columbia_card_task_fmri	9.0	0.9333333333333332	89.0	-95.0	0.0666666666666666	16.0	2.0	1.0	-8.619053744224402	0.553	n/a	stim	poldrack-single-stim	s499	False	1
298.89	1.04	299.93	4.4891093221075735	draw_card	1.04	columbia_card_task_fmri	9.0	0.9285714285714286	89.0	-95.0	0.0714285714285714	16.0	3.0	1.0	-7.782227044211883	1.04	n/a	stim	poldrack-single-stim	s499	False	1
299.938	0.508	300.446	3.917680750679002	draw_card	0.508	columbia_card_task_fmri	9.0	0.9230769230769232	89.0	-95.0	0.0769230769230769	16.0	4.0	1.0	-6.858789558088301	0.508	n/a	stim	poldrack-single-stim	s499	False	1
300.454	1.038	301.492	3.251014084012336	draw_card	1.038	columbia_card_task_fmri	9.0	0.9166666666666666	89.0	-95.0	0.0833333333333333	16.0	5.0	1.0	-5.8329876320627605	1.038	n/a	stim	poldrack-single-stim	s499	False	1
301.499	0.958	302.457	2.463135296133547	draw_card	0.958	columbia_card_task_fmri	9.0	0.9090909090909092	89.0	-95.0	0.0909090909090909	16.0	6.0	1.0	-4.684843836612448	0.958	n/a	stim	poldrack-single-stim	s499	False	1
302.465	0.949	303.414	1.5176807506790015	end_round	0.949	columbia_card_task_fmri	9.0	0.9	71.0	-95.0	0.1	16.0	7.0	1.0	-3.388642820418479	0.949	6.0	stim	poldrack-single-stim	s499	False	1
304.174	1.5	303.423	n/a	-1.0	2.318	columbia_card_task_fmri	n/a	n/a	-1.0	n/a	n/a	n/a	n/a	n/a	n/a	n/a	n/a	ITI	poldrack-single-stim	s499	False	0
305.751	4.562	310.313	6.980180750679002	draw_card	4.562	columbia_card_task_fmri	11.0	0.9375	89.0	-100.0	0.0625	16.0	1.0	1.0	-7.697996985308819	4.562	n/a	stim	poldrack-single-stim	s499	False	1
310.321	0.504	310.825	6.517680750679002	draw_card	0.504	columbia_card_task_fmri	11.0	0.9333333333333332	89.0	-100.0	0.0666666666666666	16.0	2.0	1.0	-6.883202767090822	0.504	n/a	stim	poldrack-single-stim	s499	False	1
310.835	0.56	311.395	5.989109322107575	draw_card	0.56	columbia_card_task_fmri	11.0	0.9285714285714286	89.0	-100.0	0.0714285714285714	16.0	3.0	1.0	-5.989390242299102	0.56	n/a	stim	poldrack-single-stim	s499	False	1
311.403	0.678	312.081	5.379219212217464	draw_card	0.678	columbia_card_task_fmri	11.0	0.9230769230769232	89.0	-100.0	0.0769230769230769	16.0	4.0	1.0	-5.00311507216745	0.678	n/a	stim	poldrack-single-stim	s499	False	1
312.091	0.571	312.662	4.667680750679002	draw_card	0.571	columbia_card_task_fmri	11.0	0.9166666666666666	89.0	-100.0	0.0833333333333333	16.0	5.0	1.0	-3.90756106535909	0.571	n/a	stim	poldrack-single-stim	s499	False	1
312.67	0.885	313.555	3.82677165976991	draw_card	0.885	columbia_card_task_fmri	11.0	0.9090909090909092	89.0	-100.0	0.0909090909090909	16.0	6.0	1.0	-2.681403610801937	0.885	n/a	stim	poldrack-single-stim	s499	False	1
313.564	1.158	314.722	2.8176807506790023	draw_card	1.158	columbia_card_task_fmri	11.0	0.9	89.0	-100.0	0.1	16.0	7.0	1.0	-1.2971935549129654	1.158	n/a	stim	poldrack-single-stim	s499	False	1
314.731	1.551	316.282	1.584347417345668	draw_card	1.551	columbia_card_task_fmri	11.0	0.8888888888888888	89.0	-100.0	0.1111111111111111	16.0	8.0	1.0	0.2809689032952178	1.551	n/a	stim	poldrack-single-stim	s499	False	1
316.291	1.208	317.499	0.0426807506790019	draw_card	1.208	columbia_card_task_fmri	11.0	0.875	89.0	-100.0	0.125	16.0	9.0	1.0	2.1007950683737	1.208	n/a	stim	poldrack-single-stim	s499	False	1
317.508	4.809	322.317	-1.939462106463854	draw_card	4.809	columbia_card_task_fmri	11.0	0.8571428571428572	89.0	-100.0	0.1428571428571428	16.0	10.0	1.0	4.226568173924996	4.809	n/a	stim	poldrack-single-stim	s499	False	1
322.326	1.182	323.508	-4.582319249320994	end_round	1.182	columbia_card_task_fmri	11.0	0.8333333333333334	71.0	-100.0	0.1666666666666666	16.0	11.0	1.0	6.745253733327367	1.182	10.0	stim	poldrack-single-stim	s499	False	1
324.272	1.5	323.521	n/a	-1.0	2.318	columbia_card_task_fmri	n/a	n/a	-1.0	n/a	n/a	n/a	n/a	n/a	n/a	n/a	n/a	ITI	poldrack-single-stim	s499	False	0
325.848	2.126	327.974	7.542680750679002	draw_card	2.126	columbia_card_task_fmri	16.0	0.875	89.0	-75.0	0.125	16.0	1.0	2.0	-4.48824835122938	2.126	n/a	stim	poldrack-single-stim	s499	False	1
327.981	0.487	328.468	6.7843474173456695	draw_card	0.487	columbia_card_task_fmri	16.0	0.8666666666666667	89.0	-75.0	0.1333333333333333	16.0	2.0	2.0	-3.6534259331157166	0.487	n/a	stim	poldrack-single-stim	s499	False	1
328.477	0.912	329.389	5.917680750679004	draw_card	0.912	columbia_card_task_fmri	16.0	0.8571428571428572	89.0	-75.0	0.1428571428571428	16.0	3.0	2.0	-2.748014899920559	0.912	n/a	stim	poldrack-single-stim	s499	False	1
329.396	1.142	330.538	4.917680750679002	draw_card	1.142	columbia_card_task_fmri	16.0	0.8461538461538461	89.0	-75.0	0.1538461538461538	16.0	4.0	2.0	-1.7624753755625804	1.142	n/a	stim	poldrack-single-stim	s499	False	1
330.547	0.866	331.413	3.751014084012336	draw_card	0.866	columbia_card_task_fmri	16.0	0.8333333333333334	89.0	-75.0	0.1666666666666666	16.0	5.0	2.0	-0.6857959262811661	0.866	n/a	stim	poldrack-single-stim	s499	False	1
331.422	1.397	332.819	2.372226205224455	draw_card	1.397	columbia_card_task_fmri	16.0	0.8181818181818181	89.0	-75.0	0.1818181818181818	16.0	6.0	2.0	0.4945026335448688	1.397	n/a	stim	poldrack-single-stim	s499	False	1
332.829	0.769	333.598	0.7176807506790026	end_round	0.769	columbia_card_task_fmri	16.0	0.8	71.0	-75.0	0.2	16.0	7.0	2.0	1.791977767967026	0.769	6.0	stim	poldrack-single-stim	s499	False	1
334.36	1.5	333.609	n/a	-1.0	2.318	columbia_card_task_fmri	n/a	n/a	-1.0	n/a	n/a	n/a	n/a	n/a	n/a	n/a	n/a	ITI	poldrack-single-stim	s499	False	0
335.937	3.35	339.287	7.792680750679002	draw_card	3.35	columbia_card_task_fmri	17.0	0.875	89.0	-80.0	0.125	16.0	1.0	2.0	-2.5126256787519523	3.35	n/a	stim	poldrack-single-stim	s499	False	1
339.296	0.488	339.784	6.984347417345671	draw_card	0.488	columbia_card_task_fmri	17.0	0.8666666666666667	89.0	-80.0	0.1333333333333333	16.0	2.0	2.0	-1.6222763000425076	0.488	n/a	stim	poldrack-single-stim	s499	False	1
339.792	0.407	340.199	6.060537893536148	draw_card	0.407	columbia_card_task_fmri	17.0	0.8571428571428572	89.0	-80.0	0.1428571428571428	16.0	3.0	2.0	-0.6566717835268818	0.407	n/a	stim	poldrack-single-stim	s499	False	1
340.208	0.473	340.681	4.994603827602079	draw_card	0.473	columbia_card_task_fmri	17.0	0.8461538461538461	89.0	-80.0	0.1538461538461538	16.0	4.0	2.0	0.3943573237765605	0.473	4.0	stim	poldrack-single-stim	s499	False	0
341.442	1.5	340.691	n/a	-1.0	2.386	columbia_card_task_fmri	n/a	n/a	-1.0	n/a	n/a	n/a	n/a	n/a	n/a	n/a	n/a	ITI	poldrack-single-stim	s499	False	0
354.092	2.54	356.632	2.0843474173456698	draw_card	2.54	columbia_card_task_fmri	13.0	0.8333333333333334	89.0	-70.0	0.1666666666666666	6.0	1.0	1.0	-3.655196103301876	2.54	n/a	stim	poldrack-single-stim	s499	False	1
356.642	1.041	357.683	-0.6823192493209977	end_round	1.041	columbia_card_task_fmri	13.0	0.8	71.0	-70.0	0.2	6.0	2.0	1.0	-1.396810761934283	1.041	1.0	stim	poldrack-single-stim	s499	False	1
358.443	1.5	357.692	n/a	-1.0	2.25	columbia_card_task_fmri	n/a	n/a	-1.0	n/a	n/a	n/a	n/a	n/a	n/a	n/a	n/a	ITI	poldrack-single-stim	s499	False	0
359.95	1.623	361.573	2.0843474173456698	draw_card	1.623	columbia_card_task_fmri	15.0	0.8333333333333334	89.0	-80.0	0.1666666666666666	6.0	1.0	1.0	0.7996594759615263	1.623	n/a	stim	poldrack-single-stim	s499	False	1
361.582	3.213	364.795	-1.082319249320998	draw_card	3.213	columbia_card_task_fmri	15.0	0.8	89.0	-80.0	0.2	6.0	2.0	1.0	3.387076817453341	3.213	n/a	stim	poldrack-single-stim	s499	False	1
364.804	0.553	365.357	-5.832319249320998	end_round	0.553	columbia_card_task_fmri	15.0	0.75	71.0	-80.0	0.25	6.0	3.0	1.0	6.51477859599175	0.553	2.0	stim	poldrack-single-stim	s499	False	1
366.118	1.5	365.367	n/a	-1.0	2.386	columbia_card_task_fmri	n/a	n/a	-1.0	n/a	n/a	n/a	n/a	n/a	n/a	n/a	n/a	ITI	poldrack-single-stim	s499	False	0
367.762	1.289	369.051	3.751014084012336	draw_card	1.289	columbia_card_task_fmri	16.0	0.8333333333333334	89.0	-75.0	0.1666666666666666	6.0	1.0	1.0	-0.6857959262811661	1.289	1.0	stim	poldrack-single-stim	s499	False	0
369.813	1.5	369.062	n/a	-1.0	2.59	columbia_card_task_fmri	n/a	n/a	-1.0	n/a	n/a	n/a	n/a	n/a	n/a	n/a	n/a	ITI	poldrack-single-stim	s499	False	0
371.663	1.259	372.922	4.917680750679002	draw_card	1.259	columbia_card_task_fmri	21.0	0.75	89.0	-55.0	0.25	8.0	1.0	2.0	-1.6867181972395997	1.259	1.0	stim	poldrack-single-stim	s499	False	0
373.681	1.5	372.93	n/a	-1.0	2.658	columbia_card_task_fmri	n/a	n/a	-1.0	n/a	n/a	n/a	n/a	n/a	n/a	n/a	n/a	ITI	poldrack-single-stim	s499	False	0
375.597	1.191	376.788	6.167680750679002	draw_card	1.191	columbia_card_task_fmri	26.0	0.75	89.0	-65.0	0.25	8.0	1.0	2.0	4.787258144472361	1.191	n/a	stim	poldrack-single-stim	s499	False	1
376.796	0.504	377.3	2.917680750679005	draw_card	0.504	columbia_card_task_fmri	26.0	0.7142857142857143	89.0	-65.0	0.2857142857142857	8.0	2.0	2.0	6.488248190814176	0.504	n/a	stim	poldrack-single-stim	s499	False	1
377.309	1.005	378.314	-1.4156525826543267	draw_card	1.005	columbia_card_task_fmri	26.0	0.6666666666666667	89.0	-65.0	0.3333333333333333	8.0	3.0	2.0	8.272149551758126	1.005	3.0	stim	poldrack-single-stim	s499	False	0
379.074	1.5	378.323	n/a	-1.0	2.386	columbia_card_task_fmri	n/a	n/a	-1.0	n/a	n/a	n/a	n/a	n/a	n/a	n/a	n/a	ITI	poldrack-single-stim	s499	False	0
380.721	1.042	381.763	1.2510140840123358	draw_card	1.042	columbia_card_task_fmri	15.0	0.7777777777777778	89.0	-60.0	0.2222222222222222	9.0	1.0	2.0	-3.4080797401142355	1.042	n/a	stim	poldrack-single-stim	s499	False	1
381.773	0.294	382.067	-0.8323192493209981	draw_card	0.294	columbia_card_task_fmri	15.0	0.75	89.0	-60.0	0.25	9.0	2.0	2.0	-2.11801660681337	0.294	n/a	stim	poldrack-single-stim	s499	False	1
382.079	0.446	382.525	-3.510890677892425	draw_card	0.446	columbia_card_task_fmri	15.0	0.7142857142857143	89.0	-60.0	0.2857142857142857	9.0	3.0	2.0	-0.717828785446379	0.446	n/a	stim	poldrack-single-stim	s499	False	1
382.534	0.538	383.072	-7.082319249320996	draw_card	0.538	columbia_card_task_fmri	15.0	0.6666666666666667	89.0	-60.0	0.3333333333333333	9.0	4.0	2.0	0.7507549060746328	0.538	n/a	stim	poldrack-single-stim	s499	False	1
383.083	0.732	383.815	-12.082319249320998	draw_card	0.732	columbia_card_task_fmri	15.0	0.6	89.0	-60.0	0.4	9.0	5.0	2.0	2.1332395448855834	0.732	5.0	stim	poldrack-single-stim	s499	False	0
384.576	1.5	383.825	n/a	-1.0	2.386	columbia_card_task_fmri	n/a	n/a	-1.0	n/a	n/a	n/a	n/a	n/a	n/a	n/a	n/a	ITI	poldrack-single-stim	s499	False	0
386.223	0.562	386.785	5.617680750679003	draw_card	0.562	columbia_card_task_fmri	13.0	0.9	89.0	-90.0	0.1	10.0	1.0	1.0	-3.6873270228307184	0.562	n/a	stim	poldrack-single-stim	s499	False	1
386.795	1.118	387.913	4.473236306234558	draw_card	1.118	columbia_card_task_fmri	13.0	0.8888888888888888	89.0	-90.0	0.1111111111111111	10.0	2.0	1.0	-2.2237648469156355	1.118	n/a	stim	poldrack-single-stim	s499	False	1
387.922	0.97	388.892	3.042680750679002	draw_card	0.97	columbia_card_task_fmri	13.0	0.875	89.0	-90.0	0.125	10.0	3.0	1.0	-0.5359963728364647	0.97	n/a	stim	poldrack-single-stim	s499	False	1
388.901	0.902	389.803	1.2033950363932902	draw_card	0.902	columbia_card_task_fmri	13.0	0.8571428571428572	89.0	-90.0	0.1428571428571428	10.0	4.0	1.0	1.4356239687449417	0.902	n/a	stim	poldrack-single-stim	s499	False	1
389.814	3.78	393.594	-1.2489859159876642	draw_card	3.78	columbia_card_task_fmri	13.0	0.8333333333333334	89.0	-90.0	0.1666666666666666	10.0	5.0	1.0	3.771789458328748	3.78	n/a	stim	poldrack-single-stim	s499	False	1
393.603	2.478	396.081	-4.682319249320997	draw_card	2.478	columbia_card_task_fmri	13.0	0.8	89.0	-90.0	0.2	10.0	6.0	1.0	6.5784123036995865	2.478	n/a	stim	poldrack-single-stim	s499	False	1
396.092	3.704	399.796	-9.832319249320998	end_round	3.704	columbia_card_task_fmri	13.0	0.75	71.0	-90.0	0.25	10.0	7.0	1.0	9.970871499194663	3.704	6.0	stim	poldrack-single-stim	s499	False	1
400.557	1.5	399.806	n/a	-1.0	2.25	columbia_card_task_fmri	n/a	n/a	-1.0	n/a	n/a	n/a	n/a	n/a	n/a	n/a	n/a	ITI	poldrack-single-stim	s499	False	0
402.065	2.08	404.145	6.917680750679002	draw_card	2.08	columbia_card_task_fmri	15.0	0.9	89.0	-95.0	0.1	10.0	1.0	1.0	-1.596038256417728	2.08	n/a	stim	poldrack-single-stim	s499	False	1
404.156	2.925	407.081	5.695458528456779	draw_card	2.925	columbia_card_task_fmri	15.0	0.8888888888888888	89.0	-95.0	0.1111111111111111	10.0	2.0	1.0	-0.032197371044333	2.925	n/a	stim	poldrack-single-stim	s499	False	1
407.092	0.498	407.59	4.167680750679002	draw_card	0.498	columbia_card_task_fmri	15.0	0.875	89.0	-95.0	0.125	10.0	3.0	1.0	1.7711252150178538	0.498	n/a	stim	poldrack-single-stim	s499	False	1
407.601	3.24	410.841	2.2033950363932884	draw_card	3.24	columbia_card_task_fmri	15.0	0.8571428571428572	89.0	-95.0	0.1428571428571428	10.0	4.0	1.0	3.8776330467888585	3.24	n/a	stim	poldrack-single-stim	s499	False	1
410.852	0.326	411.178	-0.4156525826543302	draw_card	0.326	columbia_card_task_fmri	15.0	0.8333333333333334	89.0	-95.0	0.1666666666666666	10.0	5.0	1.0	6.373507627307447	0.326	n/a	stim	poldrack-single-stim	s499	False	1
411.189	1.381	412.57	-4.082319249320998	draw_card	1.381	columbia_card_task_fmri	15.0	0.8	89.0	-95.0	0.2	10.0	6.0	1.0	9.37186103816991	1.381	n/a	stim	poldrack-single-stim	s499	False	1
412.58	0.831	413.411	-9.582319249320998	draw_card	0.831	columbia_card_task_fmri	15.0	0.75	89.0	-95.0	0.25	10.0	7.0	1.0	12.995905493648984	0.831	7.0	stim	poldrack-single-stim	s499	False	0
414.17	1.5	413.419	n/a	-1.0	2.318	columbia_card_task_fmri	n/a	n/a	-1.0	n/a	n/a	n/a	n/a	n/a	n/a	n/a	n/a	ITI	poldrack-single-stim	s499	False	0
415.748	0.888	416.636	2.7176807506790026	draw_card	0.888	columbia_card_task_fmri	16.0	0.8	89.0	-65.0	0.2	10.0	1.0	2.0	-2.1936638578713	0.888	n/a	stim	poldrack-single-stim	s499	False	1
416.645	0.495	417.14	0.9176807506790036	draw_card	0.495	columbia_card_task_fmri	16.0	0.7777777777777778	89.0	-65.0	0.2222222222222222	10.0	2.0	2.0	-0.9236921021059032	0.495	n/a	stim	poldrack-single-stim	s499	False	1
417.148	0.547	417.695	-1.332319249320998	draw_card	0.547	columbia_card_task_fmri	16.0	0.75	89.0	-65.0	0.25	10.0	3.0	2.0	0.4704053413867157	0.547	3.0	stim	poldrack-single-stim	s499	False	0
418.455	1.5	417.704	n/a	-1.0	2.25	columbia_card_task_fmri	n/a	n/a	-1.0	n/a	n/a	n/a	n/a	n/a	n/a	n/a	n/a	ITI	poldrack-single-stim	s499	False	0
419.967	0.583	420.55	1.417680750679002	draw_card	0.583	columbia_card_task_fmri	7.0	0.9166666666666666	89.0	-95.0	0.0833333333333333	12.0	1.0	1.0	-6.382877577742018	0.583	n/a	stim	poldrack-single-stim	s499	False	1
420.561	0.342	420.903	0.6449534779517285	draw_card	0.342	columbia_card_task_fmri	7.0	0.9090909090909092	89.0	-95.0	0.0909090909090909	12.0	2.0	1.0	-5.257032098666066	0.342	n/a	stim	poldrack-single-stim	s499	False	1
420.914	0.321	421.235	-0.2823192493209983	draw_card	0.321	columbia_card_task_fmri	7.0	0.9	89.0	-95.0	0.1	12.0	3.0	1.0	-3.985985598089005	0.321	n/a	stim	poldrack-single-stim	s499	False	1
421.245	0.467	421.712	-1.415652582654332	draw_card	0.467	columbia_card_task_fmri	7.0	0.8888888888888888	89.0	-95.0	0.1111111111111111	12.0	4.0	1.0	-2.536753249598668	0.467	n/a	stim	poldrack-single-stim	s499	False	1
421.724	0.457	422.181	-2.832319249320998	draw_card	0.457	columbia_card_task_fmri	7.0	0.875	89.0	-95.0	0.125	12.0	5.0	1.0	-0.8654970150405958	0.457	n/a	stim	poldrack-single-stim	s499	False	1
422.193	3.054	425.247	-4.653747820749569	draw_card	3.054	columbia_card_task_fmri	7.0	0.8571428571428572	89.0	-95.0	0.1428571428571428	12.0	6.0	1.0	1.0868489398861314	3.054	n/a	stim	poldrack-single-stim	s499	False	1
425.259	1.557	426.816	-7.082319249320996	draw_card	1.557	columbia_card_task_fmri	7.0	0.8333333333333334	89.0	-95.0	0.1666666666666666	12.0	7.0	1.0	3.4001938404995045	1.557	n/a	stim	poldrack-single-stim	s499	False	1
426.827	0.852	427.679	-10.482319249320996	end_round	0.852	columbia_card_task_fmri	7.0	0.8	71.0	-95.0	0.2	12.0	8.0	1.0	6.179421329748564	0.852	7.0	stim	poldrack-single-stim	s499	False	1
428.441	1.5	427.69	n/a	-1.0	2.25	columbia_card_task_fmri	n/a	n/a	-1.0	n/a	n/a	n/a	n/a	n/a	n/a	n/a	n/a	ITI	poldrack-single-stim	s499	False	0
429.953	1.661	431.614	2.0843474173456698	draw_card	1.661	columbia_card_task_fmri	14.0	0.8333333333333334	89.0	-75.0	0.1666666666666666	12.0	1.0	2.0	-1.4283474315412263	1.661	n/a	stim	poldrack-single-stim	s499	False	1
431.625	0.46	432.085	0.7358625688608185	draw_card	0.46	columbia_card_task_fmri	14.0	0.8181818181818181	89.0	-75.0	0.1818181818181818	12.0	2.0	2.0	-0.2741757280711923	0.46	n/a	stim	poldrack-single-stim	s499	False	1
432.097	0.456	432.553	-0.882319249320997	draw_card	0.456	columbia_card_task_fmri	14.0	0.8	89.0	-75.0	0.2	12.0	3.0	2.0	0.9945926399674434	0.456	n/a	stim	poldrack-single-stim	s499	False	1
432.563	0.434	432.997	-2.860097027098773	draw_card	0.434	columbia_card_task_fmri	14.0	0.7777777777777778	89.0	-75.0	0.2222222222222222	12.0	4.0	2.0	2.390922045985299	0.434	n/a	stim	poldrack-single-stim	s499	False	1
433.009	0.461	433.47	-5.332319249320998	draw_card	0.461	columbia_card_task_fmri	14.0	0.75	89.0	-75.0	0.25	12.0	5.0	2.0	3.9236499927216855	0.461	n/a	stim	poldrack-single-stim	s499	False	1
433.481	0.502	433.983	-8.510890677892425	draw_card	0.502	columbia_card_task_fmri	14.0	0.7142857142857143	89.0	-75.0	0.2857142857142857	12.0	6.0	2.0	5.587058046849137	0.502	n/a	stim	poldrack-single-stim	s499	False	1
433.993	0.459	434.452	-12.748985915987664	draw_card	0.459	columbia_card_task_fmri	14.0	0.6666666666666667	89.0	-75.0	0.3333333333333333	12.0	7.0	2.0	7.331562350440507	0.459	7.0	stim	poldrack-single-stim	s499	False	0
435.216	1.5	434.465	n/a	-1.0	2.386	columbia_card_task_fmri	n/a	n/a	-1.0	n/a	n/a	n/a	n/a	n/a	n/a	n/a	n/a	ITI	poldrack-single-stim	s499	False	0
436.865	1.275	438.14	3.751014084012336	draw_card	1.275	columbia_card_task_fmri	15.0	0.8333333333333334	89.0	-70.0	0.1666666666666666	12.0	1.0	2.0	-2.9130569225357448	1.275	n/a	stim	poldrack-single-stim	s499	False	1
438.149	0.456	438.605	2.463135296133545	draw_card	0.456	columbia_card_task_fmri	15.0	0.8181818181818181	89.0	-70.0	0.1818181818181818	12.0	2.0	2.0	-1.8111519167629595	0.456	n/a	stim	poldrack-single-stim	s499	False	1
438.616	0.306	438.922	0.917680750679002	draw_card	0.306	columbia_card_task_fmri	15.0	0.8	89.0	-70.0	0.2	12.0	3.0	2.0	-0.5998104085525284	0.306	n/a	stim	poldrack-single-stim	s499	False	1
438.935	0.441	439.376	-0.9712081382098874	draw_card	0.441	columbia_card_task_fmri	15.0	0.7777777777777778	89.0	-70.0	0.2222222222222222	12.0	4.0	2.0	0.7333503598998945	0.441	n/a	stim	poldrack-single-stim	s499	False	1
439.388	0.389	439.777	-3.332319249320998	draw_card	0.389	columbia_card_task_fmri	15.0	0.75	89.0	-70.0	0.25	12.0	5.0	2.0	2.196773407912083	0.389	n/a	stim	poldrack-single-stim	s499	False	1
439.789	0.982	440.771	-6.368033535035282	draw_card	0.982	columbia_card_task_fmri	15.0	0.7142857142857143	89.0	-70.0	0.2857142857142857	12.0	6.0	2.0	3.78500361433288	0.982	6.0	stim	poldrack-single-stim	s499	False	0
441.533	1.5	440.782	n/a	-1.0	2.386	columbia_card_task_fmri	n/a	n/a	-1.0	n/a	n/a	n/a	n/a	n/a	n/a	n/a	n/a	ITI	poldrack-single-stim	s499	False	0
443.178	1.214	444.392	1.7176807506790026	draw_card	1.214	columbia_card_task_fmri	16.0	0.8	89.0	-70.0	0.2	15.0	1.0	3.0	-0.2012581973196532	1.214	n/a	stim	poldrack-single-stim	s499	False	1
444.402	0.396	444.798	0.4891093221075731	draw_card	0.396	columbia_card_task_fmri	16.0	0.7857142857142857	89.0	-70.0	0.2142857142857142	15.0	2.0	3.0	0.6836720062307364	0.396	n/a	stim	poldrack-single-stim	s499	False	1
444.807	0.671	445.478	-0.9284730954748448	draw_card	0.671	columbia_card_task_fmri	16.0	0.7692307692307692	89.0	-70.0	0.2307692307692307	15.0	3.0	3.0	1.6264648594032636	0.671	n/a	stim	poldrack-single-stim	s499	False	1
445.488	1.259	446.747	-2.582319249320998	draw_card	1.259	columbia_card_task_fmri	16.0	0.75	89.0	-70.0	0.25	15.0	4.0	3.0	2.6284476351676105	1.259	n/a	stim	poldrack-single-stim	s499	False	1
446.758	1.999	448.757	-4.536864703866451	draw_card	1.999	columbia_card_task_fmri	16.0	0.7272727272727273	89.0	-70.0	0.2727272727272727	15.0	5.0	3.0	3.687312402582016	1.999	n/a	stim	poldrack-single-stim	s499	False	1
448.769	0.852	449.621	-6.882319249320998	draw_card	0.852	columbia_card_task_fmri	16.0	0.7	89.0	-70.0	0.3	15.0	6.0	3.0	4.793236884085822	0.852	n/a	stim	poldrack-single-stim	s499	False	1
449.63	1.604	451.234	-9.748985915987662	draw_card	1.604	columbia_card_task_fmri	16.0	0.6666666666666667	89.0	-70.0	0.3333333333333333	15.0	7.0	3.0	5.92087458646953	1.604	n/a	stim	poldrack-single-stim	s499	False	1
451.246	2.392	453.638	-13.332319249320998	end_round	2.392	columbia_card_task_fmri	16.0	0.625	71.0	-70.0	0.375	15.0	8.0	3.0	7.0119089346113554	2.392	7.0	stim	poldrack-single-stim	s499	False	1
454.401	1.5	453.65	n/a	-1.0	2.726	columbia_card_task_fmri	n/a	n/a	-1.0	n/a	n/a	n/a	n/a	n/a	n/a	n/a	n/a	ITI	poldrack-single-stim	s499	False	0
456.389	1.68	458.069	2.105180750679002	draw_card	1.68	columbia_card_task_fmri	14.0	0.8125	89.0	-65.0	0.1875	16.0	1.0	3.0	-3.752359530369049	1.68	n/a	stim	poldrack-single-stim	s499	False	1
458.082	0.493	458.575	1.117680750679003	draw_card	0.493	columbia_card_task_fmri	14.0	0.8	89.0	-65.0	0.2	16.0	2.0	3.0	-2.990358603430103	0.493	n/a	stim	poldrack-single-stim	s499	False	1
458.588	0.589	459.177	-0.0108906778924251	draw_card	0.589	columbia_card_task_fmri	14.0	0.7857142857142857	89.0	-65.0	0.2142857142857142	16.0	3.0	3.0	-2.1779809252207443	0.589	n/a	stim	poldrack-single-stim	s499	False	1
459.187	1.707	460.894	-1.3130884800902298	draw_card	1.707	columbia_card_task_fmri	14.0	0.7692307692307692	89.0	-65.0	0.2307692307692307	16.0	4.0	3.0	-1.312456559075386	1.707	n/a	stim	poldrack-single-stim	s499	False	1
460.908	0.648	461.556	-2.832319249320998	draw_card	0.648	columbia_card_task_fmri	14.0	0.75	89.0	-65.0	0.25	16.0	5.0	3.0	-0.3925640243376804	0.648	5.0	stim	poldrack-single-stim	s499	False	0
462.315	1.5	461.564	n/a	-1.0	2.454	columbia_card_task_fmri	n/a	n/a	-1.0	n/a	n/a	n/a	n/a	n/a	n/a	n/a	n/a	ITI	poldrack-single-stim	s499	False	0
464.029	0.76	464.789	1.855180750679002	draw_card	0.76	columbia_card_task_fmri	16.0	0.8125	89.0	-75.0	0.1875	16.0	1.0	3.0	0.9132919722907716	0.76	n/a	stim	poldrack-single-stim	s499	False	1
464.801	0.432	465.233	0.7176807506790026	draw_card	0.432	columbia_card_task_fmri	16.0	0.8	89.0	-75.0	0.2	16.0	2.0	3.0	1.791977767967026	0.432	n/a	stim	poldrack-single-stim	s499	False	1
465.245	0.302	465.547	-0.5823192493209963	draw_card	0.302	columbia_card_task_fmri	16.0	0.7857142857142857	89.0	-75.0	0.2142857142857142	16.0	3.0	3.0	2.728706043196304	0.302	n/a	stim	poldrack-single-stim	s499	False	1
465.557	0.708	466.265	-2.0823192493210017	draw_card	0.708	columbia_card_task_fmri	16.0	0.7692307692307692	89.0	-75.0	0.2307692307692307	16.0	4.0	3.0	3.726665186456685	0.708	n/a	stim	poldrack-single-stim	s499	False	1
466.275	0.489	466.764	-3.832319249320998	draw_card	0.489	columbia_card_task_fmri	16.0	0.75	89.0	-75.0	0.25	16.0	5.0	3.0	4.787258144472361	0.489	5.0	stim	poldrack-single-stim	s499	False	0
467.526	1.5	466.775	n/a	-1.0	2.318	columbia_card_task_fmri	n/a	n/a	-1.0	n/a	n/a	n/a	n/a	n/a	n/a	n/a	n/a	ITI	poldrack-single-stim	s499	False	0
469.104	0.799	469.903	6.117680750679003	draw_card	0.799	columbia_card_task_fmri	16.0	0.8666666666666667	89.0	-80.0	0.1333333333333333	15.0	1.0	2.0	-1.9608742171046032	0.799	n/a	stim	poldrack-single-stim	s499	False	1
469.916	0.425	470.341	5.203395036393291	draw_card	0.425	columbia_card_task_fmri	16.0	0.8571428571428572	89.0	-80.0	0.1428571428571428	15.0	2.0	2.0	-1.0052999127766071	0.425	n/a	stim	poldrack-single-stim	s499	False	1
470.354	0.343	470.697	4.148449981448232	draw_card	0.343	columbia_card_task_fmri	16.0	0.8461538461538461	89.0	-80.0	0.1538461538461538	15.0	3.0	2.0	0.034816354900002	0.343	n/a	stim	poldrack-single-stim	s499	False	1
470.71	0.368	471.078	2.917680750679004	draw_card	0.368	columbia_card_task_fmri	16.0	0.8333333333333334	89.0	-80.0	0.1666666666666666	15.0	4.0	2.0	1.171091424923851	0.368	n/a	stim	poldrack-single-stim	s499	False	1
471.09	1.101	472.191	1.463135296133545	draw_card	1.101	columbia_card_task_fmri	16.0	0.8181818181818181	89.0	-80.0	0.1818181818181818	15.0	5.0	2.0	2.416690314230678	1.101	n/a	stim	poldrack-single-stim	s499	False	1
472.203	0.509	472.712	-0.2823192493209974	draw_card	0.509	columbia_card_task_fmri	16.0	0.8	89.0	-80.0	0.2	15.0	6.0	2.0	3.7859151134716456	0.509	n/a	stim	poldrack-single-stim	s499	False	1
472.725	0.647	473.372	-2.415652582654332	draw_card	0.647	columbia_card_task_fmri	16.0	0.7777777777777778	89.0	-80.0	0.2222222222222222	15.0	7.0	2.0	5.292748127310681	0.647	n/a	stim	poldrack-single-stim	s499	False	1
473.384	2.572	475.956	-5.082319249320998	draw_card	2.572	columbia_card_task_fmri	16.0	0.75	89.0	-80.0	0.25	15.0	8.0	2.0	6.946717476199744	2.572	n/a	stim	poldrack-single-stim	s499	False	1
475.97	1.07	477.04	-8.510890677892423	end_round	1.07	columbia_card_task_fmri	16.0	0.7142857142857143	71.0	-80.0	0.2857142857142857	15.0	9.0	2.0	8.741644567265979	1.07	8.0	stim	poldrack-single-stim	s499	False	1
477.802	1.5	477.051	n/a	-1.0	2.318	columbia_card_task_fmri	n/a	n/a	-1.0	n/a	n/a	n/a	n/a	n/a	n/a	n/a	n/a	ITI	poldrack-single-stim	s499	False	0
479.382	1.413	480.795	6.984347417345671	draw_card	1.413	columbia_card_task_fmri	17.0	0.8666666666666667	89.0	-80.0	0.1333333333333333	15.0	1.0	2.0	-1.6222763000425076	1.413	n/a	stim	poldrack-single-stim	s499	False	1
480.806	0.355	481.161	6.060537893536148	draw_card	0.355	columbia_card_task_fmri	17.0	0.8571428571428572	89.0	-80.0	0.1428571428571428	15.0	2.0	2.0	-0.6566717835268818	0.355	n/a	stim	poldrack-single-stim	s499	False	1
481.175	0.298	481.473	4.994603827602079	draw_card	0.298	columbia_card_task_fmri	17.0	0.8461538461538461	89.0	-80.0	0.1538461538461538	15.0	3.0	2.0	0.3943573237765605	0.298	n/a	stim	poldrack-single-stim	s499	False	1
481.484	0.411	481.895	3.7510140840123376	draw_card	0.411	columbia_card_task_fmri	17.0	0.8333333333333334	89.0	-80.0	0.1666666666666666	15.0	4.0	2.0	1.5425489395065597	0.411	n/a	stim	poldrack-single-stim	s499	False	1
481.909	0.875	482.784	2.2813171143153634	draw_card	0.875	columbia_card_task_fmri	17.0	0.8181818181818181	89.0	-80.0	0.1818181818181818	15.0	5.0	2.0	2.8012052457491663	0.875	n/a	stim	poldrack-single-stim	s499	False	1
482.797	1.076	483.873	0.5176807506790033	draw_card	1.076	columbia_card_task_fmri	17.0	0.8	89.0	-80.0	0.2	15.0	6.0	2.0	4.1847772600351405	1.076	n/a	stim	poldrack-single-stim	s499	False	1
483.886	0.669	484.555	-1.6378748048765537	draw_card	0.669	columbia_card_task_fmri	17.0	0.7777777777777778	89.0	-80.0	0.2222222222222222	15.0	7.0	2.0	5.7073927152912205	0.669	n/a	stim	poldrack-single-stim	s499	False	1
484.566	0.947	485.513	-4.332319249320998	draw_card	0.947	columbia_card_task_fmri	17.0	0.75	89.0	-80.0	0.25	15.0	8.0	2.0	7.378678416453781	0.947	n/a	stim	poldrack-single-stim	s499	False	1
485.526	1.703	487.229	-7.796604963606709	draw_card	1.703	columbia_card_task_fmri	17.0	0.7142857142857143	89.0	-80.0	0.2857142857142857	15.0	9.0	2.0	9.192390091663178	1.703	9.0	stim	poldrack-single-stim	s499	False	0
487.99	1.5	487.239	n/a	-1.0	2.59	columbia_card_task_fmri	n/a	n/a	-1.0	n/a	n/a	n/a	n/a	n/a	n/a	n/a	n/a	ITI	poldrack-single-stim	s499	False	0
489.84	1.511	491.351	2.917680750679002	end_round	1.511	columbia_card_task_fmri	1.0	0.9375	71.0	-15.0	0.0625	16.0	1.0	1.0	-29.875763726804752	1.511	0.0	stim	poldrack-single-stim	s499	False	1
492.113	1.5	491.362	n/a	-1.0	2.726	columbia_card_task_fmri	n/a	n/a	-1.0	n/a	n/a	n/a	n/a	n/a	n/a	n/a	n/a	ITI	poldrack-single-stim	s499	False	0
494.126	1.491	495.617	6.042680750679002	draw_card	1.491	columbia_card_task_fmri	10.0	0.9375	89.0	-100.0	0.0625	16.0	1.0	1.0	-7.93863103235039	1.491	n/a	stim	poldrack-single-stim	s499	False	1
495.631	0.222	495.853	5.584347417345668	draw_card	0.222	columbia_card_task_fmri	10.0	0.9333333333333332	89.0	-100.0	0.0666666666666666	16.0	2.0	1.0	-7.131260711967258	0.222	n/a	stim	poldrack-single-stim	s499	False	1
495.866	1.946	497.812	5.0605378935361465	draw_card	1.946	columbia_card_task_fmri	10.0	0.9285714285714286	89.0	-100.0	0.0714285714285714	16.0	3.0	1.0	-6.24558661093895	1.946	n/a	stim	poldrack-single-stim	s499	False	1
497.825	0.247	498.072	4.456142289140541	draw_card	0.247	columbia_card_task_fmri	10.0	0.9230769230769232	89.0	-100.0	0.0769230769230769	16.0	4.0	1.0	-5.268285757833269	0.247	n/a	stim	poldrack-single-stim	s499	False	1
498.085	0.355	498.44	3.751014084012336	draw_card	0.355	columbia_card_task_fmri	10.0	0.9166666666666666	89.0	-100.0	0.0833333333333333	16.0	5.0	1.0	-4.182693744001256	0.355	n/a	stim	poldrack-single-stim	s499	False	1
498.453	0.517	498.97	2.917680750679	draw_card	0.517	columbia_card_task_fmri	10.0	0.9090909090909092	89.0	-100.0	0.0909090909090909	16.0	6.0	1.0	-2.9676784031481844	0.517	n/a	stim	poldrack-single-stim	s499	False	1
498.983	0.453	499.436	1.917680750679002	draw_card	0.453	columbia_card_task_fmri	10.0	0.9	89.0	-100.0	0.1	16.0	7.0	1.0	-1.596038256417728	0.453	n/a	stim	poldrack-single-stim	s499	False	1
499.45	0.655	500.105	0.6954585284567805	draw_card	0.655	columbia_card_task_fmri	10.0	0.8888888888888888	89.0	-100.0	0.1111111111111111	16.0	8.0	1.0	-0.032197371044333	0.655	n/a	stim	poldrack-single-stim	s499	False	1
500.119	2.041	502.16	-0.8323192493209981	draw_card	2.041	columbia_card_task_fmri	10.0	0.875	89.0	-100.0	0.125	16.0	9.0	1.0	1.7711252150178538	2.041	n/a	stim	poldrack-single-stim	s499	False	1
502.171	3.386	505.557	-2.79660496360671	draw_card	3.386	columbia_card_task_fmri	10.0	0.8571428571428572	89.0	-100.0	0.1428571428571428	16.0	10.0	1.0	3.8776330467888585	3.386	n/a	stim	poldrack-single-stim	s499	False	1
505.569	2.435	508.004	-5.415652582654328	draw_card	2.435	columbia_card_task_fmri	10.0	0.8333333333333334	89.0	-100.0	0.1666666666666666	16.0	11.0	1.0	6.373507627307447	2.435	n/a	stim	poldrack-single-stim	s499	False	1
508.017	1.084	509.101	-9.082319249320998	end_round	1.084	columbia_card_task_fmri	10.0	0.8	71.0	-100.0	0.2	16.0	12.0	1.0	9.37186103816991	1.084	11.0	stim	poldrack-single-stim	s499	False	1
509.865	1.5	509.114	n/a	-1.0	2.522	columbia_card_task_fmri	n/a	n/a	-1.0	n/a	n/a	n/a	n/a	n/a	n/a	n/a	n/a	ITI	poldrack-single-stim	s499	False	0
511.65	2.751	514.401	6.667680750679002	draw_card	2.751	columbia_card_task_fmri	15.0	0.875	89.0	-75.0	0.125	16.0	1.0	2.0	-4.817406920697859	2.751	n/a	stim	poldrack-single-stim	s499	False	1
514.413	0.24	514.653	5.917680750679002	draw_card	0.24	columbia_card_task_fmri	15.0	0.8666666666666667	89.0	-75.0	0.1333333333333333	16.0	2.0	2.0	-3.991841950331352	0.24	n/a	stim	poldrack-single-stim	s499	False	1
514.665	0.193	514.858	5.0605378935361465	draw_card	0.193	columbia_card_task_fmri	15.0	0.8571428571428572	89.0	-75.0	0.1428571428571428	16.0	3.0	2.0	-3.096466198476204	0.193	n/a	stim	poldrack-single-stim	s499	False	1
514.869	0.211	515.08	4.071526904525156	draw_card	0.211	columbia_card_task_fmri	15.0	0.8461538461538461	89.0	-75.0	0.1538461538461538	16.0	4.0	2.0	-2.121844722260235	0.211	n/a	stim	poldrack-single-stim	s499	False	1
515.092	0.386	515.478	2.917680750679002	draw_card	0.386	columbia_card_task_fmri	15.0	0.8333333333333334	89.0	-75.0	0.1666666666666666	16.0	5.0	2.0	-1.057087171574686	0.386	n/a	stim	poldrack-single-stim	s499	False	1
515.491	0.521	516.012	1.5540443870426368	draw_card	0.521	columbia_card_task_fmri	15.0	0.8181818181818181	89.0	-75.0	0.1818181818181818	16.0	6.0	2.0	0.110148471727868	0.521	n/a	stim	poldrack-single-stim	s499	False	1
516.023	0.47	516.493	-0.0823192493209981	draw_card	0.47	columbia_card_task_fmri	15.0	0.8	89.0	-75.0	0.2	16.0	7.0	2.0	1.3932707480445998	0.47	7.0	stim	poldrack-single-stim	s499	False	0
517.258	1.5	516.507	n/a	-1.0	3.134	columbia_card_task_fmri	n/a	n/a	-1.0	n/a	n/a	n/a	n/a	n/a	n/a	n/a	n/a	ITI	poldrack-single-stim	s499	False	0
519.655	0.904	520.559	6.917680750679002	draw_card	0.904	columbia_card_task_fmri	16.0	0.875	89.0	-80.0	0.125	16.0	1.0	2.0	-2.841971084071844	0.904	n/a	stim	poldrack-single-stim	s499	False	1
520.573	0.288	520.861	6.117680750679003	draw_card	0.288	columbia_card_task_fmri	16.0	0.8666666666666667	89.0	-80.0	0.1333333333333333	16.0	2.0	2.0	-1.9608742171046032	0.288	n/a	stim	poldrack-single-stim	s499	False	1
520.876	0.291	521.167	5.203395036393291	draw_card	0.291	columbia_card_task_fmri	16.0	0.8571428571428572	89.0	-80.0	0.1428571428571428	16.0	3.0	2.0	-1.0052999127766071	0.291	3.0	stim	poldrack-single-stim	s499	False	0
521.932	1.5	521.181	n/a	-1.0	2.386	columbia_card_task_fmri	n/a	n/a	-1.0	n/a	n/a	n/a	n/a	n/a	n/a	n/a	n/a	ITI	poldrack-single-stim	s499	False	0
523.581	1.716	525.297	4.105180750679002	draw_card	1.716	columbia_card_task_fmri	4.0	0.6875	89.0	-5.0	0.3125	16.0	1.0	5.0	-29.634072048728463	1.716	n/a	stim	poldrack-single-stim	s499	False	1
525.312	0.22	525.532	3.9176807506790015	draw_card	0.22	columbia_card_task_fmri	4.0	0.6666666666666667	89.0	-5.0	0.3333333333333333	16.0	2.0	5.0	-29.5757058237047	0.22	2.0	stim	poldrack-single-stim	s499	False	0
526.297	1.5	525.546	n/a	-1.0	2.386	columbia_card_task_fmri	n/a	n/a	-1.0	n/a	n/a	n/a	n/a	n/a	n/a	n/a	n/a	ITI	poldrack-single-stim	s499	False	0
527.944	1.722	529.666	1.2510140840123376	end_round	1.722	columbia_card_task_fmri	14.0	0.8333333333333334	71.0	-80.0	0.1666666666666666	6.0	1.0	1.0	0.4282539030097538	1.722	0.0	stim	poldrack-single-stim	s499	False	1
530.427	1.5	529.676	n/a	-1.0	2.318	columbia_card_task_fmri	n/a	n/a	-1.0	n/a	n/a	n/a	n/a	n/a	n/a	n/a	n/a	ITI	poldrack-single-stim	s499	False	0
532.009	0.934	532.943	2.917680750679002	draw_card	0.934	columbia_card_task_fmri	15.0	0.8333333333333334	89.0	-75.0	0.1666666666666666	6.0	1.0	1.0	-1.057087171574686	0.934	n/a	stim	poldrack-single-stim	s499	False	1
532.956	0.249	533.205	-0.0823192493209981	draw_card	0.249	columbia_card_task_fmri	15.0	0.8	89.0	-75.0	0.2	6.0	2.0	1.0	1.3932707480445998	0.249	2.0	stim	poldrack-single-stim	s499	False	0
533.972	1.5	533.221	n/a	-1.0	2.318	columbia_card_task_fmri	n/a	n/a	-1.0	n/a	n/a	n/a	n/a	n/a	n/a	n/a	n/a	ITI	poldrack-single-stim	s499	False	0
535.554	0.869	536.423	4.58434741734567	draw_card	0.869	columbia_card_task_fmri	16.0	0.8333333333333334	89.0	-70.0	0.1666666666666666	6.0	1.0	1.0	-2.541931576550631	0.869	n/a	stim	poldrack-single-stim	s499	False	1
536.435	0.254	536.689	1.7176807506790026	draw_card	0.254	columbia_card_task_fmri	16.0	0.8	89.0	-70.0	0.2	6.0	2.0	1.0	-0.2012581973196532	0.254	n/a	stim	poldrack-single-stim	s499	False	1
536.703	0.472	537.175	-2.582319249320998	draw_card	0.472	columbia_card_task_fmri	16.0	0.75	89.0	-70.0	0.25	6.0	3.0	1.0	2.6284476351676105	0.472	n/a	stim	poldrack-single-stim	s499	False	1
537.189	1.633	538.822	-9.748985915987662	end_round	1.633	columbia_card_task_fmri	16.0	0.6666666666666667	71.0	-70.0	0.3333333333333333	6.0	4.0	1.0	5.92087458646953	1.633	3.0	stim	poldrack-single-stim	s499	False	1
539.585	1.5	538.834	n/a	-1.0	2.862	columbia_card_task_fmri	n/a	n/a	-1.0	n/a	n/a	n/a	n/a	n/a	n/a	n/a	n/a	ITI	poldrack-single-stim	s499	False	0
541.709	1.147	542.856	5.167680750679002	draw_card	1.147	columbia_card_task_fmri	23.0	0.75	89.0	-60.0	0.25	8.0	1.0	2.0	1.3335212444091482	1.147	n/a	stim	poldrack-single-stim	s499	False	1
542.87	0.971	543.841	2.20339503639329	draw_card	0.971	columbia_card_task_fmri	23.0	0.7142857142857143	89.0	-60.0	0.2857142857142857	8.0	2.0	2.0	2.8841549393446044	0.971	n/a	stim	poldrack-single-stim	s499	False	1
543.855	0.672	544.527	-1.7489859159876624	draw_card	0.672	columbia_card_task_fmri	23.0	0.6666666666666667	89.0	-60.0	0.3333333333333333	8.0	3.0	2.0	4.51044067776413	0.672	n/a	stim	poldrack-single-stim	s499	False	1
544.539	2.954	547.493	-7.282319249320999	draw_card	2.954	columbia_card_task_fmri	23.0	0.6	89.0	-60.0	0.4	8.0	4.0	2.0	6.041304968235117	2.954	n/a	stim	poldrack-single-stim	s499	False	1
547.505	4.001	551.506	-15.582319249320998	draw_card	4.001	columbia_card_task_fmri	23.0	0.5	89.0	-60.0	0.5	8.0	5.0	2.0	6.877668251460918	4.001	n/a	stim	poldrack-single-stim	s499	False	1
551.518	2.7	554.218	-29.415652582654328	draw_card	2.7	columbia_card_task_fmri	23.0	0.3333333333333333	89.0	-60.0	0.6666666666666666	8.0	6.0	2.0	4.51044067776413	2.7	n/a	stim	poldrack-single-stim	s499	False	1
554.23	1.497	555.727	-57.082319249321	end_round	1.497	columbia_card_task_fmri	23.0	0.0	71.0	-60.0	1.0	8.0	7.0	2.0	-31.80708915913715	1.497	6.0	stim	poldrack-single-stim	s499	False	1
556.493	1.5	555.742	n/a	-1.0	2.726	columbia_card_task_fmri	n/a	n/a	-1.0	n/a	n/a	n/a	n/a	n/a	n/a	n/a	n/a	ITI	poldrack-single-stim	s499	False	0
558.484	1.062	559.546	5.667680750679002	draw_card	1.062	columbia_card_task_fmri	27.0	0.75	89.0	-70.0	0.25	8.0	1.0	2.0	7.378678416453781	1.062	n/a	stim	poldrack-single-stim	s499	False	1
559.561	0.529	560.09	2.2033950363932866	draw_card	0.529	columbia_card_task_fmri	27.0	0.7142857142857143	89.0	-70.0	0.2857142857142857	8.0	2.0	2.0	9.192390091663178	0.529	2.0	stim	poldrack-single-stim	s499	False	0
560.857	1.5	560.106	n/a	-1.0	2.25	columbia_card_task_fmri	n/a	n/a	-1.0	n/a	n/a	n/a	n/a	n/a	n/a	n/a	n/a	ITI	poldrack-single-stim	s499	False	0
562.369	0.791	563.16	0.9176807506790036	draw_card	0.791	columbia_card_task_fmri	16.0	0.7777777777777778	89.0	-65.0	0.2222222222222222	9.0	1.0	2.0	-0.9236921021059032	0.791	n/a	stim	poldrack-single-stim	s499	False	1
563.174	0.548	563.722	-1.332319249320998	draw_card	0.548	columbia_card_task_fmri	16.0	0.75	89.0	-65.0	0.25	9.0	2.0	2.0	0.4704053413867157	0.548	n/a	stim	poldrack-single-stim	s499	False	1
563.734	0.45	564.184	-4.225176392178138	draw_card	0.45	columbia_card_task_fmri	16.0	0.7142857142857143	89.0	-65.0	0.2857142857142857	9.0	3.0	2.0	1.9834369763778028	0.45	n/a	stim	poldrack-single-stim	s499	False	1
564.197	0.942	565.139	-8.082319249320994	draw_card	0.942	columbia_card_task_fmri	16.0	0.6666666666666667	89.0	-65.0	0.3333333333333333	9.0	4.0	2.0	3.5703062875604843	0.942	n/a	stim	poldrack-single-stim	s499	False	1
565.152	1.119	566.271	-13.482319249320996	draw_card	1.119	columbia_card_task_fmri	16.0	0.6	89.0	-65.0	0.4	9.0	5.0	2.0	5.064083566539296	1.119	n/a	stim	poldrack-single-stim	s499	False	1
566.283	0.694	566.977	-21.582319249321	end_round	0.694	columbia_card_task_fmri	16.0	0.5	71.0	-65.0	0.5	9.0	6.0	2.0	5.880191128988976	0.694	5.0	stim	poldrack-single-stim	s499	False	1
567.739	1.5	566.988	n/a	-1.0	2.318	columbia_card_task_fmri	n/a	n/a	-1.0	n/a	n/a	n/a	n/a	n/a	n/a	n/a	n/a	ITI	poldrack-single-stim	s499	False	0
569.322	0.885	570.207	6.117680750679003	draw_card	0.885	columbia_card_task_fmri	13.0	0.9	89.0	-85.0	0.1	10.0	1.0	1.0	-5.180348084996449	0.885	n/a	stim	poldrack-single-stim	s499	False	1
570.223	0.587	570.81	5.028791861790113	draw_card	0.587	columbia_card_task_fmri	13.0	0.8888888888888888	89.0	-85.0	0.1111111111111111	10.0	2.0	1.0	-3.788447070160082	0.587	n/a	stim	poldrack-single-stim	s499	False	1
570.826	3.785	574.611	3.667680750679002	draw_card	3.785	columbia_card_task_fmri	13.0	0.875	89.0	-85.0	0.125	10.0	3.0	1.0	-2.183252413502572	3.785	n/a	stim	poldrack-single-stim	s499	False	1
574.624	0.473	575.097	1.917680750679004	draw_card	0.473	columbia_card_task_fmri	13.0	0.8571428571428572	89.0	-85.0	0.1428571428571428	10.0	4.0	1.0	-0.3080172889937955	0.473	n/a	stim	poldrack-single-stim	s499	False	1
575.11	0.817	575.927	-0.4156525826543302	draw_card	0.817	columbia_card_task_fmri	13.0	0.8333333333333334	89.0	-85.0	0.1666666666666666	10.0	5.0	1.0	1.914031242128921	0.817	n/a	stim	poldrack-single-stim	s499	False	1
575.94	2.503	578.443	-3.6823192493209977	draw_card	2.503	columbia_card_task_fmri	13.0	0.8	89.0	-85.0	0.2	10.0	6.0	1.0	4.583662531110349	2.503	n/a	stim	poldrack-single-stim	s499	False	1
578.456	2.293	580.749	-8.582319249320998	end_round	2.293	columbia_card_task_fmri	13.0	0.75	71.0	-85.0	0.25	10.0	7.0	1.0	7.810660744673321	2.293	6.0	stim	poldrack-single-stim	s499	False	1
581.515	1.5	580.764	n/a	-1.0	2.454	columbia_card_task_fmri	n/a	n/a	-1.0	n/a	n/a	n/a	n/a	n/a	n/a	n/a	n/a	ITI	poldrack-single-stim	s499	False	0
583.234	0.791	584.025	1.117680750679003	draw_card	0.791	columbia_card_task_fmri	14.0	0.8	89.0	-65.0	0.2	10.0	1.0	2.0	-2.990358603430103	0.791	n/a	stim	poldrack-single-stim	s499	False	1
584.039	0.357	584.396	-0.6378748048765517	draw_card	0.357	columbia_card_task_fmri	14.0	0.7777777777777778	89.0	-65.0	0.2222222222222222	10.0	2.0	2.0	-1.751989939246883	0.357	n/a	stim	poldrack-single-stim	s499	False	1
584.412	0.282	584.694	-2.832319249320998	draw_card	0.282	columbia_card_task_fmri	14.0	0.75	89.0	-65.0	0.25	10.0	3.0	2.0	-0.3925640243376804	0.282	n/a	stim	poldrack-single-stim	s499	False	1
584.709	0.428	585.137	-5.653747820749567	draw_card	0.428	columbia_card_task_fmri	14.0	0.7142857142857143	89.0	-65.0	0.2857142857142857	10.0	4.0	2.0	1.0828595893651354	0.428	n/a	stim	poldrack-single-stim	s499	False	1
585.152	0.489	585.641	-9.415652582654328	draw_card	0.489	columbia_card_task_fmri	14.0	0.6666666666666667	89.0	-65.0	0.3333333333333333	10.0	5.0	2.0	2.6303067177557864	0.489	n/a	stim	poldrack-single-stim	s499	False	1
585.655	0.519	586.174	-14.682319249321	draw_card	0.519	columbia_card_task_fmri	14.0	0.6	89.0	-65.0	0.4	10.0	6.0	2.0	4.086991979627655	0.519	6.0	stim	poldrack-single-stim	s499	False	0
586.939	1.5	586.188	n/a	-1.0	2.522	columbia_card_task_fmri	n/a	n/a	-1.0	n/a	n/a	n/a	n/a	n/a	n/a	n/a	n/a	ITI	poldrack-single-stim	s499	False	0
