duration	onset	block_duration	movement_onset	planning	condition	exp_stage	experiment_exp_id	key_press	problem_id	response_time	trial_id	trial_type	worker_id	junk
4.972	3.014	4.972	7.986	1	UA_with_intermediate	practice	ward_and_allport	71	0.0	4.972	to_hand	poldrack-single-stim	s499	False
0.1	7.991	0.509	8.5	0	UA_with_intermediate	practice	ward_and_allport	82	0.0	0.509	to_board	poldrack-single-stim	s499	False
0.1	8.504	0.647	9.151	0	UA_with_intermediate	practice	ward_and_allport	71	0.0	0.647	to_hand	poldrack-single-stim	s499	False
0.1	9.154	0.454	9.608	0	UA_with_intermediate	practice	ward_and_allport	89	0.0	0.454	to_board	poldrack-single-stim	s499	False
0.1	9.61	0.623	10.233	0	UA_with_intermediate	practice	ward_and_allport	82	0.0	0.623	to_hand	poldrack-single-stim	s499	False
0.1	10.236	0.358	10.594	0	UA_with_intermediate	practice	ward_and_allport	89	0.0	0.358	to_board	poldrack-single-stim	s499	False
1.0	10.605	2.5	10.604	0	UA_with_intermediate	practice	ward_and_allport	-1	0.0	n/a	feedback	poldrack-single-stim	s499	False
4.253	13.109	4.253	17.362	1	UA_with_intermediate	practice	ward_and_allport	71	1.0	4.253	to_hand	poldrack-single-stim	s499	False
0.1	17.365	0.782	18.147	0	UA_with_intermediate	practice	ward_and_allport	71	1.0	0.782	to_board	poldrack-single-stim	s499	False
0.1	18.15	1.055	19.205	0	UA_with_intermediate	practice	ward_and_allport	89	1.0	1.055	to_hand	poldrack-single-stim	s499	False
0.1	19.207	0.498	19.705	0	UA_with_intermediate	practice	ward_and_allport	82	1.0	0.498	to_board	poldrack-single-stim	s499	False
0.1	19.708	0.473	20.181	0	UA_with_intermediate	practice	ward_and_allport	71	1.0	0.473	to_hand	poldrack-single-stim	s499	False
0.1	20.184	0.369	20.553	0	UA_with_intermediate	practice	ward_and_allport	89	1.0	0.369	to_board	poldrack-single-stim	s499	False
0.1	20.556	0.612	21.168	0	UA_with_intermediate	practice	ward_and_allport	82	1.0	0.612	to_hand	poldrack-single-stim	s499	False
0.1	21.17	0.39	21.56	0	UA_with_intermediate	practice	ward_and_allport	89	1.0	0.39	to_board	poldrack-single-stim	s499	False
1.0	21.565	2.1	21.564	0	UA_with_intermediate	practice	ward_and_allport	-1	1.0	n/a	feedback	poldrack-single-stim	s499	False
2.443	23.67	2.443	26.113	1	UA_without_intermediate	practice	ward_and_allport	71	2.0	2.443	to_hand	poldrack-single-stim	s499	False
0.1	26.115	0.424	26.539	0	UA_without_intermediate	practice	ward_and_allport	82	2.0	0.424	to_board	poldrack-single-stim	s499	False
0.1	26.546	1.233	27.779	0	UA_without_intermediate	practice	ward_and_allport	71	2.0	1.233	to_hand	poldrack-single-stim	s499	False
0.1	27.781	0.425	28.206	0	UA_without_intermediate	practice	ward_and_allport	82	2.0	0.425	to_board	poldrack-single-stim	s499	False
0.1	28.209	2.948	31.157	0	UA_without_intermediate	practice	ward_and_allport	82	2.0	2.948	to_hand	poldrack-single-stim	s499	False
0.1	31.159	0.418	31.577	0	UA_without_intermediate	practice	ward_and_allport	71	2.0	0.418	to_board	poldrack-single-stim	s499	False
0.1	31.581	1.182	32.763	0	UA_without_intermediate	practice	ward_and_allport	71	2.0	1.182	to_hand	poldrack-single-stim	s499	False
0.1	32.765	0.966	33.731	0	UA_without_intermediate	practice	ward_and_allport	71	2.0	0.966	to_board	poldrack-single-stim	s499	False
0.1	33.736	0.604	34.34	0	UA_without_intermediate	practice	ward_and_allport	82	2.0	0.604	to_hand	poldrack-single-stim	s499	False
0.1	34.343	0.382	34.725	0	UA_without_intermediate	practice	ward_and_allport	71	2.0	0.382	to_board	poldrack-single-stim	s499	False
0.1	34.729	0.653	35.382	0	UA_without_intermediate	practice	ward_and_allport	82	2.0	0.653	to_hand	poldrack-single-stim	s499	False
0.1	35.384	0.497	35.881	0	UA_without_intermediate	practice	ward_and_allport	89	2.0	0.497	to_board	poldrack-single-stim	s499	False
0.1	35.887	0.651	36.538	0	UA_without_intermediate	practice	ward_and_allport	71	2.0	0.651	to_hand	poldrack-single-stim	s499	False
0.1	36.54	0.695	37.235	0	UA_without_intermediate	practice	ward_and_allport	89	2.0	0.695	to_board	poldrack-single-stim	s499	False
0.1	37.24	1.182	38.422	0	UA_without_intermediate	practice	ward_and_allport	71	2.0	1.182	to_hand	poldrack-single-stim	s499	False
0.1	38.424	0.535	38.959	0	UA_without_intermediate	practice	ward_and_allport	89	2.0	0.535	to_board	poldrack-single-stim	s499	False
1.0	38.964	2.2	38.963	0	UA_without_intermediate	practice	ward_and_allport	-1	2.0	n/a	feedback	poldrack-single-stim	s499	False
2.306	41.168	2.306	43.474	1	UA_without_intermediate	practice	ward_and_allport	71	3.0	2.306	to_hand	poldrack-single-stim	s499	False
0.1	43.476	0.612	44.088	0	UA_without_intermediate	practice	ward_and_allport	89	3.0	0.612	to_board	poldrack-single-stim	s499	False
0.1	44.093	0.703	44.796	0	UA_without_intermediate	practice	ward_and_allport	82	3.0	0.703	to_hand	poldrack-single-stim	s499	False
0.1	44.799	1.123	45.922	0	UA_without_intermediate	practice	ward_and_allport	89	3.0	1.123	to_board	poldrack-single-stim	s499	False
0.1	45.926	0.487	46.413	0	UA_without_intermediate	practice	ward_and_allport	71	3.0	0.487	to_hand	poldrack-single-stim	s499	False
0.1	46.416	0.456	46.872	0	UA_without_intermediate	practice	ward_and_allport	89	3.0	0.456	to_board	poldrack-single-stim	s499	False
1.0	46.878	2.0	46.877	0	UA_without_intermediate	practice	ward_and_allport	-1	3.0	n/a	feedback	poldrack-single-stim	s499	False
4.421	50.891	4.421	55.312	1	PA_without_intermediate	test	ward_and_allport	89	0.0	4.421	to_hand	poldrack-single-stim	s499	False
0.1	55.315	0.577	55.892	0	PA_without_intermediate	test	ward_and_allport	71	0.0	0.577	to_board	poldrack-single-stim	s499	False
0.1	55.898	1.147	57.045	0	PA_without_intermediate	test	ward_and_allport	89	0.0	1.147	to_hand	poldrack-single-stim	s499	False
0.1	57.047	0.425	57.472	0	PA_without_intermediate	test	ward_and_allport	71	0.0	0.425	to_board	poldrack-single-stim	s499	False
0.1	57.478	1.223	58.701	0	PA_without_intermediate	test	ward_and_allport	89	0.0	1.223	to_hand	poldrack-single-stim	s499	False
0.1	58.703	0.335	59.038	0	PA_without_intermediate	test	ward_and_allport	82	0.0	0.335	to_board	poldrack-single-stim	s499	False
1.0	59.047	3.088	59.046	0	PA_without_intermediate	test	ward_and_allport	-1	0.0	n/a	feedback	poldrack-single-stim	s499	False
3.418	62.139	3.418	65.557	1	PA_with_intermediate	test	ward_and_allport	89	1.0	3.418	to_hand	poldrack-single-stim	s499	False
0.1	65.559	0.66	66.219	0	PA_with_intermediate	test	ward_and_allport	71	1.0	0.66	to_board	poldrack-single-stim	s499	False
0.1	66.224	3.699	69.923	0	PA_with_intermediate	test	ward_and_allport	89	1.0	3.699	to_hand	poldrack-single-stim	s499	False
0.1	69.925	0.374	70.299	0	PA_with_intermediate	test	ward_and_allport	82	1.0	0.374	to_board	poldrack-single-stim	s499	False
0.1	70.307	0.45	70.757	0	PA_with_intermediate	test	ward_and_allport	71	1.0	0.45	to_hand	poldrack-single-stim	s499	False
0.1	70.759	0.298	71.057	0	PA_with_intermediate	test	ward_and_allport	89	1.0	0.298	to_board	poldrack-single-stim	s499	False
1.0	71.064	2.0	71.063	0	PA_with_intermediate	test	ward_and_allport	-1	1.0	n/a	feedback	poldrack-single-stim	s499	False
3.638	73.069	3.638	76.707	1	PA_without_intermediate	test	ward_and_allport	89	2.0	3.638	to_hand	poldrack-single-stim	s499	False
0.1	76.71	0.294	77.004	0	PA_without_intermediate	test	ward_and_allport	82	2.0	0.294	to_board	poldrack-single-stim	s499	False
0.1	77.01	1.835	78.845	0	PA_without_intermediate	test	ward_and_allport	89	2.0	1.835	to_hand	poldrack-single-stim	s499	False
0.1	78.847	0.468	79.315	0	PA_without_intermediate	test	ward_and_allport	82	2.0	0.468	to_board	poldrack-single-stim	s499	False
0.1	79.321	0.741	80.062	0	PA_without_intermediate	test	ward_and_allport	89	2.0	0.741	to_hand	poldrack-single-stim	s499	False
0.1	80.064	0.234	80.298	0	PA_without_intermediate	test	ward_and_allport	71	2.0	0.234	to_board	poldrack-single-stim	s499	False
1.0	80.307	2.0	80.306	0	PA_without_intermediate	test	ward_and_allport	-1	2.0	n/a	feedback	poldrack-single-stim	s499	False
4.788	82.313	4.788	87.101	1	PA_without_intermediate	test	ward_and_allport	89	3.0	4.788	to_hand	poldrack-single-stim	s499	False
0.1	87.103	0.51	87.613	0	PA_without_intermediate	test	ward_and_allport	82	3.0	0.51	to_board	poldrack-single-stim	s499	False
0.1	87.62	3.014	90.634	0	PA_without_intermediate	test	ward_and_allport	82	3.0	3.014	to_hand	poldrack-single-stim	s499	False
0.1	90.636	0.476	91.112	0	PA_without_intermediate	test	ward_and_allport	71	3.0	0.476	to_board	poldrack-single-stim	s499	False
0.1	91.119	0.979	92.098	0	PA_without_intermediate	test	ward_and_allport	89	3.0	0.979	to_hand	poldrack-single-stim	s499	False
0.1	92.101	0.34	92.441	0	PA_without_intermediate	test	ward_and_allport	82	3.0	0.34	to_board	poldrack-single-stim	s499	False
0.1	92.448	3.616	96.064	0	PA_without_intermediate	test	ward_and_allport	89	3.0	3.616	to_hand	poldrack-single-stim	s499	False
0.1	96.067	0.616	96.683	0	PA_without_intermediate	test	ward_and_allport	82	3.0	0.616	to_board	poldrack-single-stim	s499	False
0.1	96.69	4.033	100.723	0	PA_without_intermediate	test	ward_and_allport	82	3.0	4.033	to_hand	poldrack-single-stim	s499	False
0.1	100.725	0.402	101.127	0	PA_without_intermediate	test	ward_and_allport	71	3.0	0.402	to_board	poldrack-single-stim	s499	False
1.0	101.135	2.0	101.134	0	PA_without_intermediate	test	ward_and_allport	-1	3.0	n/a	feedback	poldrack-single-stim	s499	False
4.351	103.142	4.351	107.493	1	PA_with_intermediate	test	ward_and_allport	71	4.0	4.351	to_hand	poldrack-single-stim	s499	False
0.1	107.495	0.427	107.922	0	PA_with_intermediate	test	ward_and_allport	82	4.0	0.427	to_board	poldrack-single-stim	s499	False
0.1	107.93	0.784	108.714	0	PA_with_intermediate	test	ward_and_allport	71	4.0	0.784	to_hand	poldrack-single-stim	s499	False
0.1	108.715	0.481	109.196	0	PA_with_intermediate	test	ward_and_allport	89	4.0	0.481	to_board	poldrack-single-stim	s499	False
0.1	109.203	0.511	109.714	0	PA_with_intermediate	test	ward_and_allport	82	4.0	0.511	to_hand	poldrack-single-stim	s499	False
0.1	109.716	0.38	110.096	0	PA_with_intermediate	test	ward_and_allport	71	4.0	0.38	to_board	poldrack-single-stim	s499	False
0.1	110.106	1.525	111.631	0	PA_with_intermediate	test	ward_and_allport	71	4.0	1.525	to_hand	poldrack-single-stim	s499	False
0.1	111.633	0.476	112.109	0	PA_with_intermediate	test	ward_and_allport	89	4.0	0.476	to_board	poldrack-single-stim	s499	False
1.0	112.117	2.544	112.116	0	PA_with_intermediate	test	ward_and_allport	-1	4.0	n/a	feedback	poldrack-single-stim	s499	False
3.825	114.668	3.825	118.493	1	PA_without_intermediate	test	ward_and_allport	82	5.0	3.825	to_hand	poldrack-single-stim	s499	False
0.1	118.496	0.396	118.892	0	PA_without_intermediate	test	ward_and_allport	71	5.0	0.396	to_board	poldrack-single-stim	s499	False
0.1	118.9	1.119	120.019	0	PA_without_intermediate	test	ward_and_allport	82	5.0	1.119	to_hand	poldrack-single-stim	s499	False
0.1	120.022	0.369	120.391	0	PA_without_intermediate	test	ward_and_allport	71	5.0	0.369	to_board	poldrack-single-stim	s499	False
0.1	120.398	0.873	121.271	0	PA_without_intermediate	test	ward_and_allport	82	5.0	0.873	to_hand	poldrack-single-stim	s499	False
0.1	121.273	0.274	121.547	0	PA_without_intermediate	test	ward_and_allport	89	5.0	0.274	to_board	poldrack-single-stim	s499	False
1.0	121.559	2.272	121.558	0	PA_without_intermediate	test	ward_and_allport	-1	5.0	n/a	feedback	poldrack-single-stim	s499	False
3.72	123.839	3.72	127.559	1	PA_with_intermediate	test	ward_and_allport	89	6.0	3.72	to_hand	poldrack-single-stim	s499	False
0.1	127.562	0.378	127.94	0	PA_with_intermediate	test	ward_and_allport	71	6.0	0.378	to_board	poldrack-single-stim	s499	False
0.1	127.947	0.996	128.943	0	PA_with_intermediate	test	ward_and_allport	89	6.0	0.996	to_hand	poldrack-single-stim	s499	False
0.1	128.945	0.332	129.277	0	PA_with_intermediate	test	ward_and_allport	82	6.0	0.332	to_board	poldrack-single-stim	s499	False
0.1	129.286	0.643	129.929	0	PA_with_intermediate	test	ward_and_allport	71	6.0	0.643	to_hand	poldrack-single-stim	s499	False
0.1	129.931	0.34	130.271	0	PA_with_intermediate	test	ward_and_allport	82	6.0	0.34	to_board	poldrack-single-stim	s499	False
1.0	130.28	4.04	130.279	0	PA_with_intermediate	test	ward_and_allport	-1	6.0	n/a	feedback	poldrack-single-stim	s499	False
3.313	134.33	3.313	137.643	1	PA_with_intermediate	test	ward_and_allport	89	7.0	3.313	to_hand	poldrack-single-stim	s499	False
0.1	137.644	2.341	139.985	0	PA_with_intermediate	test	ward_and_allport	71	7.0	2.341	to_board	poldrack-single-stim	s499	False
0.1	139.993	1.699	141.692	0	PA_with_intermediate	test	ward_and_allport	89	7.0	1.699	to_hand	poldrack-single-stim	s499	False
0.1	141.694	0.392	142.086	0	PA_with_intermediate	test	ward_and_allport	82	7.0	0.392	to_board	poldrack-single-stim	s499	False
0.1	142.095	0.585	142.68	0	PA_with_intermediate	test	ward_and_allport	71	7.0	0.585	to_hand	poldrack-single-stim	s499	False
0.1	142.682	0.298	142.98	0	PA_with_intermediate	test	ward_and_allport	89	7.0	0.298	to_board	poldrack-single-stim	s499	False
1.0	142.993	2.272	142.992	0	PA_with_intermediate	test	ward_and_allport	-1	7.0	n/a	feedback	poldrack-single-stim	s499	False
3.94	145.274	3.94	149.214	1	PA_with_intermediate	test	ward_and_allport	71	8.0	3.94	to_hand	poldrack-single-stim	s499	False
0.1	149.216	0.352	149.568	0	PA_with_intermediate	test	ward_and_allport	82	8.0	0.352	to_board	poldrack-single-stim	s499	False
0.1	149.579	0.917	150.496	0	PA_with_intermediate	test	ward_and_allport	71	8.0	0.917	to_hand	poldrack-single-stim	s499	False
0.1	150.497	0.268	150.765	0	PA_with_intermediate	test	ward_and_allport	89	8.0	0.268	to_board	poldrack-single-stim	s499	False
0.1	150.776	0.974	151.75	0	PA_with_intermediate	test	ward_and_allport	82	8.0	0.974	to_hand	poldrack-single-stim	s499	False
0.1	151.753	0.258	152.011	0	PA_with_intermediate	test	ward_and_allport	71	8.0	0.258	to_board	poldrack-single-stim	s499	False
1.0	152.022	2.136	152.021	0	PA_with_intermediate	test	ward_and_allport	-1	8.0	n/a	feedback	poldrack-single-stim	s499	False
7.643	154.167	7.643	161.81	1	PA_with_intermediate	test	ward_and_allport	82	9.0	7.643	to_hand	poldrack-single-stim	s499	False
0.1	161.812	0.26	162.072	0	PA_with_intermediate	test	ward_and_allport	89	9.0	0.26	to_board	poldrack-single-stim	s499	False
0.1	162.083	1.237	163.32	0	PA_with_intermediate	test	ward_and_allport	82	9.0	1.237	to_hand	poldrack-single-stim	s499	False
0.1	163.322	0.299	163.621	0	PA_with_intermediate	test	ward_and_allport	71	9.0	0.299	to_board	poldrack-single-stim	s499	False
0.1	163.633	0.659	164.292	0	PA_with_intermediate	test	ward_and_allport	89	9.0	0.659	to_hand	poldrack-single-stim	s499	False
0.1	164.295	0.212	164.507	0	PA_with_intermediate	test	ward_and_allport	82	9.0	0.212	to_board	poldrack-single-stim	s499	False
1.0	164.521	2.0	164.52	0	PA_with_intermediate	test	ward_and_allport	-1	9.0	n/a	feedback	poldrack-single-stim	s499	False
3.21	166.533	3.21	169.743	1	PA_with_intermediate	test	ward_and_allport	82	10.0	3.21	to_hand	poldrack-single-stim	s499	False
0.1	169.745	0.209	169.954	0	PA_with_intermediate	test	ward_and_allport	71	10.0	0.209	to_board	poldrack-single-stim	s499	False
0.1	169.965	0.836	170.801	0	PA_with_intermediate	test	ward_and_allport	82	10.0	0.836	to_hand	poldrack-single-stim	s499	False
0.1	170.803	0.214	171.017	0	PA_with_intermediate	test	ward_and_allport	89	10.0	0.214	to_board	poldrack-single-stim	s499	False
0.1	171.028	0.75	171.778	0	PA_with_intermediate	test	ward_and_allport	71	10.0	0.75	to_hand	poldrack-single-stim	s499	False
0.1	171.78	0.205	171.985	0	PA_with_intermediate	test	ward_and_allport	89	10.0	0.205	to_board	poldrack-single-stim	s499	False
1.0	171.998	2.0	171.997	0	PA_with_intermediate	test	ward_and_allport	-1	10.0	n/a	feedback	poldrack-single-stim	s499	False
2.823	174.008	2.823	176.831	1	PA_without_intermediate	test	ward_and_allport	71	11.0	2.823	to_hand	poldrack-single-stim	s499	False
0.1	176.833	0.208	177.041	0	PA_without_intermediate	test	ward_and_allport	82	11.0	0.208	to_board	poldrack-single-stim	s499	False
0.1	177.049	1.053	178.102	0	PA_without_intermediate	test	ward_and_allport	71	11.0	1.053	to_hand	poldrack-single-stim	s499	False
0.1	178.104	0.198	178.302	0	PA_without_intermediate	test	ward_and_allport	82	11.0	0.198	to_board	poldrack-single-stim	s499	False
0.1	178.314	1.101	179.415	0	PA_without_intermediate	test	ward_and_allport	71	11.0	1.101	to_hand	poldrack-single-stim	s499	False
0.1	179.416	0.203	179.619	0	PA_without_intermediate	test	ward_and_allport	89	11.0	0.203	to_board	poldrack-single-stim	s499	False
1.0	179.632	2.408	179.631	0	PA_without_intermediate	test	ward_and_allport	-1	11.0	n/a	feedback	poldrack-single-stim	s499	False
2.207	182.051	2.207	184.258	1	PA_with_intermediate	test	ward_and_allport	82	12.0	2.207	to_hand	poldrack-single-stim	s499	False
0.1	184.261	0.553	184.814	0	PA_with_intermediate	test	ward_and_allport	71	12.0	0.553	to_board	poldrack-single-stim	s499	False
0.1	184.827	1.716	186.543	0	PA_with_intermediate	test	ward_and_allport	82	12.0	1.716	to_hand	poldrack-single-stim	s499	False
0.1	186.545	0.33	186.875	0	PA_with_intermediate	test	ward_and_allport	89	12.0	0.33	to_board	poldrack-single-stim	s499	False
0.1	186.886	1.046	187.932	0	PA_with_intermediate	test	ward_and_allport	71	12.0	1.046	to_hand	poldrack-single-stim	s499	False
0.1	187.934	0.329	188.263	0	PA_with_intermediate	test	ward_and_allport	82	12.0	0.329	to_board	poldrack-single-stim	s499	False
1.0	188.274	3.768	188.273	0	PA_with_intermediate	test	ward_and_allport	-1	12.0	n/a	feedback	poldrack-single-stim	s499	False
3.059	192.053	3.059	195.112	1	PA_with_intermediate	test	ward_and_allport	89	13.0	3.059	to_hand	poldrack-single-stim	s499	False
0.1	195.114	1.056	196.17	0	PA_with_intermediate	test	ward_and_allport	82	13.0	1.056	to_board	poldrack-single-stim	s499	False
0.1	196.183	1.36	197.543	0	PA_with_intermediate	test	ward_and_allport	89	13.0	1.36	to_hand	poldrack-single-stim	s499	False
0.1	197.546	0.339	197.885	0	PA_with_intermediate	test	ward_and_allport	71	13.0	0.339	to_board	poldrack-single-stim	s499	False
0.1	197.895	0.935	198.83	0	PA_with_intermediate	test	ward_and_allport	82	13.0	0.935	to_hand	poldrack-single-stim	s499	False
0.1	198.832	0.345	199.177	0	PA_with_intermediate	test	ward_and_allport	71	13.0	0.345	to_board	poldrack-single-stim	s499	False
1.0	199.191	2.68	199.19	0	PA_with_intermediate	test	ward_and_allport	-1	13.0	n/a	feedback	poldrack-single-stim	s499	False
3.029	201.881	3.029	204.91	1	PA_without_intermediate	test	ward_and_allport	82	14.0	3.029	to_hand	poldrack-single-stim	s499	False
0.1	204.911	0.242	205.153	0	PA_without_intermediate	test	ward_and_allport	71	14.0	0.242	to_board	poldrack-single-stim	s499	False
0.1	205.165	2.124	207.289	0	PA_without_intermediate	test	ward_and_allport	82	14.0	2.124	to_hand	poldrack-single-stim	s499	False
0.1	207.291	0.614	207.905	0	PA_without_intermediate	test	ward_and_allport	89	14.0	0.614	to_board	poldrack-single-stim	s499	False
0.1	207.918	0.7	208.618	0	PA_without_intermediate	test	ward_and_allport	82	14.0	0.7	to_hand	poldrack-single-stim	s499	False
0.1	208.621	0.37	208.991	0	PA_without_intermediate	test	ward_and_allport	71	14.0	0.37	to_board	poldrack-single-stim	s499	False
1.0	209.006	3.224	209.005	0	PA_without_intermediate	test	ward_and_allport	-1	14.0	n/a	feedback	poldrack-single-stim	s499	False
3.18	217.245	3.18	220.425	1	PA_without_intermediate	test	ward_and_allport	82	15.0	3.18	to_hand	poldrack-single-stim	s499	False
0.1	220.427	0.321	220.748	0	PA_without_intermediate	test	ward_and_allport	71	15.0	0.321	to_board	poldrack-single-stim	s499	False
0.1	220.761	1.556	222.317	0	PA_without_intermediate	test	ward_and_allport	82	15.0	1.556	to_hand	poldrack-single-stim	s499	False
0.1	222.319	0.199	222.518	0	PA_without_intermediate	test	ward_and_allport	89	15.0	0.199	to_board	poldrack-single-stim	s499	False
0.1	222.53	0.814	223.344	0	PA_without_intermediate	test	ward_and_allport	82	15.0	0.814	to_hand	poldrack-single-stim	s499	False
0.1	223.347	0.384	223.731	0	PA_without_intermediate	test	ward_and_allport	71	15.0	0.384	to_board	poldrack-single-stim	s499	False
1.0	223.743	3.36	223.742	0	PA_without_intermediate	test	ward_and_allport	-1	15.0	n/a	feedback	poldrack-single-stim	s499	False
2.507	227.117	2.507	229.624	1	PA_without_intermediate	test	ward_and_allport	89	16.0	2.507	to_hand	poldrack-single-stim	s499	False
0.1	229.625	0.243	229.868	0	PA_without_intermediate	test	ward_and_allport	82	16.0	0.243	to_board	poldrack-single-stim	s499	False
0.1	229.882	1.946	231.828	0	PA_without_intermediate	test	ward_and_allport	89	16.0	1.946	to_hand	poldrack-single-stim	s499	False
0.1	231.83	0.182	232.012	0	PA_without_intermediate	test	ward_and_allport	71	16.0	0.182	to_board	poldrack-single-stim	s499	False
0.1	232.024	0.704	232.728	0	PA_without_intermediate	test	ward_and_allport	89	16.0	0.704	to_hand	poldrack-single-stim	s499	False
0.1	232.73	0.412	233.142	0	PA_without_intermediate	test	ward_and_allport	82	16.0	0.412	to_board	poldrack-single-stim	s499	False
1.0	233.156	2.0	233.155	0	PA_without_intermediate	test	ward_and_allport	-1	16.0	n/a	feedback	poldrack-single-stim	s499	False
2.627	235.169	2.627	237.796	1	PA_without_intermediate	test	ward_and_allport	71	17.0	2.627	to_hand	poldrack-single-stim	s499	False
0.1	237.798	0.217	238.015	0	PA_without_intermediate	test	ward_and_allport	82	17.0	0.217	to_board	poldrack-single-stim	s499	False
0.1	238.027	1.43	239.457	0	PA_without_intermediate	test	ward_and_allport	71	17.0	1.43	to_hand	poldrack-single-stim	s499	False
0.1	239.459	0.216	239.675	0	PA_without_intermediate	test	ward_and_allport	89	17.0	0.216	to_board	poldrack-single-stim	s499	False
0.1	239.686	0.485	240.171	0	PA_without_intermediate	test	ward_and_allport	71	17.0	0.485	to_hand	poldrack-single-stim	s499	False
0.1	240.173	0.318	240.491	0	PA_without_intermediate	test	ward_and_allport	82	17.0	0.318	to_board	poldrack-single-stim	s499	False
1.0	240.503	2.408	240.502	0	PA_without_intermediate	test	ward_and_allport	-1	17.0	n/a	feedback	poldrack-single-stim	s499	False
3.662	242.924	3.662	246.586	1	PA_with_intermediate	test	ward_and_allport	82	18.0	3.662	to_hand	poldrack-single-stim	s499	False
0.1	246.589	0.207	246.796	0	PA_with_intermediate	test	ward_and_allport	71	18.0	0.207	to_board	poldrack-single-stim	s499	False
0.1	246.809	0.549	247.358	0	PA_with_intermediate	test	ward_and_allport	82	18.0	0.549	to_hand	poldrack-single-stim	s499	False
0.1	247.36	0.261	247.621	0	PA_with_intermediate	test	ward_and_allport	89	18.0	0.261	to_board	poldrack-single-stim	s499	False
0.1	247.634	0.466	248.1	0	PA_with_intermediate	test	ward_and_allport	71	18.0	0.466	to_hand	poldrack-single-stim	s499	False
0.1	248.102	0.192	248.294	0	PA_with_intermediate	test	ward_and_allport	89	18.0	0.192	to_board	poldrack-single-stim	s499	False
0.1	248.308	4.315	252.623	0	PA_with_intermediate	test	ward_and_allport	89	18.0	4.315	to_hand	poldrack-single-stim	s499	False
0.1	252.625	0.263	252.888	0	PA_with_intermediate	test	ward_and_allport	71	18.0	0.263	to_board	poldrack-single-stim	s499	False
0.1	252.902	2.381	255.283	0	PA_with_intermediate	test	ward_and_allport	71	18.0	2.381	to_hand	poldrack-single-stim	s499	False
0.1	255.285	0.589	255.874	0	PA_with_intermediate	test	ward_and_allport	82	18.0	0.589	to_board	poldrack-single-stim	s499	False
0.1	255.89	0.868	256.758	0	PA_with_intermediate	test	ward_and_allport	89	18.0	0.868	to_hand	poldrack-single-stim	s499	False
0.1	256.76	0.41	257.17	0	PA_with_intermediate	test	ward_and_allport	71	18.0	0.41	to_board	poldrack-single-stim	s499	False
0.1	257.186	0.53	257.716	0	PA_with_intermediate	test	ward_and_allport	82	18.0	0.53	to_hand	poldrack-single-stim	s499	False
0.1	257.719	0.28	257.999	0	PA_with_intermediate	test	ward_and_allport	71	18.0	0.28	to_board	poldrack-single-stim	s499	False
1.0	258.014	2.136	258.013	0	PA_with_intermediate	test	ward_and_allport	-1	18.0	n/a	feedback	poldrack-single-stim	s499	False
2.801	260.163	2.801	262.964	1	PA_without_intermediate	test	ward_and_allport	89	19.0	2.801	to_hand	poldrack-single-stim	s499	False
0.1	262.966	0.201	263.167	0	PA_without_intermediate	test	ward_and_allport	71	19.0	0.201	to_board	poldrack-single-stim	s499	False
0.1	263.181	1.209	264.39	0	PA_without_intermediate	test	ward_and_allport	89	19.0	1.209	to_hand	poldrack-single-stim	s499	False
0.1	264.392	0.191	264.583	0	PA_without_intermediate	test	ward_and_allport	82	19.0	0.191	to_board	poldrack-single-stim	s499	False
0.1	264.596	1.203	265.799	0	PA_without_intermediate	test	ward_and_allport	89	19.0	1.203	to_hand	poldrack-single-stim	s499	False
0.1	265.801	0.319	266.12	0	PA_without_intermediate	test	ward_and_allport	71	19.0	0.319	to_board	poldrack-single-stim	s499	False
1.0	266.135	5.128	266.134	0	PA_without_intermediate	test	ward_and_allport	-1	19.0	n/a	feedback	poldrack-single-stim	s499	False
2.899	271.281	2.899	274.18	1	PA_without_intermediate	test	ward_and_allport	71	20.0	2.899	to_hand	poldrack-single-stim	s499	False
0.1	274.182	0.219	274.401	0	PA_without_intermediate	test	ward_and_allport	89	20.0	0.219	to_board	poldrack-single-stim	s499	False
0.1	274.415	1.803	276.218	0	PA_without_intermediate	test	ward_and_allport	71	20.0	1.803	to_hand	poldrack-single-stim	s499	False
0.1	276.22	0.264	276.484	0	PA_without_intermediate	test	ward_and_allport	82	20.0	0.264	to_board	poldrack-single-stim	s499	False
0.1	276.499	0.747	277.246	0	PA_without_intermediate	test	ward_and_allport	71	20.0	0.747	to_hand	poldrack-single-stim	s499	False
0.1	277.246	0.234	277.48	0	PA_without_intermediate	test	ward_and_allport	89	20.0	0.234	to_board	poldrack-single-stim	s499	False
1.0	277.496	2.136	277.495	0	PA_without_intermediate	test	ward_and_allport	-1	20.0	n/a	feedback	poldrack-single-stim	s499	False
3.871	279.65	3.871	283.521	1	PA_without_intermediate	test	ward_and_allport	82	21.0	3.871	to_hand	poldrack-single-stim	s499	False
0.1	283.523	0.23	283.753	0	PA_without_intermediate	test	ward_and_allport	89	21.0	0.23	to_board	poldrack-single-stim	s499	False
0.1	283.77	0.85	284.62	0	PA_without_intermediate	test	ward_and_allport	82	21.0	0.85	to_hand	poldrack-single-stim	s499	False
0.1	284.622	1.002	285.624	0	PA_without_intermediate	test	ward_and_allport	89	21.0	1.002	to_board	poldrack-single-stim	s499	False
0.1	285.64	0.395	286.035	0	PA_without_intermediate	test	ward_and_allport	82	21.0	0.395	to_hand	poldrack-single-stim	s499	False
0.1	286.038	0.581	286.619	0	PA_without_intermediate	test	ward_and_allport	71	21.0	0.581	to_board	poldrack-single-stim	s499	False
1.0	286.637	5.264	286.636	0	PA_without_intermediate	test	ward_and_allport	-1	21.0	n/a	feedback	poldrack-single-stim	s499	False
2.889	291.919	2.889	294.808	1	PA_with_intermediate	test	ward_and_allport	71	22.0	2.889	to_hand	poldrack-single-stim	s499	False
0.1	294.81	0.273	295.083	0	PA_with_intermediate	test	ward_and_allport	89	22.0	0.273	to_board	poldrack-single-stim	s499	False
0.1	295.1	1.129	296.229	0	PA_with_intermediate	test	ward_and_allport	71	22.0	1.129	to_hand	poldrack-single-stim	s499	False
0.1	296.231	0.289	296.52	0	PA_with_intermediate	test	ward_and_allport	82	22.0	0.289	to_board	poldrack-single-stim	s499	False
0.1	296.54	0.824	297.364	0	PA_with_intermediate	test	ward_and_allport	89	22.0	0.824	to_hand	poldrack-single-stim	s499	False
0.1	297.366	0.354	297.72	0	PA_with_intermediate	test	ward_and_allport	71	22.0	0.354	to_board	poldrack-single-stim	s499	False
1.0	297.737	4.04	297.736	0	PA_with_intermediate	test	ward_and_allport	-1	22.0	n/a	feedback	poldrack-single-stim	s499	False
2.335	301.794	2.335	304.129	1	PA_with_intermediate	test	ward_and_allport	82	23.0	2.335	to_hand	poldrack-single-stim	s499	False
0.1	304.131	1.925	306.056	0	PA_with_intermediate	test	ward_and_allport	71	23.0	1.925	to_board	poldrack-single-stim	s499	False
0.1	306.076	0.954	307.03	0	PA_with_intermediate	test	ward_and_allport	82	23.0	0.954	to_hand	poldrack-single-stim	s499	False
0.1	307.032	0.288	307.32	0	PA_with_intermediate	test	ward_and_allport	89	23.0	0.288	to_board	poldrack-single-stim	s499	False
0.1	307.339	0.425	307.764	0	PA_with_intermediate	test	ward_and_allport	71	23.0	0.425	to_hand	poldrack-single-stim	s499	False
0.1	307.766	0.236	308.002	0	PA_with_intermediate	test	ward_and_allport	82	23.0	0.236	to_board	poldrack-single-stim	s499	False
1.0	308.022	2.136	308.021	0	PA_with_intermediate	test	ward_and_allport	-1	23.0	n/a	feedback	poldrack-single-stim	s499	False
4.239	310.176	4.239	314.415	1	PA_with_intermediate	test	ward_and_allport	89	24.0	4.239	to_hand	poldrack-single-stim	s499	False
0.1	314.415	0.241	314.656	0	PA_with_intermediate	test	ward_and_allport	82	24.0	0.241	to_board	poldrack-single-stim	s499	False
0.1	314.671	1.454	316.125	0	PA_with_intermediate	test	ward_and_allport	89	24.0	1.454	to_hand	poldrack-single-stim	s499	False
0.1	316.127	0.32	316.447	0	PA_with_intermediate	test	ward_and_allport	71	24.0	0.32	to_board	poldrack-single-stim	s499	False
0.1	316.463	1.514	317.977	0	PA_with_intermediate	test	ward_and_allport	82	24.0	1.514	to_hand	poldrack-single-stim	s499	False
0.1	317.979	0.315	318.294	0	PA_with_intermediate	test	ward_and_allport	89	24.0	0.315	to_board	poldrack-single-stim	s499	False
1.0	318.313	2.408	318.312	0	PA_with_intermediate	test	ward_and_allport	-1	24.0	n/a	feedback	poldrack-single-stim	s499	False
2.905	320.74	2.905	323.645	1	PA_without_intermediate	test	ward_and_allport	89	25.0	2.905	to_hand	poldrack-single-stim	s499	False
0.1	323.647	0.178	323.825	0	PA_without_intermediate	test	ward_and_allport	82	25.0	0.178	to_board	poldrack-single-stim	s499	False
0.1	323.843	1.416	325.259	0	PA_without_intermediate	test	ward_and_allport	89	25.0	1.416	to_hand	poldrack-single-stim	s499	False
0.1	325.261	0.181	325.442	0	PA_without_intermediate	test	ward_and_allport	71	25.0	0.181	to_board	poldrack-single-stim	s499	False
0.1	325.467	0.618	326.085	0	PA_without_intermediate	test	ward_and_allport	89	25.0	0.618	to_hand	poldrack-single-stim	s499	False
0.1	326.086	0.157	326.243	0	PA_without_intermediate	test	ward_and_allport	82	25.0	0.157	to_board	poldrack-single-stim	s499	False
1.0	326.262	2.68	326.261	0	PA_without_intermediate	test	ward_and_allport	-1	25.0	n/a	feedback	poldrack-single-stim	s499	False
5.239	328.959	5.239	334.198	1	PA_with_intermediate	test	ward_and_allport	82	26.0	5.239	to_hand	poldrack-single-stim	s499	False
0.1	334.199	0.456	334.655	0	PA_with_intermediate	test	ward_and_allport	89	26.0	0.456	to_board	poldrack-single-stim	s499	False
0.1	334.671	1.481	336.152	0	PA_with_intermediate	test	ward_and_allport	89	26.0	1.481	to_hand	poldrack-single-stim	s499	False
0.1	336.155	0.5	336.655	0	PA_with_intermediate	test	ward_and_allport	71	26.0	0.5	to_board	poldrack-single-stim	s499	False
0.1	336.674	0.604	337.278	0	PA_with_intermediate	test	ward_and_allport	82	26.0	0.604	to_hand	poldrack-single-stim	s499	False
0.1	337.281	0.518	337.799	0	PA_with_intermediate	test	ward_and_allport	89	26.0	0.518	to_board	poldrack-single-stim	s499	False
0.1	337.82	0.811	338.631	0	PA_with_intermediate	test	ward_and_allport	71	26.0	0.811	to_hand	poldrack-single-stim	s499	False
0.1	338.633	0.211	338.844	0	PA_with_intermediate	test	ward_and_allport	89	26.0	0.211	to_board	poldrack-single-stim	s499	False
1.0	338.865	4.72	338.864	0	PA_with_intermediate	test	ward_and_allport	-1	26.0	n/a	feedback	poldrack-single-stim	s499	False
4.668	343.605	4.668	348.273	1	PA_without_intermediate	test	ward_and_allport	71	27.0	4.668	to_hand	poldrack-single-stim	s499	False
0.1	348.276	0.149	348.425	0	PA_without_intermediate	test	ward_and_allport	89	27.0	0.149	to_board	poldrack-single-stim	s499	False
0.1	348.443	1.502	349.945	0	PA_without_intermediate	test	ward_and_allport	71	27.0	1.502	to_hand	poldrack-single-stim	s499	False
0.1	349.948	0.251	350.199	0	PA_without_intermediate	test	ward_and_allport	82	27.0	0.251	to_board	poldrack-single-stim	s499	False
0.1	350.22	1.423	351.643	0	PA_without_intermediate	test	ward_and_allport	71	27.0	1.423	to_hand	poldrack-single-stim	s499	False
0.1	351.645	0.168	351.813	0	PA_without_intermediate	test	ward_and_allport	89	27.0	0.168	to_board	poldrack-single-stim	s499	False
1.0	351.834	3.224	351.833	0	PA_without_intermediate	test	ward_and_allport	-1	27.0	n/a	feedback	poldrack-single-stim	s499	False
3.66	355.08	3.66	358.74	1	PA_without_intermediate	test	ward_and_allport	71	28.0	3.66	to_hand	poldrack-single-stim	s499	False
0.1	358.742	0.262	359.004	0	PA_without_intermediate	test	ward_and_allport	82	28.0	0.262	to_board	poldrack-single-stim	s499	False
0.1	359.025	1.864	360.889	0	PA_without_intermediate	test	ward_and_allport	71	28.0	1.864	to_hand	poldrack-single-stim	s499	False
0.1	360.891	0.194	361.085	0	PA_without_intermediate	test	ward_and_allport	82	28.0	0.194	to_board	poldrack-single-stim	s499	False
0.1	361.106	0.829	361.935	0	PA_without_intermediate	test	ward_and_allport	71	28.0	0.829	to_hand	poldrack-single-stim	s499	False
0.1	361.936	0.175	362.111	0	PA_without_intermediate	test	ward_and_allport	89	28.0	0.175	to_board	poldrack-single-stim	s499	False
1.0	362.133	2.272	362.132	0	PA_without_intermediate	test	ward_and_allport	-1	28.0	n/a	feedback	poldrack-single-stim	s499	False
3.837	364.423	3.837	368.26	1	PA_with_intermediate	test	ward_and_allport	89	29.0	3.837	to_hand	poldrack-single-stim	s499	False
0.1	368.262	0.26	368.522	0	PA_with_intermediate	test	ward_and_allport	82	29.0	0.26	to_board	poldrack-single-stim	s499	False
0.1	368.544	1.078	369.622	0	PA_with_intermediate	test	ward_and_allport	89	29.0	1.078	to_hand	poldrack-single-stim	s499	False
0.1	369.624	0.199	369.823	0	PA_with_intermediate	test	ward_and_allport	71	29.0	0.199	to_board	poldrack-single-stim	s499	False
0.1	369.844	0.785	370.629	0	PA_with_intermediate	test	ward_and_allport	82	29.0	0.785	to_hand	poldrack-single-stim	s499	False
0.1	370.63	0.292	370.922	0	PA_with_intermediate	test	ward_and_allport	71	29.0	0.292	to_board	poldrack-single-stim	s499	False
1.0	370.945	3.632	370.944	0	PA_with_intermediate	test	ward_and_allport	-1	29.0	n/a	feedback	poldrack-single-stim	s499	False
2.503	379.599	2.503	382.102	1	PA_without_intermediate	test	ward_and_allport	82	30.0	2.503	to_hand	poldrack-single-stim	s499	False
0.1	382.105	0.907	383.012	0	PA_without_intermediate	test	ward_and_allport	71	30.0	0.907	to_board	poldrack-single-stim	s499	False
0.1	383.032	0.737	383.769	0	PA_without_intermediate	test	ward_and_allport	82	30.0	0.737	to_hand	poldrack-single-stim	s499	False
0.1	383.771	0.226	383.997	0	PA_without_intermediate	test	ward_and_allport	71	30.0	0.226	to_board	poldrack-single-stim	s499	False
0.1	384.02	0.683	384.703	0	PA_without_intermediate	test	ward_and_allport	82	30.0	0.683	to_hand	poldrack-single-stim	s499	False
0.1	384.705	0.189	384.894	0	PA_without_intermediate	test	ward_and_allport	89	30.0	0.189	to_board	poldrack-single-stim	s499	False
1.0	384.914	2.408	384.913	0	PA_without_intermediate	test	ward_and_allport	-1	30.0	n/a	feedback	poldrack-single-stim	s499	False
3.023	387.336	3.023	390.359	1	PA_without_intermediate	test	ward_and_allport	71	31.0	3.023	to_hand	poldrack-single-stim	s499	False
0.1	390.36	0.439	390.799	0	PA_without_intermediate	test	ward_and_allport	82	31.0	0.439	to_board	poldrack-single-stim	s499	False
0.1	390.812	1.006	391.818	0	PA_without_intermediate	test	ward_and_allport	71	31.0	1.006	to_hand	poldrack-single-stim	s499	False
0.1	391.82	0.169	391.989	0	PA_without_intermediate	test	ward_and_allport	89	31.0	0.169	to_board	poldrack-single-stim	s499	False
0.1	392.008	0.793	392.801	0	PA_without_intermediate	test	ward_and_allport	71	31.0	0.793	to_hand	poldrack-single-stim	s499	False
0.1	392.803	0.217	393.02	0	PA_without_intermediate	test	ward_and_allport	82	31.0	0.217	to_board	poldrack-single-stim	s499	False
1.0	393.046	2.0	393.045	0	PA_without_intermediate	test	ward_and_allport	-1	31.0	n/a	feedback	poldrack-single-stim	s499	False
3.0	395.065	3.0	398.065	1	PA_with_intermediate	test	ward_and_allport	71	32.0	3.0	to_hand	poldrack-single-stim	s499	False
0.1	398.067	0.227	398.294	0	PA_with_intermediate	test	ward_and_allport	89	32.0	0.227	to_board	poldrack-single-stim	s499	False
0.1	398.314	0.736	399.05	0	PA_with_intermediate	test	ward_and_allport	71	32.0	0.736	to_hand	poldrack-single-stim	s499	False
0.1	399.052	0.199	399.251	0	PA_with_intermediate	test	ward_and_allport	82	32.0	0.199	to_board	poldrack-single-stim	s499	False
0.1	399.273	0.722	399.995	0	PA_with_intermediate	test	ward_and_allport	89	32.0	0.722	to_hand	poldrack-single-stim	s499	False
0.1	399.998	0.205	400.203	0	PA_with_intermediate	test	ward_and_allport	82	32.0	0.205	to_board	poldrack-single-stim	s499	False
1.0	400.226	2.0	400.225	0	PA_with_intermediate	test	ward_and_allport	-1	32.0	n/a	feedback	poldrack-single-stim	s499	False
1.699	402.241	1.699	403.94	1	PA_with_intermediate	test	ward_and_allport	71	33.0	1.699	to_hand	poldrack-single-stim	s499	False
0.1	403.942	0.438	404.38	0	PA_with_intermediate	test	ward_and_allport	89	33.0	0.438	to_board	poldrack-single-stim	s499	False
0.1	404.396	3.867	408.263	0	PA_with_intermediate	test	ward_and_allport	89	33.0	3.867	to_hand	poldrack-single-stim	s499	False
0.1	408.265	0.234	408.499	0	PA_with_intermediate	test	ward_and_allport	82	33.0	0.234	to_board	poldrack-single-stim	s499	False
0.1	408.522	0.922	409.444	0	PA_with_intermediate	test	ward_and_allport	71	33.0	0.922	to_hand	poldrack-single-stim	s499	False
0.1	409.446	0.173	409.619	0	PA_with_intermediate	test	ward_and_allport	89	33.0	0.173	to_board	poldrack-single-stim	s499	False
0.1	409.644	1.209	410.853	0	PA_with_intermediate	test	ward_and_allport	82	33.0	1.209	to_hand	poldrack-single-stim	s499	False
0.1	410.855	0.268	411.123	0	PA_with_intermediate	test	ward_and_allport	71	33.0	0.268	to_board	poldrack-single-stim	s499	False
1.0	411.147	2.0	411.146	0	PA_with_intermediate	test	ward_and_allport	-1	33.0	n/a	feedback	poldrack-single-stim	s499	False
3.733	413.172	3.733	416.905	1	PA_with_intermediate	test	ward_and_allport	71	34.0	3.733	to_hand	poldrack-single-stim	s499	False
0.1	416.908	0.274	417.182	0	PA_with_intermediate	test	ward_and_allport	89	34.0	0.274	to_board	poldrack-single-stim	s499	False
0.1	417.198	0.365	417.563	0	PA_with_intermediate	test	ward_and_allport	71	34.0	0.365	to_hand	poldrack-single-stim	s499	False
0.1	417.563	0.232	417.795	0	PA_with_intermediate	test	ward_and_allport	82	34.0	0.232	to_board	poldrack-single-stim	s499	False
0.1	417.819	0.385	418.204	0	PA_with_intermediate	test	ward_and_allport	89	34.0	0.385	to_hand	poldrack-single-stim	s499	False
0.1	418.206	0.252	418.458	0	PA_with_intermediate	test	ward_and_allport	71	34.0	0.252	to_board	poldrack-single-stim	s499	False
1.0	418.481	2.408	418.48	0	PA_with_intermediate	test	ward_and_allport	-1	34.0	n/a	feedback	poldrack-single-stim	s499	False
3.416	420.909	3.416	424.325	1	PA_without_intermediate	test	ward_and_allport	71	35.0	3.416	to_hand	poldrack-single-stim	s499	False
0.1	424.327	0.194	424.521	0	PA_without_intermediate	test	ward_and_allport	89	35.0	0.194	to_board	poldrack-single-stim	s499	False
0.1	424.538	0.755	425.293	0	PA_without_intermediate	test	ward_and_allport	71	35.0	0.755	to_hand	poldrack-single-stim	s499	False
0.1	425.295	0.14	425.435	0	PA_without_intermediate	test	ward_and_allport	89	35.0	0.14	to_board	poldrack-single-stim	s499	False
0.1	425.459	0.806	426.265	0	PA_without_intermediate	test	ward_and_allport	71	35.0	0.806	to_hand	poldrack-single-stim	s499	False
0.1	426.268	0.197	426.465	0	PA_without_intermediate	test	ward_and_allport	82	35.0	0.197	to_board	poldrack-single-stim	s499	False
1.0	426.489	2.816	426.488	0	PA_without_intermediate	test	ward_and_allport	-1	35.0	n/a	feedback	poldrack-single-stim	s499	False
4.074	429.323	4.074	433.397	1	PA_with_intermediate	test	ward_and_allport	71	36.0	4.074	to_hand	poldrack-single-stim	s499	False
0.1	433.399	0.384	433.783	0	PA_with_intermediate	test	ward_and_allport	82	36.0	0.384	to_board	poldrack-single-stim	s499	False
0.1	433.807	0.464	434.271	0	PA_with_intermediate	test	ward_and_allport	71	36.0	0.464	to_hand	poldrack-single-stim	s499	False
0.1	434.273	0.24	434.513	0	PA_with_intermediate	test	ward_and_allport	82	36.0	0.24	to_board	poldrack-single-stim	s499	False
0.1	434.538	3.161	437.699	0	PA_with_intermediate	test	ward_and_allport	71	36.0	3.161	to_hand	poldrack-single-stim	s499	False
0.1	437.701	0.272	437.973	0	PA_with_intermediate	test	ward_and_allport	89	36.0	0.272	to_board	poldrack-single-stim	s499	False
0.1	437.999	0.857	438.856	0	PA_with_intermediate	test	ward_and_allport	89	36.0	0.857	to_hand	poldrack-single-stim	s499	False
0.1	438.858	0.386	439.244	0	PA_with_intermediate	test	ward_and_allport	71	36.0	0.386	to_board	poldrack-single-stim	s499	False
0.1	439.269	0.504	439.773	0	PA_with_intermediate	test	ward_and_allport	82	36.0	0.504	to_hand	poldrack-single-stim	s499	False
0.1	439.776	0.245	440.021	0	PA_with_intermediate	test	ward_and_allport	71	36.0	0.245	to_board	poldrack-single-stim	s499	False
0.1	440.039	0.972	441.011	0	PA_with_intermediate	test	ward_and_allport	71	36.0	0.972	to_hand	poldrack-single-stim	s499	False
0.1	441.013	0.669	441.682	0	PA_with_intermediate	test	ward_and_allport	82	36.0	0.669	to_board	poldrack-single-stim	s499	False
0.1	441.699	0.775	442.474	0	PA_with_intermediate	test	ward_and_allport	82	36.0	0.775	to_hand	poldrack-single-stim	s499	False
0.1	442.477	0.713	443.19	0	PA_with_intermediate	test	ward_and_allport	89	36.0	0.713	to_board	poldrack-single-stim	s499	False
0.1	443.208	0.93	444.138	0	PA_with_intermediate	test	ward_and_allport	82	36.0	0.93	to_hand	poldrack-single-stim	s499	False
0.1	444.141	0.202	444.343	0	PA_with_intermediate	test	ward_and_allport	89	36.0	0.202	to_board	poldrack-single-stim	s499	False
1.0	444.363	4.176	444.362	0	PA_with_intermediate	test	ward_and_allport	-1	36.0	n/a	feedback	poldrack-single-stim	s499	False
7.656	448.568	7.656	456.224	1	PA_with_intermediate	test	ward_and_allport	82	37.0	7.656	to_hand	poldrack-single-stim	s499	False
0.1	456.226	0.302	456.528	0	PA_with_intermediate	test	ward_and_allport	89	37.0	0.302	to_board	poldrack-single-stim	s499	False
0.1	456.555	0.618	457.173	0	PA_with_intermediate	test	ward_and_allport	82	37.0	0.618	to_hand	poldrack-single-stim	s499	False
0.1	457.175	0.242	457.417	0	PA_with_intermediate	test	ward_and_allport	89	37.0	0.242	to_board	poldrack-single-stim	s499	False
0.1	457.444	1.328	458.772	0	PA_with_intermediate	test	ward_and_allport	89	37.0	1.328	to_hand	poldrack-single-stim	s499	False
0.1	458.774	0.555	459.329	0	PA_with_intermediate	test	ward_and_allport	71	37.0	0.555	to_board	poldrack-single-stim	s499	False
0.1	459.357	1.038	460.395	0	PA_with_intermediate	test	ward_and_allport	89	37.0	1.038	to_hand	poldrack-single-stim	s499	False
0.1	460.397	0.395	460.792	0	PA_with_intermediate	test	ward_and_allport	82	37.0	0.395	to_board	poldrack-single-stim	s499	False
0.1	460.817	1.996	462.813	0	PA_with_intermediate	test	ward_and_allport	82	37.0	1.996	to_hand	poldrack-single-stim	s499	False
0.1	462.814	0.474	463.288	0	PA_with_intermediate	test	ward_and_allport	71	37.0	0.474	to_board	poldrack-single-stim	s499	False
1.0	463.31	3.36	463.309	0	PA_with_intermediate	test	ward_and_allport	-1	37.0	n/a	feedback	poldrack-single-stim	s499	False
