onset	duration	movement_onset	CTI	block_duration	correct	correct_response	cue	cue_switch	experiment_exp_id	key_press	response_time	stim_color	stim_number	switch_type	task	task_switch	trial_id	trial_type	worker_id	first_trial_of_block	junk
4.417	1.0	5.757	0.9	3.224	True	71.0	Magnitude	stay	twobytwo	71.0	0.44	orange	4.0	cue_stay	magnitude	stay	stim	poldrack-single-stim	s512	1	False
7.748	1.0	8.497	0.1	2.408	True	89.0	Color	n/a	twobytwo	89.0	0.649	blue	7.0	task_switch	color	switch	stim	poldrack-single-stim	s512	0	False
10.262	1.0	10.8	0.1	2.816	True	89.0	High-Low	n/a	twobytwo	89.0	0.438	blue	9.0	task_switch	magnitude	switch	stim	poldrack-single-stim	s512	0	False
13.183	1.0	13.621	0.1	2.408	True	71.0	Color	n/a	twobytwo	71.0	0.338	orange	2.0	task_switch	color	switch	stim	poldrack-single-stim	s512	0	False
15.698	1.0	16.101	0.1	2.136	False	71.0	Magnitude	n/a	twobytwo	89.0	0.303	orange	3.0	task_switch	magnitude	switch	stim	poldrack-single-stim	s512	0	False
17.94	1.0	18.49	0.1	2.136	True	89.0	Magnitude	stay	twobytwo	89.0	0.45	orange	6.0	cue_stay	magnitude	stay	stim	poldrack-single-stim	s512	0	False
20.182	1.0	20.828	0.1	2.0	True	89.0	High-Low	switch	twobytwo	89.0	0.546	blue	8.0	cue_switch	magnitude	stay	stim	poldrack-single-stim	s512	0	False
23.091	1.0	24.405	0.9	2.0	True	71.0	Magnitude	switch	twobytwo	71.0	0.414	orange	1.0	cue_switch	magnitude	stay	stim	poldrack-single-stim	s512	0	False
25.997	1.0	27.259	0.9	2.272	False	71.0	Orange-Blue	n/a	twobytwo	89.0	0.362	orange	7.0	task_switch	color	switch	stim	poldrack-single-stim	s512	0	False
29.175	1.0	30.465	0.9	2.408	True	71.0	High-Low	n/a	twobytwo	71.0	0.39	blue	2.0	task_switch	magnitude	switch	stim	poldrack-single-stim	s512	0	False
32.49	1.0	33.781	0.9	2.0	True	89.0	Orange-Blue	n/a	twobytwo	89.0	0.391	blue	8.0	task_switch	color	switch	stim	poldrack-single-stim	s512	0	False
35.396	1.0	36.582	0.9	2.136	True	71.0	Color	switch	twobytwo	71.0	0.286	orange	6.0	cue_switch	color	stay	stim	poldrack-single-stim	s512	0	False
38.438	1.0	39.777	0.9	2.0	True	89.0	Magnitude	n/a	twobytwo	89.0	0.439	orange	9.0	task_switch	magnitude	switch	stim	poldrack-single-stim	s512	0	False
40.544	1.0	41.113	0.1	2.408	False	89.0	Color	n/a	twobytwo	71.0	0.469	blue	9.0	task_switch	color	switch	stim	poldrack-single-stim	s512	0	False
43.859	1.0	45.203	0.9	2.272	True	71.0	Orange-Blue	switch	twobytwo	71.0	0.444	orange	3.0	cue_switch	color	stay	stim	poldrack-single-stim	s512	0	False
47.038	1.0	48.42	0.9	2.0	True	71.0	Magnitude	n/a	twobytwo	71.0	0.482	blue	1.0	task_switch	magnitude	switch	stim	poldrack-single-stim	s512	0	False
49.944	1.0	51.349	0.9	2.272	False	89.0	High-Low	switch	twobytwo	71.0	0.505	blue	9.0	cue_switch	magnitude	stay	stim	poldrack-single-stim	s512	0	False
52.323	1.0	52.935	0.1	2.0	True	71.0	Orange-Blue	n/a	twobytwo	71.0	0.512	orange	8.0	task_switch	color	switch	stim	poldrack-single-stim	s512	0	False
54.43	1.0	55.095	0.1	2.0	True	71.0	Magnitude	n/a	twobytwo	71.0	0.565	blue	3.0	task_switch	magnitude	switch	stim	poldrack-single-stim	s512	0	False
57.336	1.0	58.634	0.9	2.272	True	71.0	Magnitude	stay	twobytwo	71.0	0.398	blue	2.0	cue_stay	magnitude	stay	stim	poldrack-single-stim	s512	0	False
59.715	1.0	60.398	0.1	2.136	True	71.0	Color	n/a	twobytwo	71.0	0.583	orange	6.0	task_switch	color	switch	stim	poldrack-single-stim	s512	0	False
61.957	1.0	62.553	0.1	2.0	False	71.0	Magnitude	n/a	twobytwo	89.0	0.496	blue	1.0	task_switch	magnitude	switch	stim	poldrack-single-stim	s512	0	False
64.864	1.0	66.246	0.9	2.0	True	89.0	Magnitude	stay	twobytwo	89.0	0.482	blue	7.0	cue_stay	magnitude	stay	stim	poldrack-single-stim	s512	0	False
66.97	1.0	67.483	0.1	2.0	True	71.0	Orange-Blue	n/a	twobytwo	71.0	0.413	orange	7.0	task_switch	color	switch	stim	poldrack-single-stim	s512	0	False
69.877	1.0	71.127	0.9	2.0	True	71.0	Color	switch	twobytwo	71.0	0.35	orange	4.0	cue_switch	color	stay	stim	poldrack-single-stim	s512	0	False
72.783	1.0	74.073	0.9	2.0	True	71.0	Color	stay	twobytwo	71.0	0.39	orange	2.0	cue_stay	color	stay	stim	poldrack-single-stim	s512	0	False
74.889	1.0	75.491	0.1	2.136	True	89.0	High-Low	n/a	twobytwo	89.0	0.502	orange	7.0	task_switch	magnitude	switch	stim	poldrack-single-stim	s512	0	False
77.131	1.0	77.729	0.1	2.0	True	89.0	High-Low	stay	twobytwo	89.0	0.498	blue	7.0	cue_stay	magnitude	stay	stim	poldrack-single-stim	s512	0	False
80.038	1.0	81.309	0.9	2.0	True	89.0	Color	n/a	twobytwo	89.0	0.371	blue	4.0	task_switch	color	switch	stim	poldrack-single-stim	s512	0	False
82.944	1.0	84.22	0.9	2.136	True	71.0	Orange-Blue	switch	twobytwo	71.0	0.376	orange	8.0	cue_switch	color	stay	stim	poldrack-single-stim	s512	0	False
85.986	1.0	87.349	0.9	2.0	True	89.0	Color	switch	twobytwo	89.0	0.463	blue	9.0	cue_switch	color	stay	stim	poldrack-single-stim	s512	0	False
88.093	1.0	88.675	0.1	2.136	True	71.0	Magnitude	n/a	twobytwo	71.0	0.482	orange	3.0	task_switch	magnitude	switch	stim	poldrack-single-stim	s512	0	False
91.136	1.0	92.383	0.9	2.68	True	89.0	Orange-Blue	n/a	twobytwo	89.0	0.347	blue	9.0	task_switch	color	switch	stim	poldrack-single-stim	s512	0	False
93.923	1.0	94.611	0.1	2.272	True	89.0	Orange-Blue	stay	twobytwo	89.0	0.588	blue	3.0	cue_stay	color	stay	stim	poldrack-single-stim	s512	0	False
96.302	1.0	96.882	0.1	2.136	True	71.0	Orange-Blue	stay	twobytwo	71.0	0.48	orange	7.0	cue_stay	color	stay	stim	poldrack-single-stim	s512	0	False
99.344	1.0	100.799	0.9	2.0	True	71.0	High-Low	n/a	twobytwo	71.0	0.555	blue	1.0	task_switch	magnitude	switch	stim	poldrack-single-stim	s512	0	False
102.251	1.0	103.517	0.9	2.136	True	89.0	Orange-Blue	n/a	twobytwo	89.0	0.366	blue	3.0	task_switch	color	switch	stim	poldrack-single-stim	s512	0	False
105.293	1.0	106.684	0.9	2.68	True	71.0	Magnitude	n/a	twobytwo	71.0	0.491	blue	1.0	task_switch	magnitude	switch	stim	poldrack-single-stim	s512	0	False
108.078	1.0	108.798	0.1	2.272	False	89.0	Orange-Blue	n/a	twobytwo	71.0	0.62	blue	6.0	task_switch	color	switch	stim	poldrack-single-stim	s512	0	False
111.258	1.0	112.648	0.9	2.0	False	71.0	Color	switch	twobytwo	89.0	0.49	orange	6.0	cue_switch	color	stay	stim	poldrack-single-stim	s512	0	False
113.365	1.0	114.067	0.1	2.0	True	89.0	High-Low	n/a	twobytwo	89.0	0.602	blue	7.0	task_switch	magnitude	switch	stim	poldrack-single-stim	s512	0	False
116.272	1.0	117.682	0.9	2.136	True	89.0	High-Low	stay	twobytwo	89.0	0.51	orange	8.0	cue_stay	magnitude	stay	stim	poldrack-single-stim	s512	0	False
119.315	1.0	120.585	0.9	2.0	False	71.0	High-Low	stay	twobytwo	89.0	0.37	orange	2.0	cue_stay	magnitude	stay	stim	poldrack-single-stim	s512	0	False
122.221	1.0	123.552	0.9	2.0	True	71.0	High-Low	stay	twobytwo	71.0	0.431	blue	3.0	cue_stay	magnitude	stay	stim	poldrack-single-stim	s512	0	False
125.126	1.0	126.495	0.9	2.0	False	89.0	Magnitude	switch	twobytwo	71.0	0.469	blue	9.0	cue_switch	magnitude	stay	stim	poldrack-single-stim	s512	0	False
128.033	1.0	129.435	0.9	2.272	True	71.0	Orange-Blue	n/a	twobytwo	71.0	0.502	orange	4.0	task_switch	color	switch	stim	poldrack-single-stim	s512	0	False
130.411	1.0	131.008	0.1	2.408	False	71.0	Magnitude	n/a	twobytwo	89.0	0.497	blue	4.0	task_switch	magnitude	switch	stim	poldrack-single-stim	s512	0	False
133.724	1.0	135.102	0.9	2.0	True	71.0	Magnitude	stay	twobytwo	71.0	0.478	orange	1.0	cue_stay	magnitude	stay	stim	poldrack-single-stim	s512	0	False
135.83	1.0	136.424	0.1	2.0	True	71.0	Magnitude	stay	twobytwo	71.0	0.494	orange	4.0	cue_stay	magnitude	stay	stim	poldrack-single-stim	s512	0	False
138.736	1.0	140.087	0.9	2.0	True	89.0	Orange-Blue	n/a	twobytwo	89.0	0.451	blue	9.0	task_switch	color	switch	stim	poldrack-single-stim	s512	0	False
141.642	1.0	142.99	0.9	2.272	True	71.0	Magnitude	n/a	twobytwo	71.0	0.448	blue	3.0	task_switch	magnitude	switch	stim	poldrack-single-stim	s512	0	False
144.02	1.0	144.632	0.1	2.136	True	71.0	Magnitude	stay	twobytwo	71.0	0.512	orange	3.0	cue_stay	magnitude	stay	stim	poldrack-single-stim	s512	0	False
146.262	1.0	147.222	0.1	2.0	True	89.0	Orange-Blue	n/a	twobytwo	89.0	0.86	blue	7.0	task_switch	color	switch	stim	poldrack-single-stim	s512	0	False
149.168	1.0	150.397	0.9	2.544	True	71.0	Color	switch	twobytwo	71.0	0.329	orange	7.0	cue_switch	color	stay	stim	poldrack-single-stim	s512	0	False
152.618	1.0	154.024	0.9	2.272	True	89.0	Magnitude	n/a	twobytwo	89.0	0.506	blue	7.0	task_switch	magnitude	switch	stim	poldrack-single-stim	s512	0	False
154.997	1.0	155.542	0.1	2.272	True	71.0	Magnitude	stay	twobytwo	71.0	0.445	orange	2.0	cue_stay	magnitude	stay	stim	poldrack-single-stim	s512	0	False
157.375	1.0	158.02	0.1	2.0	True	71.0	High-Low	switch	twobytwo	71.0	0.545	blue	1.0	cue_switch	magnitude	stay	stim	poldrack-single-stim	s512	0	False
160.282	1.0	161.576	0.9	2.0	True	71.0	High-Low	stay	twobytwo	71.0	0.394	blue	4.0	cue_stay	magnitude	stay	stim	poldrack-single-stim	s512	0	False
162.388	1.0	163.203	0.1	2.136	False	89.0	Orange-Blue	n/a	twobytwo	71.0	0.715	blue	2.0	task_switch	color	switch	stim	poldrack-single-stim	s512	0	False
165.431	1.0	166.688	0.9	2.0	True	71.0	Magnitude	n/a	twobytwo	71.0	0.357	orange	1.0	task_switch	magnitude	switch	stim	poldrack-single-stim	s512	0	False
168.337	1.0	169.83	0.9	2.136	True	89.0	High-Low	switch	twobytwo	89.0	0.593	orange	7.0	cue_switch	magnitude	stay	stim	poldrack-single-stim	s512	0	False
170.58	1.0	171.173	0.1	2.272	False	71.0	Orange-Blue	n/a	twobytwo	89.0	0.493	orange	8.0	task_switch	color	switch	stim	poldrack-single-stim	s512	0	False
172.958	1.0	173.719	0.1	2.136	True	89.0	High-Low	n/a	twobytwo	89.0	0.661	orange	7.0	task_switch	magnitude	switch	stim	poldrack-single-stim	s512	0	False
175.202	1.0	175.887	0.1	2.272	True	89.0	High-Low	stay	twobytwo	89.0	0.585	orange	9.0	cue_stay	magnitude	stay	stim	poldrack-single-stim	s512	0	False
178.38	1.0	179.731	0.9	2.0	True	71.0	Orange-Blue	n/a	twobytwo	71.0	0.451	orange	9.0	task_switch	color	switch	stim	poldrack-single-stim	s512	0	False
181.287	1.0	182.615	0.9	2.816	True	71.0	Orange-Blue	stay	twobytwo	71.0	0.428	orange	8.0	cue_stay	color	stay	stim	poldrack-single-stim	s512	0	False
185.01	1.0	186.357	0.9	2.408	True	71.0	Color	switch	twobytwo	71.0	0.447	orange	8.0	cue_switch	color	stay	stim	poldrack-single-stim	s512	0	False
187.524	1.0	188.237	0.1	2.0	True	71.0	Color	stay	twobytwo	71.0	0.613	orange	6.0	cue_stay	color	stay	stim	poldrack-single-stim	s512	0	False
190.429	1.0	191.696	0.9	2.544	True	71.0	Color	stay	twobytwo	71.0	0.367	orange	4.0	cue_stay	color	stay	stim	poldrack-single-stim	s512	0	False
193.082	1.0	193.618	0.1	2.136	True	71.0	Magnitude	n/a	twobytwo	71.0	0.436	orange	2.0	task_switch	magnitude	switch	stim	poldrack-single-stim	s512	0	False
195.325	1.0	195.823	0.1	2.0	True	71.0	Orange-Blue	n/a	twobytwo	71.0	0.398	orange	3.0	task_switch	color	switch	stim	poldrack-single-stim	s512	0	False
197.432	1.0	197.959	0.1	2.0	True	89.0	Orange-Blue	stay	twobytwo	89.0	0.427	blue	8.0	cue_stay	color	stay	stim	poldrack-single-stim	s512	0	False
199.537	1.0	200.414	0.1	2.136	True	89.0	Color	switch	twobytwo	89.0	0.777	blue	7.0	cue_switch	color	stay	stim	poldrack-single-stim	s512	0	False
202.58	1.0	203.936	0.9	2.136	True	89.0	Color	stay	twobytwo	89.0	0.456	blue	3.0	cue_stay	color	stay	stim	poldrack-single-stim	s512	0	False
205.623	1.0	206.914	0.9	2.272	True	71.0	Magnitude	n/a	twobytwo	71.0	0.391	orange	3.0	task_switch	magnitude	switch	stim	poldrack-single-stim	s512	0	False
208.002	1.0	208.7	0.1	3.224	True	71.0	High-Low	switch	twobytwo	71.0	0.598	orange	1.0	cue_switch	magnitude	stay	stim	poldrack-single-stim	s512	0	False
212.132	1.0	213.439	0.9	2.0	True	71.0	Magnitude	switch	twobytwo	71.0	0.407	orange	1.0	cue_switch	magnitude	stay	stim	poldrack-single-stim	s512	0	False
215.039	1.0	216.374	0.9	2.0	True	89.0	Orange-Blue	n/a	twobytwo	89.0	0.435	blue	2.0	task_switch	color	switch	stim	poldrack-single-stim	s512	0	False
217.945	1.0	219.293	0.9	2.272	True	71.0	Magnitude	n/a	twobytwo	71.0	0.448	blue	3.0	task_switch	magnitude	switch	stim	poldrack-single-stim	s512	0	False
221.124	1.0	222.527	0.9	2.136	True	71.0	Orange-Blue	n/a	twobytwo	71.0	0.503	orange	1.0	task_switch	color	switch	stim	poldrack-single-stim	s512	0	False
237.677	1.0	238.952	0.9	2.0	True	71.0	Orange-Blue	stay	twobytwo	71.0	0.375	orange	4.0	cue_stay	color	stay	stim	poldrack-single-stim	s512	1	False
239.783	1.0	240.515	0.1	2.0	True	89.0	Magnitude	n/a	twobytwo	89.0	0.632	blue	7.0	task_switch	magnitude	switch	stim	poldrack-single-stim	s512	0	False
241.89	1.0	242.848	0.1	2.0	True	89.0	Color	n/a	twobytwo	89.0	0.858	blue	9.0	task_switch	color	switch	stim	poldrack-single-stim	s512	0	False
243.996	1.0	244.556	0.1	2.68	True	71.0	Magnitude	n/a	twobytwo	71.0	0.46	orange	2.0	task_switch	magnitude	switch	stim	poldrack-single-stim	s512	0	False
246.784	1.0	247.416	0.1	2.0	True	71.0	Orange-Blue	n/a	twobytwo	71.0	0.532	orange	3.0	task_switch	color	switch	stim	poldrack-single-stim	s512	0	False
248.889	1.0	249.385	0.1	2.272	True	71.0	Orange-Blue	stay	twobytwo	71.0	0.396	orange	6.0	cue_stay	color	stay	stim	poldrack-single-stim	s512	0	False
251.268	1.0	251.725	0.1	2.0	False	89.0	Color	switch	twobytwo	71.0	0.357	blue	8.0	cue_switch	color	stay	stim	poldrack-single-stim	s512	0	False
254.174	1.0	255.581	0.9	2.272	True	71.0	Orange-Blue	switch	twobytwo	71.0	0.507	orange	1.0	cue_switch	color	stay	stim	poldrack-single-stim	s512	0	False
257.353	1.0	258.863	0.9	2.952	True	89.0	Magnitude	n/a	twobytwo	89.0	0.61	orange	7.0	task_switch	magnitude	switch	stim	poldrack-single-stim	s512	0	False
261.211	1.0	262.534	0.9	2.0	True	89.0	Color	n/a	twobytwo	89.0	0.423	blue	2.0	task_switch	color	switch	stim	poldrack-single-stim	s512	0	False
264.118	1.0	265.523	0.9	2.0	True	89.0	High-Low	n/a	twobytwo	89.0	0.505	blue	8.0	task_switch	magnitude	switch	stim	poldrack-single-stim	s512	0	False
267.024	1.0	268.344	0.9	2.0	False	89.0	Magnitude	switch	twobytwo	71.0	0.42	orange	6.0	cue_switch	magnitude	stay	stim	poldrack-single-stim	s512	0	False
269.93	1.0	271.24	0.9	2.0	True	71.0	Color	n/a	twobytwo	71.0	0.41	orange	9.0	task_switch	color	switch	stim	poldrack-single-stim	s512	0	False
272.037	1.0	272.771	0.1	2.136	True	89.0	Magnitude	n/a	twobytwo	89.0	0.634	blue	9.0	task_switch	magnitude	switch	stim	poldrack-single-stim	s512	0	False
275.079	1.0	276.466	0.9	2.0	True	71.0	High-Low	switch	twobytwo	71.0	0.487	orange	3.0	cue_switch	magnitude	stay	stim	poldrack-single-stim	s512	0	False
277.986	1.0	279.453	0.9	2.0	False	89.0	Color	n/a	twobytwo	71.0	0.567	blue	1.0	task_switch	color	switch	stim	poldrack-single-stim	s512	0	False
280.892	1.0	282.305	0.9	2.0	True	89.0	Orange-Blue	switch	twobytwo	89.0	0.513	blue	9.0	cue_switch	color	stay	stim	poldrack-single-stim	s512	0	False
282.998	1.0	283.699	0.1	2.272	True	89.0	Magnitude	n/a	twobytwo	89.0	0.601	orange	8.0	task_switch	magnitude	switch	stim	poldrack-single-stim	s512	0	False
285.377	1.0	285.999	0.1	2.136	False	89.0	Orange-Blue	n/a	twobytwo	71.0	0.522	blue	3.0	task_switch	color	switch	stim	poldrack-single-stim	s512	0	False
288.422	1.0	289.904	0.9	2.0	True	89.0	Orange-Blue	stay	twobytwo	89.0	0.582	blue	2.0	cue_stay	color	stay	stim	poldrack-single-stim	s512	0	False
290.528	1.0	291.237	0.1	2.136	True	89.0	High-Low	n/a	twobytwo	89.0	0.609	orange	6.0	task_switch	magnitude	switch	stim	poldrack-single-stim	s512	0	False
292.771	1.0	293.524	0.1	2.816	True	89.0	Orange-Blue	n/a	twobytwo	89.0	0.653	blue	1.0	task_switch	color	switch	stim	poldrack-single-stim	s512	0	False
296.494	1.0	297.862	0.9	2.408	True	89.0	Orange-Blue	stay	twobytwo	89.0	0.468	blue	7.0	cue_stay	color	stay	stim	poldrack-single-stim	s512	0	False
299.008	1.0	299.809	0.1	2.0	True	89.0	High-Low	n/a	twobytwo	89.0	0.701	orange	7.0	task_switch	magnitude	switch	stim	poldrack-single-stim	s512	0	False
301.915	1.0	303.303	0.9	2.136	True	71.0	Magnitude	switch	twobytwo	71.0	0.488	orange	4.0	cue_switch	magnitude	stay	stim	poldrack-single-stim	s512	0	False
304.958	1.0	306.588	0.9	2.136	True	71.0	Magnitude	stay	twobytwo	71.0	0.73	orange	2.0	cue_stay	magnitude	stay	stim	poldrack-single-stim	s512	0	False
307.201	1.0	308.057	0.1	2.136	True	71.0	Color	n/a	twobytwo	71.0	0.756	orange	7.0	task_switch	color	switch	stim	poldrack-single-stim	s512	0	False
309.444	1.0	310.128	0.1	2.544	True	89.0	Color	stay	twobytwo	89.0	0.584	blue	7.0	cue_stay	color	stay	stim	poldrack-single-stim	s512	0	False
312.894	1.0	314.385	0.9	2.136	True	71.0	Magnitude	n/a	twobytwo	71.0	0.591	blue	4.0	task_switch	magnitude	switch	stim	poldrack-single-stim	s512	0	False
315.936	1.0	317.335	0.9	2.0	True	89.0	High-Low	switch	twobytwo	89.0	0.499	orange	8.0	cue_switch	magnitude	stay	stim	poldrack-single-stim	s512	0	False
318.843	1.0	320.299	0.9	2.0	True	89.0	Magnitude	switch	twobytwo	89.0	0.556	blue	9.0	cue_switch	magnitude	stay	stim	poldrack-single-stim	s512	0	False
320.949	1.0	321.598	0.1	2.0	True	71.0	Color	n/a	twobytwo	71.0	0.549	orange	3.0	task_switch	color	switch	stim	poldrack-single-stim	s512	0	False
323.855	1.0	325.338	0.9	2.0	True	89.0	High-Low	n/a	twobytwo	89.0	0.583	blue	9.0	task_switch	magnitude	switch	stim	poldrack-single-stim	s512	0	False
325.961	1.0	326.602	0.1	2.136	True	71.0	High-Low	stay	twobytwo	71.0	0.541	blue	3.0	cue_stay	magnitude	stay	stim	poldrack-single-stim	s512	0	False
328.203	1.0	328.851	0.1	2.0	True	89.0	High-Low	stay	twobytwo	89.0	0.548	orange	7.0	cue_stay	magnitude	stay	stim	poldrack-single-stim	s512	0	False
331.11	1.0	332.445	0.9	2.0	True	89.0	Color	n/a	twobytwo	89.0	0.435	blue	1.0	task_switch	color	switch	stim	poldrack-single-stim	s512	0	False
334.016	1.0	335.362	0.9	2.0	True	71.0	High-Low	n/a	twobytwo	71.0	0.446	blue	3.0	task_switch	magnitude	switch	stim	poldrack-single-stim	s512	0	False
336.923	1.0	338.35	0.9	2.136	True	89.0	Orange-Blue	n/a	twobytwo	89.0	0.527	blue	1.0	task_switch	color	switch	stim	poldrack-single-stim	s512	0	False
339.165	1.0	339.978	0.1	2.136	True	89.0	Magnitude	n/a	twobytwo	89.0	0.713	blue	6.0	task_switch	magnitude	switch	stim	poldrack-single-stim	s512	0	False
342.209	1.0	343.674	0.9	2.136	False	89.0	High-Low	switch	twobytwo	71.0	0.565	orange	6.0	cue_switch	magnitude	stay	stim	poldrack-single-stim	s512	0	False
344.451	1.0	345.251	0.1	2.136	True	89.0	Color	n/a	twobytwo	89.0	0.7	blue	7.0	task_switch	color	switch	stim	poldrack-single-stim	s512	0	False
347.494	1.0	348.822	0.9	2.68	True	71.0	Color	stay	twobytwo	71.0	0.428	orange	8.0	cue_stay	color	stay	stim	poldrack-single-stim	s512	0	False
351.079	1.0	352.551	0.9	2.544	False	71.0	Color	stay	twobytwo	89.0	0.572	orange	2.0	cue_stay	color	stay	stim	poldrack-single-stim	s512	0	False
354.529	1.0	356.172	0.9	2.272	True	89.0	Color	stay	twobytwo	89.0	0.743	blue	3.0	cue_stay	color	stay	stim	poldrack-single-stim	s512	0	False
357.707	1.0	359.243	0.9	2.272	True	89.0	Orange-Blue	switch	twobytwo	89.0	0.636	blue	9.0	cue_switch	color	stay	stim	poldrack-single-stim	s512	0	False
360.886	1.0	362.276	0.9	2.408	True	71.0	High-Low	n/a	twobytwo	71.0	0.49	orange	4.0	task_switch	magnitude	switch	stim	poldrack-single-stim	s512	0	False
363.401	1.0	364.144	0.1	2.136	True	89.0	Orange-Blue	n/a	twobytwo	89.0	0.643	blue	4.0	task_switch	color	switch	stim	poldrack-single-stim	s512	0	False
366.443	1.0	367.817	0.9	2.272	True	71.0	Orange-Blue	stay	twobytwo	71.0	0.474	orange	1.0	cue_stay	color	stay	stim	poldrack-single-stim	s512	0	False
368.822	1.0	369.459	0.1	2.0	True	71.0	Orange-Blue	stay	twobytwo	71.0	0.537	orange	4.0	cue_stay	color	stay	stim	poldrack-single-stim	s512	0	False
371.728	1.0	373.197	0.9	2.136	True	89.0	High-Low	n/a	twobytwo	89.0	0.569	blue	9.0	task_switch	magnitude	switch	stim	poldrack-single-stim	s512	0	False
374.77	1.0	376.077	0.9	2.272	True	89.0	Color	n/a	twobytwo	89.0	0.407	blue	3.0	task_switch	color	switch	stim	poldrack-single-stim	s512	0	False
377.15	1.0	377.828	0.1	2.0	True	71.0	Color	stay	twobytwo	71.0	0.578	orange	3.0	cue_stay	color	stay	stim	poldrack-single-stim	s512	0	False
379.256	1.0	379.88	0.1	2.68	True	89.0	High-Low	n/a	twobytwo	89.0	0.524	blue	7.0	task_switch	magnitude	switch	stim	poldrack-single-stim	s512	0	False
382.842	1.0	384.226	0.9	2.0	True	89.0	Magnitude	switch	twobytwo	89.0	0.484	orange	7.0	cue_switch	magnitude	stay	stim	poldrack-single-stim	s512	0	False
385.75	1.0	387.032	0.9	2.0	True	89.0	Color	n/a	twobytwo	89.0	0.382	blue	7.0	task_switch	color	switch	stim	poldrack-single-stim	s512	0	False
387.857	1.0	388.485	0.1	2.0	True	71.0	Color	stay	twobytwo	71.0	0.528	orange	2.0	cue_stay	color	stay	stim	poldrack-single-stim	s512	0	False
389.962	1.0	390.747	0.1	2.272	False	89.0	Orange-Blue	switch	twobytwo	71.0	0.685	blue	1.0	cue_switch	color	stay	stim	poldrack-single-stim	s512	0	False
393.141	1.0	394.514	0.9	2.0	True	89.0	Orange-Blue	stay	twobytwo	89.0	0.473	blue	4.0	cue_stay	color	stay	stim	poldrack-single-stim	s512	0	False
395.248	1.0	395.845	0.1	2.0	False	71.0	High-Low	n/a	twobytwo	89.0	0.497	blue	2.0	task_switch	magnitude	switch	stim	poldrack-single-stim	s512	0	False
398.153	1.0	399.668	0.9	2.0	True	71.0	Color	n/a	twobytwo	71.0	0.615	orange	1.0	task_switch	color	switch	stim	poldrack-single-stim	s512	0	False
401.06	1.0	402.548	0.9	2.68	False	71.0	Orange-Blue	switch	twobytwo	89.0	0.588	orange	7.0	cue_switch	color	stay	stim	poldrack-single-stim	s512	0	False
403.847	1.0	404.552	0.1	2.0	True	89.0	Magnitude	n/a	twobytwo	89.0	0.605	orange	8.0	task_switch	magnitude	switch	stim	poldrack-single-stim	s512	0	False
405.954	1.0	406.635	0.1	2.136	True	71.0	Orange-Blue	n/a	twobytwo	71.0	0.581	orange	7.0	task_switch	color	switch	stim	poldrack-single-stim	s512	0	False
408.196	1.0	408.73	0.1	2.408	True	71.0	Orange-Blue	stay	twobytwo	71.0	0.434	orange	9.0	cue_stay	color	stay	stim	poldrack-single-stim	s512	0	False
411.511	1.0	413.057	0.9	2.136	True	89.0	Magnitude	n/a	twobytwo	89.0	0.646	orange	9.0	task_switch	magnitude	switch	stim	poldrack-single-stim	s512	0	False
414.554	1.0	416.073	0.9	2.0	True	89.0	Magnitude	stay	twobytwo	89.0	0.619	orange	8.0	cue_stay	magnitude	stay	stim	poldrack-single-stim	s512	0	False
417.461	1.0	418.966	0.9	2.0	True	89.0	High-Low	switch	twobytwo	89.0	0.605	orange	8.0	cue_switch	magnitude	stay	stim	poldrack-single-stim	s512	0	False
419.566	1.0	420.223	0.1	2.544	True	89.0	High-Low	stay	twobytwo	89.0	0.557	orange	6.0	cue_stay	magnitude	stay	stim	poldrack-single-stim	s512	0	False
423.016	1.0	424.331	0.9	2.136	True	71.0	High-Low	stay	twobytwo	71.0	0.415	orange	4.0	cue_stay	magnitude	stay	stim	poldrack-single-stim	s512	0	False
425.259	1.0	425.917	0.1	2.544	True	71.0	Orange-Blue	n/a	twobytwo	71.0	0.558	orange	2.0	task_switch	color	switch	stim	poldrack-single-stim	s512	0	False
427.909	1.0	428.69	0.1	2.68	True	71.0	High-Low	n/a	twobytwo	71.0	0.681	orange	3.0	task_switch	magnitude	switch	stim	poldrack-single-stim	s512	0	False
430.696	1.0	431.625	0.1	2.0	True	89.0	High-Low	stay	twobytwo	89.0	0.829	blue	8.0	cue_stay	magnitude	stay	stim	poldrack-single-stim	s512	0	False
432.801	1.0	433.643	0.1	2.272	True	89.0	Magnitude	switch	twobytwo	89.0	0.742	blue	7.0	cue_switch	magnitude	stay	stim	poldrack-single-stim	s512	0	False
435.978	1.0	437.343	0.9	3.088	True	71.0	Magnitude	stay	twobytwo	71.0	0.465	blue	3.0	cue_stay	magnitude	stay	stim	poldrack-single-stim	s512	0	False
439.972	1.0	441.301	0.9	2.0	True	71.0	Orange-Blue	n/a	twobytwo	71.0	0.429	orange	3.0	task_switch	color	switch	stim	poldrack-single-stim	s512	0	False
442.079	1.0	442.692	0.1	2.136	True	71.0	Color	switch	twobytwo	71.0	0.513	orange	1.0	cue_switch	color	stay	stim	poldrack-single-stim	s512	0	False
445.122	1.0	446.522	0.9	2.136	True	71.0	Orange-Blue	switch	twobytwo	71.0	0.5	orange	1.0	cue_switch	color	stay	stim	poldrack-single-stim	s512	0	False
448.163	1.0	449.578	0.9	2.0	True	71.0	High-Low	n/a	twobytwo	71.0	0.515	blue	2.0	task_switch	magnitude	switch	stim	poldrack-single-stim	s512	0	False
451.07	1.0	452.469	0.9	2.272	False	89.0	Orange-Blue	n/a	twobytwo	71.0	0.499	blue	3.0	task_switch	color	switch	stim	poldrack-single-stim	s512	0	False
454.248	1.0	455.636	0.9	2.0	True	71.0	High-Low	n/a	twobytwo	71.0	0.488	orange	1.0	task_switch	magnitude	switch	stim	poldrack-single-stim	s512	0	False
470.666	1.0	471.992	0.9	2.136	True	71.0	Orange-Blue	stay	twobytwo	71.0	0.426	orange	4.0	cue_stay	color	stay	stim	poldrack-single-stim	s512	1	False
472.908	1.0	473.686	0.1	2.136	True	89.0	High-Low	n/a	twobytwo	89.0	0.678	blue	7.0	task_switch	magnitude	switch	stim	poldrack-single-stim	s512	0	False
475.151	1.0	475.775	0.1	2.544	True	89.0	Color	n/a	twobytwo	89.0	0.524	blue	9.0	task_switch	color	switch	stim	poldrack-single-stim	s512	0	False
477.802	1.0	478.422	0.1	2.0	True	71.0	High-Low	n/a	twobytwo	71.0	0.52	orange	2.0	task_switch	magnitude	switch	stim	poldrack-single-stim	s512	0	False
479.908	1.0	480.501	0.1	2.136	True	71.0	Color	n/a	twobytwo	71.0	0.493	orange	3.0	task_switch	color	switch	stim	poldrack-single-stim	s512	0	False
482.148	1.0	482.687	0.1	2.136	True	71.0	Color	stay	twobytwo	71.0	0.439	orange	6.0	cue_stay	color	stay	stim	poldrack-single-stim	s512	0	False
484.391	1.0	485.016	0.1	2.136	True	89.0	Orange-Blue	switch	twobytwo	89.0	0.525	blue	8.0	cue_switch	color	stay	stim	poldrack-single-stim	s512	0	False
487.434	1.0	488.875	0.9	2.0	True	71.0	Color	switch	twobytwo	71.0	0.541	orange	1.0	cue_switch	color	stay	stim	poldrack-single-stim	s512	0	False
490.342	1.0	491.692	0.9	2.136	True	89.0	Magnitude	n/a	twobytwo	89.0	0.45	orange	7.0	task_switch	magnitude	switch	stim	poldrack-single-stim	s512	0	False
493.385	1.0	494.771	0.9	2.0	True	89.0	Color	n/a	twobytwo	89.0	0.486	blue	2.0	task_switch	color	switch	stim	poldrack-single-stim	s512	0	False
496.291	1.0	497.718	0.9	2.136	True	89.0	High-Low	n/a	twobytwo	89.0	0.527	blue	8.0	task_switch	magnitude	switch	stim	poldrack-single-stim	s512	0	False
499.333	1.0	500.721	0.9	2.816	True	89.0	Magnitude	switch	twobytwo	89.0	0.488	orange	6.0	cue_switch	magnitude	stay	stim	poldrack-single-stim	s512	0	False
503.057	1.0	504.51	0.9	2.136	False	71.0	Color	n/a	twobytwo	89.0	0.553	orange	9.0	task_switch	color	switch	stim	poldrack-single-stim	s512	0	False
505.299	1.0	506.174	0.1	2.0	True	89.0	High-Low	n/a	twobytwo	89.0	0.775	blue	9.0	task_switch	magnitude	switch	stim	poldrack-single-stim	s512	0	False
508.204	1.0	509.637	0.9	2.0	True	71.0	Magnitude	switch	twobytwo	71.0	0.533	orange	3.0	cue_switch	magnitude	stay	stim	poldrack-single-stim	s512	0	False
511.11	1.0	512.645	0.9	2.272	False	89.0	Orange-Blue	n/a	twobytwo	71.0	0.635	blue	1.0	task_switch	color	switch	stim	poldrack-single-stim	s512	0	False
514.289	1.0	515.707	0.9	2.0	True	89.0	Color	switch	twobytwo	89.0	0.518	blue	9.0	cue_switch	color	stay	stim	poldrack-single-stim	s512	0	False
516.395	1.0	517.253	0.1	2.0	True	89.0	Magnitude	n/a	twobytwo	89.0	0.758	orange	8.0	task_switch	magnitude	switch	stim	poldrack-single-stim	s512	0	False
518.502	1.0	519.354	0.1	2.0	True	89.0	Orange-Blue	n/a	twobytwo	89.0	0.752	blue	3.0	task_switch	color	switch	stim	poldrack-single-stim	s512	0	False
521.408	1.0	522.734	0.9	2.408	True	89.0	Orange-Blue	stay	twobytwo	89.0	0.426	blue	2.0	cue_stay	color	stay	stim	poldrack-single-stim	s512	0	False
523.922	1.0	524.639	0.1	2.272	True	89.0	Magnitude	n/a	twobytwo	89.0	0.617	orange	6.0	task_switch	magnitude	switch	stim	poldrack-single-stim	s512	0	False
526.301	1.0	527.035	0.1	2.136	False	89.0	Orange-Blue	n/a	twobytwo	71.0	0.634	blue	1.0	task_switch	color	switch	stim	poldrack-single-stim	s512	0	False
529.344	1.0	530.704	0.9	2.0	True	89.0	Orange-Blue	stay	twobytwo	89.0	0.46	blue	7.0	cue_stay	color	stay	stim	poldrack-single-stim	s512	0	False
531.45	1.0	532.199	0.1	2.0	True	89.0	Magnitude	n/a	twobytwo	89.0	0.649	orange	7.0	task_switch	magnitude	switch	stim	poldrack-single-stim	s512	0	False
534.357	1.0	535.775	0.9	2.136	True	71.0	High-Low	switch	twobytwo	71.0	0.518	orange	4.0	cue_switch	magnitude	stay	stim	poldrack-single-stim	s512	0	False
537.4	1.0	538.865	0.9	2.0	True	71.0	High-Low	stay	twobytwo	71.0	0.565	orange	2.0	cue_stay	magnitude	stay	stim	poldrack-single-stim	s512	0	False
539.507	1.0	540.179	0.1	2.136	True	71.0	Color	n/a	twobytwo	71.0	0.572	orange	7.0	task_switch	color	switch	stim	poldrack-single-stim	s512	0	False
541.749	1.0	542.446	0.1	2.408	True	89.0	Color	stay	twobytwo	89.0	0.597	blue	7.0	cue_stay	color	stay	stim	poldrack-single-stim	s512	0	False
545.064	1.0	546.534	0.9	2.136	True	71.0	High-Low	n/a	twobytwo	71.0	0.57	blue	4.0	task_switch	magnitude	switch	stim	poldrack-single-stim	s512	0	False
548.106	1.0	549.479	0.9	2.0	True	89.0	Magnitude	switch	twobytwo	89.0	0.473	orange	8.0	cue_switch	magnitude	stay	stim	poldrack-single-stim	s512	0	False
551.013	1.0	552.425	0.9	2.136	True	89.0	High-Low	switch	twobytwo	89.0	0.512	blue	9.0	cue_switch	magnitude	stay	stim	poldrack-single-stim	s512	0	False
553.254	1.0	554.194	0.1	2.272	True	71.0	Color	n/a	twobytwo	71.0	0.84	orange	3.0	task_switch	color	switch	stim	poldrack-single-stim	s512	0	False
556.432	1.0	557.907	0.9	2.0	True	89.0	High-Low	n/a	twobytwo	89.0	0.575	blue	9.0	task_switch	magnitude	switch	stim	poldrack-single-stim	s512	0	False
558.539	1.0	559.4	0.1	2.408	True	71.0	High-Low	stay	twobytwo	71.0	0.761	blue	3.0	cue_stay	magnitude	stay	stim	poldrack-single-stim	s512	0	False
561.054	1.0	561.699	0.1	2.0	True	89.0	High-Low	stay	twobytwo	89.0	0.545	orange	7.0	cue_stay	magnitude	stay	stim	poldrack-single-stim	s512	0	False
563.96	1.0	565.351	0.9	2.136	True	89.0	Orange-Blue	n/a	twobytwo	89.0	0.491	blue	1.0	task_switch	color	switch	stim	poldrack-single-stim	s512	0	False
567.002	1.0	568.472	0.9	2.408	False	71.0	Magnitude	n/a	twobytwo	89.0	0.57	blue	3.0	task_switch	magnitude	switch	stim	poldrack-single-stim	s512	0	False
570.316	1.0	571.745	0.9	2.136	True	89.0	Color	n/a	twobytwo	89.0	0.529	blue	1.0	task_switch	color	switch	stim	poldrack-single-stim	s512	0	False
572.558	1.0	573.402	0.1	2.408	True	89.0	Magnitude	n/a	twobytwo	89.0	0.744	blue	6.0	task_switch	magnitude	switch	stim	poldrack-single-stim	s512	0	False
575.872	1.0	577.468	0.9	2.136	True	89.0	High-Low	switch	twobytwo	89.0	0.696	orange	6.0	cue_switch	magnitude	stay	stim	poldrack-single-stim	s512	0	False
578.116	1.0	578.787	0.1	2.0	True	89.0	Orange-Blue	n/a	twobytwo	89.0	0.571	blue	7.0	task_switch	color	switch	stim	poldrack-single-stim	s512	0	False
581.023	1.0	582.348	0.9	2.272	True	71.0	Orange-Blue	stay	twobytwo	71.0	0.425	orange	8.0	cue_stay	color	stay	stim	poldrack-single-stim	s512	0	False
584.201	1.0	585.656	0.9	2.0	True	71.0	Orange-Blue	stay	twobytwo	71.0	0.555	orange	2.0	cue_stay	color	stay	stim	poldrack-single-stim	s512	0	False
587.108	1.0	588.485	0.9	2.272	True	89.0	Orange-Blue	stay	twobytwo	89.0	0.477	blue	3.0	cue_stay	color	stay	stim	poldrack-single-stim	s512	0	False
590.286	1.0	591.669	0.9	2.272	True	89.0	Color	switch	twobytwo	89.0	0.483	blue	9.0	cue_switch	color	stay	stim	poldrack-single-stim	s512	0	False
593.465	1.0	595.079	0.9	2.952	True	71.0	Magnitude	n/a	twobytwo	71.0	0.714	orange	4.0	task_switch	magnitude	switch	stim	poldrack-single-stim	s512	0	False
596.524	1.0	597.309	0.1	2.68	False	89.0	Color	n/a	twobytwo	71.0	0.685	blue	4.0	task_switch	color	switch	stim	poldrack-single-stim	s512	0	False
600.109	1.0	601.529	0.9	2.136	True	71.0	Color	stay	twobytwo	71.0	0.52	orange	1.0	cue_stay	color	stay	stim	poldrack-single-stim	s512	0	False
602.352	1.0	603.074	0.1	2.272	True	71.0	Color	stay	twobytwo	71.0	0.622	orange	4.0	cue_stay	color	stay	stim	poldrack-single-stim	s512	0	False
605.53	1.0	606.922	0.9	2.272	True	89.0	High-Low	n/a	twobytwo	89.0	0.492	blue	9.0	task_switch	magnitude	switch	stim	poldrack-single-stim	s512	0	False
608.709	1.0	610.338	0.9	2.136	False	89.0	Color	n/a	twobytwo	71.0	0.729	blue	3.0	task_switch	color	switch	stim	poldrack-single-stim	s512	0	False
610.952	1.0	611.495	0.1	2.408	False	71.0	Color	stay	twobytwo	89.0	0.443	orange	3.0	cue_stay	color	stay	stim	poldrack-single-stim	s512	0	False
613.466	1.0	614.175	0.1	2.136	True	89.0	High-Low	n/a	twobytwo	89.0	0.609	blue	7.0	task_switch	magnitude	switch	stim	poldrack-single-stim	s512	0	False
616.509	1.0	617.887	0.9	2.136	True	89.0	Magnitude	switch	twobytwo	89.0	0.478	orange	7.0	cue_switch	magnitude	stay	stim	poldrack-single-stim	s512	0	False
619.551	1.0	621.415	0.9	2.0	True	89.0	Color	n/a	twobytwo	89.0	0.964	blue	7.0	task_switch	color	switch	stim	poldrack-single-stim	s512	0	False
621.657	1.0	622.171	0.1	2.0	True	71.0	Color	stay	twobytwo	71.0	0.414	orange	2.0	cue_stay	color	stay	stim	poldrack-single-stim	s512	0	False
623.765	1.0	624.454	0.1	2.0	False	89.0	Orange-Blue	switch	twobytwo	71.0	0.589	blue	1.0	cue_switch	color	stay	stim	poldrack-single-stim	s512	0	False
626.672	1.0	628.04	0.9	2.0	True	89.0	Orange-Blue	stay	twobytwo	89.0	0.468	blue	4.0	cue_stay	color	stay	stim	poldrack-single-stim	s512	0	False
628.779	1.0	629.633	0.1	2.0	True	71.0	Magnitude	n/a	twobytwo	71.0	0.754	blue	2.0	task_switch	magnitude	switch	stim	poldrack-single-stim	s512	0	False
631.685	1.0	633.645	0.9	2.272	True	71.0	Orange-Blue	n/a	twobytwo	71.0	1.06	orange	1.0	task_switch	color	switch	stim	poldrack-single-stim	s512	0	False
634.865	1.0	636.132	0.9	2.408	True	71.0	Color	switch	twobytwo	71.0	0.367	orange	7.0	cue_switch	color	stay	stim	poldrack-single-stim	s512	0	False
637.379	1.0	638.08	0.1	2.0	True	89.0	Magnitude	n/a	twobytwo	89.0	0.601	orange	8.0	task_switch	magnitude	switch	stim	poldrack-single-stim	s512	0	False
639.486	1.0	640.098	0.1	2.136	True	71.0	Color	n/a	twobytwo	71.0	0.512	orange	7.0	task_switch	color	switch	stim	poldrack-single-stim	s512	0	False
641.728	1.0	642.338	0.1	2.0	True	71.0	Color	stay	twobytwo	71.0	0.51	orange	9.0	cue_stay	color	stay	stim	poldrack-single-stim	s512	0	False
644.635	1.0	646.034	0.9	2.136	True	89.0	Magnitude	n/a	twobytwo	89.0	0.499	orange	9.0	task_switch	magnitude	switch	stim	poldrack-single-stim	s512	0	False
647.678	1.0	649.182	0.9	2.544	True	89.0	Magnitude	stay	twobytwo	89.0	0.604	orange	8.0	cue_stay	magnitude	stay	stim	poldrack-single-stim	s512	0	False
651.128	1.0	652.523	0.9	2.68	True	89.0	High-Low	switch	twobytwo	89.0	0.495	orange	8.0	cue_switch	magnitude	stay	stim	poldrack-single-stim	s512	0	False
653.914	1.0	654.535	0.1	3.088	True	89.0	High-Low	stay	twobytwo	89.0	0.521	orange	6.0	cue_stay	magnitude	stay	stim	poldrack-single-stim	s512	0	False
657.908	1.0	659.336	0.9	2.136	True	71.0	High-Low	stay	twobytwo	71.0	0.528	orange	4.0	cue_stay	magnitude	stay	stim	poldrack-single-stim	s512	0	False
660.151	1.0	660.854	0.1	2.544	True	71.0	Orange-Blue	n/a	twobytwo	71.0	0.603	orange	2.0	task_switch	color	switch	stim	poldrack-single-stim	s512	0	False
662.801	1.0	663.479	0.1	2.0	True	71.0	Magnitude	n/a	twobytwo	71.0	0.578	orange	3.0	task_switch	magnitude	switch	stim	poldrack-single-stim	s512	0	False
664.908	1.0	665.615	0.1	2.136	True	89.0	Magnitude	stay	twobytwo	89.0	0.607	blue	8.0	cue_stay	magnitude	stay	stim	poldrack-single-stim	s512	0	False
667.152	1.0	667.926	0.1	2.0	True	89.0	High-Low	switch	twobytwo	89.0	0.674	blue	7.0	cue_switch	magnitude	stay	stim	poldrack-single-stim	s512	0	False
670.058	1.0	671.573	0.9	2.408	True	71.0	High-Low	stay	twobytwo	71.0	0.615	blue	3.0	cue_stay	magnitude	stay	stim	poldrack-single-stim	s512	0	False
673.372	1.0	674.764	0.9	2.0	True	71.0	Orange-Blue	n/a	twobytwo	71.0	0.492	orange	3.0	task_switch	color	switch	stim	poldrack-single-stim	s512	0	False
675.479	1.0	676.159	0.1	2.0	True	71.0	Color	switch	twobytwo	71.0	0.58	orange	1.0	cue_switch	color	stay	stim	poldrack-single-stim	s512	0	False
678.384	1.0	679.755	0.9	2.0	True	71.0	Orange-Blue	switch	twobytwo	71.0	0.471	orange	1.0	cue_switch	color	stay	stim	poldrack-single-stim	s512	0	False
681.291	1.0	683.081	0.9	2.68	True	71.0	Magnitude	n/a	twobytwo	71.0	0.89	blue	2.0	task_switch	magnitude	switch	stim	poldrack-single-stim	s512	0	False
684.878	1.0	686.354	0.9	2.272	False	89.0	Orange-Blue	n/a	twobytwo	71.0	0.576	blue	3.0	task_switch	color	switch	stim	poldrack-single-stim	s512	0	False
688.056	1.0	689.542	0.9	2.408	True	71.0	High-Low	n/a	twobytwo	71.0	0.586	orange	1.0	task_switch	magnitude	switch	stim	poldrack-single-stim	s512	0	False
