duration	onset	block_duration	movement_onset	planning	condition	exp_stage	experiment_exp_id	key_press	problem_id	response_time	trial_id	trial_type	worker_id	junk
3.525	3.009	3.525	6.534	1	UA_with_intermediate	practice	ward_and_allport	71	0.0	3.525	to_hand	poldrack-single-stim	s512	False
0.1	6.536	0.94	7.476	0	UA_with_intermediate	practice	ward_and_allport	82	0.0	0.94	to_board	poldrack-single-stim	s512	False
0.1	7.48	0.697	8.177	0	UA_with_intermediate	practice	ward_and_allport	71	0.0	0.697	to_hand	poldrack-single-stim	s512	False
0.1	8.178	0.546	8.724	0	UA_with_intermediate	practice	ward_and_allport	89	0.0	0.546	to_board	poldrack-single-stim	s512	False
0.1	8.727	0.881	9.608	0	UA_with_intermediate	practice	ward_and_allport	82	0.0	0.881	to_hand	poldrack-single-stim	s512	False
0.1	9.609	0.519	10.128	0	UA_with_intermediate	practice	ward_and_allport	89	0.0	0.519	to_board	poldrack-single-stim	s512	False
1.0	10.133	2.5	10.132	0	UA_with_intermediate	practice	ward_and_allport	-1	0.0	n/a	feedback	poldrack-single-stim	s512	False
3.801	12.637	3.801	16.438	1	UA_with_intermediate	practice	ward_and_allport	89	1.0	3.801	to_hand	poldrack-single-stim	s512	False
0.1	16.44	0.781	17.221	0	UA_with_intermediate	practice	ward_and_allport	82	1.0	0.781	to_board	poldrack-single-stim	s512	False
0.1	17.224	0.67	17.894	0	UA_with_intermediate	practice	ward_and_allport	71	1.0	0.67	to_hand	poldrack-single-stim	s512	False
0.1	17.896	0.562	18.458	0	UA_with_intermediate	practice	ward_and_allport	89	1.0	0.562	to_board	poldrack-single-stim	s512	False
0.1	18.461	0.654	19.115	0	UA_with_intermediate	practice	ward_and_allport	82	1.0	0.654	to_hand	poldrack-single-stim	s512	False
0.1	19.115	0.44	19.555	0	UA_with_intermediate	practice	ward_and_allport	89	1.0	0.44	to_board	poldrack-single-stim	s512	False
1.0	19.559	2.1	19.558	0	UA_with_intermediate	practice	ward_and_allport	-1	1.0	n/a	feedback	poldrack-single-stim	s512	False
1.799	21.662	1.799	23.461	1	UA_without_intermediate	practice	ward_and_allport	82	2.0	1.799	to_hand	poldrack-single-stim	s512	False
0.1	23.462	0.391	23.853	0	UA_without_intermediate	practice	ward_and_allport	89	2.0	0.391	to_board	poldrack-single-stim	s512	False
0.1	23.857	0.669	24.526	0	UA_without_intermediate	practice	ward_and_allport	71	2.0	0.669	to_hand	poldrack-single-stim	s512	False
0.1	24.527	0.426	24.953	0	UA_without_intermediate	practice	ward_and_allport	89	2.0	0.426	to_board	poldrack-single-stim	s512	False
0.1	24.956	1.651	26.607	0	UA_without_intermediate	practice	ward_and_allport	71	2.0	1.651	to_hand	poldrack-single-stim	s512	False
0.1	26.607	0.439	27.046	0	UA_without_intermediate	practice	ward_and_allport	89	2.0	0.439	to_board	poldrack-single-stim	s512	False
1.0	27.05	2.2	27.049	0	UA_without_intermediate	practice	ward_and_allport	-1	2.0	n/a	feedback	poldrack-single-stim	s512	False
2.217	29.253	2.217	31.47	1	UA_without_intermediate	practice	ward_and_allport	71	3.0	2.217	to_hand	poldrack-single-stim	s512	False
0.1	31.472	0.432	31.904	0	UA_without_intermediate	practice	ward_and_allport	89	3.0	0.432	to_board	poldrack-single-stim	s512	False
0.1	31.907	1.043	32.95	0	UA_without_intermediate	practice	ward_and_allport	82	3.0	1.043	to_hand	poldrack-single-stim	s512	False
0.1	32.952	0.433	33.385	0	UA_without_intermediate	practice	ward_and_allport	89	3.0	0.433	to_board	poldrack-single-stim	s512	False
0.1	33.388	0.541	33.929	0	UA_without_intermediate	practice	ward_and_allport	71	3.0	0.541	to_hand	poldrack-single-stim	s512	False
0.1	33.931	0.519	34.45	0	UA_without_intermediate	practice	ward_and_allport	89	3.0	0.519	to_board	poldrack-single-stim	s512	False
1.0	34.454	2.0	34.453	0	UA_without_intermediate	practice	ward_and_allport	-1	3.0	n/a	feedback	poldrack-single-stim	s512	False
4.341	38.461	4.341	42.802	1	PA_without_intermediate	test	ward_and_allport	82	0.0	4.341	to_hand	poldrack-single-stim	s512	False
0.1	42.803	0.85	43.653	0	PA_without_intermediate	test	ward_and_allport	71	0.0	0.85	to_board	poldrack-single-stim	s512	False
0.1	43.655	2.388	46.043	0	PA_without_intermediate	test	ward_and_allport	82	0.0	2.388	to_hand	poldrack-single-stim	s512	False
0.1	46.045	0.562	46.607	0	PA_without_intermediate	test	ward_and_allport	89	0.0	0.562	to_board	poldrack-single-stim	s512	False
0.1	46.609	1.037	47.646	0	PA_without_intermediate	test	ward_and_allport	82	0.0	1.037	to_hand	poldrack-single-stim	s512	False
0.1	47.648	0.673	48.321	0	PA_without_intermediate	test	ward_and_allport	71	0.0	0.673	to_board	poldrack-single-stim	s512	False
1.0	48.325	3.088	48.324	0	PA_without_intermediate	test	ward_and_allport	-1	0.0	n/a	feedback	poldrack-single-stim	s512	False
3.705	51.416	3.705	55.121	1	PA_with_intermediate	test	ward_and_allport	82	1.0	3.705	to_hand	poldrack-single-stim	s512	False
0.1	55.123	0.597	55.72	0	PA_with_intermediate	test	ward_and_allport	71	1.0	0.597	to_board	poldrack-single-stim	s512	False
0.1	55.723	1.062	56.785	0	PA_with_intermediate	test	ward_and_allport	82	1.0	1.062	to_hand	poldrack-single-stim	s512	False
0.1	56.787	0.687	57.474	0	PA_with_intermediate	test	ward_and_allport	89	1.0	0.687	to_board	poldrack-single-stim	s512	False
0.1	57.479	0.854	58.333	0	PA_with_intermediate	test	ward_and_allport	71	1.0	0.854	to_hand	poldrack-single-stim	s512	False
0.1	58.335	0.732	59.067	0	PA_with_intermediate	test	ward_and_allport	82	1.0	0.732	to_board	poldrack-single-stim	s512	False
1.0	59.072	2.0	59.071	0	PA_with_intermediate	test	ward_and_allport	-1	1.0	n/a	feedback	poldrack-single-stim	s512	False
3.233	61.074	3.233	64.307	1	PA_without_intermediate	test	ward_and_allport	89	2.0	3.233	to_hand	poldrack-single-stim	s512	False
0.1	64.308	1.126	65.434	0	PA_without_intermediate	test	ward_and_allport	71	2.0	1.126	to_board	poldrack-single-stim	s512	False
0.1	65.438	1.171	66.609	0	PA_without_intermediate	test	ward_and_allport	89	2.0	1.171	to_hand	poldrack-single-stim	s512	False
0.1	66.611	0.433	67.044	0	PA_without_intermediate	test	ward_and_allport	71	2.0	0.433	to_board	poldrack-single-stim	s512	False
0.1	67.046	0.895	67.941	0	PA_without_intermediate	test	ward_and_allport	89	2.0	0.895	to_hand	poldrack-single-stim	s512	False
0.1	67.942	0.511	68.453	0	PA_without_intermediate	test	ward_and_allport	82	2.0	0.511	to_board	poldrack-single-stim	s512	False
1.0	68.458	2.0	68.457	0	PA_without_intermediate	test	ward_and_allport	-1	2.0	n/a	feedback	poldrack-single-stim	s512	False
2.554	70.463	2.554	73.017	1	PA_without_intermediate	test	ward_and_allport	82	3.0	2.554	to_hand	poldrack-single-stim	s512	False
0.1	73.018	0.508	73.526	0	PA_without_intermediate	test	ward_and_allport	71	3.0	0.508	to_board	poldrack-single-stim	s512	False
0.1	73.53	1.955	75.485	0	PA_without_intermediate	test	ward_and_allport	82	3.0	1.955	to_hand	poldrack-single-stim	s512	False
0.1	75.486	0.5	75.986	0	PA_without_intermediate	test	ward_and_allport	71	3.0	0.5	to_board	poldrack-single-stim	s512	False
0.1	75.99	0.535	76.525	0	PA_without_intermediate	test	ward_and_allport	82	3.0	0.535	to_hand	poldrack-single-stim	s512	False
0.1	76.527	0.399	76.926	0	PA_without_intermediate	test	ward_and_allport	89	3.0	0.399	to_board	poldrack-single-stim	s512	False
1.0	76.931	2.0	76.93	0	PA_without_intermediate	test	ward_and_allport	-1	3.0	n/a	feedback	poldrack-single-stim	s512	False
2.962	78.935	2.962	81.897	1	PA_with_intermediate	test	ward_and_allport	71	4.0	2.962	to_hand	poldrack-single-stim	s512	False
0.1	81.899	0.478	82.377	0	PA_with_intermediate	test	ward_and_allport	89	4.0	0.478	to_board	poldrack-single-stim	s512	False
0.1	82.382	0.71	83.092	0	PA_with_intermediate	test	ward_and_allport	71	4.0	0.71	to_hand	poldrack-single-stim	s512	False
0.1	83.094	0.513	83.607	0	PA_with_intermediate	test	ward_and_allport	82	4.0	0.513	to_board	poldrack-single-stim	s512	False
0.1	83.611	0.71	84.321	0	PA_with_intermediate	test	ward_and_allport	89	4.0	0.71	to_hand	poldrack-single-stim	s512	False
0.1	84.322	0.448	84.77	0	PA_with_intermediate	test	ward_and_allport	82	4.0	0.448	to_board	poldrack-single-stim	s512	False
1.0	84.776	2.544	84.775	0	PA_with_intermediate	test	ward_and_allport	-1	4.0	n/a	feedback	poldrack-single-stim	s512	False
2.077	87.323	2.077	89.4	1	PA_without_intermediate	test	ward_and_allport	71	5.0	2.077	to_hand	poldrack-single-stim	s512	False
0.1	89.401	0.645	90.046	0	PA_without_intermediate	test	ward_and_allport	82	5.0	0.645	to_board	poldrack-single-stim	s512	False
0.1	90.051	0.57	90.621	0	PA_without_intermediate	test	ward_and_allport	71	5.0	0.57	to_hand	poldrack-single-stim	s512	False
0.1	90.622	0.521	91.143	0	PA_without_intermediate	test	ward_and_allport	89	5.0	0.521	to_board	poldrack-single-stim	s512	False
0.1	91.146	0.873	92.019	0	PA_without_intermediate	test	ward_and_allport	71	5.0	0.873	to_hand	poldrack-single-stim	s512	False
0.1	92.021	0.676	92.697	0	PA_without_intermediate	test	ward_and_allport	82	5.0	0.676	to_board	poldrack-single-stim	s512	False
1.0	92.702	2.272	92.701	0	PA_without_intermediate	test	ward_and_allport	-1	5.0	n/a	feedback	poldrack-single-stim	s512	False
3.524	94.979	3.524	98.503	1	PA_with_intermediate	test	ward_and_allport	82	6.0	3.524	to_hand	poldrack-single-stim	s512	False
0.1	98.505	0.488	98.993	0	PA_with_intermediate	test	ward_and_allport	89	6.0	0.488	to_board	poldrack-single-stim	s512	False
0.1	98.998	0.567	99.565	0	PA_with_intermediate	test	ward_and_allport	82	6.0	0.567	to_hand	poldrack-single-stim	s512	False
0.1	99.567	0.464	100.031	0	PA_with_intermediate	test	ward_and_allport	71	6.0	0.464	to_board	poldrack-single-stim	s512	False
0.1	100.035	0.468	100.503	0	PA_with_intermediate	test	ward_and_allport	89	6.0	0.468	to_hand	poldrack-single-stim	s512	False
0.1	100.504	0.699	101.203	0	PA_with_intermediate	test	ward_and_allport	82	6.0	0.699	to_board	poldrack-single-stim	s512	False
1.0	101.208	4.04	101.207	0	PA_with_intermediate	test	ward_and_allport	-1	6.0	n/a	feedback	poldrack-single-stim	s512	False
2.52	105.252	2.52	107.772	1	PA_with_intermediate	test	ward_and_allport	82	7.0	2.52	to_hand	poldrack-single-stim	s512	False
0.1	107.773	0.531	108.304	0	PA_with_intermediate	test	ward_and_allport	89	7.0	0.531	to_board	poldrack-single-stim	s512	False
0.1	108.308	1.152	109.46	0	PA_with_intermediate	test	ward_and_allport	82	7.0	1.152	to_hand	poldrack-single-stim	s512	False
0.1	109.462	0.496	109.958	0	PA_with_intermediate	test	ward_and_allport	71	7.0	0.496	to_board	poldrack-single-stim	s512	False
0.1	109.962	0.567	110.529	0	PA_with_intermediate	test	ward_and_allport	89	7.0	0.567	to_hand	poldrack-single-stim	s512	False
0.1	110.53	0.659	111.189	0	PA_with_intermediate	test	ward_and_allport	71	7.0	0.659	to_board	poldrack-single-stim	s512	False
1.0	111.196	2.272	111.195	0	PA_with_intermediate	test	ward_and_allport	-1	7.0	n/a	feedback	poldrack-single-stim	s512	False
2.521	113.473	2.521	115.994	1	PA_with_intermediate	test	ward_and_allport	71	8.0	2.521	to_hand	poldrack-single-stim	s512	False
0.1	115.995	0.515	116.51	0	PA_with_intermediate	test	ward_and_allport	89	8.0	0.515	to_board	poldrack-single-stim	s512	False
0.1	116.514	0.73	117.244	0	PA_with_intermediate	test	ward_and_allport	71	8.0	0.73	to_hand	poldrack-single-stim	s512	False
0.1	117.246	0.62	117.866	0	PA_with_intermediate	test	ward_and_allport	82	8.0	0.62	to_board	poldrack-single-stim	s512	False
0.1	117.87	0.488	118.358	0	PA_with_intermediate	test	ward_and_allport	89	8.0	0.488	to_hand	poldrack-single-stim	s512	False
0.1	118.36	0.404	118.764	0	PA_with_intermediate	test	ward_and_allport	71	8.0	0.404	to_board	poldrack-single-stim	s512	False
1.0	118.769	2.136	118.768	0	PA_with_intermediate	test	ward_and_allport	-1	8.0	n/a	feedback	poldrack-single-stim	s512	False
2.298	120.911	2.298	123.209	1	PA_with_intermediate	test	ward_and_allport	71	9.0	2.298	to_hand	poldrack-single-stim	s512	False
0.1	123.211	0.449	123.66	0	PA_with_intermediate	test	ward_and_allport	82	9.0	0.449	to_board	poldrack-single-stim	s512	False
0.1	123.665	0.552	124.217	0	PA_with_intermediate	test	ward_and_allport	71	9.0	0.552	to_hand	poldrack-single-stim	s512	False
0.1	124.219	0.413	124.632	0	PA_with_intermediate	test	ward_and_allport	89	9.0	0.413	to_board	poldrack-single-stim	s512	False
0.1	124.637	0.663	125.3	0	PA_with_intermediate	test	ward_and_allport	82	9.0	0.663	to_hand	poldrack-single-stim	s512	False
0.1	125.302	0.503	125.805	0	PA_with_intermediate	test	ward_and_allport	89	9.0	0.503	to_board	poldrack-single-stim	s512	False
1.0	125.81	2.0	125.809	0	PA_with_intermediate	test	ward_and_allport	-1	9.0	n/a	feedback	poldrack-single-stim	s512	False
2.647	127.815	2.647	130.462	1	PA_with_intermediate	test	ward_and_allport	89	10.0	2.647	to_hand	poldrack-single-stim	s512	False
0.1	130.463	1.002	131.465	0	PA_with_intermediate	test	ward_and_allport	82	10.0	1.002	to_board	poldrack-single-stim	s512	False
0.1	131.47	1.16	132.63	0	PA_with_intermediate	test	ward_and_allport	89	10.0	1.16	to_hand	poldrack-single-stim	s512	False
0.1	132.632	0.599	133.231	0	PA_with_intermediate	test	ward_and_allport	71	10.0	0.599	to_board	poldrack-single-stim	s512	False
0.1	133.236	0.599	133.835	0	PA_with_intermediate	test	ward_and_allport	82	10.0	0.599	to_hand	poldrack-single-stim	s512	False
0.1	133.836	0.462	134.298	0	PA_with_intermediate	test	ward_and_allport	71	10.0	0.462	to_board	poldrack-single-stim	s512	False
1.0	134.304	2.0	134.303	0	PA_with_intermediate	test	ward_and_allport	-1	10.0	n/a	feedback	poldrack-single-stim	s512	False
3.844	136.31	3.844	140.154	1	PA_without_intermediate	test	ward_and_allport	71	11.0	3.844	to_hand	poldrack-single-stim	s512	False
0.1	140.158	0.476	140.634	0	PA_without_intermediate	test	ward_and_allport	89	11.0	0.476	to_board	poldrack-single-stim	s512	False
0.1	140.64	1.717	142.357	0	PA_without_intermediate	test	ward_and_allport	71	11.0	1.717	to_hand	poldrack-single-stim	s512	False
0.1	142.359	0.473	142.832	0	PA_without_intermediate	test	ward_and_allport	89	11.0	0.473	to_board	poldrack-single-stim	s512	False
0.1	142.836	0.676	143.512	0	PA_without_intermediate	test	ward_and_allport	71	11.0	0.676	to_hand	poldrack-single-stim	s512	False
0.1	143.514	0.443	143.957	0	PA_without_intermediate	test	ward_and_allport	82	11.0	0.443	to_board	poldrack-single-stim	s512	False
1.0	143.964	2.408	143.963	0	PA_without_intermediate	test	ward_and_allport	-1	11.0	n/a	feedback	poldrack-single-stim	s512	False
2.78	146.377	2.78	149.157	1	PA_with_intermediate	test	ward_and_allport	82	12.0	2.78	to_hand	poldrack-single-stim	s512	False
0.1	149.158	1.443	150.601	0	PA_with_intermediate	test	ward_and_allport	71	12.0	1.443	to_board	poldrack-single-stim	s512	False
0.1	150.606	0.802	151.408	0	PA_with_intermediate	test	ward_and_allport	82	12.0	0.802	to_hand	poldrack-single-stim	s512	False
0.1	151.409	0.435	151.844	0	PA_with_intermediate	test	ward_and_allport	89	12.0	0.435	to_board	poldrack-single-stim	s512	False
0.1	151.849	0.751	152.6	0	PA_with_intermediate	test	ward_and_allport	71	12.0	0.751	to_hand	poldrack-single-stim	s512	False
0.1	152.602	0.431	153.033	0	PA_with_intermediate	test	ward_and_allport	82	12.0	0.431	to_board	poldrack-single-stim	s512	False
1.0	153.039	3.768	153.038	0	PA_with_intermediate	test	ward_and_allport	-1	12.0	n/a	feedback	poldrack-single-stim	s512	False
2.576	156.813	2.576	159.389	1	PA_with_intermediate	test	ward_and_allport	82	13.0	2.576	to_hand	poldrack-single-stim	s512	False
0.1	159.39	1.035	160.425	0	PA_with_intermediate	test	ward_and_allport	89	13.0	1.035	to_board	poldrack-single-stim	s512	False
0.1	160.431	1.157	161.588	0	PA_with_intermediate	test	ward_and_allport	82	13.0	1.157	to_hand	poldrack-single-stim	s512	False
0.1	161.59	0.446	162.036	0	PA_with_intermediate	test	ward_and_allport	71	13.0	0.446	to_board	poldrack-single-stim	s512	False
0.1	162.041	0.535	162.576	0	PA_with_intermediate	test	ward_and_allport	89	13.0	0.535	to_hand	poldrack-single-stim	s512	False
0.1	162.578	0.42	162.998	0	PA_with_intermediate	test	ward_and_allport	82	13.0	0.42	to_board	poldrack-single-stim	s512	False
1.0	163.004	2.68	163.003	0	PA_with_intermediate	test	ward_and_allport	-1	13.0	n/a	feedback	poldrack-single-stim	s512	False
2.159	165.69	2.159	167.849	1	PA_without_intermediate	test	ward_and_allport	82	14.0	2.159	to_hand	poldrack-single-stim	s512	False
0.1	167.853	0.428	168.281	0	PA_without_intermediate	test	ward_and_allport	89	14.0	0.428	to_board	poldrack-single-stim	s512	False
0.1	168.286	1.884	170.17	0	PA_without_intermediate	test	ward_and_allport	82	14.0	1.884	to_hand	poldrack-single-stim	s512	False
0.1	170.172	0.386	170.558	0	PA_without_intermediate	test	ward_and_allport	71	14.0	0.386	to_board	poldrack-single-stim	s512	False
0.1	170.563	0.701	171.264	0	PA_without_intermediate	test	ward_and_allport	82	14.0	0.701	to_hand	poldrack-single-stim	s512	False
0.1	171.266	0.619	171.885	0	PA_without_intermediate	test	ward_and_allport	89	14.0	0.619	to_board	poldrack-single-stim	s512	False
1.0	171.891	3.224	171.89	0	PA_without_intermediate	test	ward_and_allport	-1	14.0	n/a	feedback	poldrack-single-stim	s512	False
2.281	180.125	2.281	182.406	1	PA_without_intermediate	test	ward_and_allport	82	15.0	2.281	to_hand	poldrack-single-stim	s512	False
0.1	182.408	0.573	182.981	0	PA_without_intermediate	test	ward_and_allport	89	15.0	0.573	to_board	poldrack-single-stim	s512	False
0.1	182.986	1.052	184.038	0	PA_without_intermediate	test	ward_and_allport	82	15.0	1.052	to_hand	poldrack-single-stim	s512	False
0.1	184.039	0.809	184.848	0	PA_without_intermediate	test	ward_and_allport	89	15.0	0.809	to_board	poldrack-single-stim	s512	False
0.1	184.854	1.028	185.882	0	PA_without_intermediate	test	ward_and_allport	82	15.0	1.028	to_hand	poldrack-single-stim	s512	False
0.1	185.884	0.61	186.494	0	PA_without_intermediate	test	ward_and_allport	71	15.0	0.61	to_board	poldrack-single-stim	s512	False
1.0	186.501	3.36	186.5	0	PA_without_intermediate	test	ward_and_allport	-1	15.0	n/a	feedback	poldrack-single-stim	s512	False
2.568	189.867	2.568	192.435	1	PA_without_intermediate	test	ward_and_allport	71	16.0	2.568	to_hand	poldrack-single-stim	s512	False
0.1	192.436	0.416	192.852	0	PA_without_intermediate	test	ward_and_allport	89	16.0	0.416	to_board	poldrack-single-stim	s512	False
0.1	192.857	1.179	194.036	0	PA_without_intermediate	test	ward_and_allport	71	16.0	1.179	to_hand	poldrack-single-stim	s512	False
0.1	194.037	0.522	194.559	0	PA_without_intermediate	test	ward_and_allport	82	16.0	0.522	to_board	poldrack-single-stim	s512	False
0.1	194.564	0.753	195.317	0	PA_without_intermediate	test	ward_and_allport	71	16.0	0.753	to_hand	poldrack-single-stim	s512	False
0.1	195.318	0.644	195.962	0	PA_without_intermediate	test	ward_and_allport	89	16.0	0.644	to_board	poldrack-single-stim	s512	False
1.0	195.969	2.0	195.968	0	PA_without_intermediate	test	ward_and_allport	-1	16.0	n/a	feedback	poldrack-single-stim	s512	False
2.271	197.975	2.271	200.246	1	PA_without_intermediate	test	ward_and_allport	89	17.0	2.271	to_hand	poldrack-single-stim	s512	False
0.1	200.248	0.48	200.728	0	PA_without_intermediate	test	ward_and_allport	71	17.0	0.48	to_board	poldrack-single-stim	s512	False
0.1	200.734	0.816	201.55	0	PA_without_intermediate	test	ward_and_allport	89	17.0	0.816	to_hand	poldrack-single-stim	s512	False
0.1	201.552	0.57	202.122	0	PA_without_intermediate	test	ward_and_allport	82	17.0	0.57	to_board	poldrack-single-stim	s512	False
0.1	202.128	0.82	202.948	0	PA_without_intermediate	test	ward_and_allport	89	17.0	0.82	to_hand	poldrack-single-stim	s512	False
0.1	202.95	0.832	203.782	0	PA_without_intermediate	test	ward_and_allport	71	17.0	0.832	to_board	poldrack-single-stim	s512	False
1.0	203.789	2.408	203.788	0	PA_without_intermediate	test	ward_and_allport	-1	17.0	n/a	feedback	poldrack-single-stim	s512	False
3.195	206.203	3.195	209.398	1	PA_with_intermediate	test	ward_and_allport	71	18.0	3.195	to_hand	poldrack-single-stim	s512	False
0.1	209.4	0.561	209.961	0	PA_with_intermediate	test	ward_and_allport	89	18.0	0.561	to_board	poldrack-single-stim	s512	False
0.1	209.967	0.551	210.518	0	PA_with_intermediate	test	ward_and_allport	71	18.0	0.551	to_hand	poldrack-single-stim	s512	False
0.1	210.52	0.406	210.926	0	PA_with_intermediate	test	ward_and_allport	82	18.0	0.406	to_board	poldrack-single-stim	s512	False
0.1	210.931	0.566	211.497	0	PA_with_intermediate	test	ward_and_allport	89	18.0	0.566	to_hand	poldrack-single-stim	s512	False
0.1	211.499	0.5	211.999	0	PA_with_intermediate	test	ward_and_allport	71	18.0	0.5	to_board	poldrack-single-stim	s512	False
1.0	212.006	2.136	212.005	0	PA_with_intermediate	test	ward_and_allport	-1	18.0	n/a	feedback	poldrack-single-stim	s512	False
2.172	214.148	2.172	216.32	1	PA_without_intermediate	test	ward_and_allport	89	19.0	2.172	to_hand	poldrack-single-stim	s512	False
0.1	216.321	0.745	217.066	0	PA_without_intermediate	test	ward_and_allport	82	19.0	0.745	to_board	poldrack-single-stim	s512	False
0.1	217.072	0.924	217.996	0	PA_without_intermediate	test	ward_and_allport	89	19.0	0.924	to_hand	poldrack-single-stim	s512	False
0.1	217.997	0.533	218.53	0	PA_without_intermediate	test	ward_and_allport	82	19.0	0.533	to_board	poldrack-single-stim	s512	False
0.1	218.536	0.614	219.15	0	PA_without_intermediate	test	ward_and_allport	89	19.0	0.614	to_hand	poldrack-single-stim	s512	False
0.1	219.152	0.455	219.607	0	PA_without_intermediate	test	ward_and_allport	71	19.0	0.455	to_board	poldrack-single-stim	s512	False
1.0	219.614	5.128	219.613	0	PA_without_intermediate	test	ward_and_allport	-1	19.0	n/a	feedback	poldrack-single-stim	s512	False
1.675	224.749	1.675	226.424	1	PA_without_intermediate	test	ward_and_allport	89	20.0	1.675	to_hand	poldrack-single-stim	s512	False
0.1	226.426	0.652	227.078	0	PA_without_intermediate	test	ward_and_allport	82	20.0	0.652	to_board	poldrack-single-stim	s512	False
0.1	227.084	0.654	227.738	0	PA_without_intermediate	test	ward_and_allport	89	20.0	0.654	to_hand	poldrack-single-stim	s512	False
0.1	227.74	0.64	228.38	0	PA_without_intermediate	test	ward_and_allport	71	20.0	0.64	to_board	poldrack-single-stim	s512	False
0.1	228.386	0.433	228.819	0	PA_without_intermediate	test	ward_and_allport	89	20.0	0.433	to_hand	poldrack-single-stim	s512	False
0.1	228.821	0.653	229.474	0	PA_without_intermediate	test	ward_and_allport	82	20.0	0.653	to_board	poldrack-single-stim	s512	False
1.0	229.481	2.136	229.48	0	PA_without_intermediate	test	ward_and_allport	-1	20.0	n/a	feedback	poldrack-single-stim	s512	False
1.634	231.624	1.634	233.258	1	PA_without_intermediate	test	ward_and_allport	71	21.0	1.634	to_hand	poldrack-single-stim	s512	False
0.1	233.26	0.443	233.703	0	PA_without_intermediate	test	ward_and_allport	82	21.0	0.443	to_board	poldrack-single-stim	s512	False
0.1	233.71	0.628	234.338	0	PA_without_intermediate	test	ward_and_allport	71	21.0	0.628	to_hand	poldrack-single-stim	s512	False
0.1	234.34	0.467	234.807	0	PA_without_intermediate	test	ward_and_allport	82	21.0	0.467	to_board	poldrack-single-stim	s512	False
0.1	234.813	0.882	235.695	0	PA_without_intermediate	test	ward_and_allport	71	21.0	0.882	to_hand	poldrack-single-stim	s512	False
0.1	235.696	0.446	236.142	0	PA_without_intermediate	test	ward_and_allport	89	21.0	0.446	to_board	poldrack-single-stim	s512	False
1.0	236.149	5.264	236.148	0	PA_without_intermediate	test	ward_and_allport	-1	21.0	n/a	feedback	poldrack-single-stim	s512	False
3.479	241.42	3.479	244.899	1	PA_with_intermediate	test	ward_and_allport	71	22.0	3.479	to_hand	poldrack-single-stim	s512	False
0.1	244.901	0.402	245.303	0	PA_with_intermediate	test	ward_and_allport	82	22.0	0.402	to_board	poldrack-single-stim	s512	False
0.1	245.309	0.84	246.149	0	PA_with_intermediate	test	ward_and_allport	71	22.0	0.84	to_hand	poldrack-single-stim	s512	False
0.1	246.15	0.501	246.651	0	PA_with_intermediate	test	ward_and_allport	89	22.0	0.501	to_board	poldrack-single-stim	s512	False
0.1	246.657	0.691	247.348	0	PA_with_intermediate	test	ward_and_allport	82	22.0	0.691	to_hand	poldrack-single-stim	s512	False
0.1	247.349	0.442	247.791	0	PA_with_intermediate	test	ward_and_allport	71	22.0	0.442	to_board	poldrack-single-stim	s512	False
1.0	247.799	4.04	247.798	0	PA_with_intermediate	test	ward_and_allport	-1	22.0	n/a	feedback	poldrack-single-stim	s512	False
1.583	251.846	1.583	253.429	1	PA_with_intermediate	test	ward_and_allport	89	23.0	1.583	to_hand	poldrack-single-stim	s512	False
0.1	253.431	0.493	253.924	0	PA_with_intermediate	test	ward_and_allport	71	23.0	0.493	to_board	poldrack-single-stim	s512	False
0.1	253.932	0.424	254.356	0	PA_with_intermediate	test	ward_and_allport	89	23.0	0.424	to_hand	poldrack-single-stim	s512	False
0.1	254.357	0.397	254.754	0	PA_with_intermediate	test	ward_and_allport	82	23.0	0.397	to_board	poldrack-single-stim	s512	False
0.1	254.762	0.541	255.303	0	PA_with_intermediate	test	ward_and_allport	71	23.0	0.541	to_hand	poldrack-single-stim	s512	False
0.1	255.304	0.527	255.831	0	PA_with_intermediate	test	ward_and_allport	82	23.0	0.527	to_board	poldrack-single-stim	s512	False
1.0	255.841	2.136	255.84	0	PA_with_intermediate	test	ward_and_allport	-1	23.0	n/a	feedback	poldrack-single-stim	s512	False
1.604	257.983	1.604	259.587	1	PA_with_intermediate	test	ward_and_allport	89	24.0	1.604	to_hand	poldrack-single-stim	s512	False
0.1	259.588	0.428	260.016	0	PA_with_intermediate	test	ward_and_allport	82	24.0	0.428	to_board	poldrack-single-stim	s512	False
0.1	260.024	0.814	260.838	0	PA_with_intermediate	test	ward_and_allport	89	24.0	0.814	to_hand	poldrack-single-stim	s512	False
0.1	260.84	0.707	261.547	0	PA_with_intermediate	test	ward_and_allport	71	24.0	0.707	to_board	poldrack-single-stim	s512	False
0.1	261.553	0.647	262.2	0	PA_with_intermediate	test	ward_and_allport	82	24.0	0.647	to_hand	poldrack-single-stim	s512	False
0.1	262.202	0.54	262.742	0	PA_with_intermediate	test	ward_and_allport	71	24.0	0.54	to_board	poldrack-single-stim	s512	False
1.0	262.751	2.408	262.75	0	PA_with_intermediate	test	ward_and_allport	-1	24.0	n/a	feedback	poldrack-single-stim	s512	False
0.913	265.168	0.913	266.081	1	PA_without_intermediate	test	ward_and_allport	89	25.0	0.913	to_hand	poldrack-single-stim	s512	False
0.1	266.082	0.539	266.621	0	PA_without_intermediate	test	ward_and_allport	82	25.0	0.539	to_board	poldrack-single-stim	s512	False
0.1	266.629	0.503	267.132	0	PA_without_intermediate	test	ward_and_allport	89	25.0	0.503	to_hand	poldrack-single-stim	s512	False
0.1	267.134	0.523	267.657	0	PA_without_intermediate	test	ward_and_allport	82	25.0	0.523	to_board	poldrack-single-stim	s512	False
0.1	267.665	1.032	268.697	0	PA_without_intermediate	test	ward_and_allport	89	25.0	1.032	to_hand	poldrack-single-stim	s512	False
0.1	268.698	0.476	269.174	0	PA_without_intermediate	test	ward_and_allport	71	25.0	0.476	to_board	poldrack-single-stim	s512	False
1.0	269.182	2.68	269.181	0	PA_without_intermediate	test	ward_and_allport	-1	25.0	n/a	feedback	poldrack-single-stim	s512	False
1.306	271.871	1.306	273.177	1	PA_with_intermediate	test	ward_and_allport	89	26.0	1.306	to_hand	poldrack-single-stim	s512	False
0.1	273.179	0.429	273.608	0	PA_with_intermediate	test	ward_and_allport	71	26.0	0.429	to_board	poldrack-single-stim	s512	False
0.1	273.616	0.361	273.977	0	PA_with_intermediate	test	ward_and_allport	89	26.0	0.361	to_hand	poldrack-single-stim	s512	False
0.1	273.979	0.362	274.341	0	PA_with_intermediate	test	ward_and_allport	82	26.0	0.362	to_board	poldrack-single-stim	s512	False
0.1	274.349	0.833	275.182	0	PA_with_intermediate	test	ward_and_allport	71	26.0	0.833	to_hand	poldrack-single-stim	s512	False
0.1	275.184	0.883	276.067	0	PA_with_intermediate	test	ward_and_allport	82	26.0	0.883	to_board	poldrack-single-stim	s512	False
1.0	276.077	4.72	276.076	0	PA_with_intermediate	test	ward_and_allport	-1	26.0	n/a	feedback	poldrack-single-stim	s512	False
1.331	280.805	1.331	282.136	1	PA_without_intermediate	test	ward_and_allport	71	27.0	1.331	to_hand	poldrack-single-stim	s512	False
0.1	282.137	0.48	282.617	0	PA_without_intermediate	test	ward_and_allport	82	27.0	0.48	to_board	poldrack-single-stim	s512	False
0.1	282.625	1.056	283.681	0	PA_without_intermediate	test	ward_and_allport	71	27.0	1.056	to_hand	poldrack-single-stim	s512	False
0.1	283.682	0.4	284.082	0	PA_without_intermediate	test	ward_and_allport	89	27.0	0.4	to_board	poldrack-single-stim	s512	False
0.1	284.09	0.545	284.635	0	PA_without_intermediate	test	ward_and_allport	71	27.0	0.545	to_hand	poldrack-single-stim	s512	False
0.1	284.636	0.379	285.015	0	PA_without_intermediate	test	ward_and_allport	82	27.0	0.379	to_board	poldrack-single-stim	s512	False
1.0	285.024	3.224	285.023	0	PA_without_intermediate	test	ward_and_allport	-1	27.0	n/a	feedback	poldrack-single-stim	s512	False
1.314	288.256	1.314	289.57	1	PA_without_intermediate	test	ward_and_allport	71	28.0	1.314	to_hand	poldrack-single-stim	s512	False
0.1	289.572	0.441	290.013	0	PA_without_intermediate	test	ward_and_allport	82	28.0	0.441	to_board	poldrack-single-stim	s512	False
0.1	290.021	0.515	290.536	0	PA_without_intermediate	test	ward_and_allport	71	28.0	0.515	to_hand	poldrack-single-stim	s512	False
0.1	290.538	0.415	290.953	0	PA_without_intermediate	test	ward_and_allport	82	28.0	0.415	to_board	poldrack-single-stim	s512	False
0.1	290.961	0.788	291.749	0	PA_without_intermediate	test	ward_and_allport	71	28.0	0.788	to_hand	poldrack-single-stim	s512	False
0.1	291.75	0.394	292.144	0	PA_without_intermediate	test	ward_and_allport	89	28.0	0.394	to_board	poldrack-single-stim	s512	False
1.0	292.153	2.272	292.152	0	PA_without_intermediate	test	ward_and_allport	-1	28.0	n/a	feedback	poldrack-single-stim	s512	False
1.632	294.433	1.632	296.065	1	PA_with_intermediate	test	ward_and_allport	71	29.0	1.632	to_hand	poldrack-single-stim	s512	False
0.1	296.067	0.562	296.629	0	PA_with_intermediate	test	ward_and_allport	82	29.0	0.562	to_board	poldrack-single-stim	s512	False
0.1	296.638	0.53	297.168	0	PA_with_intermediate	test	ward_and_allport	71	29.0	0.53	to_hand	poldrack-single-stim	s512	False
0.1	297.169	0.361	297.53	0	PA_with_intermediate	test	ward_and_allport	89	29.0	0.361	to_board	poldrack-single-stim	s512	False
0.1	297.539	1.29	298.829	0	PA_with_intermediate	test	ward_and_allport	82	29.0	1.29	to_hand	poldrack-single-stim	s512	False
0.1	298.831	0.518	299.349	0	PA_with_intermediate	test	ward_and_allport	89	29.0	0.518	to_board	poldrack-single-stim	s512	False
1.0	299.358	3.632	299.357	0	PA_with_intermediate	test	ward_and_allport	-1	29.0	n/a	feedback	poldrack-single-stim	s512	False
0.982	308.001	0.982	308.983	1	PA_without_intermediate	test	ward_and_allport	89	30.0	0.982	to_hand	poldrack-single-stim	s512	False
0.1	308.984	0.552	309.536	0	PA_without_intermediate	test	ward_and_allport	82	30.0	0.552	to_board	poldrack-single-stim	s512	False
0.1	309.544	0.817	310.361	0	PA_without_intermediate	test	ward_and_allport	89	30.0	0.817	to_hand	poldrack-single-stim	s512	False
0.1	310.363	0.547	310.91	0	PA_without_intermediate	test	ward_and_allport	71	30.0	0.547	to_board	poldrack-single-stim	s512	False
0.1	310.919	0.452	311.371	0	PA_without_intermediate	test	ward_and_allport	89	30.0	0.452	to_hand	poldrack-single-stim	s512	False
0.1	311.372	0.811	312.183	0	PA_without_intermediate	test	ward_and_allport	82	30.0	0.811	to_board	poldrack-single-stim	s512	False
1.0	312.193	2.408	312.192	0	PA_without_intermediate	test	ward_and_allport	-1	30.0	n/a	feedback	poldrack-single-stim	s512	False
1.455	314.61	1.455	316.065	1	PA_without_intermediate	test	ward_and_allport	71	31.0	1.455	to_hand	poldrack-single-stim	s512	False
0.1	316.067	0.443	316.51	0	PA_without_intermediate	test	ward_and_allport	89	31.0	0.443	to_board	poldrack-single-stim	s512	False
0.1	316.519	0.532	317.051	0	PA_without_intermediate	test	ward_and_allport	71	31.0	0.532	to_hand	poldrack-single-stim	s512	False
0.1	317.053	0.317	317.37	0	PA_without_intermediate	test	ward_and_allport	82	31.0	0.317	to_board	poldrack-single-stim	s512	False
0.1	317.379	0.645	318.024	0	PA_without_intermediate	test	ward_and_allport	71	31.0	0.645	to_hand	poldrack-single-stim	s512	False
0.1	318.025	0.493	318.518	0	PA_without_intermediate	test	ward_and_allport	89	31.0	0.493	to_board	poldrack-single-stim	s512	False
1.0	318.527	2.0	318.526	0	PA_without_intermediate	test	ward_and_allport	-1	31.0	n/a	feedback	poldrack-single-stim	s512	False
1.44	320.536	1.44	321.976	1	PA_with_intermediate	test	ward_and_allport	71	32.0	1.44	to_hand	poldrack-single-stim	s512	False
0.1	321.977	0.32	322.297	0	PA_with_intermediate	test	ward_and_allport	89	32.0	0.32	to_board	poldrack-single-stim	s512	False
0.1	322.306	0.441	322.747	0	PA_with_intermediate	test	ward_and_allport	71	32.0	0.441	to_hand	poldrack-single-stim	s512	False
0.1	322.749	0.522	323.271	0	PA_with_intermediate	test	ward_and_allport	82	32.0	0.522	to_board	poldrack-single-stim	s512	False
0.1	323.279	1.165	324.444	0	PA_with_intermediate	test	ward_and_allport	89	32.0	1.165	to_hand	poldrack-single-stim	s512	False
0.1	324.446	0.538	324.984	0	PA_with_intermediate	test	ward_and_allport	82	32.0	0.538	to_board	poldrack-single-stim	s512	False
1.0	324.993	2.0	324.992	0	PA_with_intermediate	test	ward_and_allport	-1	32.0	n/a	feedback	poldrack-single-stim	s512	False
2.073	327.001	2.073	329.074	1	PA_with_intermediate	test	ward_and_allport	89	33.0	2.073	to_hand	poldrack-single-stim	s512	False
0.1	329.074	0.42	329.494	0	PA_with_intermediate	test	ward_and_allport	82	33.0	0.42	to_board	poldrack-single-stim	s512	False
0.1	329.501	1.606	331.107	0	PA_with_intermediate	test	ward_and_allport	89	33.0	1.606	to_hand	poldrack-single-stim	s512	False
0.1	331.109	0.649	331.758	0	PA_with_intermediate	test	ward_and_allport	71	33.0	0.649	to_board	poldrack-single-stim	s512	False
0.1	331.767	0.647	332.414	0	PA_with_intermediate	test	ward_and_allport	82	33.0	0.647	to_hand	poldrack-single-stim	s512	False
0.1	332.416	0.452	332.868	0	PA_with_intermediate	test	ward_and_allport	89	33.0	0.452	to_board	poldrack-single-stim	s512	False
1.0	332.88	2.0	332.879	0	PA_with_intermediate	test	ward_and_allport	-1	33.0	n/a	feedback	poldrack-single-stim	s512	False
2.353	334.891	2.353	337.244	1	PA_with_intermediate	test	ward_and_allport	89	34.0	2.353	to_hand	poldrack-single-stim	s512	False
0.1	337.246	0.399	337.645	0	PA_with_intermediate	test	ward_and_allport	82	34.0	0.399	to_board	poldrack-single-stim	s512	False
0.1	337.653	0.7	338.353	0	PA_with_intermediate	test	ward_and_allport	89	34.0	0.7	to_hand	poldrack-single-stim	s512	False
0.1	338.355	0.739	339.094	0	PA_with_intermediate	test	ward_and_allport	71	34.0	0.739	to_board	poldrack-single-stim	s512	False
0.1	339.102	0.758	339.86	0	PA_with_intermediate	test	ward_and_allport	82	34.0	0.758	to_hand	poldrack-single-stim	s512	False
0.1	339.862	0.426	340.288	0	PA_with_intermediate	test	ward_and_allport	89	34.0	0.426	to_board	poldrack-single-stim	s512	False
1.0	340.297	2.408	340.296	0	PA_with_intermediate	test	ward_and_allport	-1	34.0	n/a	feedback	poldrack-single-stim	s512	False
1.429	342.715	1.429	344.144	1	PA_without_intermediate	test	ward_and_allport	89	35.0	1.429	to_hand	poldrack-single-stim	s512	False
0.1	344.145	0.487	344.632	0	PA_without_intermediate	test	ward_and_allport	71	35.0	0.487	to_board	poldrack-single-stim	s512	False
0.1	344.642	0.95	345.592	0	PA_without_intermediate	test	ward_and_allport	89	35.0	0.95	to_hand	poldrack-single-stim	s512	False
0.1	345.593	0.422	346.015	0	PA_without_intermediate	test	ward_and_allport	71	35.0	0.422	to_board	poldrack-single-stim	s512	False
0.1	346.025	0.423	346.448	0	PA_without_intermediate	test	ward_and_allport	89	35.0	0.423	to_hand	poldrack-single-stim	s512	False
0.1	346.45	0.347	346.797	0	PA_without_intermediate	test	ward_and_allport	82	35.0	0.347	to_board	poldrack-single-stim	s512	False
1.0	346.806	2.816	346.805	0	PA_without_intermediate	test	ward_and_allport	-1	35.0	n/a	feedback	poldrack-single-stim	s512	False
2.973	349.631	2.973	352.604	1	PA_with_intermediate	test	ward_and_allport	82	36.0	2.973	to_hand	poldrack-single-stim	s512	False
0.1	352.606	0.373	352.979	0	PA_with_intermediate	test	ward_and_allport	89	36.0	0.373	to_board	poldrack-single-stim	s512	False
0.1	352.988	1.427	354.415	0	PA_with_intermediate	test	ward_and_allport	82	36.0	1.427	to_hand	poldrack-single-stim	s512	False
0.1	354.417	0.347	354.764	0	PA_with_intermediate	test	ward_and_allport	71	36.0	0.347	to_board	poldrack-single-stim	s512	False
0.1	354.774	0.593	355.367	0	PA_with_intermediate	test	ward_and_allport	89	36.0	0.593	to_hand	poldrack-single-stim	s512	False
0.1	355.369	0.41	355.779	0	PA_with_intermediate	test	ward_and_allport	71	36.0	0.41	to_board	poldrack-single-stim	s512	False
1.0	355.791	4.176	355.79	0	PA_with_intermediate	test	ward_and_allport	-1	36.0	n/a	feedback	poldrack-single-stim	s512	False
1.885	359.978	1.885	361.863	1	PA_with_intermediate	test	ward_and_allport	89	37.0	1.885	to_hand	poldrack-single-stim	s512	False
0.1	361.864	0.6	362.464	0	PA_with_intermediate	test	ward_and_allport	71	37.0	0.6	to_board	poldrack-single-stim	s512	False
0.1	362.473	0.443	362.916	0	PA_with_intermediate	test	ward_and_allport	89	37.0	0.443	to_hand	poldrack-single-stim	s512	False
0.1	362.918	0.404	363.322	0	PA_with_intermediate	test	ward_and_allport	82	37.0	0.404	to_board	poldrack-single-stim	s512	False
0.1	363.332	0.852	364.184	0	PA_with_intermediate	test	ward_and_allport	71	37.0	0.852	to_hand	poldrack-single-stim	s512	False
0.1	364.185	0.352	364.537	0	PA_with_intermediate	test	ward_and_allport	89	37.0	0.352	to_board	poldrack-single-stim	s512	False
1.0	364.55	3.36	364.549	0	PA_with_intermediate	test	ward_and_allport	-1	37.0	n/a	feedback	poldrack-single-stim	s512	False
2.481	367.92	2.481	370.401	1	PA_with_intermediate	test	ward_and_allport	71	38.0	2.481	to_hand	poldrack-single-stim	s512	False
0.1	370.403	1.77	372.173	0	PA_with_intermediate	test	ward_and_allport	82	38.0	1.77	to_board	poldrack-single-stim	s512	False
0.1	372.181	0.414	372.595	0	PA_with_intermediate	test	ward_and_allport	71	38.0	0.414	to_hand	poldrack-single-stim	s512	False
0.1	372.596	0.446	373.042	0	PA_with_intermediate	test	ward_and_allport	89	38.0	0.446	to_board	poldrack-single-stim	s512	False
0.1	373.052	0.576	373.628	0	PA_with_intermediate	test	ward_and_allport	82	38.0	0.576	to_hand	poldrack-single-stim	s512	False
0.1	373.629	0.877	374.506	0	PA_with_intermediate	test	ward_and_allport	71	38.0	0.877	to_board	poldrack-single-stim	s512	False
1.0	374.517	2.0	374.516	0	PA_with_intermediate	test	ward_and_allport	-1	38.0	n/a	feedback	poldrack-single-stim	s512	False
2.063	376.529	2.063	378.592	1	PA_without_intermediate	test	ward_and_allport	82	39.0	2.063	to_hand	poldrack-single-stim	s512	False
0.1	378.594	0.384	378.978	0	PA_without_intermediate	test	ward_and_allport	89	39.0	0.384	to_board	poldrack-single-stim	s512	False
0.1	378.988	1.198	380.186	0	PA_without_intermediate	test	ward_and_allport	82	39.0	1.198	to_hand	poldrack-single-stim	s512	False
0.1	380.188	0.386	380.574	0	PA_without_intermediate	test	ward_and_allport	89	39.0	0.386	to_board	poldrack-single-stim	s512	False
0.1	380.582	0.72	381.302	0	PA_without_intermediate	test	ward_and_allport	82	39.0	0.72	to_hand	poldrack-single-stim	s512	False
0.1	381.304	0.41	381.714	0	PA_without_intermediate	test	ward_and_allport	71	39.0	0.41	to_board	poldrack-single-stim	s512	False
1.0	381.724	2.408	381.723	0	PA_without_intermediate	test	ward_and_allport	-1	39.0	n/a	feedback	poldrack-single-stim	s512	False
1.503	384.14	1.503	385.643	1	PA_with_intermediate	test	ward_and_allport	89	40.0	1.503	to_hand	poldrack-single-stim	s512	False
0.1	385.645	0.571	386.216	0	PA_with_intermediate	test	ward_and_allport	71	40.0	0.571	to_board	poldrack-single-stim	s512	False
0.1	386.224	0.584	386.808	0	PA_with_intermediate	test	ward_and_allport	89	40.0	0.584	to_hand	poldrack-single-stim	s512	False
0.1	386.808	0.41	387.218	0	PA_with_intermediate	test	ward_and_allport	82	40.0	0.41	to_board	poldrack-single-stim	s512	False
0.1	387.228	0.567	387.795	0	PA_with_intermediate	test	ward_and_allport	71	40.0	0.567	to_hand	poldrack-single-stim	s512	False
0.1	387.796	0.299	388.095	0	PA_with_intermediate	test	ward_and_allport	89	40.0	0.299	to_board	poldrack-single-stim	s512	False
1.0	388.106	2.816	388.105	0	PA_with_intermediate	test	ward_and_allport	-1	40.0	n/a	feedback	poldrack-single-stim	s512	False
1.309	390.932	1.309	392.241	1	PA_without_intermediate	test	ward_and_allport	89	41.0	1.309	to_hand	poldrack-single-stim	s512	False
0.1	392.242	1.535	393.777	0	PA_without_intermediate	test	ward_and_allport	71	41.0	1.535	to_board	poldrack-single-stim	s512	False
0.1	393.785	0.702	394.487	0	PA_without_intermediate	test	ward_and_allport	89	41.0	0.702	to_hand	poldrack-single-stim	s512	False
0.1	394.489	0.401	394.89	0	PA_without_intermediate	test	ward_and_allport	82	41.0	0.401	to_board	poldrack-single-stim	s512	False
0.1	394.901	0.561	395.462	0	PA_without_intermediate	test	ward_and_allport	89	41.0	0.561	to_hand	poldrack-single-stim	s512	False
0.1	395.463	0.442	395.905	0	PA_without_intermediate	test	ward_and_allport	71	41.0	0.442	to_board	poldrack-single-stim	s512	False
1.0	395.917	3.088	395.916	0	PA_without_intermediate	test	ward_and_allport	-1	41.0	n/a	feedback	poldrack-single-stim	s512	False
2.063	399.015	2.063	401.078	1	PA_without_intermediate	test	ward_and_allport	82	42.0	2.063	to_hand	poldrack-single-stim	s512	False
0.1	401.079	0.336	401.415	0	PA_without_intermediate	test	ward_and_allport	89	42.0	0.336	to_board	poldrack-single-stim	s512	False
0.1	401.424	1.39	402.814	0	PA_without_intermediate	test	ward_and_allport	82	42.0	1.39	to_hand	poldrack-single-stim	s512	False
0.1	402.815	0.441	403.256	0	PA_without_intermediate	test	ward_and_allport	71	42.0	0.441	to_board	poldrack-single-stim	s512	False
0.1	403.267	0.489	403.756	0	PA_without_intermediate	test	ward_and_allport	82	42.0	0.489	to_hand	poldrack-single-stim	s512	False
0.1	403.758	0.368	404.126	0	PA_without_intermediate	test	ward_and_allport	89	42.0	0.368	to_board	poldrack-single-stim	s512	False
1.0	404.138	2.136	404.137	0	PA_without_intermediate	test	ward_and_allport	-1	42.0	n/a	feedback	poldrack-single-stim	s512	False
2.187	406.282	2.187	408.469	1	PA_without_intermediate	test	ward_and_allport	71	43.0	2.187	to_hand	poldrack-single-stim	s512	False
0.1	408.47	0.563	409.033	0	PA_without_intermediate	test	ward_and_allport	89	43.0	0.563	to_board	poldrack-single-stim	s512	False
0.1	409.041	0.83	409.871	0	PA_without_intermediate	test	ward_and_allport	71	43.0	0.83	to_hand	poldrack-single-stim	s512	False
0.1	409.872	0.429	410.301	0	PA_without_intermediate	test	ward_and_allport	89	43.0	0.429	to_board	poldrack-single-stim	s512	False
0.1	410.31	0.521	410.831	0	PA_without_intermediate	test	ward_and_allport	71	43.0	0.521	to_hand	poldrack-single-stim	s512	False
0.1	410.833	0.292	411.125	0	PA_without_intermediate	test	ward_and_allport	82	43.0	0.292	to_board	poldrack-single-stim	s512	False
1.0	411.137	7.168	411.136	0	PA_without_intermediate	test	ward_and_allport	-1	43.0	n/a	feedback	poldrack-single-stim	s512	False
1.365	418.317	1.365	419.682	1	PA_without_intermediate	test	ward_and_allport	82	44.0	1.365	to_hand	poldrack-single-stim	s512	False
0.1	419.683	0.463	420.146	0	PA_without_intermediate	test	ward_and_allport	71	44.0	0.463	to_board	poldrack-single-stim	s512	False
0.1	420.157	0.927	421.084	0	PA_without_intermediate	test	ward_and_allport	82	44.0	0.927	to_hand	poldrack-single-stim	s512	False
0.1	421.086	0.386	421.472	0	PA_without_intermediate	test	ward_and_allport	89	44.0	0.386	to_board	poldrack-single-stim	s512	False
0.1	421.484	1.075	422.559	0	PA_without_intermediate	test	ward_and_allport	82	44.0	1.075	to_hand	poldrack-single-stim	s512	False
0.1	422.561	0.38	422.941	0	PA_without_intermediate	test	ward_and_allport	71	44.0	0.38	to_board	poldrack-single-stim	s512	False
1.0	422.954	2.816	422.953	0	PA_without_intermediate	test	ward_and_allport	-1	44.0	n/a	feedback	poldrack-single-stim	s512	False
1.565	430.786	1.565	432.351	1	PA_with_intermediate	test	ward_and_allport	82	45.0	1.565	to_hand	poldrack-single-stim	s512	False
0.1	432.351	0.538	432.889	0	PA_with_intermediate	test	ward_and_allport	71	45.0	0.538	to_board	poldrack-single-stim	s512	False
0.1	432.9	0.595	433.495	0	PA_with_intermediate	test	ward_and_allport	82	45.0	0.595	to_hand	poldrack-single-stim	s512	False
0.1	433.497	0.366	433.863	0	PA_with_intermediate	test	ward_and_allport	89	45.0	0.366	to_board	poldrack-single-stim	s512	False
0.1	433.874	0.783	434.657	0	PA_with_intermediate	test	ward_and_allport	71	45.0	0.783	to_hand	poldrack-single-stim	s512	False
0.1	434.658	0.391	435.049	0	PA_with_intermediate	test	ward_and_allport	89	45.0	0.391	to_board	poldrack-single-stim	s512	False
1.0	435.061	2.952	435.06	0	PA_with_intermediate	test	ward_and_allport	-1	45.0	n/a	feedback	poldrack-single-stim	s512	False
3.192	438.022	3.192	441.214	1	PA_with_intermediate	test	ward_and_allport	82	46.0	3.192	to_hand	poldrack-single-stim	s512	False
0.1	441.216	0.333	441.549	0	PA_with_intermediate	test	ward_and_allport	71	46.0	0.333	to_board	poldrack-single-stim	s512	False
0.1	441.559	0.53	442.089	0	PA_with_intermediate	test	ward_and_allport	82	46.0	0.53	to_hand	poldrack-single-stim	s512	False
0.1	442.091	0.45	442.541	0	PA_with_intermediate	test	ward_and_allport	89	46.0	0.45	to_board	poldrack-single-stim	s512	False
0.1	442.553	0.642	443.195	0	PA_with_intermediate	test	ward_and_allport	71	46.0	0.642	to_hand	poldrack-single-stim	s512	False
0.1	443.197	0.4	443.597	0	PA_with_intermediate	test	ward_and_allport	89	46.0	0.4	to_board	poldrack-single-stim	s512	False
1.0	443.612	2.136	443.611	0	PA_with_intermediate	test	ward_and_allport	-1	46.0	n/a	feedback	poldrack-single-stim	s512	False
1.834	445.759	1.834	447.593	1	PA_without_intermediate	test	ward_and_allport	82	47.0	1.834	to_hand	poldrack-single-stim	s512	False
0.1	447.595	0.397	447.992	0	PA_without_intermediate	test	ward_and_allport	71	47.0	0.397	to_board	poldrack-single-stim	s512	False
0.1	448.002	1.085	449.087	0	PA_without_intermediate	test	ward_and_allport	82	47.0	1.085	to_hand	poldrack-single-stim	s512	False
0.1	449.089	0.42	449.509	0	PA_without_intermediate	test	ward_and_allport	71	47.0	0.42	to_board	poldrack-single-stim	s512	False
0.1	449.518	0.447	449.965	0	PA_without_intermediate	test	ward_and_allport	82	47.0	0.447	to_hand	poldrack-single-stim	s512	False
0.1	449.966	0.315	450.281	0	PA_without_intermediate	test	ward_and_allport	89	47.0	0.315	to_board	poldrack-single-stim	s512	False
1.0	450.292	2.68	450.291	0	PA_without_intermediate	test	ward_and_allport	-1	47.0	n/a	feedback	poldrack-single-stim	s512	False
