onset	duration	movement_onset	EV	action	block_duration	experiment_exp_id	gain_amount	gain_probability	key_press	loss_amount	loss_probability	num_cards	num_click_in_round	num_loss_cards	risk	response_time	total_cards	trial_id	trial_type	worker_id	junk	feedback
3.01	4.124	7.134	0.2623233097826598	draw_card	4.124	columbia_card_task_fmri	12.0	0.8333333333333334	89.0	-70.0	0.1666666666666666	6.0	1.0	1.0	-2.277944398524252	4.124	n/a	stim	poldrack-single-stim	s512	False	1
7.137	1.95	9.087	-2.4710100235506727	draw_card	1.95	columbia_card_task_fmri	12.0	0.8	89.0	-70.0	0.2	6.0	2.0	1.0	-0.0416870122284862	1.95	2.0	stim	poldrack-single-stim	s512	False	0
9.841	1.5	9.09	n/a	-1.0	2.454	columbia_card_task_fmri	n/a	n/a	-1.0	n/a	n/a	n/a	n/a	n/a	n/a	n/a	n/a	ITI	poldrack-single-stim	s512	False	0
11.548	2.023	13.571	1.0956566431159938	draw_card	2.023	columbia_card_task_fmri	14.0	0.8333333333333334	89.0	-75.0	0.1666666666666666	6.0	1.0	1.0	0.3260263485627561	2.023	n/a	stim	poldrack-single-stim	s512	False	1
13.573	2.032	15.605	-1.871010023550673	draw_card	2.032	columbia_card_task_fmri	14.0	0.8	89.0	-75.0	0.2	6.0	2.0	1.0	2.7538623179564183	2.032	n/a	stim	poldrack-single-stim	s512	False	1
15.607	1.457	17.064	-6.321010023550674	draw_card	1.457	columbia_card_task_fmri	14.0	0.75	89.0	-75.0	0.25	6.0	3.0	1.0	5.688016513133796	1.457	n/a	stim	poldrack-single-stim	s512	False	1
17.067	1.053	18.12	-13.73767669021734	end_round	1.053	columbia_card_task_fmri	14.0	0.6666666666666667	71.0	-75.0	0.3333333333333333	6.0	4.0	1.0	9.100963449556978	1.053	3.0	stim	poldrack-single-stim	s512	False	1
18.874	1.5	18.123	n/a	-1.0	2.454	columbia_card_task_fmri	n/a	n/a	-1.0	n/a	n/a	n/a	n/a	n/a	n/a	n/a	n/a	ITI	poldrack-single-stim	s512	False	0
20.58	1.388	21.968	2.76232330978266	draw_card	1.388	columbia_card_task_fmri	15.0	0.8333333333333334	89.0	-70.0	0.1666666666666666	6.0	1.0	1.0	-1.162052976389031	1.388	n/a	stim	poldrack-single-stim	s512	False	1
21.97	1.246	23.216	-0.0710100235506741	draw_card	1.246	columbia_card_task_fmri	15.0	0.8	89.0	-70.0	0.2	6.0	2.0	1.0	1.1563160119018008	1.246	n/a	stim	poldrack-single-stim	s512	False	1
23.218	0.913	24.131	-4.321010023550674	draw_card	0.913	columbia_card_task_fmri	15.0	0.75	89.0	-70.0	0.25	6.0	3.0	1.0	3.958233096093366	0.913	n/a	stim	poldrack-single-stim	s512	False	1
24.133	1.117	25.25	-11.404343356884004	draw_card	1.117	columbia_card_task_fmri	15.0	0.6666666666666667	89.0	-70.0	0.3333333333333333	6.0	4.0	1.0	7.217428736984949	1.117	4.0	stim	poldrack-single-stim	s512	False	0
26.003	1.5	25.252	n/a	-1.0	2.522	columbia_card_task_fmri	n/a	n/a	-1.0	n/a	n/a	n/a	n/a	n/a	n/a	n/a	n/a	ITI	poldrack-single-stim	s512	False	0
27.777	0.49	28.267	3.5956566431159938	draw_card	0.49	columbia_card_task_fmri	17.0	0.8333333333333334	89.0	-75.0	0.1666666666666666	6.0	1.0	1.0	1.44223570626702	0.49	n/a	stim	poldrack-single-stim	s512	False	1
28.271	1.848	30.119	0.5289899764493273	draw_card	1.848	columbia_card_task_fmri	17.0	0.8	89.0	-75.0	0.2	6.0	2.0	1.0	3.9521617691534345	1.848	n/a	stim	poldrack-single-stim	s512	False	1
30.121	1.443	31.564	-4.071010023550674	draw_card	1.443	columbia_card_task_fmri	17.0	0.75	89.0	-75.0	0.25	6.0	3.0	1.0	6.985483229243862	1.443	n/a	stim	poldrack-single-stim	s512	False	1
31.566	0.983	32.549	-11.73767669021734	end_round	0.983	columbia_card_task_fmri	17.0	0.6666666666666667	71.0	-75.0	0.3333333333333333	6.0	4.0	1.0	10.513733189105643	0.983	3.0	stim	poldrack-single-stim	s512	False	1
33.302	1.5	32.551	n/a	-1.0	2.454	columbia_card_task_fmri	n/a	n/a	-1.0	n/a	n/a	n/a	n/a	n/a	n/a	n/a	n/a	ITI	poldrack-single-stim	s512	False	0
35.009	0.761	35.77	4.928989976449326	draw_card	0.761	columbia_card_task_fmri	24.0	0.75	89.0	-60.0	0.25	8.0	1.0	2.0	3.5258209133763785	0.761	n/a	stim	poldrack-single-stim	s512	False	1
35.772	1.207	36.979	1.928989976449326	draw_card	1.207	columbia_card_task_fmri	24.0	0.7142857142857143	89.0	-60.0	0.2857142857142857	8.0	2.0	2.0	5.097968153870589	1.207	n/a	stim	poldrack-single-stim	s512	False	1
36.981	1.102	38.083	-2.071010023550674	draw_card	1.102	columbia_card_task_fmri	24.0	0.6666666666666667	89.0	-60.0	0.3333333333333333	8.0	3.0	2.0	6.746576007565395	1.102	n/a	stim	poldrack-single-stim	s512	False	1
38.084	1.339	39.423	-7.671010023550675	draw_card	1.339	columbia_card_task_fmri	24.0	0.6	89.0	-60.0	0.4	8.0	4.0	2.0	8.298253319988838	1.339	n/a	stim	poldrack-single-stim	s512	False	1
39.425	1.623	41.048	-16.071010023550674	end_round	1.623	columbia_card_task_fmri	24.0	0.5	71.0	-60.0	0.5	8.0	5.0	2.0	9.145913664081007	1.623	4.0	stim	poldrack-single-stim	s512	False	1
41.802	1.5	41.051	n/a	-1.0	2.658	columbia_card_task_fmri	n/a	n/a	-1.0	n/a	n/a	n/a	n/a	n/a	n/a	n/a	n/a	ITI	poldrack-single-stim	s512	False	0
43.713	0.548	44.261	4.928989976449326	draw_card	0.548	columbia_card_task_fmri	29.0	0.75	89.0	-75.0	0.25	8.0	1.0	2.0	12.176255295308296	0.548	1.0	stim	poldrack-single-stim	s512	False	0
45.014	1.5	44.263	n/a	-1.0	2.386	columbia_card_task_fmri	n/a	n/a	-1.0	n/a	n/a	n/a	n/a	n/a	n/a	n/a	n/a	ITI	poldrack-single-stim	s512	False	0
46.653	0.482	47.135	0.7067677542271062	draw_card	0.482	columbia_card_task_fmri	17.0	0.7777777777777778	89.0	-65.0	0.2222222222222222	9.0	1.0	2.0	1.2468270351399011	0.482	n/a	stim	poldrack-single-stim	s512	False	1
47.137	1.415	48.552	-1.571010023550674	draw_card	1.415	columbia_card_task_fmri	17.0	0.75	89.0	-65.0	0.25	9.0	2.0	2.0	2.661040393272458	1.415	n/a	stim	poldrack-single-stim	s512	False	1
48.555	1.09	49.645	-4.499581452122101	draw_card	1.09	columbia_card_task_fmri	17.0	0.7142857142857143	89.0	-65.0	0.2857142857142857	9.0	3.0	2.0	4.195653699019552	1.09	n/a	stim	poldrack-single-stim	s512	False	1
49.647	0.871	50.518	-8.404343356884004	draw_card	0.871	columbia_card_task_fmri	17.0	0.6666666666666667	89.0	-65.0	0.3333333333333333	9.0	4.0	2.0	5.804910849946644	0.871	n/a	stim	poldrack-single-stim	s512	False	1
50.52	1.023	51.543	-13.871010023550674	draw_card	1.023	columbia_card_task_fmri	17.0	0.6	89.0	-65.0	0.4	9.0	5.0	2.0	7.319558274106839	1.023	5.0	stim	poldrack-single-stim	s512	False	0
52.297	1.5	51.546	n/a	-1.0	2.522	columbia_card_task_fmri	n/a	n/a	-1.0	n/a	n/a	n/a	n/a	n/a	n/a	n/a	n/a	ITI	poldrack-single-stim	s512	False	0
54.072	0.406	54.478	5.028989976449326	draw_card	0.406	columbia_card_task_fmri	14.0	0.9	89.0	-95.0	0.1	10.0	1.0	1.0	-0.1415139986754496	0.406	n/a	stim	poldrack-single-stim	s512	False	1
54.48	0.515	54.995	3.817878865338213	draw_card	0.515	columbia_card_task_fmri	14.0	0.8888888888888888	89.0	-95.0	0.1111111111111111	10.0	2.0	1.0	1.4113041882600683	0.515	n/a	stim	poldrack-single-stim	s512	False	1
54.998	0.696	55.694	2.303989976449326	draw_card	0.696	columbia_card_task_fmri	14.0	0.875	89.0	-95.0	0.125	10.0	3.0	1.0	3.201575327224916	0.696	n/a	stim	poldrack-single-stim	s512	False	1
55.697	0.97	56.667	0.3575614050207547	draw_card	0.97	columbia_card_task_fmri	14.0	0.8571428571428572	89.0	-95.0	0.1428571428571428	10.0	4.0	1.0	5.29244097949843	0.97	4.0	stim	poldrack-single-stim	s512	False	0
56.59	1.5	55.839	n/a	-1.0	2.59	columbia_card_task_fmri	n/a	n/a	-1.0	n/a	n/a	n/a	n/a	n/a	n/a	n/a	n/a	ITI	poldrack-single-stim	s512	False	0
58.431	0.454	58.885	0.928989976449326	draw_card	0.454	columbia_card_task_fmri	15.0	0.8	89.0	-65.0	0.2	10.0	1.0	2.0	-0.8402727074240914	0.454	n/a	stim	poldrack-single-stim	s512	False	1
58.888	0.409	59.297	-0.8487878013284509	draw_card	0.409	columbia_card_task_fmri	15.0	0.7777777777777778	89.0	-65.0	0.2222222222222222	10.0	2.0	2.0	0.4167086437614813	0.409	2.0	stim	poldrack-single-stim	s512	False	0
60.051	1.5	59.3	n/a	-1.0	2.386	columbia_card_task_fmri	n/a	n/a	-1.0	n/a	n/a	n/a	n/a	n/a	n/a	n/a	n/a	ITI	poldrack-single-stim	s512	False	0
61.688	0.575	62.263	2.5289899764493278	draw_card	0.575	columbia_card_task_fmri	17.0	0.8	89.0	-65.0	0.2	10.0	1.0	2.0	-0.0416870122284862	0.575	n/a	stim	poldrack-single-stim	s512	False	1
62.267	0.989	63.256	0.7067677542271062	draw_card	0.989	columbia_card_task_fmri	17.0	0.7777777777777778	89.0	-65.0	0.2222222222222222	10.0	2.0	2.0	1.2468270351399011	0.989	n/a	stim	poldrack-single-stim	s512	False	1
63.259	2.1	65.359	-1.571010023550674	draw_card	2.1	columbia_card_task_fmri	17.0	0.75	89.0	-65.0	0.25	10.0	3.0	2.0	2.661040393272458	2.1	n/a	stim	poldrack-single-stim	s512	False	1
65.361	1.991	67.352	-4.499581452122101	draw_card	1.991	columbia_card_task_fmri	17.0	0.7142857142857143	89.0	-65.0	0.2857142857142857	10.0	4.0	2.0	4.195653699019552	1.991	n/a	stim	poldrack-single-stim	s512	False	1
67.354	0.92	68.274	-8.404343356884004	end_round	0.92	columbia_card_task_fmri	17.0	0.6666666666666667	71.0	-65.0	0.3333333333333333	10.0	5.0	2.0	5.804910849946644	0.92	4.0	stim	poldrack-single-stim	s512	False	1
69.027	1.5	68.276	n/a	-1.0	2.59	columbia_card_task_fmri	n/a	n/a	-1.0	n/a	n/a	n/a	n/a	n/a	n/a	n/a	n/a	ITI	poldrack-single-stim	s512	False	0
70.871	1.073	71.944	1.0956566431159938	draw_card	1.073	columbia_card_task_fmri	13.0	0.8333333333333334	89.0	-70.0	0.1666666666666666	12.0	1.0	2.0	-1.9059977506875043	1.073	n/a	stim	poldrack-single-stim	s512	False	1
71.946	0.713	72.659	-0.1619191144597676	draw_card	0.713	columbia_card_task_fmri	13.0	0.8181818181818181	89.0	-70.0	0.1818181818181818	12.0	2.0	2.0	-0.8276431667664284	0.713	n/a	stim	poldrack-single-stim	s512	False	1
72.662	1.161	73.823	-1.6710100235506735	draw_card	1.161	columbia_card_task_fmri	13.0	0.8	89.0	-70.0	0.2	12.0	3.0	2.0	0.3576313295152005	1.161	n/a	stim	poldrack-single-stim	s512	False	1
73.826	2.255	76.081	-3.5154544679951187	draw_card	2.255	columbia_card_task_fmri	13.0	0.7777777777777778	89.0	-70.0	0.2222222222222222	12.0	4.0	2.0	1.6619107692842905	2.255	n/a	stim	poldrack-single-stim	s512	False	1
76.084	1.323	77.407	-5.821010023550674	draw_card	1.323	columbia_card_task_fmri	13.0	0.75	89.0	-70.0	0.25	12.0	5.0	2.0	3.093423170186618	1.323	n/a	stim	poldrack-single-stim	s512	False	1
77.411	1.567	78.978	-8.785295737836387	draw_card	1.567	columbia_card_task_fmri	13.0	0.7142857142857143	89.0	-70.0	0.2857142857142857	12.0	6.0	2.0	4.646803751236867	1.567	n/a	stim	poldrack-single-stim	s512	False	1
78.981	2.086	81.067	-12.737676690217338	draw_card	2.086	columbia_card_task_fmri	13.0	0.6666666666666667	89.0	-70.0	0.3333333333333333	12.0	7.0	2.0	6.2757365504238365	2.086	n/a	stim	poldrack-single-stim	s512	False	1
81.069	0.871	81.94	-18.271010023550676	end_round	0.871	columbia_card_task_fmri	13.0	0.6	71.0	-70.0	0.4	12.0	8.0	2.0	7.808899176585662	0.871	7.0	stim	poldrack-single-stim	s512	False	1
82.695	1.5	81.944	n/a	-1.0	2.318	columbia_card_task_fmri	n/a	n/a	-1.0	n/a	n/a	n/a	n/a	n/a	n/a	n/a	n/a	ITI	poldrack-single-stim	s512	False	0
84.265	0.699	84.964	1.0956566431159938	draw_card	0.699	columbia_card_task_fmri	15.0	0.8333333333333334	89.0	-80.0	0.1666666666666666	12.0	1.0	2.0	2.558560039448686	0.699	n/a	stim	poldrack-single-stim	s512	False	1
84.968	1.498	86.466	-0.3437372962779492	draw_card	1.498	columbia_card_task_fmri	15.0	0.8181818181818181	89.0	-80.0	0.1818181818181818	12.0	2.0	2.0	3.79336847298616	1.498	n/a	stim	poldrack-single-stim	s512	False	1
86.469	0.981	87.45	-2.071010023550674	draw_card	0.981	columbia_card_task_fmri	15.0	0.8	89.0	-80.0	0.2	12.0	3.0	2.0	5.150568409464768	0.981	n/a	stim	poldrack-single-stim	s512	False	1
87.454	0.611	88.065	-4.182121134661786	draw_card	0.611	columbia_card_task_fmri	15.0	0.7777777777777778	89.0	-80.0	0.2222222222222222	12.0	4.0	2.0	6.643990643159008	0.611	n/a	stim	poldrack-single-stim	s512	False	1
88.068	0.853	88.921	-6.821010023550674	draw_card	0.853	columbia_card_task_fmri	15.0	0.75	89.0	-80.0	0.25	12.0	5.0	2.0	8.28304902223175	0.853	5.0	stim	poldrack-single-stim	s512	False	0
89.676	1.5	88.925	n/a	-1.0	2.25	columbia_card_task_fmri	n/a	n/a	-1.0	n/a	n/a	n/a	n/a	n/a	n/a	n/a	n/a	ITI	poldrack-single-stim	s512	False	0
91.179	0.501	91.68	0.1289899764493269	draw_card	0.501	columbia_card_task_fmri	14.0	0.8	89.0	-65.0	0.2	15.0	1.0	3.0	-1.2395387747093525	0.501	n/a	stim	poldrack-single-stim	s512	False	1
91.682	0.966	92.648	-0.9995814521221013	draw_card	0.966	columbia_card_task_fmri	14.0	0.7857142857142857	89.0	-65.0	0.2142857142857142	15.0	2.0	3.0	-0.4252700243530682	0.966	n/a	stim	poldrack-single-stim	s512	False	1
92.651	0.37	93.021	-2.301779254319906	draw_card	0.37	columbia_card_task_fmri	14.0	0.7692307692307692	89.0	-65.0	0.2307692307692307	15.0	3.0	3.0	0.4421676155708098	0.37	3.0	stim	poldrack-single-stim	s512	False	0
93.775	1.5	93.024	n/a	-1.0	2.454	columbia_card_task_fmri	n/a	n/a	-1.0	n/a	n/a	n/a	n/a	n/a	n/a	n/a	n/a	ITI	poldrack-single-stim	s512	False	0
95.483	0.461	95.944	0.0539899764493259	draw_card	0.461	columbia_card_task_fmri	1.0	0.9375	89.0	-45.0	0.0625	16.0	1.0	1.0	-21.597680254493007	0.461	n/a	stim	poldrack-single-stim	s512	False	1
95.948	0.904	96.852	-0.1376766902173405	draw_card	0.904	columbia_card_task_fmri	1.0	0.9333333333333332	89.0	-45.0	0.0666666666666666	16.0	2.0	1.0	-21.26293093615807	0.904	n/a	stim	poldrack-single-stim	s512	False	1
96.855	1.271	98.126	-0.3567243092649597	draw_card	1.271	columbia_card_task_fmri	1.0	0.9285714285714286	89.0	-45.0	0.0714285714285714	16.0	3.0	1.0	-20.895530101275693	1.271	n/a	stim	poldrack-single-stim	s512	False	1
98.129	0.432	98.561	-0.6094715620122124	draw_card	0.432	columbia_card_task_fmri	1.0	0.9230769230769232	89.0	-45.0	0.0769230769230769	16.0	4.0	1.0	-20.48991501331656	0.432	n/a	stim	poldrack-single-stim	s512	False	1
98.564	0.41	98.974	-0.9043433568840076	draw_card	0.41	columbia_card_task_fmri	1.0	0.9166666666666666	89.0	-45.0	0.0833333333333333	16.0	5.0	1.0	-20.03912695198221	0.41	n/a	stim	poldrack-single-stim	s512	False	1
98.977	0.448	99.425	-1.2528282053688558	draw_card	0.448	columbia_card_task_fmri	1.0	0.9090909090909092	89.0	-45.0	0.0909090909090909	16.0	6.0	1.0	-19.534340466222154	0.448	n/a	stim	poldrack-single-stim	s512	False	1
99.427	0.706	100.133	-1.6710100235506742	draw_card	0.706	columbia_card_task_fmri	1.0	0.9	89.0	-45.0	0.1	16.0	7.0	1.0	-18.964193921479392	0.706	n/a	stim	poldrack-single-stim	s512	False	1
100.137	1.336	101.473	-2.182121134661785	draw_card	1.336	columbia_card_task_fmri	1.0	0.8888888888888888	89.0	-45.0	0.1111111111111111	16.0	8.0	1.0	-18.3138258016289	1.336	n/a	stim	poldrack-single-stim	s512	False	1
101.477	0.679	102.156	-2.821010023550674	draw_card	0.679	columbia_card_task_fmri	1.0	0.875	89.0	-45.0	0.125	16.0	9.0	1.0	-17.563482025532373	0.679	n/a	stim	poldrack-single-stim	s512	False	1
102.16	2.229	104.389	-3.642438594979245	draw_card	2.229	columbia_card_task_fmri	1.0	0.8571428571428572	89.0	-45.0	0.1428571428571428	16.0	10.0	1.0	-16.686542638158148	2.229	n/a	stim	poldrack-single-stim	s512	False	1
104.392	2.545	106.937	-4.7376766902173415	draw_card	2.545	columbia_card_task_fmri	1.0	0.8333333333333334	89.0	-45.0	0.1666666666666666	16.0	11.0	1.0	-15.646987043000475	2.545	11.0	stim	poldrack-single-stim	s512	False	0
107.691	1.5	106.94	n/a	-1.0	3.27	columbia_card_task_fmri	n/a	n/a	-1.0	n/a	n/a	n/a	n/a	n/a	n/a	n/a	n/a	ITI	poldrack-single-stim	s512	False	0
110.214	0.548	110.762	0.991489976449326	draw_card	0.548	columbia_card_task_fmri	15.0	0.8125	89.0	-70.0	0.1875	16.0	1.0	3.0	0.3342227026590265	0.548	n/a	stim	poldrack-single-stim	s512	False	1
110.765	0.748	111.513	-0.0710100235506741	draw_card	0.748	columbia_card_task_fmri	15.0	0.8	89.0	-70.0	0.2	16.0	2.0	3.0	1.1563160119018008	0.748	n/a	stim	poldrack-single-stim	s512	False	1
111.517	0.42	111.937	-1.2852957378363894	draw_card	0.42	columbia_card_task_fmri	15.0	0.7857142857142857	89.0	-70.0	0.2142857142857142	16.0	3.0	3.0	2.0326439760471477	0.42	n/a	stim	poldrack-single-stim	s512	False	1
111.939	0.357	112.296	-2.686394638935291	draw_card	0.357	columbia_card_task_fmri	15.0	0.7692307692307692	89.0	-70.0	0.2307692307692307	16.0	4.0	3.0	2.966181466921832	0.357	n/a	stim	poldrack-single-stim	s512	False	1
112.298	0.391	112.689	-4.321010023550674	draw_card	0.391	columbia_card_task_fmri	15.0	0.75	89.0	-70.0	0.25	16.0	5.0	3.0	3.958233096093366	0.391	n/a	stim	poldrack-single-stim	s512	False	1
112.693	1.059	113.752	-6.2528282053688535	draw_card	1.059	columbia_card_task_fmri	15.0	0.7272727272727273	89.0	-70.0	0.2727272727272727	16.0	6.0	3.0	5.00650518291031	1.059	n/a	stim	poldrack-single-stim	s512	False	1
113.755	1.232	114.987	-8.571010023550674	end_round	1.232	columbia_card_task_fmri	15.0	0.7	71.0	-70.0	0.3	16.0	7.0	3.0	6.10126758641082	1.232	6.0	stim	poldrack-single-stim	s512	False	1
115.742	1.5	114.991	n/a	-1.0	2.25	columbia_card_task_fmri	n/a	n/a	-1.0	n/a	n/a	n/a	n/a	n/a	n/a	n/a	n/a	ITI	poldrack-single-stim	s512	False	0
117.246	1.785	119.031	7.928989976449326	draw_card	1.785	columbia_card_task_fmri	30.0	0.7	89.0	-50.0	0.3	10.0	1.0	3.0	3.8129591650603354	1.785	1.0	stim	poldrack-single-stim	s512	False	0
119.786	1.5	119.035	n/a	-1.0	2.25	columbia_card_task_fmri	n/a	n/a	-1.0	n/a	n/a	n/a	n/a	n/a	n/a	n/a	n/a	ITI	poldrack-single-stim	s512	False	0
121.29	0.557	121.847	7.328989976449327	draw_card	0.557	columbia_card_task_fmri	17.0	0.8666666666666667	89.0	-70.0	0.1333333333333333	15.0	1.0	2.0	-3.261204873534652	0.557	n/a	stim	poldrack-single-stim	s512	False	1
121.851	0.875	122.726	6.500418547877899	draw_card	0.875	columbia_card_task_fmri	17.0	0.8571428571428572	89.0	-70.0	0.1428571428571428	15.0	2.0	2.0	-2.393650701294952	0.875	n/a	stim	poldrack-single-stim	s512	False	1
122.73	0.876	123.606	5.544374591833941	draw_card	0.876	columbia_card_task_fmri	17.0	0.8461538461538461	89.0	-70.0	0.1538461538461538	15.0	3.0	2.0	-1.4494399690370834	0.876	n/a	stim	poldrack-single-stim	s512	False	1
123.609	0.411	124.02	4.428989976449328	draw_card	0.411	columbia_card_task_fmri	17.0	0.8333333333333334	89.0	-70.0	0.1666666666666666	15.0	4.0	2.0	-0.4180434942728013	0.411	n/a	stim	poldrack-single-stim	s512	False	1
124.024	0.39	124.414	3.110808158267506	draw_card	0.39	columbia_card_task_fmri	17.0	0.8181818181818181	89.0	-70.0	0.1818181818181818	15.0	5.0	2.0	0.7124701146896086	0.39	n/a	stim	poldrack-single-stim	s512	False	1
124.417	1.141	125.558	1.528989976449327	draw_card	1.141	columbia_card_task_fmri	17.0	0.8	89.0	-70.0	0.2	15.0	6.0	2.0	1.9550610263832056	1.141	n/a	stim	poldrack-single-stim	s512	False	1
125.56	0.523	126.083	-0.4043433568840062	draw_card	0.523	columbia_card_task_fmri	17.0	0.7777777777777778	89.0	-70.0	0.2222222222222222	15.0	7.0	2.0	3.322396172335054	0.523	n/a	stim	poldrack-single-stim	s512	False	1
126.086	0.953	127.039	-2.821010023550674	draw_card	0.953	columbia_card_task_fmri	17.0	0.75	89.0	-70.0	0.25	15.0	8.0	2.0	4.823098793797918	0.953	n/a	stim	poldrack-single-stim	s512	False	1
127.043	0.852	127.895	-5.928152880693531	end_round	0.852	columbia_card_task_fmri	17.0	0.7142857142857143	71.0	-70.0	0.2857142857142857	15.0	9.0	2.0	6.451542528171977	0.852	8.0	stim	poldrack-single-stim	s512	False	1
128.65	1.5	127.899	n/a	-1.0	2.318	columbia_card_task_fmri	n/a	n/a	-1.0	n/a	n/a	n/a	n/a	n/a	n/a	n/a	n/a	ITI	poldrack-single-stim	s512	False	0
130.222	0.512	130.734	2.553989976449326	draw_card	0.512	columbia_card_task_fmri	7.0	0.9375	89.0	-95.0	0.0625	16.0	1.0	1.0	-8.132852831920271	0.512	n/a	stim	poldrack-single-stim	s512	False	1
130.737	0.471	131.208	2.128989976449326	draw_card	0.471	columbia_card_task_fmri	7.0	0.9333333333333332	89.0	-95.0	0.0666666666666666	16.0	2.0	1.0	-7.382071686042842	0.471	2.0	stim	poldrack-single-stim	s512	False	0
131.963	1.5	131.212	n/a	-1.0	2.726	columbia_card_task_fmri	n/a	n/a	-1.0	n/a	n/a	n/a	n/a	n/a	n/a	n/a	n/a	ITI	poldrack-single-stim	s512	False	0
133.943	0.616	134.559	4.116489976449326	draw_card	0.616	columbia_card_task_fmri	9.0	0.9375	89.0	-100.0	0.0625	16.0	1.0	1.0	-6.443241178560143	0.616	n/a	stim	poldrack-single-stim	s512	False	1
134.563	0.561	135.124	3.6623233097826593	draw_card	0.561	columbia_card_task_fmri	9.0	0.9333333333333332	89.0	-100.0	0.0666666666666666	16.0	2.0	1.0	-5.640642023425563	0.561	n/a	stim	poldrack-single-stim	s512	False	1
135.127	0.596	135.723	3.143275690735041	draw_card	0.596	columbia_card_task_fmri	9.0	0.9285714285714286	89.0	-100.0	0.0714285714285714	16.0	3.0	1.0	-4.760370090740395	0.596	n/a	stim	poldrack-single-stim	s512	False	1
135.728	0.446	136.174	2.5443745918339418	draw_card	0.446	columbia_card_task_fmri	9.0	0.9230769230769232	89.0	-100.0	0.0769230769230769	16.0	4.0	1.0	-3.7892159650345896	0.446	4.0	stim	poldrack-single-stim	s512	False	0
136.929	1.5	136.178	n/a	-1.0	2.386	columbia_card_task_fmri	n/a	n/a	-1.0	n/a	n/a	n/a	n/a	n/a	n/a	n/a	n/a	ITI	poldrack-single-stim	s512	False	0
138.57	0.499	139.069	5.053989976449326	draw_card	0.499	columbia_card_task_fmri	15.0	0.875	89.0	-80.0	0.125	16.0	1.0	2.0	-1.4209024055638153	0.499	n/a	stim	poldrack-single-stim	s512	False	1
139.073	0.928	140.001	4.26232330978266	draw_card	0.928	columbia_card_task_fmri	15.0	0.8666666666666667	89.0	-80.0	0.1333333333333333	16.0	2.0	2.0	-0.5470099606595014	0.928	n/a	stim	poldrack-single-stim	s512	False	1
140.005	0.952	140.957	3.3575614050207565	draw_card	0.952	columbia_card_task_fmri	15.0	0.8571428571428572	89.0	-80.0	0.1428571428571428	16.0	3.0	2.0	0.400633979841011	0.952	n/a	stim	poldrack-single-stim	s512	False	1
140.962	2.114	143.076	2.313605361064709	draw_card	2.114	columbia_card_task_fmri	15.0	0.8461538461538461	89.0	-80.0	0.1538461538461538	16.0	4.0	2.0	1.431991424430528	2.114	n/a	stim	poldrack-single-stim	s512	False	1
143.08	1.101	144.181	1.0956566431159938	draw_card	1.101	columbia_card_task_fmri	15.0	0.8333333333333334	89.0	-80.0	0.1666666666666666	16.0	5.0	2.0	2.558560039448686	1.101	n/a	stim	poldrack-single-stim	s512	False	1
144.185	0.953	145.138	-0.3437372962779492	draw_card	0.953	columbia_card_task_fmri	15.0	0.8181818181818181	89.0	-80.0	0.1818181818181818	16.0	6.0	2.0	3.79336847298616	0.953	n/a	stim	poldrack-single-stim	s512	False	1
145.141	1.102	146.243	-2.071010023550674	draw_card	1.102	columbia_card_task_fmri	15.0	0.8	89.0	-80.0	0.2	16.0	7.0	2.0	5.150568409464768	1.102	n/a	stim	poldrack-single-stim	s512	False	1
146.245	1.057	147.302	-4.182121134661786	draw_card	1.057	columbia_card_task_fmri	15.0	0.7777777777777778	89.0	-80.0	0.2222222222222222	16.0	8.0	2.0	6.643990643159008	1.057	n/a	stim	poldrack-single-stim	s512	False	1
147.305	0.728	148.033	-6.821010023550674	end_round	0.728	columbia_card_task_fmri	15.0	0.75	71.0	-80.0	0.25	16.0	9.0	2.0	8.28304902223175	0.728	8.0	stim	poldrack-single-stim	s512	False	1
148.788	1.5	148.037	n/a	-1.0	2.318	columbia_card_task_fmri	n/a	n/a	-1.0	n/a	n/a	n/a	n/a	n/a	n/a	n/a	n/a	ITI	poldrack-single-stim	s512	False	0
150.36	1.672	152.032	7.178989976449326	draw_card	1.672	columbia_card_task_fmri	16.0	0.875	89.0	-70.0	0.125	16.0	1.0	2.0	-4.391194840132854	1.672	1.0	stim	poldrack-single-stim	s512	False	0
152.788	1.5	152.037	n/a	-1.0	2.25	columbia_card_task_fmri	n/a	n/a	-1.0	n/a	n/a	n/a	n/a	n/a	n/a	n/a	n/a	ITI	poldrack-single-stim	s512	False	0
154.292	0.99	155.282	8.491489976449326	draw_card	0.99	columbia_card_task_fmri	30.0	0.6875	89.0	-45.0	0.3125	16.0	1.0	5.0	1.91854754561016	0.99	n/a	stim	poldrack-single-stim	s512	False	1
155.286	1.349	156.635	6.92898997644933	draw_card	1.349	columbia_card_task_fmri	30.0	0.6666666666666667	89.0	-45.0	0.3333333333333333	16.0	2.0	5.0	2.509562228295465	1.349	n/a	stim	poldrack-single-stim	s512	False	1
156.639	0.925	157.564	5.143275690735038	draw_card	0.925	columbia_card_task_fmri	30.0	0.6428571428571428	89.0	-45.0	0.3571428571428571	16.0	3.0	5.0	3.0901803622677733	0.925	n/a	stim	poldrack-single-stim	s512	False	1
157.568	0.681	158.249	3.082836130295479	end_round	0.681	columbia_card_task_fmri	30.0	0.6153846153846154	71.0	-45.0	0.3846153846153846	16.0	4.0	5.0	3.6404125821174342	0.681	3.0	stim	poldrack-single-stim	s512	False	1
159.004	1.5	158.253	n/a	-1.0	2.25	columbia_card_task_fmri	n/a	n/a	-1.0	n/a	n/a	n/a	n/a	n/a	n/a	n/a	n/a	ITI	poldrack-single-stim	s512	False	0
160.509	0.704	161.213	0.2623233097826598	draw_card	0.704	columbia_card_task_fmri	13.0	0.8333333333333334	89.0	-75.0	0.1666666666666666	6.0	1.0	1.0	-0.0460158616206243	0.704	n/a	stim	poldrack-single-stim	s512	False	1
161.217	2.113	163.33	-2.6710100235506737	draw_card	2.113	columbia_card_task_fmri	13.0	0.8	89.0	-75.0	0.2	6.0	2.0	1.0	2.354454876626079	2.113	n/a	stim	poldrack-single-stim	s512	False	1
163.333	1.521	164.854	-7.071010023550674	end_round	1.521	columbia_card_task_fmri	13.0	0.75	71.0	-75.0	0.25	6.0	3.0	1.0	5.255551371873359	1.521	2.0	stim	poldrack-single-stim	s512	False	1
165.61	1.5	164.859	n/a	-1.0	2.454	columbia_card_task_fmri	n/a	n/a	-1.0	n/a	n/a	n/a	n/a	n/a	n/a	n/a	n/a	ITI	poldrack-single-stim	s512	False	0
167.317	0.743	168.06	1.928989976449328	draw_card	0.743	columbia_card_task_fmri	14.0	0.8333333333333334	89.0	-70.0	0.1666666666666666	6.0	1.0	1.0	-1.5340337398062935	0.743	n/a	stim	poldrack-single-stim	s512	False	1
168.064	0.638	168.702	-0.871010023550673	draw_card	0.638	columbia_card_task_fmri	14.0	0.8	89.0	-70.0	0.2	6.0	2.0	1.0	0.7569658607342191	0.638	2.0	stim	poldrack-single-stim	s512	False	0
169.458	1.5	168.707	n/a	-1.0	2.454	columbia_card_task_fmri	n/a	n/a	-1.0	n/a	n/a	n/a	n/a	n/a	n/a	n/a	n/a	ITI	poldrack-single-stim	s512	False	0
171.167	1.567	172.734	1.928989976449328	draw_card	1.567	columbia_card_task_fmri	16.0	0.8333333333333334	89.0	-80.0	0.1666666666666666	6.0	1.0	1.0	2.9306918431654907	1.567	n/a	stim	poldrack-single-stim	s512	False	1
172.737	0.764	173.501	-1.2710100235506734	draw_card	0.764	columbia_card_task_fmri	16.0	0.8	89.0	-80.0	0.2	6.0	2.0	1.0	5.550059377027544	0.764	n/a	stim	poldrack-single-stim	s512	False	1
173.506	2.314	175.82	-6.071010023550674	end_round	2.314	columbia_card_task_fmri	16.0	0.75	71.0	-80.0	0.25	6.0	3.0	1.0	8.715591368463045	2.314	2.0	stim	poldrack-single-stim	s512	False	1
176.575	1.5	175.824	n/a	-1.0	2.522	columbia_card_task_fmri	n/a	n/a	-1.0	n/a	n/a	n/a	n/a	n/a	n/a	n/a	n/a	ITI	poldrack-single-stim	s512	False	0
178.352	0.671	179.023	4.428989976449328	draw_card	0.671	columbia_card_task_fmri	17.0	0.8333333333333334	89.0	-70.0	0.1666666666666666	6.0	1.0	1.0	-0.4180434942728013	0.671	n/a	stim	poldrack-single-stim	s512	False	1
179.027	0.892	179.919	1.528989976449327	draw_card	0.892	columbia_card_task_fmri	17.0	0.8	89.0	-70.0	0.2	6.0	2.0	1.0	1.9550610263832056	0.892	n/a	stim	poldrack-single-stim	s512	False	1
179.923	0.779	180.702	-2.821010023550674	draw_card	0.779	columbia_card_task_fmri	17.0	0.75	89.0	-70.0	0.25	6.0	3.0	1.0	4.823098793797918	0.779	3.0	stim	poldrack-single-stim	s512	False	0
181.456	1.5	180.705	n/a	-1.0	2.386	columbia_card_task_fmri	n/a	n/a	-1.0	n/a	n/a	n/a	n/a	n/a	n/a	n/a	n/a	ITI	poldrack-single-stim	s512	False	0
183.095	0.794	183.889	4.428989976449326	draw_card	0.794	columbia_card_task_fmri	25.0	0.75	89.0	-65.0	0.25	8.0	1.0	2.0	6.120493799847381	0.794	n/a	stim	poldrack-single-stim	s512	False	1
183.893	0.865	184.758	1.2147042621636142	draw_card	0.865	columbia_card_task_fmri	25.0	0.7142857142857143	89.0	-65.0	0.2857142857142857	8.0	2.0	2.0	7.805229204936964	0.865	2.0	stim	poldrack-single-stim	s512	False	0
185.514	1.5	184.763	n/a	-1.0	2.454	columbia_card_task_fmri	n/a	n/a	-1.0	n/a	n/a	n/a	n/a	n/a	n/a	n/a	n/a	ITI	poldrack-single-stim	s512	False	0
187.222	0.376	187.598	4.428989976449326	draw_card	0.376	columbia_card_task_fmri	30.0	0.75	89.0	-80.0	0.25	8.0	1.0	2.0	14.772080953090011	0.376	n/a	stim	poldrack-single-stim	s512	False	1
187.602	2.085	189.687	0.5004185478779024	end_round	2.085	columbia_card_task_fmri	30.0	0.7142857142857143	71.0	-80.0	0.2857142857142857	8.0	2.0	2.0	16.831999873012577	2.085	1.0	stim	poldrack-single-stim	s512	False	1
190.442	1.5	189.691	n/a	-1.0	2.522	columbia_card_task_fmri	n/a	n/a	-1.0	n/a	n/a	n/a	n/a	n/a	n/a	n/a	n/a	ITI	poldrack-single-stim	s512	False	0
192.219	0.704	192.923	4.128989976449327	draw_card	0.704	columbia_card_task_fmri	13.0	0.9	89.0	-95.0	0.1	10.0	1.0	1.0	-0.4409885669665314	0.704	n/a	stim	poldrack-single-stim	s512	False	1
192.927	0.725	193.652	2.928989976449326	draw_card	0.725	columbia_card_task_fmri	13.0	0.8888888888888888	89.0	-95.0	0.1111111111111111	10.0	2.0	1.0	1.0975361986831302	0.725	n/a	stim	poldrack-single-stim	s512	False	1
193.656	1.142	194.798	1.428989976449326	draw_card	1.142	columbia_card_task_fmri	13.0	0.875	89.0	-95.0	0.125	10.0	3.0	1.0	2.87133326199244	1.142	n/a	stim	poldrack-single-stim	s512	False	1
194.802	1.629	196.431	-0.4995814521221011	draw_card	1.629	columbia_card_task_fmri	13.0	0.8571428571428572	89.0	-95.0	0.1428571428571428	10.0	4.0	1.0	4.9429646509198975	1.629	n/a	stim	poldrack-single-stim	s512	False	1
196.435	0.755	197.19	-3.0710100235506723	end_round	0.755	columbia_card_task_fmri	13.0	0.8333333333333334	71.0	-95.0	0.1666666666666666	10.0	5.0	1.0	7.397060958248815	0.755	4.0	stim	poldrack-single-stim	s512	False	1
197.945	1.5	197.194	n/a	-1.0	2.522	columbia_card_task_fmri	n/a	n/a	-1.0	n/a	n/a	n/a	n/a	n/a	n/a	n/a	n/a	ITI	poldrack-single-stim	s512	False	0
199.722	0.548	200.27	5.528989976449326	draw_card	0.548	columbia_card_task_fmri	14.0	0.9	89.0	-90.0	0.1	10.0	1.0	1.0	-1.638786076298068	0.548	n/a	stim	poldrack-single-stim	s512	False	1
200.274	0.582	200.856	4.373434420893769	draw_card	0.582	columbia_card_task_fmri	14.0	0.8888888888888888	89.0	-90.0	0.1111111111111111	10.0	2.0	1.0	-0.1574395249226299	0.582	n/a	stim	poldrack-single-stim	s512	False	1
200.861	0.661	201.522	2.928989976449326	draw_card	0.661	columbia_card_task_fmri	14.0	0.875	89.0	-90.0	0.125	10.0	3.0	1.0	1.550456492961466	0.661	n/a	stim	poldrack-single-stim	s512	False	1
201.525	1.813	203.338	1.07184711930647	draw_card	1.813	columbia_card_task_fmri	14.0	0.8571428571428572	89.0	-90.0	0.1428571428571428	10.0	4.0	1.0	3.545145847416485	1.813	n/a	stim	poldrack-single-stim	s512	False	1
203.342	0.643	203.985	-1.4043433568840062	end_round	0.643	columbia_card_task_fmri	14.0	0.8333333333333334	71.0	-90.0	0.1666666666666666	10.0	5.0	1.0	5.908123663826224	0.643	4.0	stim	poldrack-single-stim	s512	False	1
204.741	1.5	203.99	n/a	-1.0	2.59	columbia_card_task_fmri	n/a	n/a	-1.0	n/a	n/a	n/a	n/a	n/a	n/a	n/a	n/a	ITI	poldrack-single-stim	s512	False	0
206.586	0.551	207.137	0.7289899764493266	draw_card	0.551	columbia_card_task_fmri	16.0	0.8	89.0	-70.0	0.2	10.0	1.0	2.0	1.5556812398745308	0.551	n/a	stim	poldrack-single-stim	s512	False	1
207.139	0.757	207.896	-1.1821211346617848	draw_card	0.757	columbia_card_task_fmri	16.0	0.7777777777777778	89.0	-70.0	0.2222222222222222	10.0	2.0	2.0	2.9072532982648625	0.757	n/a	stim	poldrack-single-stim	s512	False	1
207.9	0.648	208.548	-3.571010023550674	draw_card	0.648	columbia_card_task_fmri	16.0	0.75	89.0	-70.0	0.25	10.0	3.0	2.0	4.390659216005197	0.648	n/a	stim	poldrack-single-stim	s512	False	1
208.552	0.804	209.356	-6.642438594979245	draw_card	0.804	columbia_card_task_fmri	16.0	0.7142857142857143	89.0	-70.0	0.2857142857142857	10.0	4.0	2.0	6.000338013061317	0.804	4.0	stim	poldrack-single-stim	s512	False	0
210.112	1.5	209.361	n/a	-1.0	2.454	columbia_card_task_fmri	n/a	n/a	-1.0	n/a	n/a	n/a	n/a	n/a	n/a	n/a	n/a	ITI	poldrack-single-stim	s512	False	0
211.821	0.494	212.315	0.0123233097826598	draw_card	0.494	columbia_card_task_fmri	7.0	0.9166666666666666	89.0	-100.0	0.0833333333333333	12.0	1.0	1.0	-3.2622780578732997	0.494	n/a	stim	poldrack-single-stim	s512	False	1
212.32	0.412	212.732	-0.7982827508234025	draw_card	0.412	columbia_card_task_fmri	7.0	0.9090909090909092	89.0	-100.0	0.0909090909090909	12.0	2.0	1.0	-2.0775989846311766	0.412	n/a	stim	poldrack-single-stim	s512	False	1
212.736	0.779	213.515	-1.7710100235506745	draw_card	0.779	columbia_card_task_fmri	7.0	0.9	89.0	-100.0	0.1	12.0	3.0	1.0	-0.7404533403729019	0.779	n/a	stim	poldrack-single-stim	s512	False	1
213.52	1.568	215.088	-2.9598989124395634	draw_card	1.568	columbia_card_task_fmri	7.0	0.8888888888888888	89.0	-100.0	0.1111111111111111	12.0	4.0	1.0	0.783777563644712	1.568	n/a	stim	poldrack-single-stim	s512	False	1
215.092	1.214	216.306	-4.446010023550674	draw_card	1.214	columbia_card_task_fmri	7.0	0.875	89.0	-100.0	0.125	12.0	5.0	1.0	2.5411000901907386	1.214	n/a	stim	poldrack-single-stim	s512	False	1
216.31	1.099	217.409	-6.356724309264958	draw_card	1.099	columbia_card_task_fmri	7.0	0.8571428571428572	89.0	-100.0	0.1428571428571428	12.0	6.0	1.0	4.593496731511038	1.099	n/a	stim	poldrack-single-stim	s512	False	1
217.413	1.483	218.896	-8.904343356884004	draw_card	1.483	columbia_card_task_fmri	7.0	0.8333333333333334	89.0	-100.0	0.1666666666666666	12.0	7.0	1.0	7.024814217150002	1.483	n/a	stim	poldrack-single-stim	s512	False	1
218.899	0.688	219.587	-12.471010023550672	end_round	0.688	columbia_card_task_fmri	7.0	0.8	71.0	-100.0	0.2	12.0	8.0	1.0	9.945086954071208	0.688	7.0	stim	poldrack-single-stim	s512	False	1
220.344	1.5	219.593	n/a	-1.0	2.318	columbia_card_task_fmri	n/a	n/a	-1.0	n/a	n/a	n/a	n/a	n/a	n/a	n/a	n/a	ITI	poldrack-single-stim	s512	False	0
221.917	0.779	222.696	0.2623233097826616	draw_card	0.779	columbia_card_task_fmri	14.0	0.8333333333333334	89.0	-80.0	0.1666666666666666	12.0	1.0	2.0	2.186439830770567	0.779	n/a	stim	poldrack-single-stim	s512	False	1
222.701	1.101	223.802	-1.1619191144597676	draw_card	1.101	columbia_card_task_fmri	14.0	0.8181818181818181	89.0	-80.0	0.1818181818181818	12.0	2.0	2.0	3.408212908417667	1.101	2.0	stim	poldrack-single-stim	s512	False	0
224.558	1.5	223.807	n/a	-1.0	2.25	columbia_card_task_fmri	n/a	n/a	-1.0	n/a	n/a	n/a	n/a	n/a	n/a	n/a	n/a	ITI	poldrack-single-stim	s512	False	0
226.062	0.539	226.601	1.928989976449326	draw_card	0.539	columbia_card_task_fmri	15.0	0.8333333333333334	89.0	-75.0	0.1666666666666666	12.0	1.0	2.0	0.6980826519888765	0.539	n/a	stim	poldrack-single-stim	s512	False	1
226.605	0.777	227.382	0.5653536128129608	draw_card	0.777	columbia_card_task_fmri	15.0	0.8181818181818181	89.0	-75.0	0.1818181818181818	12.0	2.0	2.0	1.867710169653627	0.777	n/a	stim	poldrack-single-stim	s512	False	1
227.386	1.024	228.41	-1.071010023550674	draw_card	1.024	columbia_card_task_fmri	15.0	0.8	89.0	-75.0	0.2	12.0	3.0	2.0	3.1532828986571038	1.024	n/a	stim	poldrack-single-stim	s512	False	1
228.413	0.42	228.833	-3.0710100235506723	draw_card	0.42	columbia_card_task_fmri	15.0	0.7777777777777778	89.0	-75.0	0.2222222222222222	12.0	4.0	2.0	4.56790421011732	0.42	n/a	stim	poldrack-single-stim	s512	False	1
228.837	0.62	229.457	-5.571010023550674	draw_card	0.62	columbia_card_task_fmri	15.0	0.75	89.0	-75.0	0.25	12.0	5.0	2.0	6.120493799847381	0.62	5.0	stim	poldrack-single-stim	s512	False	0
230.213	1.5	229.462	n/a	-1.0	2.658	columbia_card_task_fmri	n/a	n/a	-1.0	n/a	n/a	n/a	n/a	n/a	n/a	n/a	n/a	ITI	poldrack-single-stim	s512	False	0
232.125	0.374	232.499	0.928989976449326	draw_card	0.374	columbia_card_task_fmri	15.0	0.8	89.0	-65.0	0.2	15.0	1.0	3.0	-0.8402727074240914	0.374	1.0	stim	poldrack-single-stim	s512	False	0
233.254	1.5	232.503	n/a	-1.0	2.454	columbia_card_task_fmri	n/a	n/a	-1.0	n/a	n/a	n/a	n/a	n/a	n/a	n/a	n/a	ITI	poldrack-single-stim	s512	False	0
234.963	1.248	236.211	0.1789899764493259	draw_card	1.248	columbia_card_task_fmri	14.0	0.8125	89.0	-70.0	0.1875	16.0	1.0	3.0	-0.0554237755525193	1.248	n/a	stim	poldrack-single-stim	s512	False	1
236.216	0.699	236.915	-0.871010023550673	draw_card	0.699	columbia_card_task_fmri	14.0	0.8	89.0	-70.0	0.2	16.0	2.0	3.0	0.7569658607342191	0.699	n/a	stim	poldrack-single-stim	s512	False	1
236.92	0.425	237.345	-2.071010023550674	draw_card	0.425	columbia_card_task_fmri	14.0	0.7857142857142857	89.0	-70.0	0.2142857142857142	16.0	3.0	3.0	1.6229516447210486	0.425	n/a	stim	poldrack-single-stim	s512	False	1
237.35	1.458	238.808	-3.455625408166059	draw_card	1.458	columbia_card_task_fmri	14.0	0.7692307692307692	89.0	-70.0	0.2307692307692307	16.0	4.0	3.0	2.545473528228712	1.458	4.0	stim	poldrack-single-stim	s512	False	0
239.564	1.5	238.813	n/a	-1.0	2.386	columbia_card_task_fmri	n/a	n/a	-1.0	n/a	n/a	n/a	n/a	n/a	n/a	n/a	n/a	ITI	poldrack-single-stim	s512	False	0
241.205	0.618	241.823	0.1164899764493259	draw_card	0.618	columbia_card_task_fmri	11.0	0.6875	89.0	-30.0	0.3125	16.0	1.0	5.0	-13.7967024444618	0.618	1.0	stim	poldrack-single-stim	s512	False	0
242.579	1.5	241.828	n/a	-1.0	2.59	columbia_card_task_fmri	n/a	n/a	-1.0	n/a	n/a	n/a	n/a	n/a	n/a	n/a	n/a	ITI	poldrack-single-stim	s512	False	0
244.425	0.664	245.089	4.928989976449326	draw_card	0.664	columbia_card_task_fmri	15.0	0.8666666666666667	89.0	-75.0	0.1333333333333333	15.0	1.0	2.0	-2.2434915012828363	0.664	n/a	stim	poldrack-single-stim	s512	False	1
245.092	0.471	245.563	4.071847119306471	draw_card	0.471	columbia_card_task_fmri	15.0	0.8571428571428572	89.0	-75.0	0.1428571428571428	15.0	2.0	2.0	-1.34590056802573	0.471	n/a	stim	poldrack-single-stim	s512	False	1
245.568	1.406	246.974	3.082836130295479	draw_card	1.406	columbia_card_task_fmri	15.0	0.8461538461538461	89.0	-75.0	0.1538461538461538	15.0	3.0	2.0	-0.3690066392080666	1.406	n/a	stim	poldrack-single-stim	s512	False	1
246.979	1.65	248.629	1.928989976449326	draw_card	1.65	columbia_card_task_fmri	15.0	0.8333333333333334	89.0	-75.0	0.1666666666666666	15.0	4.0	2.0	0.6980826519888765	1.65	n/a	stim	poldrack-single-stim	s512	False	1
248.633	0.964	249.597	0.5653536128129608	draw_card	0.964	columbia_card_task_fmri	15.0	0.8181818181818181	89.0	-75.0	0.1818181818181818	15.0	5.0	2.0	1.867710169653627	0.964	n/a	stim	poldrack-single-stim	s512	False	1
249.602	0.807	250.409	-1.071010023550674	draw_card	0.807	columbia_card_task_fmri	15.0	0.8	89.0	-75.0	0.2	15.0	6.0	2.0	3.1532828986571038	0.807	n/a	stim	poldrack-single-stim	s512	False	1
250.412	1.214	251.626	-3.0710100235506723	draw_card	1.214	columbia_card_task_fmri	15.0	0.7777777777777778	89.0	-75.0	0.2222222222222222	15.0	7.0	2.0	4.56790421011732	1.214	n/a	stim	poldrack-single-stim	s512	False	1
251.63	1.139	252.769	-5.571010023550674	end_round	1.139	columbia_card_task_fmri	15.0	0.75	71.0	-75.0	0.25	15.0	8.0	2.0	6.120493799847381	1.139	7.0	stim	poldrack-single-stim	s512	False	1
253.525	1.5	252.774	n/a	-1.0	2.318	columbia_card_task_fmri	n/a	n/a	-1.0	n/a	n/a	n/a	n/a	n/a	n/a	n/a	n/a	ITI	poldrack-single-stim	s512	False	0
255.099	1.26	256.359	6.662323309782661	draw_card	1.26	columbia_card_task_fmri	17.0	0.8666666666666667	89.0	-75.0	0.1333333333333333	15.0	1.0	2.0	-1.564940396993368	1.26	n/a	stim	poldrack-single-stim	s512	False	1
256.364	1.037	257.401	5.786132833592186	draw_card	1.037	columbia_card_task_fmri	17.0	0.8571428571428572	89.0	-75.0	0.1428571428571428	15.0	2.0	2.0	-0.6473270882601696	1.037	n/a	stim	poldrack-single-stim	s512	False	1
257.406	0.4	257.806	4.775143822603173	draw_card	0.4	columbia_card_task_fmri	17.0	0.8461538461538461	89.0	-75.0	0.1538461538461538	15.0	3.0	2.0	0.3513534502541517	0.4	n/a	stim	poldrack-single-stim	s512	False	1
257.81	0.452	258.262	3.5956566431159938	draw_card	0.452	columbia_card_task_fmri	17.0	0.8333333333333334	89.0	-75.0	0.1666666666666666	15.0	4.0	2.0	1.44223570626702	0.452	4.0	stim	poldrack-single-stim	s512	False	0
259.018	1.5	258.267	n/a	-1.0	2.59	columbia_card_task_fmri	n/a	n/a	-1.0	n/a	n/a	n/a	n/a	n/a	n/a	n/a	n/a	ITI	poldrack-single-stim	s512	False	0
260.864	0.684	261.548	2.241489976449326	draw_card	0.684	columbia_card_task_fmri	2.0	0.9375	89.0	-25.0	0.0625	16.0	1.0	1.0	-26.083975415604208	0.684	n/a	stim	poldrack-single-stim	s512	False	1
261.553	0.434	261.987	2.1289899764493256	draw_card	0.434	columbia_card_task_fmri	2.0	0.9333333333333332	89.0	-25.0	0.0666666666666666	16.0	2.0	1.0	-25.8925771553455	0.434	n/a	stim	poldrack-single-stim	s512	False	1
261.992	0.394	262.386	2.000418547877897	draw_card	0.394	columbia_card_task_fmri	2.0	0.9285714285714286	89.0	-25.0	0.0714285714285714	16.0	3.0	1.0	-25.68219524227525	0.394	n/a	stim	poldrack-single-stim	s512	False	1
262.391	0.358	262.749	1.852066899526249	draw_card	0.358	columbia_card_task_fmri	2.0	0.9230769230769232	89.0	-25.0	0.0769230769230769	16.0	4.0	1.0	-25.44958115358118	0.358	n/a	stim	poldrack-single-stim	s512	False	1
262.754	0.37	263.124	1.678989976449326	draw_card	0.37	columbia_card_task_fmri	2.0	0.9166666666666666	89.0	-25.0	0.0833333333333333	16.0	5.0	1.0	-25.1906695314837	0.37	n/a	stim	poldrack-single-stim	s512	False	1
263.128	0.717	263.845	1.474444521903871	draw_card	0.717	columbia_card_task_fmri	2.0	0.9090909090909092	89.0	-25.0	0.0909090909090909	16.0	6.0	1.0	-24.90030236910416	0.717	n/a	stim	poldrack-single-stim	s512	False	1
263.85	0.988	264.838	1.228989976449326	draw_card	0.988	columbia_card_task_fmri	2.0	0.9	89.0	-25.0	0.1	16.0	7.0	1.0	-24.57183662238762	0.988	n/a	stim	poldrack-single-stim	s512	False	1
264.843	0.626	265.469	0.928989976449326	end_round	0.626	columbia_card_task_fmri	2.0	0.8888888888888888	71.0	-25.0	0.1111111111111111	16.0	8.0	1.0	-24.196579086159048	0.626	7.0	stim	poldrack-single-stim	s512	False	1
266.226	1.5	265.475	n/a	-1.0	2.386	columbia_card_task_fmri	n/a	n/a	-1.0	n/a	n/a	n/a	n/a	n/a	n/a	n/a	n/a	ITI	poldrack-single-stim	s512	False	0
267.867	0.734	268.601	4.428989976449326	draw_card	0.734	columbia_card_task_fmri	9.0	0.9375	89.0	-95.0	0.0625	16.0	1.0	1.0	-7.650172546881588	0.734	n/a	stim	poldrack-single-stim	s512	False	1
268.606	0.859	269.465	3.995656643115993	draw_card	0.859	columbia_card_task_fmri	9.0	0.9333333333333332	89.0	-95.0	0.0666666666666666	16.0	2.0	1.0	-6.884584337228841	0.859	2.0	stim	poldrack-single-stim	s512	False	0
270.22	1.5	269.469	n/a	-1.0	2.318	columbia_card_task_fmri	n/a	n/a	-1.0	n/a	n/a	n/a	n/a	n/a	n/a	n/a	n/a	ITI	poldrack-single-stim	s512	False	0
271.793	0.695	272.488	5.991489976449326	draw_card	0.695	columbia_card_task_fmri	11.0	0.9375	89.0	-100.0	0.0625	16.0	1.0	1.0	-5.960383809649883	0.695	n/a	stim	poldrack-single-stim	s512	False	1
272.494	0.955	273.449	5.528989976449326	draw_card	0.955	columbia_card_task_fmri	11.0	0.9333333333333332	89.0	-100.0	0.0666666666666666	16.0	2.0	1.0	-5.142982747574347	0.955	n/a	stim	poldrack-single-stim	s512	False	1
273.454	0.925	274.379	5.000418547877899	draw_card	0.925	columbia_card_task_fmri	11.0	0.9285714285714286	89.0	-100.0	0.0714285714285714	16.0	3.0	1.0	-4.246481371571303	0.925	n/a	stim	poldrack-single-stim	s512	False	1
274.383	0.579	274.962	4.390528437987788	draw_card	0.579	columbia_card_task_fmri	11.0	0.9230769230769232	89.0	-100.0	0.0769230769230769	16.0	4.0	1.0	-3.257427671364848	0.579	n/a	stim	poldrack-single-stim	s512	False	1
274.967	0.536	275.503	3.678989976449326	draw_card	0.536	columbia_card_task_fmri	11.0	0.9166666666666666	89.0	-100.0	0.0833333333333333	16.0	5.0	1.0	-2.158996594679813	0.536	n/a	stim	poldrack-single-stim	s512	False	1
275.507	0.817	276.324	2.838080885540234	draw_card	0.817	columbia_card_task_fmri	11.0	0.9090909090909092	89.0	-100.0	0.0909090909090909	16.0	6.0	1.0	-0.9298532506346646	0.817	n/a	stim	poldrack-single-stim	s512	False	1
276.329	0.381	276.71	1.8289899764493265	draw_card	0.381	columbia_card_task_fmri	11.0	0.9	89.0	-100.0	0.1	16.0	7.0	1.0	0.4574634672694841	0.381	n/a	stim	poldrack-single-stim	s512	False	1
276.715	0.729	277.444	0.595656643115992	draw_card	0.729	columbia_card_task_fmri	11.0	0.8888888888888888	89.0	-100.0	0.1111111111111111	16.0	8.0	1.0	2.038867222875126	0.729	n/a	stim	poldrack-single-stim	s512	False	1
277.448	1.097	278.545	-0.946010023550674	end_round	1.097	columbia_card_task_fmri	11.0	0.875	71.0	-100.0	0.125	16.0	9.0	1.0	3.862085179232743	1.097	8.0	stim	poldrack-single-stim	s512	False	1
279.301	1.5	278.55	n/a	-1.0	2.318	columbia_card_task_fmri	n/a	n/a	-1.0	n/a	n/a	n/a	n/a	n/a	n/a	n/a	n/a	ITI	poldrack-single-stim	s512	False	0
280.875	0.558	281.433	6.553989976449326	draw_card	0.558	columbia_card_task_fmri	16.0	0.875	89.0	-75.0	0.125	16.0	1.0	2.0	-2.741182772721867	0.558	n/a	stim	poldrack-single-stim	s512	False	1
281.438	0.862	282.3	5.7956566431159935	draw_card	0.862	columbia_card_task_fmri	16.0	0.8666666666666667	89.0	-75.0	0.1333333333333333	16.0	2.0	2.0	-1.904223170749301	0.862	n/a	stim	poldrack-single-stim	s512	False	1
282.304	0.439	282.743	4.928989976449328	draw_card	0.439	columbia_card_task_fmri	16.0	0.8571428571428572	89.0	-75.0	0.1428571428571428	16.0	3.0	2.0	-0.9966208458305026	0.439	n/a	stim	poldrack-single-stim	s512	False	1
282.748	0.654	283.402	3.928989976449326	draw_card	0.654	columbia_card_task_fmri	16.0	0.8461538461538461	89.0	-75.0	0.1538461538461538	16.0	4.0	2.0	-0.0088334028771015	0.654	n/a	stim	poldrack-single-stim	s512	False	1
283.407	0.853	284.26	2.76232330978266	draw_card	0.853	columbia_card_task_fmri	16.0	0.8333333333333334	89.0	-75.0	0.1666666666666666	16.0	5.0	2.0	1.07015258556887	0.853	n/a	stim	poldrack-single-stim	s512	False	1
284.265	0.655	284.92	1.3835354309947792	end_round	0.655	columbia_card_task_fmri	16.0	0.8181818181818181	71.0	-75.0	0.1818181818181818	16.0	6.0	2.0	2.2528171407133755	0.655	5.0	stim	poldrack-single-stim	s512	False	1
285.677	1.5	284.926	n/a	-1.0	2.318	columbia_card_task_fmri	n/a	n/a	-1.0	n/a	n/a	n/a	n/a	n/a	n/a	n/a	n/a	ITI	poldrack-single-stim	s512	False	0
287.251	0.37	287.621	6.803989976449326	draw_card	0.37	columbia_card_task_fmri	17.0	0.875	89.0	-80.0	0.125	16.0	1.0	2.0	-0.7606821785478459	0.37	n/a	stim	poldrack-single-stim	s512	False	1
287.626	0.751	288.377	5.9956566431159946	draw_card	0.751	columbia_card_task_fmri	17.0	0.8666666666666667	89.0	-80.0	0.1333333333333333	16.0	2.0	2.0	0.1316745416609208	0.751	n/a	stim	poldrack-single-stim	s512	False	1
288.383	1.014	289.397	5.071847119306472	draw_card	1.014	columbia_card_task_fmri	17.0	0.8571428571428572	89.0	-80.0	0.1428571428571428	16.0	3.0	2.0	1.0993370886102838	1.014	n/a	stim	poldrack-single-stim	s512	False	1
289.401	0.693	290.094	4.005913053372403	draw_card	0.693	columbia_card_task_fmri	17.0	0.8461538461538461	89.0	-80.0	0.1538461538461538	16.0	4.0	2.0	2.1524772749259924	0.693	n/a	stim	poldrack-single-stim	s512	False	1
290.099	0.678	290.777	2.7623233097826616	end_round	0.678	columbia_card_task_fmri	17.0	0.8333333333333334	71.0	-80.0	0.1666666666666666	16.0	5.0	2.0	3.3028348843458204	0.678	4.0	stim	poldrack-single-stim	s512	False	1
291.534	1.5	290.783	n/a	-1.0	2.386	columbia_card_task_fmri	n/a	n/a	-1.0	n/a	n/a	n/a	n/a	n/a	n/a	n/a	n/a	ITI	poldrack-single-stim	s512	False	0
304.18	1.492	305.672	1.0956566431159938	draw_card	1.492	columbia_card_task_fmri	13.0	0.8333333333333334	89.0	-70.0	0.1666666666666666	6.0	1.0	1.0	-1.9059977506875043	1.492	n/a	stim	poldrack-single-stim	s512	False	1
305.677	1.496	307.173	-1.6710100235506735	draw_card	1.496	columbia_card_task_fmri	13.0	0.8	89.0	-70.0	0.2	6.0	2.0	1.0	0.3576313295152005	1.496	n/a	stim	poldrack-single-stim	s512	False	1
307.179	1.292	308.471	-5.821010023550674	draw_card	1.292	columbia_card_task_fmri	13.0	0.75	89.0	-70.0	0.25	6.0	3.0	1.0	3.093423170186618	1.292	n/a	stim	poldrack-single-stim	s512	False	1
308.476	1.181	309.657	-12.737676690217338	end_round	1.181	columbia_card_task_fmri	13.0	0.6666666666666667	71.0	-70.0	0.3333333333333333	6.0	4.0	1.0	6.2757365504238365	1.181	3.0	stim	poldrack-single-stim	s512	False	1
310.414	1.5	309.663	n/a	-1.0	2.25	columbia_card_task_fmri	n/a	n/a	-1.0	n/a	n/a	n/a	n/a	n/a	n/a	n/a	n/a	ITI	poldrack-single-stim	s512	False	0
311.92	0.888	312.808	1.0956566431159938	draw_card	0.888	columbia_card_task_fmri	15.0	0.8333333333333334	89.0	-80.0	0.1666666666666666	6.0	1.0	1.0	2.558560039448686	0.888	n/a	stim	poldrack-single-stim	s512	False	1
312.812	1.307	314.119	-2.071010023550674	draw_card	1.307	columbia_card_task_fmri	15.0	0.8	89.0	-80.0	0.2	6.0	2.0	1.0	5.150568409464768	1.307	n/a	stim	poldrack-single-stim	s512	False	1
314.124	1.217	315.341	-6.821010023550674	draw_card	1.217	columbia_card_task_fmri	15.0	0.75	89.0	-80.0	0.25	6.0	3.0	1.0	8.28304902223175	1.217	n/a	stim	poldrack-single-stim	s512	False	1
315.345	0.831	316.176	-14.737676690217338	end_round	0.831	columbia_card_task_fmri	15.0	0.6666666666666667	71.0	-80.0	0.3333333333333333	6.0	4.0	1.0	11.926593986574945	0.831	3.0	stim	poldrack-single-stim	s512	False	1
316.932	1.5	316.181	n/a	-1.0	2.386	columbia_card_task_fmri	n/a	n/a	-1.0	n/a	n/a	n/a	n/a	n/a	n/a	n/a	n/a	ITI	poldrack-single-stim	s512	False	0
318.573	1.873	320.446	2.76232330978266	draw_card	1.873	columbia_card_task_fmri	16.0	0.8333333333333334	89.0	-75.0	0.1666666666666666	6.0	1.0	1.0	1.07015258556887	1.873	n/a	stim	poldrack-single-stim	s512	False	1
320.452	0.43	320.882	-0.2710100235506734	draw_card	0.43	columbia_card_task_fmri	16.0	0.8	89.0	-75.0	0.2	6.0	2.0	1.0	3.5527161867956423	0.43	n/a	stim	poldrack-single-stim	s512	False	1
320.886	1.657	322.543	-4.821010023550674	draw_card	1.657	columbia_card_task_fmri	16.0	0.75	89.0	-75.0	0.25	6.0	3.0	1.0	6.552982832587972	1.657	3.0	stim	poldrack-single-stim	s512	False	0
323.299	1.5	322.548	n/a	-1.0	2.59	columbia_card_task_fmri	n/a	n/a	-1.0	n/a	n/a	n/a	n/a	n/a	n/a	n/a	n/a	ITI	poldrack-single-stim	s512	False	0
325.145	0.473	325.618	3.928989976449326	draw_card	0.473	columbia_card_task_fmri	21.0	0.75	89.0	-55.0	0.25	8.0	1.0	2.0	0.0670910007771254	0.473	1.0	stim	poldrack-single-stim	s512	False	0
326.375	1.5	325.624	n/a	-1.0	2.658	columbia_card_task_fmri	n/a	n/a	-1.0	n/a	n/a	n/a	n/a	n/a	n/a	n/a	n/a	ITI	poldrack-single-stim	s512	False	0
328.288	0.431	328.719	5.178989976449326	draw_card	0.431	columbia_card_task_fmri	26.0	0.75	89.0	-65.0	0.25	8.0	1.0	2.0	6.552982832587972	0.431	n/a	stim	poldrack-single-stim	s512	False	1
328.725	2.199	330.924	1.9289899764493292	draw_card	2.199	columbia_card_task_fmri	26.0	0.7142857142857143	89.0	-65.0	0.2857142857142857	8.0	2.0	2.0	8.25648113795993	2.199	n/a	stim	poldrack-single-stim	s512	False	1
330.929	0.69	331.619	-2.4043433568840027	end_round	0.69	columbia_card_task_fmri	26.0	0.6666666666666667	71.0	-65.0	0.3333333333333333	8.0	3.0	2.0	10.042799381205969	0.69	2.0	stim	poldrack-single-stim	s512	False	1
332.376	1.5	331.625	n/a	-1.0	2.386	columbia_card_task_fmri	n/a	n/a	-1.0	n/a	n/a	n/a	n/a	n/a	n/a	n/a	n/a	ITI	poldrack-single-stim	s512	False	0
334.018	0.782	334.8	0.2623233097826598	draw_card	0.782	columbia_card_task_fmri	15.0	0.7777777777777778	89.0	-60.0	0.2222222222222222	9.0	1.0	2.0	-1.658270625306887	0.782	n/a	stim	poldrack-single-stim	s512	False	1
334.805	1.095	335.9	-1.821010023550674	draw_card	1.095	columbia_card_task_fmri	15.0	0.75	89.0	-60.0	0.25	9.0	2.0	2.0	-0.3651698667865588	1.095	n/a	stim	poldrack-single-stim	s512	False	1
335.905	0.875	336.78	-4.499581452122101	draw_card	0.875	columbia_card_task_fmri	15.0	0.7142857142857143	89.0	-60.0	0.2857142857142857	9.0	3.0	2.0	1.038053217988363	0.875	n/a	stim	poldrack-single-stim	s512	False	1
336.785	1.298	338.083	-8.071010023550672	draw_card	1.298	columbia_card_task_fmri	15.0	0.6666666666666667	89.0	-60.0	0.3333333333333333	9.0	4.0	2.0	2.509562228295465	1.298	n/a	stim	poldrack-single-stim	s512	False	1
338.088	0.734	338.822	-13.071010023550674	end_round	0.734	columbia_card_task_fmri	15.0	0.6	71.0	-60.0	0.4	9.0	5.0	2.0	3.894587078663477	0.734	4.0	stim	poldrack-single-stim	s512	False	1
339.577	1.5	338.826	n/a	-1.0	2.386	columbia_card_task_fmri	n/a	n/a	-1.0	n/a	n/a	n/a	n/a	n/a	n/a	n/a	n/a	ITI	poldrack-single-stim	s512	False	0
341.219	0.678	341.897	4.628989976449327	draw_card	0.678	columbia_card_task_fmri	13.0	0.9	89.0	-90.0	0.1	10.0	1.0	1.0	-1.9382088007774136	0.678	n/a	stim	poldrack-single-stim	s512	False	1
341.901	0.842	342.743	3.4845455320048813	draw_card	0.842	columbia_card_task_fmri	13.0	0.8888888888888888	89.0	-90.0	0.1111111111111111	10.0	2.0	1.0	-0.4711580004945972	0.842	n/a	stim	poldrack-single-stim	s512	False	1
342.75	0.433	343.183	2.053989976449326	draw_card	0.433	columbia_card_task_fmri	13.0	0.875	89.0	-90.0	0.125	10.0	3.0	1.0	1.2202615019434615	0.433	n/a	stim	poldrack-single-stim	s512	False	1
343.188	0.394	343.582	0.2147042621636141	draw_card	0.394	columbia_card_task_fmri	13.0	0.8571428571428572	89.0	-90.0	0.1428571428571428	10.0	4.0	1.0	3.1957140306106098	0.394	n/a	stim	poldrack-single-stim	s512	False	1
343.587	0.896	344.483	-2.23767669021734	draw_card	0.896	columbia_card_task_fmri	13.0	0.8333333333333334	89.0	-90.0	0.1666666666666666	10.0	5.0	1.0	5.535910837786318	0.896	n/a	stim	poldrack-single-stim	s512	False	1
344.488	1.279	345.767	-5.671010023550673	draw_card	1.279	columbia_card_task_fmri	13.0	0.8	89.0	-90.0	0.2	10.0	6.0	1.0	8.346772427644318	1.279	6.0	stim	poldrack-single-stim	s512	False	0
346.524	1.5	345.773	n/a	-1.0	2.25	columbia_card_task_fmri	n/a	n/a	-1.0	n/a	n/a	n/a	n/a	n/a	n/a	n/a	n/a	ITI	poldrack-single-stim	s512	False	0
348.03	0.517	348.547	5.928989976449326	draw_card	0.517	columbia_card_task_fmri	15.0	0.9	89.0	-95.0	0.1	10.0	1.0	1.0	0.1579700982894181	0.517	n/a	stim	poldrack-single-stim	s512	False	1
348.552	0.53	349.082	4.706767754227103	draw_card	0.53	columbia_card_task_fmri	15.0	0.8888888888888888	89.0	-95.0	0.1111111111111111	10.0	2.0	1.0	1.7250812780546454	0.53	n/a	stim	poldrack-single-stim	s512	False	1
349.088	0.422	349.51	3.178989976449326	draw_card	0.422	columbia_card_task_fmri	15.0	0.875	89.0	-95.0	0.125	10.0	3.0	1.0	3.531826044029529	0.422	n/a	stim	poldrack-single-stim	s512	False	1
349.516	0.452	349.968	1.2147042621636124	draw_card	0.452	columbia_card_task_fmri	15.0	0.8571428571428572	89.0	-95.0	0.1428571428571428	10.0	4.0	1.0	5.641925488488177	0.452	n/a	stim	poldrack-single-stim	s512	False	1
349.973	0.768	350.741	-1.4043433568840062	draw_card	0.768	columbia_card_task_fmri	15.0	0.8333333333333334	89.0	-95.0	0.1666666666666666	10.0	5.0	1.0	8.141577923867708	0.768	n/a	stim	poldrack-single-stim	s512	False	1
350.746	0.966	351.712	-5.071010023550674	end_round	0.966	columbia_card_task_fmri	15.0	0.8	71.0	-95.0	0.2	10.0	6.0	1.0	11.14390317249724	0.966	5.0	stim	poldrack-single-stim	s512	False	1
352.469	1.5	351.718	n/a	-1.0	2.318	columbia_card_task_fmri	n/a	n/a	-1.0	n/a	n/a	n/a	n/a	n/a	n/a	n/a	n/a	ITI	poldrack-single-stim	s512	False	0
354.042	1.247	355.289	1.7289899764493266	draw_card	1.247	columbia_card_task_fmri	16.0	0.8	89.0	-65.0	0.2	10.0	1.0	2.0	-0.4409885669665314	1.247	n/a	stim	poldrack-single-stim	s512	False	1
355.294	0.404	355.698	-0.0710100235506723	draw_card	0.404	columbia_card_task_fmri	16.0	0.7777777777777778	89.0	-65.0	0.2222222222222222	10.0	2.0	2.0	0.8317594586596542	0.404	n/a	stim	poldrack-single-stim	s512	False	1
355.704	0.401	356.105	-2.321010023550674	draw_card	0.401	columbia_card_task_fmri	16.0	0.75	89.0	-65.0	0.25	10.0	3.0	2.0	2.228673135298834	0.401	3.0	stim	poldrack-single-stim	s512	False	0
356.862	1.5	356.111	n/a	-1.0	2.25	columbia_card_task_fmri	n/a	n/a	-1.0	n/a	n/a	n/a	n/a	n/a	n/a	n/a	n/a	ITI	poldrack-single-stim	s512	False	0
358.369	0.449	358.818	0.4289899764493259	draw_card	0.449	columbia_card_task_fmri	7.0	0.9166666666666666	89.0	-95.0	0.0833333333333333	12.0	1.0	1.0	-4.641131442066985	0.449	n/a	stim	poldrack-single-stim	s512	False	1
358.823	0.454	359.277	-0.3437372962779474	draw_card	0.454	columbia_card_task_fmri	7.0	0.9090909090909092	89.0	-95.0	0.0909090909090909	12.0	2.0	1.0	-3.5120421793124343	0.454	n/a	stim	poldrack-single-stim	s512	False	1
359.282	0.404	359.686	-1.2710100235506745	draw_card	0.404	columbia_card_task_fmri	7.0	0.9	89.0	-95.0	0.1	12.0	3.0	1.0	-2.237620239419421	0.404	n/a	stim	poldrack-single-stim	s512	False	1
359.692	0.343	360.035	-2.404343356884008	draw_card	0.343	columbia_card_task_fmri	7.0	0.8888888888888888	89.0	-95.0	0.1111111111111111	12.0	4.0	1.0	-0.7848656971014591	0.343	n/a	stim	poldrack-single-stim	s512	False	1
360.04	0.342	360.382	-3.821010023550674	draw_card	0.342	columbia_card_task_fmri	7.0	0.875	89.0	-95.0	0.125	12.0	5.0	1.0	0.8900767590454066	0.342	n/a	stim	poldrack-single-stim	s512	False	1
360.388	0.391	360.779	-5.642438594979245	draw_card	0.391	columbia_card_task_fmri	7.0	0.8571428571428572	89.0	-95.0	0.1428571428571428	12.0	6.0	1.0	2.8462919043463444	0.391	n/a	stim	poldrack-single-stim	s512	False	1
360.783	0.678	361.461	-8.071010023550672	draw_card	0.678	columbia_card_task_fmri	7.0	0.8333333333333334	89.0	-95.0	0.1666666666666666	12.0	7.0	1.0	5.163707115325963	0.678	7.0	stim	poldrack-single-stim	s512	False	0
362.217	1.5	361.466	n/a	-1.0	2.25	columbia_card_task_fmri	n/a	n/a	-1.0	n/a	n/a	n/a	n/a	n/a	n/a	n/a	n/a	ITI	poldrack-single-stim	s512	False	0
363.722	1.128	364.85	1.0956566431159938	draw_card	1.128	columbia_card_task_fmri	14.0	0.8333333333333334	89.0	-75.0	0.1666666666666666	12.0	1.0	2.0	0.3260263485627561	1.128	n/a	stim	poldrack-single-stim	s512	False	1
364.855	0.359	365.214	-0.2528282053688575	draw_card	0.359	columbia_card_task_fmri	14.0	0.8181818181818181	89.0	-75.0	0.1818181818181818	12.0	2.0	2.0	1.4826163730742437	0.359	2.0	stim	poldrack-single-stim	s512	False	0
365.97	1.5	365.219	n/a	-1.0	2.386	columbia_card_task_fmri	n/a	n/a	-1.0	n/a	n/a	n/a	n/a	n/a	n/a	n/a	n/a	ITI	poldrack-single-stim	s512	False	0
367.613	0.86	368.473	2.76232330978266	draw_card	0.86	columbia_card_task_fmri	15.0	0.8333333333333334	89.0	-70.0	0.1666666666666666	12.0	1.0	2.0	-1.162052976389031	0.86	n/a	stim	poldrack-single-stim	s512	False	1
368.478	0.662	369.14	1.474444521903869	draw_card	0.662	columbia_card_task_fmri	15.0	0.8181818181818181	89.0	-70.0	0.1818181818181818	12.0	2.0	2.0	-0.0576177995607025	0.662	n/a	stim	poldrack-single-stim	s512	False	1
369.146	1.024	370.17	-0.0710100235506741	draw_card	1.024	columbia_card_task_fmri	15.0	0.8	89.0	-70.0	0.2	12.0	3.0	2.0	1.1563160119018008	1.024	3.0	stim	poldrack-single-stim	s512	False	0
370.927	1.5	370.176	n/a	-1.0	2.386	columbia_card_task_fmri	n/a	n/a	-1.0	n/a	n/a	n/a	n/a	n/a	n/a	n/a	n/a	ITI	poldrack-single-stim	s512	False	0
372.57	0.406	372.976	0.7289899764493266	draw_card	0.406	columbia_card_task_fmri	16.0	0.8	89.0	-70.0	0.2	15.0	1.0	3.0	1.5556812398745308	0.406	n/a	stim	poldrack-single-stim	s512	False	1
372.981	0.491	373.472	-0.4995814521221029	draw_card	0.491	columbia_card_task_fmri	16.0	0.7857142857142857	89.0	-70.0	0.2142857142857142	15.0	2.0	3.0	2.442351008285464	0.491	n/a	stim	poldrack-single-stim	s512	False	1
373.477	0.745	374.222	-1.9171638697045208	draw_card	0.745	columbia_card_task_fmri	16.0	0.7692307692307692	89.0	-70.0	0.2307692307692307	15.0	3.0	3.0	3.3869037261202948	0.745	n/a	stim	poldrack-single-stim	s512	False	1
374.228	0.735	374.963	-3.571010023550674	end_round	0.735	columbia_card_task_fmri	16.0	0.75	71.0	-70.0	0.25	15.0	4.0	3.0	4.390659216005197	0.735	3.0	stim	poldrack-single-stim	s512	False	1
375.719	1.5	374.968	n/a	-1.0	2.726	columbia_card_task_fmri	n/a	n/a	-1.0	n/a	n/a	n/a	n/a	n/a	n/a	n/a	n/a	ITI	poldrack-single-stim	s512	False	0
377.699	1.287	378.986	1.116489976449326	draw_card	1.287	columbia_card_task_fmri	14.0	0.8125	89.0	-65.0	0.1875	16.0	1.0	3.0	-2.003404002085692	1.287	n/a	stim	poldrack-single-stim	s512	False	1
378.991	1.064	380.055	0.1289899764493269	draw_card	1.064	columbia_card_task_fmri	14.0	0.8	89.0	-65.0	0.2	16.0	2.0	3.0	-1.2395387747093525	1.064	n/a	stim	poldrack-single-stim	s512	False	1
380.061	0.701	380.762	-0.9995814521221013	draw_card	0.701	columbia_card_task_fmri	14.0	0.7857142857142857	89.0	-65.0	0.2142857142857142	16.0	3.0	3.0	-0.4252700243530682	0.701	n/a	stim	poldrack-single-stim	s512	False	1
380.768	1.026	381.794	-2.301779254319906	draw_card	1.026	columbia_card_task_fmri	14.0	0.7692307692307692	89.0	-65.0	0.2307692307692307	16.0	4.0	3.0	0.4421676155708098	1.026	4.0	stim	poldrack-single-stim	s512	False	0
382.551	1.5	381.8	n/a	-1.0	2.454	columbia_card_task_fmri	n/a	n/a	-1.0	n/a	n/a	n/a	n/a	n/a	n/a	n/a	n/a	ITI	poldrack-single-stim	s512	False	0
384.262	1.571	385.833	0.8664899764493259	draw_card	1.571	columbia_card_task_fmri	16.0	0.8125	89.0	-75.0	0.1875	16.0	1.0	3.0	2.6724081961517427	1.571	n/a	stim	poldrack-single-stim	s512	False	1
385.839	0.416	386.255	-0.2710100235506734	draw_card	0.416	columbia_card_task_fmri	16.0	0.8	89.0	-75.0	0.2	16.0	2.0	3.0	3.5527161867956423	0.416	n/a	stim	poldrack-single-stim	s512	False	1
386.261	0.448	386.709	-1.5710100235506723	draw_card	0.448	columbia_card_task_fmri	16.0	0.7857142857142857	89.0	-75.0	0.2142857142857142	16.0	3.0	3.0	4.491089768105525	0.448	n/a	stim	poldrack-single-stim	s512	False	1
386.714	0.551	387.265	-3.0710100235506776	end_round	0.551	columbia_card_task_fmri	16.0	0.7692307692307692	71.0	-75.0	0.2307692307692307	16.0	4.0	3.0	5.490713349959336	0.551	3.0	stim	poldrack-single-stim	s512	False	1
388.023	1.5	387.272	n/a	-1.0	2.318	columbia_card_task_fmri	n/a	n/a	-1.0	n/a	n/a	n/a	n/a	n/a	n/a	n/a	n/a	ITI	poldrack-single-stim	s512	False	0
389.597	0.703	390.3	5.128989976449327	draw_card	0.703	columbia_card_task_fmri	16.0	0.8666666666666667	89.0	-80.0	0.1333333333333333	15.0	1.0	2.0	-0.2076738640364794	0.703	n/a	stim	poldrack-single-stim	s512	False	1
390.306	0.883	391.189	4.214704262163615	draw_card	0.883	columbia_card_task_fmri	16.0	0.8571428571428572	89.0	-80.0	0.1428571428571428	15.0	2.0	2.0	0.7499795536779814	0.883	n/a	stim	poldrack-single-stim	s512	False	1
391.195	0.416	391.611	3.159759207218556	draw_card	0.416	columbia_card_task_fmri	16.0	0.8461538461538461	89.0	-80.0	0.1538461538461538	15.0	3.0	2.0	1.7922285476786757	0.416	n/a	stim	poldrack-single-stim	s512	False	1
391.617	0.67	392.287	1.928989976449328	draw_card	0.67	columbia_card_task_fmri	16.0	0.8333333333333334	89.0	-80.0	0.1666666666666666	15.0	4.0	2.0	2.9306918431654907	0.67	n/a	stim	poldrack-single-stim	s512	False	1
392.293	1.138	393.431	0.4744445219038691	draw_card	1.138	columbia_card_task_fmri	16.0	0.8181818181818181	89.0	-80.0	0.1818181818181818	15.0	5.0	2.0	4.178535244580303	1.138	n/a	stim	poldrack-single-stim	s512	False	1
393.437	0.841	394.278	-1.2710100235506734	end_round	0.841	columbia_card_task_fmri	16.0	0.8	71.0	-80.0	0.2	15.0	6.0	2.0	5.550059377027544	0.841	5.0	stim	poldrack-single-stim	s512	False	1
395.035	1.5	394.284	n/a	-1.0	2.318	columbia_card_task_fmri	n/a	n/a	-1.0	n/a	n/a	n/a	n/a	n/a	n/a	n/a	n/a	ITI	poldrack-single-stim	s512	False	0
396.61	0.636	397.246	5.9956566431159946	draw_card	0.636	columbia_card_task_fmri	17.0	0.8666666666666667	89.0	-80.0	0.1333333333333333	15.0	1.0	2.0	0.1316745416609208	0.636	n/a	stim	poldrack-single-stim	s512	False	1
397.252	0.663	397.915	5.071847119306472	draw_card	0.663	columbia_card_task_fmri	17.0	0.8571428571428572	89.0	-80.0	0.1428571428571428	15.0	2.0	2.0	1.0993370886102838	0.663	n/a	stim	poldrack-single-stim	s512	False	1
397.92	0.526	398.446	4.005913053372403	draw_card	0.526	columbia_card_task_fmri	17.0	0.8461538461538461	89.0	-80.0	0.1538461538461538	15.0	3.0	2.0	2.1524772749259924	0.526	n/a	stim	poldrack-single-stim	s512	False	1
398.453	0.419	398.872	2.7623233097826616	draw_card	0.419	columbia_card_task_fmri	17.0	0.8333333333333334	89.0	-80.0	0.1666666666666666	15.0	4.0	2.0	3.3028348843458204	0.419	n/a	stim	poldrack-single-stim	s512	False	1
398.877	0.396	399.273	1.2926263400856874	draw_card	0.396	columbia_card_task_fmri	17.0	0.8181818181818181	89.0	-80.0	0.1818181818181818	15.0	5.0	2.0	4.563712877524587	0.396	n/a	stim	poldrack-single-stim	s512	False	1
399.279	0.93	400.209	-0.4710100235506727	draw_card	0.93	columbia_card_task_fmri	17.0	0.8	89.0	-80.0	0.2	15.0	6.0	2.0	5.94956082048904	0.93	n/a	stim	poldrack-single-stim	s512	False	1
400.214	0.975	401.189	-2.626565579106229	draw_card	0.975	columbia_card_task_fmri	17.0	0.7777777777777778	89.0	-80.0	0.2222222222222222	15.0	7.0	2.0	7.474500484272703	0.975	n/a	stim	poldrack-single-stim	s512	False	1
401.194	0.867	402.061	-5.321010023550674	end_round	0.867	columbia_card_task_fmri	17.0	0.75	71.0	-80.0	0.25	15.0	8.0	2.0	9.148143397277297	0.867	7.0	stim	poldrack-single-stim	s512	False	1
402.818	1.5	402.067	n/a	-1.0	2.59	columbia_card_task_fmri	n/a	n/a	-1.0	n/a	n/a	n/a	n/a	n/a	n/a	n/a	n/a	ITI	poldrack-single-stim	s512	False	0
404.664	2.856	407.52	1.928989976449326	draw_card	2.856	columbia_card_task_fmri	1.0	0.9375	89.0	-15.0	0.0625	16.0	1.0	1.0	-28.571583286087204	2.856	n/a	stim	poldrack-single-stim	s512	False	1
407.526	0.399	407.925	1.8623233097826597	draw_card	0.399	columbia_card_task_fmri	1.0	0.9333333333333332	89.0	-15.0	0.0666666666666666	16.0	2.0	1.0	-28.465540864983453	0.399	n/a	stim	poldrack-single-stim	s512	False	1
407.931	0.378	408.309	1.7861328335921831	draw_card	0.378	columbia_card_task_fmri	1.0	0.9285714285714286	89.0	-15.0	0.0714285714285714	16.0	3.0	1.0	-28.348570083938	0.378	n/a	stim	poldrack-single-stim	s512	False	1
408.315	0.31	408.625	1.698220745680095	draw_card	0.31	columbia_card_task_fmri	1.0	0.9230769230769232	89.0	-15.0	0.0769230769230769	16.0	4.0	1.0	-28.21877550257291	0.31	n/a	stim	poldrack-single-stim	s512	False	1
408.631	0.22	408.851	1.5956566431159924	draw_card	0.22	columbia_card_task_fmri	1.0	0.9166666666666666	89.0	-15.0	0.0833333333333333	16.0	5.0	1.0	-28.07378212793176	0.22	n/a	stim	poldrack-single-stim	s512	False	1
408.857	1.161	410.018	1.474444521903871	draw_card	1.161	columbia_card_task_fmri	1.0	0.9090909090909092	89.0	-15.0	0.0909090909090909	16.0	6.0	1.0	-27.9105728483311	1.161	6.0	stim	poldrack-single-stim	s512	False	0
410.776	1.5	410.025	n/a	-1.0	2.726	columbia_card_task_fmri	n/a	n/a	-1.0	n/a	n/a	n/a	n/a	n/a	n/a	n/a	n/a	ITI	poldrack-single-stim	s512	False	0
412.759	0.8	413.559	5.053989976449326	draw_card	0.8	columbia_card_task_fmri	10.0	0.9375	89.0	-100.0	0.0625	16.0	1.0	1.0	-6.201818224065931	0.8	n/a	stim	poldrack-single-stim	s512	False	1
413.565	0.442	414.007	4.595656643115992	draw_card	0.442	columbia_card_task_fmri	10.0	0.9333333333333332	89.0	-100.0	0.0666666666666666	16.0	2.0	1.0	-5.391817948421558	0.442	n/a	stim	poldrack-single-stim	s512	False	1
414.013	0.665	414.678	4.071847119306471	draw_card	0.665	columbia_card_task_fmri	10.0	0.9285714285714286	89.0	-100.0	0.0714285714285714	16.0	3.0	1.0	-4.503431121672147	0.665	n/a	stim	poldrack-single-stim	s512	False	1
414.682	1.985	416.667	3.467451514910865	draw_card	1.985	columbia_card_task_fmri	10.0	0.9230769230769232	89.0	-100.0	0.0769230769230769	16.0	4.0	1.0	-3.523327030445863	1.985	n/a	stim	poldrack-single-stim	s512	False	1
416.673	0.363	417.036	2.76232330978266	draw_card	0.363	columbia_card_task_fmri	10.0	0.9166666666666666	89.0	-100.0	0.0833333333333333	16.0	5.0	1.0	-2.4348323238309355	0.363	n/a	stim	poldrack-single-stim	s512	False	1
417.043	1.013	418.056	1.928989976449324	draw_card	1.013	columbia_card_task_fmri	10.0	0.9090909090909092	89.0	-100.0	0.0909090909090909	16.0	6.0	1.0	-1.2168044613982971	1.013	n/a	stim	poldrack-single-stim	s512	False	1
418.062	0.768	418.83	0.928989976449326	draw_card	0.768	columbia_card_task_fmri	10.0	0.9	89.0	-100.0	0.1	16.0	7.0	1.0	0.1579700982894181	0.768	n/a	stim	poldrack-single-stim	s512	False	1
418.835	1.029	419.864	-0.2932322457728955	draw_card	1.029	columbia_card_task_fmri	10.0	0.8888888888888888	89.0	-100.0	0.1111111111111111	16.0	8.0	1.0	1.7250812780546454	1.029	n/a	stim	poldrack-single-stim	s512	False	1
419.87	0.901	420.771	-1.821010023550674	draw_card	0.901	columbia_card_task_fmri	10.0	0.875	89.0	-100.0	0.125	16.0	9.0	1.0	3.531826044029529	0.901	n/a	stim	poldrack-single-stim	s512	False	1
420.776	2.207	422.983	-3.785295737836386	end_round	2.207	columbia_card_task_fmri	10.0	0.8571428571428572	71.0	-100.0	0.1428571428571428	16.0	10.0	1.0	5.641925488488177	2.207	9.0	stim	poldrack-single-stim	s512	False	1
423.738	1.5	422.987	n/a	-1.0	2.522	columbia_card_task_fmri	n/a	n/a	-1.0	n/a	n/a	n/a	n/a	n/a	n/a	n/a	n/a	ITI	poldrack-single-stim	s512	False	0
425.517	1.426	426.943	5.678989976449326	draw_card	1.426	columbia_card_task_fmri	15.0	0.875	89.0	-75.0	0.125	16.0	1.0	2.0	-3.071216929561622	1.426	n/a	stim	poldrack-single-stim	s512	False	1
426.949	0.404	427.353	4.928989976449326	draw_card	0.404	columbia_card_task_fmri	15.0	0.8666666666666667	89.0	-75.0	0.1333333333333333	16.0	2.0	2.0	-2.2434915012828363	0.404	2.0	stim	poldrack-single-stim	s512	False	0
428.11	1.5	427.359	n/a	-1.0	3.134	columbia_card_task_fmri	n/a	n/a	-1.0	n/a	n/a	n/a	n/a	n/a	n/a	n/a	n/a	ITI	poldrack-single-stim	s512	False	0
430.501	1.48	431.981	5.928989976449326	draw_card	1.48	columbia_card_task_fmri	16.0	0.875	89.0	-80.0	0.125	16.0	1.0	2.0	-1.0907986162267846	1.48	n/a	stim	poldrack-single-stim	s512	False	1
431.987	0.355	432.342	5.128989976449327	draw_card	0.355	columbia_card_task_fmri	16.0	0.8666666666666667	89.0	-80.0	0.1333333333333333	16.0	2.0	2.0	-0.2076738640364794	0.355	n/a	stim	poldrack-single-stim	s512	False	1
432.348	0.375	432.723	4.214704262163615	draw_card	0.375	columbia_card_task_fmri	16.0	0.8571428571428572	89.0	-80.0	0.1428571428571428	16.0	3.0	2.0	0.7499795536779814	0.375	n/a	stim	poldrack-single-stim	s512	False	1
432.73	0.351	433.081	3.159759207218556	draw_card	0.351	columbia_card_task_fmri	16.0	0.8461538461538461	89.0	-80.0	0.1538461538461538	16.0	4.0	2.0	1.7922285476786757	0.351	n/a	stim	poldrack-single-stim	s512	False	1
433.092	0.41	433.502	1.928989976449328	draw_card	0.41	columbia_card_task_fmri	16.0	0.8333333333333334	89.0	-80.0	0.1666666666666666	16.0	5.0	2.0	2.9306918431654907	0.41	n/a	stim	poldrack-single-stim	s512	False	1
433.508	0.353	433.861	0.4744445219038691	draw_card	0.353	columbia_card_task_fmri	16.0	0.8181818181818181	89.0	-80.0	0.1818181818181818	16.0	6.0	2.0	4.178535244580303	0.353	6.0	stim	poldrack-single-stim	s512	False	0
434.619	1.5	433.868	n/a	-1.0	2.386	columbia_card_task_fmri	n/a	n/a	-1.0	n/a	n/a	n/a	n/a	n/a	n/a	n/a	n/a	ITI	poldrack-single-stim	s512	False	0
436.261	2.712	438.973	3.116489976449326	draw_card	2.712	columbia_card_task_fmri	4.0	0.6875	89.0	-5.0	0.3125	16.0	1.0	5.0	-28.302346495475756	2.712	1.0	stim	poldrack-single-stim	s512	False	0
439.731	1.5	438.98	n/a	-1.0	2.386	columbia_card_task_fmri	n/a	n/a	-1.0	n/a	n/a	n/a	n/a	n/a	n/a	n/a	n/a	ITI	poldrack-single-stim	s512	False	0
441.373	0.75	442.123	0.2623233097826616	draw_card	0.75	columbia_card_task_fmri	14.0	0.8333333333333334	89.0	-80.0	0.1666666666666666	6.0	1.0	1.0	2.186439830770567	0.75	n/a	stim	poldrack-single-stim	s512	False	1
442.129	2.07	444.199	-2.871010023550673	draw_card	2.07	columbia_card_task_fmri	14.0	0.8	89.0	-80.0	0.2	6.0	2.0	1.0	4.751088251273863	2.07	n/a	stim	poldrack-single-stim	s512	False	1
444.206	1.246	445.452	-7.571010023550674	draw_card	1.246	columbia_card_task_fmri	14.0	0.75	89.0	-80.0	0.25	6.0	3.0	1.0	7.850516666920292	1.246	n/a	stim	poldrack-single-stim	s512	False	1
445.459	0.728	446.187	-15.404343356884002	end_round	0.728	columbia_card_task_fmri	14.0	0.6666666666666667	71.0	-80.0	0.3333333333333333	6.0	4.0	1.0	11.455630807004129	0.728	3.0	stim	poldrack-single-stim	s512	False	1
446.945	1.5	446.194	n/a	-1.0	2.318	columbia_card_task_fmri	n/a	n/a	-1.0	n/a	n/a	n/a	n/a	n/a	n/a	n/a	n/a	ITI	poldrack-single-stim	s512	False	0
448.521	1.237	449.758	1.928989976449326	draw_card	1.237	columbia_card_task_fmri	15.0	0.8333333333333334	89.0	-75.0	0.1666666666666666	6.0	1.0	1.0	0.6980826519888765	1.237	n/a	stim	poldrack-single-stim	s512	False	1
449.765	0.385	450.15	-1.071010023550674	draw_card	0.385	columbia_card_task_fmri	15.0	0.8	89.0	-75.0	0.2	6.0	2.0	1.0	3.1532828986571038	0.385	n/a	stim	poldrack-single-stim	s512	False	1
450.157	0.95	451.107	-5.571010023550674	draw_card	0.95	columbia_card_task_fmri	15.0	0.75	89.0	-75.0	0.25	6.0	3.0	1.0	6.120493799847381	0.95	n/a	stim	poldrack-single-stim	s512	False	1
451.114	0.763	451.877	-13.071010023550672	end_round	0.763	columbia_card_task_fmri	15.0	0.6666666666666667	71.0	-75.0	0.3333333333333333	6.0	4.0	1.0	9.571876017581827	0.763	3.0	stim	poldrack-single-stim	s512	False	1
452.635	1.5	451.884	n/a	-1.0	2.318	columbia_card_task_fmri	n/a	n/a	-1.0	n/a	n/a	n/a	n/a	n/a	n/a	n/a	n/a	ITI	poldrack-single-stim	s512	False	0
454.211	0.592	454.803	3.5956566431159938	draw_card	0.592	columbia_card_task_fmri	16.0	0.8333333333333334	89.0	-70.0	0.1666666666666666	6.0	1.0	1.0	-0.7900560426795806	0.592	n/a	stim	poldrack-single-stim	s512	False	1
454.81	0.961	455.771	0.7289899764493266	draw_card	0.961	columbia_card_task_fmri	16.0	0.8	89.0	-70.0	0.2	6.0	2.0	1.0	1.5556812398745308	0.961	n/a	stim	poldrack-single-stim	s512	False	1
455.775	1.457	457.232	-3.571010023550674	draw_card	1.457	columbia_card_task_fmri	16.0	0.75	89.0	-70.0	0.25	6.0	3.0	1.0	4.390659216005197	1.457	n/a	stim	poldrack-single-stim	s512	False	1
457.24	0.716	457.956	-10.737676690217338	end_round	0.716	columbia_card_task_fmri	16.0	0.6666666666666667	71.0	-70.0	0.3333333333333333	6.0	4.0	1.0	7.688294276760601	0.716	3.0	stim	poldrack-single-stim	s512	False	1
458.715	1.5	457.964	n/a	-1.0	2.862	columbia_card_task_fmri	n/a	n/a	-1.0	n/a	n/a	n/a	n/a	n/a	n/a	n/a	n/a	ITI	poldrack-single-stim	s512	False	0
460.833	1.447	462.28	4.178989976449326	draw_card	1.447	columbia_card_task_fmri	23.0	0.75	89.0	-60.0	0.25	8.0	1.0	2.0	3.093423170186618	1.447	n/a	stim	poldrack-single-stim	s512	False	1
462.288	1.164	463.452	1.2147042621636142	draw_card	1.164	columbia_card_task_fmri	23.0	0.7142857142857143	89.0	-60.0	0.2857142857142857	8.0	2.0	2.0	4.646803751236867	1.164	n/a	stim	poldrack-single-stim	s512	False	1
463.459	1.206	464.665	-2.7376766902173384	draw_card	1.206	columbia_card_task_fmri	23.0	0.6666666666666667	89.0	-60.0	0.3333333333333333	8.0	3.0	2.0	6.2757365504238365	1.206	3.0	stim	poldrack-single-stim	s512	False	0
465.423	1.5	464.672	n/a	-1.0	2.726	columbia_card_task_fmri	n/a	n/a	-1.0	n/a	n/a	n/a	n/a	n/a	n/a	n/a	n/a	ITI	poldrack-single-stim	s512	False	0
467.407	0.531	467.938	4.678989976449326	draw_card	0.531	columbia_card_task_fmri	27.0	0.75	89.0	-70.0	0.25	8.0	1.0	2.0	9.148143397277297	0.531	n/a	stim	poldrack-single-stim	s512	False	1
467.945	0.836	468.781	1.2147042621636106	draw_card	0.836	columbia_card_task_fmri	27.0	0.7142857142857143	89.0	-70.0	0.2857142857142857	8.0	2.0	2.0	10.96420977447415	0.836	n/a	stim	poldrack-single-stim	s512	False	1
468.788	0.657	469.445	-3.4043433568840027	end_round	0.657	columbia_card_task_fmri	27.0	0.6666666666666667	71.0	-70.0	0.3333333333333333	8.0	3.0	2.0	12.868547608154708	0.657	2.0	stim	poldrack-single-stim	s512	False	1
470.204	1.5	469.453	n/a	-1.0	2.25	columbia_card_task_fmri	n/a	n/a	-1.0	n/a	n/a	n/a	n/a	n/a	n/a	n/a	n/a	ITI	poldrack-single-stim	s512	False	0
471.711	0.758	472.469	-0.0710100235506723	draw_card	0.758	columbia_card_task_fmri	16.0	0.7777777777777778	89.0	-65.0	0.2222222222222222	9.0	1.0	2.0	0.8317594586596542	0.758	n/a	stim	poldrack-single-stim	s512	False	1
472.476	1.054	473.53	-2.321010023550674	draw_card	1.054	columbia_card_task_fmri	16.0	0.75	89.0	-65.0	0.25	9.0	2.0	2.0	2.228673135298834	1.054	n/a	stim	poldrack-single-stim	s512	False	1
473.535	1.343	474.878	-5.213867166407814	draw_card	1.343	columbia_card_task_fmri	16.0	0.7142857142857143	89.0	-65.0	0.2857142857142857	9.0	3.0	2.0	3.744518527269065	1.343	3.0	stim	poldrack-single-stim	s512	False	0
475.637	1.5	474.886	n/a	-1.0	2.318	columbia_card_task_fmri	n/a	n/a	-1.0	n/a	n/a	n/a	n/a	n/a	n/a	n/a	n/a	ITI	poldrack-single-stim	s512	False	0
477.213	0.635	477.848	5.128989976449327	draw_card	0.635	columbia_card_task_fmri	13.0	0.9	89.0	-85.0	0.1	10.0	1.0	1.0	-3.4351462544632696	0.635	n/a	stim	poldrack-single-stim	s512	False	1
477.855	0.749	478.604	4.040101087560437	draw_card	0.749	columbia_card_task_fmri	13.0	0.8888888888888888	89.0	-85.0	0.1111111111111111	10.0	2.0	1.0	-2.039582119364404	0.749	n/a	stim	poldrack-single-stim	s512	False	1
478.611	0.524	479.135	2.678989976449326	draw_card	0.524	columbia_card_task_fmri	13.0	0.875	89.0	-85.0	0.125	10.0	3.0	1.0	-0.4305534783330671	0.524	n/a	stim	poldrack-single-stim	s512	False	1
479.144	0.462	479.606	0.9289899764493276	draw_card	0.462	columbia_card_task_fmri	13.0	0.8571428571428572	89.0	-85.0	0.1428571428571428	10.0	4.0	1.0	1.448706219654909	0.462	n/a	stim	poldrack-single-stim	s512	False	1
479.612	0.87	480.482	-1.4043433568840062	draw_card	0.87	columbia_card_task_fmri	13.0	0.8333333333333334	89.0	-85.0	0.1666666666666666	10.0	5.0	1.0	3.674988819957619	0.87	n/a	stim	poldrack-single-stim	s512	False	1
480.489	0.615	481.104	-4.671010023550673	end_round	0.615	columbia_card_task_fmri	13.0	0.8	71.0	-85.0	0.2	10.0	6.0	1.0	6.34907241994528	0.615	5.0	stim	poldrack-single-stim	s512	False	1
481.863	1.5	481.112	n/a	-1.0	2.454	columbia_card_task_fmri	n/a	n/a	-1.0	n/a	n/a	n/a	n/a	n/a	n/a	n/a	n/a	ITI	poldrack-single-stim	s512	False	0
483.572	1.304	484.876	0.1289899764493269	draw_card	1.304	columbia_card_task_fmri	14.0	0.8	89.0	-65.0	0.2	10.0	1.0	2.0	-1.2395387747093525	1.304	n/a	stim	poldrack-single-stim	s512	False	1
484.882	1.115	485.997	-1.6265655791062277	draw_card	1.115	columbia_card_task_fmri	14.0	0.7777777777777778	89.0	-65.0	0.2222222222222222	10.0	2.0	2.0	0.0016752248132334	1.115	2.0	stim	poldrack-single-stim	s512	False	0
486.755	1.5	486.004	n/a	-1.0	2.522	columbia_card_task_fmri	n/a	n/a	-1.0	n/a	n/a	n/a	n/a	n/a	n/a	n/a	n/a	ITI	poldrack-single-stim	s512	False	0
488.536	0.736	489.272	1.528989976449327	draw_card	0.736	columbia_card_task_fmri	17.0	0.8	89.0	-70.0	0.2	10.0	1.0	2.0	1.9550610263832056	0.736	1.0	stim	poldrack-single-stim	s512	False	0
490.031	1.5	489.28	n/a	-1.0	2.318	columbia_card_task_fmri	n/a	n/a	-1.0	n/a	n/a	n/a	n/a	n/a	n/a	n/a	n/a	ITI	poldrack-single-stim	s512	False	0
491.607	0.554	492.161	0.2623233097826598	draw_card	0.554	columbia_card_task_fmri	13.0	0.8333333333333334	89.0	-75.0	0.1666666666666666	12.0	1.0	2.0	-0.0460158616206243	0.554	1.0	stim	poldrack-single-stim	s512	False	0
492.919	1.5	492.168	n/a	-1.0	2.522	columbia_card_task_fmri	n/a	n/a	-1.0	n/a	n/a	n/a	n/a	n/a	n/a	n/a	n/a	ITI	poldrack-single-stim	s512	False	0
494.699	0.491	495.19	1.928989976449328	draw_card	0.491	columbia_card_task_fmri	14.0	0.8333333333333334	89.0	-70.0	0.1666666666666666	12.0	1.0	2.0	-1.5340337398062935	0.491	n/a	stim	poldrack-single-stim	s512	False	1
495.198	0.727	495.925	0.6562627037220508	draw_card	0.727	columbia_card_task_fmri	14.0	0.8181818181818181	89.0	-70.0	0.1818181818181818	12.0	2.0	2.0	-0.4426385797940568	0.727	n/a	stim	poldrack-single-stim	s512	False	1
495.933	1.016	496.949	-0.871010023550673	draw_card	1.016	columbia_card_task_fmri	14.0	0.8	89.0	-70.0	0.2	12.0	3.0	2.0	0.7569658607342191	1.016	3.0	stim	poldrack-single-stim	s512	False	0
497.707	1.5	496.956	n/a	-1.0	2.998	columbia_card_task_fmri	n/a	n/a	-1.0	n/a	n/a	n/a	n/a	n/a	n/a	n/a	n/a	ITI	poldrack-single-stim	s512	False	0
499.962	0.688	500.65	1.928989976449328	draw_card	0.688	columbia_card_task_fmri	16.0	0.8333333333333334	89.0	-80.0	0.1666666666666666	12.0	1.0	2.0	2.9306918431654907	0.688	n/a	stim	poldrack-single-stim	s512	False	1
500.658	0.918	501.576	0.4744445219038691	draw_card	0.918	columbia_card_task_fmri	16.0	0.8181818181818181	89.0	-80.0	0.1818181818181818	12.0	2.0	2.0	4.178535244580303	0.918	n/a	stim	poldrack-single-stim	s512	False	1
501.583	1.005	502.588	-1.2710100235506734	draw_card	1.005	columbia_card_task_fmri	16.0	0.8	89.0	-80.0	0.2	12.0	3.0	2.0	5.550059377027544	1.005	n/a	stim	poldrack-single-stim	s512	False	1
502.595	1.042	503.637	-3.404343356884008	end_round	1.042	columbia_card_task_fmri	16.0	0.7777777777777778	71.0	-80.0	0.2222222222222222	12.0	4.0	2.0	7.059240522658719	1.042	3.0	stim	poldrack-single-stim	s512	False	1
504.396	1.5	503.645	n/a	-1.0	2.318	columbia_card_task_fmri	n/a	n/a	-1.0	n/a	n/a	n/a	n/a	n/a	n/a	n/a	n/a	ITI	poldrack-single-stim	s512	False	0
505.972	0.935	506.907	1.7289899764493266	draw_card	0.935	columbia_card_task_fmri	16.0	0.8	89.0	-65.0	0.2	15.0	1.0	3.0	-0.4409885669665314	0.935	n/a	stim	poldrack-single-stim	s512	False	1
506.915	0.538	507.453	0.57184711930647	draw_card	0.538	columbia_card_task_fmri	16.0	0.7857142857142857	89.0	-65.0	0.2142857142857142	15.0	2.0	3.0	0.3939682833611684	0.538	2.0	stim	poldrack-single-stim	s512	False	0
508.212	1.5	507.461	n/a	-1.0	2.25	columbia_card_task_fmri	n/a	n/a	-1.0	n/a	n/a	n/a	n/a	n/a	n/a	n/a	n/a	ITI	poldrack-single-stim	s512	False	0
509.72	0.501	510.221	0.0539899764493259	draw_card	0.501	columbia_card_task_fmri	15.0	0.8125	89.0	-75.0	0.1875	16.0	1.0	3.0	2.282676537011284	0.501	n/a	stim	poldrack-single-stim	s512	False	1
510.229	1.075	511.304	-1.071010023550674	draw_card	1.075	columbia_card_task_fmri	15.0	0.8	89.0	-75.0	0.2	16.0	2.0	3.0	3.1532828986571038	1.075	n/a	stim	poldrack-single-stim	s512	False	1
511.31	0.856	512.166	-2.356724309264959	draw_card	0.856	columbia_card_task_fmri	15.0	0.7857142857142857	89.0	-75.0	0.2142857142857142	16.0	3.0	3.0	4.081316373595492	0.856	n/a	stim	poldrack-single-stim	s512	False	1
512.173	2.691	514.864	-3.840240792781448	draw_card	2.691	columbia_card_task_fmri	15.0	0.7692307692307692	89.0	-75.0	0.2307692307692307	16.0	4.0	3.0	5.069926446692605	2.691	n/a	stim	poldrack-single-stim	s512	False	1
514.87	0.996	515.866	-5.571010023550674	end_round	0.996	columbia_card_task_fmri	15.0	0.75	71.0	-75.0	0.25	16.0	5.0	3.0	6.120493799847381	0.996	4.0	stim	poldrack-single-stim	s512	False	1
516.625	1.5	515.874	n/a	-1.0	2.454	columbia_card_task_fmri	n/a	n/a	-1.0	n/a	n/a	n/a	n/a	n/a	n/a	n/a	n/a	ITI	poldrack-single-stim	s512	False	0
518.337	1.419	519.756	0.6164899764493259	draw_card	1.419	columbia_card_task_fmri	14.0	0.6875	89.0	-35.0	0.3125	16.0	1.0	5.0	-10.10448326538684	1.419	n/a	stim	poldrack-single-stim	s512	False	1
519.763	0.485	520.248	-0.4043433568840062	draw_card	0.485	columbia_card_task_fmri	14.0	0.6666666666666667	89.0	-35.0	0.3333333333333333	16.0	2.0	5.0	-9.719133785568232	0.485	n/a	stim	poldrack-single-stim	s512	False	1
520.255	0.862	521.117	-1.571010023550674	draw_card	0.862	columbia_card_task_fmri	14.0	0.6428571428571428	89.0	-35.0	0.3571428571428571	16.0	3.0	5.0	-9.340538117353717	0.862	3.0	stim	poldrack-single-stim	s512	False	0
521.876	1.5	521.125	n/a	-1.0	2.318	columbia_card_task_fmri	n/a	n/a	-1.0	n/a	n/a	n/a	n/a	n/a	n/a	n/a	n/a	ITI	poldrack-single-stim	s512	False	0
523.453	0.53	523.983	5.7956566431159935	draw_card	0.53	columbia_card_task_fmri	16.0	0.8666666666666667	89.0	-75.0	0.1333333333333333	15.0	1.0	2.0	-1.904223170749301	0.53	n/a	stim	poldrack-single-stim	s512	False	1
523.991	0.593	524.584	4.928989976449328	draw_card	0.593	columbia_card_task_fmri	16.0	0.8571428571428572	89.0	-75.0	0.1428571428571428	15.0	2.0	2.0	-0.9966208458305026	0.593	2.0	stim	poldrack-single-stim	s512	False	0
525.342	1.5	524.591	n/a	-1.0	2.318	columbia_card_task_fmri	n/a	n/a	-1.0	n/a	n/a	n/a	n/a	n/a	n/a	n/a	n/a	ITI	poldrack-single-stim	s512	False	0
526.918	0.249	527.167	6.46232330978266	draw_card	0.249	columbia_card_task_fmri	16.0	0.8666666666666667	89.0	-70.0	0.1333333333333333	15.0	1.0	2.0	-3.600410356418088	0.249	n/a	stim	poldrack-single-stim	s512	False	1
527.174	0.42	527.594	5.643275690735042	draw_card	0.42	columbia_card_task_fmri	16.0	0.8571428571428572	89.0	-70.0	0.1428571428571428	15.0	2.0	2.0	-2.742869349359463	0.42	n/a	stim	poldrack-single-stim	s512	False	1
527.601	1.915	529.516	4.698220745680095	draw_card	1.915	columbia_card_task_fmri	16.0	0.8461538461538461	89.0	-70.0	0.1538461538461538	15.0	3.0	2.0	-1.8095539515108143	1.915	n/a	stim	poldrack-single-stim	s512	False	1
529.523	0.714	530.237	3.5956566431159938	draw_card	0.714	columbia_card_task_fmri	16.0	0.8333333333333334	89.0	-70.0	0.1666666666666666	15.0	4.0	2.0	-0.7900560426795806	0.714	n/a	stim	poldrack-single-stim	s512	False	1
530.244	0.887	531.131	2.2926263400856874	draw_card	0.887	columbia_card_task_fmri	16.0	0.8181818181818181	89.0	-70.0	0.1818181818181818	15.0	5.0	2.0	0.3274186109904633	0.887	n/a	stim	poldrack-single-stim	s512	False	1
531.137	0.736	531.873	0.7289899764493266	end_round	0.736	columbia_card_task_fmri	16.0	0.8	71.0	-70.0	0.2	15.0	6.0	2.0	1.5556812398745308	0.736	5.0	stim	poldrack-single-stim	s512	False	1
532.631	1.5	531.88	n/a	-1.0	2.59	columbia_card_task_fmri	n/a	n/a	-1.0	n/a	n/a	n/a	n/a	n/a	n/a	n/a	n/a	ITI	poldrack-single-stim	s512	False	0
534.478	0.918	535.396	3.803989976449326	draw_card	0.918	columbia_card_task_fmri	8.0	0.9375	89.0	-90.0	0.0625	16.0	1.0	1.0	-9.098037595864676	0.918	n/a	stim	poldrack-single-stim	s512	False	1
535.404	0.657	536.061	3.3956566431159927	draw_card	0.657	columbia_card_task_fmri	8.0	0.9333333333333332	89.0	-90.0	0.0666666666666666	16.0	2.0	1.0	-8.376875688684297	0.657	n/a	stim	poldrack-single-stim	s512	False	1
536.069	0.418	536.487	2.928989976449327	draw_card	0.418	columbia_card_task_fmri	8.0	0.9285714285714286	89.0	-90.0	0.0714285714285714	16.0	3.0	1.0	-7.58589331686828	0.418	n/a	stim	poldrack-single-stim	s512	False	1
536.494	1.545	538.039	2.390528437987788	draw_card	1.545	columbia_card_task_fmri	8.0	0.9230769230769232	89.0	-90.0	0.0769230769230769	16.0	4.0	1.0	-6.713215416513148	1.545	n/a	stim	poldrack-single-stim	s512	False	1
538.046	1.479	539.525	1.762323309782659	draw_card	1.479	columbia_card_task_fmri	8.0	0.9166666666666666	89.0	-90.0	0.0833333333333333	16.0	5.0	1.0	-5.743989153102678	1.479	n/a	stim	poldrack-single-stim	s512	False	1
539.53	0.509	540.039	1.0198990673584167	draw_card	0.509	columbia_card_task_fmri	8.0	0.9090909090909092	89.0	-90.0	0.0909090909090909	16.0	6.0	1.0	-4.659380307678696	0.509	n/a	stim	poldrack-single-stim	s512	False	1
540.046	1.125	541.171	0.128989976449326	draw_card	1.125	columbia_card_task_fmri	8.0	0.9	89.0	-90.0	0.1	16.0	7.0	1.0	-3.435146254463266	1.125	n/a	stim	poldrack-single-stim	s512	False	1
541.178	0.651	541.829	-0.9598989124395634	end_round	0.651	columbia_card_task_fmri	8.0	0.8888888888888888	71.0	-90.0	0.1111111111111111	16.0	8.0	1.0	-2.039582119364404	0.651	7.0	stim	poldrack-single-stim	s512	False	1
542.587	1.5	541.836	n/a	-1.0	2.25	columbia_card_task_fmri	n/a	n/a	-1.0	n/a	n/a	n/a	n/a	n/a	n/a	n/a	n/a	ITI	poldrack-single-stim	s512	False	0
544.095	0.553	544.648	5.366489976449326	draw_card	0.553	columbia_card_task_fmri	10.0	0.9375	89.0	-95.0	0.0625	16.0	1.0	1.0	-7.40881188502593	0.553	n/a	stim	poldrack-single-stim	s512	False	1
544.654	0.775	545.429	4.928989976449326	draw_card	0.775	columbia_card_task_fmri	10.0	0.9333333333333332	89.0	-95.0	0.0666666666666666	16.0	2.0	1.0	-6.635820740521961	0.775	n/a	stim	poldrack-single-stim	s512	False	1
545.436	0.386	545.822	4.428989976449326	draw_card	0.386	columbia_card_task_fmri	10.0	0.9285714285714286	89.0	-95.0	0.0714285714285714	16.0	3.0	1.0	-5.788012026230149	0.386	n/a	stim	poldrack-single-stim	s512	False	1
545.828	0.332	546.16	3.852066899526249	draw_card	0.332	columbia_card_task_fmri	10.0	0.9230769230769232	89.0	-95.0	0.0769230769230769	16.0	4.0	1.0	-4.852661528838791	0.332	n/a	stim	poldrack-single-stim	s512	False	1
546.166	0.352	546.518	3.178989976449326	draw_card	0.352	columbia_card_task_fmri	10.0	0.9166666666666666	89.0	-95.0	0.0833333333333333	16.0	5.0	1.0	-3.813854422199871	0.352	n/a	stim	poldrack-single-stim	s512	False	1
546.525	0.424	546.949	2.383535430994779	draw_card	0.424	columbia_card_task_fmri	10.0	0.9090909090909092	89.0	-95.0	0.0909090909090909	16.0	6.0	1.0	-2.651409938965422	0.424	6.0	stim	poldrack-single-stim	s512	False	0
547.707	1.5	546.956	n/a	-1.0	2.25	columbia_card_task_fmri	n/a	n/a	-1.0	n/a	n/a	n/a	n/a	n/a	n/a	n/a	n/a	ITI	poldrack-single-stim	s512	False	0
549.214	0.52	549.734	6.303989976449326	draw_card	0.52	columbia_card_task_fmri	15.0	0.875	89.0	-70.0	0.125	16.0	1.0	2.0	-4.721146850386106	0.52	1.0	stim	poldrack-single-stim	s512	False	0
550.493	1.5	549.742	n/a	-1.0	2.522	columbia_card_task_fmri	n/a	n/a	-1.0	n/a	n/a	n/a	n/a	n/a	n/a	n/a	n/a	ITI	poldrack-single-stim	s512	False	0
552.272	0.845	553.117	5.303989976449326	draw_card	0.845	columbia_card_task_fmri	16.0	0.875	89.0	-85.0	0.125	16.0	1.0	2.0	0.5599025676697238	0.845	n/a	stim	poldrack-single-stim	s512	False	1
553.125	0.375	553.5	4.46232330978266	draw_card	0.375	columbia_card_task_fmri	16.0	0.8666666666666667	89.0	-85.0	0.1333333333333333	16.0	2.0	2.0	1.4891839667798763	0.375	n/a	stim	poldrack-single-stim	s512	False	1
553.508	0.364	553.872	3.500418547877899	draw_card	0.364	columbia_card_task_fmri	16.0	0.8571428571428572	89.0	-85.0	0.1428571428571428	16.0	3.0	2.0	2.4968797556190125	0.364	n/a	stim	poldrack-single-stim	s512	False	1
553.88	0.555	554.435	2.390528437987786	draw_card	0.555	columbia_card_task_fmri	16.0	0.8461538461538461	89.0	-85.0	0.1538461538461538	16.0	4.0	2.0	3.5935813504554943	0.555	n/a	stim	poldrack-single-stim	s512	False	1
554.442	0.843	555.285	1.0956566431159938	draw_card	0.843	columbia_card_task_fmri	16.0	0.8333333333333334	89.0	-85.0	0.1666666666666666	16.0	5.0	2.0	4.791512766150454	0.843	n/a	stim	poldrack-single-stim	s512	False	1
555.292	0.627	555.919	-0.4346463871870392	draw_card	0.627	columbia_card_task_fmri	16.0	0.8181818181818181	89.0	-85.0	0.1818181818181818	16.0	6.0	2.0	6.104525586914285	0.627	n/a	stim	poldrack-single-stim	s512	False	1
555.926	0.968	556.894	-2.2710100235506734	draw_card	0.968	columbia_card_task_fmri	16.0	0.8	89.0	-85.0	0.2	16.0	7.0	2.0	7.5476651447241	0.968	n/a	stim	poldrack-single-stim	s512	False	1
556.901	0.573	557.474	-4.515454467995118	end_round	0.573	columbia_card_task_fmri	16.0	0.7777777777777778	71.0	-85.0	0.2222222222222222	16.0	8.0	2.0	9.135635175602424	0.573	7.0	stim	poldrack-single-stim	s512	False	1
558.232	1.5	557.481	n/a	-1.0	2.454	columbia_card_task_fmri	n/a	n/a	-1.0	n/a	n/a	n/a	n/a	n/a	n/a	n/a	n/a	ITI	poldrack-single-stim	s512	False	0
