duration	onset	block_duration	movement_onset	planning	condition	exp_stage	experiment_exp_id	key_press	problem_id	response_time	trial_id	trial_type	worker_id	junk
5.486	3.007	5.486	8.493	1	UA_with_intermediate	practice	ward_and_allport	71	0.0	5.486	to_hand	poldrack-single-stim	s513	False
0.1	8.494	1.053	9.547	0	UA_with_intermediate	practice	ward_and_allport	82	0.0	1.053	to_board	poldrack-single-stim	s513	False
0.1	9.549	0.512	10.061	0	UA_with_intermediate	practice	ward_and_allport	71	0.0	0.512	to_hand	poldrack-single-stim	s513	False
0.1	10.061	0.446	10.507	0	UA_with_intermediate	practice	ward_and_allport	89	0.0	0.446	to_board	poldrack-single-stim	s513	False
0.1	10.508	0.432	10.94	0	UA_with_intermediate	practice	ward_and_allport	82	0.0	0.432	to_hand	poldrack-single-stim	s513	False
0.1	10.942	1.372	12.314	0	UA_with_intermediate	practice	ward_and_allport	89	0.0	1.372	to_board	poldrack-single-stim	s513	False
1.0	12.318	2.5	12.317	0	UA_with_intermediate	practice	ward_and_allport	-1	0.0	n/a	feedback	poldrack-single-stim	s513	False
2.679	14.819	2.679	17.498	1	UA_with_intermediate	practice	ward_and_allport	71	1.0	2.679	to_hand	poldrack-single-stim	s513	False
0.1	17.5	1.813	19.313	0	UA_with_intermediate	practice	ward_and_allport	71	1.0	1.813	to_board	poldrack-single-stim	s513	False
0.1	19.315	1.15	20.465	0	UA_with_intermediate	practice	ward_and_allport	89	1.0	1.15	to_hand	poldrack-single-stim	s513	False
0.1	20.466	0.394	20.86	0	UA_with_intermediate	practice	ward_and_allport	82	1.0	0.394	to_board	poldrack-single-stim	s513	False
0.1	20.862	1.015	21.877	0	UA_with_intermediate	practice	ward_and_allport	71	1.0	1.015	to_hand	poldrack-single-stim	s513	False
0.1	21.878	0.3	22.178	0	UA_with_intermediate	practice	ward_and_allport	89	1.0	0.3	to_board	poldrack-single-stim	s513	False
0.1	22.179	0.458	22.637	0	UA_with_intermediate	practice	ward_and_allport	82	1.0	0.458	to_hand	poldrack-single-stim	s513	False
0.1	22.638	0.334	22.972	0	UA_with_intermediate	practice	ward_and_allport	89	1.0	0.334	to_board	poldrack-single-stim	s513	False
1.0	22.975	2.1	22.974	0	UA_with_intermediate	practice	ward_and_allport	-1	1.0	n/a	feedback	poldrack-single-stim	s513	False
3.407	25.077	3.407	28.484	1	UA_without_intermediate	practice	ward_and_allport	82	2.0	3.407	to_hand	poldrack-single-stim	s513	False
0.1	28.484	0.386	28.87	0	UA_without_intermediate	practice	ward_and_allport	89	2.0	0.386	to_board	poldrack-single-stim	s513	False
0.1	28.874	0.829	29.703	0	UA_without_intermediate	practice	ward_and_allport	71	2.0	0.829	to_hand	poldrack-single-stim	s513	False
0.1	29.703	0.26	29.963	0	UA_without_intermediate	practice	ward_and_allport	89	2.0	0.26	to_board	poldrack-single-stim	s513	False
0.1	29.965	0.587	30.552	0	UA_without_intermediate	practice	ward_and_allport	71	2.0	0.587	to_hand	poldrack-single-stim	s513	False
0.1	30.553	0.22	30.773	0	UA_without_intermediate	practice	ward_and_allport	89	2.0	0.22	to_board	poldrack-single-stim	s513	False
1.0	30.776	2.2	30.775	0	UA_without_intermediate	practice	ward_and_allport	-1	2.0	n/a	feedback	poldrack-single-stim	s513	False
1.889	32.977	1.889	34.866	1	UA_without_intermediate	practice	ward_and_allport	71	3.0	1.889	to_hand	poldrack-single-stim	s513	False
0.1	34.867	0.379	35.246	0	UA_without_intermediate	practice	ward_and_allport	89	3.0	0.379	to_board	poldrack-single-stim	s513	False
0.1	35.247	1.44	36.687	0	UA_without_intermediate	practice	ward_and_allport	82	3.0	1.44	to_hand	poldrack-single-stim	s513	False
0.1	36.689	0.373	37.062	0	UA_without_intermediate	practice	ward_and_allport	89	3.0	0.373	to_board	poldrack-single-stim	s513	False
0.1	37.063	0.721	37.784	0	UA_without_intermediate	practice	ward_and_allport	71	3.0	0.721	to_hand	poldrack-single-stim	s513	False
0.1	37.785	0.191	37.976	0	UA_without_intermediate	practice	ward_and_allport	89	3.0	0.191	to_board	poldrack-single-stim	s513	False
1.0	37.979	2.0	37.978	0	UA_without_intermediate	practice	ward_and_allport	-1	3.0	n/a	feedback	poldrack-single-stim	s513	False
6.245	41.984	6.245	48.229	1	PA_with_intermediate	test	ward_and_allport	89	0.0	6.245	to_hand	poldrack-single-stim	s513	False
0.1	48.23	0.623	48.853	0	PA_with_intermediate	test	ward_and_allport	71	0.0	0.623	to_board	poldrack-single-stim	s513	False
0.1	48.855	0.934	49.789	0	PA_with_intermediate	test	ward_and_allport	89	0.0	0.934	to_hand	poldrack-single-stim	s513	False
0.1	49.79	0.307	50.097	0	PA_with_intermediate	test	ward_and_allport	82	0.0	0.307	to_board	poldrack-single-stim	s513	False
0.1	50.099	0.62	50.719	0	PA_with_intermediate	test	ward_and_allport	71	0.0	0.62	to_hand	poldrack-single-stim	s513	False
0.1	50.719	0.211	50.93	0	PA_with_intermediate	test	ward_and_allport	89	0.0	0.211	to_board	poldrack-single-stim	s513	False
1.0	50.934	4.176	50.933	0	PA_with_intermediate	test	ward_and_allport	-1	0.0	n/a	feedback	poldrack-single-stim	s513	False
2.71	55.113	2.71	57.823	1	PA_with_intermediate	test	ward_and_allport	71	1.0	2.71	to_hand	poldrack-single-stim	s513	False
0.1	57.824	0.692	58.516	0	PA_with_intermediate	test	ward_and_allport	82	1.0	0.692	to_board	poldrack-single-stim	s513	False
0.1	58.519	0.807	59.326	0	PA_with_intermediate	test	ward_and_allport	71	1.0	0.807	to_hand	poldrack-single-stim	s513	False
0.1	59.328	0.312	59.64	0	PA_with_intermediate	test	ward_and_allport	89	1.0	0.312	to_board	poldrack-single-stim	s513	False
0.1	59.642	0.555	60.197	0	PA_with_intermediate	test	ward_and_allport	82	1.0	0.555	to_hand	poldrack-single-stim	s513	False
0.1	60.199	0.3	60.499	0	PA_with_intermediate	test	ward_and_allport	71	1.0	0.3	to_board	poldrack-single-stim	s513	False
1.0	60.503	3.36	60.502	0	PA_with_intermediate	test	ward_and_allport	-1	1.0	n/a	feedback	poldrack-single-stim	s513	False
2.881	63.865	2.881	66.746	1	PA_with_intermediate	test	ward_and_allport	71	2.0	2.881	to_hand	poldrack-single-stim	s513	False
0.1	66.746	0.515	67.261	0	PA_with_intermediate	test	ward_and_allport	89	2.0	0.515	to_board	poldrack-single-stim	s513	False
0.1	67.265	0.637	67.902	0	PA_with_intermediate	test	ward_and_allport	71	2.0	0.637	to_hand	poldrack-single-stim	s513	False
0.1	67.903	0.379	68.282	0	PA_with_intermediate	test	ward_and_allport	82	2.0	0.379	to_board	poldrack-single-stim	s513	False
0.1	68.284	0.44	68.724	0	PA_with_intermediate	test	ward_and_allport	89	2.0	0.44	to_hand	poldrack-single-stim	s513	False
0.1	68.725	0.557	69.282	0	PA_with_intermediate	test	ward_and_allport	82	2.0	0.557	to_board	poldrack-single-stim	s513	False
1.0	69.286	2.0	69.285	0	PA_with_intermediate	test	ward_and_allport	-1	2.0	n/a	feedback	poldrack-single-stim	s513	False
2.482	71.288	2.482	73.77	1	PA_without_intermediate	test	ward_and_allport	71	3.0	2.482	to_hand	poldrack-single-stim	s513	False
0.1	73.772	0.352	74.124	0	PA_without_intermediate	test	ward_and_allport	89	3.0	0.352	to_board	poldrack-single-stim	s513	False
0.1	74.125	0.784	74.909	0	PA_without_intermediate	test	ward_and_allport	71	3.0	0.784	to_hand	poldrack-single-stim	s513	False
0.1	74.911	0.309	75.22	0	PA_without_intermediate	test	ward_and_allport	82	3.0	0.309	to_board	poldrack-single-stim	s513	False
0.1	75.221	0.904	76.125	0	PA_without_intermediate	test	ward_and_allport	71	3.0	0.904	to_hand	poldrack-single-stim	s513	False
0.1	76.127	0.242	76.369	0	PA_without_intermediate	test	ward_and_allport	89	3.0	0.242	to_board	poldrack-single-stim	s513	False
1.0	76.373	2.408	76.372	0	PA_without_intermediate	test	ward_and_allport	-1	3.0	n/a	feedback	poldrack-single-stim	s513	False
3.43	78.782	3.43	82.212	1	PA_with_intermediate	test	ward_and_allport	89	4.0	3.43	to_hand	poldrack-single-stim	s513	False
0.1	82.214	0.267	82.481	0	PA_with_intermediate	test	ward_and_allport	71	4.0	0.267	to_board	poldrack-single-stim	s513	False
0.1	82.484	0.857	83.341	0	PA_with_intermediate	test	ward_and_allport	89	4.0	0.857	to_hand	poldrack-single-stim	s513	False
0.1	83.342	0.5	83.842	0	PA_with_intermediate	test	ward_and_allport	82	4.0	0.5	to_board	poldrack-single-stim	s513	False
0.1	83.845	0.449	84.294	0	PA_with_intermediate	test	ward_and_allport	71	4.0	0.449	to_hand	poldrack-single-stim	s513	False
0.1	84.295	0.277	84.572	0	PA_with_intermediate	test	ward_and_allport	89	4.0	0.277	to_board	poldrack-single-stim	s513	False
1.0	84.576	2.816	84.575	0	PA_with_intermediate	test	ward_and_allport	-1	4.0	n/a	feedback	poldrack-single-stim	s513	False
3.42	87.396	3.42	90.816	1	PA_without_intermediate	test	ward_and_allport	82	5.0	3.42	to_hand	poldrack-single-stim	s513	False
0.1	90.816	0.851	91.667	0	PA_without_intermediate	test	ward_and_allport	71	5.0	0.851	to_board	poldrack-single-stim	s513	False
0.1	91.67	1.871	93.541	0	PA_without_intermediate	test	ward_and_allport	82	5.0	1.871	to_hand	poldrack-single-stim	s513	False
0.1	93.543	0.451	93.994	0	PA_without_intermediate	test	ward_and_allport	71	5.0	0.451	to_board	poldrack-single-stim	s513	False
0.1	93.997	1.103	95.1	0	PA_without_intermediate	test	ward_and_allport	82	5.0	1.103	to_hand	poldrack-single-stim	s513	False
0.1	95.102	0.284	95.386	0	PA_without_intermediate	test	ward_and_allport	89	5.0	0.284	to_board	poldrack-single-stim	s513	False
1.0	95.39	3.088	95.389	0	PA_without_intermediate	test	ward_and_allport	-1	5.0	n/a	feedback	poldrack-single-stim	s513	False
3.863	98.481	3.863	102.344	1	PA_without_intermediate	test	ward_and_allport	71	6.0	3.863	to_hand	poldrack-single-stim	s513	False
0.1	102.345	0.375	102.72	0	PA_without_intermediate	test	ward_and_allport	82	6.0	0.375	to_board	poldrack-single-stim	s513	False
0.1	102.723	2.333	105.056	0	PA_without_intermediate	test	ward_and_allport	71	6.0	2.333	to_hand	poldrack-single-stim	s513	False
0.1	105.057	0.576	105.633	0	PA_without_intermediate	test	ward_and_allport	82	6.0	0.576	to_board	poldrack-single-stim	s513	False
0.1	105.637	0.554	106.191	0	PA_without_intermediate	test	ward_and_allport	71	6.0	0.554	to_hand	poldrack-single-stim	s513	False
0.1	106.191	0.294	106.485	0	PA_without_intermediate	test	ward_and_allport	89	6.0	0.294	to_board	poldrack-single-stim	s513	False
1.0	106.49	2.136	106.489	0	PA_without_intermediate	test	ward_and_allport	-1	6.0	n/a	feedback	poldrack-single-stim	s513	False
2.008	108.629	2.008	110.637	1	PA_without_intermediate	test	ward_and_allport	82	7.0	2.008	to_hand	poldrack-single-stim	s513	False
0.1	110.637	0.376	111.013	0	PA_without_intermediate	test	ward_and_allport	89	7.0	0.376	to_board	poldrack-single-stim	s513	False
0.1	111.017	1.211	112.228	0	PA_without_intermediate	test	ward_and_allport	82	7.0	1.211	to_hand	poldrack-single-stim	s513	False
0.1	112.229	0.586	112.815	0	PA_without_intermediate	test	ward_and_allport	89	7.0	0.586	to_board	poldrack-single-stim	s513	False
0.1	112.817	1.528	114.345	0	PA_without_intermediate	test	ward_and_allport	82	7.0	1.528	to_hand	poldrack-single-stim	s513	False
0.1	114.346	0.275	114.621	0	PA_without_intermediate	test	ward_and_allport	71	7.0	0.275	to_board	poldrack-single-stim	s513	False
1.0	114.626	7.168	114.625	0	PA_without_intermediate	test	ward_and_allport	-1	7.0	n/a	feedback	poldrack-single-stim	s513	False
1.693	121.797	1.693	123.49	1	PA_without_intermediate	test	ward_and_allport	82	8.0	1.693	to_hand	poldrack-single-stim	s513	False
0.1	123.491	0.496	123.987	0	PA_without_intermediate	test	ward_and_allport	89	8.0	0.496	to_board	poldrack-single-stim	s513	False
0.1	123.991	2.4	126.391	0	PA_without_intermediate	test	ward_and_allport	82	8.0	2.4	to_hand	poldrack-single-stim	s513	False
0.1	126.391	0.482	126.873	0	PA_without_intermediate	test	ward_and_allport	71	8.0	0.482	to_board	poldrack-single-stim	s513	False
0.1	126.877	1.098	127.975	0	PA_without_intermediate	test	ward_and_allport	82	8.0	1.098	to_hand	poldrack-single-stim	s513	False
0.1	127.976	0.351	128.327	0	PA_without_intermediate	test	ward_and_allport	89	8.0	0.351	to_board	poldrack-single-stim	s513	False
1.0	128.332	2.816	128.331	0	PA_without_intermediate	test	ward_and_allport	-1	8.0	n/a	feedback	poldrack-single-stim	s513	False
2.05	131.151	2.05	133.201	1	PA_with_intermediate	test	ward_and_allport	82	9.0	2.05	to_hand	poldrack-single-stim	s513	False
0.1	133.202	0.495	133.697	0	PA_with_intermediate	test	ward_and_allport	71	9.0	0.495	to_board	poldrack-single-stim	s513	False
0.1	133.7	2.665	136.365	0	PA_with_intermediate	test	ward_and_allport	71	9.0	2.665	to_hand	poldrack-single-stim	s513	False
0.1	136.366	0.559	136.925	0	PA_with_intermediate	test	ward_and_allport	89	9.0	0.559	to_board	poldrack-single-stim	s513	False
0.1	136.929	0.668	137.597	0	PA_with_intermediate	test	ward_and_allport	82	9.0	0.668	to_hand	poldrack-single-stim	s513	False
0.1	137.599	0.304	137.903	0	PA_with_intermediate	test	ward_and_allport	71	9.0	0.304	to_board	poldrack-single-stim	s513	False
0.1	137.906	0.296	138.202	0	PA_with_intermediate	test	ward_and_allport	89	9.0	0.296	to_hand	poldrack-single-stim	s513	False
0.1	138.203	0.298	138.501	0	PA_with_intermediate	test	ward_and_allport	71	9.0	0.298	to_board	poldrack-single-stim	s513	False
1.0	138.507	2.952	138.506	0	PA_with_intermediate	test	ward_and_allport	-1	9.0	n/a	feedback	poldrack-single-stim	s513	False
2.839	141.463	2.839	144.302	1	PA_with_intermediate	test	ward_and_allport	71	10.0	2.839	to_hand	poldrack-single-stim	s513	False
0.1	144.303	0.342	144.645	0	PA_with_intermediate	test	ward_and_allport	82	10.0	0.342	to_board	poldrack-single-stim	s513	False
0.1	144.649	0.496	145.145	0	PA_with_intermediate	test	ward_and_allport	71	10.0	0.496	to_hand	poldrack-single-stim	s513	False
0.1	145.146	0.335	145.481	0	PA_with_intermediate	test	ward_and_allport	89	10.0	0.335	to_board	poldrack-single-stim	s513	False
0.1	145.485	0.46	145.945	0	PA_with_intermediate	test	ward_and_allport	82	10.0	0.46	to_hand	poldrack-single-stim	s513	False
0.1	145.947	0.263	146.21	0	PA_with_intermediate	test	ward_and_allport	71	10.0	0.263	to_board	poldrack-single-stim	s513	False
1.0	146.215	2.136	146.214	0	PA_with_intermediate	test	ward_and_allport	-1	10.0	n/a	feedback	poldrack-single-stim	s513	False
1.546	148.355	1.546	149.901	1	PA_without_intermediate	test	ward_and_allport	71	11.0	1.546	to_hand	poldrack-single-stim	s513	False
0.1	149.902	0.205	150.107	0	PA_without_intermediate	test	ward_and_allport	89	11.0	0.205	to_board	poldrack-single-stim	s513	False
0.1	150.112	1.281	151.393	0	PA_without_intermediate	test	ward_and_allport	71	11.0	1.281	to_hand	poldrack-single-stim	s513	False
0.1	151.394	0.346	151.74	0	PA_without_intermediate	test	ward_and_allport	82	11.0	0.346	to_board	poldrack-single-stim	s513	False
0.1	151.744	0.319	152.063	0	PA_without_intermediate	test	ward_and_allport	71	11.0	0.319	to_hand	poldrack-single-stim	s513	False
0.1	152.064	0.39	152.454	0	PA_without_intermediate	test	ward_and_allport	89	11.0	0.39	to_board	poldrack-single-stim	s513	False
1.0	152.46	2.68	152.459	0	PA_without_intermediate	test	ward_and_allport	-1	11.0	n/a	feedback	poldrack-single-stim	s513	False
3.113	155.143	3.113	158.256	1	PA_without_intermediate	test	ward_and_allport	89	12.0	3.113	to_hand	poldrack-single-stim	s513	False
0.1	158.257	0.265	158.522	0	PA_without_intermediate	test	ward_and_allport	71	12.0	0.265	to_board	poldrack-single-stim	s513	False
0.1	158.527	1.325	159.852	0	PA_without_intermediate	test	ward_and_allport	89	12.0	1.325	to_hand	poldrack-single-stim	s513	False
0.1	159.852	0.28	160.132	0	PA_without_intermediate	test	ward_and_allport	71	12.0	0.28	to_board	poldrack-single-stim	s513	False
0.1	160.137	0.573	160.71	0	PA_without_intermediate	test	ward_and_allport	89	12.0	0.573	to_hand	poldrack-single-stim	s513	False
0.1	160.71	0.375	161.085	0	PA_without_intermediate	test	ward_and_allport	82	12.0	0.375	to_board	poldrack-single-stim	s513	False
1.0	161.091	3.088	161.09	0	PA_without_intermediate	test	ward_and_allport	-1	12.0	n/a	feedback	poldrack-single-stim	s513	False
1.548	164.183	1.548	165.731	1	PA_with_intermediate	test	ward_and_allport	82	13.0	1.548	to_hand	poldrack-single-stim	s513	False
0.1	165.734	0.282	166.016	0	PA_with_intermediate	test	ward_and_allport	89	13.0	0.282	to_board	poldrack-single-stim	s513	False
0.1	166.019	0.926	166.945	0	PA_with_intermediate	test	ward_and_allport	89	13.0	0.926	to_hand	poldrack-single-stim	s513	False
0.1	166.946	0.317	167.263	0	PA_with_intermediate	test	ward_and_allport	71	13.0	0.317	to_board	poldrack-single-stim	s513	False
0.1	167.267	2.408	169.675	0	PA_with_intermediate	test	ward_and_allport	71	13.0	2.408	to_hand	poldrack-single-stim	s513	False
0.1	169.677	0.382	170.059	0	PA_with_intermediate	test	ward_and_allport	89	13.0	0.382	to_board	poldrack-single-stim	s513	False
0.1	170.062	1.373	171.435	0	PA_with_intermediate	test	ward_and_allport	82	13.0	1.373	to_hand	poldrack-single-stim	s513	False
0.1	171.436	0.751	172.187	0	PA_with_intermediate	test	ward_and_allport	71	13.0	0.751	to_board	poldrack-single-stim	s513	False
0.1	172.191	0.446	172.637	0	PA_with_intermediate	test	ward_and_allport	89	13.0	0.446	to_hand	poldrack-single-stim	s513	False
0.1	172.638	0.329	172.967	0	PA_with_intermediate	test	ward_and_allport	71	13.0	0.329	to_board	poldrack-single-stim	s513	False
1.0	172.973	2.0	172.972	0	PA_with_intermediate	test	ward_and_allport	-1	13.0	n/a	feedback	poldrack-single-stim	s513	False
1.786	174.978	1.786	176.764	1	PA_without_intermediate	test	ward_and_allport	71	14.0	1.786	to_hand	poldrack-single-stim	s513	False
0.1	176.765	0.396	177.161	0	PA_without_intermediate	test	ward_and_allport	82	14.0	0.396	to_board	poldrack-single-stim	s513	False
0.1	177.166	1.458	178.624	0	PA_without_intermediate	test	ward_and_allport	71	14.0	1.458	to_hand	poldrack-single-stim	s513	False
0.1	178.625	0.345	178.97	0	PA_without_intermediate	test	ward_and_allport	82	14.0	0.345	to_board	poldrack-single-stim	s513	False
0.1	178.975	1.301	180.276	0	PA_without_intermediate	test	ward_and_allport	71	14.0	1.301	to_hand	poldrack-single-stim	s513	False
0.1	180.277	0.21	180.487	0	PA_without_intermediate	test	ward_and_allport	89	14.0	0.21	to_board	poldrack-single-stim	s513	False
1.0	180.491	2.0	180.49	0	PA_without_intermediate	test	ward_and_allport	-1	14.0	n/a	feedback	poldrack-single-stim	s513	False
2.221	187.498	2.221	189.719	1	PA_without_intermediate	test	ward_and_allport	82	15.0	2.221	to_hand	poldrack-single-stim	s513	False
0.1	189.721	0.242	189.963	0	PA_without_intermediate	test	ward_and_allport	89	15.0	0.242	to_board	poldrack-single-stim	s513	False
0.1	189.967	2.197	192.164	0	PA_without_intermediate	test	ward_and_allport	82	15.0	2.197	to_hand	poldrack-single-stim	s513	False
0.1	192.165	0.382	192.547	0	PA_without_intermediate	test	ward_and_allport	89	15.0	0.382	to_board	poldrack-single-stim	s513	False
0.1	192.551	1.169	193.72	0	PA_without_intermediate	test	ward_and_allport	82	15.0	1.169	to_hand	poldrack-single-stim	s513	False
0.1	193.721	0.157	193.878	0	PA_without_intermediate	test	ward_and_allport	71	15.0	0.157	to_board	poldrack-single-stim	s513	False
1.0	193.883	2.0	193.882	0	PA_without_intermediate	test	ward_and_allport	-1	15.0	n/a	feedback	poldrack-single-stim	s513	False
2.949	195.887	2.949	198.836	1	PA_with_intermediate	test	ward_and_allport	82	16.0	2.949	to_hand	poldrack-single-stim	s513	False
0.1	198.838	0.858	199.696	0	PA_with_intermediate	test	ward_and_allport	71	16.0	0.858	to_board	poldrack-single-stim	s513	False
0.1	199.701	0.544	200.245	0	PA_with_intermediate	test	ward_and_allport	82	16.0	0.544	to_hand	poldrack-single-stim	s513	False
0.1	200.245	0.411	200.656	0	PA_with_intermediate	test	ward_and_allport	89	16.0	0.411	to_board	poldrack-single-stim	s513	False
0.1	200.661	0.657	201.318	0	PA_with_intermediate	test	ward_and_allport	71	16.0	0.657	to_hand	poldrack-single-stim	s513	False
0.1	201.319	0.25	201.569	0	PA_with_intermediate	test	ward_and_allport	89	16.0	0.25	to_board	poldrack-single-stim	s513	False
1.0	201.574	2.544	201.573	0	PA_with_intermediate	test	ward_and_allport	-1	16.0	n/a	feedback	poldrack-single-stim	s513	False
1.754	204.123	1.754	205.877	1	PA_without_intermediate	test	ward_and_allport	89	17.0	1.754	to_hand	poldrack-single-stim	s513	False
0.1	205.878	0.273	206.151	0	PA_without_intermediate	test	ward_and_allport	71	17.0	0.273	to_board	poldrack-single-stim	s513	False
0.1	206.156	0.942	207.098	0	PA_without_intermediate	test	ward_and_allport	89	17.0	0.942	to_hand	poldrack-single-stim	s513	False
0.1	207.099	0.241	207.34	0	PA_without_intermediate	test	ward_and_allport	82	17.0	0.241	to_board	poldrack-single-stim	s513	False
0.1	207.344	0.715	208.059	0	PA_without_intermediate	test	ward_and_allport	89	17.0	0.715	to_hand	poldrack-single-stim	s513	False
0.1	208.06	0.206	208.266	0	PA_without_intermediate	test	ward_and_allport	71	17.0	0.206	to_board	poldrack-single-stim	s513	False
1.0	208.272	2.272	208.271	0	PA_without_intermediate	test	ward_and_allport	-1	17.0	n/a	feedback	poldrack-single-stim	s513	False
3.76	210.549	3.76	214.309	1	PA_with_intermediate	test	ward_and_allport	89	18.0	3.76	to_hand	poldrack-single-stim	s513	False
0.1	214.309	0.747	215.056	0	PA_with_intermediate	test	ward_and_allport	82	18.0	0.747	to_board	poldrack-single-stim	s513	False
0.1	215.061	0.845	215.906	0	PA_with_intermediate	test	ward_and_allport	89	18.0	0.845	to_hand	poldrack-single-stim	s513	False
0.1	215.906	0.275	216.181	0	PA_with_intermediate	test	ward_and_allport	71	18.0	0.275	to_board	poldrack-single-stim	s513	False
0.1	216.187	0.568	216.755	0	PA_with_intermediate	test	ward_and_allport	82	18.0	0.568	to_hand	poldrack-single-stim	s513	False
0.1	216.756	0.209	216.965	0	PA_with_intermediate	test	ward_and_allport	71	18.0	0.209	to_board	poldrack-single-stim	s513	False
1.0	216.971	4.04	216.97	0	PA_with_intermediate	test	ward_and_allport	-1	18.0	n/a	feedback	poldrack-single-stim	s513	False
1.83	221.015	1.83	222.845	1	PA_with_intermediate	test	ward_and_allport	82	19.0	1.83	to_hand	poldrack-single-stim	s513	False
0.1	222.846	1.469	224.315	0	PA_with_intermediate	test	ward_and_allport	71	19.0	1.469	to_board	poldrack-single-stim	s513	False
0.1	224.321	1.041	225.362	0	PA_with_intermediate	test	ward_and_allport	71	19.0	1.041	to_hand	poldrack-single-stim	s513	False
0.1	225.362	1.411	226.773	0	PA_with_intermediate	test	ward_and_allport	89	19.0	1.411	to_board	poldrack-single-stim	s513	False
0.1	226.778	0.335	227.113	0	PA_with_intermediate	test	ward_and_allport	82	19.0	0.335	to_hand	poldrack-single-stim	s513	False
0.1	227.114	0.773	227.887	0	PA_with_intermediate	test	ward_and_allport	71	19.0	0.773	to_board	poldrack-single-stim	s513	False
0.1	227.892	0.441	228.333	0	PA_with_intermediate	test	ward_and_allport	89	19.0	0.441	to_hand	poldrack-single-stim	s513	False
0.1	228.334	0.716	229.05	0	PA_with_intermediate	test	ward_and_allport	82	19.0	0.716	to_board	poldrack-single-stim	s513	False
1.0	229.057	2.272	229.056	0	PA_with_intermediate	test	ward_and_allport	-1	19.0	n/a	feedback	poldrack-single-stim	s513	False
2.064	231.334	2.064	233.398	1	PA_with_intermediate	test	ward_and_allport	71	20.0	2.064	to_hand	poldrack-single-stim	s513	False
0.1	233.399	0.374	233.773	0	PA_with_intermediate	test	ward_and_allport	89	20.0	0.374	to_board	poldrack-single-stim	s513	False
0.1	233.777	0.52	234.297	0	PA_with_intermediate	test	ward_and_allport	71	20.0	0.52	to_hand	poldrack-single-stim	s513	False
0.1	234.299	0.375	234.674	0	PA_with_intermediate	test	ward_and_allport	82	20.0	0.375	to_board	poldrack-single-stim	s513	False
0.1	234.678	0.29	234.968	0	PA_with_intermediate	test	ward_and_allport	89	20.0	0.29	to_hand	poldrack-single-stim	s513	False
0.1	234.97	0.32	235.29	0	PA_with_intermediate	test	ward_and_allport	71	20.0	0.32	to_board	poldrack-single-stim	s513	False
1.0	235.297	2.136	235.296	0	PA_with_intermediate	test	ward_and_allport	-1	20.0	n/a	feedback	poldrack-single-stim	s513	False
2.367	237.439	2.367	239.806	1	PA_with_intermediate	test	ward_and_allport	89	21.0	2.367	to_hand	poldrack-single-stim	s513	False
0.1	239.807	0.603	240.41	0	PA_with_intermediate	test	ward_and_allport	82	21.0	0.603	to_board	poldrack-single-stim	s513	False
0.1	240.416	0.573	240.989	0	PA_with_intermediate	test	ward_and_allport	89	21.0	0.573	to_hand	poldrack-single-stim	s513	False
0.1	240.99	0.291	241.281	0	PA_with_intermediate	test	ward_and_allport	71	21.0	0.291	to_board	poldrack-single-stim	s513	False
0.1	241.288	0.455	241.743	0	PA_with_intermediate	test	ward_and_allport	82	21.0	0.455	to_hand	poldrack-single-stim	s513	False
0.1	241.744	0.196	241.94	0	PA_with_intermediate	test	ward_and_allport	71	21.0	0.196	to_board	poldrack-single-stim	s513	False
0.1	241.946	0.048	241.994	0	PA_with_intermediate	test	ward_and_allport	89	21.0	0.048	to_hand	poldrack-single-stim	s513	False
0.1	241.995	1.394	243.389	0	PA_with_intermediate	test	ward_and_allport	89	21.0	1.394	to_board	poldrack-single-stim	s513	False
0.1	243.395	1.036	244.431	0	PA_with_intermediate	test	ward_and_allport	71	21.0	1.036	to_hand	poldrack-single-stim	s513	False
0.1	244.432	1.375	245.807	0	PA_with_intermediate	test	ward_and_allport	89	21.0	1.375	to_board	poldrack-single-stim	s513	False
1.0	245.814	2.0	245.813	0	PA_with_intermediate	test	ward_and_allport	-1	21.0	n/a	feedback	poldrack-single-stim	s513	False
3.174	247.821	3.174	250.995	1	PA_with_intermediate	test	ward_and_allport	89	22.0	3.174	to_hand	poldrack-single-stim	s513	False
0.1	250.995	0.474	251.469	0	PA_with_intermediate	test	ward_and_allport	82	22.0	0.474	to_board	poldrack-single-stim	s513	False
0.1	251.475	0.384	251.859	0	PA_with_intermediate	test	ward_and_allport	89	22.0	0.384	to_hand	poldrack-single-stim	s513	False
0.1	251.86	0.43	252.29	0	PA_with_intermediate	test	ward_and_allport	71	22.0	0.43	to_board	poldrack-single-stim	s513	False
0.1	252.296	0.598	252.894	0	PA_with_intermediate	test	ward_and_allport	82	22.0	0.598	to_hand	poldrack-single-stim	s513	False
0.1	252.895	0.397	253.292	0	PA_with_intermediate	test	ward_and_allport	71	22.0	0.397	to_board	poldrack-single-stim	s513	False
1.0	253.3	2.0	253.299	0	PA_with_intermediate	test	ward_and_allport	-1	22.0	n/a	feedback	poldrack-single-stim	s513	False
2.908	255.307	2.908	258.215	1	PA_without_intermediate	test	ward_and_allport	82	23.0	2.908	to_hand	poldrack-single-stim	s513	False
0.1	258.216	0.784	259.0	0	PA_without_intermediate	test	ward_and_allport	71	23.0	0.784	to_board	poldrack-single-stim	s513	False
0.1	259.005	2.123	261.128	0	PA_without_intermediate	test	ward_and_allport	82	23.0	2.123	to_hand	poldrack-single-stim	s513	False
0.1	261.129	0.244	261.373	0	PA_without_intermediate	test	ward_and_allport	89	23.0	0.244	to_board	poldrack-single-stim	s513	False
0.1	261.38	2.762	264.142	0	PA_without_intermediate	test	ward_and_allport	82	23.0	2.762	to_hand	poldrack-single-stim	s513	False
0.1	264.142	0.241	264.383	0	PA_without_intermediate	test	ward_and_allport	71	23.0	0.241	to_board	poldrack-single-stim	s513	False
1.0	264.391	2.408	264.39	0	PA_without_intermediate	test	ward_and_allport	-1	23.0	n/a	feedback	poldrack-single-stim	s513	False
1.244	266.806	1.244	268.05	1	PA_with_intermediate	test	ward_and_allport	89	24.0	1.244	to_hand	poldrack-single-stim	s513	False
0.1	268.05	1.74	269.79	0	PA_with_intermediate	test	ward_and_allport	71	24.0	1.74	to_board	poldrack-single-stim	s513	False
0.1	269.796	0.314	270.11	0	PA_with_intermediate	test	ward_and_allport	89	24.0	0.314	to_hand	poldrack-single-stim	s513	False
0.1	270.112	0.378	270.49	0	PA_with_intermediate	test	ward_and_allport	82	24.0	0.378	to_board	poldrack-single-stim	s513	False
0.1	270.496	0.553	271.049	0	PA_with_intermediate	test	ward_and_allport	71	24.0	0.553	to_hand	poldrack-single-stim	s513	False
0.1	271.051	0.504	271.555	0	PA_with_intermediate	test	ward_and_allport	82	24.0	0.504	to_board	poldrack-single-stim	s513	False
1.0	271.563	3.768	271.562	0	PA_with_intermediate	test	ward_and_allport	-1	24.0	n/a	feedback	poldrack-single-stim	s513	False
2.355	275.337	2.355	277.692	1	PA_with_intermediate	test	ward_and_allport	71	25.0	2.355	to_hand	poldrack-single-stim	s513	False
0.1	277.692	0.347	278.039	0	PA_with_intermediate	test	ward_and_allport	82	25.0	0.347	to_board	poldrack-single-stim	s513	False
0.1	278.046	0.416	278.462	0	PA_with_intermediate	test	ward_and_allport	71	25.0	0.416	to_hand	poldrack-single-stim	s513	False
0.1	278.463	0.282	278.745	0	PA_with_intermediate	test	ward_and_allport	89	25.0	0.282	to_board	poldrack-single-stim	s513	False
0.1	278.751	0.372	279.123	0	PA_with_intermediate	test	ward_and_allport	82	25.0	0.372	to_hand	poldrack-single-stim	s513	False
0.1	279.124	0.37	279.494	0	PA_with_intermediate	test	ward_and_allport	89	25.0	0.37	to_board	poldrack-single-stim	s513	False
1.0	279.502	2.68	279.501	0	PA_with_intermediate	test	ward_and_allport	-1	25.0	n/a	feedback	poldrack-single-stim	s513	False
2.207	282.189	2.207	284.396	1	PA_without_intermediate	test	ward_and_allport	89	26.0	2.207	to_hand	poldrack-single-stim	s513	False
0.1	284.397	0.845	285.242	0	PA_without_intermediate	test	ward_and_allport	71	26.0	0.845	to_board	poldrack-single-stim	s513	False
0.1	285.249	1.011	286.26	0	PA_without_intermediate	test	ward_and_allport	89	26.0	1.011	to_hand	poldrack-single-stim	s513	False
0.1	286.26	0.224	286.484	0	PA_without_intermediate	test	ward_and_allport	71	26.0	0.224	to_board	poldrack-single-stim	s513	False
0.1	286.491	0.544	287.035	0	PA_without_intermediate	test	ward_and_allport	89	26.0	0.544	to_hand	poldrack-single-stim	s513	False
0.1	287.036	0.259	287.295	0	PA_without_intermediate	test	ward_and_allport	82	26.0	0.259	to_board	poldrack-single-stim	s513	False
1.0	287.304	3.224	287.303	0	PA_without_intermediate	test	ward_and_allport	-1	26.0	n/a	feedback	poldrack-single-stim	s513	False
1.339	290.535	1.339	291.874	1	PA_without_intermediate	test	ward_and_allport	89	27.0	1.339	to_hand	poldrack-single-stim	s513	False
0.1	291.875	0.235	292.11	0	PA_without_intermediate	test	ward_and_allport	82	27.0	0.235	to_board	poldrack-single-stim	s513	False
0.1	292.117	0.975	293.092	0	PA_without_intermediate	test	ward_and_allport	89	27.0	0.975	to_hand	poldrack-single-stim	s513	False
0.1	293.093	0.255	293.348	0	PA_without_intermediate	test	ward_and_allport	82	27.0	0.255	to_board	poldrack-single-stim	s513	False
0.1	293.354	1.034	294.388	0	PA_without_intermediate	test	ward_and_allport	89	27.0	1.034	to_hand	poldrack-single-stim	s513	False
0.1	294.39	0.319	294.709	0	PA_without_intermediate	test	ward_and_allport	71	27.0	0.319	to_board	poldrack-single-stim	s513	False
1.0	294.717	3.36	294.716	0	PA_without_intermediate	test	ward_and_allport	-1	27.0	n/a	feedback	poldrack-single-stim	s513	False
1.12	298.086	1.12	299.206	1	PA_without_intermediate	test	ward_and_allport	89	28.0	1.12	to_hand	poldrack-single-stim	s513	False
0.1	299.207	0.252	299.459	0	PA_without_intermediate	test	ward_and_allport	82	28.0	0.252	to_board	poldrack-single-stim	s513	False
0.1	299.466	0.954	300.42	0	PA_without_intermediate	test	ward_and_allport	89	28.0	0.954	to_hand	poldrack-single-stim	s513	False
0.1	300.422	0.294	300.716	0	PA_without_intermediate	test	ward_and_allport	71	28.0	0.294	to_board	poldrack-single-stim	s513	False
0.1	300.723	0.246	300.969	0	PA_without_intermediate	test	ward_and_allport	89	28.0	0.246	to_hand	poldrack-single-stim	s513	False
0.1	300.97	0.283	301.253	0	PA_without_intermediate	test	ward_and_allport	71	28.0	0.283	to_board	poldrack-single-stim	s513	False
0.1	301.261	0.875	302.136	0	PA_without_intermediate	test	ward_and_allport	71	28.0	0.875	to_hand	poldrack-single-stim	s513	False
0.1	302.138	0.321	302.459	0	PA_without_intermediate	test	ward_and_allport	82	28.0	0.321	to_board	poldrack-single-stim	s513	False
1.0	302.468	2.0	302.467	0	PA_without_intermediate	test	ward_and_allport	-1	28.0	n/a	feedback	poldrack-single-stim	s513	False
2.363	304.475	2.363	306.838	1	PA_without_intermediate	test	ward_and_allport	71	29.0	2.363	to_hand	poldrack-single-stim	s513	False
0.1	306.84	0.18	307.02	0	PA_without_intermediate	test	ward_and_allport	89	29.0	0.18	to_board	poldrack-single-stim	s513	False
0.1	307.026	2.101	309.127	0	PA_without_intermediate	test	ward_and_allport	71	29.0	2.101	to_hand	poldrack-single-stim	s513	False
0.1	309.128	0.17	309.298	0	PA_without_intermediate	test	ward_and_allport	89	29.0	0.17	to_board	poldrack-single-stim	s513	False
0.1	309.305	1.442	310.747	0	PA_without_intermediate	test	ward_and_allport	71	29.0	1.442	to_hand	poldrack-single-stim	s513	False
0.1	310.748	0.231	310.979	0	PA_without_intermediate	test	ward_and_allport	82	29.0	0.231	to_board	poldrack-single-stim	s513	False
1.0	310.988	2.408	310.987	0	PA_without_intermediate	test	ward_and_allport	-1	29.0	n/a	feedback	poldrack-single-stim	s513	False
2.837	318.408	2.837	321.245	1	PA_with_intermediate	test	ward_and_allport	89	30.0	2.837	to_hand	poldrack-single-stim	s513	False
0.1	321.246	1.131	322.377	0	PA_with_intermediate	test	ward_and_allport	82	30.0	1.131	to_board	poldrack-single-stim	s513	False
0.1	322.386	2.1	324.486	0	PA_with_intermediate	test	ward_and_allport	89	30.0	2.1	to_hand	poldrack-single-stim	s513	False
0.1	324.487	0.269	324.756	0	PA_with_intermediate	test	ward_and_allport	71	30.0	0.269	to_board	poldrack-single-stim	s513	False
0.1	324.766	0.641	325.407	0	PA_with_intermediate	test	ward_and_allport	82	30.0	0.641	to_hand	poldrack-single-stim	s513	False
0.1	325.409	0.371	325.78	0	PA_with_intermediate	test	ward_and_allport	89	30.0	0.371	to_board	poldrack-single-stim	s513	False
1.0	325.789	2.136	325.788	0	PA_with_intermediate	test	ward_and_allport	-1	30.0	n/a	feedback	poldrack-single-stim	s513	False
2.089	327.933	2.089	330.022	1	PA_without_intermediate	test	ward_and_allport	71	31.0	2.089	to_hand	poldrack-single-stim	s513	False
0.1	330.023	0.368	330.391	0	PA_without_intermediate	test	ward_and_allport	82	31.0	0.368	to_board	poldrack-single-stim	s513	False
0.1	330.396	1.034	331.43	0	PA_without_intermediate	test	ward_and_allport	71	31.0	1.034	to_hand	poldrack-single-stim	s513	False
0.1	331.431	0.508	331.939	0	PA_without_intermediate	test	ward_and_allport	89	31.0	0.508	to_board	poldrack-single-stim	s513	False
0.1	331.947	0.57	332.517	0	PA_without_intermediate	test	ward_and_allport	71	31.0	0.57	to_hand	poldrack-single-stim	s513	False
0.1	332.518	0.304	332.822	0	PA_without_intermediate	test	ward_and_allport	82	31.0	0.304	to_board	poldrack-single-stim	s513	False
1.0	332.831	5.128	332.83	0	PA_without_intermediate	test	ward_and_allport	-1	31.0	n/a	feedback	poldrack-single-stim	s513	False
1.373	337.968	1.373	339.341	1	PA_without_intermediate	test	ward_and_allport	89	32.0	1.373	to_hand	poldrack-single-stim	s513	False
0.1	339.343	0.262	339.605	0	PA_without_intermediate	test	ward_and_allport	82	32.0	0.262	to_board	poldrack-single-stim	s513	False
0.1	339.614	0.911	340.525	0	PA_without_intermediate	test	ward_and_allport	89	32.0	0.911	to_hand	poldrack-single-stim	s513	False
0.1	340.527	0.299	340.826	0	PA_without_intermediate	test	ward_and_allport	71	32.0	0.299	to_board	poldrack-single-stim	s513	False
0.1	340.833	0.391	341.224	0	PA_without_intermediate	test	ward_and_allport	89	32.0	0.391	to_hand	poldrack-single-stim	s513	False
0.1	341.225	0.367	341.592	0	PA_without_intermediate	test	ward_and_allport	82	32.0	0.367	to_board	poldrack-single-stim	s513	False
1.0	341.603	2.136	341.602	0	PA_without_intermediate	test	ward_and_allport	-1	32.0	n/a	feedback	poldrack-single-stim	s513	False
1.396	343.746	1.396	345.142	1	PA_without_intermediate	test	ward_and_allport	71	33.0	1.396	to_hand	poldrack-single-stim	s513	False
0.1	345.143	0.343	345.486	0	PA_without_intermediate	test	ward_and_allport	89	33.0	0.343	to_board	poldrack-single-stim	s513	False
0.1	345.492	1.867	347.359	0	PA_without_intermediate	test	ward_and_allport	71	33.0	1.867	to_hand	poldrack-single-stim	s513	False
0.1	347.359	0.23	347.589	0	PA_without_intermediate	test	ward_and_allport	89	33.0	0.23	to_board	poldrack-single-stim	s513	False
0.1	347.596	1.257	348.853	0	PA_without_intermediate	test	ward_and_allport	71	33.0	1.257	to_hand	poldrack-single-stim	s513	False
0.1	348.853	0.342	349.195	0	PA_without_intermediate	test	ward_and_allport	82	33.0	0.342	to_board	poldrack-single-stim	s513	False
1.0	349.204	5.264	349.203	0	PA_without_intermediate	test	ward_and_allport	-1	33.0	n/a	feedback	poldrack-single-stim	s513	False
1.486	354.479	1.486	355.965	1	PA_with_intermediate	test	ward_and_allport	71	34.0	1.486	to_hand	poldrack-single-stim	s513	False
0.1	355.966	0.346	356.312	0	PA_with_intermediate	test	ward_and_allport	82	34.0	0.346	to_board	poldrack-single-stim	s513	False
0.1	356.321	1.06	357.381	0	PA_with_intermediate	test	ward_and_allport	71	34.0	1.06	to_hand	poldrack-single-stim	s513	False
0.1	357.383	0.349	357.732	0	PA_with_intermediate	test	ward_and_allport	82	34.0	0.349	to_board	poldrack-single-stim	s513	False
0.1	357.741	6.038	363.779	0	PA_with_intermediate	test	ward_and_allport	71	34.0	6.038	to_hand	poldrack-single-stim	s513	False
0.1	363.78	1.066	364.846	0	PA_with_intermediate	test	ward_and_allport	71	34.0	1.066	to_board	poldrack-single-stim	s513	False
0.1	364.855	0.777	365.632	0	PA_with_intermediate	test	ward_and_allport	82	34.0	0.777	to_hand	poldrack-single-stim	s513	False
0.1	365.634	0.299	365.933	0	PA_with_intermediate	test	ward_and_allport	89	34.0	0.299	to_board	poldrack-single-stim	s513	False
0.1	365.941	1.512	367.453	0	PA_with_intermediate	test	ward_and_allport	82	34.0	1.512	to_hand	poldrack-single-stim	s513	False
0.1	367.454	0.588	368.042	0	PA_with_intermediate	test	ward_and_allport	71	34.0	0.588	to_board	poldrack-single-stim	s513	False
0.1	368.052	0.372	368.424	0	PA_with_intermediate	test	ward_and_allport	89	34.0	0.372	to_hand	poldrack-single-stim	s513	False
0.1	368.425	0.292	368.717	0	PA_with_intermediate	test	ward_and_allport	82	34.0	0.292	to_board	poldrack-single-stim	s513	False
0.1	368.726	0.586	369.312	0	PA_with_intermediate	test	ward_and_allport	71	34.0	0.586	to_hand	poldrack-single-stim	s513	False
0.1	369.313	0.444	369.757	0	PA_with_intermediate	test	ward_and_allport	82	34.0	0.444	to_board	poldrack-single-stim	s513	False
1.0	369.769	4.04	369.768	0	PA_with_intermediate	test	ward_and_allport	-1	34.0	n/a	feedback	poldrack-single-stim	s513	False
5.161	373.817	5.161	378.978	1	PA_with_intermediate	test	ward_and_allport	82	35.0	5.161	to_hand	poldrack-single-stim	s513	False
0.1	378.98	3.83	382.81	0	PA_with_intermediate	test	ward_and_allport	71	35.0	3.83	to_board	poldrack-single-stim	s513	False
0.1	382.819	0.495	383.314	0	PA_with_intermediate	test	ward_and_allport	82	35.0	0.495	to_hand	poldrack-single-stim	s513	False
0.1	383.316	0.402	383.718	0	PA_with_intermediate	test	ward_and_allport	89	35.0	0.402	to_board	poldrack-single-stim	s513	False
0.1	383.728	0.371	384.099	0	PA_with_intermediate	test	ward_and_allport	71	35.0	0.371	to_hand	poldrack-single-stim	s513	False
0.1	384.1	0.328	384.428	0	PA_with_intermediate	test	ward_and_allport	82	35.0	0.328	to_board	poldrack-single-stim	s513	False
1.0	384.438	2.136	384.437	0	PA_with_intermediate	test	ward_and_allport	-1	35.0	n/a	feedback	poldrack-single-stim	s513	False
1.301	386.581	1.301	387.882	1	PA_with_intermediate	test	ward_and_allport	89	36.0	1.301	to_hand	poldrack-single-stim	s513	False
0.1	387.882	0.849	388.731	0	PA_with_intermediate	test	ward_and_allport	71	36.0	0.849	to_board	poldrack-single-stim	s513	False
0.1	388.741	0.364	389.105	0	PA_with_intermediate	test	ward_and_allport	89	36.0	0.364	to_hand	poldrack-single-stim	s513	False
0.1	389.107	0.427	389.534	0	PA_with_intermediate	test	ward_and_allport	82	36.0	0.427	to_board	poldrack-single-stim	s513	False
0.1	389.54	0.612	390.152	0	PA_with_intermediate	test	ward_and_allport	71	36.0	0.612	to_hand	poldrack-single-stim	s513	False
0.1	390.153	0.31	390.463	0	PA_with_intermediate	test	ward_and_allport	82	36.0	0.31	to_board	poldrack-single-stim	s513	False
1.0	390.471	2.408	390.47	0	PA_with_intermediate	test	ward_and_allport	-1	36.0	n/a	feedback	poldrack-single-stim	s513	False
1.076	392.886	1.076	393.962	1	PA_without_intermediate	test	ward_and_allport	89	37.0	1.076	to_hand	poldrack-single-stim	s513	False
0.1	393.963	0.377	394.34	0	PA_without_intermediate	test	ward_and_allport	82	37.0	0.377	to_board	poldrack-single-stim	s513	False
0.1	394.346	0.555	394.901	0	PA_without_intermediate	test	ward_and_allport	89	37.0	0.555	to_hand	poldrack-single-stim	s513	False
0.1	394.903	0.353	395.256	0	PA_without_intermediate	test	ward_and_allport	82	37.0	0.353	to_board	poldrack-single-stim	s513	False
0.1	395.263	0.989	396.252	0	PA_without_intermediate	test	ward_and_allport	89	37.0	0.989	to_hand	poldrack-single-stim	s513	False
0.1	396.252	0.189	396.441	0	PA_without_intermediate	test	ward_and_allport	71	37.0	0.189	to_board	poldrack-single-stim	s513	False
1.0	396.449	2.68	396.448	0	PA_without_intermediate	test	ward_and_allport	-1	37.0	n/a	feedback	poldrack-single-stim	s513	False
2.737	399.136	2.737	401.873	1	PA_with_intermediate	test	ward_and_allport	82	38.0	2.737	to_hand	poldrack-single-stim	s513	False
0.1	401.874	0.354	402.228	0	PA_with_intermediate	test	ward_and_allport	71	38.0	0.354	to_board	poldrack-single-stim	s513	False
0.1	402.235	0.4	402.635	0	PA_with_intermediate	test	ward_and_allport	82	38.0	0.4	to_hand	poldrack-single-stim	s513	False
0.1	402.636	0.305	402.941	0	PA_with_intermediate	test	ward_and_allport	89	38.0	0.305	to_board	poldrack-single-stim	s513	False
0.1	402.951	0.59	403.541	0	PA_with_intermediate	test	ward_and_allport	71	38.0	0.59	to_hand	poldrack-single-stim	s513	False
0.1	403.542	0.467	404.009	0	PA_with_intermediate	test	ward_and_allport	89	38.0	0.467	to_board	poldrack-single-stim	s513	False
1.0	404.02	4.72	404.019	0	PA_with_intermediate	test	ward_and_allport	-1	38.0	n/a	feedback	poldrack-single-stim	s513	False
1.475	408.748	1.475	410.223	1	PA_without_intermediate	test	ward_and_allport	71	39.0	1.475	to_hand	poldrack-single-stim	s513	False
0.1	410.223	0.34	410.563	0	PA_without_intermediate	test	ward_and_allport	82	39.0	0.34	to_board	poldrack-single-stim	s513	False
0.1	410.573	1.118	411.691	0	PA_without_intermediate	test	ward_and_allport	71	39.0	1.118	to_hand	poldrack-single-stim	s513	False
0.1	411.692	0.224	411.916	0	PA_without_intermediate	test	ward_and_allport	89	39.0	0.224	to_board	poldrack-single-stim	s513	False
0.1	411.927	0.607	412.534	0	PA_without_intermediate	test	ward_and_allport	71	39.0	0.607	to_hand	poldrack-single-stim	s513	False
0.1	412.534	0.534	413.068	0	PA_without_intermediate	test	ward_and_allport	82	39.0	0.534	to_board	poldrack-single-stim	s513	False
1.0	413.08	3.224	413.079	0	PA_without_intermediate	test	ward_and_allport	-1	39.0	n/a	feedback	poldrack-single-stim	s513	False
1.499	416.31	1.499	417.809	1	PA_without_intermediate	test	ward_and_allport	89	40.0	1.499	to_hand	poldrack-single-stim	s513	False
0.1	417.81	0.429	418.239	0	PA_without_intermediate	test	ward_and_allport	71	40.0	0.429	to_board	poldrack-single-stim	s513	False
0.1	418.246	0.757	419.003	0	PA_without_intermediate	test	ward_and_allport	89	40.0	0.757	to_hand	poldrack-single-stim	s513	False
0.1	419.004	0.242	419.246	0	PA_without_intermediate	test	ward_and_allport	82	40.0	0.242	to_board	poldrack-single-stim	s513	False
0.1	419.255	0.334	419.589	0	PA_without_intermediate	test	ward_and_allport	89	40.0	0.334	to_hand	poldrack-single-stim	s513	False
0.1	419.591	0.275	419.866	0	PA_without_intermediate	test	ward_and_allport	71	40.0	0.275	to_board	poldrack-single-stim	s513	False
1.0	419.875	2.272	419.874	0	PA_without_intermediate	test	ward_and_allport	-1	40.0	n/a	feedback	poldrack-single-stim	s513	False
2.46	422.158	2.46	424.618	1	PA_with_intermediate	test	ward_and_allport	71	41.0	2.46	to_hand	poldrack-single-stim	s513	False
0.1	424.619	0.356	424.975	0	PA_with_intermediate	test	ward_and_allport	82	41.0	0.356	to_board	poldrack-single-stim	s513	False
0.1	424.983	0.532	425.515	0	PA_with_intermediate	test	ward_and_allport	71	41.0	0.532	to_hand	poldrack-single-stim	s513	False
0.1	425.516	0.243	425.759	0	PA_with_intermediate	test	ward_and_allport	89	41.0	0.243	to_board	poldrack-single-stim	s513	False
0.1	425.769	1.708	427.477	0	PA_with_intermediate	test	ward_and_allport	82	41.0	1.708	to_hand	poldrack-single-stim	s513	False
0.1	427.477	0.277	427.754	0	PA_with_intermediate	test	ward_and_allport	89	41.0	0.277	to_board	poldrack-single-stim	s513	False
1.0	427.765	3.632	427.764	0	PA_with_intermediate	test	ward_and_allport	-1	41.0	n/a	feedback	poldrack-single-stim	s513	False
2.108	431.404	2.108	433.512	1	PA_without_intermediate	test	ward_and_allport	82	42.0	2.108	to_hand	poldrack-single-stim	s513	False
0.1	433.513	0.437	433.95	0	PA_without_intermediate	test	ward_and_allport	71	42.0	0.437	to_board	poldrack-single-stim	s513	False
0.1	433.96	1.236	435.196	0	PA_without_intermediate	test	ward_and_allport	82	42.0	1.236	to_hand	poldrack-single-stim	s513	False
0.1	435.197	1.505	436.702	0	PA_without_intermediate	test	ward_and_allport	71	42.0	1.505	to_board	poldrack-single-stim	s513	False
0.1	436.713	0.428	437.141	0	PA_without_intermediate	test	ward_and_allport	82	42.0	0.428	to_hand	poldrack-single-stim	s513	False
0.1	437.141	0.269	437.41	0	PA_without_intermediate	test	ward_and_allport	89	42.0	0.269	to_board	poldrack-single-stim	s513	False
1.0	437.421	2.408	437.42	0	PA_without_intermediate	test	ward_and_allport	-1	42.0	n/a	feedback	poldrack-single-stim	s513	False
1.732	439.838	1.732	441.57	1	PA_without_intermediate	test	ward_and_allport	82	43.0	1.732	to_hand	poldrack-single-stim	s513	False
0.1	441.571	0.471	442.042	0	PA_without_intermediate	test	ward_and_allport	89	43.0	0.471	to_board	poldrack-single-stim	s513	False
0.1	442.05	1.601	443.651	0	PA_without_intermediate	test	ward_and_allport	82	43.0	1.601	to_hand	poldrack-single-stim	s513	False
0.1	443.652	0.317	443.969	0	PA_without_intermediate	test	ward_and_allport	71	43.0	0.317	to_board	poldrack-single-stim	s513	False
0.1	443.977	0.413	444.39	0	PA_without_intermediate	test	ward_and_allport	82	43.0	0.413	to_hand	poldrack-single-stim	s513	False
0.1	444.391	0.267	444.658	0	PA_without_intermediate	test	ward_and_allport	89	43.0	0.267	to_board	poldrack-single-stim	s513	False
1.0	444.667	2.0	444.666	0	PA_without_intermediate	test	ward_and_allport	-1	43.0	n/a	feedback	poldrack-single-stim	s513	False
2.407	446.674	2.407	449.081	1	PA_with_intermediate	test	ward_and_allport	82	44.0	2.407	to_hand	poldrack-single-stim	s513	False
0.1	449.082	0.303	449.385	0	PA_with_intermediate	test	ward_and_allport	71	44.0	0.303	to_board	poldrack-single-stim	s513	False
0.1	449.394	0.851	450.245	0	PA_with_intermediate	test	ward_and_allport	71	44.0	0.851	to_hand	poldrack-single-stim	s513	False
0.1	450.245	0.449	450.694	0	PA_with_intermediate	test	ward_and_allport	89	44.0	0.449	to_board	poldrack-single-stim	s513	False
0.1	450.703	0.508	451.211	0	PA_with_intermediate	test	ward_and_allport	82	44.0	0.508	to_hand	poldrack-single-stim	s513	False
0.1	451.212	0.307	451.519	0	PA_with_intermediate	test	ward_and_allport	71	44.0	0.307	to_board	poldrack-single-stim	s513	False
0.1	451.528	0.297	451.825	0	PA_with_intermediate	test	ward_and_allport	89	44.0	0.297	to_hand	poldrack-single-stim	s513	False
0.1	451.826	0.388	452.214	0	PA_with_intermediate	test	ward_and_allport	82	44.0	0.388	to_board	poldrack-single-stim	s513	False
1.0	452.224	2.0	452.223	0	PA_with_intermediate	test	ward_and_allport	-1	44.0	n/a	feedback	poldrack-single-stim	s513	False
1.332	459.237	1.332	460.569	1	PA_with_intermediate	test	ward_and_allport	82	45.0	1.332	to_hand	poldrack-single-stim	s513	False
0.1	460.57	1.766	462.336	0	PA_with_intermediate	test	ward_and_allport	71	45.0	1.766	to_board	poldrack-single-stim	s513	False
0.1	462.347	0.292	462.639	0	PA_with_intermediate	test	ward_and_allport	82	45.0	0.292	to_hand	poldrack-single-stim	s513	False
0.1	462.64	0.249	462.889	0	PA_with_intermediate	test	ward_and_allport	89	45.0	0.249	to_board	poldrack-single-stim	s513	False
0.1	462.902	0.51	463.412	0	PA_with_intermediate	test	ward_and_allport	71	45.0	0.51	to_hand	poldrack-single-stim	s513	False
0.1	463.413	0.321	463.734	0	PA_with_intermediate	test	ward_and_allport	82	45.0	0.321	to_board	poldrack-single-stim	s513	False
1.0	463.746	2.0	463.745	0	PA_with_intermediate	test	ward_and_allport	-1	45.0	n/a	feedback	poldrack-single-stim	s513	False
4.173	465.758	4.173	469.931	1	PA_with_intermediate	test	ward_and_allport	71	46.0	4.173	to_hand	poldrack-single-stim	s513	False
0.1	469.933	0.26	470.193	0	PA_with_intermediate	test	ward_and_allport	89	46.0	0.26	to_board	poldrack-single-stim	s513	False
0.1	470.201	0.329	470.53	0	PA_with_intermediate	test	ward_and_allport	71	46.0	0.329	to_hand	poldrack-single-stim	s513	False
0.1	470.531	0.373	470.904	0	PA_with_intermediate	test	ward_and_allport	82	46.0	0.373	to_board	poldrack-single-stim	s513	False
0.1	470.913	1.245	472.158	0	PA_with_intermediate	test	ward_and_allport	89	46.0	1.245	to_hand	poldrack-single-stim	s513	False
0.1	472.159	0.231	472.39	0	PA_with_intermediate	test	ward_and_allport	71	46.0	0.231	to_board	poldrack-single-stim	s513	False
1.0	472.402	2.408	472.401	0	PA_with_intermediate	test	ward_and_allport	-1	46.0	n/a	feedback	poldrack-single-stim	s513	False
1.924	474.822	1.924	476.746	1	PA_without_intermediate	test	ward_and_allport	82	47.0	1.924	to_hand	poldrack-single-stim	s513	False
0.1	476.748	1.174	477.922	0	PA_without_intermediate	test	ward_and_allport	71	47.0	1.174	to_board	poldrack-single-stim	s513	False
0.1	477.931	1.005	478.936	0	PA_without_intermediate	test	ward_and_allport	82	47.0	1.005	to_hand	poldrack-single-stim	s513	False
0.1	478.938	0.217	479.155	0	PA_without_intermediate	test	ward_and_allport	89	47.0	0.217	to_board	poldrack-single-stim	s513	False
0.1	479.163	0.312	479.475	0	PA_without_intermediate	test	ward_and_allport	82	47.0	0.312	to_hand	poldrack-single-stim	s513	False
0.1	479.477	0.271	479.748	0	PA_without_intermediate	test	ward_and_allport	71	47.0	0.271	to_board	poldrack-single-stim	s513	False
1.0	479.762	2.816	479.761	0	PA_without_intermediate	test	ward_and_allport	-1	47.0	n/a	feedback	poldrack-single-stim	s513	False
