onset	duration	movement_onset	block_duration	condition	correct	correct_response	experiment_exp_id	key_press	response_time	trial_id	trial_type	worker_id	junk
3.01	0.5	3.009	0.5	AX	n/a	n/a	dot_pattern_expectancy	-1.0	n/a	cue	AX	s513	False
5.514	0.5	6.09	1.772	AX	1.0	89.0	dot_pattern_expectancy	89.0	0.576	probe	AX	s513	False
7.289	0.5	7.288	0.5	AX	n/a	n/a	dot_pattern_expectancy	-1.0	n/a	cue	AX	s513	False
9.793	0.5	10.171	1.5	AX	1.0	89.0	dot_pattern_expectancy	89.0	0.378	probe	AX	s513	False
11.296	0.5	11.295	0.5	AY	n/a	n/a	dot_pattern_expectancy	-1.0	n/a	cue	AY	s513	False
13.8	0.5	14.335	2.452	AY	1.0	71.0	dot_pattern_expectancy	71.0	0.535	probe	AY	s513	False
16.255	0.5	16.254	0.5	AY	n/a	n/a	dot_pattern_expectancy	-1.0	n/a	cue	AY	s513	False
18.758	0.5	19.437	1.772	AY	1.0	71.0	dot_pattern_expectancy	71.0	0.679	probe	AY	s513	False
20.533	0.5	20.532	0.5	AX	n/a	n/a	dot_pattern_expectancy	-1.0	n/a	cue	AX	s513	False
23.037	0.5	23.501	1.908	AX	1.0	89.0	dot_pattern_expectancy	89.0	0.464	probe	AX	s513	False
24.948	0.5	24.947	0.5	AX	n/a	n/a	dot_pattern_expectancy	-1.0	n/a	cue	AX	s513	False
27.453	0.5	28.142	1.908	AX	1.0	89.0	dot_pattern_expectancy	89.0	0.689	probe	AX	s513	False
29.363	0.5	29.362	0.5	AX	n/a	n/a	dot_pattern_expectancy	-1.0	n/a	cue	AX	s513	False
31.867	0.5	32.312	2.588	AX	1.0	89.0	dot_pattern_expectancy	89.0	0.445	probe	AX	s513	False
34.457	0.5	34.456	0.5	AY	n/a	n/a	dot_pattern_expectancy	-1.0	n/a	cue	AY	s513	False
36.961	0.5	37.606	1.5	AY	1.0	71.0	dot_pattern_expectancy	71.0	0.645	probe	AY	s513	False
38.463	0.5	38.462	0.5	BY	n/a	n/a	dot_pattern_expectancy	-1.0	n/a	cue	BY	s513	False
40.968	0.5	41.556	1.5	BY	1.0	71.0	dot_pattern_expectancy	71.0	0.588	probe	BY	s513	False
42.471	0.5	42.47	0.5	BY	n/a	n/a	dot_pattern_expectancy	-1.0	n/a	cue	BY	s513	False
44.975	0.5	45.49	1.5	BY	1.0	71.0	dot_pattern_expectancy	71.0	0.515	probe	BY	s513	False
46.478	0.5	46.477	0.5	AX	n/a	n/a	dot_pattern_expectancy	-1.0	n/a	cue	AX	s513	False
48.981	0.5	49.656	1.636	AX	1.0	89.0	dot_pattern_expectancy	89.0	0.675	probe	AX	s513	False
50.62	0.5	50.619	0.5	BX	n/a	n/a	dot_pattern_expectancy	-1.0	n/a	cue	BX	s513	False
53.125	0.5	53.715	2.044	BX	0.0	71.0	dot_pattern_expectancy	89.0	0.59	probe	BX	s513	False
55.172	0.5	55.171	0.5	AX	n/a	n/a	dot_pattern_expectancy	-1.0	n/a	cue	AX	s513	False
57.676	0.5	58.246	1.772	AX	1.0	89.0	dot_pattern_expectancy	89.0	0.57	probe	AX	s513	False
59.45	0.5	59.449	0.5	BX	n/a	n/a	dot_pattern_expectancy	-1.0	n/a	cue	BX	s513	False
61.953	0.5	62.235	2.588	BX	1.0	71.0	dot_pattern_expectancy	71.0	0.282	probe	BX	s513	False
64.543	0.5	64.542	0.5	AY	n/a	n/a	dot_pattern_expectancy	-1.0	n/a	cue	AY	s513	False
67.047	0.5	67.69	1.5	AY	1.0	71.0	dot_pattern_expectancy	71.0	0.643	probe	AY	s513	False
68.55	0.5	68.549	0.5	AX	n/a	n/a	dot_pattern_expectancy	-1.0	n/a	cue	AX	s513	False
71.055	0.5	71.56	2.452	AX	1.0	89.0	dot_pattern_expectancy	89.0	0.505	probe	AX	s513	False
73.51	0.5	73.509	0.5	BY	n/a	n/a	dot_pattern_expectancy	-1.0	n/a	cue	BY	s513	False
76.015	0.5	76.966	1.636	BY	1.0	71.0	dot_pattern_expectancy	71.0	0.951	probe	BY	s513	False
77.653	0.5	77.652	0.5	AX	n/a	n/a	dot_pattern_expectancy	-1.0	n/a	cue	AX	s513	False
80.156	0.5	80.629	1.636	AX	1.0	89.0	dot_pattern_expectancy	89.0	0.473	probe	AX	s513	False
81.795	0.5	81.794	0.5	AX	n/a	n/a	dot_pattern_expectancy	-1.0	n/a	cue	AX	s513	False
84.299	0.5	85.147	1.5	AX	1.0	89.0	dot_pattern_expectancy	89.0	0.848	probe	AX	s513	False
85.802	0.5	85.801	0.5	BY	n/a	n/a	dot_pattern_expectancy	-1.0	n/a	cue	BY	s513	False
88.307	0.5	88.78	1.636	BY	1.0	71.0	dot_pattern_expectancy	71.0	0.473	probe	BY	s513	False
89.946	0.5	89.945	0.5	AX	n/a	n/a	dot_pattern_expectancy	-1.0	n/a	cue	AX	s513	False
92.45	0.5	93.0	1.5	AX	1.0	89.0	dot_pattern_expectancy	89.0	0.55	probe	AX	s513	False
93.954	0.5	93.953	0.5	AY	n/a	n/a	dot_pattern_expectancy	-1.0	n/a	cue	AY	s513	False
96.458	0.5	97.121	2.18	AY	1.0	71.0	dot_pattern_expectancy	71.0	0.663	probe	AY	s513	False
98.641	0.5	98.64	0.5	AX	n/a	n/a	dot_pattern_expectancy	-1.0	n/a	cue	AX	s513	False
101.148	0.5	101.655	1.5	AX	1.0	89.0	dot_pattern_expectancy	89.0	0.507	probe	AX	s513	False
102.651	0.5	102.65	0.5	AX	n/a	n/a	dot_pattern_expectancy	-1.0	n/a	cue	AX	s513	False
105.156	0.5	105.676	1.908	AX	1.0	89.0	dot_pattern_expectancy	89.0	0.52	probe	AX	s513	False
107.067	0.5	107.066	0.5	BY	n/a	n/a	dot_pattern_expectancy	-1.0	n/a	cue	BY	s513	False
109.572	0.5	109.911	1.636	BY	1.0	71.0	dot_pattern_expectancy	71.0	0.339	probe	BY	s513	False
111.211	0.5	111.21	0.5	BY	n/a	n/a	dot_pattern_expectancy	-1.0	n/a	cue	BY	s513	False
113.716	0.5	114.151	1.636	BY	1.0	71.0	dot_pattern_expectancy	71.0	0.435	probe	BY	s513	False
115.355	0.5	115.354	0.5	AX	n/a	n/a	dot_pattern_expectancy	-1.0	n/a	cue	AX	s513	False
117.86	0.5	118.245	1.636	AX	1.0	89.0	dot_pattern_expectancy	89.0	0.385	probe	AX	s513	False
119.499	0.5	119.498	0.5	AX	n/a	n/a	dot_pattern_expectancy	-1.0	n/a	cue	AX	s513	False
122.003	0.5	122.783	1.5	AX	1.0	89.0	dot_pattern_expectancy	89.0	0.78	probe	AX	s513	False
123.505	0.5	123.504	0.5	BY	n/a	n/a	dot_pattern_expectancy	-1.0	n/a	cue	BY	s513	False
126.009	0.5	126.617	2.044	BY	1.0	71.0	dot_pattern_expectancy	71.0	0.608	probe	BY	s513	False
128.055	0.5	128.054	0.5	AY	n/a	n/a	dot_pattern_expectancy	-1.0	n/a	cue	AY	s513	False
130.56	0.5	131.468	2.18	AY	1.0	71.0	dot_pattern_expectancy	71.0	0.908	probe	AY	s513	False
132.743	0.5	132.742	0.5	AY	n/a	n/a	dot_pattern_expectancy	-1.0	n/a	cue	AY	s513	False
135.247	0.5	136.03	1.636	AY	1.0	71.0	dot_pattern_expectancy	71.0	0.783	probe	AY	s513	False
136.887	0.5	136.886	0.5	AY	n/a	n/a	dot_pattern_expectancy	-1.0	n/a	cue	AY	s513	False
139.391	0.5	140.141	1.772	AY	1.0	71.0	dot_pattern_expectancy	71.0	0.75	probe	AY	s513	False
141.166	0.5	141.165	0.5	BY	n/a	n/a	dot_pattern_expectancy	-1.0	n/a	cue	BY	s513	False
143.67	0.5	144.078	1.5	BY	1.0	71.0	dot_pattern_expectancy	71.0	0.408	probe	BY	s513	False
145.173	0.5	145.172	0.5	BX	n/a	n/a	dot_pattern_expectancy	-1.0	n/a	cue	BX	s513	False
147.677	0.5	148.181	1.908	BX	1.0	71.0	dot_pattern_expectancy	71.0	0.504	probe	BX	s513	False
149.586	0.5	149.585	0.5	AX	n/a	n/a	dot_pattern_expectancy	-1.0	n/a	cue	AX	s513	False
152.09	0.5	152.449	2.044	AX	1.0	89.0	dot_pattern_expectancy	89.0	0.359	probe	AX	s513	False
154.137	0.5	154.136	0.5	AX	n/a	n/a	dot_pattern_expectancy	-1.0	n/a	cue	AX	s513	False
156.641	0.5	157.027	1.636	AX	1.0	89.0	dot_pattern_expectancy	89.0	0.386	probe	AX	s513	False
158.28	0.5	158.279	0.5	AX	n/a	n/a	dot_pattern_expectancy	-1.0	n/a	cue	AX	s513	False
160.784	0.5	161.164	1.772	AX	1.0	89.0	dot_pattern_expectancy	89.0	0.38	probe	AX	s513	False
162.558	0.5	162.557	0.5	AX	n/a	n/a	dot_pattern_expectancy	-1.0	n/a	cue	AX	s513	False
165.063	0.5	165.352	1.636	AX	1.0	89.0	dot_pattern_expectancy	89.0	0.289	probe	AX	s513	False
166.701	0.5	166.7	0.5	BX	n/a	n/a	dot_pattern_expectancy	-1.0	n/a	cue	BX	s513	False
169.205	0.5	169.521	1.772	BX	1.0	71.0	dot_pattern_expectancy	71.0	0.316	probe	BX	s513	False
170.98	0.5	170.979	0.5	AX	n/a	n/a	dot_pattern_expectancy	-1.0	n/a	cue	AX	s513	False
173.485	0.5	174.062	1.5	AX	1.0	89.0	dot_pattern_expectancy	89.0	0.577	probe	AX	s513	False
185.495	0.5	185.494	0.5	BY	n/a	n/a	dot_pattern_expectancy	-1.0	n/a	cue	BY	s513	False
187.998	0.5	188.61	1.636	BY	1.0	71.0	dot_pattern_expectancy	71.0	0.612	probe	BY	s513	False
189.636	0.5	189.635	0.5	AY	n/a	n/a	dot_pattern_expectancy	-1.0	n/a	cue	AY	s513	False
192.14	0.5	192.911	1.5	AY	1.0	71.0	dot_pattern_expectancy	71.0	0.771	probe	AY	s513	False
193.641	0.5	193.64	0.5	AX	n/a	n/a	dot_pattern_expectancy	-1.0	n/a	cue	AX	s513	False
196.145	0.5	196.658	2.044	AX	1.0	89.0	dot_pattern_expectancy	89.0	0.513	probe	AX	s513	False
198.191	0.5	198.19	0.5	BY	n/a	n/a	dot_pattern_expectancy	-1.0	n/a	cue	BY	s513	False
200.695	0.5	201.055	1.772	BY	1.0	71.0	dot_pattern_expectancy	71.0	0.36	probe	BY	s513	False
202.468	0.5	202.467	0.5	BX	n/a	n/a	dot_pattern_expectancy	-1.0	n/a	cue	BX	s513	False
204.973	0.5	204.972	1.636	BX	0.0	71.0	dot_pattern_expectancy	-1.0	n/a	probe	BX	s513	False
206.612	0.5	206.611	0.5	AX	n/a	n/a	dot_pattern_expectancy	-1.0	n/a	cue	AX	s513	False
209.116	0.5	209.549	1.636	AX	1.0	89.0	dot_pattern_expectancy	89.0	0.433	probe	AX	s513	False
210.755	0.5	210.754	0.5	AX	n/a	n/a	dot_pattern_expectancy	-1.0	n/a	cue	AX	s513	False
213.26	0.5	213.965	1.5	AX	1.0	89.0	dot_pattern_expectancy	89.0	0.705	probe	AX	s513	False
214.762	0.5	214.761	0.5	AX	n/a	n/a	dot_pattern_expectancy	-1.0	n/a	cue	AX	s513	False
217.266	0.5	217.903	1.5	AX	1.0	89.0	dot_pattern_expectancy	89.0	0.637	probe	AX	s513	False
218.769	0.5	218.768	0.5	AY	n/a	n/a	dot_pattern_expectancy	-1.0	n/a	cue	AY	s513	False
221.273	0.5	221.961	2.044	AY	1.0	71.0	dot_pattern_expectancy	71.0	0.688	probe	AY	s513	False
223.32	0.5	223.319	0.5	AX	n/a	n/a	dot_pattern_expectancy	-1.0	n/a	cue	AX	s513	False
225.823	0.5	226.423	2.452	AX	1.0	89.0	dot_pattern_expectancy	89.0	0.6	probe	AX	s513	False
228.277	0.5	228.276	0.5	AX	n/a	n/a	dot_pattern_expectancy	-1.0	n/a	cue	AX	s513	False
230.781	0.5	231.212	1.908	AX	1.0	89.0	dot_pattern_expectancy	89.0	0.431	probe	AX	s513	False
232.693	0.5	232.692	0.5	AX	n/a	n/a	dot_pattern_expectancy	-1.0	n/a	cue	AX	s513	False
235.197	0.5	235.858	1.5	AX	1.0	89.0	dot_pattern_expectancy	89.0	0.661	probe	AX	s513	False
236.699	0.5	236.698	0.5	AX	n/a	n/a	dot_pattern_expectancy	-1.0	n/a	cue	AX	s513	False
239.203	0.5	239.735	1.908	AX	1.0	89.0	dot_pattern_expectancy	89.0	0.532	probe	AX	s513	False
241.114	0.5	241.113	0.5	BX	n/a	n/a	dot_pattern_expectancy	-1.0	n/a	cue	BX	s513	False
243.618	0.5	244.404	2.18	BX	0.0	71.0	dot_pattern_expectancy	89.0	0.786	probe	BX	s513	False
245.801	0.5	245.8	0.5	AX	n/a	n/a	dot_pattern_expectancy	-1.0	n/a	cue	AX	s513	False
248.305	0.5	248.683	1.5	AX	1.0	89.0	dot_pattern_expectancy	89.0	0.378	probe	AX	s513	False
249.808	0.5	249.807	0.5	BY	n/a	n/a	dot_pattern_expectancy	-1.0	n/a	cue	BY	s513	False
252.313	0.5	252.99	1.908	BY	1.0	71.0	dot_pattern_expectancy	71.0	0.677	probe	BY	s513	False
254.224	0.5	254.223	0.5	BX	n/a	n/a	dot_pattern_expectancy	-1.0	n/a	cue	BX	s513	False
256.729	0.5	257.46	2.316	BX	1.0	71.0	dot_pattern_expectancy	71.0	0.731	probe	BX	s513	False
259.046	0.5	259.045	0.5	AY	n/a	n/a	dot_pattern_expectancy	-1.0	n/a	cue	AY	s513	False
261.55	0.5	262.1	2.316	AY	1.0	71.0	dot_pattern_expectancy	71.0	0.55	probe	AY	s513	False
263.868	0.5	263.867	0.5	BX	n/a	n/a	dot_pattern_expectancy	-1.0	n/a	cue	BX	s513	False
266.372	0.5	267.079	1.636	BX	1.0	71.0	dot_pattern_expectancy	71.0	0.707	probe	BX	s513	False
268.011	0.5	268.01	0.5	AY	n/a	n/a	dot_pattern_expectancy	-1.0	n/a	cue	AY	s513	False
270.516	0.5	271.452	1.5	AY	0.0	71.0	dot_pattern_expectancy	89.0	0.936	probe	AY	s513	False
272.017	0.5	272.016	0.5	BY	n/a	n/a	dot_pattern_expectancy	-1.0	n/a	cue	BY	s513	False
274.522	0.5	275.247	1.908	BY	1.0	71.0	dot_pattern_expectancy	71.0	0.725	probe	BY	s513	False
276.433	0.5	276.432	0.5	AX	n/a	n/a	dot_pattern_expectancy	-1.0	n/a	cue	AX	s513	False
278.937	0.5	279.705	1.5	AX	1.0	89.0	dot_pattern_expectancy	89.0	0.768	probe	AX	s513	False
280.441	0.5	280.44	0.5	AY	n/a	n/a	dot_pattern_expectancy	-1.0	n/a	cue	AY	s513	False
282.946	0.5	283.773	2.316	AY	1.0	71.0	dot_pattern_expectancy	71.0	0.827	probe	AY	s513	False
285.265	0.5	285.264	0.5	AX	n/a	n/a	dot_pattern_expectancy	-1.0	n/a	cue	AX	s513	False
287.769	0.5	288.66	1.5	AX	1.0	89.0	dot_pattern_expectancy	89.0	0.891	probe	AX	s513	False
289.271	0.5	289.27	0.5	AY	n/a	n/a	dot_pattern_expectancy	-1.0	n/a	cue	AY	s513	False
291.776	0.5	292.676	2.724	AY	1.0	71.0	dot_pattern_expectancy	71.0	0.9	probe	AY	s513	False
294.503	0.5	294.502	0.5	AX	n/a	n/a	dot_pattern_expectancy	-1.0	n/a	cue	AX	s513	False
297.007	0.5	297.487	1.5	AX	1.0	89.0	dot_pattern_expectancy	89.0	0.48	probe	AX	s513	False
298.509	0.5	298.508	0.5	AX	n/a	n/a	dot_pattern_expectancy	-1.0	n/a	cue	AX	s513	False
301.014	0.5	301.788	1.636	AX	1.0	89.0	dot_pattern_expectancy	89.0	0.774	probe	AX	s513	False
302.653	0.5	302.652	0.5	AX	n/a	n/a	dot_pattern_expectancy	-1.0	n/a	cue	AX	s513	False
305.157	0.5	305.948	1.636	AX	1.0	89.0	dot_pattern_expectancy	89.0	0.791	probe	AX	s513	False
306.796	0.5	306.795	0.5	AX	n/a	n/a	dot_pattern_expectancy	-1.0	n/a	cue	AX	s513	False
309.299	0.5	310.32	1.772	AX	1.0	89.0	dot_pattern_expectancy	89.0	1.021	probe	AX	s513	False
311.075	0.5	311.074	0.5	BY	n/a	n/a	dot_pattern_expectancy	-1.0	n/a	cue	BY	s513	False
313.579	0.5	314.176	1.772	BY	1.0	71.0	dot_pattern_expectancy	71.0	0.597	probe	BY	s513	False
315.353	0.5	315.352	0.5	AX	n/a	n/a	dot_pattern_expectancy	-1.0	n/a	cue	AX	s513	False
317.858	0.5	318.519	1.5	AX	1.0	89.0	dot_pattern_expectancy	89.0	0.661	probe	AX	s513	False
319.361	0.5	319.36	0.5	BY	n/a	n/a	dot_pattern_expectancy	-1.0	n/a	cue	BY	s513	False
321.864	0.5	322.574	2.452	BY	1.0	71.0	dot_pattern_expectancy	71.0	0.71	probe	BY	s513	False
324.318	0.5	324.317	0.5	AX	n/a	n/a	dot_pattern_expectancy	-1.0	n/a	cue	AX	s513	False
326.822	0.5	327.569	1.636	AX	1.0	89.0	dot_pattern_expectancy	89.0	0.747	probe	AX	s513	False
328.462	0.5	328.461	0.5	AX	n/a	n/a	dot_pattern_expectancy	-1.0	n/a	cue	AX	s513	False
330.966	0.5	331.593	1.636	AX	1.0	89.0	dot_pattern_expectancy	89.0	0.627	probe	AX	s513	False
332.606	0.5	332.605	0.5	BX	n/a	n/a	dot_pattern_expectancy	-1.0	n/a	cue	BX	s513	False
335.112	0.5	336.046	1.5	BX	1.0	71.0	dot_pattern_expectancy	71.0	0.934	probe	BX	s513	False
336.615	0.5	336.614	0.5	BX	n/a	n/a	dot_pattern_expectancy	-1.0	n/a	cue	BX	s513	False
339.119	0.5	339.523	1.5	BX	1.0	71.0	dot_pattern_expectancy	71.0	0.404	probe	BX	s513	False
340.622	0.5	340.621	0.5	AX	n/a	n/a	dot_pattern_expectancy	-1.0	n/a	cue	AX	s513	False
343.125	0.5	344.963	2.316	AX	0.0	89.0	dot_pattern_expectancy	71.0	1.838	probe	AX	s513	False
345.444	0.5	345.443	0.5	AY	n/a	n/a	dot_pattern_expectancy	-1.0	n/a	cue	AY	s513	False
347.948	0.5	348.715	2.044	AY	1.0	71.0	dot_pattern_expectancy	71.0	0.767	probe	AY	s513	False
349.995	0.5	349.994	0.5	AX	n/a	n/a	dot_pattern_expectancy	-1.0	n/a	cue	AX	s513	False
352.499	0.5	353.435	3.948	AX	1.0	89.0	dot_pattern_expectancy	89.0	0.936	probe	AX	s513	False
356.45	0.5	356.449	0.5	AX	n/a	n/a	dot_pattern_expectancy	-1.0	n/a	cue	AX	s513	False
358.954	0.5	360.504	1.636	AX	1.0	89.0	dot_pattern_expectancy	89.0	1.55	probe	AX	s513	False
371.102	0.5	371.101	0.5	AY	n/a	n/a	dot_pattern_expectancy	-1.0	n/a	cue	AY	s513	False
373.605	0.5	374.362	1.636	AY	1.0	71.0	dot_pattern_expectancy	71.0	0.757	probe	AY	s513	False
375.244	0.5	375.243	0.5	AX	n/a	n/a	dot_pattern_expectancy	-1.0	n/a	cue	AX	s513	False
377.749	0.5	377.748	1.636	AX	0.0	89.0	dot_pattern_expectancy	-1.0	n/a	probe	AX	s513	False
379.386	0.5	379.385	0.5	AX	n/a	n/a	dot_pattern_expectancy	-1.0	n/a	cue	AX	s513	False
381.89	0.5	382.447	1.5	AX	1.0	89.0	dot_pattern_expectancy	89.0	0.557	probe	AX	s513	False
383.392	0.5	383.391	0.5	AX	n/a	n/a	dot_pattern_expectancy	-1.0	n/a	cue	AX	s513	False
385.896	0.5	386.696	1.5	AX	1.0	89.0	dot_pattern_expectancy	89.0	0.8	probe	AX	s513	False
387.398	0.5	387.397	0.5	AX	n/a	n/a	dot_pattern_expectancy	-1.0	n/a	cue	AX	s513	False
389.902	0.5	390.71	1.908	AX	1.0	89.0	dot_pattern_expectancy	89.0	0.808	probe	AX	s513	False
391.813	0.5	391.812	0.5	BX	n/a	n/a	dot_pattern_expectancy	-1.0	n/a	cue	BX	s513	False
394.318	0.5	394.947	1.636	BX	1.0	71.0	dot_pattern_expectancy	71.0	0.629	probe	BX	s513	False
395.957	0.5	395.956	0.5	AX	n/a	n/a	dot_pattern_expectancy	-1.0	n/a	cue	AX	s513	False
398.459	0.5	399.098	2.044	AX	1.0	89.0	dot_pattern_expectancy	89.0	0.639	probe	AX	s513	False
400.507	0.5	400.506	0.5	AX	n/a	n/a	dot_pattern_expectancy	-1.0	n/a	cue	AX	s513	False
403.011	0.5	403.478	1.772	AX	1.0	89.0	dot_pattern_expectancy	89.0	0.467	probe	AX	s513	False
404.785	0.5	404.784	0.5	AX	n/a	n/a	dot_pattern_expectancy	-1.0	n/a	cue	AX	s513	False
407.289	0.5	408.042	1.5	AX	1.0	89.0	dot_pattern_expectancy	89.0	0.753	probe	AX	s513	False
408.79	0.5	408.789	0.5	AX	n/a	n/a	dot_pattern_expectancy	-1.0	n/a	cue	AX	s513	False
411.295	0.5	411.851	2.18	AX	1.0	89.0	dot_pattern_expectancy	89.0	0.556	probe	AX	s513	False
413.478	0.5	413.477	0.5	AX	n/a	n/a	dot_pattern_expectancy	-1.0	n/a	cue	AX	s513	False
415.982	0.5	416.723	1.5	AX	1.0	89.0	dot_pattern_expectancy	89.0	0.741	probe	AX	s513	False
417.484	0.5	417.483	0.5	BX	n/a	n/a	dot_pattern_expectancy	-1.0	n/a	cue	BX	s513	False
419.988	0.5	420.508	3.676	BX	1.0	71.0	dot_pattern_expectancy	71.0	0.52	probe	BX	s513	False
423.666	0.5	423.665	0.5	BY	n/a	n/a	dot_pattern_expectancy	-1.0	n/a	cue	BY	s513	False
426.17	0.5	426.856	1.636	BY	1.0	71.0	dot_pattern_expectancy	71.0	0.686	probe	BY	s513	False
427.81	0.5	427.809	0.5	BY	n/a	n/a	dot_pattern_expectancy	-1.0	n/a	cue	BY	s513	False
430.314	0.5	431.042	1.636	BY	1.0	71.0	dot_pattern_expectancy	71.0	0.728	probe	BY	s513	False
431.953	0.5	431.952	0.5	BX	n/a	n/a	dot_pattern_expectancy	-1.0	n/a	cue	BX	s513	False
434.458	0.5	434.936	1.5	BX	1.0	71.0	dot_pattern_expectancy	71.0	0.478	probe	BX	s513	False
435.959	0.5	435.958	0.5	AX	n/a	n/a	dot_pattern_expectancy	-1.0	n/a	cue	AX	s513	False
438.464	0.5	439.233	1.908	AX	1.0	89.0	dot_pattern_expectancy	89.0	0.769	probe	AX	s513	False
440.375	0.5	440.374	0.5	AX	n/a	n/a	dot_pattern_expectancy	-1.0	n/a	cue	AX	s513	False
442.88	0.5	443.731	1.636	AX	1.0	89.0	dot_pattern_expectancy	89.0	0.851	probe	AX	s513	False
444.519	0.5	444.518	0.5	BX	n/a	n/a	dot_pattern_expectancy	-1.0	n/a	cue	BX	s513	False
447.023	0.5	447.64	1.5	BX	1.0	71.0	dot_pattern_expectancy	71.0	0.617	probe	BX	s513	False
448.525	0.5	448.524	0.5	AX	n/a	n/a	dot_pattern_expectancy	-1.0	n/a	cue	AX	s513	False
451.031	0.5	452.346	1.908	AX	1.0	89.0	dot_pattern_expectancy	89.0	1.315	probe	AX	s513	False
452.941	0.5	452.94	0.5	BY	n/a	n/a	dot_pattern_expectancy	-1.0	n/a	cue	BY	s513	False
455.446	0.5	455.988	2.18	BY	1.0	71.0	dot_pattern_expectancy	71.0	0.542	probe	BY	s513	False
457.629	0.5	457.628	0.5	AX	n/a	n/a	dot_pattern_expectancy	-1.0	n/a	cue	AX	s513	False
460.133	0.5	460.702	1.772	AX	1.0	89.0	dot_pattern_expectancy	89.0	0.569	probe	AX	s513	False
461.908	0.5	461.907	0.5	AX	n/a	n/a	dot_pattern_expectancy	-1.0	n/a	cue	AX	s513	False
464.412	0.5	465.198	1.5	AX	1.0	89.0	dot_pattern_expectancy	89.0	0.786	probe	AX	s513	False
465.915	0.5	465.914	0.5	AX	n/a	n/a	dot_pattern_expectancy	-1.0	n/a	cue	AX	s513	False
468.42	0.5	469.242	1.5	AX	1.0	89.0	dot_pattern_expectancy	89.0	0.822	probe	AX	s513	False
469.923	0.5	469.922	0.5	AX	n/a	n/a	dot_pattern_expectancy	-1.0	n/a	cue	AX	s513	False
472.427	0.5	472.92	2.044	AX	1.0	89.0	dot_pattern_expectancy	89.0	0.493	probe	AX	s513	False
474.473	0.5	474.472	0.5	AX	n/a	n/a	dot_pattern_expectancy	-1.0	n/a	cue	AX	s513	False
476.976	0.5	477.62	2.86	AX	1.0	89.0	dot_pattern_expectancy	89.0	0.644	probe	AX	s513	False
479.838	0.5	479.837	0.5	BX	n/a	n/a	dot_pattern_expectancy	-1.0	n/a	cue	BX	s513	False
482.342	0.5	482.874	1.5	BX	1.0	71.0	dot_pattern_expectancy	71.0	0.532	probe	BX	s513	False
483.844	0.5	483.843	0.5	BY	n/a	n/a	dot_pattern_expectancy	-1.0	n/a	cue	BY	s513	False
486.348	0.5	486.788	1.772	BY	1.0	71.0	dot_pattern_expectancy	71.0	0.44	probe	BY	s513	False
488.121	0.5	488.12	0.5	AX	n/a	n/a	dot_pattern_expectancy	-1.0	n/a	cue	AX	s513	False
490.625	0.5	491.226	1.772	AX	1.0	89.0	dot_pattern_expectancy	89.0	0.601	probe	AX	s513	False
492.4	0.5	492.399	0.5	AX	n/a	n/a	dot_pattern_expectancy	-1.0	n/a	cue	AX	s513	False
494.906	0.5	495.392	2.86	AX	1.0	89.0	dot_pattern_expectancy	89.0	0.486	probe	AX	s513	False
497.769	0.5	497.768	0.5	AX	n/a	n/a	dot_pattern_expectancy	-1.0	n/a	cue	AX	s513	False
500.273	0.5	501.438	1.772	AX	1.0	89.0	dot_pattern_expectancy	89.0	1.165	probe	AX	s513	False
502.047	0.5	502.046	0.5	BX	n/a	n/a	dot_pattern_expectancy	-1.0	n/a	cue	BX	s513	False
504.552	0.5	505.022	1.636	BX	1.0	71.0	dot_pattern_expectancy	71.0	0.47	probe	BX	s513	False
506.191	0.5	506.19	0.5	BX	n/a	n/a	dot_pattern_expectancy	-1.0	n/a	cue	BX	s513	False
508.695	0.5	509.188	2.452	BX	1.0	71.0	dot_pattern_expectancy	71.0	0.493	probe	BX	s513	False
511.151	0.5	511.15	0.5	AX	n/a	n/a	dot_pattern_expectancy	-1.0	n/a	cue	AX	s513	False
513.655	0.5	514.261	1.636	AX	1.0	89.0	dot_pattern_expectancy	89.0	0.606	probe	AX	s513	False
515.294	0.5	515.293	0.5	BX	n/a	n/a	dot_pattern_expectancy	-1.0	n/a	cue	BX	s513	False
517.798	0.5	517.797	1.5	BX	0.0	71.0	dot_pattern_expectancy	-1.0	n/a	probe	BX	s513	False
519.301	0.5	519.3	0.5	AX	n/a	n/a	dot_pattern_expectancy	-1.0	n/a	cue	AX	s513	False
521.805	0.5	522.349	1.636	AX	1.0	89.0	dot_pattern_expectancy	89.0	0.544	probe	AX	s513	False
523.445	0.5	523.444	0.5	AX	n/a	n/a	dot_pattern_expectancy	-1.0	n/a	cue	AX	s513	False
525.951	0.5	526.71	1.636	AX	1.0	89.0	dot_pattern_expectancy	89.0	0.759	probe	AX	s513	False
527.59	0.5	527.589	0.5	BY	n/a	n/a	dot_pattern_expectancy	-1.0	n/a	cue	BY	s513	False
530.094	0.5	530.093	2.18	BY	0.0	71.0	dot_pattern_expectancy	-1.0	n/a	probe	BY	s513	False
532.277	0.5	532.276	0.5	AX	n/a	n/a	dot_pattern_expectancy	-1.0	n/a	cue	AX	s513	False
534.781	0.5	535.767	1.5	AX	1.0	89.0	dot_pattern_expectancy	89.0	0.986	probe	AX	s513	False
536.283	0.5	536.282	0.5	AY	n/a	n/a	dot_pattern_expectancy	-1.0	n/a	cue	AY	s513	False
538.787	0.5	539.454	1.636	AY	1.0	71.0	dot_pattern_expectancy	71.0	0.667	probe	AY	s513	False
540.425	0.5	540.424	0.5	AX	n/a	n/a	dot_pattern_expectancy	-1.0	n/a	cue	AX	s513	False
542.928	0.5	543.825	1.636	AX	1.0	89.0	dot_pattern_expectancy	89.0	0.897	probe	AX	s513	False
555.073	0.5	555.072	0.5	AX	n/a	n/a	dot_pattern_expectancy	-1.0	n/a	cue	AX	s513	False
557.577	0.5	558.257	2.18	AX	1.0	89.0	dot_pattern_expectancy	89.0	0.68	probe	AX	s513	False
559.76	0.5	559.759	0.5	AY	n/a	n/a	dot_pattern_expectancy	-1.0	n/a	cue	AY	s513	False
562.265	0.5	563.133	2.316	AY	1.0	71.0	dot_pattern_expectancy	71.0	0.868	probe	AY	s513	False
564.583	0.5	564.582	0.5	AY	n/a	n/a	dot_pattern_expectancy	-1.0	n/a	cue	AY	s513	False
567.087	0.5	568.158	1.636	AY	1.0	71.0	dot_pattern_expectancy	71.0	1.071	probe	AY	s513	False
568.727	0.5	568.726	0.5	BX	n/a	n/a	dot_pattern_expectancy	-1.0	n/a	cue	BX	s513	False
571.231	0.5	572.483	1.908	BX	1.0	71.0	dot_pattern_expectancy	71.0	1.252	probe	BX	s513	False
573.143	0.5	573.142	0.5	AX	n/a	n/a	dot_pattern_expectancy	-1.0	n/a	cue	AX	s513	False
575.647	0.5	576.536	3.54	AX	1.0	89.0	dot_pattern_expectancy	89.0	0.889	probe	AX	s513	False
579.191	0.5	579.19	0.5	BX	n/a	n/a	dot_pattern_expectancy	-1.0	n/a	cue	BX	s513	False
581.695	0.5	582.316	1.636	BX	1.0	71.0	dot_pattern_expectancy	71.0	0.621	probe	BX	s513	False
583.334	0.5	583.333	0.5	BY	n/a	n/a	dot_pattern_expectancy	-1.0	n/a	cue	BY	s513	False
585.837	0.5	586.68	1.5	BY	1.0	71.0	dot_pattern_expectancy	71.0	0.843	probe	BY	s513	False
587.34	0.5	587.339	0.5	AX	n/a	n/a	dot_pattern_expectancy	-1.0	n/a	cue	AX	s513	False
589.844	0.5	590.365	1.5	AX	1.0	89.0	dot_pattern_expectancy	89.0	0.521	probe	AX	s513	False
591.348	0.5	591.347	0.5	AX	n/a	n/a	dot_pattern_expectancy	-1.0	n/a	cue	AX	s513	False
593.853	0.5	595.192	1.772	AX	1.0	89.0	dot_pattern_expectancy	89.0	1.339	probe	AX	s513	False
595.628	0.5	595.627	0.5	BY	n/a	n/a	dot_pattern_expectancy	-1.0	n/a	cue	BY	s513	False
598.133	0.5	598.612	2.452	BY	1.0	71.0	dot_pattern_expectancy	71.0	0.479	probe	BY	s513	False
600.588	0.5	600.587	0.5	AX	n/a	n/a	dot_pattern_expectancy	-1.0	n/a	cue	AX	s513	False
603.09	0.5	603.62	1.908	AX	1.0	89.0	dot_pattern_expectancy	89.0	0.53	probe	AX	s513	False
605.0	0.5	604.999	0.5	BX	n/a	n/a	dot_pattern_expectancy	-1.0	n/a	cue	BX	s513	False
607.505	0.5	608.797	1.636	BX	1.0	71.0	dot_pattern_expectancy	71.0	1.292	probe	BX	s513	False
609.144	0.5	609.143	0.5	AX	n/a	n/a	dot_pattern_expectancy	-1.0	n/a	cue	AX	s513	False
611.648	0.5	612.18	1.5	AX	1.0	89.0	dot_pattern_expectancy	89.0	0.532	probe	AX	s513	False
613.151	0.5	613.15	0.5	AX	n/a	n/a	dot_pattern_expectancy	-1.0	n/a	cue	AX	s513	False
615.655	0.5	616.404	1.636	AX	1.0	89.0	dot_pattern_expectancy	89.0	0.749	probe	AX	s513	False
617.294	0.5	617.293	0.5	AX	n/a	n/a	dot_pattern_expectancy	-1.0	n/a	cue	AX	s513	False
619.798	0.5	620.53	1.636	AX	1.0	89.0	dot_pattern_expectancy	89.0	0.732	probe	AX	s513	False
621.437	0.5	621.436	0.5	BY	n/a	n/a	dot_pattern_expectancy	-1.0	n/a	cue	BY	s513	False
623.939	0.5	624.396	2.452	BY	1.0	71.0	dot_pattern_expectancy	71.0	0.457	probe	BY	s513	False
626.393	0.5	626.392	0.5	AX	n/a	n/a	dot_pattern_expectancy	-1.0	n/a	cue	AX	s513	False
628.897	0.5	629.437	1.5	AX	1.0	89.0	dot_pattern_expectancy	89.0	0.54	probe	AX	s513	False
630.399	0.5	630.398	0.5	BY	n/a	n/a	dot_pattern_expectancy	-1.0	n/a	cue	BY	s513	False
632.904	0.5	633.407	1.5	BY	1.0	71.0	dot_pattern_expectancy	71.0	0.503	probe	BY	s513	False
634.406	0.5	634.405	0.5	AX	n/a	n/a	dot_pattern_expectancy	-1.0	n/a	cue	AX	s513	False
636.91	0.5	637.423	1.636	AX	1.0	89.0	dot_pattern_expectancy	89.0	0.513	probe	AX	s513	False
638.548	0.5	638.547	0.5	AX	n/a	n/a	dot_pattern_expectancy	-1.0	n/a	cue	AX	s513	False
641.053	0.5	641.462	1.636	AX	1.0	89.0	dot_pattern_expectancy	89.0	0.409	probe	AX	s513	False
642.691	0.5	642.69	0.5	AY	n/a	n/a	dot_pattern_expectancy	-1.0	n/a	cue	AY	s513	False
645.196	0.5	646.026	1.636	AY	1.0	71.0	dot_pattern_expectancy	71.0	0.83	probe	AY	s513	False
646.834	0.5	646.833	0.5	AX	n/a	n/a	dot_pattern_expectancy	-1.0	n/a	cue	AX	s513	False
649.338	0.5	649.995	1.5	AX	1.0	89.0	dot_pattern_expectancy	89.0	0.657	probe	AX	s513	False
650.841	0.5	650.84	0.5	AX	n/a	n/a	dot_pattern_expectancy	-1.0	n/a	cue	AX	s513	False
653.345	0.5	654.305	1.5	AX	1.0	89.0	dot_pattern_expectancy	89.0	0.96	probe	AX	s513	False
654.847	0.5	654.846	0.5	AX	n/a	n/a	dot_pattern_expectancy	-1.0	n/a	cue	AX	s513	False
657.351	0.5	658.047	1.772	AX	1.0	89.0	dot_pattern_expectancy	89.0	0.696	probe	AX	s513	False
659.125	0.5	659.124	0.5	AX	n/a	n/a	dot_pattern_expectancy	-1.0	n/a	cue	AX	s513	False
661.629	0.5	662.414	2.18	AX	1.0	89.0	dot_pattern_expectancy	89.0	0.785	probe	AX	s513	False
663.812	0.5	663.811	0.5	BX	n/a	n/a	dot_pattern_expectancy	-1.0	n/a	cue	BX	s513	False
666.316	0.5	666.903	1.772	BX	1.0	71.0	dot_pattern_expectancy	71.0	0.587	probe	BX	s513	False
668.09	0.5	668.089	0.5	BY	n/a	n/a	dot_pattern_expectancy	-1.0	n/a	cue	BY	s513	False
670.594	0.5	671.023	1.5	BY	1.0	71.0	dot_pattern_expectancy	71.0	0.429	probe	BY	s513	False
672.096	0.5	672.095	0.5	AX	n/a	n/a	dot_pattern_expectancy	-1.0	n/a	cue	AX	s513	False
674.599	0.5	675.131	1.5	AX	1.0	89.0	dot_pattern_expectancy	89.0	0.532	probe	AX	s513	False
676.101	0.5	676.1	0.5	AX	n/a	n/a	dot_pattern_expectancy	-1.0	n/a	cue	AX	s513	False
678.605	0.5	679.403	1.636	AX	1.0	89.0	dot_pattern_expectancy	89.0	0.798	probe	AX	s513	False
680.245	0.5	680.244	0.5	AY	n/a	n/a	dot_pattern_expectancy	-1.0	n/a	cue	AY	s513	False
682.749	0.5	683.766	2.18	AY	1.0	71.0	dot_pattern_expectancy	71.0	1.017	probe	AY	s513	False
684.931	0.5	684.93	0.5	AY	n/a	n/a	dot_pattern_expectancy	-1.0	n/a	cue	AY	s513	False
687.435	0.5	689.547	2.316	AY	1.0	71.0	dot_pattern_expectancy	71.0	2.112	probe	AY	s513	False
689.755	0.5	689.754	0.5	BX	n/a	n/a	dot_pattern_expectancy	-1.0	n/a	cue	BX	s513	False
692.259	0.5	692.615	1.636	BX	1.0	71.0	dot_pattern_expectancy	71.0	0.356	probe	BX	s513	False
693.898	0.5	693.897	0.5	BX	n/a	n/a	dot_pattern_expectancy	-1.0	n/a	cue	BX	s513	False
696.401	0.5	696.929	2.18	BX	1.0	71.0	dot_pattern_expectancy	71.0	0.528	probe	BX	s513	False
698.583	0.5	698.582	0.5	AY	n/a	n/a	dot_pattern_expectancy	-1.0	n/a	cue	AY	s513	False
701.086	0.5	701.687	2.044	AY	1.0	71.0	dot_pattern_expectancy	71.0	0.601	probe	AY	s513	False
703.131	0.5	703.13	0.5	AX	n/a	n/a	dot_pattern_expectancy	-1.0	n/a	cue	AX	s513	False
705.635	0.5	706.638	1.772	AX	1.0	89.0	dot_pattern_expectancy	89.0	1.003	probe	AX	s513	False
707.409	0.5	707.408	0.5	AX	n/a	n/a	dot_pattern_expectancy	-1.0	n/a	cue	AX	s513	False
709.912	0.5	710.926	1.5	AX	1.0	89.0	dot_pattern_expectancy	89.0	1.014	probe	AX	s513	False
711.415	0.5	711.414	0.5	AX	n/a	n/a	dot_pattern_expectancy	-1.0	n/a	cue	AX	s513	False
713.918	0.5	714.651	2.18	AX	1.0	89.0	dot_pattern_expectancy	89.0	0.733	probe	AX	s513	False
716.101	0.5	716.1	0.5	AY	n/a	n/a	dot_pattern_expectancy	-1.0	n/a	cue	AY	s513	False
718.604	0.5	719.456	2.452	AY	1.0	71.0	dot_pattern_expectancy	71.0	0.852	probe	AY	s513	False
721.058	0.5	721.057	0.5	AX	n/a	n/a	dot_pattern_expectancy	-1.0	n/a	cue	AX	s513	False
723.562	0.5	724.281	1.636	AX	1.0	89.0	dot_pattern_expectancy	89.0	0.719	probe	AX	s513	False
725.201	0.5	725.2	0.5	AX	n/a	n/a	dot_pattern_expectancy	-1.0	n/a	cue	AX	s513	False
727.706	0.5	727.705	1.908	AX	0.0	89.0	dot_pattern_expectancy	-1.0	n/a	probe	AX	s513	False
