onset	duration	movement_onset	EV	action	block_duration	experiment_exp_id	gain_amount	gain_probability	key_press	loss_amount	loss_probability	num_cards	num_click_in_round	num_loss_cards	risk	response_time	total_cards	trial_id	trial_type	worker_id	junk	feedback
3.008	4.042	7.05	-1.6462342476117986	draw_card	4.042	columbia_card_task_fmri	12.0	0.8333333333333334	89.0	-70.0	0.1666666666666666	6.0	1.0	1.0	-2.270451372778496	4.042	n/a	stim	poldrack-single-stim	s513	False	1
7.053	1.482	8.535	-4.379567580945131	end_round	1.482	columbia_card_task_fmri	12.0	0.8	71.0	-70.0	0.2	6.0	2.0	1.0	-0.0300475318430244	1.482	1.0	stim	poldrack-single-stim	s513	False	1
9.288	1.5	8.537	n/a	-1.0	2.318	columbia_card_task_fmri	n/a	n/a	-1.0	n/a	n/a	n/a	n/a	n/a	n/a	n/a	n/a	ITI	poldrack-single-stim	s513	False	0
10.858	5.267	16.125	-0.8129009142784646	draw_card	5.267	columbia_card_task_fmri	14.0	0.8333333333333334	89.0	-75.0	0.1666666666666666	6.0	1.0	1.0	0.3382940637293643	5.267	n/a	stim	poldrack-single-stim	s513	False	1
16.126	0.766	16.892	-3.7795675809451312	end_round	0.766	columbia_card_task_fmri	14.0	0.8	71.0	-75.0	0.2	6.0	2.0	1.0	2.769951967611369	0.766	1.0	stim	poldrack-single-stim	s513	False	1
17.645	1.5	16.894	n/a	-1.0	2.318	columbia_card_task_fmri	n/a	n/a	-1.0	n/a	n/a	n/a	n/a	n/a	n/a	n/a	n/a	ITI	poldrack-single-stim	s513	False	0
19.214	2.258	21.472	0.8537657523882015	draw_card	2.258	columbia_card_task_fmri	15.0	0.8333333333333334	89.0	-70.0	0.1666666666666666	6.0	1.0	1.0	-1.1524176251102567	2.258	n/a	stim	poldrack-single-stim	s513	False	1
21.476	0.493	21.969	-1.9795675809451323	end_round	0.493	columbia_card_task_fmri	15.0	0.8	71.0	-70.0	0.2	6.0	2.0	1.0	1.1699522435423972	0.493	1.0	stim	poldrack-single-stim	s513	False	1
22.722	1.5	21.971	n/a	-1.0	2.862	columbia_card_task_fmri	n/a	n/a	-1.0	n/a	n/a	n/a	n/a	n/a	n/a	n/a	n/a	ITI	poldrack-single-stim	s513	False	0
24.836	3.648	28.484	1.687099085721535	end_round	3.648	columbia_card_task_fmri	17.0	0.8333333333333334	71.0	-75.0	0.1666666666666666	6.0	1.0	1.0	1.456327847259523	3.648	0.0	stim	poldrack-single-stim	s513	False	1
29.236	1.5	28.485	n/a	-1.0	2.726	columbia_card_task_fmri	n/a	n/a	-1.0	n/a	n/a	n/a	n/a	n/a	n/a	n/a	n/a	ITI	poldrack-single-stim	s513	False	0
31.214	3.648	34.862	3.020432419054868	draw_card	3.648	columbia_card_task_fmri	24.0	0.75	89.0	-60.0	0.25	8.0	1.0	2.0	3.54301880193524	3.648	n/a	stim	poldrack-single-stim	s513	False	1
34.864	1.549	36.413	0.0204324190548675	draw_card	1.549	columbia_card_task_fmri	24.0	0.7142857142857143	89.0	-60.0	0.2857142857142857	8.0	2.0	2.0	5.117283526927594	1.549	n/a	stim	poldrack-single-stim	s513	False	1
36.415	0.492	36.907	-3.979567580945132	end_round	0.492	columbia_card_task_fmri	24.0	0.6666666666666667	71.0	-60.0	0.3333333333333333	8.0	3.0	2.0	6.767931122050761	0.492	2.0	stim	poldrack-single-stim	s513	False	1
37.66	1.5	36.909	n/a	-1.0	2.25	columbia_card_task_fmri	n/a	n/a	-1.0	n/a	n/a	n/a	n/a	n/a	n/a	n/a	n/a	ITI	poldrack-single-stim	s513	False	0
39.161	1.46	40.621	3.020432419054868	draw_card	1.46	columbia_card_task_fmri	29.0	0.75	89.0	-75.0	0.25	8.0	1.0	2.0	12.203271736142682	1.46	n/a	stim	poldrack-single-stim	s513	False	1
40.622	1.354	41.976	-0.6938532952308442	end_round	1.354	columbia_card_task_fmri	29.0	0.7142857142857143	71.0	-75.0	0.2857142857142857	8.0	2.0	2.0	14.152361498128109	1.354	1.0	stim	poldrack-single-stim	s513	False	1
42.728	1.5	41.977	n/a	-1.0	2.318	columbia_card_task_fmri	n/a	n/a	-1.0	n/a	n/a	n/a	n/a	n/a	n/a	n/a	n/a	ITI	poldrack-single-stim	s513	False	0
44.297	3.312	47.609	-1.2017898031673522	end_round	3.312	columbia_card_task_fmri	17.0	0.7777777777777778	71.0	-65.0	0.2222222222222222	9.0	1.0	2.0	1.2606084178229295	3.312	0.0	stim	poldrack-single-stim	s513	False	1
48.363	1.5	47.612	n/a	-1.0	2.454	columbia_card_task_fmri	n/a	n/a	-1.0	n/a	n/a	n/a	n/a	n/a	n/a	n/a	n/a	ITI	poldrack-single-stim	s513	False	0
50.069	1.711	51.78	3.120432419054868	end_round	1.711	columbia_card_task_fmri	14.0	0.9	71.0	-95.0	0.1	10.0	1.0	1.0	-0.1300475123810116	1.711	0.0	stim	poldrack-single-stim	s513	False	1
52.533	1.5	51.782	n/a	-1.0	2.522	columbia_card_task_fmri	n/a	n/a	-1.0	n/a	n/a	n/a	n/a	n/a	n/a	n/a	n/a	ITI	poldrack-single-stim	s513	False	0
54.307	2.434	56.741	-0.9795675809451324	draw_card	2.434	columbia_card_task_fmri	15.0	0.8	89.0	-65.0	0.2	10.0	1.0	2.0	-0.8300473727410349	2.434	n/a	stim	poldrack-single-stim	s513	False	1
56.742	0.359	57.101	-2.757345358722909	end_round	0.359	columbia_card_task_fmri	15.0	0.7777777777777778	71.0	-65.0	0.2222222222222222	10.0	2.0	2.0	0.429129151618298	0.359	1.0	stim	poldrack-single-stim	s513	False	1
57.854	1.5	57.103	n/a	-1.0	2.318	columbia_card_task_fmri	n/a	n/a	-1.0	n/a	n/a	n/a	n/a	n/a	n/a	n/a	n/a	ITI	poldrack-single-stim	s513	False	0
59.424	4.324	63.748	0.620432419054869	draw_card	4.324	columbia_card_task_fmri	17.0	0.8	89.0	-65.0	0.2	10.0	1.0	2.0	-0.0300475318430244	4.324	n/a	stim	poldrack-single-stim	s513	False	1
63.749	0.775	64.524	-1.2017898031673522	draw_card	0.775	columbia_card_task_fmri	17.0	0.7777777777777778	89.0	-65.0	0.2222222222222222	10.0	2.0	2.0	1.2606084178229295	0.775	n/a	stim	poldrack-single-stim	s513	False	1
64.526	1.127	65.653	-3.4795675809451323	draw_card	1.127	columbia_card_task_fmri	17.0	0.75	89.0	-65.0	0.25	10.0	3.0	2.0	2.6769935381242576	1.127	n/a	stim	poldrack-single-stim	s513	False	1
65.654	0.641	66.295	-6.408139009516559	end_round	0.641	columbia_card_task_fmri	17.0	0.7142857142857143	71.0	-65.0	0.2857142857142857	10.0	4.0	2.0	4.21377575818893	0.641	3.0	stim	poldrack-single-stim	s513	False	1
67.048	1.5	66.297	n/a	-1.0	2.522	columbia_card_task_fmri	n/a	n/a	-1.0	n/a	n/a	n/a	n/a	n/a	n/a	n/a	n/a	ITI	poldrack-single-stim	s513	False	0
68.822	2.534	71.356	-0.8129009142784646	draw_card	2.534	columbia_card_task_fmri	13.0	0.8333333333333334	89.0	-70.0	0.1666666666666666	12.0	1.0	2.0	-1.89777345882548	2.534	n/a	stim	poldrack-single-stim	s513	False	1
71.357	1.107	72.464	-2.070476671854226	draw_card	1.107	columbia_card_task_fmri	13.0	0.8181818181818181	89.0	-70.0	0.1818181818181818	12.0	2.0	2.0	-0.8173949179646058	1.107	n/a	stim	poldrack-single-stim	s513	False	1
72.467	0.474	72.941	-3.579567580945132	draw_card	0.474	columbia_card_task_fmri	13.0	0.8	89.0	-70.0	0.2	12.0	3.0	2.0	0.3699523914813127	0.474	3.0	stim	poldrack-single-stim	s513	False	0
73.694	1.5	72.943	n/a	-1.0	2.998	columbia_card_task_fmri	n/a	n/a	-1.0	n/a	n/a	n/a	n/a	n/a	n/a	n/a	n/a	ITI	poldrack-single-stim	s513	False	0
75.945	2.755	78.7	-0.8129009142784646	draw_card	2.755	columbia_card_task_fmri	15.0	0.8333333333333334	89.0	-80.0	0.1666666666666666	12.0	1.0	2.0	2.574361643750919	2.755	n/a	stim	poldrack-single-stim	s513	False	1
78.701	0.994	79.695	-2.2522948536724074	end_round	0.994	columbia_card_task_fmri	15.0	0.8181818181818181	71.0	-80.0	0.1818181818181818	12.0	2.0	2.0	3.810939553419416	0.994	1.0	stim	poldrack-single-stim	s513	False	1
80.449	1.5	79.698	n/a	-1.0	2.318	columbia_card_task_fmri	n/a	n/a	-1.0	n/a	n/a	n/a	n/a	n/a	n/a	n/a	n/a	ITI	poldrack-single-stim	s513	False	0
82.019	2.679	84.698	-1.7795675809451317	draw_card	2.679	columbia_card_task_fmri	14.0	0.8	89.0	-65.0	0.2	15.0	1.0	3.0	-1.2300472901691144	2.679	1.0	stim	poldrack-single-stim	s513	False	0
85.451	1.5	84.7	n/a	-1.0	2.25	columbia_card_task_fmri	n/a	n/a	-1.0	n/a	n/a	n/a	n/a	n/a	n/a	n/a	n/a	ITI	poldrack-single-stim	s513	False	0
86.952	1.382	88.334	-1.8545675809451323	end_round	1.382	columbia_card_task_fmri	1.0	0.9375	71.0	-45.0	0.0625	16.0	1.0	1.0	-21.69520802883856	1.382	0.0	stim	poldrack-single-stim	s513	False	1
89.086	1.5	88.335	n/a	-1.0	2.454	columbia_card_task_fmri	n/a	n/a	-1.0	n/a	n/a	n/a	n/a	n/a	n/a	n/a	n/a	ITI	poldrack-single-stim	s513	False	0
90.793	1.841	92.634	-0.9170675809451324	draw_card	1.841	columbia_card_task_fmri	15.0	0.8125	89.0	-70.0	0.1875	16.0	1.0	3.0	0.3465042624165448	1.841	n/a	stim	poldrack-single-stim	s513	False	1
92.637	0.574	93.211	-1.9795675809451323	draw_card	0.574	columbia_card_task_fmri	15.0	0.8	89.0	-70.0	0.2	16.0	2.0	3.0	1.1699522435423972	0.574	n/a	stim	poldrack-single-stim	s513	False	1
93.212	0.871	94.083	-3.193853295230848	draw_card	0.871	columbia_card_task_fmri	15.0	0.7857142857142857	89.0	-70.0	0.2142857142857142	16.0	3.0	3.0	2.047653871594292	0.871	3.0	stim	poldrack-single-stim	s513	False	0
94.837	1.5	94.086	n/a	-1.0	2.318	columbia_card_task_fmri	n/a	n/a	-1.0	n/a	n/a	n/a	n/a	n/a	n/a	n/a	n/a	ITI	poldrack-single-stim	s513	False	0
96.407	3.336	99.743	6.020432419054868	draw_card	3.336	columbia_card_task_fmri	30.0	0.7	89.0	-50.0	0.3	10.0	1.0	3.0	3.8305573576237606	3.336	n/a	stim	poldrack-single-stim	s513	False	1
99.745	0.417	100.162	3.353765752388207	end_round	0.417	columbia_card_task_fmri	30.0	0.6666666666666667	71.0	-50.0	0.3333333333333333	10.0	2.0	3.0	4.88231330246299	0.417	1.0	stim	poldrack-single-stim	s513	False	1
100.914	1.5	100.163	n/a	-1.0	2.318	columbia_card_task_fmri	n/a	n/a	-1.0	n/a	n/a	n/a	n/a	n/a	n/a	n/a	n/a	ITI	poldrack-single-stim	s513	False	0
102.484	2.359	104.843	5.420432419054868	draw_card	2.359	columbia_card_task_fmri	17.0	0.8666666666666667	89.0	-70.0	0.1333333333333333	15.0	1.0	2.0	-3.2557336588711827	2.359	n/a	stim	poldrack-single-stim	s513	False	1
104.845	0.904	105.749	4.591860990483441	draw_card	0.904	columbia_card_task_fmri	17.0	0.8571428571428572	89.0	-70.0	0.1428571428571428	15.0	2.0	2.0	-2.386388807528938	0.904	n/a	stim	poldrack-single-stim	s513	False	1
105.75	1.135	106.885	3.6358170344394822	draw_card	1.135	columbia_card_task_fmri	17.0	0.8461538461538461	89.0	-70.0	0.1538461538461538	15.0	3.0	2.0	-1.4403417763264734	1.135	n/a	stim	poldrack-single-stim	s513	False	1
106.887	2.025	108.912	2.520432419054869	draw_card	2.025	columbia_card_task_fmri	17.0	0.8333333333333334	89.0	-70.0	0.1666666666666666	15.0	4.0	2.0	-0.4070617840945871	2.025	4.0	stim	poldrack-single-stim	s513	False	0
109.665	1.5	108.914	n/a	-1.0	2.59	columbia_card_task_fmri	n/a	n/a	-1.0	n/a	n/a	n/a	n/a	n/a	n/a	n/a	n/a	ITI	poldrack-single-stim	s513	False	0
111.508	2.123	113.631	0.6454324190548676	end_round	2.123	columbia_card_task_fmri	7.0	0.9375	71.0	-95.0	0.0625	16.0	1.0	1.0	-8.139776609434254	2.123	0.0	stim	poldrack-single-stim	s513	False	1
114.384	1.5	113.633	n/a	-1.0	2.25	columbia_card_task_fmri	n/a	n/a	-1.0	n/a	n/a	n/a	n/a	n/a	n/a	n/a	n/a	ITI	poldrack-single-stim	s513	False	0
115.886	4.517	120.403	2.207932419054868	draw_card	4.517	columbia_card_task_fmri	9.0	0.9375	89.0	-100.0	0.0625	16.0	1.0	1.0	-6.445346938412577	4.517	n/a	stim	poldrack-single-stim	s513	False	1
120.405	0.242	120.647	1.7537657523882009	draw_card	0.242	columbia_card_task_fmri	9.0	0.9333333333333332	89.0	-100.0	0.0666666666666666	16.0	2.0	1.0	-5.640669208035714	0.242	n/a	stim	poldrack-single-stim	s513	False	1
120.648	0.646	121.294	1.2347181333405828	draw_card	0.646	columbia_card_task_fmri	9.0	0.9285714285714286	89.0	-100.0	0.0714285714285714	16.0	3.0	1.0	-4.758254386668572	0.646	n/a	stim	poldrack-single-stim	s513	False	1
121.296	0.457	121.753	0.6358170344394835	draw_card	0.457	columbia_card_task_fmri	9.0	0.9230769230769232	89.0	-100.0	0.0769230769230769	16.0	4.0	1.0	-3.784887012965658	0.457	n/a	stim	poldrack-single-stim	s513	False	1
121.755	0.518	122.273	-0.0629009142784645	draw_card	0.518	columbia_card_task_fmri	9.0	0.9166666666666666	89.0	-100.0	0.0833333333333333	16.0	5.0	1.0	-2.704038454570973	0.518	n/a	stim	poldrack-single-stim	s513	False	1
122.276	3.468	125.744	-0.8886584900360425	draw_card	3.468	columbia_card_task_fmri	9.0	0.9090909090909092	89.0	-100.0	0.0909090909090909	16.0	6.0	1.0	-1.49475041997162	3.468	n/a	stim	poldrack-single-stim	s513	False	1
125.746	0.767	126.513	-1.8795675809451329	draw_card	0.767	columbia_card_task_fmri	9.0	0.9	89.0	-100.0	0.1	16.0	7.0	1.0	-0.1300475123810116	0.767	n/a	stim	poldrack-single-stim	s513	False	1
126.515	1.231	127.746	-3.090678692056243	end_round	1.231	columbia_card_task_fmri	9.0	0.8888888888888888	71.0	-100.0	0.1111111111111111	16.0	8.0	1.0	1.42534737525051	1.231	7.0	stim	poldrack-single-stim	s513	False	1
128.499	1.5	127.748	n/a	-1.0	2.25	columbia_card_task_fmri	n/a	n/a	-1.0	n/a	n/a	n/a	n/a	n/a	n/a	n/a	n/a	ITI	poldrack-single-stim	s513	False	0
130.001	2.493	132.494	3.145432419054868	draw_card	2.493	columbia_card_task_fmri	15.0	0.875	89.0	-80.0	0.125	16.0	1.0	2.0	-1.4117504330736814	2.493	n/a	stim	poldrack-single-stim	s513	False	1
132.497	0.2	132.697	2.3537657523882016	draw_card	0.2	columbia_card_task_fmri	15.0	0.8666666666666667	89.0	-80.0	0.1333333333333333	16.0	2.0	2.0	-0.5362571793308675	0.2	n/a	stim	poldrack-single-stim	s513	False	1
132.699	0.716	133.415	1.449003847626298	draw_card	0.716	columbia_card_task_fmri	15.0	0.8571428571428572	89.0	-80.0	0.1428571428571428	16.0	3.0	2.0	0.4130274639631892	0.716	n/a	stim	poldrack-single-stim	s513	False	1
133.418	0.493	133.911	0.4050478036702508	draw_card	0.493	columbia_card_task_fmri	15.0	0.8461538461538461	89.0	-80.0	0.1538461538461538	16.0	4.0	2.0	1.44606736202568	0.493	n/a	stim	poldrack-single-stim	s513	False	1
133.913	0.752	134.665	-0.8129009142784646	draw_card	0.752	columbia_card_task_fmri	15.0	0.8333333333333334	89.0	-80.0	0.1666666666666666	16.0	5.0	2.0	2.574361643750919	0.752	n/a	stim	poldrack-single-stim	s513	False	1
134.668	0.451	135.119	-2.2522948536724074	end_round	0.451	columbia_card_task_fmri	15.0	0.8181818181818181	71.0	-80.0	0.1818181818181818	16.0	6.0	2.0	3.810939553419416	0.451	5.0	stim	poldrack-single-stim	s513	False	1
135.873	1.5	135.122	n/a	-1.0	2.522	columbia_card_task_fmri	n/a	n/a	-1.0	n/a	n/a	n/a	n/a	n/a	n/a	n/a	n/a	ITI	poldrack-single-stim	s513	False	0
137.647	1.872	139.519	5.270432419054868	draw_card	1.872	columbia_card_task_fmri	16.0	0.875	89.0	-70.0	0.125	16.0	1.0	2.0	-4.388219962723561	1.872	n/a	stim	poldrack-single-stim	s513	False	1
139.52	0.586	140.106	4.553765752388201	draw_card	0.586	columbia_card_task_fmri	16.0	0.8666666666666667	89.0	-70.0	0.1333333333333333	16.0	2.0	2.0	-3.595668211038454	0.586	n/a	stim	poldrack-single-stim	s513	False	1
140.109	0.253	140.362	3.734718133340583	draw_card	0.253	columbia_card_task_fmri	16.0	0.8571428571428572	89.0	-70.0	0.1428571428571428	16.0	3.0	2.0	-2.7363158339122187	0.253	n/a	stim	poldrack-single-stim	s513	False	1
140.365	0.451	140.816	2.789663188285636	draw_card	0.451	columbia_card_task_fmri	16.0	0.8461538461538461	89.0	-70.0	0.1538461538461538	16.0	4.0	2.0	-1.8011429112949031	0.451	n/a	stim	poldrack-single-stim	s513	False	1
140.818	0.781	141.599	1.687099085721535	draw_card	0.781	columbia_card_task_fmri	16.0	0.8333333333333334	89.0	-70.0	0.1666666666666666	16.0	5.0	2.0	-0.7797397054831379	0.781	n/a	stim	poldrack-single-stim	s513	False	1
141.601	0.444	142.045	0.3840687826912291	end_round	0.444	columbia_card_task_fmri	16.0	0.8181818181818181	71.0	-70.0	0.1818181818181818	16.0	6.0	2.0	0.339688678332287	0.444	5.0	stim	poldrack-single-stim	s513	False	1
142.798	1.5	142.047	n/a	-1.0	2.454	columbia_card_task_fmri	n/a	n/a	-1.0	n/a	n/a	n/a	n/a	n/a	n/a	n/a	n/a	ITI	poldrack-single-stim	s513	False	0
144.505	2.212	146.717	6.582932419054868	draw_card	2.212	columbia_card_task_fmri	30.0	0.6875	89.0	-45.0	0.3125	16.0	1.0	5.0	1.93338251697616	2.212	1.0	stim	poldrack-single-stim	s513	False	0
147.47	1.5	146.719	n/a	-1.0	2.25	columbia_card_task_fmri	n/a	n/a	-1.0	n/a	n/a	n/a	n/a	n/a	n/a	n/a	n/a	ITI	poldrack-single-stim	s513	False	0
148.973	2.766	151.739	-1.6462342476117986	draw_card	2.766	columbia_card_task_fmri	13.0	0.8333333333333334	89.0	-75.0	0.1666666666666666	6.0	1.0	1.0	-0.0343838610046347	2.766	n/a	stim	poldrack-single-stim	s513	False	1
151.74	0.622	152.362	-4.579567580945132	end_round	0.622	columbia_card_task_fmri	13.0	0.8	71.0	-75.0	0.2	6.0	2.0	1.0	2.369952034242438	0.622	1.0	stim	poldrack-single-stim	s513	False	1
153.116	1.5	152.365	n/a	-1.0	2.454	columbia_card_task_fmri	n/a	n/a	-1.0	n/a	n/a	n/a	n/a	n/a	n/a	n/a	n/a	ITI	poldrack-single-stim	s513	False	0
154.822	3.355	158.177	0.0204324190548693	draw_card	3.355	columbia_card_task_fmri	14.0	0.8333333333333334	89.0	-70.0	0.1666666666666666	6.0	1.0	1.0	-1.5250955429130144	3.355	n/a	stim	poldrack-single-stim	s513	False	1
158.179	0.549	158.728	-2.7795675809451312	end_round	0.549	columbia_card_task_fmri	14.0	0.8	71.0	-70.0	0.2	6.0	2.0	1.0	0.7699523166312687	0.549	1.0	stim	poldrack-single-stim	s513	False	1
159.482	1.5	158.731	n/a	-1.0	2.454	columbia_card_task_fmri	n/a	n/a	-1.0	n/a	n/a	n/a	n/a	n/a	n/a	n/a	n/a	ITI	poldrack-single-stim	s513	False	0
161.187	1.61	162.797	0.0204324190548693	draw_card	1.61	columbia_card_task_fmri	16.0	0.8333333333333334	89.0	-80.0	0.1666666666666666	6.0	1.0	1.0	2.947039578584977	1.61	n/a	stim	poldrack-single-stim	s513	False	1
162.8	0.309	163.109	-3.179567580945132	end_round	0.309	columbia_card_task_fmri	16.0	0.8	71.0	-80.0	0.2	6.0	2.0	1.0	5.569951540061986	0.309	1.0	stim	poldrack-single-stim	s513	False	1
163.862	1.5	163.111	n/a	-1.0	2.522	columbia_card_task_fmri	n/a	n/a	-1.0	n/a	n/a	n/a	n/a	n/a	n/a	n/a	n/a	ITI	poldrack-single-stim	s513	False	0
165.638	2.259	167.897	2.520432419054869	draw_card	2.259	columbia_card_task_fmri	17.0	0.8333333333333334	89.0	-70.0	0.1666666666666666	6.0	1.0	1.0	-0.4070617840945871	2.259	1.0	stim	poldrack-single-stim	s513	False	0
168.649	1.5	167.898	n/a	-1.0	2.454	columbia_card_task_fmri	n/a	n/a	-1.0	n/a	n/a	n/a	n/a	n/a	n/a	n/a	n/a	ITI	poldrack-single-stim	s513	False	0
170.356	1.015	171.371	2.520432419054868	draw_card	1.015	columbia_card_task_fmri	25.0	0.75	89.0	-65.0	0.25	8.0	1.0	2.0	6.141094630694425	1.015	n/a	stim	poldrack-single-stim	s513	False	1
171.372	1.604	172.976	-0.6938532952308442	draw_card	1.604	columbia_card_task_fmri	25.0	0.7142857142857143	89.0	-65.0	0.2857142857142857	8.0	2.0	2.0	7.827806868921336	1.604	n/a	stim	poldrack-single-stim	s513	False	1
172.978	2.324	175.302	-4.979567580945129	draw_card	2.324	columbia_card_task_fmri	25.0	0.6666666666666667	89.0	-65.0	0.3333333333333333	8.0	3.0	2.0	9.596357895361791	2.324	n/a	stim	poldrack-single-stim	s513	False	1
175.305	0.533	175.838	-10.979567580945131	end_round	0.533	columbia_card_task_fmri	25.0	0.6	71.0	-65.0	0.4	8.0	4.0	2.0	11.260766208534868	0.533	3.0	stim	poldrack-single-stim	s513	False	1
176.592	1.5	175.841	n/a	-1.0	2.658	columbia_card_task_fmri	n/a	n/a	-1.0	n/a	n/a	n/a	n/a	n/a	n/a	n/a	n/a	ITI	poldrack-single-stim	s513	False	0
178.502	4.464	182.966	2.520432419054868	draw_card	4.464	columbia_card_task_fmri	30.0	0.75	89.0	-80.0	0.25	8.0	1.0	2.0	14.801347694662796	4.464	n/a	stim	poldrack-single-stim	s513	False	1
182.968	0.46	183.428	-1.408139009516556	end_round	0.46	columbia_card_task_fmri	30.0	0.7142857142857143	71.0	-80.0	0.2857142857142857	8.0	2.0	2.0	16.86288496449957	0.46	1.0	stim	poldrack-single-stim	s513	False	1
184.183	1.5	183.432	n/a	-1.0	2.386	columbia_card_task_fmri	n/a	n/a	-1.0	n/a	n/a	n/a	n/a	n/a	n/a	n/a	n/a	ITI	poldrack-single-stim	s513	False	0
185.822	3.902	189.724	2.2204324190548688	draw_card	3.902	columbia_card_task_fmri	13.0	0.9	89.0	-95.0	0.1	10.0	1.0	1.0	-0.4300474532741347	3.902	n/a	stim	poldrack-single-stim	s513	False	1
189.725	0.465	190.19	1.0204324190548677	end_round	0.465	columbia_card_task_fmri	13.0	0.8888888888888888	71.0	-95.0	0.1111111111111111	10.0	2.0	1.0	1.111077751146233	0.465	1.0	stim	poldrack-single-stim	s513	False	1
190.943	1.5	190.192	n/a	-1.0	2.522	columbia_card_task_fmri	n/a	n/a	-1.0	n/a	n/a	n/a	n/a	n/a	n/a	n/a	n/a	ITI	poldrack-single-stim	s513	False	0
192.718	2.764	195.482	3.6204324190548673	draw_card	2.764	columbia_card_task_fmri	14.0	0.9	89.0	-90.0	0.1	10.0	1.0	1.0	-1.6300472054799684	2.764	n/a	stim	poldrack-single-stim	s513	False	1
195.485	0.535	196.02	2.4648768634993106	draw_card	0.535	columbia_card_task_fmri	14.0	0.8888888888888888	89.0	-90.0	0.1111111111111111	10.0	2.0	1.0	-0.1460007344203049	0.535	n/a	stim	poldrack-single-stim	s513	False	1
196.022	0.487	196.509	1.0204324190548677	end_round	0.487	columbia_card_task_fmri	14.0	0.875	71.0	-90.0	0.125	10.0	3.0	1.0	1.56471921691616	0.487	2.0	stim	poldrack-single-stim	s513	False	1
197.264	1.5	196.513	n/a	-1.0	2.59	columbia_card_task_fmri	n/a	n/a	-1.0	n/a	n/a	n/a	n/a	n/a	n/a	n/a	n/a	ITI	poldrack-single-stim	s513	False	0
199.107	2.338	201.445	-1.1795675809451318	draw_card	2.338	columbia_card_task_fmri	16.0	0.8	89.0	-70.0	0.2	10.0	1.0	2.0	1.5699521721532648	2.338	n/a	stim	poldrack-single-stim	s513	False	1
201.448	1.125	202.573	-3.090678692056243	draw_card	1.125	columbia_card_task_fmri	16.0	0.7777777777777778	89.0	-70.0	0.2222222222222222	10.0	2.0	2.0	2.923566971591974	1.125	n/a	stim	poldrack-single-stim	s513	False	1
202.575	0.432	203.007	-5.479567580945132	end_round	0.432	columbia_card_task_fmri	16.0	0.75	71.0	-70.0	0.25	10.0	3.0	2.0	4.409044072256606	0.432	2.0	stim	poldrack-single-stim	s513	False	1
203.763	1.5	203.012	n/a	-1.0	2.386	columbia_card_task_fmri	n/a	n/a	-1.0	n/a	n/a	n/a	n/a	n/a	n/a	n/a	n/a	ITI	poldrack-single-stim	s513	False	0
205.401	3.517	208.918	-1.8962342476117984	draw_card	3.517	columbia_card_task_fmri	7.0	0.9166666666666666	89.0	-100.0	0.0833333333333333	12.0	1.0	1.0	-3.2568091234503385	3.517	n/a	stim	poldrack-single-stim	s513	False	1
208.92	1.536	210.456	-2.7068403082178607	draw_card	1.536	columbia_card_task_fmri	7.0	0.9090909090909092	89.0	-100.0	0.0909090909090909	12.0	2.0	1.0	-2.069709870032643	1.536	n/a	stim	poldrack-single-stim	s513	False	1
210.458	0.546	211.004	-3.679567580945133	end_round	0.546	columbia_card_task_fmri	7.0	0.9	71.0	-100.0	0.1	12.0	3.0	1.0	-0.7300473930624705	0.546	2.0	stim	poldrack-single-stim	s513	False	1
211.758	1.5	211.007	n/a	-1.0	2.59	columbia_card_task_fmri	n/a	n/a	-1.0	n/a	n/a	n/a	n/a	n/a	n/a	n/a	n/a	ITI	poldrack-single-stim	s513	False	0
213.601	2.717	216.318	-1.6462342476117968	draw_card	2.717	columbia_card_task_fmri	14.0	0.8333333333333334	89.0	-80.0	0.1666666666666666	12.0	1.0	2.0	2.201683710223584	2.717	n/a	stim	poldrack-single-stim	s513	False	1
216.321	0.382	216.703	-3.070476671854226	draw_card	0.382	columbia_card_task_fmri	14.0	0.8181818181818181	89.0	-80.0	0.1818181818181818	12.0	2.0	2.0	3.425245006105321	0.382	2.0	stim	poldrack-single-stim	s513	False	0
217.457	1.5	216.706	n/a	-1.0	2.318	columbia_card_task_fmri	n/a	n/a	-1.0	n/a	n/a	n/a	n/a	n/a	n/a	n/a	n/a	ITI	poldrack-single-stim	s513	False	0
219.028	2.788	221.816	0.0204324190548675	draw_card	2.788	columbia_card_task_fmri	15.0	0.8333333333333334	89.0	-75.0	0.1666666666666666	12.0	1.0	2.0	0.7109719900526059	2.788	n/a	stim	poldrack-single-stim	s513	False	1
221.818	0.4	222.218	-1.3432039445814976	draw_card	0.4	columbia_card_task_fmri	15.0	0.8181818181818181	89.0	-75.0	0.1818181818181818	12.0	2.0	2.0	1.8824668303168863	0.4	n/a	stim	poldrack-single-stim	s513	False	1
222.221	0.418	222.639	-2.9795675809451323	draw_card	0.418	columbia_card_task_fmri	15.0	0.8	89.0	-75.0	0.2	12.0	3.0	2.0	3.169951902460994	0.418	3.0	stim	poldrack-single-stim	s513	False	0
223.393	1.5	222.642	n/a	-1.0	2.25	columbia_card_task_fmri	n/a	n/a	-1.0	n/a	n/a	n/a	n/a	n/a	n/a	n/a	n/a	ITI	poldrack-single-stim	s513	False	0
224.896	2.767	227.663	-0.9795675809451324	draw_card	2.767	columbia_card_task_fmri	15.0	0.8	89.0	-65.0	0.2	15.0	1.0	3.0	-0.8300473727410349	2.767	n/a	stim	poldrack-single-stim	s513	False	1
227.665	0.22	227.885	-2.122424723802274	draw_card	0.22	columbia_card_task_fmri	15.0	0.7857142857142857	89.0	-65.0	0.2142857142857142	15.0	2.0	3.0	-0.0039752709661371	0.22	n/a	stim	poldrack-single-stim	s513	False	1
227.889	0.21	228.099	-3.441106042483596	draw_card	0.21	columbia_card_task_fmri	15.0	0.7692307692307692	89.0	-65.0	0.2307692307692307	15.0	3.0	3.0	0.8759558358725812	0.21	n/a	stim	poldrack-single-stim	s513	False	1
228.102	0.666	228.768	-4.979567580945132	draw_card	0.666	columbia_card_task_fmri	15.0	0.75	89.0	-65.0	0.25	15.0	4.0	3.0	1.8109682813119503	0.666	n/a	stim	poldrack-single-stim	s513	False	1
228.772	1.426	230.198	-6.797749399126949	draw_card	1.426	columbia_card_task_fmri	15.0	0.7272727272727273	89.0	-65.0	0.2727272727272727	15.0	5.0	3.0	2.798893676058235	1.426	n/a	stim	poldrack-single-stim	s513	False	1
230.2	1.508	231.708	-8.979567580945133	draw_card	1.508	columbia_card_task_fmri	15.0	0.7	89.0	-65.0	0.3	15.0	6.0	3.0	3.8305573576237606	1.508	n/a	stim	poldrack-single-stim	s513	False	1
231.712	0.997	232.709	-11.646234247611796	end_round	0.997	columbia_card_task_fmri	15.0	0.6666666666666667	71.0	-65.0	0.3333333333333333	15.0	7.0	3.0	4.88231330246299	0.997	6.0	stim	poldrack-single-stim	s513	False	1
233.463	1.5	232.712	n/a	-1.0	2.454	columbia_card_task_fmri	n/a	n/a	-1.0	n/a	n/a	n/a	n/a	n/a	n/a	n/a	n/a	ITI	poldrack-single-stim	s513	False	0
235.17	1.976	237.146	-1.7295675809451323	draw_card	1.976	columbia_card_task_fmri	14.0	0.8125	89.0	-70.0	0.1875	16.0	1.0	3.0	-0.0438080375804048	1.976	n/a	stim	poldrack-single-stim	s513	False	1
237.148	0.203	237.351	-2.7795675809451312	draw_card	0.203	columbia_card_task_fmri	14.0	0.8	89.0	-70.0	0.2	16.0	2.0	3.0	0.7699523166312687	0.203	n/a	stim	poldrack-single-stim	s513	False	1
237.354	1.117	238.471	-3.979567580945132	end_round	1.117	columbia_card_task_fmri	14.0	0.7857142857142857	71.0	-70.0	0.2142857142857142	16.0	3.0	3.0	1.6373280395197298	1.117	2.0	stim	poldrack-single-stim	s513	False	1
239.227	1.5	238.476	n/a	-1.0	3.27	columbia_card_task_fmri	n/a	n/a	-1.0	n/a	n/a	n/a	n/a	n/a	n/a	n/a	n/a	ITI	poldrack-single-stim	s513	False	0
241.749	5.116	246.865	-1.7920675809451323	end_round	5.116	columbia_card_task_fmri	11.0	0.6875	71.0	-30.0	0.3125	16.0	1.0	5.0	-13.82603428864747	5.116	0.0	stim	poldrack-single-stim	s513	False	1
247.62	1.5	246.869	n/a	-1.0	2.25	columbia_card_task_fmri	n/a	n/a	-1.0	n/a	n/a	n/a	n/a	n/a	n/a	n/a	n/a	ITI	poldrack-single-stim	s513	False	0
249.124	2.955	252.079	3.020432419054868	draw_card	2.955	columbia_card_task_fmri	15.0	0.8666666666666667	89.0	-75.0	0.1333333333333333	15.0	1.0	2.0	-2.235929991426385	2.955	n/a	stim	poldrack-single-stim	s513	False	1
252.082	0.346	252.428	2.163289561912012	draw_card	0.346	columbia_card_task_fmri	15.0	0.8571428571428572	89.0	-75.0	0.1428571428571428	15.0	2.0	2.0	-1.3366077177486169	0.346	n/a	stim	poldrack-single-stim	s513	False	1
252.431	0.85	253.281	1.1742785729010208	draw_card	0.85	columbia_card_task_fmri	15.0	0.8461538461538461	89.0	-75.0	0.1538461538461538	15.0	3.0	2.0	-0.3579383611110955	0.85	n/a	stim	poldrack-single-stim	s513	False	1
253.283	0.566	253.849	0.0204324190548675	end_round	0.566	columbia_card_task_fmri	15.0	0.8333333333333334	71.0	-75.0	0.1666666666666666	15.0	4.0	2.0	0.7109719900526059	0.566	3.0	stim	poldrack-single-stim	s513	False	1
254.602	1.5	253.851	n/a	-1.0	2.25	columbia_card_task_fmri	n/a	n/a	-1.0	n/a	n/a	n/a	n/a	n/a	n/a	n/a	n/a	ITI	poldrack-single-stim	s513	False	0
256.106	1.862	257.968	4.753765752388202	draw_card	1.862	columbia_card_task_fmri	17.0	0.8666666666666667	89.0	-75.0	0.1333333333333333	15.0	1.0	2.0	-1.5560608712721198	1.862	n/a	stim	poldrack-single-stim	s513	False	1
257.971	1.07	259.041	3.877575276197727	draw_card	1.07	columbia_card_task_fmri	17.0	0.8571428571428572	89.0	-75.0	0.1428571428571428	15.0	2.0	2.0	-0.6367536496140787	1.07	n/a	stim	poldrack-single-stim	s513	False	1
259.045	0.521	259.566	2.8665862652087144	draw_card	0.521	columbia_card_task_fmri	17.0	0.8461538461538461	89.0	-75.0	0.1538461538461538	15.0	3.0	2.0	0.363663923730563	0.521	n/a	stim	poldrack-single-stim	s513	False	1
259.568	0.782	260.35	1.687099085721535	end_round	0.782	columbia_card_task_fmri	17.0	0.8333333333333334	71.0	-75.0	0.1666666666666666	15.0	4.0	2.0	1.456327847259523	0.782	3.0	stim	poldrack-single-stim	s513	False	1
261.105	1.5	260.354	n/a	-1.0	2.318	columbia_card_task_fmri	n/a	n/a	-1.0	n/a	n/a	n/a	n/a	n/a	n/a	n/a	n/a	ITI	poldrack-single-stim	s513	False	0
262.675	1.813	264.488	0.3329324190548676	end_round	1.813	columbia_card_task_fmri	2.0	0.9375	71.0	-25.0	0.0625	16.0	1.0	1.0	-26.294362560361307	1.813	0.0	stim	poldrack-single-stim	s513	False	1
265.243	1.5	264.492	n/a	-1.0	2.726	columbia_card_task_fmri	n/a	n/a	-1.0	n/a	n/a	n/a	n/a	n/a	n/a	n/a	n/a	ITI	poldrack-single-stim	s513	False	0
267.223	2.456	269.679	2.520432419054868	draw_card	2.456	columbia_card_task_fmri	9.0	0.9375	89.0	-95.0	0.0625	16.0	1.0	1.0	-7.655653853743221	2.456	n/a	stim	poldrack-single-stim	s513	False	1
269.681	0.665	270.346	2.087099085721535	draw_card	0.665	columbia_card_task_fmri	9.0	0.9333333333333332	89.0	-95.0	0.0666666666666666	16.0	2.0	1.0	-6.887887967858024	0.665	n/a	stim	poldrack-single-stim	s513	False	1
270.348	0.395	270.743	1.5918609904834395	draw_card	0.395	columbia_card_task_fmri	9.0	0.9285714285714286	89.0	-95.0	0.0714285714285714	16.0	3.0	1.0	-6.045950913262953	0.395	3.0	stim	poldrack-single-stim	s513	False	0
271.498	1.5	270.747	n/a	-1.0	2.386	columbia_card_task_fmri	n/a	n/a	-1.0	n/a	n/a	n/a	n/a	n/a	n/a	n/a	n/a	ITI	poldrack-single-stim	s513	False	0
273.137	0.574	273.711	4.082932419054868	draw_card	0.574	columbia_card_task_fmri	11.0	0.9375	89.0	-100.0	0.0625	16.0	1.0	1.0	-5.961224162685678	0.574	n/a	stim	poldrack-single-stim	s513	False	1
273.715	1.415	275.13	3.620432419054868	draw_card	1.415	columbia_card_task_fmri	11.0	0.9333333333333332	89.0	-100.0	0.0666666666666666	16.0	2.0	1.0	-5.141781694796105	1.415	n/a	stim	poldrack-single-stim	s513	False	1
275.132	0.602	275.734	3.0918609904834407	draw_card	0.602	columbia_card_task_fmri	11.0	0.9285714285714286	89.0	-100.0	0.0714285714285714	16.0	3.0	1.0	-4.243175767012801	0.602	n/a	stim	poldrack-single-stim	s513	False	1
275.737	0.438	276.175	2.4819708805933303	draw_card	0.438	columbia_card_task_fmri	11.0	0.9230769230769232	89.0	-100.0	0.0769230769230769	16.0	4.0	1.0	-3.2519484324363823	0.438	n/a	stim	poldrack-single-stim	s513	False	1
276.179	1.263	277.442	1.7704324190548677	draw_card	1.263	columbia_card_task_fmri	11.0	0.9166666666666666	89.0	-100.0	0.0833333333333333	16.0	5.0	1.0	-2.1512677810244725	1.263	n/a	stim	poldrack-single-stim	s513	False	1
277.444	0.74	278.184	0.929523328145776	end_round	0.74	columbia_card_task_fmri	11.0	0.9090909090909092	71.0	-100.0	0.0909090909090909	16.0	6.0	1.0	-0.919790965423573	0.74	5.0	stim	poldrack-single-stim	s513	False	1
278.939	1.5	278.188	n/a	-1.0	2.318	columbia_card_task_fmri	n/a	n/a	-1.0	n/a	n/a	n/a	n/a	n/a	n/a	n/a	n/a	ITI	poldrack-single-stim	s513	False	0
280.51	2.147	282.657	4.645432419054868	draw_card	2.147	columbia_card_task_fmri	16.0	0.875	89.0	-75.0	0.125	16.0	1.0	2.0	-2.734625796563922	2.147	n/a	stim	poldrack-single-stim	s513	False	1
282.66	0.223	282.883	3.887099085721535	draw_card	0.223	columbia_card_task_fmri	16.0	0.8666666666666667	89.0	-75.0	0.1333333333333333	16.0	2.0	2.0	-1.8959954321642272	0.223	n/a	stim	poldrack-single-stim	s513	False	1
282.887	0.221	283.108	3.020432419054869	draw_card	0.221	columbia_card_task_fmri	16.0	0.8571428571428572	89.0	-75.0	0.1428571428571428	16.0	3.0	2.0	-0.9866806844730434	0.221	n/a	stim	poldrack-single-stim	s513	False	1
283.111	0.524	283.635	2.020432419054868	draw_card	0.524	columbia_card_task_fmri	16.0	0.8461538461538461	89.0	-75.0	0.1538461538461538	16.0	4.0	2.0	0.0028627805419034	0.524	n/a	stim	poldrack-single-stim	s513	False	1
283.639	0.459	284.098	0.8537657523882015	draw_card	0.459	columbia_card_task_fmri	16.0	0.8333333333333334	89.0	-75.0	0.1666666666666666	16.0	5.0	2.0	1.0836499179126946	0.459	n/a	stim	poldrack-single-stim	s513	False	1
284.101	0.533	284.634	-0.5250221263996792	draw_card	0.533	columbia_card_task_fmri	16.0	0.8181818181818181	89.0	-75.0	0.1818181818181818	16.0	6.0	2.0	2.2681613721550065	0.533	n/a	stim	poldrack-single-stim	s513	False	1
284.638	0.642	285.28	-2.179567580945132	end_round	0.642	columbia_card_task_fmri	16.0	0.8	71.0	-75.0	0.2	16.0	7.0	2.0	3.569951838742483	0.642	6.0	stim	poldrack-single-stim	s513	False	1
286.034	1.5	285.283	n/a	-1.0	2.25	columbia_card_task_fmri	n/a	n/a	-1.0	n/a	n/a	n/a	n/a	n/a	n/a	n/a	n/a	ITI	poldrack-single-stim	s513	False	0
287.538	1.735	289.273	4.895432419054868	draw_card	1.735	columbia_card_task_fmri	17.0	0.875	89.0	-80.0	0.125	16.0	1.0	2.0	-0.7503127422963303	1.735	n/a	stim	poldrack-single-stim	s513	False	1
289.275	0.235	289.51	4.087099085721536	draw_card	0.235	columbia_card_task_fmri	17.0	0.8666666666666667	89.0	-80.0	0.1333333333333333	16.0	2.0	2.0	0.143611955873169	0.235	n/a	stim	poldrack-single-stim	s513	False	1
289.514	0.243	289.757	3.1632895619120136	draw_card	0.243	columbia_card_task_fmri	17.0	0.8571428571428572	89.0	-80.0	0.1428571428571428	16.0	3.0	2.0	1.1128815467177304	0.243	n/a	stim	poldrack-single-stim	s513	False	1
289.76	0.231	289.991	2.0973554959779444	draw_card	0.231	columbia_card_task_fmri	17.0	0.8461538461538461	89.0	-80.0	0.1538461538461538	16.0	4.0	2.0	2.167669661046723	0.231	4.0	stim	poldrack-single-stim	s513	False	0
290.746	1.5	289.995	n/a	-1.0	2.25	columbia_card_task_fmri	n/a	n/a	-1.0	n/a	n/a	n/a	n/a	n/a	n/a	n/a	n/a	ITI	poldrack-single-stim	s513	False	0
303.252	3.154	306.406	-0.8129009142784646	draw_card	3.154	columbia_card_task_fmri	13.0	0.8333333333333334	89.0	-70.0	0.1666666666666666	6.0	1.0	1.0	-1.89777345882548	3.154	1.0	stim	poldrack-single-stim	s513	False	0
307.161	1.5	306.41	n/a	-1.0	2.454	columbia_card_task_fmri	n/a	n/a	-1.0	n/a	n/a	n/a	n/a	n/a	n/a	n/a	n/a	ITI	poldrack-single-stim	s513	False	0
308.867	1.596	310.463	-0.8129009142784646	draw_card	1.596	columbia_card_task_fmri	15.0	0.8333333333333334	89.0	-80.0	0.1666666666666666	6.0	1.0	1.0	2.574361643750919	1.596	n/a	stim	poldrack-single-stim	s513	False	1
310.467	2.159	312.626	-3.979567580945132	draw_card	2.159	columbia_card_task_fmri	15.0	0.8	89.0	-80.0	0.2	6.0	2.0	1.0	5.169951597282882	2.159	n/a	stim	poldrack-single-stim	s513	False	1
312.629	0.958	313.587	-8.729567580945133	end_round	0.958	columbia_card_task_fmri	15.0	0.75	71.0	-80.0	0.25	6.0	3.0	1.0	8.306157858244049	0.958	2.0	stim	poldrack-single-stim	s513	False	1
314.342	1.5	313.591	n/a	-1.0	2.454	columbia_card_task_fmri	n/a	n/a	-1.0	n/a	n/a	n/a	n/a	n/a	n/a	n/a	n/a	ITI	poldrack-single-stim	s513	False	0
316.049	3.304	319.353	0.8537657523882015	draw_card	3.304	columbia_card_task_fmri	16.0	0.8333333333333334	89.0	-75.0	0.1666666666666666	6.0	1.0	1.0	1.0836499179126946	3.304	n/a	stim	poldrack-single-stim	s513	False	1
319.358	1.52	320.878	-2.179567580945132	end_round	1.52	columbia_card_task_fmri	16.0	0.8	71.0	-75.0	0.2	6.0	2.0	1.0	3.569951838742483	1.52	1.0	stim	poldrack-single-stim	s513	False	1
321.632	1.5	320.881	n/a	-1.0	2.522	columbia_card_task_fmri	n/a	n/a	-1.0	n/a	n/a	n/a	n/a	n/a	n/a	n/a	n/a	ITI	poldrack-single-stim	s513	False	0
323.408	2.11	325.518	2.020432419054868	end_round	2.11	columbia_card_task_fmri	21.0	0.75	71.0	-55.0	0.25	8.0	1.0	2.0	0.078917790893449	2.11	0.0	stim	poldrack-single-stim	s513	False	1
326.273	1.5	325.522	n/a	-1.0	2.386	columbia_card_task_fmri	n/a	n/a	-1.0	n/a	n/a	n/a	n/a	n/a	n/a	n/a	n/a	ITI	poldrack-single-stim	s513	False	0
327.912	1.607	329.519	3.270432419054868	draw_card	1.607	columbia_card_task_fmri	26.0	0.75	89.0	-65.0	0.25	8.0	1.0	2.0	6.574107273726007	1.607	n/a	stim	poldrack-single-stim	s513	False	1
329.523	1.672	331.195	0.0204324190548711	draw_card	1.672	columbia_card_task_fmri	26.0	0.7142857142857143	89.0	-65.0	0.2857142857142857	8.0	2.0	2.0	8.279560763955182	1.672	n/a	stim	poldrack-single-stim	s513	False	1
331.198	0.458	331.656	-4.312900914278461	end_round	0.458	columbia_card_task_fmri	26.0	0.6666666666666667	71.0	-65.0	0.3333333333333333	8.0	3.0	2.0	10.067762362085872	0.458	2.0	stim	poldrack-single-stim	s513	False	1
332.411	1.5	331.66	n/a	-1.0	2.454	columbia_card_task_fmri	n/a	n/a	-1.0	n/a	n/a	n/a	n/a	n/a	n/a	n/a	n/a	ITI	poldrack-single-stim	s513	False	0
334.118	1.825	335.943	-1.6462342476117986	end_round	1.825	columbia_card_task_fmri	15.0	0.7777777777777778	71.0	-60.0	0.2222222222222222	9.0	1.0	2.0	-1.649568978174976	1.825	0.0	stim	poldrack-single-stim	s513	False	1
336.698	1.5	335.947	n/a	-1.0	2.522	columbia_card_task_fmri	n/a	n/a	-1.0	n/a	n/a	n/a	n/a	n/a	n/a	n/a	n/a	ITI	poldrack-single-stim	s513	False	0
338.474	1.309	339.783	2.7204324190548688	draw_card	1.309	columbia_card_task_fmri	13.0	0.9	89.0	-90.0	0.1	10.0	1.0	1.0	-1.9300471405242128	1.309	n/a	stim	poldrack-single-stim	s513	False	1
339.788	0.481	340.269	1.5759879746104228	draw_card	0.481	columbia_card_task_fmri	13.0	0.8888888888888888	89.0	-90.0	0.1111111111111111	10.0	2.0	1.0	-0.4602703529412792	0.481	n/a	stim	poldrack-single-stim	s513	False	1
340.272	1.045	341.317	0.1454324190548676	draw_card	1.045	columbia_card_task_fmri	13.0	0.875	89.0	-90.0	0.125	10.0	3.0	1.0	1.2340003619554167	1.045	n/a	stim	poldrack-single-stim	s513	False	1
341.32	0.463	341.783	-1.6938532952308445	end_round	0.463	columbia_card_task_fmri	13.0	0.8571428571428572	71.0	-90.0	0.1428571428571428	10.0	4.0	1.0	3.212443825148952	0.463	3.0	stim	poldrack-single-stim	s513	False	1
342.538	1.5	341.787	n/a	-1.0	2.522	columbia_card_task_fmri	n/a	n/a	-1.0	n/a	n/a	n/a	n/a	n/a	n/a	n/a	n/a	ITI	poldrack-single-stim	s513	False	0
344.314	1.596	345.91	4.020432419054868	draw_card	1.596	columbia_card_task_fmri	15.0	0.9	89.0	-95.0	0.1	10.0	1.0	1.0	0.1699524295868002	1.596	n/a	stim	poldrack-single-stim	s513	False	1
345.913	0.805	346.718	2.7982101968326445	draw_card	0.805	columbia_card_task_fmri	15.0	0.8888888888888888	89.0	-95.0	0.1111111111111111	10.0	2.0	1.0	1.7396170003806688	0.805	n/a	stim	poldrack-single-stim	s513	False	1
346.722	0.592	347.314	1.2704324190548677	end_round	0.592	columbia_card_task_fmri	15.0	0.875	71.0	-95.0	0.125	10.0	3.0	1.0	3.5490323691782777	0.592	2.0	stim	poldrack-single-stim	s513	False	1
348.069	1.5	347.318	n/a	-1.0	2.59	columbia_card_task_fmri	n/a	n/a	-1.0	n/a	n/a	n/a	n/a	n/a	n/a	n/a	n/a	ITI	poldrack-single-stim	s513	False	0
349.913	1.94	351.853	-0.1795675809451317	draw_card	1.94	columbia_card_task_fmri	16.0	0.8	89.0	-65.0	0.2	10.0	1.0	2.0	-0.4300474532741347	1.94	1.0	stim	poldrack-single-stim	s513	False	0
352.606	1.5	351.855	n/a	-1.0	2.454	columbia_card_task_fmri	n/a	n/a	-1.0	n/a	n/a	n/a	n/a	n/a	n/a	n/a	n/a	ITI	poldrack-single-stim	s513	False	0
354.315	1.422	355.737	-1.4795675809451323	draw_card	1.422	columbia_card_task_fmri	7.0	0.9166666666666666	89.0	-95.0	0.0833333333333333	12.0	1.0	1.0	-4.638735773428348	1.422	n/a	stim	poldrack-single-stim	s513	False	1
355.741	1.19	356.931	-2.2522948536724057	end_round	1.19	columbia_card_task_fmri	7.0	0.9090909090909092	71.0	-95.0	0.0909090909090909	12.0	2.0	1.0	-3.507108473822324	1.19	1.0	stim	poldrack-single-stim	s513	False	1
357.686	1.5	356.935	n/a	-1.0	2.318	columbia_card_task_fmri	n/a	n/a	-1.0	n/a	n/a	n/a	n/a	n/a	n/a	n/a	n/a	ITI	poldrack-single-stim	s513	False	0
359.258	2.336	361.594	-0.8129009142784646	draw_card	2.336	columbia_card_task_fmri	14.0	0.8333333333333334	89.0	-75.0	0.1666666666666666	12.0	1.0	2.0	0.3382940637293643	2.336	n/a	stim	poldrack-single-stim	s513	False	1
361.597	0.918	362.515	-2.161385762763316	draw_card	0.918	columbia_card_task_fmri	14.0	0.8181818181818181	89.0	-75.0	0.1818181818181818	12.0	2.0	2.0	1.496772289963758	0.918	n/a	stim	poldrack-single-stim	s513	False	1
362.518	0.676	363.194	-3.7795675809451312	end_round	0.676	columbia_card_task_fmri	14.0	0.8	71.0	-75.0	0.2	12.0	3.0	2.0	2.769951967611369	0.676	2.0	stim	poldrack-single-stim	s513	False	1
363.949	1.5	363.198	n/a	-1.0	2.25	columbia_card_task_fmri	n/a	n/a	-1.0	n/a	n/a	n/a	n/a	n/a	n/a	n/a	n/a	ITI	poldrack-single-stim	s513	False	0
365.454	1.56	367.014	0.8537657523882015	draw_card	1.56	columbia_card_task_fmri	15.0	0.8333333333333334	89.0	-70.0	0.1666666666666666	12.0	1.0	2.0	-1.1524176251102567	1.56	n/a	stim	poldrack-single-stim	s513	False	1
367.019	0.553	367.572	-0.4341130354905892	draw_card	0.553	columbia_card_task_fmri	15.0	0.8181818181818181	89.0	-70.0	0.1818181818181818	12.0	2.0	2.0	-0.0460058555506961	0.553	n/a	stim	poldrack-single-stim	s513	False	1
367.576	0.452	368.028	-1.9795675809451323	end_round	0.452	columbia_card_task_fmri	15.0	0.8	71.0	-70.0	0.2	12.0	3.0	2.0	1.1699522435423972	0.452	2.0	stim	poldrack-single-stim	s513	False	1
368.782	1.5	368.031	n/a	-1.0	2.658	columbia_card_task_fmri	n/a	n/a	-1.0	n/a	n/a	n/a	n/a	n/a	n/a	n/a	n/a	ITI	poldrack-single-stim	s513	False	0
370.693	1.377	372.07	-1.1795675809451318	draw_card	1.377	columbia_card_task_fmri	16.0	0.8	89.0	-70.0	0.2	15.0	1.0	3.0	1.5699521721532648	1.377	n/a	stim	poldrack-single-stim	s513	False	1
372.075	0.488	372.563	-2.408139009516561	draw_card	0.488	columbia_card_task_fmri	16.0	0.7857142857142857	89.0	-70.0	0.2142857142857142	15.0	2.0	3.0	2.457979705325819	0.488	2.0	stim	poldrack-single-stim	s513	False	0
373.317	1.5	372.566	n/a	-1.0	2.454	columbia_card_task_fmri	n/a	n/a	-1.0	n/a	n/a	n/a	n/a	n/a	n/a	n/a	n/a	ITI	poldrack-single-stim	s513	False	0
375.025	0.757	375.782	-0.7920675809451324	draw_card	0.757	columbia_card_task_fmri	14.0	0.8125	89.0	-65.0	0.1875	16.0	1.0	3.0	-1.995369509121005	0.757	n/a	stim	poldrack-single-stim	s513	False	1
375.786	1.126	376.912	-1.7795675809451317	draw_card	1.126	columbia_card_task_fmri	14.0	0.8	89.0	-65.0	0.2	16.0	2.0	3.0	-1.2300472901691144	1.126	n/a	stim	poldrack-single-stim	s513	False	1
376.915	1.007	377.922	-2.90813900951656	draw_card	1.007	columbia_card_task_fmri	14.0	0.7857142857142857	89.0	-65.0	0.2142857142857142	16.0	3.0	3.0	-0.414301093796297	1.007	n/a	stim	poldrack-single-stim	s513	False	1
377.925	1.07	378.995	-4.210336811714364	draw_card	1.07	columbia_card_task_fmri	14.0	0.7692307692307692	89.0	-65.0	0.2307692307692307	16.0	4.0	3.0	0.4546308700304422	1.07	n/a	stim	poldrack-single-stim	s513	False	1
378.998	0.865	379.863	-5.729567580945132	end_round	0.865	columbia_card_task_fmri	14.0	0.75	71.0	-65.0	0.25	16.0	5.0	3.0	1.377955655696404	0.865	4.0	stim	poldrack-single-stim	s513	False	1
380.618	1.5	379.867	n/a	-1.0	2.386	columbia_card_task_fmri	n/a	n/a	-1.0	n/a	n/a	n/a	n/a	n/a	n/a	n/a	n/a	ITI	poldrack-single-stim	s513	False	0
382.258	0.672	382.93	-1.0420675809451323	draw_card	0.672	columbia_card_task_fmri	16.0	0.8125	89.0	-75.0	0.1875	16.0	1.0	3.0	2.688378096968826	0.672	n/a	stim	poldrack-single-stim	s513	False	1
382.933	0.741	383.674	-2.179567580945132	draw_card	0.741	columbia_card_task_fmri	16.0	0.8	89.0	-75.0	0.2	16.0	2.0	3.0	3.569951838742483	0.741	n/a	stim	poldrack-single-stim	s513	False	1
383.678	0.628	384.306	-3.4795675809451305	end_round	0.628	columbia_card_task_fmri	16.0	0.7857142857142857	71.0	-75.0	0.2142857142857142	16.0	3.0	3.0	4.509608896926082	0.628	2.0	stim	poldrack-single-stim	s513	False	1
385.061	1.5	384.31	n/a	-1.0	2.59	columbia_card_task_fmri	n/a	n/a	-1.0	n/a	n/a	n/a	n/a	n/a	n/a	n/a	n/a	ITI	poldrack-single-stim	s513	False	0
386.904	1.716	388.62	3.2204324190548688	draw_card	1.716	columbia_card_task_fmri	16.0	0.8666666666666667	89.0	-80.0	0.1333333333333333	15.0	1.0	2.0	-0.1963226124229891	1.716	n/a	stim	poldrack-single-stim	s513	False	1
388.625	0.328	388.953	2.306146704769156	draw_card	0.328	columbia_card_task_fmri	16.0	0.8571428571428572	89.0	-80.0	0.1428571428571428	15.0	2.0	2.0	0.7629545046661406	0.328	2.0	stim	poldrack-single-stim	s513	False	0
389.708	1.5	388.957	n/a	-1.0	2.318	columbia_card_task_fmri	n/a	n/a	-1.0	n/a	n/a	n/a	n/a	n/a	n/a	n/a	n/a	ITI	poldrack-single-stim	s513	False	0
391.279	0.55	391.829	4.087099085721536	draw_card	0.55	columbia_card_task_fmri	17.0	0.8666666666666667	89.0	-80.0	0.1333333333333333	15.0	1.0	2.0	0.143611955873169	0.55	n/a	stim	poldrack-single-stim	s513	False	1
391.834	0.258	392.092	3.1632895619120136	draw_card	0.258	columbia_card_task_fmri	17.0	0.8571428571428572	89.0	-80.0	0.1428571428571428	15.0	2.0	2.0	1.1128815467177304	0.258	n/a	stim	poldrack-single-stim	s513	False	1
392.096	0.703	392.799	2.0973554959779444	draw_card	0.703	columbia_card_task_fmri	17.0	0.8461538461538461	89.0	-80.0	0.1538461538461538	15.0	3.0	2.0	2.167669661046723	0.703	n/a	stim	poldrack-single-stim	s513	False	1
392.803	0.519	393.322	0.8537657523882033	end_round	0.519	columbia_card_task_fmri	17.0	0.8333333333333334	71.0	-80.0	0.1666666666666666	15.0	4.0	2.0	3.319717514685337	0.519	3.0	stim	poldrack-single-stim	s513	False	1
394.077	1.5	393.326	n/a	-1.0	2.59	columbia_card_task_fmri	n/a	n/a	-1.0	n/a	n/a	n/a	n/a	n/a	n/a	n/a	n/a	ITI	poldrack-single-stim	s513	False	0
395.921	0.607	396.528	0.0204324190548675	draw_card	0.607	columbia_card_task_fmri	1.0	0.9375	89.0	-15.0	0.0625	16.0	1.0	1.0	-28.95701665317137	0.607	1.0	stim	poldrack-single-stim	s513	False	0
397.284	1.5	396.533	n/a	-1.0	2.386	columbia_card_task_fmri	n/a	n/a	-1.0	n/a	n/a	n/a	n/a	n/a	n/a	n/a	n/a	ITI	poldrack-single-stim	s513	False	0
398.924	2.41	401.334	3.145432419054868	draw_card	2.41	columbia_card_task_fmri	10.0	0.9375	89.0	-100.0	0.0625	16.0	1.0	1.0	-6.203285551197077	2.41	n/a	stim	poldrack-single-stim	s513	False	1
401.338	0.231	401.569	2.6870990857215347	draw_card	0.231	columbia_card_task_fmri	10.0	0.9333333333333332	89.0	-100.0	0.0666666666666666	16.0	2.0	1.0	-5.391225452044683	0.231	n/a	stim	poldrack-single-stim	s513	False	1
401.573	0.402	401.975	2.163289561912012	draw_card	0.402	columbia_card_task_fmri	10.0	0.9285714285714286	89.0	-100.0	0.0714285714285714	16.0	3.0	1.0	-4.500715077449694	0.402	n/a	stim	poldrack-single-stim	s513	False	1
401.98	0.343	402.323	1.5588939575164067	draw_card	0.343	columbia_card_task_fmri	10.0	0.9230769230769232	89.0	-100.0	0.0769230769230769	16.0	4.0	1.0	-3.518417723289623	0.343	n/a	stim	poldrack-single-stim	s513	False	1
402.327	0.755	403.082	0.8537657523882015	draw_card	0.755	columbia_card_task_fmri	10.0	0.9166666666666666	89.0	-100.0	0.0833333333333333	16.0	5.0	1.0	-2.4276531183652037	0.755	n/a	stim	poldrack-single-stim	s513	False	1
403.086	0.527	403.613	0.0204324190548658	draw_card	0.527	columbia_card_task_fmri	10.0	0.9090909090909092	89.0	-100.0	0.0909090909090909	16.0	6.0	1.0	-1.2072706932431778	0.527	n/a	stim	poldrack-single-stim	s513	False	1
403.617	0.838	404.455	-0.9795675809451324	end_round	0.838	columbia_card_task_fmri	10.0	0.9	71.0	-100.0	0.1	16.0	7.0	1.0	0.1699524295868002	0.838	6.0	stim	poldrack-single-stim	s513	False	1
405.211	1.5	404.46	n/a	-1.0	2.318	columbia_card_task_fmri	n/a	n/a	-1.0	n/a	n/a	n/a	n/a	n/a	n/a	n/a	n/a	ITI	poldrack-single-stim	s513	False	0
406.784	1.842	408.626	3.770432419054868	draw_card	1.842	columbia_card_task_fmri	15.0	0.875	89.0	-75.0	0.125	16.0	1.0	2.0	-3.065344633380345	1.842	n/a	stim	poldrack-single-stim	s513	False	1
408.63	0.425	409.055	3.020432419054868	draw_card	0.425	columbia_card_task_fmri	15.0	0.8666666666666667	89.0	-75.0	0.1333333333333333	16.0	2.0	2.0	-2.235929991426385	0.425	2.0	stim	poldrack-single-stim	s513	False	0
409.811	1.5	409.06	n/a	-1.0	2.318	columbia_card_task_fmri	n/a	n/a	-1.0	n/a	n/a	n/a	n/a	n/a	n/a	n/a	n/a	ITI	poldrack-single-stim	s513	False	0
411.384	0.835	412.219	4.020432419054868	draw_card	0.835	columbia_card_task_fmri	16.0	0.875	89.0	-80.0	0.125	16.0	1.0	2.0	-1.0810315883984885	0.835	n/a	stim	poldrack-single-stim	s513	False	1
412.222	0.278	412.5	3.2204324190548688	draw_card	0.278	columbia_card_task_fmri	16.0	0.8666666666666667	89.0	-80.0	0.1333333333333333	16.0	2.0	2.0	-0.1963226124229891	0.278	n/a	stim	poldrack-single-stim	s513	False	1
412.503	0.305	412.808	2.306146704769156	draw_card	0.305	columbia_card_task_fmri	16.0	0.8571428571428572	89.0	-80.0	0.1428571428571428	16.0	3.0	2.0	0.7629545046661406	0.305	n/a	stim	poldrack-single-stim	s513	False	1
412.812	0.45	413.262	1.2512016498240974	draw_card	0.45	columbia_card_task_fmri	16.0	0.8461538461538461	89.0	-80.0	0.1538461538461538	16.0	4.0	2.0	1.806868510882204	0.45	n/a	stim	poldrack-single-stim	s513	False	1
413.267	0.437	413.704	0.0204324190548693	draw_card	0.437	columbia_card_task_fmri	16.0	0.8333333333333334	89.0	-80.0	0.1666666666666666	16.0	5.0	2.0	2.947039578584977	0.437	n/a	stim	poldrack-single-stim	s513	False	1
413.707	0.75	414.457	-1.434113035490589	draw_card	0.75	columbia_card_task_fmri	16.0	0.8181818181818181	89.0	-80.0	0.1818181818181818	16.0	6.0	2.0	4.196634101996139	0.75	n/a	stim	poldrack-single-stim	s513	False	1
414.46	0.751	415.211	-3.179567580945132	draw_card	0.751	columbia_card_task_fmri	16.0	0.8	89.0	-80.0	0.2	16.0	7.0	2.0	5.569951540061986	0.751	n/a	stim	poldrack-single-stim	s513	False	1
415.215	1.362	416.577	-5.312900914278466	end_round	1.362	columbia_card_task_fmri	16.0	0.7777777777777778	71.0	-80.0	0.2222222222222222	16.0	8.0	2.0	7.080963459846849	1.362	7.0	stim	poldrack-single-stim	s513	False	1
417.332	1.5	416.581	n/a	-1.0	2.318	columbia_card_task_fmri	n/a	n/a	-1.0	n/a	n/a	n/a	n/a	n/a	n/a	n/a	n/a	ITI	poldrack-single-stim	s513	False	0
418.903	1.197	420.1	1.2079324190548677	end_round	1.197	columbia_card_task_fmri	4.0	0.6875	71.0	-5.0	0.3125	16.0	1.0	5.0	-28.6583922085686	1.197	0.0	stim	poldrack-single-stim	s513	False	1
420.856	1.5	420.105	n/a	-1.0	2.386	columbia_card_task_fmri	n/a	n/a	-1.0	n/a	n/a	n/a	n/a	n/a	n/a	n/a	n/a	ITI	poldrack-single-stim	s513	False	0
422.496	1.414	423.91	-1.6462342476117968	draw_card	1.414	columbia_card_task_fmri	14.0	0.8333333333333334	89.0	-80.0	0.1666666666666666	6.0	1.0	1.0	2.201683710223584	1.414	n/a	stim	poldrack-single-stim	s513	False	1
423.914	0.438	424.352	-4.779567580945131	end_round	0.438	columbia_card_task_fmri	14.0	0.8	71.0	-80.0	0.2	6.0	2.0	1.0	4.769951655721243	0.438	1.0	stim	poldrack-single-stim	s513	False	1
425.108	1.5	424.357	n/a	-1.0	2.25	columbia_card_task_fmri	n/a	n/a	-1.0	n/a	n/a	n/a	n/a	n/a	n/a	n/a	n/a	ITI	poldrack-single-stim	s513	False	0
426.611	1.064	427.675	0.0204324190548675	draw_card	1.064	columbia_card_task_fmri	15.0	0.8333333333333334	89.0	-75.0	0.1666666666666666	6.0	1.0	1.0	0.7109719900526059	1.064	n/a	stim	poldrack-single-stim	s513	False	1
427.68	0.399	428.079	-2.9795675809451323	end_round	0.399	columbia_card_task_fmri	15.0	0.8	71.0	-75.0	0.2	6.0	2.0	1.0	3.169951902460994	0.399	1.0	stim	poldrack-single-stim	s513	False	1
428.834	1.5	428.083	n/a	-1.0	2.386	columbia_card_task_fmri	n/a	n/a	-1.0	n/a	n/a	n/a	n/a	n/a	n/a	n/a	n/a	ITI	poldrack-single-stim	s513	False	0
430.475	0.664	431.139	1.687099085721535	draw_card	0.664	columbia_card_task_fmri	16.0	0.8333333333333334	89.0	-70.0	0.1666666666666666	6.0	1.0	1.0	-0.7797397054831379	0.664	n/a	stim	poldrack-single-stim	s513	False	1
431.142	0.34	431.482	-1.1795675809451318	end_round	0.34	columbia_card_task_fmri	16.0	0.8	71.0	-70.0	0.2	6.0	2.0	1.0	1.5699521721532648	0.34	1.0	stim	poldrack-single-stim	s513	False	1
432.238	1.5	431.487	n/a	-1.0	2.59	columbia_card_task_fmri	n/a	n/a	-1.0	n/a	n/a	n/a	n/a	n/a	n/a	n/a	n/a	ITI	poldrack-single-stim	s513	False	0
434.082	0.505	434.587	2.270432419054868	draw_card	0.505	columbia_card_task_fmri	23.0	0.75	89.0	-60.0	0.25	8.0	1.0	2.0	3.110006169186533	0.505	n/a	stim	poldrack-single-stim	s513	False	1
434.591	0.43	435.021	-0.6938532952308442	draw_card	0.43	columbia_card_task_fmri	23.0	0.7142857142857143	89.0	-60.0	0.2857142857142857	8.0	2.0	2.0	4.665529641750034	0.43	2.0	stim	poldrack-single-stim	s513	False	0
435.776	1.5	435.025	n/a	-1.0	2.658	columbia_card_task_fmri	n/a	n/a	-1.0	n/a	n/a	n/a	n/a	n/a	n/a	n/a	n/a	ITI	poldrack-single-stim	s513	False	0
437.687	0.886	438.573	2.770432419054868	draw_card	0.886	columbia_card_task_fmri	27.0	0.75	89.0	-70.0	0.25	8.0	1.0	2.0	9.172183157401548	0.886	n/a	stim	poldrack-single-stim	s513	False	1
438.578	0.241	438.819	-0.6938532952308477	draw_card	0.241	columbia_card_task_fmri	27.0	0.7142857142857143	89.0	-70.0	0.2857142857142857	8.0	2.0	2.0	10.990084158587038	0.241	2.0	stim	poldrack-single-stim	s513	False	0
439.575	1.5	438.824	n/a	-1.0	2.386	columbia_card_task_fmri	n/a	n/a	-1.0	n/a	n/a	n/a	n/a	n/a	n/a	n/a	n/a	ITI	poldrack-single-stim	s513	False	0
441.214	1.041	442.255	-1.9795675809451307	draw_card	1.041	columbia_card_task_fmri	16.0	0.7777777777777778	89.0	-65.0	0.2222222222222222	9.0	1.0	2.0	0.8448687837756879	1.041	1.0	stim	poldrack-single-stim	s513	False	0
443.011	1.5	442.26	n/a	-1.0	2.386	columbia_card_task_fmri	n/a	n/a	-1.0	n/a	n/a	n/a	n/a	n/a	n/a	n/a	n/a	ITI	poldrack-single-stim	s513	False	0
444.651	0.487	445.138	3.2204324190548688	draw_card	0.487	columbia_card_task_fmri	13.0	0.9	89.0	-85.0	0.1	10.0	1.0	1.0	-3.430046795861045	0.487	1.0	stim	poldrack-single-stim	s513	False	0
445.894	1.5	445.143	n/a	-1.0	2.25	columbia_card_task_fmri	n/a	n/a	-1.0	n/a	n/a	n/a	n/a	n/a	n/a	n/a	n/a	ITI	poldrack-single-stim	s513	False	0
447.398	0.474	447.872	-1.7795675809451317	draw_card	0.474	columbia_card_task_fmri	14.0	0.8	89.0	-65.0	0.2	10.0	1.0	2.0	-1.2300472901691144	0.474	n/a	stim	poldrack-single-stim	s513	False	1
447.875	1.213	449.088	-3.535123136500686	draw_card	1.213	columbia_card_task_fmri	14.0	0.7777777777777778	89.0	-65.0	0.2222222222222222	10.0	2.0	2.0	0.013389521422539	1.213	2.0	stim	poldrack-single-stim	s513	False	0
449.844	1.5	449.093	n/a	-1.0	2.318	columbia_card_task_fmri	n/a	n/a	-1.0	n/a	n/a	n/a	n/a	n/a	n/a	n/a	n/a	ITI	poldrack-single-stim	s513	False	0
451.416	0.354	451.77	-0.379567580945131	draw_card	0.354	columbia_card_task_fmri	17.0	0.8	89.0	-70.0	0.2	10.0	1.0	2.0	1.9699521024052584	0.354	n/a	stim	poldrack-single-stim	s513	False	1
451.774	1.406	453.18	-2.3129009142784644	draw_card	1.406	columbia_card_task_fmri	17.0	0.7777777777777778	89.0	-70.0	0.2222222222222222	10.0	2.0	2.0	3.339306614126152	1.406	n/a	stim	poldrack-single-stim	s513	False	1
453.185	1.066	454.251	-4.729567580945132	draw_card	1.066	columbia_card_task_fmri	17.0	0.75	89.0	-70.0	0.25	10.0	3.0	2.0	4.842056709718385	1.066	n/a	stim	poldrack-single-stim	s513	False	1
454.254	0.831	455.085	-7.83671043808799	draw_card	0.831	columbia_card_task_fmri	17.0	0.7142857142857143	89.0	-70.0	0.2857142857142857	10.0	4.0	2.0	6.472545191601668	0.831	4.0	stim	poldrack-single-stim	s513	False	0
455.842	1.5	455.091	n/a	-1.0	2.25	columbia_card_task_fmri	n/a	n/a	-1.0	n/a	n/a	n/a	n/a	n/a	n/a	n/a	n/a	ITI	poldrack-single-stim	s513	False	0
457.346	0.681	458.027	-1.6462342476117986	draw_card	0.681	columbia_card_task_fmri	13.0	0.8333333333333334	89.0	-75.0	0.1666666666666666	12.0	1.0	2.0	-0.0343838610046347	0.681	1.0	stim	poldrack-single-stim	s513	False	0
458.782	1.5	458.031	n/a	-1.0	2.25	columbia_card_task_fmri	n/a	n/a	-1.0	n/a	n/a	n/a	n/a	n/a	n/a	n/a	n/a	ITI	poldrack-single-stim	s513	False	0
460.287	0.684	460.971	0.0204324190548693	draw_card	0.684	columbia_card_task_fmri	14.0	0.8333333333333334	89.0	-70.0	0.1666666666666666	12.0	1.0	2.0	-1.5250955429130144	0.684	n/a	stim	poldrack-single-stim	s513	False	1
460.975	0.7	461.675	-1.2522948536724077	end_round	0.7	columbia_card_task_fmri	14.0	0.8181818181818181	71.0	-70.0	0.1818181818181818	12.0	2.0	2.0	-0.4317003876709009	0.7	1.0	stim	poldrack-single-stim	s513	False	1
462.431	1.5	461.68	n/a	-1.0	2.386	columbia_card_task_fmri	n/a	n/a	-1.0	n/a	n/a	n/a	n/a	n/a	n/a	n/a	n/a	ITI	poldrack-single-stim	s513	False	0
464.072	0.878	464.95	0.0204324190548693	draw_card	0.878	columbia_card_task_fmri	16.0	0.8333333333333334	89.0	-80.0	0.1666666666666666	12.0	1.0	2.0	2.947039578584977	0.878	n/a	stim	poldrack-single-stim	s513	False	1
464.954	0.997	465.951	-1.434113035490589	draw_card	0.997	columbia_card_task_fmri	16.0	0.8181818181818181	89.0	-80.0	0.1818181818181818	12.0	2.0	2.0	4.196634101996139	0.997	2.0	stim	poldrack-single-stim	s513	False	0
466.707	1.5	465.956	n/a	-1.0	2.386	columbia_card_task_fmri	n/a	n/a	-1.0	n/a	n/a	n/a	n/a	n/a	n/a	n/a	n/a	ITI	poldrack-single-stim	s513	False	0
468.348	2.78	471.128	-0.1795675809451317	draw_card	2.78	columbia_card_task_fmri	16.0	0.8	89.0	-65.0	0.2	15.0	1.0	3.0	-0.4300474532741347	2.78	n/a	stim	poldrack-single-stim	s513	False	1
471.133	0.521	471.654	-1.3367104380879884	end_round	0.521	columbia_card_task_fmri	16.0	0.7857142857142857	71.0	-65.0	0.2142857142857142	15.0	2.0	3.0	0.4063505538515244	0.521	1.0	stim	poldrack-single-stim	s513	False	1
472.408	1.5	471.657	n/a	-1.0	2.726	columbia_card_task_fmri	n/a	n/a	-1.0	n/a	n/a	n/a	n/a	n/a	n/a	n/a	n/a	ITI	poldrack-single-stim	s513	False	0
474.389	1.644	476.033	-1.8545675809451323	draw_card	1.644	columbia_card_task_fmri	15.0	0.8125	89.0	-75.0	0.1875	16.0	1.0	3.0	2.298065787368941	1.644	n/a	stim	poldrack-single-stim	s513	False	1
476.036	2.55	478.586	-2.9795675809451323	end_round	2.55	columbia_card_task_fmri	15.0	0.8	71.0	-75.0	0.2	16.0	2.0	3.0	3.169951902460994	2.55	1.0	stim	poldrack-single-stim	s513	False	1
479.341	1.5	478.59	n/a	-1.0	2.454	columbia_card_task_fmri	n/a	n/a	-1.0	n/a	n/a	n/a	n/a	n/a	n/a	n/a	n/a	ITI	poldrack-single-stim	s513	False	0
481.049	0.847	481.896	-1.2920675809451323	draw_card	0.847	columbia_card_task_fmri	14.0	0.6875	89.0	-35.0	0.3125	16.0	1.0	5.0	-10.11793683842028	0.847	n/a	stim	poldrack-single-stim	s513	False	1
481.902	2.12	484.022	-2.3129009142784644	end_round	2.12	columbia_card_task_fmri	14.0	0.6666666666666667	71.0	-35.0	0.3333333333333333	16.0	2.0	5.0	-9.731223340259351	2.12	1.0	stim	poldrack-single-stim	s513	False	1
484.778	1.5	484.027	n/a	-1.0	2.318	columbia_card_task_fmri	n/a	n/a	-1.0	n/a	n/a	n/a	n/a	n/a	n/a	n/a	n/a	ITI	poldrack-single-stim	s513	False	0
486.351	2.628	488.979	3.887099085721535	draw_card	2.628	columbia_card_task_fmri	16.0	0.8666666666666667	89.0	-75.0	0.1333333333333333	15.0	1.0	2.0	-1.8959954321642272	2.628	n/a	stim	poldrack-single-stim	s513	False	1
488.983	0.498	489.481	3.020432419054869	draw_card	0.498	columbia_card_task_fmri	16.0	0.8571428571428572	89.0	-75.0	0.1428571428571428	15.0	2.0	2.0	-0.9866806844730434	0.498	n/a	stim	poldrack-single-stim	s513	False	1
489.486	0.435	489.921	2.020432419054868	draw_card	0.435	columbia_card_task_fmri	16.0	0.8461538461538461	89.0	-75.0	0.1538461538461538	15.0	3.0	2.0	0.0028627805419034	0.435	n/a	stim	poldrack-single-stim	s513	False	1
489.926	0.657	490.583	0.8537657523882015	end_round	0.657	columbia_card_task_fmri	16.0	0.8333333333333334	71.0	-75.0	0.1666666666666666	15.0	4.0	2.0	1.0836499179126946	0.657	3.0	stim	poldrack-single-stim	s513	False	1
491.339	1.5	490.588	n/a	-1.0	2.318	columbia_card_task_fmri	n/a	n/a	-1.0	n/a	n/a	n/a	n/a	n/a	n/a	n/a	n/a	ITI	poldrack-single-stim	s513	False	0
492.912	0.469	493.381	4.553765752388201	draw_card	0.469	columbia_card_task_fmri	16.0	0.8666666666666667	89.0	-70.0	0.1333333333333333	15.0	1.0	2.0	-3.595668211038454	0.469	n/a	stim	poldrack-single-stim	s513	False	1
493.386	0.381	493.767	3.734718133340583	draw_card	0.381	columbia_card_task_fmri	16.0	0.8571428571428572	89.0	-70.0	0.1428571428571428	15.0	2.0	2.0	-2.7363158339122187	0.381	n/a	stim	poldrack-single-stim	s513	False	1
493.772	1.948	495.72	2.789663188285636	draw_card	1.948	columbia_card_task_fmri	16.0	0.8461538461538461	89.0	-70.0	0.1538461538461538	15.0	3.0	2.0	-1.8011429112949031	1.948	n/a	stim	poldrack-single-stim	s513	False	1
495.726	1.084	496.81	1.687099085721535	draw_card	1.084	columbia_card_task_fmri	16.0	0.8333333333333334	89.0	-70.0	0.1666666666666666	15.0	4.0	2.0	-0.7797397054831379	1.084	n/a	stim	poldrack-single-stim	s513	False	1
496.815	0.494	497.309	0.3840687826912291	end_round	0.494	columbia_card_task_fmri	16.0	0.8181818181818181	71.0	-70.0	0.1818181818181818	15.0	5.0	2.0	0.339688678332287	0.494	4.0	stim	poldrack-single-stim	s513	False	1
498.065	1.5	497.314	n/a	-1.0	2.59	columbia_card_task_fmri	n/a	n/a	-1.0	n/a	n/a	n/a	n/a	n/a	n/a	n/a	n/a	ITI	poldrack-single-stim	s513	False	0
499.908	0.664	500.572	1.8954324190548677	draw_card	0.664	columbia_card_task_fmri	8.0	0.9375	89.0	-90.0	0.0625	16.0	1.0	1.0	-9.10802210090797	0.664	n/a	stim	poldrack-single-stim	s513	False	1
500.578	0.613	501.191	1.4870990857215345	draw_card	0.613	columbia_card_task_fmri	8.0	0.9333333333333332	89.0	-90.0	0.0666666666666666	16.0	2.0	1.0	-8.384550429928996	0.613	2.0	stim	poldrack-single-stim	s513	False	0
501.947	1.5	501.196	n/a	-1.0	2.726	columbia_card_task_fmri	n/a	n/a	-1.0	n/a	n/a	n/a	n/a	n/a	n/a	n/a	n/a	ITI	poldrack-single-stim	s513	False	0
503.927	1.538	505.465	3.457932419054868	draw_card	1.538	columbia_card_task_fmri	10.0	0.9375	89.0	-95.0	0.0625	16.0	1.0	1.0	-7.413592473575065	1.538	n/a	stim	poldrack-single-stim	s513	False	1
505.47	0.277	505.747	3.0204324190548686	draw_card	0.277	columbia_card_task_fmri	10.0	0.9333333333333332	89.0	-95.0	0.0666666666666666	16.0	2.0	1.0	-6.638444218705768	0.277	n/a	stim	poldrack-single-stim	s513	False	1
505.752	0.185	505.937	2.5204324190548686	draw_card	0.185	columbia_card_task_fmri	10.0	0.9285714285714286	89.0	-95.0	0.0714285714285714	16.0	3.0	1.0	-5.7884116106678825	0.185	n/a	stim	poldrack-single-stim	s513	False	1
505.942	0.187	506.129	1.9435093421317908	draw_card	0.187	columbia_card_task_fmri	10.0	0.9230769230769232	89.0	-95.0	0.0769230769230769	16.0	4.0	1.0	-4.850764159225136	0.187	n/a	stim	poldrack-single-stim	s513	False	1
506.134	0.509	506.643	1.2704324190548677	draw_card	0.509	columbia_card_task_fmri	10.0	0.9166666666666666	89.0	-95.0	0.0833333333333333	16.0	5.0	1.0	-3.809579787395865	0.509	n/a	stim	poldrack-single-stim	s513	False	1
506.647	1.41	508.057	0.4749778736003208	draw_card	1.41	columbia_card_task_fmri	10.0	0.9090909090909092	89.0	-95.0	0.0909090909090909	16.0	6.0	1.0	-2.644669315350232	1.41	n/a	stim	poldrack-single-stim	s513	False	1
508.063	0.59	508.653	-0.4795675809451324	draw_card	0.59	columbia_card_task_fmri	10.0	0.9	89.0	-95.0	0.1	16.0	7.0	1.0	-1.3300472691984666	0.59	n/a	stim	poldrack-single-stim	s513	False	1
508.658	0.523	509.181	-1.6462342476117986	draw_card	0.523	columbia_card_task_fmri	10.0	0.8888888888888888	89.0	-95.0	0.1111111111111111	16.0	8.0	1.0	0.1682688852817335	0.523	n/a	stim	poldrack-single-stim	s513	False	1
509.185	0.844	510.029	-3.1045675809451323	end_round	0.844	columbia_card_task_fmri	10.0	0.875	71.0	-95.0	0.125	16.0	9.0	1.0	1.895438072999248	0.844	8.0	stim	poldrack-single-stim	s513	False	1
510.784	1.5	510.033	n/a	-1.0	2.522	columbia_card_task_fmri	n/a	n/a	-1.0	n/a	n/a	n/a	n/a	n/a	n/a	n/a	n/a	ITI	poldrack-single-stim	s513	False	0
512.561	1.286	513.847	4.395432419054868	draw_card	1.286	columbia_card_task_fmri	15.0	0.875	89.0	-70.0	0.125	16.0	1.0	2.0	-4.71893879026247	1.286	n/a	stim	poldrack-single-stim	s513	False	1
513.851	0.37	514.221	3.6870990857215338	draw_card	0.37	columbia_card_task_fmri	15.0	0.8666666666666667	89.0	-70.0	0.1333333333333333	16.0	2.0	2.0	-3.935602761274623	0.37	n/a	stim	poldrack-single-stim	s513	False	1
514.226	0.57	514.796	2.8775752761977254	draw_card	0.57	columbia_card_task_fmri	15.0	0.8571428571428572	89.0	-70.0	0.1428571428571428	16.0	3.0	2.0	-3.0862428584195314	0.57	n/a	stim	poldrack-single-stim	s513	False	1
514.8	0.643	515.443	1.943509342131789	draw_card	0.643	columbia_card_task_fmri	15.0	0.8461538461538461	89.0	-70.0	0.1538461538461538	16.0	4.0	2.0	-2.161944044443903	0.643	n/a	stim	poldrack-single-stim	s513	False	1
515.448	0.4	515.848	0.8537657523882015	end_round	0.4	columbia_card_task_fmri	15.0	0.8333333333333334	71.0	-70.0	0.1666666666666666	16.0	5.0	2.0	-1.1524176251102567	0.4	4.0	stim	poldrack-single-stim	s513	False	1
516.604	1.5	515.853	n/a	-1.0	3.134	columbia_card_task_fmri	n/a	n/a	-1.0	n/a	n/a	n/a	n/a	n/a	n/a	n/a	n/a	ITI	poldrack-single-stim	s513	False	0
518.993	0.686	519.679	3.395432419054868	draw_card	0.686	columbia_card_task_fmri	16.0	0.875	89.0	-85.0	0.125	16.0	1.0	2.0	0.5725626555342487	0.686	n/a	stim	poldrack-single-stim	s513	False	1
519.684	0.237	519.921	2.553765752388201	draw_card	0.237	columbia_card_task_fmri	16.0	0.8666666666666667	89.0	-85.0	0.1333333333333333	16.0	2.0	2.0	1.5033502421158929	0.237	2.0	stim	poldrack-single-stim	s513	False	0
520.679	1.5	519.928	n/a	-1.0	2.386	columbia_card_task_fmri	n/a	n/a	-1.0	n/a	n/a	n/a	n/a	n/a	n/a	n/a	n/a	ITI	poldrack-single-stim	s513	False	0
