onset	duration	movement_onset	CTI	block_duration	correct	correct_response	cue	cue_switch	experiment_exp_id	key_press	response_time	stim_color	stim_number	switch_type	task	task_switch	trial_id	trial_type	worker_id	first_trial_of_block	junk
3.613	1.0	5.098	0.1	2.272	True	89.0	Color	stay	twobytwo	89.0	1.385	orange	4.0	cue_stay	color	stay	stim	poldrack-single-stim	s513	1	False
5.992	1.0	7.112	0.1	2.136	True	71.0	High-Low	n/a	twobytwo	71.0	1.02	blue	7.0	task_switch	magnitude	switch	stim	poldrack-single-stim	s513	0	False
8.233	1.0	10.183	0.1	2.0	True	89.0	Magnitude	switch	twobytwo	89.0	1.85	orange	3.0	cue_switch	magnitude	stay	stim	poldrack-single-stim	s513	0	False
10.338	1.0	12.19	0.1	2.0	True	71.0	Orange-Blue	n/a	twobytwo	71.0	1.752	blue	9.0	task_switch	color	switch	stim	poldrack-single-stim	s513	0	False
13.244	1.0	14.747	0.9	2.136	True	89.0	Magnitude	n/a	twobytwo	89.0	0.603	orange	3.0	task_switch	magnitude	switch	stim	poldrack-single-stim	s513	0	False
16.285	1.0	17.772	0.9	2.0	True	89.0	Color	n/a	twobytwo	89.0	0.587	orange	8.0	task_switch	color	switch	stim	poldrack-single-stim	s513	0	False
18.389	1.0	19.321	0.1	2.136	True	89.0	Magnitude	n/a	twobytwo	89.0	0.832	orange	3.0	task_switch	magnitude	switch	stim	poldrack-single-stim	s513	0	False
21.431	1.0	22.892	0.9	2.408	True	71.0	Magnitude	stay	twobytwo	71.0	0.561	blue	9.0	cue_stay	magnitude	stay	stim	poldrack-single-stim	s513	0	False
23.944	1.0	25.201	0.1	2.136	True	89.0	Color	n/a	twobytwo	89.0	1.157	orange	7.0	task_switch	color	switch	stim	poldrack-single-stim	s513	0	False
26.187	1.0	27.469	0.1	2.0	True	89.0	Magnitude	n/a	twobytwo	89.0	1.182	orange	4.0	task_switch	magnitude	switch	stim	poldrack-single-stim	s513	0	False
28.29	1.0	29.814	0.1	2.136	True	89.0	Color	n/a	twobytwo	89.0	1.424	orange	9.0	task_switch	color	switch	stim	poldrack-single-stim	s513	0	False
31.331	1.0	32.81	0.9	2.272	True	89.0	Color	stay	twobytwo	89.0	0.579	orange	2.0	cue_stay	color	stay	stim	poldrack-single-stim	s513	0	False
34.509	1.0	36.167	0.9	2.0	True	89.0	Magnitude	n/a	twobytwo	89.0	0.758	orange	4.0	task_switch	magnitude	switch	stim	poldrack-single-stim	s513	0	False
37.414	1.0	39.886	0.9	2.408	False	71.0	Color	n/a	twobytwo	89.0	1.572	blue	7.0	task_switch	color	switch	stim	poldrack-single-stim	s513	0	False
40.726	1.0	42.945	0.9	2.0	True	89.0	Orange-Blue	switch	twobytwo	89.0	1.319	orange	8.0	cue_switch	color	stay	stim	poldrack-single-stim	s513	0	False
42.83	1.0	44.271	0.1	2.136	True	71.0	Magnitude	n/a	twobytwo	71.0	1.341	orange	6.0	task_switch	magnitude	switch	stim	poldrack-single-stim	s513	0	False
45.07	1.0	45.882	0.1	2.408	False	89.0	Color	n/a	twobytwo	71.0	0.712	orange	6.0	task_switch	color	switch	stim	poldrack-single-stim	s513	0	False
48.382	1.0	49.964	0.9	2.136	True	89.0	Magnitude	n/a	twobytwo	89.0	0.682	orange	4.0	task_switch	magnitude	switch	stim	poldrack-single-stim	s513	0	False
51.423	1.0	54.035	0.9	2.408	True	89.0	Color	n/a	twobytwo	89.0	1.712	orange	4.0	task_switch	color	switch	stim	poldrack-single-stim	s513	0	False
54.736	1.0	57.19	0.9	2.136	True	89.0	Magnitude	n/a	twobytwo	89.0	1.554	blue	2.0	task_switch	magnitude	switch	stim	poldrack-single-stim	s513	0	False
56.977	1.0	58.718	0.1	2.0	True	71.0	High-Low	switch	twobytwo	71.0	1.641	blue	6.0	cue_switch	magnitude	stay	stim	poldrack-single-stim	s513	0	False
59.082	1.0	60.787	0.1	2.272	True	71.0	High-Low	stay	twobytwo	71.0	1.605	blue	7.0	cue_stay	magnitude	stay	stim	poldrack-single-stim	s513	0	False
62.26	1.0	64.141	0.9	2.0	True	89.0	Color	n/a	twobytwo	89.0	0.981	orange	1.0	task_switch	color	switch	stim	poldrack-single-stim	s513	0	False
64.364	1.0	66.096	0.1	2.272	True	89.0	Magnitude	n/a	twobytwo	89.0	1.632	blue	1.0	task_switch	magnitude	switch	stim	poldrack-single-stim	s513	0	False
66.742	1.0	69.08	0.1	2.272	True	71.0	High-Low	switch	twobytwo	71.0	2.238	orange	8.0	cue_switch	magnitude	stay	stim	poldrack-single-stim	s513	0	False
69.119	1.0	70.081	0.1	2.952	True	71.0	Magnitude	switch	twobytwo	71.0	0.862	blue	9.0	cue_switch	magnitude	stay	stim	poldrack-single-stim	s513	0	False
72.975	1.0	75.464	0.9	2.68	True	71.0	Magnitude	stay	twobytwo	71.0	1.589	orange	8.0	cue_stay	magnitude	stay	stim	poldrack-single-stim	s513	0	False
75.759	1.0	77.074	0.1	2.136	True	89.0	Magnitude	stay	twobytwo	89.0	1.215	blue	4.0	cue_stay	magnitude	stay	stim	poldrack-single-stim	s513	0	False
78.8	1.0	80.574	0.9	2.272	True	89.0	Magnitude	stay	twobytwo	89.0	0.874	orange	1.0	cue_stay	magnitude	stay	stim	poldrack-single-stim	s513	0	False
81.978	1.0	83.407	0.9	2.272	True	71.0	High-Low	switch	twobytwo	71.0	0.529	blue	8.0	cue_switch	magnitude	stay	stim	poldrack-single-stim	s513	0	False
84.356	1.0	86.201	0.1	2.136	True	71.0	Orange-Blue	n/a	twobytwo	71.0	1.745	blue	8.0	task_switch	color	switch	stim	poldrack-single-stim	s513	0	False
87.397	1.0	90.622	0.9	2.408	True	89.0	Color	switch	twobytwo	89.0	2.325	orange	6.0	cue_switch	color	stay	stim	poldrack-single-stim	s513	0	False
89.909	1.0	90.899	0.1	2.136	True	89.0	Orange-Blue	switch	twobytwo	89.0	0.89	orange	7.0	cue_switch	color	stay	stim	poldrack-single-stim	s513	0	False
92.149	1.0	93.707	0.1	2.136	True	71.0	Color	switch	twobytwo	71.0	1.458	blue	1.0	cue_switch	color	stay	stim	poldrack-single-stim	s513	0	False
95.191	1.0	97.561	0.9	2.0	True	89.0	Orange-Blue	switch	twobytwo	89.0	1.47	orange	1.0	cue_switch	color	stay	stim	poldrack-single-stim	s513	0	False
98.096	1.0	99.833	0.9	2.0	True	71.0	Orange-Blue	stay	twobytwo	71.0	0.837	blue	9.0	cue_stay	color	stay	stim	poldrack-single-stim	s513	0	False
100.202	1.0	100.201	0.1	2.0	False	89.0	Color	switch	twobytwo	-1.0	n/a	orange	6.0	cue_switch	color	stay	stim	poldrack-single-stim	s513	0	False
103.107	1.0	104.543	0.9	2.0	True	89.0	Orange-Blue	switch	twobytwo	89.0	0.536	orange	9.0	cue_switch	color	stay	stim	poldrack-single-stim	s513	0	False
106.012	1.0	107.662	0.9	2.0	True	89.0	Color	switch	twobytwo	89.0	0.75	orange	3.0	cue_switch	color	stay	stim	poldrack-single-stim	s513	0	False
108.917	1.0	110.772	0.9	2.272	True	89.0	Orange-Blue	switch	twobytwo	89.0	0.955	orange	8.0	cue_switch	color	stay	stim	poldrack-single-stim	s513	0	False
112.095	1.0	114.511	0.9	2.408	True	71.0	Color	switch	twobytwo	71.0	1.516	blue	3.0	cue_switch	color	stay	stim	poldrack-single-stim	s513	0	False
115.408	1.0	117.1	0.9	2.0	True	71.0	Color	stay	twobytwo	71.0	0.792	blue	3.0	cue_stay	color	stay	stim	poldrack-single-stim	s513	0	False
117.513	1.0	119.056	0.1	2.136	True	89.0	High-Low	n/a	twobytwo	89.0	1.443	orange	2.0	task_switch	magnitude	switch	stim	poldrack-single-stim	s513	0	False
120.555	1.0	120.554	0.9	2.0	False	89.0	Magnitude	switch	twobytwo	-1.0	n/a	blue	4.0	cue_switch	magnitude	stay	stim	poldrack-single-stim	s513	0	False
123.459	1.0	125.32	0.9	2.136	True	71.0	Color	n/a	twobytwo	71.0	0.961	blue	9.0	task_switch	color	switch	stim	poldrack-single-stim	s513	0	False
126.5	1.0	128.533	0.9	2.544	True	71.0	High-Low	n/a	twobytwo	71.0	1.133	blue	9.0	task_switch	magnitude	switch	stim	poldrack-single-stim	s513	0	False
129.948	1.0	131.469	0.9	2.68	True	71.0	Orange-Blue	n/a	twobytwo	71.0	0.621	blue	7.0	task_switch	color	switch	stim	poldrack-single-stim	s513	0	False
133.533	1.0	136.208	0.9	3.088	True	71.0	Color	switch	twobytwo	71.0	1.775	blue	7.0	cue_switch	color	stay	stim	poldrack-single-stim	s513	0	False
136.726	1.0	138.885	0.1	2.136	True	71.0	Orange-Blue	switch	twobytwo	71.0	2.059	blue	3.0	cue_switch	color	stay	stim	poldrack-single-stim	s513	0	False
139.766	1.0	141.264	0.9	2.544	True	89.0	Color	switch	twobytwo	89.0	0.598	orange	4.0	cue_switch	color	stay	stim	poldrack-single-stim	s513	0	False
142.416	1.0	143.873	0.1	2.0	True	89.0	Orange-Blue	switch	twobytwo	89.0	1.357	orange	7.0	cue_switch	color	stay	stim	poldrack-single-stim	s513	0	False
145.322	1.0	147.35	0.9	2.136	True	71.0	Magnitude	n/a	twobytwo	71.0	1.128	orange	6.0	task_switch	magnitude	switch	stim	poldrack-single-stim	s513	0	False
147.562	1.0	149.026	0.1	2.0	True	89.0	Orange-Blue	n/a	twobytwo	89.0	1.364	orange	9.0	task_switch	color	switch	stim	poldrack-single-stim	s513	0	False
149.666	1.0	151.577	0.1	2.408	True	89.0	High-Low	n/a	twobytwo	89.0	1.811	blue	4.0	task_switch	magnitude	switch	stim	poldrack-single-stim	s513	0	False
152.979	1.0	154.428	0.9	2.0	True	71.0	Magnitude	switch	twobytwo	71.0	0.549	blue	8.0	cue_switch	magnitude	stay	stim	poldrack-single-stim	s513	0	False
155.084	1.0	156.914	0.1	2.0	False	71.0	Magnitude	stay	twobytwo	89.0	1.73	orange	9.0	cue_stay	magnitude	stay	stim	poldrack-single-stim	s513	0	False
157.189	1.0	158.487	0.1	2.0	True	89.0	Orange-Blue	n/a	twobytwo	89.0	1.198	orange	1.0	task_switch	color	switch	stim	poldrack-single-stim	s513	0	False
160.093	1.0	162.56	0.9	2.68	True	89.0	Orange-Blue	stay	twobytwo	89.0	1.567	orange	7.0	cue_stay	color	stay	stim	poldrack-single-stim	s513	0	False
162.879	1.0	164.549	0.1	2.272	False	71.0	Color	switch	twobytwo	89.0	1.57	blue	7.0	cue_switch	color	stay	stim	poldrack-single-stim	s513	0	False
165.255	1.0	166.351	0.1	2.408	True	89.0	Color	stay	twobytwo	89.0	0.996	orange	3.0	cue_stay	color	stay	stim	poldrack-single-stim	s513	0	False
168.568	1.0	170.442	0.9	3.224	True	71.0	Color	stay	twobytwo	71.0	0.974	blue	6.0	cue_stay	color	stay	stim	poldrack-single-stim	s513	0	False
171.896	1.0	173.151	0.1	2.408	True	71.0	High-Low	n/a	twobytwo	71.0	1.155	blue	6.0	task_switch	magnitude	switch	stim	poldrack-single-stim	s513	0	False
175.209	1.0	176.778	0.9	2.816	True	71.0	Orange-Blue	n/a	twobytwo	71.0	0.669	blue	9.0	task_switch	color	switch	stim	poldrack-single-stim	s513	0	False
178.13	1.0	179.439	0.1	2.408	True	89.0	High-Low	n/a	twobytwo	89.0	1.209	orange	4.0	task_switch	magnitude	switch	stim	poldrack-single-stim	s513	0	False
180.643	1.0	182.272	0.1	2.136	True	71.0	Orange-Blue	n/a	twobytwo	71.0	1.529	blue	8.0	task_switch	color	switch	stim	poldrack-single-stim	s513	0	False
183.683	1.0	185.484	0.9	2.136	True	71.0	Orange-Blue	stay	twobytwo	71.0	0.901	blue	9.0	cue_stay	color	stay	stim	poldrack-single-stim	s513	0	False
186.724	1.0	188.336	0.9	2.0	True	71.0	Color	switch	twobytwo	71.0	0.712	blue	7.0	cue_switch	color	stay	stim	poldrack-single-stim	s513	0	False
189.629	1.0	191.329	0.9	2.0	True	71.0	Orange-Blue	switch	twobytwo	71.0	0.8	blue	9.0	cue_switch	color	stay	stim	poldrack-single-stim	s513	0	False
192.537	1.0	195.346	0.9	2.272	True	89.0	Magnitude	n/a	twobytwo	89.0	1.909	orange	2.0	task_switch	magnitude	switch	stim	poldrack-single-stim	s513	0	False
195.715	1.0	197.976	0.9	2.408	True	89.0	Orange-Blue	n/a	twobytwo	89.0	1.361	orange	3.0	task_switch	color	switch	stim	poldrack-single-stim	s513	0	False
198.227	1.0	198.226	0.1	2.0	False	89.0	Magnitude	n/a	twobytwo	-1.0	n/a	orange	3.0	task_switch	magnitude	switch	stim	poldrack-single-stim	s513	0	False
200.332	1.0	201.103	0.1	2.136	True	89.0	High-Low	switch	twobytwo	89.0	0.671	orange	1.0	cue_switch	magnitude	stay	stim	poldrack-single-stim	s513	0	False
202.574	1.0	203.35	0.1	2.0	False	89.0	Orange-Blue	n/a	twobytwo	71.0	0.676	orange	6.0	task_switch	color	switch	stim	poldrack-single-stim	s513	0	False
204.68	1.0	205.701	0.1	2.408	True	89.0	Magnitude	n/a	twobytwo	89.0	0.921	orange	2.0	task_switch	magnitude	switch	stim	poldrack-single-stim	s513	0	False
207.192	1.0	208.696	0.1	2.272	True	71.0	High-Low	switch	twobytwo	71.0	1.404	blue	7.0	cue_switch	magnitude	stay	stim	poldrack-single-stim	s513	0	False
210.369	1.0	211.997	0.9	2.0	True	89.0	Orange-Blue	n/a	twobytwo	89.0	0.728	orange	3.0	task_switch	color	switch	stim	poldrack-single-stim	s513	0	False
212.474	1.0	212.473	0.1	2.272	False	89.0	Color	switch	twobytwo	-1.0	n/a	orange	9.0	cue_switch	color	stay	stim	poldrack-single-stim	s513	0	False
215.651	1.0	217.159	0.9	2.0	True	71.0	Magnitude	n/a	twobytwo	71.0	0.608	blue	7.0	task_switch	magnitude	switch	stim	poldrack-single-stim	s513	0	False
217.756	1.0	217.755	0.1	2.0	False	71.0	Orange-Blue	n/a	twobytwo	-1.0	n/a	blue	4.0	task_switch	color	switch	stim	poldrack-single-stim	s513	0	False
220.661	1.0	222.193	0.9	2.272	True	89.0	Orange-Blue	stay	twobytwo	89.0	0.632	orange	4.0	cue_stay	color	stay	stim	poldrack-single-stim	s513	0	False
236.548	1.0	237.538	0.1	2.136	True	89.0	Orange-Blue	stay	twobytwo	89.0	0.89	orange	4.0	cue_stay	color	stay	stim	poldrack-single-stim	s513	1	False
238.788	1.0	240.521	0.1	2.0	True	71.0	Magnitude	n/a	twobytwo	71.0	1.633	blue	7.0	task_switch	magnitude	switch	stim	poldrack-single-stim	s513	0	False
240.893	1.0	242.612	0.1	2.0	True	89.0	High-Low	switch	twobytwo	89.0	1.619	orange	3.0	cue_switch	magnitude	stay	stim	poldrack-single-stim	s513	0	False
242.998	1.0	244.208	0.1	2.0	True	71.0	Color	n/a	twobytwo	71.0	1.11	blue	9.0	task_switch	color	switch	stim	poldrack-single-stim	s513	0	False
245.903	1.0	247.548	0.9	2.0	True	89.0	High-Low	n/a	twobytwo	89.0	0.745	orange	3.0	task_switch	magnitude	switch	stim	poldrack-single-stim	s513	0	False
248.807	1.0	250.413	0.9	2.0	True	89.0	Orange-Blue	n/a	twobytwo	89.0	0.706	orange	8.0	task_switch	color	switch	stim	poldrack-single-stim	s513	0	False
250.911	1.0	251.89	0.1	2.136	True	89.0	Magnitude	n/a	twobytwo	89.0	0.879	orange	3.0	task_switch	magnitude	switch	stim	poldrack-single-stim	s513	0	False
253.952	1.0	255.416	0.9	2.0	True	71.0	Magnitude	stay	twobytwo	71.0	0.564	blue	9.0	cue_stay	magnitude	stay	stim	poldrack-single-stim	s513	0	False
256.058	1.0	257.24	0.1	2.0	True	89.0	Color	n/a	twobytwo	89.0	1.082	orange	7.0	task_switch	color	switch	stim	poldrack-single-stim	s513	0	False
258.164	1.0	259.412	0.1	2.136	True	89.0	Magnitude	n/a	twobytwo	89.0	1.148	orange	4.0	task_switch	magnitude	switch	stim	poldrack-single-stim	s513	0	False
260.405	1.0	261.679	0.1	2.0	True	89.0	Orange-Blue	n/a	twobytwo	89.0	1.174	orange	9.0	task_switch	color	switch	stim	poldrack-single-stim	s513	0	False
263.311	1.0	264.715	0.9	2.136	True	89.0	Orange-Blue	stay	twobytwo	89.0	0.504	orange	2.0	cue_stay	color	stay	stim	poldrack-single-stim	s513	0	False
266.352	1.0	267.934	0.9	2.68	True	89.0	Magnitude	n/a	twobytwo	89.0	0.682	orange	4.0	task_switch	magnitude	switch	stim	poldrack-single-stim	s513	0	False
269.937	1.0	271.774	0.9	2.272	True	71.0	Orange-Blue	n/a	twobytwo	71.0	0.937	blue	7.0	task_switch	color	switch	stim	poldrack-single-stim	s513	0	False
273.115	1.0	275.197	0.9	2.136	True	89.0	Color	switch	twobytwo	89.0	1.182	orange	8.0	cue_switch	color	stay	stim	poldrack-single-stim	s513	0	False
275.357	1.0	276.753	0.1	2.0	False	71.0	Magnitude	n/a	twobytwo	89.0	1.296	orange	6.0	task_switch	magnitude	switch	stim	poldrack-single-stim	s513	0	False
277.461	1.0	278.656	0.1	2.136	True	89.0	Color	n/a	twobytwo	89.0	1.095	orange	6.0	task_switch	color	switch	stim	poldrack-single-stim	s513	0	False
280.502	1.0	282.82	0.9	2.68	True	89.0	Magnitude	n/a	twobytwo	89.0	1.418	orange	4.0	task_switch	magnitude	switch	stim	poldrack-single-stim	s513	0	False
284.087	1.0	286.136	0.9	2.272	True	89.0	Color	n/a	twobytwo	89.0	1.149	orange	4.0	task_switch	color	switch	stim	poldrack-single-stim	s513	0	False
287.264	1.0	289.211	0.9	2.0	True	89.0	High-Low	n/a	twobytwo	89.0	1.047	blue	2.0	task_switch	magnitude	switch	stim	poldrack-single-stim	s513	0	False
289.369	1.0	290.582	0.1	2.0	True	71.0	Magnitude	switch	twobytwo	71.0	1.113	blue	6.0	cue_switch	magnitude	stay	stim	poldrack-single-stim	s513	0	False
291.473	1.0	292.49	0.1	2.136	True	71.0	Magnitude	stay	twobytwo	71.0	0.917	blue	7.0	cue_stay	magnitude	stay	stim	poldrack-single-stim	s513	0	False
294.514	1.0	296.832	0.9	2.0	True	89.0	Color	n/a	twobytwo	89.0	1.418	orange	1.0	task_switch	color	switch	stim	poldrack-single-stim	s513	0	False
296.62	1.0	297.619	0.1	2.0	True	89.0	High-Low	n/a	twobytwo	89.0	0.899	blue	1.0	task_switch	magnitude	switch	stim	poldrack-single-stim	s513	0	False
298.725	1.0	299.648	0.1	2.0	True	71.0	Magnitude	switch	twobytwo	71.0	0.823	orange	8.0	cue_switch	magnitude	stay	stim	poldrack-single-stim	s513	0	False
300.83	1.0	301.921	0.1	2.272	True	71.0	High-Low	switch	twobytwo	71.0	0.991	blue	9.0	cue_switch	magnitude	stay	stim	poldrack-single-stim	s513	0	False
304.007	1.0	305.873	0.9	2.408	True	71.0	High-Low	stay	twobytwo	71.0	0.966	orange	8.0	cue_stay	magnitude	stay	stim	poldrack-single-stim	s513	0	False
306.52	1.0	306.519	0.1	2.0	False	89.0	High-Low	stay	twobytwo	-1.0	n/a	blue	4.0	cue_stay	magnitude	stay	stim	poldrack-single-stim	s513	0	False
309.425	1.0	311.001	0.9	2.0	True	89.0	High-Low	stay	twobytwo	89.0	0.676	orange	1.0	cue_stay	magnitude	stay	stim	poldrack-single-stim	s513	0	False
312.33	1.0	313.671	0.9	2.0	True	71.0	Magnitude	switch	twobytwo	71.0	0.441	blue	8.0	cue_switch	magnitude	stay	stim	poldrack-single-stim	s513	0	False
314.434	1.0	315.43	0.1	2.272	True	71.0	Color	n/a	twobytwo	71.0	0.896	blue	8.0	task_switch	color	switch	stim	poldrack-single-stim	s513	0	False
317.611	1.0	319.129	0.9	2.136	True	89.0	Orange-Blue	switch	twobytwo	89.0	0.618	orange	6.0	cue_switch	color	stay	stim	poldrack-single-stim	s513	0	False
319.852	1.0	321.503	0.1	2.0	True	89.0	Color	switch	twobytwo	89.0	1.551	orange	7.0	cue_switch	color	stay	stim	poldrack-single-stim	s513	0	False
321.957	1.0	323.7	0.1	2.544	True	71.0	Orange-Blue	switch	twobytwo	71.0	1.643	blue	1.0	cue_switch	color	stay	stim	poldrack-single-stim	s513	0	False
325.406	1.0	327.318	0.9	2.272	True	89.0	Color	switch	twobytwo	89.0	1.012	orange	1.0	cue_switch	color	stay	stim	poldrack-single-stim	s513	0	False
328.583	1.0	331.265	0.9	2.272	True	71.0	Color	stay	twobytwo	71.0	1.782	blue	9.0	cue_stay	color	stay	stim	poldrack-single-stim	s513	0	False
330.961	1.0	330.96	0.1	2.0	False	89.0	Orange-Blue	switch	twobytwo	-1.0	n/a	orange	6.0	cue_switch	color	stay	stim	poldrack-single-stim	s513	0	False
333.866	1.0	334.95	0.9	2.0	False	89.0	Color	switch	twobytwo	71.0	0.184	orange	9.0	cue_switch	color	stay	stim	poldrack-single-stim	s513	0	False
336.77	1.0	338.511	0.9	2.136	True	89.0	Orange-Blue	switch	twobytwo	89.0	0.841	orange	3.0	cue_switch	color	stay	stim	poldrack-single-stim	s513	0	False
339.811	1.0	341.44	0.9	2.0	True	89.0	Color	switch	twobytwo	89.0	0.729	orange	8.0	cue_switch	color	stay	stim	poldrack-single-stim	s513	0	False
342.717	1.0	344.618	0.9	2.136	True	71.0	Orange-Blue	switch	twobytwo	71.0	1.001	blue	3.0	cue_switch	color	stay	stim	poldrack-single-stim	s513	0	False
345.758	1.0	347.3	0.9	2.272	True	71.0	Orange-Blue	stay	twobytwo	71.0	0.642	blue	3.0	cue_stay	color	stay	stim	poldrack-single-stim	s513	0	False
348.136	1.0	349.156	0.1	2.136	True	89.0	Magnitude	n/a	twobytwo	89.0	0.92	orange	2.0	task_switch	magnitude	switch	stim	poldrack-single-stim	s513	0	False
351.178	1.0	353.385	0.9	2.272	False	89.0	High-Low	switch	twobytwo	71.0	1.307	blue	4.0	cue_switch	magnitude	stay	stim	poldrack-single-stim	s513	0	False
354.355	1.0	355.959	0.9	2.0	True	71.0	Color	n/a	twobytwo	71.0	0.704	blue	9.0	task_switch	color	switch	stim	poldrack-single-stim	s513	0	False
357.259	1.0	359.222	0.9	2.816	True	71.0	Magnitude	n/a	twobytwo	71.0	1.063	blue	9.0	task_switch	magnitude	switch	stim	poldrack-single-stim	s513	0	False
360.979	1.0	363.318	0.9	2.408	True	71.0	Orange-Blue	n/a	twobytwo	71.0	1.439	blue	7.0	task_switch	color	switch	stim	poldrack-single-stim	s513	0	False
364.292	1.0	365.996	0.9	2.0	True	71.0	Color	switch	twobytwo	71.0	0.804	blue	7.0	cue_switch	color	stay	stim	poldrack-single-stim	s513	0	False
366.397	1.0	367.867	0.1	2.544	True	71.0	Orange-Blue	switch	twobytwo	71.0	1.37	blue	3.0	cue_switch	color	stay	stim	poldrack-single-stim	s513	0	False
369.846	1.0	371.567	0.9	2.136	True	89.0	Color	switch	twobytwo	89.0	0.821	orange	4.0	cue_switch	color	stay	stim	poldrack-single-stim	s513	0	False
372.088	1.0	373.631	0.1	2.0	True	89.0	Orange-Blue	switch	twobytwo	89.0	1.443	orange	7.0	cue_switch	color	stay	stim	poldrack-single-stim	s513	0	False
374.993	1.0	376.666	0.9	2.0	True	71.0	High-Low	n/a	twobytwo	71.0	0.773	orange	6.0	task_switch	magnitude	switch	stim	poldrack-single-stim	s513	0	False
377.099	1.0	378.603	0.1	2.136	False	89.0	Orange-Blue	n/a	twobytwo	71.0	1.404	orange	9.0	task_switch	color	switch	stim	poldrack-single-stim	s513	0	False
379.34	1.0	381.037	0.1	2.136	True	89.0	High-Low	n/a	twobytwo	89.0	1.597	blue	4.0	task_switch	magnitude	switch	stim	poldrack-single-stim	s513	0	False
382.382	1.0	383.826	0.9	2.272	True	71.0	Magnitude	switch	twobytwo	71.0	0.544	blue	8.0	cue_switch	magnitude	stay	stim	poldrack-single-stim	s513	0	False
384.761	1.0	386.304	0.1	3.224	True	71.0	Magnitude	stay	twobytwo	71.0	1.443	orange	9.0	cue_stay	magnitude	stay	stim	poldrack-single-stim	s513	0	False
388.09	1.0	388.089	0.1	2.0	False	89.0	Orange-Blue	n/a	twobytwo	-1.0	n/a	orange	1.0	task_switch	color	switch	stim	poldrack-single-stim	s513	0	False
390.996	1.0	393.583	0.9	2.0	True	89.0	Orange-Blue	stay	twobytwo	89.0	1.687	orange	7.0	cue_stay	color	stay	stim	poldrack-single-stim	s513	0	False
393.101	1.0	394.646	0.1	2.272	True	71.0	Color	switch	twobytwo	71.0	1.445	blue	7.0	cue_switch	color	stay	stim	poldrack-single-stim	s513	0	False
395.48	1.0	396.7	0.1	2.136	False	89.0	Color	stay	twobytwo	71.0	1.12	orange	3.0	cue_stay	color	stay	stim	poldrack-single-stim	s513	0	False
398.52	1.0	398.519	0.9	2.0	False	71.0	Color	stay	twobytwo	-1.0	n/a	blue	6.0	cue_stay	color	stay	stim	poldrack-single-stim	s513	0	False
400.625	1.0	400.956	0.1	2.0	True	71.0	High-Low	n/a	twobytwo	71.0	0.231	blue	6.0	task_switch	magnitude	switch	stim	poldrack-single-stim	s513	0	False
403.528	1.0	405.835	0.9	2.0	True	71.0	Color	n/a	twobytwo	71.0	1.407	blue	9.0	task_switch	color	switch	stim	poldrack-single-stim	s513	0	False
405.634	1.0	407.56	0.1	2.68	True	89.0	High-Low	n/a	twobytwo	89.0	1.826	orange	4.0	task_switch	magnitude	switch	stim	poldrack-single-stim	s513	0	False
408.418	1.0	409.615	0.1	2.0	True	71.0	Orange-Blue	n/a	twobytwo	71.0	1.097	blue	8.0	task_switch	color	switch	stim	poldrack-single-stim	s513	0	False
411.323	1.0	412.895	0.9	2.272	True	71.0	Orange-Blue	stay	twobytwo	71.0	0.672	blue	9.0	cue_stay	color	stay	stim	poldrack-single-stim	s513	0	False
414.5	1.0	415.892	0.9	2.0	True	71.0	Color	switch	twobytwo	71.0	0.492	blue	7.0	cue_switch	color	stay	stim	poldrack-single-stim	s513	0	False
417.405	1.0	419.872	0.9	2.272	True	71.0	Orange-Blue	switch	twobytwo	71.0	1.567	blue	9.0	cue_switch	color	stay	stim	poldrack-single-stim	s513	0	False
420.581	1.0	422.259	0.9	2.952	True	89.0	High-Low	n/a	twobytwo	89.0	0.778	orange	2.0	task_switch	magnitude	switch	stim	poldrack-single-stim	s513	0	False
424.439	1.0	424.438	0.9	2.0	False	89.0	Orange-Blue	n/a	twobytwo	-1.0	n/a	orange	3.0	task_switch	color	switch	stim	poldrack-single-stim	s513	0	False
426.544	1.0	426.678	0.1	2.0	True	89.0	High-Low	n/a	twobytwo	89.0	0.034	orange	3.0	task_switch	magnitude	switch	stim	poldrack-single-stim	s513	0	False
428.65	1.0	429.824	0.1	2.0	True	89.0	Magnitude	switch	twobytwo	89.0	1.074	orange	1.0	cue_switch	magnitude	stay	stim	poldrack-single-stim	s513	0	False
430.755	1.0	432.099	0.1	2.0	True	89.0	Orange-Blue	n/a	twobytwo	89.0	1.244	orange	6.0	task_switch	color	switch	stim	poldrack-single-stim	s513	0	False
432.859	1.0	434.286	0.1	2.136	True	89.0	Magnitude	n/a	twobytwo	89.0	1.327	orange	2.0	task_switch	magnitude	switch	stim	poldrack-single-stim	s513	0	False
435.1	1.0	436.044	0.1	2.0	True	71.0	High-Low	switch	twobytwo	71.0	0.844	blue	7.0	cue_switch	magnitude	stay	stim	poldrack-single-stim	s513	0	False
438.005	1.0	439.776	0.9	2.0	True	89.0	Color	n/a	twobytwo	89.0	0.871	orange	3.0	task_switch	color	switch	stim	poldrack-single-stim	s513	0	False
440.111	1.0	441.438	0.1	2.0	True	89.0	Orange-Blue	switch	twobytwo	89.0	1.227	orange	9.0	cue_switch	color	stay	stim	poldrack-single-stim	s513	0	False
443.016	1.0	445.061	0.9	2.272	True	71.0	High-Low	n/a	twobytwo	71.0	1.145	blue	7.0	task_switch	magnitude	switch	stim	poldrack-single-stim	s513	0	False
445.394	1.0	446.811	0.1	2.136	True	71.0	Orange-Blue	n/a	twobytwo	71.0	1.317	blue	4.0	task_switch	color	switch	stim	poldrack-single-stim	s513	0	False
448.435	1.0	450.451	0.9	2.0	True	89.0	Orange-Blue	stay	twobytwo	89.0	1.116	orange	4.0	cue_stay	color	stay	stim	poldrack-single-stim	s513	0	False
464.048	1.0	465.682	0.1	2.136	True	89.0	High-Low	stay	twobytwo	89.0	1.534	orange	4.0	cue_stay	magnitude	stay	stim	poldrack-single-stim	s513	1	False
466.289	1.0	467.432	0.1	2.816	True	71.0	Color	n/a	twobytwo	71.0	1.043	blue	7.0	task_switch	color	switch	stim	poldrack-single-stim	s513	0	False
469.21	1.0	469.209	0.1	2.408	False	89.0	Orange-Blue	switch	twobytwo	-1.0	n/a	orange	3.0	cue_switch	color	stay	stim	poldrack-single-stim	s513	0	False
471.722	1.0	472.495	0.1	2.0	True	71.0	Magnitude	n/a	twobytwo	71.0	0.673	blue	9.0	task_switch	magnitude	switch	stim	poldrack-single-stim	s513	0	False
474.628	1.0	477.516	0.9	2.136	True	89.0	Color	n/a	twobytwo	89.0	1.988	orange	3.0	task_switch	color	switch	stim	poldrack-single-stim	s513	0	False
477.669	1.0	480.029	0.9	2.136	True	71.0	Magnitude	n/a	twobytwo	71.0	1.46	orange	8.0	task_switch	magnitude	switch	stim	poldrack-single-stim	s513	0	False
479.911	1.0	481.01	0.1	2.136	True	89.0	Color	n/a	twobytwo	89.0	0.999	orange	3.0	task_switch	color	switch	stim	poldrack-single-stim	s513	0	False
482.951	1.0	484.597	0.9	2.544	True	71.0	Color	stay	twobytwo	71.0	0.746	blue	9.0	cue_stay	color	stay	stim	poldrack-single-stim	s513	0	False
485.6	1.0	486.763	0.1	2.136	True	71.0	High-Low	n/a	twobytwo	71.0	1.063	orange	7.0	task_switch	magnitude	switch	stim	poldrack-single-stim	s513	0	False
487.841	1.0	489.149	0.1	2.0	True	89.0	Color	n/a	twobytwo	89.0	1.208	orange	4.0	task_switch	color	switch	stim	poldrack-single-stim	s513	0	False
489.947	1.0	491.041	0.1	2.0	True	71.0	High-Low	n/a	twobytwo	71.0	0.994	orange	9.0	task_switch	magnitude	switch	stim	poldrack-single-stim	s513	0	False
492.852	1.0	494.822	0.9	2.0	True	89.0	High-Low	stay	twobytwo	89.0	1.07	orange	2.0	cue_stay	magnitude	stay	stim	poldrack-single-stim	s513	0	False
495.757	1.0	497.514	0.9	2.0	True	89.0	Color	n/a	twobytwo	89.0	0.857	orange	4.0	task_switch	color	switch	stim	poldrack-single-stim	s513	0	False
498.663	1.0	500.574	0.9	2.136	True	71.0	Magnitude	n/a	twobytwo	71.0	1.011	blue	7.0	task_switch	magnitude	switch	stim	poldrack-single-stim	s513	0	False
501.703	1.0	504.101	0.9	2.0	True	71.0	High-Low	switch	twobytwo	71.0	1.498	orange	8.0	cue_switch	magnitude	stay	stim	poldrack-single-stim	s513	0	False
503.808	1.0	505.179	0.1	2.0	False	89.0	Color	n/a	twobytwo	71.0	1.271	orange	6.0	task_switch	color	switch	stim	poldrack-single-stim	s513	0	False
505.913	1.0	506.677	0.1	2.0	False	71.0	Magnitude	n/a	twobytwo	89.0	0.664	orange	6.0	task_switch	magnitude	switch	stim	poldrack-single-stim	s513	0	False
508.818	1.0	510.493	0.9	2.136	True	89.0	Orange-Blue	n/a	twobytwo	89.0	0.775	orange	4.0	task_switch	color	switch	stim	poldrack-single-stim	s513	0	False
511.859	1.0	513.515	0.9	2.136	True	89.0	Magnitude	n/a	twobytwo	89.0	0.756	orange	4.0	task_switch	magnitude	switch	stim	poldrack-single-stim	s513	0	False
514.899	1.0	516.543	0.9	2.136	True	71.0	Color	n/a	twobytwo	71.0	0.744	blue	2.0	task_switch	color	switch	stim	poldrack-single-stim	s513	0	False
517.139	1.0	519.012	0.1	2.136	True	71.0	Orange-Blue	switch	twobytwo	71.0	1.773	blue	6.0	cue_switch	color	stay	stim	poldrack-single-stim	s513	0	False
519.381	1.0	520.205	0.1	2.68	True	71.0	Orange-Blue	stay	twobytwo	71.0	0.724	blue	7.0	cue_stay	color	stay	stim	poldrack-single-stim	s513	0	False
522.966	1.0	525.051	0.9	2.544	True	89.0	High-Low	n/a	twobytwo	89.0	1.185	orange	1.0	task_switch	magnitude	switch	stim	poldrack-single-stim	s513	0	False
525.615	1.0	526.695	0.1	2.272	True	71.0	Orange-Blue	n/a	twobytwo	71.0	0.98	blue	1.0	task_switch	color	switch	stim	poldrack-single-stim	s513	0	False
527.992	1.0	529.772	0.1	2.272	True	89.0	Color	switch	twobytwo	89.0	1.68	orange	8.0	cue_switch	color	stay	stim	poldrack-single-stim	s513	0	False
530.369	1.0	532.445	0.1	2.408	True	71.0	Orange-Blue	switch	twobytwo	71.0	1.976	blue	9.0	cue_switch	color	stay	stim	poldrack-single-stim	s513	0	False
533.682	1.0	535.292	0.9	2.136	True	89.0	Orange-Blue	stay	twobytwo	89.0	0.71	orange	8.0	cue_stay	color	stay	stim	poldrack-single-stim	s513	0	False
535.923	1.0	537.736	0.1	2.272	True	71.0	Orange-Blue	stay	twobytwo	71.0	1.713	blue	4.0	cue_stay	color	stay	stim	poldrack-single-stim	s513	0	False
539.1	1.0	540.837	0.9	2.0	True	89.0	Orange-Blue	stay	twobytwo	89.0	0.837	orange	1.0	cue_stay	color	stay	stim	poldrack-single-stim	s513	0	False
542.005	1.0	544.816	0.9	2.136	True	71.0	Color	switch	twobytwo	71.0	1.911	blue	8.0	cue_switch	color	stay	stim	poldrack-single-stim	s513	0	False
544.246	1.0	545.577	0.1	2.272	True	71.0	Magnitude	n/a	twobytwo	71.0	1.231	blue	8.0	task_switch	magnitude	switch	stim	poldrack-single-stim	s513	0	False
547.422	1.0	547.421	0.9	2.0	False	71.0	High-Low	switch	twobytwo	-1.0	n/a	orange	6.0	cue_switch	magnitude	stay	stim	poldrack-single-stim	s513	0	False
549.527	1.0	550.414	0.1	2.68	True	71.0	Magnitude	switch	twobytwo	71.0	0.787	orange	7.0	cue_switch	magnitude	stay	stim	poldrack-single-stim	s513	0	False
552.313	1.0	553.674	0.1	2.0	True	89.0	High-Low	switch	twobytwo	89.0	1.261	blue	1.0	cue_switch	magnitude	stay	stim	poldrack-single-stim	s513	0	False
555.218	1.0	556.806	0.9	2.0	True	89.0	Magnitude	switch	twobytwo	89.0	0.688	orange	1.0	cue_switch	magnitude	stay	stim	poldrack-single-stim	s513	0	False
558.121	1.0	559.955	0.9	2.0	True	71.0	Magnitude	stay	twobytwo	71.0	0.934	blue	9.0	cue_stay	magnitude	stay	stim	poldrack-single-stim	s513	0	False
560.226	1.0	561.785	0.1	2.272	True	71.0	High-Low	switch	twobytwo	71.0	1.459	orange	6.0	cue_switch	magnitude	stay	stim	poldrack-single-stim	s513	0	False
563.404	1.0	564.907	0.9	2.0	True	71.0	Magnitude	switch	twobytwo	71.0	0.603	orange	9.0	cue_switch	magnitude	stay	stim	poldrack-single-stim	s513	0	False
566.308	1.0	568.061	0.9	2.0	True	89.0	High-Low	switch	twobytwo	89.0	0.853	orange	3.0	cue_switch	magnitude	stay	stim	poldrack-single-stim	s513	0	False
569.214	1.0	571.282	0.9	2.0	True	71.0	Magnitude	switch	twobytwo	71.0	1.168	orange	8.0	cue_switch	magnitude	stay	stim	poldrack-single-stim	s513	0	False
572.119	1.0	574.067	0.9	2.68	False	89.0	High-Low	switch	twobytwo	71.0	1.048	blue	3.0	cue_switch	magnitude	stay	stim	poldrack-single-stim	s513	0	False
575.704	1.0	577.922	0.9	2.0	True	89.0	High-Low	stay	twobytwo	89.0	1.318	blue	3.0	cue_stay	magnitude	stay	stim	poldrack-single-stim	s513	0	False
577.808	1.0	578.593	0.1	2.136	True	89.0	Color	n/a	twobytwo	89.0	0.685	orange	2.0	task_switch	color	switch	stim	poldrack-single-stim	s513	0	False
580.848	1.0	582.655	0.9	2.408	True	71.0	Orange-Blue	switch	twobytwo	71.0	0.907	blue	4.0	cue_switch	color	stay	stim	poldrack-single-stim	s513	0	False
584.16	1.0	584.159	0.9	2.136	False	71.0	Magnitude	n/a	twobytwo	-1.0	n/a	blue	9.0	task_switch	magnitude	switch	stim	poldrack-single-stim	s513	0	False
587.201	1.0	588.783	0.9	2.0	True	71.0	Orange-Blue	n/a	twobytwo	71.0	0.682	blue	9.0	task_switch	color	switch	stim	poldrack-single-stim	s513	0	False
590.107	1.0	591.654	0.9	2.0	True	71.0	Magnitude	n/a	twobytwo	71.0	0.647	blue	7.0	task_switch	magnitude	switch	stim	poldrack-single-stim	s513	0	False
593.011	1.0	595.003	0.9	2.544	True	71.0	High-Low	switch	twobytwo	71.0	1.092	blue	7.0	cue_switch	magnitude	stay	stim	poldrack-single-stim	s513	0	False
595.661	1.0	597.838	0.1	2.136	True	89.0	Magnitude	switch	twobytwo	89.0	2.077	blue	3.0	cue_switch	magnitude	stay	stim	poldrack-single-stim	s513	0	False
598.702	1.0	600.379	0.9	2.544	True	89.0	High-Low	switch	twobytwo	89.0	0.777	orange	4.0	cue_switch	magnitude	stay	stim	poldrack-single-stim	s513	0	False
601.35	1.0	602.439	0.1	2.68	True	71.0	Magnitude	switch	twobytwo	71.0	0.989	orange	7.0	cue_switch	magnitude	stay	stim	poldrack-single-stim	s513	0	False
604.935	1.0	606.465	0.9	2.0	True	89.0	Orange-Blue	n/a	twobytwo	89.0	0.63	orange	6.0	task_switch	color	switch	stim	poldrack-single-stim	s513	0	False
607.041	1.0	608.091	0.1	2.272	True	71.0	Magnitude	n/a	twobytwo	71.0	0.95	orange	9.0	task_switch	magnitude	switch	stim	poldrack-single-stim	s513	0	False
609.418	1.0	610.411	0.1	3.088	False	71.0	Orange-Blue	n/a	twobytwo	89.0	0.893	blue	4.0	task_switch	color	switch	stim	poldrack-single-stim	s513	0	False
613.412	1.0	615.034	0.9	2.0	True	71.0	Color	switch	twobytwo	71.0	0.722	blue	8.0	cue_switch	color	stay	stim	poldrack-single-stim	s513	0	False
615.516	1.0	616.487	0.1	2.136	False	89.0	Color	stay	twobytwo	71.0	0.871	orange	9.0	cue_stay	color	stay	stim	poldrack-single-stim	s513	0	False
617.756	1.0	618.861	0.1	2.136	True	89.0	High-Low	n/a	twobytwo	89.0	1.005	orange	1.0	task_switch	magnitude	switch	stim	poldrack-single-stim	s513	0	False
620.797	1.0	622.483	0.9	2.0	True	71.0	High-Low	stay	twobytwo	71.0	0.786	orange	7.0	cue_stay	magnitude	stay	stim	poldrack-single-stim	s513	0	False
622.902	1.0	624.942	0.1	2.272	True	71.0	Magnitude	switch	twobytwo	71.0	1.94	blue	7.0	cue_switch	magnitude	stay	stim	poldrack-single-stim	s513	0	False
625.279	1.0	626.256	0.1	2.0	True	89.0	Magnitude	stay	twobytwo	89.0	0.877	orange	3.0	cue_stay	magnitude	stay	stim	poldrack-single-stim	s513	0	False
628.183	1.0	629.871	0.9	2.136	True	71.0	Magnitude	stay	twobytwo	71.0	0.788	blue	6.0	cue_stay	magnitude	stay	stim	poldrack-single-stim	s513	0	False
630.423	1.0	631.888	0.1	2.136	True	71.0	Orange-Blue	n/a	twobytwo	71.0	1.365	blue	6.0	task_switch	color	switch	stim	poldrack-single-stim	s513	0	False
633.464	1.0	635.07	0.9	2.544	True	71.0	High-Low	n/a	twobytwo	71.0	0.706	blue	9.0	task_switch	magnitude	switch	stim	poldrack-single-stim	s513	0	False
636.114	1.0	637.898	0.1	2.0	True	89.0	Orange-Blue	n/a	twobytwo	89.0	1.684	orange	4.0	task_switch	color	switch	stim	poldrack-single-stim	s513	0	False
638.219	1.0	639.904	0.1	2.136	True	71.0	High-Low	n/a	twobytwo	71.0	1.585	blue	8.0	task_switch	magnitude	switch	stim	poldrack-single-stim	s513	0	False
641.261	1.0	642.743	0.9	2.136	True	71.0	High-Low	stay	twobytwo	71.0	0.582	blue	9.0	cue_stay	magnitude	stay	stim	poldrack-single-stim	s513	0	False
644.301	1.0	646.313	0.9	2.136	True	71.0	Magnitude	switch	twobytwo	71.0	1.112	blue	7.0	cue_switch	magnitude	stay	stim	poldrack-single-stim	s513	0	False
647.342	1.0	649.007	0.9	2.0	True	71.0	High-Low	switch	twobytwo	71.0	0.765	blue	9.0	cue_switch	magnitude	stay	stim	poldrack-single-stim	s513	0	False
650.248	1.0	652.32	0.9	2.136	False	89.0	Orange-Blue	n/a	twobytwo	71.0	1.172	orange	2.0	task_switch	color	switch	stim	poldrack-single-stim	s513	0	False
653.289	1.0	655.354	0.9	2.0	False	89.0	High-Low	n/a	twobytwo	71.0	1.165	orange	3.0	task_switch	magnitude	switch	stim	poldrack-single-stim	s513	0	False
655.394	1.0	657.054	0.1	2.136	True	89.0	Color	n/a	twobytwo	89.0	1.56	orange	3.0	task_switch	color	switch	stim	poldrack-single-stim	s513	0	False
657.634	1.0	658.473	0.1	2.816	True	89.0	Orange-Blue	switch	twobytwo	89.0	0.739	orange	1.0	cue_switch	color	stay	stim	poldrack-single-stim	s513	0	False
660.556	1.0	660.555	0.1	2.136	False	71.0	High-Low	n/a	twobytwo	-1.0	n/a	orange	6.0	task_switch	magnitude	switch	stim	poldrack-single-stim	s513	0	False
662.797	1.0	664.137	0.1	2.0	True	89.0	Color	n/a	twobytwo	89.0	1.24	orange	2.0	task_switch	color	switch	stim	poldrack-single-stim	s513	0	False
664.903	1.0	665.769	0.1	2.0	True	71.0	Orange-Blue	switch	twobytwo	71.0	0.766	blue	7.0	cue_switch	color	stay	stim	poldrack-single-stim	s513	0	False
667.808	1.0	669.466	0.9	2.272	True	89.0	Magnitude	n/a	twobytwo	89.0	0.758	orange	3.0	task_switch	magnitude	switch	stim	poldrack-single-stim	s513	0	False
670.184	1.0	671.176	0.1	2.0	True	71.0	High-Low	switch	twobytwo	71.0	0.892	orange	9.0	cue_switch	magnitude	stay	stim	poldrack-single-stim	s513	0	False
673.09	1.0	674.929	0.9	2.0	True	71.0	Color	n/a	twobytwo	71.0	0.939	blue	7.0	task_switch	color	switch	stim	poldrack-single-stim	s513	0	False
675.195	1.0	676.467	0.1	2.0	True	89.0	High-Low	n/a	twobytwo	89.0	1.172	blue	4.0	task_switch	magnitude	switch	stim	poldrack-single-stim	s513	0	False
678.099	1.0	680.82	0.9	2.408	True	89.0	High-Low	stay	twobytwo	89.0	1.821	orange	4.0	cue_stay	magnitude	stay	stim	poldrack-single-stim	s513	0	False
