onset	duration	movement_onset	CTI	block_duration	correct	correct_response	cue	cue_switch	experiment_exp_id	key_press	response_time	stim_color	stim_number	switch_type	task	task_switch	trial_id	trial_type	worker_id	first_trial_of_block	junk
3.612	1.0	4.497	0.1	2.272	True	71.0	High-Low	stay	twobytwo	71.0	0.785	blue	2.0	cue_stay	magnitude	stay	stim	poldrack-single-stim	s518	1	False
6.79	1.0	8.233	0.9	2.136	True	71.0	Color	n/a	twobytwo	71.0	0.543	orange	8.0	task_switch	color	switch	stim	poldrack-single-stim	s518	0	False
9.832	1.0	11.307	0.9	2.0	True	89.0	Orange-Blue	switch	twobytwo	89.0	0.575	blue	2.0	cue_switch	color	stay	stim	poldrack-single-stim	s518	0	False
12.737	1.0	14.334	0.9	2.0	True	71.0	Magnitude	n/a	twobytwo	71.0	0.697	blue	1.0	task_switch	magnitude	switch	stim	poldrack-single-stim	s518	0	False
15.643	1.0	17.104	0.9	2.136	True	71.0	Color	n/a	twobytwo	71.0	0.561	orange	4.0	task_switch	color	switch	stim	poldrack-single-stim	s518	0	False
18.683	1.0	20.104	0.9	2.0	True	71.0	Magnitude	n/a	twobytwo	71.0	0.521	orange	3.0	task_switch	magnitude	switch	stim	poldrack-single-stim	s518	0	False
21.588	1.0	23.213	0.9	2.136	True	71.0	Orange-Blue	n/a	twobytwo	71.0	0.725	orange	9.0	task_switch	color	switch	stim	poldrack-single-stim	s518	0	False
24.628	1.0	26.327	0.9	2.408	True	89.0	Orange-Blue	stay	twobytwo	89.0	0.799	blue	6.0	cue_stay	color	stay	stim	poldrack-single-stim	s518	0	False
27.941	1.0	29.604	0.9	2.136	True	71.0	Magnitude	n/a	twobytwo	71.0	0.763	orange	1.0	task_switch	magnitude	switch	stim	poldrack-single-stim	s518	0	False
30.183	1.0	31.137	0.1	2.0	True	89.0	Color	n/a	twobytwo	89.0	0.854	blue	3.0	task_switch	color	switch	stim	poldrack-single-stim	s518	0	False
32.288	1.0	33.272	0.1	2.136	True	89.0	High-Low	n/a	twobytwo	89.0	0.884	orange	7.0	task_switch	magnitude	switch	stim	poldrack-single-stim	s518	0	False
34.528	1.0	35.466	0.1	2.272	True	71.0	High-Low	stay	twobytwo	71.0	0.838	blue	3.0	cue_stay	magnitude	stay	stim	poldrack-single-stim	s518	0	False
37.704	1.0	39.172	0.9	2.0	True	71.0	Orange-Blue	n/a	twobytwo	71.0	0.568	orange	2.0	task_switch	color	switch	stim	poldrack-single-stim	s518	0	False
39.809	1.0	41.118	0.1	2.408	True	71.0	High-Low	n/a	twobytwo	71.0	1.209	orange	4.0	task_switch	magnitude	switch	stim	poldrack-single-stim	s518	0	False
42.32	1.0	43.193	0.1	2.0	True	71.0	Magnitude	switch	twobytwo	71.0	0.773	orange	3.0	cue_switch	magnitude	stay	stim	poldrack-single-stim	s518	0	False
45.224	1.0	46.668	0.9	2.136	True	71.0	Color	n/a	twobytwo	71.0	0.544	orange	8.0	task_switch	color	switch	stim	poldrack-single-stim	s518	0	False
47.465	1.0	48.366	0.1	2.408	True	89.0	Magnitude	n/a	twobytwo	89.0	0.801	orange	8.0	task_switch	magnitude	switch	stim	poldrack-single-stim	s518	0	False
49.977	1.0	51.125	0.1	2.136	True	71.0	Color	n/a	twobytwo	71.0	1.048	orange	3.0	task_switch	color	switch	stim	poldrack-single-stim	s518	0	False
53.017	1.0	54.477	0.9	2.408	True	71.0	Magnitude	n/a	twobytwo	71.0	0.56	orange	1.0	task_switch	magnitude	switch	stim	poldrack-single-stim	s518	0	False
56.329	1.0	57.774	0.9	2.136	True	89.0	Color	n/a	twobytwo	89.0	0.545	blue	2.0	task_switch	color	switch	stim	poldrack-single-stim	s518	0	False
58.57	1.0	59.625	0.1	2.0	True	89.0	Orange-Blue	switch	twobytwo	89.0	0.955	blue	7.0	cue_switch	color	stay	stim	poldrack-single-stim	s518	0	False
60.675	1.0	61.511	0.1	2.272	True	71.0	Orange-Blue	stay	twobytwo	71.0	0.736	orange	6.0	cue_stay	color	stay	stim	poldrack-single-stim	s518	0	False
63.852	1.0	65.234	0.9	2.0	True	89.0	Magnitude	n/a	twobytwo	89.0	0.482	orange	7.0	task_switch	magnitude	switch	stim	poldrack-single-stim	s518	0	False
65.956	1.0	67.128	0.1	2.272	True	71.0	Orange-Blue	n/a	twobytwo	71.0	1.072	orange	2.0	task_switch	color	switch	stim	poldrack-single-stim	s518	0	False
68.332	1.0	69.104	0.1	2.272	True	71.0	Color	switch	twobytwo	71.0	0.672	orange	4.0	cue_switch	color	stay	stim	poldrack-single-stim	s518	0	False
71.508	1.0	72.846	0.9	2.952	True	89.0	Orange-Blue	switch	twobytwo	89.0	0.438	blue	7.0	cue_switch	color	stay	stim	poldrack-single-stim	s518	0	False
74.564	1.0	75.28	0.1	2.68	True	89.0	Orange-Blue	stay	twobytwo	89.0	0.616	blue	7.0	cue_stay	color	stay	stim	poldrack-single-stim	s518	0	False
77.349	1.0	78.261	0.1	2.136	True	89.0	Orange-Blue	stay	twobytwo	89.0	0.812	blue	4.0	cue_stay	color	stay	stim	poldrack-single-stim	s518	0	False
79.589	1.0	80.556	0.1	2.272	True	89.0	Orange-Blue	stay	twobytwo	89.0	0.867	blue	1.0	cue_stay	color	stay	stim	poldrack-single-stim	s518	0	False
82.765	1.0	84.23	0.9	2.272	True	89.0	Color	switch	twobytwo	89.0	0.565	blue	3.0	cue_switch	color	stay	stim	poldrack-single-stim	s518	0	False
85.141	1.0	86.04	0.1	2.136	True	89.0	Magnitude	n/a	twobytwo	89.0	0.799	blue	8.0	task_switch	magnitude	switch	stim	poldrack-single-stim	s518	0	False
88.181	1.0	89.548	0.9	2.408	True	89.0	High-Low	switch	twobytwo	89.0	0.467	blue	8.0	cue_switch	magnitude	stay	stim	poldrack-single-stim	s518	0	False
91.492	1.0	93.149	0.9	2.136	True	71.0	Magnitude	switch	twobytwo	71.0	0.757	orange	2.0	cue_switch	magnitude	stay	stim	poldrack-single-stim	s518	0	False
94.533	1.0	96.47	0.9	2.136	True	89.0	High-Low	switch	twobytwo	89.0	1.037	blue	7.0	cue_switch	magnitude	stay	stim	poldrack-single-stim	s518	0	False
97.573	1.0	99.035	0.9	2.0	True	89.0	Magnitude	switch	twobytwo	89.0	0.562	blue	8.0	cue_switch	magnitude	stay	stim	poldrack-single-stim	s518	0	False
100.478	1.0	101.976	0.9	2.0	True	71.0	Magnitude	stay	twobytwo	71.0	0.598	blue	2.0	cue_stay	magnitude	stay	stim	poldrack-single-stim	s518	0	False
103.382	1.0	104.769	0.9	2.0	True	71.0	High-Low	switch	twobytwo	71.0	0.487	orange	4.0	cue_switch	magnitude	stay	stim	poldrack-single-stim	s518	0	False
105.486	1.0	106.559	0.1	2.0	True	71.0	Magnitude	switch	twobytwo	71.0	0.973	blue	2.0	cue_switch	magnitude	stay	stim	poldrack-single-stim	s518	0	False
108.39	1.0	109.804	0.9	2.0	True	71.0	High-Low	switch	twobytwo	71.0	0.514	orange	1.0	cue_switch	magnitude	stay	stim	poldrack-single-stim	s518	0	False
110.496	1.0	111.246	0.1	2.272	True	71.0	Magnitude	switch	twobytwo	71.0	0.65	blue	4.0	cue_switch	magnitude	stay	stim	poldrack-single-stim	s518	0	False
113.673	1.0	115.087	0.9	2.408	True	89.0	High-Low	switch	twobytwo	89.0	0.514	blue	9.0	cue_switch	magnitude	stay	stim	poldrack-single-stim	s518	0	False
116.185	1.0	117.112	0.1	2.0	True	71.0	High-Low	stay	twobytwo	71.0	0.827	orange	3.0	cue_stay	magnitude	stay	stim	poldrack-single-stim	s518	0	False
118.289	1.0	119.104	0.1	2.136	True	89.0	Color	n/a	twobytwo	89.0	0.715	blue	4.0	task_switch	color	switch	stim	poldrack-single-stim	s518	0	False
120.529	1.0	121.389	0.1	2.0	True	89.0	Orange-Blue	switch	twobytwo	89.0	0.76	blue	1.0	cue_switch	color	stay	stim	poldrack-single-stim	s518	0	False
122.634	1.0	123.484	0.1	2.136	True	71.0	Magnitude	n/a	twobytwo	71.0	0.75	orange	2.0	task_switch	magnitude	switch	stim	poldrack-single-stim	s518	0	False
124.874	1.0	125.79	0.1	2.544	True	71.0	Color	n/a	twobytwo	71.0	0.816	orange	9.0	task_switch	color	switch	stim	poldrack-single-stim	s518	0	False
127.522	1.0	128.405	0.1	2.68	True	71.0	Magnitude	n/a	twobytwo	71.0	0.783	orange	2.0	task_switch	magnitude	switch	stim	poldrack-single-stim	s518	0	False
131.106	1.0	132.489	0.9	3.088	True	71.0	High-Low	switch	twobytwo	71.0	0.483	orange	2.0	cue_switch	magnitude	stay	stim	poldrack-single-stim	s518	0	False
135.099	1.0	136.734	0.9	2.136	True	89.0	Magnitude	switch	twobytwo	89.0	0.735	blue	9.0	cue_switch	magnitude	stay	stim	poldrack-single-stim	s518	0	False
137.34	1.0	138.57	0.1	2.544	True	89.0	High-Low	switch	twobytwo	89.0	1.13	blue	9.0	cue_switch	magnitude	stay	stim	poldrack-single-stim	s518	0	False
140.788	1.0	142.656	0.9	2.0	True	89.0	Magnitude	switch	twobytwo	89.0	0.968	orange	9.0	cue_switch	magnitude	stay	stim	poldrack-single-stim	s518	0	False
142.893	1.0	143.883	0.1	2.136	True	71.0	Color	n/a	twobytwo	71.0	0.89	orange	6.0	task_switch	color	switch	stim	poldrack-single-stim	s518	0	False
145.133	1.0	146.043	0.1	2.0	True	89.0	High-Low	n/a	twobytwo	89.0	0.81	blue	9.0	task_switch	magnitude	switch	stim	poldrack-single-stim	s518	0	False
147.238	1.0	148.48	0.1	2.408	True	89.0	Orange-Blue	n/a	twobytwo	89.0	1.142	blue	9.0	task_switch	color	switch	stim	poldrack-single-stim	s518	0	False
149.749	1.0	150.485	0.1	2.0	True	71.0	Color	switch	twobytwo	71.0	0.636	orange	3.0	cue_switch	color	stay	stim	poldrack-single-stim	s518	0	False
152.653	1.0	154.002	0.9	2.0	True	71.0	Color	stay	twobytwo	71.0	0.449	orange	8.0	cue_stay	color	stay	stim	poldrack-single-stim	s518	0	False
154.757	1.0	156.055	0.1	2.0	True	89.0	Magnitude	n/a	twobytwo	89.0	1.198	orange	8.0	task_switch	magnitude	switch	stim	poldrack-single-stim	s518	0	False
157.661	1.0	159.132	0.9	2.68	True	89.0	Magnitude	stay	twobytwo	89.0	0.571	orange	7.0	cue_stay	magnitude	stay	stim	poldrack-single-stim	s518	0	False
161.246	1.0	162.866	0.9	2.272	True	71.0	High-Low	switch	twobytwo	71.0	0.72	blue	3.0	cue_switch	magnitude	stay	stim	poldrack-single-stim	s518	0	False
163.623	1.0	164.667	0.1	2.408	True	71.0	High-Low	stay	twobytwo	71.0	0.944	orange	3.0	cue_stay	magnitude	stay	stim	poldrack-single-stim	s518	0	False
166.936	1.0	168.52	0.9	3.224	True	89.0	High-Low	stay	twobytwo	89.0	0.684	blue	7.0	cue_stay	magnitude	stay	stim	poldrack-single-stim	s518	0	False
170.265	1.0	171.046	0.1	2.408	True	71.0	Orange-Blue	n/a	twobytwo	71.0	0.681	orange	9.0	task_switch	color	switch	stim	poldrack-single-stim	s518	0	False
173.577	1.0	175.148	0.9	2.816	True	71.0	Magnitude	n/a	twobytwo	71.0	0.671	blue	4.0	task_switch	magnitude	switch	stim	poldrack-single-stim	s518	0	False
176.497	1.0	177.488	0.1	2.408	True	71.0	Orange-Blue	n/a	twobytwo	71.0	0.891	orange	4.0	task_switch	color	switch	stim	poldrack-single-stim	s518	0	False
179.01	1.0	179.87	0.1	2.136	True	71.0	High-Low	n/a	twobytwo	71.0	0.76	orange	3.0	task_switch	magnitude	switch	stim	poldrack-single-stim	s518	0	False
181.25	1.0	182.067	0.1	2.136	True	71.0	High-Low	stay	twobytwo	71.0	0.717	orange	1.0	cue_stay	magnitude	stay	stim	poldrack-single-stim	s518	0	False
183.491	1.0	184.378	0.1	2.0	True	71.0	Magnitude	switch	twobytwo	71.0	0.787	orange	3.0	cue_switch	magnitude	stay	stim	poldrack-single-stim	s518	0	False
185.596	1.0	186.806	0.1	2.0	True	89.0	High-Low	switch	twobytwo	89.0	1.11	orange	9.0	cue_switch	magnitude	stay	stim	poldrack-single-stim	s518	0	False
188.501	1.0	189.909	0.9	2.272	True	89.0	Color	n/a	twobytwo	89.0	0.508	blue	7.0	task_switch	color	switch	stim	poldrack-single-stim	s518	0	False
191.678	1.0	193.164	0.9	2.408	True	89.0	High-Low	n/a	twobytwo	89.0	0.586	orange	9.0	task_switch	magnitude	switch	stim	poldrack-single-stim	s518	0	False
194.991	1.0	196.736	0.9	2.0	False	71.0	Color	n/a	twobytwo	89.0	0.845	orange	1.0	task_switch	color	switch	stim	poldrack-single-stim	s518	0	False
197.095	1.0	197.959	0.1	2.136	True	89.0	Orange-Blue	switch	twobytwo	89.0	0.764	blue	1.0	cue_switch	color	stay	stim	poldrack-single-stim	s518	0	False
200.136	1.0	201.984	0.9	2.0	False	71.0	High-Low	n/a	twobytwo	89.0	0.948	blue	1.0	task_switch	magnitude	switch	stim	poldrack-single-stim	s518	0	False
203.04	1.0	204.803	0.9	2.408	True	71.0	Orange-Blue	n/a	twobytwo	71.0	0.863	orange	2.0	task_switch	color	switch	stim	poldrack-single-stim	s518	0	False
206.351	1.0	208.122	0.9	2.272	True	71.0	Color	switch	twobytwo	71.0	0.871	orange	9.0	cue_switch	color	stay	stim	poldrack-single-stim	s518	0	False
209.528	1.0	211.282	0.9	2.0	True	89.0	High-Low	n/a	twobytwo	89.0	0.854	orange	8.0	task_switch	magnitude	switch	stim	poldrack-single-stim	s518	0	False
211.631	1.0	212.462	0.1	2.272	True	71.0	Magnitude	switch	twobytwo	71.0	0.731	orange	4.0	cue_switch	magnitude	stay	stim	poldrack-single-stim	s518	0	False
214.008	1.0	215.039	0.1	2.0	True	71.0	Color	n/a	twobytwo	71.0	0.931	orange	8.0	task_switch	color	switch	stim	poldrack-single-stim	s518	0	False
216.112	1.0	217.078	0.1	2.0	True	89.0	Magnitude	n/a	twobytwo	89.0	0.866	orange	9.0	task_switch	magnitude	switch	stim	poldrack-single-stim	s518	0	False
219.016	1.0	220.422	0.9	2.272	True	89.0	Magnitude	stay	twobytwo	89.0	0.506	orange	7.0	cue_stay	magnitude	stay	stim	poldrack-single-stim	s518	0	False
234.902	1.0	235.897	0.1	2.136	True	71.0	Magnitude	stay	twobytwo	71.0	0.895	blue	2.0	cue_stay	magnitude	stay	stim	poldrack-single-stim	s518	1	False
237.942	1.0	239.466	0.9	2.0	True	71.0	Orange-Blue	n/a	twobytwo	71.0	0.624	orange	8.0	task_switch	color	switch	stim	poldrack-single-stim	s518	0	False
240.847	1.0	242.755	0.9	2.0	True	89.0	Color	switch	twobytwo	89.0	1.008	blue	2.0	cue_switch	color	stay	stim	poldrack-single-stim	s518	0	False
243.751	1.0	245.45	0.9	2.0	False	71.0	Magnitude	n/a	twobytwo	89.0	0.799	blue	1.0	task_switch	magnitude	switch	stim	poldrack-single-stim	s518	0	False
246.655	1.0	248.081	0.9	2.0	True	71.0	Color	n/a	twobytwo	71.0	0.526	orange	4.0	task_switch	color	switch	stim	poldrack-single-stim	s518	0	False
249.559	1.0	250.956	0.9	2.0	True	71.0	High-Low	n/a	twobytwo	71.0	0.497	orange	3.0	task_switch	magnitude	switch	stim	poldrack-single-stim	s518	0	False
252.463	1.0	254.356	0.9	2.136	True	71.0	Color	n/a	twobytwo	71.0	0.993	orange	9.0	task_switch	color	switch	stim	poldrack-single-stim	s518	0	False
255.505	1.0	256.837	0.9	2.0	True	89.0	Color	stay	twobytwo	89.0	0.432	blue	6.0	cue_stay	color	stay	stim	poldrack-single-stim	s518	0	False
258.409	1.0	259.895	0.9	2.0	True	71.0	High-Low	n/a	twobytwo	71.0	0.586	orange	1.0	task_switch	magnitude	switch	stim	poldrack-single-stim	s518	0	False
260.514	1.0	261.478	0.1	2.136	True	89.0	Color	n/a	twobytwo	89.0	0.864	blue	3.0	task_switch	color	switch	stim	poldrack-single-stim	s518	0	False
262.754	1.0	263.716	0.1	2.0	True	89.0	High-Low	n/a	twobytwo	89.0	0.862	orange	7.0	task_switch	magnitude	switch	stim	poldrack-single-stim	s518	0	False
264.859	1.0	265.896	0.1	2.136	True	71.0	High-Low	stay	twobytwo	71.0	0.937	blue	3.0	cue_stay	magnitude	stay	stim	poldrack-single-stim	s518	0	False
267.899	1.0	269.474	0.9	2.68	True	71.0	Color	n/a	twobytwo	71.0	0.675	orange	2.0	task_switch	color	switch	stim	poldrack-single-stim	s518	0	False
270.684	1.0	271.577	0.1	2.272	True	71.0	High-Low	n/a	twobytwo	71.0	0.793	orange	4.0	task_switch	magnitude	switch	stim	poldrack-single-stim	s518	0	False
273.061	1.0	274.082	0.1	2.136	True	71.0	Magnitude	switch	twobytwo	71.0	0.921	orange	3.0	cue_switch	magnitude	stay	stim	poldrack-single-stim	s518	0	False
276.103	1.0	277.525	0.9	2.0	True	71.0	Orange-Blue	n/a	twobytwo	71.0	0.522	orange	8.0	task_switch	color	switch	stim	poldrack-single-stim	s518	0	False
278.208	1.0	279.415	0.1	2.136	True	89.0	Magnitude	n/a	twobytwo	89.0	1.107	orange	8.0	task_switch	magnitude	switch	stim	poldrack-single-stim	s518	0	False
280.449	1.0	281.329	0.1	2.68	True	71.0	Orange-Blue	n/a	twobytwo	71.0	0.78	orange	3.0	task_switch	color	switch	stim	poldrack-single-stim	s518	0	False
284.033	1.0	285.622	0.9	2.272	True	71.0	Magnitude	n/a	twobytwo	71.0	0.689	orange	1.0	task_switch	magnitude	switch	stim	poldrack-single-stim	s518	0	False
287.21	1.0	288.963	0.9	2.0	True	89.0	Orange-Blue	n/a	twobytwo	89.0	0.853	blue	2.0	task_switch	color	switch	stim	poldrack-single-stim	s518	0	False
289.315	1.0	290.546	0.1	2.0	True	89.0	Color	switch	twobytwo	89.0	1.131	blue	7.0	cue_switch	color	stay	stim	poldrack-single-stim	s518	0	False
291.419	1.0	292.395	0.1	2.136	True	71.0	Color	stay	twobytwo	71.0	0.876	orange	6.0	cue_stay	color	stay	stim	poldrack-single-stim	s518	0	False
294.46	1.0	296.154	0.9	2.0	True	89.0	High-Low	n/a	twobytwo	89.0	0.794	orange	7.0	task_switch	magnitude	switch	stim	poldrack-single-stim	s518	0	False
296.564	1.0	297.571	0.1	2.0	True	71.0	Orange-Blue	n/a	twobytwo	71.0	0.907	orange	2.0	task_switch	color	switch	stim	poldrack-single-stim	s518	0	False
298.668	1.0	299.543	0.1	2.0	True	71.0	Color	switch	twobytwo	71.0	0.775	orange	4.0	cue_switch	color	stay	stim	poldrack-single-stim	s518	0	False
301.571	1.0	303.056	0.9	2.272	True	89.0	Orange-Blue	switch	twobytwo	89.0	0.585	blue	7.0	cue_switch	color	stay	stim	poldrack-single-stim	s518	0	False
303.948	1.0	304.643	0.1	2.408	True	89.0	Orange-Blue	stay	twobytwo	89.0	0.595	blue	7.0	cue_stay	color	stay	stim	poldrack-single-stim	s518	0	False
306.46	1.0	307.587	0.1	2.0	True	89.0	Orange-Blue	stay	twobytwo	89.0	1.027	blue	4.0	cue_stay	color	stay	stim	poldrack-single-stim	s518	0	False
308.564	1.0	309.389	0.1	2.0	True	89.0	Orange-Blue	stay	twobytwo	89.0	0.725	blue	1.0	cue_stay	color	stay	stim	poldrack-single-stim	s518	0	False
311.468	1.0	313.377	0.9	2.0	True	89.0	Color	switch	twobytwo	89.0	1.009	blue	3.0	cue_switch	color	stay	stim	poldrack-single-stim	s518	0	False
313.572	1.0	314.816	0.1	2.272	True	89.0	High-Low	n/a	twobytwo	89.0	1.144	blue	8.0	task_switch	magnitude	switch	stim	poldrack-single-stim	s518	0	False
316.749	1.0	318.673	0.9	2.136	True	89.0	Magnitude	switch	twobytwo	89.0	1.024	blue	8.0	cue_switch	magnitude	stay	stim	poldrack-single-stim	s518	0	False
319.789	1.0	321.266	0.9	2.0	True	71.0	High-Low	switch	twobytwo	71.0	0.577	orange	2.0	cue_switch	magnitude	stay	stim	poldrack-single-stim	s518	0	False
322.693	1.0	324.143	0.9	2.544	True	89.0	Magnitude	switch	twobytwo	89.0	0.55	blue	7.0	cue_switch	magnitude	stay	stim	poldrack-single-stim	s518	0	False
326.141	1.0	327.633	0.9	2.272	True	89.0	High-Low	switch	twobytwo	89.0	0.592	blue	8.0	cue_switch	magnitude	stay	stim	poldrack-single-stim	s518	0	False
329.32	1.0	331.271	0.9	2.272	True	71.0	High-Low	stay	twobytwo	71.0	1.051	blue	2.0	cue_stay	magnitude	stay	stim	poldrack-single-stim	s518	0	False
332.496	1.0	334.104	0.9	2.0	True	71.0	Magnitude	switch	twobytwo	71.0	0.708	orange	4.0	cue_switch	magnitude	stay	stim	poldrack-single-stim	s518	0	False
334.6	1.0	335.553	0.1	2.0	True	71.0	High-Low	switch	twobytwo	71.0	0.853	blue	2.0	cue_switch	magnitude	stay	stim	poldrack-single-stim	s518	0	False
337.504	1.0	339.05	0.9	2.136	True	71.0	Magnitude	switch	twobytwo	71.0	0.646	orange	1.0	cue_switch	magnitude	stay	stim	poldrack-single-stim	s518	0	False
339.744	1.0	340.929	0.1	2.0	True	71.0	High-Low	switch	twobytwo	71.0	1.085	blue	4.0	cue_switch	magnitude	stay	stim	poldrack-single-stim	s518	0	False
342.647	1.0	344.154	0.9	2.136	True	89.0	Magnitude	switch	twobytwo	89.0	0.607	blue	9.0	cue_switch	magnitude	stay	stim	poldrack-single-stim	s518	0	False
344.887	1.0	345.615	0.1	2.272	True	71.0	Magnitude	stay	twobytwo	71.0	0.628	orange	3.0	cue_stay	magnitude	stay	stim	poldrack-single-stim	s518	0	False
347.263	1.0	348.192	0.1	2.136	True	89.0	Color	n/a	twobytwo	89.0	0.829	blue	4.0	task_switch	color	switch	stim	poldrack-single-stim	s518	0	False
349.505	1.0	350.468	0.1	2.272	True	89.0	Orange-Blue	switch	twobytwo	89.0	0.863	blue	1.0	cue_switch	color	stay	stim	poldrack-single-stim	s518	0	False
351.881	1.0	352.974	0.1	2.0	True	71.0	High-Low	n/a	twobytwo	71.0	0.993	orange	2.0	task_switch	magnitude	switch	stim	poldrack-single-stim	s518	0	False
353.985	1.0	354.707	0.1	2.816	False	71.0	Color	n/a	twobytwo	89.0	0.622	orange	9.0	task_switch	color	switch	stim	poldrack-single-stim	s518	0	False
356.905	1.0	357.836	0.1	2.408	True	71.0	Magnitude	n/a	twobytwo	71.0	0.831	orange	2.0	task_switch	magnitude	switch	stim	poldrack-single-stim	s518	0	False
360.217	1.0	361.687	0.9	2.0	True	71.0	High-Low	switch	twobytwo	71.0	0.57	orange	2.0	cue_switch	magnitude	stay	stim	poldrack-single-stim	s518	0	False
363.121	1.0	364.602	0.9	2.544	True	89.0	Magnitude	switch	twobytwo	89.0	0.581	blue	9.0	cue_switch	magnitude	stay	stim	poldrack-single-stim	s518	0	False
365.768	1.0	366.577	0.1	2.136	True	89.0	High-Low	switch	twobytwo	89.0	0.709	blue	9.0	cue_switch	magnitude	stay	stim	poldrack-single-stim	s518	0	False
368.808	1.0	370.726	0.9	2.0	True	89.0	Magnitude	switch	twobytwo	89.0	1.018	orange	9.0	cue_switch	magnitude	stay	stim	poldrack-single-stim	s518	0	False
370.914	1.0	371.75	0.1	2.0	True	71.0	Orange-Blue	n/a	twobytwo	71.0	0.736	orange	6.0	task_switch	color	switch	stim	poldrack-single-stim	s518	0	False
373.019	1.0	374.19	0.1	2.136	True	89.0	High-Low	n/a	twobytwo	89.0	1.071	blue	9.0	task_switch	magnitude	switch	stim	poldrack-single-stim	s518	0	False
375.26	1.0	376.182	0.1	2.136	True	89.0	Color	n/a	twobytwo	89.0	0.822	blue	9.0	task_switch	color	switch	stim	poldrack-single-stim	s518	0	False
377.5	1.0	378.492	0.1	2.272	True	71.0	Orange-Blue	switch	twobytwo	71.0	0.892	orange	3.0	cue_switch	color	stay	stim	poldrack-single-stim	s518	0	False
380.678	1.0	382.492	0.9	3.224	True	71.0	Orange-Blue	stay	twobytwo	71.0	0.914	orange	8.0	cue_stay	color	stay	stim	poldrack-single-stim	s518	0	False
384.007	1.0	384.963	0.1	2.0	True	89.0	Magnitude	n/a	twobytwo	89.0	0.856	orange	8.0	task_switch	magnitude	switch	stim	poldrack-single-stim	s518	0	False
386.912	1.0	388.363	0.9	2.0	True	89.0	Magnitude	stay	twobytwo	89.0	0.551	orange	7.0	cue_stay	magnitude	stay	stim	poldrack-single-stim	s518	0	False
389.816	1.0	391.485	0.9	2.272	True	71.0	High-Low	switch	twobytwo	71.0	0.769	blue	3.0	cue_switch	magnitude	stay	stim	poldrack-single-stim	s518	0	False
392.193	1.0	392.934	0.1	2.136	True	71.0	High-Low	stay	twobytwo	71.0	0.641	orange	3.0	cue_stay	magnitude	stay	stim	poldrack-single-stim	s518	0	False
395.234	1.0	396.567	0.9	2.0	True	89.0	High-Low	stay	twobytwo	89.0	0.433	blue	7.0	cue_stay	magnitude	stay	stim	poldrack-single-stim	s518	0	False
397.339	1.0	398.348	0.1	2.0	True	71.0	Color	n/a	twobytwo	71.0	0.909	orange	9.0	task_switch	color	switch	stim	poldrack-single-stim	s518	0	False
400.243	1.0	401.957	0.9	2.0	True	71.0	High-Low	n/a	twobytwo	71.0	0.814	blue	4.0	task_switch	magnitude	switch	stim	poldrack-single-stim	s518	0	False
402.349	1.0	403.67	0.1	2.68	True	71.0	Orange-Blue	n/a	twobytwo	71.0	1.221	orange	4.0	task_switch	color	switch	stim	poldrack-single-stim	s518	0	False
405.134	1.0	405.994	0.1	2.0	True	71.0	High-Low	n/a	twobytwo	71.0	0.76	orange	3.0	task_switch	magnitude	switch	stim	poldrack-single-stim	s518	0	False
407.238	1.0	408.064	0.1	2.272	True	71.0	High-Low	stay	twobytwo	71.0	0.726	orange	1.0	cue_stay	magnitude	stay	stim	poldrack-single-stim	s518	0	False
409.614	1.0	410.532	0.1	2.0	True	71.0	Magnitude	switch	twobytwo	71.0	0.818	orange	3.0	cue_switch	magnitude	stay	stim	poldrack-single-stim	s518	0	False
411.718	1.0	412.76	0.1	2.272	True	89.0	High-Low	switch	twobytwo	89.0	0.942	orange	9.0	cue_switch	magnitude	stay	stim	poldrack-single-stim	s518	0	False
414.894	1.0	416.262	0.9	2.952	True	89.0	Orange-Blue	n/a	twobytwo	89.0	0.468	blue	7.0	task_switch	color	switch	stim	poldrack-single-stim	s518	0	False
418.751	1.0	420.125	0.9	2.0	True	89.0	High-Low	n/a	twobytwo	89.0	0.474	orange	9.0	task_switch	magnitude	switch	stim	poldrack-single-stim	s518	0	False
421.655	1.0	423.205	0.9	2.0	True	71.0	Color	n/a	twobytwo	71.0	0.65	orange	1.0	task_switch	color	switch	stim	poldrack-single-stim	s518	0	False
423.76	1.0	424.583	0.1	2.0	True	89.0	Orange-Blue	switch	twobytwo	89.0	0.723	blue	1.0	cue_switch	color	stay	stim	poldrack-single-stim	s518	0	False
426.665	1.0	428.316	0.9	2.0	False	71.0	High-Low	n/a	twobytwo	89.0	0.751	blue	1.0	task_switch	magnitude	switch	stim	poldrack-single-stim	s518	0	False
429.57	1.0	431.186	0.9	2.136	True	71.0	Color	n/a	twobytwo	71.0	0.716	orange	2.0	task_switch	color	switch	stim	poldrack-single-stim	s518	0	False
432.61	1.0	434.125	0.9	2.0	True	71.0	Orange-Blue	switch	twobytwo	71.0	0.615	orange	9.0	cue_switch	color	stay	stim	poldrack-single-stim	s518	0	False
435.514	1.0	437.41	0.9	2.0	True	89.0	High-Low	n/a	twobytwo	89.0	0.996	orange	8.0	task_switch	magnitude	switch	stim	poldrack-single-stim	s518	0	False
437.618	1.0	438.55	0.1	2.0	True	71.0	Magnitude	switch	twobytwo	71.0	0.832	orange	4.0	cue_switch	magnitude	stay	stim	poldrack-single-stim	s518	0	False
439.722	1.0	440.756	0.1	2.272	True	71.0	Color	n/a	twobytwo	71.0	0.934	orange	8.0	task_switch	color	switch	stim	poldrack-single-stim	s518	0	False
442.099	1.0	443.092	0.1	2.136	True	89.0	Magnitude	n/a	twobytwo	89.0	0.893	orange	9.0	task_switch	magnitude	switch	stim	poldrack-single-stim	s518	0	False
445.14	1.0	446.64	0.9	2.0	True	89.0	Magnitude	stay	twobytwo	89.0	0.6	orange	7.0	cue_stay	magnitude	stay	stim	poldrack-single-stim	s518	0	False
460.756	1.0	461.713	0.1	2.136	True	89.0	Color	stay	twobytwo	89.0	0.857	blue	2.0	cue_stay	color	stay	stim	poldrack-single-stim	s518	1	False
463.796	1.0	465.205	0.9	2.816	True	89.0	Magnitude	n/a	twobytwo	89.0	0.509	orange	8.0	task_switch	magnitude	switch	stim	poldrack-single-stim	s518	0	False
467.516	1.0	468.936	0.9	2.408	True	71.0	High-Low	switch	twobytwo	71.0	0.52	blue	2.0	cue_switch	magnitude	stay	stim	poldrack-single-stim	s518	0	False
470.827	1.0	472.179	0.9	2.0	True	89.0	Color	n/a	twobytwo	89.0	0.452	blue	1.0	task_switch	color	switch	stim	poldrack-single-stim	s518	0	False
473.733	1.0	475.263	0.9	2.136	True	71.0	High-Low	n/a	twobytwo	71.0	0.63	orange	4.0	task_switch	magnitude	switch	stim	poldrack-single-stim	s518	0	False
476.773	1.0	478.322	0.9	2.136	True	71.0	Color	n/a	twobytwo	71.0	0.649	orange	3.0	task_switch	color	switch	stim	poldrack-single-stim	s518	0	False
479.814	1.0	481.502	0.9	2.136	True	89.0	Magnitude	n/a	twobytwo	89.0	0.788	orange	9.0	task_switch	magnitude	switch	stim	poldrack-single-stim	s518	0	False
482.855	1.0	484.874	0.9	2.544	False	89.0	Magnitude	stay	twobytwo	71.0	1.119	blue	6.0	cue_stay	magnitude	stay	stim	poldrack-single-stim	s518	0	False
486.305	1.0	488.045	0.9	2.136	True	71.0	Orange-Blue	n/a	twobytwo	71.0	0.84	orange	1.0	task_switch	color	switch	stim	poldrack-single-stim	s518	0	False
488.545	1.0	489.419	0.1	2.0	True	71.0	High-Low	n/a	twobytwo	71.0	0.774	blue	3.0	task_switch	magnitude	switch	stim	poldrack-single-stim	s518	0	False
490.65	1.0	491.762	0.1	2.0	True	71.0	Color	n/a	twobytwo	71.0	1.012	orange	7.0	task_switch	color	switch	stim	poldrack-single-stim	s518	0	False
492.753	1.0	493.696	0.1	2.0	True	89.0	Color	stay	twobytwo	89.0	0.843	blue	3.0	cue_stay	color	stay	stim	poldrack-single-stim	s518	0	False
495.658	1.0	497.205	0.9	2.0	True	71.0	Magnitude	n/a	twobytwo	71.0	0.647	orange	2.0	task_switch	magnitude	switch	stim	poldrack-single-stim	s518	0	False
497.762	1.0	498.892	0.1	2.136	False	71.0	Color	n/a	twobytwo	89.0	1.03	orange	4.0	task_switch	color	switch	stim	poldrack-single-stim	s518	0	False
500.002	1.0	501.347	0.1	2.0	True	71.0	Orange-Blue	switch	twobytwo	71.0	1.245	orange	3.0	cue_switch	color	stay	stim	poldrack-single-stim	s518	0	False
502.906	1.0	504.327	0.9	2.0	True	89.0	Magnitude	n/a	twobytwo	89.0	0.521	orange	8.0	task_switch	magnitude	switch	stim	poldrack-single-stim	s518	0	False
505.01	1.0	506.056	0.1	2.0	False	71.0	Color	n/a	twobytwo	89.0	0.946	orange	8.0	task_switch	color	switch	stim	poldrack-single-stim	s518	0	False
507.115	1.0	508.008	0.1	2.136	True	71.0	High-Low	n/a	twobytwo	71.0	0.793	orange	3.0	task_switch	magnitude	switch	stim	poldrack-single-stim	s518	0	False
510.157	1.0	511.62	0.9	2.136	True	71.0	Color	n/a	twobytwo	71.0	0.563	orange	1.0	task_switch	color	switch	stim	poldrack-single-stim	s518	0	False
513.197	1.0	514.846	0.9	2.136	True	71.0	Magnitude	n/a	twobytwo	71.0	0.749	blue	2.0	task_switch	magnitude	switch	stim	poldrack-single-stim	s518	0	False
515.437	1.0	516.257	0.1	2.136	True	89.0	High-Low	switch	twobytwo	89.0	0.72	blue	7.0	cue_switch	magnitude	stay	stim	poldrack-single-stim	s518	0	False
517.677	1.0	518.571	0.1	2.68	True	89.0	High-Low	stay	twobytwo	89.0	0.794	orange	6.0	cue_stay	magnitude	stay	stim	poldrack-single-stim	s518	0	False
521.262	1.0	522.841	0.9	2.544	True	71.0	Orange-Blue	n/a	twobytwo	71.0	0.679	orange	7.0	task_switch	color	switch	stim	poldrack-single-stim	s518	0	False
523.91	1.0	524.851	0.1	2.272	True	71.0	High-Low	n/a	twobytwo	71.0	0.841	orange	2.0	task_switch	magnitude	switch	stim	poldrack-single-stim	s518	0	False
526.286	1.0	527.144	0.1	2.272	True	71.0	Magnitude	switch	twobytwo	71.0	0.758	orange	4.0	cue_switch	magnitude	stay	stim	poldrack-single-stim	s518	0	False
529.462	1.0	531.073	0.9	2.408	True	89.0	High-Low	switch	twobytwo	89.0	0.711	blue	7.0	cue_switch	magnitude	stay	stim	poldrack-single-stim	s518	0	False
531.974	1.0	532.676	0.1	2.136	True	89.0	High-Low	stay	twobytwo	89.0	0.602	blue	7.0	cue_stay	magnitude	stay	stim	poldrack-single-stim	s518	0	False
534.215	1.0	535.434	0.1	2.272	False	71.0	High-Low	stay	twobytwo	89.0	1.119	blue	4.0	cue_stay	magnitude	stay	stim	poldrack-single-stim	s518	0	False
536.59	1.0	537.498	0.1	2.0	True	71.0	High-Low	stay	twobytwo	71.0	0.808	blue	1.0	cue_stay	magnitude	stay	stim	poldrack-single-stim	s518	0	False
539.495	1.0	541.296	0.9	2.136	True	71.0	Magnitude	switch	twobytwo	71.0	0.901	blue	3.0	cue_switch	magnitude	stay	stim	poldrack-single-stim	s518	0	False
541.735	1.0	542.799	0.1	2.272	True	89.0	Orange-Blue	n/a	twobytwo	89.0	0.964	blue	8.0	task_switch	color	switch	stim	poldrack-single-stim	s518	0	False
544.912	1.0	546.678	0.9	2.0	True	89.0	Color	switch	twobytwo	89.0	0.866	blue	8.0	cue_switch	color	stay	stim	poldrack-single-stim	s518	0	False
547.817	1.0	549.571	0.9	2.68	True	71.0	Orange-Blue	switch	twobytwo	71.0	0.854	orange	2.0	cue_switch	color	stay	stim	poldrack-single-stim	s518	0	False
551.401	1.0	553.006	0.9	2.0	True	89.0	Color	switch	twobytwo	89.0	0.705	blue	7.0	cue_switch	color	stay	stim	poldrack-single-stim	s518	0	False
554.306	1.0	555.804	0.9	2.0	True	89.0	Orange-Blue	switch	twobytwo	89.0	0.598	blue	8.0	cue_switch	color	stay	stim	poldrack-single-stim	s518	0	False
557.21	1.0	558.778	0.9	2.0	False	89.0	Orange-Blue	stay	twobytwo	71.0	0.668	blue	2.0	cue_stay	color	stay	stim	poldrack-single-stim	s518	0	False
560.114	1.0	561.64	0.9	2.272	True	71.0	Color	switch	twobytwo	71.0	0.626	orange	4.0	cue_switch	color	stay	stim	poldrack-single-stim	s518	0	False
562.49	1.0	563.369	0.1	2.0	True	89.0	Orange-Blue	switch	twobytwo	89.0	0.779	blue	2.0	cue_switch	color	stay	stim	poldrack-single-stim	s518	0	False
565.396	1.0	567.223	0.9	2.0	True	71.0	Color	switch	twobytwo	71.0	0.927	orange	1.0	cue_switch	color	stay	stim	poldrack-single-stim	s518	0	False
567.501	1.0	568.492	0.1	2.0	True	89.0	Orange-Blue	switch	twobytwo	89.0	0.891	blue	4.0	cue_switch	color	stay	stim	poldrack-single-stim	s518	0	False
570.405	1.0	571.83	0.9	2.68	True	89.0	Color	switch	twobytwo	89.0	0.525	blue	9.0	cue_switch	color	stay	stim	poldrack-single-stim	s518	0	False
573.189	1.0	574.089	0.1	2.0	True	71.0	Color	stay	twobytwo	71.0	0.8	orange	3.0	cue_stay	color	stay	stim	poldrack-single-stim	s518	0	False
575.294	1.0	576.606	0.1	2.136	True	71.0	Magnitude	n/a	twobytwo	71.0	1.212	blue	4.0	task_switch	magnitude	switch	stim	poldrack-single-stim	s518	0	False
577.535	1.0	578.616	0.1	2.408	True	71.0	High-Low	switch	twobytwo	71.0	0.981	blue	1.0	cue_switch	magnitude	stay	stim	poldrack-single-stim	s518	0	False
580.047	1.0	580.943	0.1	2.136	True	71.0	Color	n/a	twobytwo	71.0	0.796	orange	2.0	task_switch	color	switch	stim	poldrack-single-stim	s518	0	False
582.288	1.0	583.173	0.1	2.0	True	89.0	High-Low	n/a	twobytwo	89.0	0.785	orange	9.0	task_switch	magnitude	switch	stim	poldrack-single-stim	s518	0	False
584.391	1.0	585.139	0.1	2.0	True	71.0	Orange-Blue	n/a	twobytwo	71.0	0.648	orange	2.0	task_switch	color	switch	stim	poldrack-single-stim	s518	0	False
587.296	1.0	588.784	0.9	2.544	True	71.0	Color	switch	twobytwo	71.0	0.588	orange	2.0	cue_switch	color	stay	stim	poldrack-single-stim	s518	0	False
590.744	1.0	592.378	0.9	2.136	True	89.0	Orange-Blue	switch	twobytwo	89.0	0.734	blue	9.0	cue_switch	color	stay	stim	poldrack-single-stim	s518	0	False
592.985	1.0	593.834	0.1	2.544	True	89.0	Color	switch	twobytwo	89.0	0.749	blue	9.0	cue_switch	color	stay	stim	poldrack-single-stim	s518	0	False
596.433	1.0	598.08	0.9	2.68	True	71.0	Orange-Blue	switch	twobytwo	71.0	0.747	orange	9.0	cue_switch	color	stay	stim	poldrack-single-stim	s518	0	False
599.217	1.0	600.378	0.1	2.0	False	89.0	Magnitude	n/a	twobytwo	71.0	1.061	orange	6.0	task_switch	magnitude	switch	stim	poldrack-single-stim	s518	0	False
601.321	1.0	602.318	0.1	2.272	True	89.0	Color	n/a	twobytwo	89.0	0.897	blue	9.0	task_switch	color	switch	stim	poldrack-single-stim	s518	0	False
603.697	1.0	604.606	0.1	3.088	True	89.0	High-Low	n/a	twobytwo	89.0	0.809	blue	9.0	task_switch	magnitude	switch	stim	poldrack-single-stim	s518	0	False
606.89	1.0	607.746	0.1	2.0	True	71.0	Magnitude	switch	twobytwo	71.0	0.756	orange	3.0	cue_switch	magnitude	stay	stim	poldrack-single-stim	s518	0	False
609.794	1.0	611.224	0.9	2.136	True	89.0	Magnitude	stay	twobytwo	89.0	0.53	orange	8.0	cue_stay	magnitude	stay	stim	poldrack-single-stim	s518	0	False
612.034	1.0	613.255	0.1	2.136	True	71.0	Orange-Blue	n/a	twobytwo	71.0	1.121	orange	8.0	task_switch	color	switch	stim	poldrack-single-stim	s518	0	False
615.075	1.0	616.635	0.9	2.0	True	71.0	Orange-Blue	stay	twobytwo	71.0	0.66	orange	7.0	cue_stay	color	stay	stim	poldrack-single-stim	s518	0	False
617.98	1.0	619.478	0.9	2.272	True	89.0	Color	switch	twobytwo	89.0	0.598	blue	3.0	cue_switch	color	stay	stim	poldrack-single-stim	s518	0	False
620.357	1.0	621.558	0.1	2.0	True	71.0	Color	stay	twobytwo	71.0	1.101	orange	3.0	cue_stay	color	stay	stim	poldrack-single-stim	s518	0	False
623.261	1.0	624.789	0.9	2.136	True	89.0	Color	stay	twobytwo	89.0	0.628	blue	7.0	cue_stay	color	stay	stim	poldrack-single-stim	s518	0	False
625.501	1.0	626.745	0.1	2.136	True	89.0	High-Low	n/a	twobytwo	89.0	1.144	orange	9.0	task_switch	magnitude	switch	stim	poldrack-single-stim	s518	0	False
628.54	1.0	630.22	0.9	2.544	False	89.0	Orange-Blue	n/a	twobytwo	71.0	0.78	blue	4.0	task_switch	color	switch	stim	poldrack-single-stim	s518	0	False
631.189	1.0	632.0	0.1	2.0	True	71.0	Magnitude	n/a	twobytwo	71.0	0.711	orange	4.0	task_switch	magnitude	switch	stim	poldrack-single-stim	s518	0	False
633.293	1.0	634.161	0.1	2.136	True	71.0	Orange-Blue	n/a	twobytwo	71.0	0.768	orange	3.0	task_switch	color	switch	stim	poldrack-single-stim	s518	0	False
635.533	1.0	636.386	0.1	2.136	True	71.0	Orange-Blue	stay	twobytwo	71.0	0.753	orange	1.0	cue_stay	color	stay	stim	poldrack-single-stim	s518	0	False
637.773	1.0	638.516	0.1	2.136	True	71.0	Color	switch	twobytwo	71.0	0.643	orange	3.0	cue_switch	color	stay	stim	poldrack-single-stim	s518	0	False
640.013	1.0	640.917	0.1	2.0	True	71.0	Orange-Blue	switch	twobytwo	71.0	0.804	orange	9.0	cue_switch	color	stay	stim	poldrack-single-stim	s518	0	False
642.919	1.0	644.85	0.9	2.136	True	89.0	Magnitude	n/a	twobytwo	89.0	1.031	blue	7.0	task_switch	magnitude	switch	stim	poldrack-single-stim	s518	0	False
645.96	1.0	647.935	0.9	2.0	True	71.0	Color	n/a	twobytwo	71.0	1.075	orange	9.0	task_switch	color	switch	stim	poldrack-single-stim	s518	0	False
648.865	1.0	650.367	0.9	2.136	True	71.0	Magnitude	n/a	twobytwo	71.0	0.602	orange	1.0	task_switch	magnitude	switch	stim	poldrack-single-stim	s518	0	False
651.105	1.0	652.127	0.1	2.816	True	71.0	High-Low	switch	twobytwo	71.0	0.922	blue	1.0	cue_switch	magnitude	stay	stim	poldrack-single-stim	s518	0	False
654.825	1.0	656.601	0.9	2.136	False	89.0	Orange-Blue	n/a	twobytwo	71.0	0.876	blue	1.0	task_switch	color	switch	stim	poldrack-single-stim	s518	0	False
657.865	1.0	659.564	0.9	2.0	True	71.0	Magnitude	n/a	twobytwo	71.0	0.799	orange	2.0	task_switch	magnitude	switch	stim	poldrack-single-stim	s518	0	False
660.769	1.0	662.385	0.9	2.0	True	89.0	High-Low	switch	twobytwo	89.0	0.716	orange	9.0	cue_switch	magnitude	stay	stim	poldrack-single-stim	s518	0	False
663.673	1.0	665.338	0.9	2.272	False	71.0	Orange-Blue	n/a	twobytwo	89.0	0.765	orange	8.0	task_switch	color	switch	stim	poldrack-single-stim	s518	0	False
666.05	1.0	667.265	0.1	2.0	True	71.0	Color	switch	twobytwo	71.0	1.115	orange	4.0	cue_switch	color	stay	stim	poldrack-single-stim	s518	0	False
668.153	1.0	669.067	0.1	2.0	True	89.0	High-Low	n/a	twobytwo	89.0	0.814	orange	8.0	task_switch	magnitude	switch	stim	poldrack-single-stim	s518	0	False
670.258	1.0	671.205	0.1	2.0	True	71.0	Color	n/a	twobytwo	71.0	0.847	orange	9.0	task_switch	color	switch	stim	poldrack-single-stim	s518	0	False
673.162	1.0	674.565	0.9	2.408	True	71.0	Color	stay	twobytwo	71.0	0.503	orange	7.0	cue_stay	color	stay	stim	poldrack-single-stim	s518	0	False
