onset	duration	movement_onset	EV	action	block_duration	experiment_exp_id	gain_amount	gain_probability	key_press	loss_amount	loss_probability	num_cards	num_click_in_round	num_loss_cards	risk	response_time	total_cards	trial_id	trial_type	worker_id	junk	feedback
3.009	2.099	5.108	-0.0312619352504222	draw_card	2.099	columbia_card_task_fmri	12.0	0.8333333333333334	89.0	-70.0	0.1666666666666666	6.0	1.0	1.0	-2.105914851354523	2.099	1.0	stim	poldrack-single-stim	s518	False	0
5.861	1.5	5.11	n/a	-1.0	2.318	columbia_card_task_fmri	n/a	n/a	-1.0	n/a	n/a	n/a	n/a	n/a	n/a	n/a	n/a	ITI	poldrack-single-stim	s518	False	0
7.431	1.005	8.436	0.8020713980829117	draw_card	1.005	columbia_card_task_fmri	14.0	0.8333333333333334	89.0	-75.0	0.1666666666666666	6.0	1.0	1.0	0.4993961709837009	1.005	n/a	stim	poldrack-single-stim	s518	False	1
8.438	0.682	9.12	-2.164595268583755	draw_card	0.682	columbia_card_task_fmri	14.0	0.8	89.0	-75.0	0.2	6.0	2.0	1.0	2.9283052747840514	0.682	n/a	stim	poldrack-single-stim	s518	False	1
9.121	0.955	10.076	-6.614595268583756	draw_card	0.955	columbia_card_task_fmri	14.0	0.75	89.0	-75.0	0.25	6.0	3.0	1.0	5.8635760778858526	0.955	n/a	stim	poldrack-single-stim	s518	False	1
10.077	1.194	11.271	-14.031261935250422	end_round	1.194	columbia_card_task_fmri	14.0	0.6666666666666667	71.0	-75.0	0.3333333333333333	6.0	4.0	1.0	9.277625452222305	1.194	3.0	stim	poldrack-single-stim	s518	False	1
12.024	1.5	11.273	n/a	-1.0	2.318	columbia_card_task_fmri	n/a	n/a	-1.0	n/a	n/a	n/a	n/a	n/a	n/a	n/a	n/a	ITI	poldrack-single-stim	s518	False	0
13.592	1.256	14.848	2.468738064749578	draw_card	1.256	columbia_card_task_fmri	15.0	0.8333333333333334	89.0	-70.0	0.1666666666666666	6.0	1.0	1.0	-0.9894221232093976	1.256	n/a	stim	poldrack-single-stim	s518	False	1
14.849	0.697	15.546	-0.3645952685837561	draw_card	0.697	columbia_card_task_fmri	15.0	0.8	89.0	-70.0	0.2	6.0	2.0	1.0	1.3300700608586595	0.697	n/a	stim	poldrack-single-stim	s518	False	1
15.548	1.579	17.127	-4.614595268583756	end_round	1.579	columbia_card_task_fmri	15.0	0.75	71.0	-70.0	0.25	6.0	3.0	1.0	4.133155905691211	1.579	2.0	stim	poldrack-single-stim	s518	False	1
17.88	1.5	17.129	n/a	-1.0	2.862	columbia_card_task_fmri	n/a	n/a	-1.0	n/a	n/a	n/a	n/a	n/a	n/a	n/a	n/a	ITI	poldrack-single-stim	s518	False	0
19.993	0.666	20.659	3.302071398082912	draw_card	0.666	columbia_card_task_fmri	17.0	0.8333333333333334	89.0	-75.0	0.1666666666666666	6.0	1.0	1.0	1.6161177643946942	0.666	n/a	stim	poldrack-single-stim	s518	False	1
20.66	0.441	21.101	0.2354047314162453	draw_card	0.441	columbia_card_task_fmri	17.0	0.8	89.0	-75.0	0.2	6.0	2.0	1.0	4.127082238481918	0.441	n/a	stim	poldrack-single-stim	s518	False	1
21.102	1.584	22.686	-4.364595268583756	end_round	1.584	columbia_card_task_fmri	17.0	0.75	71.0	-75.0	0.25	6.0	3.0	1.0	7.1614841376259335	1.584	2.0	stim	poldrack-single-stim	s518	False	1
23.441	1.5	22.69	n/a	-1.0	2.726	columbia_card_task_fmri	n/a	n/a	-1.0	n/a	n/a	n/a	n/a	n/a	n/a	n/a	n/a	ITI	poldrack-single-stim	s518	False	0
25.419	0.693	26.112	4.635404731416244	draw_card	0.693	columbia_card_task_fmri	24.0	0.75	89.0	-60.0	0.25	8.0	1.0	2.0	3.700575092157095	0.693	1.0	stim	poldrack-single-stim	s518	False	0
26.864	1.5	26.113	n/a	-1.0	2.25	columbia_card_task_fmri	n/a	n/a	-1.0	n/a	n/a	n/a	n/a	n/a	n/a	n/a	n/a	ITI	poldrack-single-stim	s518	False	0
28.365	0.975	29.34	4.635404731416244	draw_card	0.975	columbia_card_task_fmri	29.0	0.75	89.0	-75.0	0.25	8.0	1.0	2.0	12.353767618014636	0.975	1.0	stim	poldrack-single-stim	s518	False	0
30.092	1.5	29.341	n/a	-1.0	2.318	columbia_card_task_fmri	n/a	n/a	-1.0	n/a	n/a	n/a	n/a	n/a	n/a	n/a	n/a	ITI	poldrack-single-stim	s518	False	0
31.662	0.431	32.093	0.4131825091940242	draw_card	0.431	columbia_card_task_fmri	17.0	0.7777777777777778	89.0	-65.0	0.2222222222222222	9.0	1.0	2.0	1.4206218388699057	0.431	n/a	stim	poldrack-single-stim	s518	False	1
32.096	0.597	32.693	-1.864595268583756	draw_card	0.597	columbia_card_task_fmri	17.0	0.75	89.0	-65.0	0.25	9.0	2.0	2.0	2.8354450174804957	0.597	n/a	stim	poldrack-single-stim	s518	False	1
32.694	0.627	33.321	-4.793166697155183	draw_card	0.627	columbia_card_task_fmri	17.0	0.7142857142857143	89.0	-65.0	0.2857142857142857	9.0	3.0	2.0	4.370667424298539	0.627	n/a	stim	poldrack-single-stim	s518	False	1
33.323	0.664	33.987	-8.697928601917086	draw_card	0.664	columbia_card_task_fmri	17.0	0.6666666666666667	89.0	-65.0	0.3333333333333333	9.0	4.0	2.0	5.980511390751374	0.664	4.0	stim	poldrack-single-stim	s518	False	0
34.74	1.5	33.989	n/a	-1.0	2.454	columbia_card_task_fmri	n/a	n/a	-1.0	n/a	n/a	n/a	n/a	n/a	n/a	n/a	n/a	ITI	poldrack-single-stim	s518	False	0
36.445	0.412	36.857	4.735404731416244	draw_card	0.412	columbia_card_task_fmri	14.0	0.9	89.0	-95.0	0.1	10.0	1.0	1.0	0.0316308854507241	0.412	1.0	stim	poldrack-single-stim	s518	False	0
37.61	1.5	36.859	n/a	-1.0	2.522	columbia_card_task_fmri	n/a	n/a	-1.0	n/a	n/a	n/a	n/a	n/a	n/a	n/a	n/a	ITI	poldrack-single-stim	s518	False	0
39.383	0.804	40.187	0.6354047314162439	draw_card	0.804	columbia_card_task_fmri	15.0	0.8	89.0	-65.0	0.2	10.0	1.0	2.0	-0.6674762427003742	0.804	n/a	stim	poldrack-single-stim	s518	False	1
40.189	0.794	40.983	-1.142373046361533	draw_card	0.794	columbia_card_task_fmri	15.0	0.7777777777777778	89.0	-65.0	0.2222222222222222	10.0	2.0	2.0	0.5901213627853892	0.794	n/a	stim	poldrack-single-stim	s518	False	1
40.985	0.834	41.819	-3.364595268583756	draw_card	0.834	columbia_card_task_fmri	15.0	0.75	89.0	-65.0	0.25	10.0	3.0	2.0	1.9703596363689255	0.834	n/a	stim	poldrack-single-stim	s518	False	1
41.821	2.081	43.902	-6.22173812572661	draw_card	2.081	columbia_card_task_fmri	15.0	0.7142857142857143	89.0	-65.0	0.2857142857142857	10.0	4.0	2.0	3.4680606659265294	2.081	4.0	stim	poldrack-single-stim	s518	False	0
44.654	1.5	43.903	n/a	-1.0	2.318	columbia_card_task_fmri	n/a	n/a	-1.0	n/a	n/a	n/a	n/a	n/a	n/a	n/a	n/a	ITI	poldrack-single-stim	s518	False	0
46.224	0.661	46.885	2.2354047314162453	draw_card	0.661	columbia_card_task_fmri	17.0	0.8	89.0	-65.0	0.2	10.0	1.0	2.0	0.1315064375398194	0.661	n/a	stim	poldrack-single-stim	s518	False	1
46.887	0.658	47.545	0.4131825091940242	draw_card	0.658	columbia_card_task_fmri	17.0	0.7777777777777778	89.0	-65.0	0.2222222222222222	10.0	2.0	2.0	1.4206218388699057	0.658	n/a	stim	poldrack-single-stim	s518	False	1
47.546	0.638	48.184	-1.864595268583756	draw_card	0.638	columbia_card_task_fmri	17.0	0.75	89.0	-65.0	0.25	10.0	3.0	2.0	2.8354450174804957	0.638	n/a	stim	poldrack-single-stim	s518	False	1
48.186	1.163	49.349	-4.793166697155183	draw_card	1.163	columbia_card_task_fmri	17.0	0.7142857142857143	89.0	-65.0	0.2857142857142857	10.0	4.0	2.0	4.370667424298539	1.163	n/a	stim	poldrack-single-stim	s518	False	1
49.35	1.141	50.491	-8.697928601917086	draw_card	1.141	columbia_card_task_fmri	17.0	0.6666666666666667	89.0	-65.0	0.3333333333333333	10.0	5.0	2.0	5.980511390751374	1.141	5.0	stim	poldrack-single-stim	s518	False	0
51.245	1.5	50.494	n/a	-1.0	2.522	columbia_card_task_fmri	n/a	n/a	-1.0	n/a	n/a	n/a	n/a	n/a	n/a	n/a	n/a	ITI	poldrack-single-stim	s518	False	0
53.019	0.539	53.558	0.8020713980829117	draw_card	0.539	columbia_card_task_fmri	13.0	0.8333333333333334	89.0	-70.0	0.1666666666666666	12.0	1.0	2.0	-1.7337629624531417	0.539	n/a	stim	poldrack-single-stim	s518	False	1
53.56	0.46	54.02	-0.4555043594928496	draw_card	0.46	columbia_card_task_fmri	13.0	0.8181818181818181	89.0	-70.0	0.1818181818181818	12.0	2.0	2.0	-0.6548402697919755	0.46	n/a	stim	poldrack-single-stim	s518	False	1
54.022	0.644	54.666	-1.964595268583756	draw_card	0.644	columbia_card_task_fmri	13.0	0.8	89.0	-70.0	0.2	12.0	3.0	2.0	0.5310161290210331	0.644	n/a	stim	poldrack-single-stim	s518	False	1
54.668	0.607	55.275	-3.8090397130282008	draw_card	0.607	columbia_card_task_fmri	13.0	0.7777777777777778	89.0	-70.0	0.2222222222222222	12.0	4.0	2.0	1.8358897384218975	0.607	n/a	stim	poldrack-single-stim	s518	False	1
55.277	0.781	56.058	-6.114595268583756	draw_card	0.781	columbia_card_task_fmri	13.0	0.75	89.0	-70.0	0.25	12.0	5.0	2.0	3.268004669630741	0.781	n/a	stim	poldrack-single-stim	s518	False	1
56.06	0.986	57.046	-9.07888098286947	end_round	0.986	columbia_card_task_fmri	13.0	0.7142857142857143	71.0	-70.0	0.2857142857142857	12.0	6.0	2.0	4.821987065650262	0.986	5.0	stim	poldrack-single-stim	s518	False	1
57.8	1.5	57.049	n/a	-1.0	2.998	columbia_card_task_fmri	n/a	n/a	-1.0	n/a	n/a	n/a	n/a	n/a	n/a	n/a	n/a	ITI	poldrack-single-stim	s518	False	0
60.049	1.691	61.74	0.8020713980829117	draw_card	1.691	columbia_card_task_fmri	15.0	0.8333333333333334	89.0	-80.0	0.1666666666666666	12.0	1.0	2.0	2.7329221091435727	1.691	n/a	stim	poldrack-single-stim	s518	False	1
61.741	0.851	62.592	-0.6373225413110313	draw_card	0.851	columbia_card_task_fmri	15.0	0.8181818181818181	89.0	-80.0	0.1818181818181818	12.0	2.0	2.0	3.968227458254944	0.851	2.0	stim	poldrack-single-stim	s518	False	0
63.345	1.5	62.594	n/a	-1.0	2.318	columbia_card_task_fmri	n/a	n/a	-1.0	n/a	n/a	n/a	n/a	n/a	n/a	n/a	n/a	ITI	poldrack-single-stim	s518	False	0
64.915	0.925	65.84	-0.164595268583755	draw_card	0.925	columbia_card_task_fmri	14.0	0.8	89.0	-65.0	0.2	15.0	1.0	3.0	-1.0669483046983783	0.925	n/a	stim	poldrack-single-stim	s518	False	1
65.842	1.134	66.976	-1.2931666971551832	draw_card	1.134	columbia_card_task_fmri	14.0	0.7857142857142857	89.0	-65.0	0.2142857142857142	15.0	2.0	3.0	-0.2522648188637006	1.134	n/a	stim	poldrack-single-stim	s518	False	1
66.978	1.239	68.217	-2.595364499352988	draw_card	1.239	columbia_card_task_fmri	14.0	0.7692307692307692	89.0	-65.0	0.2307692307692307	15.0	3.0	3.0	0.6155923357949931	1.239	n/a	stim	poldrack-single-stim	s518	False	1
68.218	0.73	68.948	-4.114595268583756	draw_card	0.73	columbia_card_task_fmri	14.0	0.75	89.0	-65.0	0.25	15.0	4.0	3.0	1.5378347643116328	0.73	n/a	stim	poldrack-single-stim	s518	False	1
68.95	0.913	69.863	-5.910049814038301	draw_card	0.913	columbia_card_task_fmri	14.0	0.7272727272727273	89.0	-65.0	0.2727272727272727	15.0	5.0	3.0	2.512329098291588	0.913	5.0	stim	poldrack-single-stim	s518	False	0
70.617	1.5	69.866	n/a	-1.0	2.25	columbia_card_task_fmri	n/a	n/a	-1.0	n/a	n/a	n/a	n/a	n/a	n/a	n/a	n/a	ITI	poldrack-single-stim	s518	False	0
72.119	0.698	72.817	-0.2395952685837561	draw_card	0.698	columbia_card_task_fmri	1.0	0.9375	89.0	-45.0	0.0625	16.0	1.0	1.0	-21.454954134395173	0.698	n/a	stim	poldrack-single-stim	s518	False	1
72.819	0.754	73.573	-0.4312619352504225	draw_card	0.754	columbia_card_task_fmri	1.0	0.9333333333333332	89.0	-45.0	0.0666666666666666	16.0	2.0	1.0	-21.118864753072128	0.754	n/a	stim	poldrack-single-stim	s518	False	1
73.575	0.48	74.055	-0.6503095542980417	draw_card	0.48	columbia_card_task_fmri	1.0	0.9285714285714286	89.0	-45.0	0.0714285714285714	16.0	3.0	1.0	-20.750079670231656	0.48	n/a	stim	poldrack-single-stim	s518	False	1
74.057	0.473	74.53	-0.9030568070452945	draw_card	0.473	columbia_card_task_fmri	1.0	0.9230769230769232	89.0	-45.0	0.0769230769230769	16.0	4.0	1.0	-20.343032064918248	0.473	n/a	stim	poldrack-single-stim	s518	False	1
74.533	0.645	75.178	-1.1979286019170896	draw_card	0.645	columbia_card_task_fmri	1.0	0.9166666666666666	89.0	-45.0	0.0833333333333333	16.0	5.0	1.0	-19.890758500779192	0.645	n/a	stim	poldrack-single-stim	s518	False	1
75.18	0.947	76.127	-1.5464134504019378	end_round	0.947	columbia_card_task_fmri	1.0	0.9090909090909092	71.0	-45.0	0.0909090909090909	16.0	6.0	1.0	-19.38442805699396	0.947	5.0	stim	poldrack-single-stim	s518	False	1
76.88	1.5	76.129	n/a	-1.0	2.454	columbia_card_task_fmri	n/a	n/a	-1.0	n/a	n/a	n/a	n/a	n/a	n/a	n/a	n/a	ITI	poldrack-single-stim	s518	False	0
78.587	0.528	79.115	0.6979047314162439	draw_card	0.528	columbia_card_task_fmri	15.0	0.8125	89.0	-70.0	0.1875	16.0	1.0	3.0	0.5075964119363334	0.528	n/a	stim	poldrack-single-stim	s518	False	1
79.116	0.584	79.7	-0.3645952685837561	draw_card	0.584	columbia_card_task_fmri	15.0	0.8	89.0	-70.0	0.2	16.0	2.0	3.0	1.3300700608586595	0.584	n/a	stim	poldrack-single-stim	s518	False	1
79.703	0.489	80.192	-1.5788809828694714	draw_card	0.489	columbia_card_task_fmri	15.0	0.7857142857142857	89.0	-70.0	0.2142857142857142	16.0	3.0	3.0	2.2067837302672477	0.489	3.0	stim	poldrack-single-stim	s518	False	0
80.945	1.5	80.194	n/a	-1.0	2.318	columbia_card_task_fmri	n/a	n/a	-1.0	n/a	n/a	n/a	n/a	n/a	n/a	n/a	n/a	ITI	poldrack-single-stim	s518	False	0
82.515	0.488	83.003	7.635404731416244	draw_card	0.488	columbia_card_task_fmri	30.0	0.7	89.0	-50.0	0.3	10.0	1.0	3.0	3.987825764537469	0.488	1.0	stim	poldrack-single-stim	s518	False	0
83.757	1.5	83.006	n/a	-1.0	2.318	columbia_card_task_fmri	n/a	n/a	-1.0	n/a	n/a	n/a	n/a	n/a	n/a	n/a	n/a	ITI	poldrack-single-stim	s518	False	0
85.327	0.493	85.82	7.035404731416245	draw_card	0.493	columbia_card_task_fmri	17.0	0.8666666666666667	89.0	-70.0	0.1333333333333333	15.0	1.0	2.0	-3.0897427232067898	0.493	n/a	stim	poldrack-single-stim	s518	False	1
85.822	0.424	86.246	6.206833302844817	draw_card	0.424	columbia_card_task_fmri	17.0	0.8571428571428572	89.0	-70.0	0.1428571428571428	15.0	2.0	2.0	-2.2216860226687487	0.424	n/a	stim	poldrack-single-stim	s518	False	1
86.248	0.397	86.645	5.250789346800859	draw_card	0.397	columbia_card_task_fmri	17.0	0.8461538461538461	89.0	-70.0	0.1538461538461538	15.0	3.0	2.0	-1.2769598934025836	0.397	n/a	stim	poldrack-single-stim	s518	False	1
86.647	0.394	87.041	4.135404731416246	draw_card	0.394	columbia_card_task_fmri	17.0	0.8333333333333334	89.0	-70.0	0.1666666666666666	15.0	4.0	2.0	-0.2450347012227212	0.394	n/a	stim	poldrack-single-stim	s518	False	1
87.044	0.478	87.522	2.817222913234424	draw_card	0.478	columbia_card_task_fmri	17.0	0.8181818181818181	89.0	-70.0	0.1818181818181818	15.0	5.0	2.0	0.886021131805407	0.478	n/a	stim	poldrack-single-stim	s518	False	1
87.525	0.458	87.983	1.2354047314162453	draw_card	0.458	columbia_card_task_fmri	17.0	0.8	89.0	-70.0	0.2	15.0	6.0	2.0	2.1291674164668137	0.458	6.0	stim	poldrack-single-stim	s518	False	0
88.736	1.5	87.985	n/a	-1.0	2.59	columbia_card_task_fmri	n/a	n/a	-1.0	n/a	n/a	n/a	n/a	n/a	n/a	n/a	n/a	ITI	poldrack-single-stim	s518	False	0
90.579	0.39	90.969	2.260404731416244	draw_card	0.39	columbia_card_task_fmri	7.0	0.9375	89.0	-95.0	0.0625	16.0	1.0	1.0	-7.964867258706295	0.39	n/a	stim	poldrack-single-stim	s518	False	1
90.97	0.561	91.531	1.835404731416244	draw_card	0.561	columbia_card_task_fmri	7.0	0.9333333333333332	89.0	-95.0	0.0666666666666666	16.0	2.0	1.0	-7.213463699927349	0.561	n/a	stim	poldrack-single-stim	s518	False	1
91.534	0.437	91.971	1.3496904457019585	draw_card	0.437	columbia_card_task_fmri	7.0	0.9285714285714286	89.0	-95.0	0.0714285714285714	16.0	3.0	1.0	-6.389364704153071	0.437	n/a	stim	poldrack-single-stim	s518	False	1
91.973	0.411	92.384	0.7892508852623972	draw_card	0.411	columbia_card_task_fmri	7.0	0.9230769230769232	89.0	-95.0	0.0769230769230769	16.0	4.0	1.0	-5.480208151860971	0.411	n/a	stim	poldrack-single-stim	s518	False	1
92.386	0.401	92.787	0.1354047314162438	draw_card	0.401	columbia_card_task_fmri	7.0	0.9166666666666666	89.0	-95.0	0.0833333333333333	16.0	5.0	1.0	-4.470532245341612	0.401	n/a	stim	poldrack-single-stim	s518	False	1
92.789	0.791	93.58	-0.6373225413110295	draw_card	0.791	columbia_card_task_fmri	7.0	0.9090909090909092	89.0	-95.0	0.0909090909090909	16.0	6.0	1.0	-3.3407308604794075	0.791	6.0	stim	poldrack-single-stim	s518	False	0
94.333	1.5	93.582	n/a	-1.0	2.25	columbia_card_task_fmri	n/a	n/a	-1.0	n/a	n/a	n/a	n/a	n/a	n/a	n/a	n/a	ITI	poldrack-single-stim	s518	False	0
95.836	1.069	96.905	3.822904731416244	draw_card	1.069	columbia_card_task_fmri	9.0	0.9375	89.0	-100.0	0.0625	16.0	1.0	1.0	-6.273904648937151	1.069	n/a	stim	poldrack-single-stim	s518	False	1
96.908	0.487	97.395	3.3687380647495773	draw_card	0.487	columbia_card_task_fmri	9.0	0.9333333333333332	89.0	-100.0	0.0666666666666666	16.0	2.0	1.0	-5.470722501767355	0.487	n/a	stim	poldrack-single-stim	s518	False	1
97.398	0.457	97.855	2.849690445701959	draw_card	0.457	columbia_card_task_fmri	9.0	0.9285714285714286	89.0	-100.0	0.0714285714285714	16.0	3.0	1.0	-4.589849438077859	0.457	3.0	stim	poldrack-single-stim	s518	False	0
98.609	1.5	97.858	n/a	-1.0	2.25	columbia_card_task_fmri	n/a	n/a	-1.0	n/a	n/a	n/a	n/a	n/a	n/a	n/a	n/a	ITI	poldrack-single-stim	s518	False	0
100.112	0.505	100.617	4.760404731416244	draw_card	0.505	columbia_card_task_fmri	15.0	0.875	89.0	-80.0	0.125	16.0	1.0	2.0	-1.2484072344817534	0.505	1.0	stim	poldrack-single-stim	s518	False	0
100.805	1.5	100.054	n/a	-1.0	2.522	columbia_card_task_fmri	n/a	n/a	-1.0	n/a	n/a	n/a	n/a	n/a	n/a	n/a	n/a	ITI	poldrack-single-stim	s518	False	0
102.58	0.387	102.967	6.885404731416244	draw_card	0.387	columbia_card_task_fmri	16.0	0.875	89.0	-70.0	0.125	16.0	1.0	2.0	-4.220433141050098	0.387	n/a	stim	poldrack-single-stim	s518	False	1
102.969	0.448	103.417	6.1687380647495775	draw_card	0.448	columbia_card_task_fmri	16.0	0.8666666666666667	89.0	-70.0	0.1333333333333333	16.0	2.0	2.0	-3.429152790202544	0.448	2.0	stim	poldrack-single-stim	s518	False	0
104.171	1.5	103.42	n/a	-1.0	2.454	columbia_card_task_fmri	n/a	n/a	-1.0	n/a	n/a	n/a	n/a	n/a	n/a	n/a	n/a	ITI	poldrack-single-stim	s518	False	0
105.877	0.24	106.117	8.197904731416244	draw_card	0.24	columbia_card_task_fmri	30.0	0.6875	89.0	-45.0	0.3125	16.0	1.0	5.0	2.0926381817739994	0.24	n/a	stim	poldrack-single-stim	s518	False	1
106.12	0.427	106.547	6.635404731416248	draw_card	0.427	columbia_card_task_fmri	30.0	0.6666666666666667	89.0	-45.0	0.3333333333333333	16.0	2.0	5.0	2.683903864769306	0.427	2.0	stim	poldrack-single-stim	s518	False	0
107.301	1.5	106.55	n/a	-1.0	2.25	columbia_card_task_fmri	n/a	n/a	-1.0	n/a	n/a	n/a	n/a	n/a	n/a	n/a	n/a	ITI	poldrack-single-stim	s518	False	0
108.802	0.371	109.173	-0.0312619352504222	draw_card	0.371	columbia_card_task_fmri	13.0	0.8333333333333334	89.0	-75.0	0.1666666666666666	6.0	1.0	1.0	0.1271754882968565	0.371	n/a	stim	poldrack-single-stim	s518	False	1
109.176	0.478	109.654	-2.964595268583756	draw_card	0.478	columbia_card_task_fmri	13.0	0.8	89.0	-75.0	0.2	6.0	2.0	1.0	2.528731455008512	0.478	n/a	stim	poldrack-single-stim	s518	False	1
109.656	0.573	110.229	-7.364595268583756	draw_card	0.573	columbia_card_task_fmri	13.0	0.75	89.0	-75.0	0.25	6.0	3.0	1.0	5.430957156696728	0.573	n/a	stim	poldrack-single-stim	s518	False	1
110.231	0.757	110.988	-14.697928601917088	draw_card	0.757	columbia_card_task_fmri	13.0	0.6666666666666667	89.0	-75.0	0.3333333333333333	6.0	4.0	1.0	8.806582719196882	0.757	n/a	stim	poldrack-single-stim	s518	False	1
110.99	0.661	111.651	-29.36459526858376	end_round	0.661	columbia_card_task_fmri	13.0	0.5	71.0	-75.0	0.5	6.0	5.0	1.0	11.32114329529476	0.661	4.0	stim	poldrack-single-stim	s518	False	1
112.406	1.5	111.655	n/a	-1.0	2.454	columbia_card_task_fmri	n/a	n/a	-1.0	n/a	n/a	n/a	n/a	n/a	n/a	n/a	n/a	ITI	poldrack-single-stim	s518	False	0
114.111	0.907	115.018	1.6354047314162456	draw_card	0.907	columbia_card_task_fmri	14.0	0.8333333333333334	89.0	-70.0	0.1666666666666666	6.0	1.0	1.0	-1.3615985730716351	0.907	n/a	stim	poldrack-single-stim	s518	False	1
115.02	0.596	115.616	-1.164595268583755	draw_card	0.596	columbia_card_task_fmri	14.0	0.8	89.0	-70.0	0.2	6.0	2.0	1.0	0.9305374735666732	0.596	2.0	stim	poldrack-single-stim	s518	False	0
116.37	1.5	115.619	n/a	-1.0	2.454	columbia_card_task_fmri	n/a	n/a	-1.0	n/a	n/a	n/a	n/a	n/a	n/a	n/a	n/a	ITI	poldrack-single-stim	s518	False	0
118.076	0.636	118.712	1.6354047314162456	draw_card	0.636	columbia_card_task_fmri	16.0	0.8333333333333334	89.0	-80.0	0.1666666666666666	6.0	1.0	1.0	3.105207275256319	0.636	n/a	stim	poldrack-single-stim	s518	False	1
118.714	0.558	119.272	-1.5645952685837554	draw_card	0.558	columbia_card_task_fmri	16.0	0.8	89.0	-80.0	0.2	6.0	2.0	1.0	5.725570261674079	0.558	n/a	stim	poldrack-single-stim	s518	False	1
119.277	0.462	119.739	-6.364595268583756	draw_card	0.462	columbia_card_task_fmri	16.0	0.75	89.0	-80.0	0.25	6.0	3.0	1.0	8.89213795032682	0.462	3.0	stim	poldrack-single-stim	s518	False	0
120.493	1.5	119.742	n/a	-1.0	2.522	columbia_card_task_fmri	n/a	n/a	-1.0	n/a	n/a	n/a	n/a	n/a	n/a	n/a	n/a	ITI	poldrack-single-stim	s518	False	0
122.268	0.481	122.749	4.135404731416246	draw_card	0.481	columbia_card_task_fmri	17.0	0.8333333333333334	89.0	-70.0	0.1666666666666666	6.0	1.0	1.0	-0.2450347012227212	0.481	1.0	stim	poldrack-single-stim	s518	False	0
123.501	1.5	122.75	n/a	-1.0	2.454	columbia_card_task_fmri	n/a	n/a	-1.0	n/a	n/a	n/a	n/a	n/a	n/a	n/a	n/a	ITI	poldrack-single-stim	s518	False	0
125.208	0.865	126.073	4.135404731416244	draw_card	0.865	columbia_card_task_fmri	25.0	0.75	89.0	-65.0	0.25	8.0	1.0	2.0	6.296203738087918	0.865	n/a	stim	poldrack-single-stim	s518	False	1
126.076	0.592	126.668	0.921119017130532	draw_card	0.592	columbia_card_task_fmri	25.0	0.7142857142857143	89.0	-65.0	0.2857142857142857	8.0	2.0	2.0	7.981494445258562	0.592	n/a	stim	poldrack-single-stim	s518	False	1
126.672	0.573	127.245	-3.364595268583753	draw_card	0.573	columbia_card_task_fmri	25.0	0.6666666666666667	89.0	-65.0	0.3333333333333333	8.0	3.0	2.0	9.748676215927468	0.573	n/a	stim	poldrack-single-stim	s518	False	1
127.249	0.573	127.822	-9.364595268583756	draw_card	0.573	columbia_card_task_fmri	25.0	0.6	89.0	-65.0	0.4	8.0	4.0	2.0	11.41189612936492	0.573	4.0	stim	poldrack-single-stim	s518	False	0
128.575	1.5	127.824	n/a	-1.0	2.658	columbia_card_task_fmri	n/a	n/a	-1.0	n/a	n/a	n/a	n/a	n/a	n/a	n/a	n/a	ITI	poldrack-single-stim	s518	False	0
130.487	0.502	130.989	4.135404731416244	draw_card	0.502	columbia_card_task_fmri	30.0	0.75	89.0	-80.0	0.25	8.0	1.0	2.0	14.950225604885723	0.502	n/a	stim	poldrack-single-stim	s518	False	1
130.992	0.403	131.395	0.2068333028448203	draw_card	0.403	columbia_card_task_fmri	30.0	0.7142857142857143	89.0	-80.0	0.2857142857142857	8.0	2.0	2.0	17.01059931726956	0.403	2.0	stim	poldrack-single-stim	s518	False	0
132.149	1.5	131.398	n/a	-1.0	2.386	columbia_card_task_fmri	n/a	n/a	-1.0	n/a	n/a	n/a	n/a	n/a	n/a	n/a	n/a	ITI	poldrack-single-stim	s518	False	0
133.789	0.552	134.341	3.835404731416245	draw_card	0.552	columbia_card_task_fmri	13.0	0.9	89.0	-95.0	0.1	10.0	1.0	1.0	-0.267991170359096	0.552	n/a	stim	poldrack-single-stim	s518	False	1
134.343	0.811	135.154	2.635404731416244	draw_card	0.811	columbia_card_task_fmri	13.0	0.8888888888888888	89.0	-95.0	0.1111111111111111	10.0	2.0	1.0	1.2712636643030208	0.811	n/a	stim	poldrack-single-stim	s518	False	1
135.157	0.525	135.682	1.135404731416244	draw_card	0.525	columbia_card_task_fmri	13.0	0.875	89.0	-95.0	0.125	10.0	3.0	1.0	3.045824445350746	0.525	n/a	stim	poldrack-single-stim	s518	False	1
135.684	0.601	136.285	-0.7931666971551832	draw_card	0.601	columbia_card_task_fmri	13.0	0.8571428571428572	89.0	-95.0	0.1428571428571428	10.0	4.0	1.0	5.118257093632373	0.601	n/a	stim	poldrack-single-stim	s518	False	1
136.287	0.594	136.881	-3.3645952685837544	end_round	0.594	columbia_card_task_fmri	13.0	0.8333333333333334	71.0	-95.0	0.1666666666666666	10.0	5.0	1.0	7.57319592728426	0.594	4.0	stim	poldrack-single-stim	s518	False	1
137.636	1.5	136.885	n/a	-1.0	2.522	columbia_card_task_fmri	n/a	n/a	-1.0	n/a	n/a	n/a	n/a	n/a	n/a	n/a	n/a	ITI	poldrack-single-stim	s518	False	0
139.411	0.531	139.942	5.235404731416244	draw_card	0.531	columbia_card_task_fmri	14.0	0.9	89.0	-90.0	0.1	10.0	1.0	1.0	-1.4664068573008675	0.531	n/a	stim	poldrack-single-stim	s518	False	1
139.944	0.483	140.427	4.079849175860687	draw_card	0.483	columbia_card_task_fmri	14.0	0.8888888888888888	89.0	-90.0	0.1111111111111111	10.0	2.0	1.0	0.0156975840533633	0.483	n/a	stim	poldrack-single-stim	s518	False	1
140.43	0.624	141.054	2.635404731416244	draw_card	0.624	columbia_card_task_fmri	14.0	0.875	89.0	-90.0	0.125	10.0	3.0	1.0	1.7243864479227398	0.624	n/a	stim	poldrack-single-stim	s518	False	1
141.056	0.514	141.57	0.778261874273388	draw_card	0.514	columbia_card_task_fmri	14.0	0.8571428571428572	89.0	-90.0	0.1428571428571428	10.0	4.0	1.0	3.719907647951601	0.514	n/a	stim	poldrack-single-stim	s518	False	1
141.574	1.415	142.989	-1.6979286019170885	end_round	1.415	columbia_card_task_fmri	14.0	0.8333333333333334	71.0	-90.0	0.1666666666666666	10.0	5.0	1.0	6.083760179454835	1.415	4.0	stim	poldrack-single-stim	s518	False	1
143.744	1.5	142.993	n/a	-1.0	2.59	columbia_card_task_fmri	n/a	n/a	-1.0	n/a	n/a	n/a	n/a	n/a	n/a	n/a	n/a	ITI	poldrack-single-stim	s518	False	0
145.586	0.464	146.05	0.4354047314162446	draw_card	0.464	columbia_card_task_fmri	16.0	0.8	89.0	-70.0	0.2	10.0	1.0	2.0	1.7296134996083978	0.464	n/a	stim	poldrack-single-stim	s518	False	1
146.053	0.448	146.501	-1.4757063796948668	draw_card	0.448	columbia_card_task_fmri	16.0	0.7777777777777778	89.0	-70.0	0.2222222222222222	10.0	2.0	2.0	3.0817591650245437	0.448	n/a	stim	poldrack-single-stim	s518	False	1
146.504	0.627	147.131	-3.864595268583756	draw_card	0.627	columbia_card_task_fmri	16.0	0.75	89.0	-70.0	0.25	10.0	3.0	2.0	4.565746748466296	0.627	n/a	stim	poldrack-single-stim	s518	False	1
147.134	0.601	147.735	-6.936023840012327	draw_card	0.601	columbia_card_task_fmri	16.0	0.7142857142857143	89.0	-70.0	0.2857142857142857	10.0	4.0	2.0	6.176006508437169	0.601	n/a	stim	poldrack-single-stim	s518	False	1
147.737	0.894	148.631	-11.03126193525042	end_round	0.894	columbia_card_task_fmri	16.0	0.6666666666666667	71.0	-70.0	0.3333333333333333	10.0	5.0	2.0	7.864522463970573	0.894	4.0	stim	poldrack-single-stim	s518	False	1
149.386	1.5	148.635	n/a	-1.0	2.386	columbia_card_task_fmri	n/a	n/a	-1.0	n/a	n/a	n/a	n/a	n/a	n/a	n/a	n/a	ITI	poldrack-single-stim	s518	False	0
151.025	0.746	151.771	-0.2812619352504222	draw_card	0.746	columbia_card_task_fmri	7.0	0.9166666666666666	89.0	-100.0	0.0833333333333333	12.0	1.0	1.0	-3.09081654742068	0.746	n/a	stim	poldrack-single-stim	s518	False	1
151.775	0.507	152.282	-1.0918679958564843	draw_card	0.507	columbia_card_task_fmri	7.0	0.9090909090909092	89.0	-100.0	0.0909090909090909	12.0	2.0	1.0	-1.9054582703486995	0.507	n/a	stim	poldrack-single-stim	s518	False	1
152.285	0.572	152.857	-2.0645952685837563	draw_card	0.572	columbia_card_task_fmri	7.0	0.9	89.0	-100.0	0.1	12.0	3.0	1.0	-0.5676061753852863	0.572	n/a	stim	poldrack-single-stim	s518	False	1
152.859	0.551	153.41	-3.2534841574726454	draw_card	0.551	columbia_card_task_fmri	7.0	0.8888888888888888	89.0	-100.0	0.1111111111111111	12.0	4.0	1.0	0.9573615605007147	0.551	4.0	stim	poldrack-single-stim	s518	False	0
154.165	1.5	153.414	n/a	-1.0	2.59	columbia_card_task_fmri	n/a	n/a	-1.0	n/a	n/a	n/a	n/a	n/a	n/a	n/a	n/a	ITI	poldrack-single-stim	s518	False	0
156.008	0.406	156.414	-0.0312619352504204	draw_card	0.406	columbia_card_task_fmri	14.0	0.8333333333333334	89.0	-80.0	0.1666666666666666	12.0	1.0	2.0	2.360645287626852	0.406	n/a	stim	poldrack-single-stim	s518	False	1
156.416	0.444	156.86	-1.4555043594928496	draw_card	0.444	columbia_card_task_fmri	14.0	0.8181818181818181	89.0	-80.0	0.1818181818181818	12.0	2.0	2.0	3.582920527551714	0.444	n/a	stim	poldrack-single-stim	s518	False	1
156.863	0.439	157.302	-3.164595268583755	draw_card	0.439	columbia_card_task_fmri	14.0	0.8	89.0	-80.0	0.2	12.0	3.0	2.0	4.926310188007676	0.439	n/a	stim	poldrack-single-stim	s518	False	1
157.304	0.458	157.762	-5.253484157472645	draw_card	0.458	columbia_card_task_fmri	14.0	0.7777777777777778	89.0	-80.0	0.2222222222222222	12.0	4.0	2.0	6.404498225914452	0.458	4.0	stim	poldrack-single-stim	s518	False	0
158.517	1.5	157.766	n/a	-1.0	2.318	columbia_card_task_fmri	n/a	n/a	-1.0	n/a	n/a	n/a	n/a	n/a	n/a	n/a	n/a	ITI	poldrack-single-stim	s518	False	0
160.089	0.659	160.748	1.635404731416244	draw_card	0.659	columbia_card_task_fmri	15.0	0.8333333333333334	89.0	-75.0	0.1666666666666666	12.0	1.0	2.0	0.8716269979093028	0.659	n/a	stim	poldrack-single-stim	s518	False	1
160.752	0.482	161.234	0.2717683677798788	draw_card	0.482	columbia_card_task_fmri	15.0	0.8181818181818181	89.0	-75.0	0.1818181818181818	12.0	2.0	2.0	2.0417788166373825	0.482	n/a	stim	poldrack-single-stim	s518	False	1
161.236	0.485	161.721	-1.364595268583756	draw_card	0.485	columbia_card_task_fmri	15.0	0.8	89.0	-75.0	0.2	12.0	3.0	2.0	3.327888550435219	0.485	n/a	stim	poldrack-single-stim	s518	False	1
161.724	0.457	162.181	-3.3645952685837544	draw_card	0.457	columbia_card_task_fmri	15.0	0.7777777777777778	89.0	-75.0	0.2222222222222222	12.0	4.0	2.0	4.743058160715613	0.457	n/a	stim	poldrack-single-stim	s518	False	1
162.184	0.615	162.799	-5.864595268583756	draw_card	0.615	columbia_card_task_fmri	15.0	0.75	89.0	-75.0	0.25	12.0	5.0	2.0	6.296203738087918	0.615	n/a	stim	poldrack-single-stim	s518	False	1
162.802	0.7	163.502	-9.078880982869467	end_round	0.7	columbia_card_task_fmri	15.0	0.7142857142857143	71.0	-75.0	0.2857142857142857	12.0	6.0	2.0	7.981494445258562	0.7	5.0	stim	poldrack-single-stim	s518	False	1
164.257	1.5	163.506	n/a	-1.0	2.25	columbia_card_task_fmri	n/a	n/a	-1.0	n/a	n/a	n/a	n/a	n/a	n/a	n/a	n/a	ITI	poldrack-single-stim	s518	False	0
165.76	0.678	166.438	0.6354047314162439	draw_card	0.678	columbia_card_task_fmri	15.0	0.8	89.0	-65.0	0.2	15.0	1.0	3.0	-0.6674762427003742	0.678	n/a	stim	poldrack-single-stim	s518	False	1
166.441	0.48	166.921	-0.5074524114408985	draw_card	0.48	columbia_card_task_fmri	15.0	0.7857142857142857	89.0	-65.0	0.2142857142857142	15.0	2.0	3.0	0.1575463814633835	0.48	n/a	stim	poldrack-single-stim	s518	False	1
166.924	0.636	167.56	-1.82613373012222	draw_card	0.636	columbia_card_task_fmri	15.0	0.7692307692307692	89.0	-65.0	0.2307692307692307	15.0	3.0	3.0	1.0364160653156134	0.636	n/a	stim	poldrack-single-stim	s518	False	1
167.563	0.543	168.106	-3.364595268583756	draw_card	0.543	columbia_card_task_fmri	15.0	0.75	89.0	-65.0	0.25	15.0	4.0	3.0	1.9703596363689255	0.543	4.0	stim	poldrack-single-stim	s518	False	0
168.86	1.5	168.109	n/a	-1.0	2.454	columbia_card_task_fmri	n/a	n/a	-1.0	n/a	n/a	n/a	n/a	n/a	n/a	n/a	n/a	ITI	poldrack-single-stim	s518	False	0
170.568	0.399	170.967	-0.1145952685837561	draw_card	0.399	columbia_card_task_fmri	14.0	0.8125	89.0	-70.0	0.1875	16.0	1.0	3.0	0.1177630088366115	0.399	n/a	stim	poldrack-single-stim	s518	False	1
170.971	0.583	171.554	-1.164595268583755	draw_card	0.583	columbia_card_task_fmri	14.0	0.8	89.0	-70.0	0.2	16.0	2.0	3.0	0.9305374735666732	0.583	n/a	stim	poldrack-single-stim	s518	False	1
171.557	0.481	172.038	-2.364595268583756	draw_card	0.481	columbia_card_task_fmri	14.0	0.7857142857142857	89.0	-70.0	0.2142857142857142	16.0	3.0	3.0	1.796913516832454	0.481	n/a	stim	poldrack-single-stim	s518	False	1
172.042	0.471	172.513	-3.749210653199141	draw_card	0.471	columbia_card_task_fmri	14.0	0.7692307692307692	89.0	-70.0	0.2307692307692307	16.0	4.0	3.0	2.719830146078408	0.471	n/a	stim	poldrack-single-stim	s518	False	1
172.516	0.533	173.049	-5.364595268583756	draw_card	0.533	columbia_card_task_fmri	14.0	0.75	89.0	-70.0	0.25	16.0	5.0	3.0	3.700575092157095	0.533	n/a	stim	poldrack-single-stim	s518	False	1
173.054	0.753	173.807	-7.273686177674664	draw_card	0.753	columbia_card_task_fmri	14.0	0.7272727272727273	89.0	-70.0	0.2727272727272727	16.0	6.0	3.0	4.736878992321778	0.753	n/a	stim	poldrack-single-stim	s518	False	1
173.81	0.846	174.656	-9.564595268583757	end_round	0.846	columbia_card_task_fmri	14.0	0.7	71.0	-70.0	0.3	16.0	7.0	3.0	5.819121502572457	0.846	6.0	stim	poldrack-single-stim	s518	False	1
175.411	1.5	174.66	n/a	-1.0	3.27	columbia_card_task_fmri	n/a	n/a	-1.0	n/a	n/a	n/a	n/a	n/a	n/a	n/a	n/a	ITI	poldrack-single-stim	s518	False	0
177.935	0.668	178.603	-0.1770952685837561	draw_card	0.668	columbia_card_task_fmri	11.0	0.6875	89.0	-30.0	0.3125	16.0	1.0	5.0	-13.634991976723567	0.668	1.0	stim	poldrack-single-stim	s518	False	0
179.358	1.5	178.607	n/a	-1.0	2.25	columbia_card_task_fmri	n/a	n/a	-1.0	n/a	n/a	n/a	n/a	n/a	n/a	n/a	n/a	ITI	poldrack-single-stim	s518	False	0
180.86	1.117	181.977	4.635404731416244	draw_card	1.117	columbia_card_task_fmri	15.0	0.8666666666666667	89.0	-75.0	0.1333333333333333	15.0	1.0	2.0	-2.071442733443142	1.117	n/a	stim	poldrack-single-stim	s518	False	1
181.98	0.605	182.585	3.778261874273388	draw_card	0.605	columbia_card_task_fmri	15.0	0.8571428571428572	89.0	-75.0	0.1428571428571428	15.0	2.0	2.0	-1.1733658536904343	0.605	n/a	stim	poldrack-single-stim	s518	False	1
182.588	0.508	183.096	2.789250885262397	draw_card	0.508	columbia_card_task_fmri	15.0	0.8461538461538461	89.0	-75.0	0.1538461538461538	15.0	3.0	2.0	-0.1959735442887549	0.508	n/a	stim	poldrack-single-stim	s518	False	1
183.099	0.635	183.734	1.635404731416244	draw_card	0.635	columbia_card_task_fmri	15.0	0.8333333333333334	89.0	-75.0	0.1666666666666666	15.0	4.0	2.0	0.8716269979093028	0.635	n/a	stim	poldrack-single-stim	s518	False	1
183.738	0.691	184.429	0.2717683677798788	draw_card	0.691	columbia_card_task_fmri	15.0	0.8181818181818181	89.0	-75.0	0.1818181818181818	15.0	5.0	2.0	2.0417788166373825	0.691	n/a	stim	poldrack-single-stim	s518	False	1
184.431	0.621	185.052	-1.364595268583756	end_round	0.621	columbia_card_task_fmri	15.0	0.8	71.0	-75.0	0.2	15.0	6.0	2.0	3.327888550435219	0.621	5.0	stim	poldrack-single-stim	s518	False	1
185.807	1.5	185.056	n/a	-1.0	2.25	columbia_card_task_fmri	n/a	n/a	-1.0	n/a	n/a	n/a	n/a	n/a	n/a	n/a	n/a	ITI	poldrack-single-stim	s518	False	0
187.311	0.947	188.258	6.368738064749579	draw_card	0.947	columbia_card_task_fmri	17.0	0.8666666666666667	89.0	-75.0	0.1333333333333333	15.0	1.0	2.0	-1.392521698426485	0.947	n/a	stim	poldrack-single-stim	s518	False	1
188.261	0.48	188.741	5.492547588559104	draw_card	0.48	columbia_card_task_fmri	17.0	0.8571428571428572	89.0	-75.0	0.1428571428571428	15.0	2.0	2.0	-0.4744329057727086	0.48	n/a	stim	poldrack-single-stim	s518	False	1
188.745	0.48	189.225	4.481558577570091	draw_card	0.48	columbia_card_task_fmri	17.0	0.8461538461538461	89.0	-75.0	0.1538461538461538	15.0	3.0	2.0	0.5247352770431419	0.48	n/a	stim	poldrack-single-stim	s518	False	1
189.229	0.685	189.914	3.302071398082912	draw_card	0.685	columbia_card_task_fmri	17.0	0.8333333333333334	89.0	-75.0	0.1666666666666666	15.0	4.0	2.0	1.6161177643946942	0.685	n/a	stim	poldrack-single-stim	s518	False	1
189.917	0.545	190.462	1.9081320041435157	end_round	0.545	columbia_card_task_fmri	17.0	0.8181818181818181	71.0	-75.0	0.1818181818181818	15.0	5.0	2.0	2.812331909947595	0.545	4.0	stim	poldrack-single-stim	s518	False	1
191.216	1.5	190.465	n/a	-1.0	2.318	columbia_card_task_fmri	n/a	n/a	-1.0	n/a	n/a	n/a	n/a	n/a	n/a	n/a	n/a	ITI	poldrack-single-stim	s518	False	0
192.788	1.106	193.894	1.947904731416244	draw_card	1.106	columbia_card_task_fmri	2.0	0.9375	89.0	-25.0	0.0625	16.0	1.0	1.0	-25.9720738023687	1.106	n/a	stim	poldrack-single-stim	s518	False	1
193.898	0.482	194.38	1.835404731416244	draw_card	0.482	columbia_card_task_fmri	2.0	0.9333333333333332	89.0	-25.0	0.0666666666666666	16.0	2.0	1.0	-25.778542698587746	0.482	2.0	stim	poldrack-single-stim	s518	False	0
195.135	1.5	194.384	n/a	-1.0	2.726	columbia_card_task_fmri	n/a	n/a	-1.0	n/a	n/a	n/a	n/a	n/a	n/a	n/a	n/a	ITI	poldrack-single-stim	s518	False	0
197.115	0.682	197.797	4.135404731416244	draw_card	0.682	columbia_card_task_fmri	9.0	0.9375	89.0	-95.0	0.0625	16.0	1.0	1.0	-7.481782567540446	0.682	n/a	stim	poldrack-single-stim	s518	False	1
197.8	0.464	198.264	3.702071398082911	draw_card	0.464	columbia_card_task_fmri	9.0	0.9333333333333332	89.0	-95.0	0.0666666666666666	16.0	2.0	1.0	-6.715583737740655	0.464	n/a	stim	poldrack-single-stim	s518	False	1
198.268	0.443	198.711	3.206833302844816	draw_card	0.443	columbia_card_task_fmri	9.0	0.9285714285714286	89.0	-95.0	0.0714285714285714	16.0	3.0	1.0	-5.875262146888627	0.443	n/a	stim	poldrack-single-stim	s518	False	1
198.715	0.822	199.537	2.635404731416244	draw_card	0.822	columbia_card_task_fmri	9.0	0.9230769230769232	89.0	-95.0	0.0769230769230769	16.0	4.0	1.0	-4.948213100417405	0.822	n/a	stim	poldrack-single-stim	s518	False	1
199.541	0.768	200.309	1.9687380647495776	end_round	0.768	columbia_card_task_fmri	9.0	0.9166666666666666	71.0	-95.0	0.0833333333333333	16.0	5.0	1.0	-3.9186714195615657	0.768	4.0	stim	poldrack-single-stim	s518	False	1
201.064	1.5	200.313	n/a	-1.0	2.386	columbia_card_task_fmri	n/a	n/a	-1.0	n/a	n/a	n/a	n/a	n/a	n/a	n/a	n/a	ITI	poldrack-single-stim	s518	False	0
202.703	1.417	204.12	5.697904731416244	draw_card	1.417	columbia_card_task_fmri	11.0	0.9375	89.0	-100.0	0.0625	16.0	1.0	1.0	-5.790692374432684	1.417	n/a	stim	poldrack-single-stim	s518	False	1
204.123	0.74	204.863	5.235404731416244	draw_card	0.74	columbia_card_task_fmri	11.0	0.9333333333333332	89.0	-100.0	0.0666666666666666	16.0	2.0	1.0	-4.972718688537913	0.74	n/a	stim	poldrack-single-stim	s518	False	1
204.867	0.519	205.386	4.706833302844817	draw_card	0.519	columbia_card_task_fmri	11.0	0.9285714285714286	89.0	-100.0	0.0714285714285714	16.0	3.0	1.0	-4.075626880736103	0.519	n/a	stim	poldrack-single-stim	s518	False	1
205.388	0.746	206.134	4.096943192954706	draw_card	0.746	columbia_card_task_fmri	11.0	0.9230769230769232	89.0	-100.0	0.0769230769230769	16.0	4.0	1.0	-3.0859632692874825	0.746	n/a	stim	poldrack-single-stim	s518	False	1
206.137	0.934	207.071	3.385404731416244	draw_card	0.934	columbia_card_task_fmri	11.0	0.9166666666666666	89.0	-100.0	0.0833333333333333	16.0	5.0	1.0	-1.9869008711628595	0.934	n/a	stim	poldrack-single-stim	s518	False	1
207.074	0.701	207.775	2.544495640507152	draw_card	0.701	columbia_card_task_fmri	11.0	0.9090909090909092	89.0	-100.0	0.0909090909090909	16.0	6.0	1.0	-0.757102555443776	0.701	n/a	stim	poldrack-single-stim	s518	False	1
207.778	0.58	208.358	1.5354047314162442	end_round	0.58	columbia_card_task_fmri	11.0	0.9	71.0	-100.0	0.1	16.0	7.0	1.0	0.6308953890466142	0.58	6.0	stim	poldrack-single-stim	s518	False	1
209.113	1.5	208.362	n/a	-1.0	2.318	columbia_card_task_fmri	n/a	n/a	-1.0	n/a	n/a	n/a	n/a	n/a	n/a	n/a	n/a	ITI	poldrack-single-stim	s518	False	0
210.685	1.257	211.942	6.260404731416244	draw_card	1.257	columbia_card_task_fmri	16.0	0.875	89.0	-75.0	0.125	16.0	1.0	2.0	-2.569415926777129	1.257	n/a	stim	poldrack-single-stim	s518	False	1
211.945	0.513	212.458	5.502071398082912	draw_card	0.513	columbia_card_task_fmri	16.0	0.8666666666666667	89.0	-75.0	0.1333333333333333	16.0	2.0	2.0	-1.7319874151143289	0.513	n/a	stim	poldrack-single-stim	s518	False	1
212.462	0.646	213.108	4.635404731416246	draw_card	0.646	columbia_card_task_fmri	16.0	0.8571428571428572	89.0	-75.0	0.1428571428571428	16.0	3.0	2.0	-0.8239044316331956	0.646	n/a	stim	poldrack-single-stim	s518	False	1
213.112	0.751	213.863	3.635404731416244	draw_card	0.751	columbia_card_task_fmri	16.0	0.8461538461538461	89.0	-75.0	0.1538461538461538	16.0	4.0	2.0	0.164375965585414	0.751	n/a	stim	poldrack-single-stim	s518	False	1
213.867	0.563	214.43	2.468738064749578	draw_card	0.563	columbia_card_task_fmri	16.0	0.8333333333333334	89.0	-75.0	0.1666666666666666	16.0	5.0	2.0	1.2438676354371836	0.563	n/a	stim	poldrack-single-stim	s518	False	1
214.433	0.734	215.167	1.0899501859616971	draw_card	0.734	columbia_card_task_fmri	16.0	0.8181818181818181	89.0	-75.0	0.1818181818181818	16.0	6.0	2.0	2.427050776679067	0.734	n/a	stim	poldrack-single-stim	s518	False	1
215.171	0.598	215.769	-0.5645952685837554	end_round	0.598	columbia_card_task_fmri	16.0	0.8	71.0	-75.0	0.2	16.0	7.0	2.0	3.727480970868456	0.598	6.0	stim	poldrack-single-stim	s518	False	1
216.524	1.5	215.773	n/a	-1.0	2.25	columbia_card_task_fmri	n/a	n/a	-1.0	n/a	n/a	n/a	n/a	n/a	n/a	n/a	n/a	ITI	poldrack-single-stim	s518	False	0
218.028	0.782	218.81	6.510404731416244	draw_card	0.782	columbia_card_task_fmri	17.0	0.875	89.0	-80.0	0.125	16.0	1.0	2.0	-0.5878452627289477	0.782	n/a	stim	poldrack-single-stim	s518	False	1
218.814	0.745	219.559	5.7020713980829125	draw_card	0.745	columbia_card_task_fmri	17.0	0.8666666666666667	89.0	-80.0	0.1333333333333333	16.0	2.0	2.0	0.3049516334269029	0.745	2.0	stim	poldrack-single-stim	s518	False	0
220.314	1.5	219.563	n/a	-1.0	2.25	columbia_card_task_fmri	n/a	n/a	-1.0	n/a	n/a	n/a	n/a	n/a	n/a	n/a	n/a	ITI	poldrack-single-stim	s518	False	0
232.822	0.908	233.73	0.8020713980829117	draw_card	0.908	columbia_card_task_fmri	13.0	0.8333333333333334	89.0	-70.0	0.1666666666666666	6.0	1.0	1.0	-1.7337629624531417	0.908	n/a	stim	poldrack-single-stim	s518	False	1
233.735	0.707	234.442	-1.964595268583756	draw_card	0.707	columbia_card_task_fmri	13.0	0.8	89.0	-70.0	0.2	6.0	2.0	1.0	0.5310161290210331	0.707	n/a	stim	poldrack-single-stim	s518	False	1
234.445	1.289	235.734	-6.114595268583756	end_round	1.289	columbia_card_task_fmri	13.0	0.75	71.0	-70.0	0.25	6.0	3.0	1.0	3.268004669630741	1.289	2.0	stim	poldrack-single-stim	s518	False	1
236.489	1.5	235.738	n/a	-1.0	2.454	columbia_card_task_fmri	n/a	n/a	-1.0	n/a	n/a	n/a	n/a	n/a	n/a	n/a	n/a	ITI	poldrack-single-stim	s518	False	0
238.198	0.706	238.904	0.8020713980829117	draw_card	0.706	columbia_card_task_fmri	15.0	0.8333333333333334	89.0	-80.0	0.1666666666666666	6.0	1.0	1.0	2.7329221091435727	0.706	n/a	stim	poldrack-single-stim	s518	False	1
238.908	0.658	239.566	-2.364595268583756	draw_card	0.658	columbia_card_task_fmri	15.0	0.8	89.0	-80.0	0.2	6.0	2.0	1.0	5.325936335892756	0.658	2.0	stim	poldrack-single-stim	s518	False	0
240.321	1.5	239.57	n/a	-1.0	2.454	columbia_card_task_fmri	n/a	n/a	-1.0	n/a	n/a	n/a	n/a	n/a	n/a	n/a	n/a	ITI	poldrack-single-stim	s518	False	0
242.03	0.469	242.499	2.468738064749578	draw_card	0.469	columbia_card_task_fmri	16.0	0.8333333333333334	89.0	-75.0	0.1666666666666666	6.0	1.0	1.0	1.2438676354371836	0.469	n/a	stim	poldrack-single-stim	s518	False	1
242.503	0.763	243.266	-0.5645952685837554	draw_card	0.763	columbia_card_task_fmri	16.0	0.8	89.0	-75.0	0.2	6.0	2.0	1.0	3.727480970868456	0.763	n/a	stim	poldrack-single-stim	s518	False	1
243.27	0.779	244.049	-5.114595268583756	draw_card	0.779	columbia_card_task_fmri	16.0	0.75	89.0	-75.0	0.25	6.0	3.0	1.0	6.728839849707377	0.779	n/a	stim	poldrack-single-stim	s518	False	1
244.053	0.605	244.658	-12.697928601917088	end_round	0.605	columbia_card_task_fmri	16.0	0.6666666666666667	71.0	-75.0	0.3333333333333333	6.0	4.0	1.0	10.21973474595542	0.605	3.0	stim	poldrack-single-stim	s518	False	1
245.413	1.5	244.662	n/a	-1.0	2.522	columbia_card_task_fmri	n/a	n/a	-1.0	n/a	n/a	n/a	n/a	n/a	n/a	n/a	n/a	ITI	poldrack-single-stim	s518	False	0
247.189	1.276	248.465	3.635404731416244	draw_card	1.276	columbia_card_task_fmri	21.0	0.75	89.0	-55.0	0.25	8.0	1.0	2.0	0.2403370357233356	1.276	n/a	stim	poldrack-single-stim	s518	False	1
248.469	0.706	249.175	0.9211190171305303	draw_card	0.706	columbia_card_task_fmri	21.0	0.7142857142857143	89.0	-55.0	0.2857142857142857	8.0	2.0	2.0	1.6629892034347833	0.706	2.0	stim	poldrack-single-stim	s518	False	0
249.93	1.5	249.179	n/a	-1.0	2.386	columbia_card_task_fmri	n/a	n/a	-1.0	n/a	n/a	n/a	n/a	n/a	n/a	n/a	n/a	ITI	poldrack-single-stim	s518	False	0
251.571	0.713	252.284	4.885404731416244	draw_card	0.713	columbia_card_task_fmri	26.0	0.75	89.0	-65.0	0.25	8.0	1.0	2.0	6.728839849707377	0.713	1.0	stim	poldrack-single-stim	s518	False	0
253.039	1.5	252.288	n/a	-1.0	2.454	columbia_card_task_fmri	n/a	n/a	-1.0	n/a	n/a	n/a	n/a	n/a	n/a	n/a	n/a	ITI	poldrack-single-stim	s518	False	0
254.746	0.484	255.23	-0.0312619352504222	draw_card	0.484	columbia_card_task_fmri	15.0	0.7777777777777778	89.0	-60.0	0.2222222222222222	9.0	1.0	2.0	-1.4859018543357043	0.484	n/a	stim	poldrack-single-stim	s518	False	1
255.234	0.9	256.134	-2.114595268583756	draw_card	0.9	columbia_card_task_fmri	15.0	0.75	89.0	-60.0	0.25	9.0	2.0	2.0	-0.1921348735176735	0.9	n/a	stim	poldrack-single-stim	s518	False	1
256.139	1.087	257.226	-4.793166697155183	end_round	1.087	columbia_card_task_fmri	15.0	0.7142857142857143	71.0	-60.0	0.2857142857142857	9.0	3.0	2.0	1.211753688451239	1.087	2.0	stim	poldrack-single-stim	s518	False	1
257.981	1.5	257.23	n/a	-1.0	2.522	columbia_card_task_fmri	n/a	n/a	-1.0	n/a	n/a	n/a	n/a	n/a	n/a	n/a	n/a	ITI	poldrack-single-stim	s518	False	0
259.757	0.697	260.454	4.335404731416245	draw_card	0.697	columbia_card_task_fmri	13.0	0.9	89.0	-90.0	0.1	10.0	1.0	1.0	-1.7659915914771709	0.697	n/a	stim	poldrack-single-stim	s518	False	1
260.459	1.429	261.888	3.1909602869717992	draw_card	1.429	columbia_card_task_fmri	13.0	0.8888888888888888	89.0	-90.0	0.1111111111111111	10.0	2.0	1.0	-0.2981756131143882	1.429	n/a	stim	poldrack-single-stim	s518	False	1
261.891	0.946	262.837	1.760404731416244	draw_card	0.946	columbia_card_task_fmri	13.0	0.875	89.0	-90.0	0.125	10.0	3.0	1.0	1.3940443663348745	0.946	n/a	stim	poldrack-single-stim	s518	False	1
262.841	0.832	263.673	-0.0788809828694678	end_round	0.832	columbia_card_task_fmri	13.0	0.8571428571428572	71.0	-90.0	0.1428571428571428	10.0	4.0	1.0	3.3703367540464555	0.832	3.0	stim	poldrack-single-stim	s518	False	1
264.43	1.5	263.679	n/a	-1.0	2.522	columbia_card_task_fmri	n/a	n/a	-1.0	n/a	n/a	n/a	n/a	n/a	n/a	n/a	n/a	ITI	poldrack-single-stim	s518	False	0
266.206	1.296	267.502	5.635404731416244	draw_card	1.296	columbia_card_task_fmri	15.0	0.9	89.0	-95.0	0.1	10.0	1.0	1.0	0.331259800227734	1.296	n/a	stim	poldrack-single-stim	s518	False	1
267.506	0.924	268.43	4.413182509194021	draw_card	0.924	columbia_card_task_fmri	15.0	0.8888888888888888	89.0	-95.0	0.1111111111111111	10.0	2.0	1.0	1.8990878874428676	0.924	n/a	stim	poldrack-single-stim	s518	False	1
268.435	0.699	269.134	2.885404731416244	draw_card	0.699	columbia_card_task_fmri	15.0	0.875	89.0	-95.0	0.125	10.0	3.0	1.0	3.706582592100375	0.699	n/a	stim	poldrack-single-stim	s518	False	1
269.137	0.56	269.697	0.9211190171305303	end_round	0.56	columbia_card_task_fmri	15.0	0.8571428571428572	71.0	-95.0	0.1428571428571428	10.0	4.0	1.0	5.817468828165033	0.56	3.0	stim	poldrack-single-stim	s518	False	1
270.452	1.5	269.701	n/a	-1.0	2.59	columbia_card_task_fmri	n/a	n/a	-1.0	n/a	n/a	n/a	n/a	n/a	n/a	n/a	n/a	ITI	poldrack-single-stim	s518	False	0
272.296	0.904	273.2	1.4354047314162446	draw_card	0.904	columbia_card_task_fmri	16.0	0.8	89.0	-65.0	0.2	10.0	1.0	2.0	-0.267991170359096	0.904	1.0	stim	poldrack-single-stim	s518	False	0
273.956	1.5	273.205	n/a	-1.0	2.454	columbia_card_task_fmri	n/a	n/a	-1.0	n/a	n/a	n/a	n/a	n/a	n/a	n/a	n/a	ITI	poldrack-single-stim	s518	False	0
275.664	1.005	276.669	0.1354047314162438	draw_card	1.005	columbia_card_task_fmri	7.0	0.9166666666666666	89.0	-95.0	0.0833333333333333	12.0	1.0	1.0	-4.470532245341612	1.005	1.0	stim	poldrack-single-stim	s518	False	0
277.423	1.5	276.672	n/a	-1.0	2.318	columbia_card_task_fmri	n/a	n/a	-1.0	n/a	n/a	n/a	n/a	n/a	n/a	n/a	n/a	ITI	poldrack-single-stim	s518	False	0
278.997	1.044	280.041	0.8020713980829117	draw_card	1.044	columbia_card_task_fmri	14.0	0.8333333333333334	89.0	-75.0	0.1666666666666666	12.0	1.0	2.0	0.4993961709837009	1.044	n/a	stim	poldrack-single-stim	s518	False	1
280.045	2.501	282.546	-0.5464134504019396	draw_card	2.501	columbia_card_task_fmri	14.0	0.8181818181818181	89.0	-75.0	0.1818181818181818	12.0	2.0	2.0	1.6565163383436712	2.501	n/a	stim	poldrack-single-stim	s518	False	1
282.55	0.828	283.378	-2.164595268583755	draw_card	0.828	columbia_card_task_fmri	14.0	0.8	89.0	-75.0	0.2	12.0	3.0	2.0	2.9283052747840514	0.828	n/a	stim	poldrack-single-stim	s518	False	1
283.381	0.92	284.301	-4.142373046361531	end_round	0.92	columbia_card_task_fmri	14.0	0.7777777777777778	71.0	-75.0	0.2222222222222222	12.0	4.0	2.0	4.327719444972018	0.92	3.0	stim	poldrack-single-stim	s518	False	1
285.055	1.5	284.304	n/a	-1.0	2.25	columbia_card_task_fmri	n/a	n/a	-1.0	n/a	n/a	n/a	n/a	n/a	n/a	n/a	n/a	ITI	poldrack-single-stim	s518	False	0
286.56	0.581	287.141	2.468738064749578	draw_card	0.581	columbia_card_task_fmri	15.0	0.8333333333333334	89.0	-70.0	0.1666666666666666	12.0	1.0	2.0	-0.9894221232093976	0.581	n/a	stim	poldrack-single-stim	s518	False	1
287.145	0.482	287.627	1.180859276870787	draw_card	0.482	columbia_card_task_fmri	15.0	0.8181818181818181	89.0	-70.0	0.1818181818181818	12.0	2.0	2.0	0.1155679197230128	0.482	n/a	stim	poldrack-single-stim	s518	False	1
287.631	0.441	288.072	-0.3645952685837561	draw_card	0.441	columbia_card_task_fmri	15.0	0.8	89.0	-70.0	0.2	12.0	3.0	2.0	1.3300700608586595	0.441	n/a	stim	poldrack-single-stim	s518	False	1
288.077	0.842	288.919	-2.2534841574726454	draw_card	0.842	columbia_card_task_fmri	15.0	0.7777777777777778	89.0	-70.0	0.2222222222222222	12.0	4.0	2.0	2.6664587872977776	0.842	n/a	stim	poldrack-single-stim	s518	False	1
288.923	0.774	289.697	-4.614595268583756	draw_card	0.774	columbia_card_task_fmri	15.0	0.75	89.0	-70.0	0.25	12.0	5.0	2.0	4.133155905691211	0.774	n/a	stim	poldrack-single-stim	s518	False	1
289.702	1.215	290.917	-7.65030955429804	draw_card	1.215	columbia_card_task_fmri	15.0	0.7142857142857143	89.0	-70.0	0.2857142857142857	12.0	6.0	2.0	5.724656963059665	1.215	n/a	stim	poldrack-single-stim	s518	False	1
290.92	0.664	291.584	-11.697928601917086	end_round	0.664	columbia_card_task_fmri	15.0	0.6666666666666667	71.0	-70.0	0.3333333333333333	12.0	7.0	2.0	7.3935055340013776	0.664	6.0	stim	poldrack-single-stim	s518	False	1
292.339	1.5	291.588	n/a	-1.0	2.658	columbia_card_task_fmri	n/a	n/a	-1.0	n/a	n/a	n/a	n/a	n/a	n/a	n/a	n/a	ITI	poldrack-single-stim	s518	False	0
294.252	0.823	295.075	0.4354047314162446	draw_card	0.823	columbia_card_task_fmri	16.0	0.8	89.0	-70.0	0.2	15.0	1.0	3.0	1.7296134996083978	0.823	n/a	stim	poldrack-single-stim	s518	False	1
295.078	0.922	296.0	-0.793166697155185	draw_card	0.922	columbia_card_task_fmri	16.0	0.7857142857142857	89.0	-70.0	0.2142857142857142	15.0	2.0	3.0	2.616664523902365	0.922	2.0	stim	poldrack-single-stim	s518	False	0
296.756	1.5	296.005	n/a	-1.0	2.454	columbia_card_task_fmri	n/a	n/a	-1.0	n/a	n/a	n/a	n/a	n/a	n/a	n/a	n/a	ITI	poldrack-single-stim	s518	False	0
298.464	0.471	298.935	0.8229047314162439	draw_card	0.471	columbia_card_task_fmri	14.0	0.8125	89.0	-65.0	0.1875	16.0	1.0	3.0	-1.8312224848365448	0.471	1.0	stim	poldrack-single-stim	s518	False	0
299.689	1.5	298.938	n/a	-1.0	2.386	columbia_card_task_fmri	n/a	n/a	-1.0	n/a	n/a	n/a	n/a	n/a	n/a	n/a	n/a	ITI	poldrack-single-stim	s518	False	0
301.33	0.493	301.823	0.5729047314162439	draw_card	0.493	columbia_card_task_fmri	16.0	0.8125	89.0	-75.0	0.1875	16.0	1.0	3.0	2.8468175256719377	0.493	n/a	stim	poldrack-single-stim	s518	False	1
301.826	0.206	302.032	-0.5645952685837554	draw_card	0.206	columbia_card_task_fmri	16.0	0.8	89.0	-75.0	0.2	16.0	2.0	3.0	3.727480970868456	0.206	n/a	stim	poldrack-single-stim	s518	False	1
302.037	0.203	302.24	-1.8645952685837544	draw_card	0.203	columbia_card_task_fmri	16.0	0.7857142857142857	89.0	-75.0	0.2142857142857142	16.0	3.0	3.0	4.666215011769076	0.203	n/a	stim	poldrack-single-stim	s518	False	1
302.244	0.209	302.453	-3.36459526858376	draw_card	0.209	columbia_card_task_fmri	16.0	0.7692307692307692	89.0	-75.0	0.2307692307692307	16.0	4.0	3.0	5.666203185844701	0.209	4.0	stim	poldrack-single-stim	s518	False	0
303.208	1.5	302.457	n/a	-1.0	2.59	columbia_card_task_fmri	n/a	n/a	-1.0	n/a	n/a	n/a	n/a	n/a	n/a	n/a	n/a	ITI	poldrack-single-stim	s518	False	0
305.052	0.381	305.433	4.835404731416245	draw_card	0.381	columbia_card_task_fmri	16.0	0.8666666666666667	89.0	-80.0	0.1333333333333333	15.0	1.0	2.0	-0.0345613301084739	0.381	n/a	stim	poldrack-single-stim	s518	False	1
305.438	0.216	305.654	3.921119017130532	draw_card	0.216	columbia_card_task_fmri	16.0	0.8571428571428572	89.0	-80.0	0.1428571428571428	15.0	2.0	2.0	0.9235479363704115	0.216	n/a	stim	poldrack-single-stim	s518	False	1
305.658	0.181	305.839	2.866173962185474	draw_card	0.181	columbia_card_task_fmri	16.0	0.8461538461538461	89.0	-80.0	0.1538461538461538	15.0	3.0	2.0	1.9662644269075005	0.181	3.0	stim	poldrack-single-stim	s518	False	0
306.594	1.5	305.843	n/a	-1.0	2.318	columbia_card_task_fmri	n/a	n/a	-1.0	n/a	n/a	n/a	n/a	n/a	n/a	n/a	n/a	ITI	poldrack-single-stim	s518	False	0
308.167	0.516	308.683	5.7020713980829125	draw_card	0.516	columbia_card_task_fmri	17.0	0.8666666666666667	89.0	-80.0	0.1333333333333333	15.0	1.0	2.0	0.3049516334269029	0.516	1.0	stim	poldrack-single-stim	s518	False	0
309.438	1.5	308.687	n/a	-1.0	2.59	columbia_card_task_fmri	n/a	n/a	-1.0	n/a	n/a	n/a	n/a	n/a	n/a	n/a	n/a	ITI	poldrack-single-stim	s518	False	0
311.282	0.441	311.723	1.635404731416244	draw_card	0.441	columbia_card_task_fmri	1.0	0.9375	89.0	-15.0	0.0625	16.0	1.0	1.0	-28.5051278924392	0.441	n/a	stim	poldrack-single-stim	s518	False	1
311.728	0.224	311.952	1.5687380647495772	draw_card	0.224	columbia_card_task_fmri	1.0	0.9333333333333332	89.0	-15.0	0.0666666666666666	16.0	2.0	1.0	-28.39606857277234	0.224	n/a	stim	poldrack-single-stim	s518	False	1
311.956	0.191	312.147	1.492547588559101	draw_card	0.191	columbia_card_task_fmri	1.0	0.9285714285714286	89.0	-15.0	0.0714285714285714	16.0	3.0	1.0	-28.27593976275073	0.191	n/a	stim	poldrack-single-stim	s518	False	1
312.15	0.184	312.334	1.404635500647013	draw_card	0.184	columbia_card_task_fmri	1.0	0.9230769230769232	89.0	-15.0	0.0769230769230769	16.0	4.0	1.0	-28.142832849333857	0.184	n/a	stim	poldrack-single-stim	s518	False	1
312.338	0.535	312.873	1.3020713980829104	draw_card	0.535	columbia_card_task_fmri	1.0	0.9166666666666666	89.0	-15.0	0.0833333333333333	16.0	5.0	1.0	-27.994357670537315	0.535	5.0	stim	poldrack-single-stim	s518	False	0
313.629	1.5	312.878	n/a	-1.0	2.386	columbia_card_task_fmri	n/a	n/a	-1.0	n/a	n/a	n/a	n/a	n/a	n/a	n/a	n/a	ITI	poldrack-single-stim	s518	False	0
315.269	0.737	316.006	4.760404731416244	draw_card	0.737	columbia_card_task_fmri	10.0	0.9375	89.0	-100.0	0.0625	16.0	1.0	1.0	-6.032302639303314	0.737	n/a	stim	poldrack-single-stim	s518	False	1
316.01	0.213	316.223	4.30207139808291	draw_card	0.213	columbia_card_task_fmri	10.0	0.9333333333333332	89.0	-100.0	0.0666666666666666	16.0	2.0	1.0	-5.221724601930156	0.213	n/a	stim	poldrack-single-stim	s518	False	1
316.227	0.186	316.413	3.778261874273388	draw_card	0.186	columbia_card_task_fmri	10.0	0.9285714285714286	89.0	-100.0	0.0714285714285714	16.0	3.0	1.0	-4.332742041510173	0.186	n/a	stim	poldrack-single-stim	s518	False	1
316.418	0.152	316.57	3.173866269877783	draw_card	0.152	columbia_card_task_fmri	10.0	0.9230769230769232	89.0	-100.0	0.0769230769230769	16.0	4.0	1.0	-3.3520225579357543	0.152	n/a	stim	poldrack-single-stim	s518	False	1
316.574	0.852	317.426	2.468738064749578	end_round	0.852	columbia_card_task_fmri	10.0	0.9166666666666666	71.0	-100.0	0.0833333333333333	16.0	5.0	1.0	-2.262890851902778	0.852	4.0	stim	poldrack-single-stim	s518	False	1
318.182	1.5	317.431	n/a	-1.0	2.318	columbia_card_task_fmri	n/a	n/a	-1.0	n/a	n/a	n/a	n/a	n/a	n/a	n/a	n/a	ITI	poldrack-single-stim	s518	False	0
319.753	0.464	320.217	5.385404731416244	draw_card	0.464	columbia_card_task_fmri	15.0	0.875	89.0	-75.0	0.125	16.0	1.0	2.0	-2.8996422271162494	0.464	n/a	stim	poldrack-single-stim	s518	False	1
320.221	0.205	320.426	4.635404731416244	draw_card	0.205	columbia_card_task_fmri	15.0	0.8666666666666667	89.0	-75.0	0.1333333333333333	16.0	2.0	2.0	-2.071442733443142	0.205	2.0	stim	poldrack-single-stim	s518	False	0
321.182	1.5	320.431	n/a	-1.0	2.318	columbia_card_task_fmri	n/a	n/a	-1.0	n/a	n/a	n/a	n/a	n/a	n/a	n/a	n/a	ITI	poldrack-single-stim	s518	False	0
322.754	0.392	323.146	5.635404731416244	draw_card	0.392	columbia_card_task_fmri	16.0	0.875	89.0	-80.0	0.125	16.0	1.0	2.0	-0.9181308012989504	0.392	n/a	stim	poldrack-single-stim	s518	False	1
323.15	0.24	323.39	4.835404731416245	draw_card	0.24	columbia_card_task_fmri	16.0	0.8666666666666667	89.0	-80.0	0.1333333333333333	16.0	2.0	2.0	-0.0345613301084739	0.24	2.0	stim	poldrack-single-stim	s518	False	0
324.145	1.5	323.394	n/a	-1.0	2.318	columbia_card_task_fmri	n/a	n/a	-1.0	n/a	n/a	n/a	n/a	n/a	n/a	n/a	n/a	ITI	poldrack-single-stim	s518	False	0
325.719	0.359	326.078	2.822904731416244	draw_card	0.359	columbia_card_task_fmri	4.0	0.6875	89.0	-5.0	0.3125	16.0	1.0	5.0	-28.228514275364297	0.359	n/a	stim	poldrack-single-stim	s518	False	1
326.083	0.413	326.496	2.6354047314162443	draw_card	0.413	columbia_card_task_fmri	4.0	0.6666666666666667	89.0	-5.0	0.3333333333333333	16.0	2.0	5.0	-28.16231142935718	0.413	2.0	stim	poldrack-single-stim	s518	False	0
327.253	1.5	326.502	n/a	-1.0	2.386	columbia_card_task_fmri	n/a	n/a	-1.0	n/a	n/a	n/a	n/a	n/a	n/a	n/a	n/a	ITI	poldrack-single-stim	s518	False	0
328.894	0.912	329.806	-0.0312619352504204	draw_card	0.912	columbia_card_task_fmri	14.0	0.8333333333333334	89.0	-80.0	0.1666666666666666	6.0	1.0	1.0	2.360645287626852	0.912	n/a	stim	poldrack-single-stim	s518	False	1
329.811	0.482	330.293	-3.164595268583755	draw_card	0.482	columbia_card_task_fmri	14.0	0.8	89.0	-80.0	0.2	6.0	2.0	1.0	4.926310188007676	0.482	n/a	stim	poldrack-single-stim	s518	False	1
330.298	0.451	330.749	-7.864595268583756	end_round	0.451	columbia_card_task_fmri	14.0	0.75	71.0	-80.0	0.25	6.0	3.0	1.0	8.026796200301419	0.451	2.0	stim	poldrack-single-stim	s518	False	1
331.504	1.5	330.753	n/a	-1.0	2.25	columbia_card_task_fmri	n/a	n/a	-1.0	n/a	n/a	n/a	n/a	n/a	n/a	n/a	n/a	ITI	poldrack-single-stim	s518	False	0
333.01	0.724	333.734	1.635404731416244	draw_card	0.724	columbia_card_task_fmri	15.0	0.8333333333333334	89.0	-75.0	0.1666666666666666	6.0	1.0	1.0	0.8716269979093028	0.724	n/a	stim	poldrack-single-stim	s518	False	1
333.739	0.556	334.295	-1.364595268583756	draw_card	0.556	columbia_card_task_fmri	15.0	0.8	89.0	-75.0	0.2	6.0	2.0	1.0	3.327888550435219	0.556	2.0	stim	poldrack-single-stim	s518	False	0
335.051	1.5	334.3	n/a	-1.0	2.386	columbia_card_task_fmri	n/a	n/a	-1.0	n/a	n/a	n/a	n/a	n/a	n/a	n/a	n/a	ITI	poldrack-single-stim	s518	False	0
336.692	0.49	337.182	3.302071398082912	draw_card	0.49	columbia_card_task_fmri	16.0	0.8333333333333334	89.0	-70.0	0.1666666666666666	6.0	1.0	1.0	-0.6172340324687795	0.49	n/a	stim	poldrack-single-stim	s518	False	1
337.185	0.638	337.823	0.4354047314162446	draw_card	0.638	columbia_card_task_fmri	16.0	0.8	89.0	-70.0	0.2	6.0	2.0	1.0	1.7296134996083978	0.638	n/a	stim	poldrack-single-stim	s518	False	1
337.828	0.999	338.827	-3.864595268583756	end_round	0.999	columbia_card_task_fmri	16.0	0.75	71.0	-70.0	0.25	6.0	3.0	1.0	4.565746748466296	0.999	2.0	stim	poldrack-single-stim	s518	False	1
339.583	1.5	338.832	n/a	-1.0	2.59	columbia_card_task_fmri	n/a	n/a	-1.0	n/a	n/a	n/a	n/a	n/a	n/a	n/a	n/a	ITI	poldrack-single-stim	s518	False	0
341.426	0.442	341.868	3.885404731416244	draw_card	0.442	columbia_card_task_fmri	23.0	0.75	89.0	-60.0	0.25	8.0	1.0	2.0	3.268004669630741	0.442	n/a	stim	poldrack-single-stim	s518	False	1
341.872	0.612	342.484	0.921119017130532	draw_card	0.612	columbia_card_task_fmri	23.0	0.7142857142857143	89.0	-60.0	0.2857142857142857	8.0	2.0	2.0	4.821987065650255	0.612	n/a	stim	poldrack-single-stim	s518	False	1
342.489	0.732	343.221	-3.0312619352504204	draw_card	0.732	columbia_card_task_fmri	23.0	0.6666666666666667	89.0	-60.0	0.3333333333333333	8.0	3.0	2.0	6.451499656735123	0.732	n/a	stim	poldrack-single-stim	s518	False	1
343.224	0.772	343.996	-8.564595268583757	end_round	0.772	columbia_card_task_fmri	23.0	0.6	71.0	-60.0	0.4	8.0	4.0	2.0	7.985165576362313	0.772	3.0	stim	poldrack-single-stim	s518	False	1
344.752	1.5	344.001	n/a	-1.0	2.658	columbia_card_task_fmri	n/a	n/a	-1.0	n/a	n/a	n/a	n/a	n/a	n/a	n/a	n/a	ITI	poldrack-single-stim	s518	False	0
346.666	0.761	347.427	4.385404731416244	draw_card	0.761	columbia_card_task_fmri	27.0	0.75	89.0	-70.0	0.25	8.0	1.0	2.0	9.324819385131946	0.761	n/a	stim	poldrack-single-stim	s518	False	1
347.433	0.649	348.082	0.9211190171305286	draw_card	0.649	columbia_card_task_fmri	27.0	0.7142857142857143	89.0	-70.0	0.2857142857142857	8.0	2.0	2.0	11.141401207816472	0.649	2.0	stim	poldrack-single-stim	s518	False	0
348.838	1.5	348.087	n/a	-1.0	2.386	columbia_card_task_fmri	n/a	n/a	-1.0	n/a	n/a	n/a	n/a	n/a	n/a	n/a	n/a	ITI	poldrack-single-stim	s518	False	0
350.478	0.591	351.069	-0.3645952685837543	draw_card	0.591	columbia_card_task_fmri	16.0	0.7777777777777778	89.0	-65.0	0.2222222222222222	9.0	1.0	2.0	1.0053655686355183	0.591	n/a	stim	poldrack-single-stim	s518	False	1
351.073	0.446	351.519	-2.614595268583756	draw_card	0.446	columbia_card_task_fmri	16.0	0.75	89.0	-65.0	0.25	9.0	2.0	2.0	2.402896533759339	0.446	n/a	stim	poldrack-single-stim	s518	False	1
351.525	0.621	352.146	-5.507452411440896	draw_card	0.621	columbia_card_task_fmri	16.0	0.7142857142857143	89.0	-65.0	0.2857142857142857	9.0	3.0	2.0	3.919358490810872	0.621	n/a	stim	poldrack-single-stim	s518	False	1
352.151	0.536	352.687	-9.364595268583752	end_round	0.536	columbia_card_task_fmri	16.0	0.6666666666666667	71.0	-65.0	0.3333333333333333	9.0	4.0	2.0	5.509533388717983	0.536	3.0	stim	poldrack-single-stim	s518	False	1
353.442	1.5	352.691	n/a	-1.0	2.386	columbia_card_task_fmri	n/a	n/a	-1.0	n/a	n/a	n/a	n/a	n/a	n/a	n/a	n/a	ITI	poldrack-single-stim	s518	False	0
355.083	0.968	356.051	4.835404731416245	draw_card	0.968	columbia_card_task_fmri	13.0	0.9	89.0	-85.0	0.1	10.0	1.0	1.0	-3.263788423960168	0.968	n/a	stim	poldrack-single-stim	s518	False	1
356.056	0.588	356.644	3.7465158425273546	draw_card	0.588	columbia_card_task_fmri	13.0	0.8888888888888888	89.0	-85.0	0.1111111111111111	10.0	2.0	1.0	-1.867420473464641	0.588	n/a	stim	poldrack-single-stim	s518	False	1
356.649	0.617	357.266	2.385404731416244	end_round	0.617	columbia_card_task_fmri	13.0	0.875	71.0	-85.0	0.125	10.0	3.0	1.0	-0.2575508967891338	0.617	2.0	stim	poldrack-single-stim	s518	False	1
358.022	1.5	357.271	n/a	-1.0	2.25	columbia_card_task_fmri	n/a	n/a	-1.0	n/a	n/a	n/a	n/a	n/a	n/a	n/a	n/a	ITI	poldrack-single-stim	s518	False	0
359.527	0.743	360.27	-0.164595268583755	draw_card	0.743	columbia_card_task_fmri	14.0	0.8	89.0	-65.0	0.2	10.0	1.0	2.0	-1.0669483046983783	0.743	n/a	stim	poldrack-single-stim	s518	False	1
360.275	0.514	360.789	-1.9201508241393097	draw_card	0.514	columbia_card_task_fmri	14.0	0.7777777777777778	89.0	-65.0	0.2222222222222222	10.0	2.0	2.0	0.1748896783484141	0.514	n/a	stim	poldrack-single-stim	s518	False	1
360.793	0.707	361.5	-4.114595268583756	draw_card	0.707	columbia_card_task_fmri	14.0	0.75	89.0	-65.0	0.25	10.0	3.0	2.0	1.5378347643116328	0.707	n/a	stim	poldrack-single-stim	s518	False	1
361.505	0.565	362.07	-6.936023840012325	end_round	0.565	columbia_card_task_fmri	14.0	0.7142857142857143	71.0	-65.0	0.2857142857142857	10.0	4.0	2.0	3.016774370623501	0.565	3.0	stim	poldrack-single-stim	s518	False	1
362.827	1.5	362.076	n/a	-1.0	2.318	columbia_card_task_fmri	n/a	n/a	-1.0	n/a	n/a	n/a	n/a	n/a	n/a	n/a	n/a	ITI	poldrack-single-stim	s518	False	0
364.4	0.745	365.145	1.2354047314162453	draw_card	0.745	columbia_card_task_fmri	17.0	0.8	89.0	-70.0	0.2	10.0	1.0	2.0	2.1291674164668137	0.745	n/a	stim	poldrack-single-stim	s518	False	1
365.149	0.591	365.74	-0.6979286019170883	draw_card	0.591	columbia_card_task_fmri	17.0	0.7777777777777778	89.0	-70.0	0.2222222222222222	10.0	2.0	2.0	3.497069626697993	0.591	n/a	stim	poldrack-single-stim	s518	False	1
365.746	0.623	366.369	-3.114595268583756	end_round	0.623	columbia_card_task_fmri	17.0	0.75	71.0	-70.0	0.25	10.0	3.0	2.0	4.9983472753084826	0.623	2.0	stim	poldrack-single-stim	s518	False	1
367.124	1.5	366.373	n/a	-1.0	2.25	columbia_card_task_fmri	n/a	n/a	-1.0	n/a	n/a	n/a	n/a	n/a	n/a	n/a	n/a	ITI	poldrack-single-stim	s518	False	0
368.629	0.629	369.258	-0.0312619352504222	draw_card	0.629	columbia_card_task_fmri	13.0	0.8333333333333334	89.0	-75.0	0.1666666666666666	12.0	1.0	2.0	0.1271754882968565	0.629	n/a	stim	poldrack-single-stim	s518	False	1
369.263	0.544	369.807	-1.364595268583758	draw_card	0.544	columbia_card_task_fmri	13.0	0.8181818181818181	89.0	-75.0	0.1818181818181818	12.0	2.0	2.0	1.271263664303028	0.544	n/a	stim	poldrack-single-stim	s518	False	1
369.811	0.537	370.348	-2.964595268583756	draw_card	0.537	columbia_card_task_fmri	13.0	0.8	89.0	-75.0	0.2	12.0	3.0	2.0	2.528731455008512	0.537	n/a	stim	poldrack-single-stim	s518	False	1
370.354	1.028	371.382	-4.920150824139309	draw_card	1.028	columbia_card_task_fmri	13.0	0.7777777777777778	89.0	-75.0	0.2222222222222222	12.0	4.0	2.0	3.912389829244752	1.028	n/a	stim	poldrack-single-stim	s518	False	1
371.387	0.957	372.344	-7.364595268583756	draw_card	0.957	columbia_card_task_fmri	13.0	0.75	89.0	-75.0	0.25	12.0	5.0	2.0	5.430957156696728	0.957	n/a	stim	poldrack-single-stim	s518	False	1
372.349	0.694	373.043	-10.507452411440896	end_round	0.694	columbia_card_task_fmri	13.0	0.7142857142857143	71.0	-75.0	0.2857142857142857	12.0	6.0	2.0	7.078733136710355	0.694	5.0	stim	poldrack-single-stim	s518	False	1
373.799	1.5	373.048	n/a	-1.0	2.25	columbia_card_task_fmri	n/a	n/a	-1.0	n/a	n/a	n/a	n/a	n/a	n/a	n/a	n/a	ITI	poldrack-single-stim	s518	False	0
375.305	1.157	376.462	1.6354047314162456	draw_card	1.157	columbia_card_task_fmri	14.0	0.8333333333333334	89.0	-70.0	0.1666666666666666	12.0	1.0	2.0	-1.3615985730716351	1.157	n/a	stim	poldrack-single-stim	s518	False	1
376.466	0.511	376.977	0.3626774586889687	draw_card	0.511	columbia_card_task_fmri	14.0	0.8181818181818181	89.0	-70.0	0.1818181818181818	12.0	2.0	2.0	-0.2696420033425397	0.511	n/a	stim	poldrack-single-stim	s518	False	1
376.982	0.649	377.631	-1.164595268583755	draw_card	0.649	columbia_card_task_fmri	14.0	0.8	89.0	-70.0	0.2	12.0	3.0	2.0	0.9305374735666732	0.649	3.0	stim	poldrack-single-stim	s518	False	0
378.388	1.5	377.637	n/a	-1.0	2.386	columbia_card_task_fmri	n/a	n/a	-1.0	n/a	n/a	n/a	n/a	n/a	n/a	n/a	n/a	ITI	poldrack-single-stim	s518	False	0
380.028	0.602	380.63	1.6354047314162456	draw_card	0.602	columbia_card_task_fmri	16.0	0.8333333333333334	89.0	-80.0	0.1666666666666666	12.0	1.0	2.0	3.105207275256319	0.602	n/a	stim	poldrack-single-stim	s518	False	1
380.636	0.379	381.015	0.180859276870787	draw_card	0.379	columbia_card_task_fmri	16.0	0.8181818181818181	89.0	-80.0	0.1818181818181818	12.0	2.0	2.0	4.353542453646071	0.379	n/a	stim	poldrack-single-stim	s518	False	1
381.019	0.622	381.641	-1.5645952685837554	draw_card	0.622	columbia_card_task_fmri	16.0	0.8	89.0	-80.0	0.2	12.0	3.0	2.0	5.725570261674079	0.622	n/a	stim	poldrack-single-stim	s518	False	1
381.645	0.477	382.122	-3.69792860191709	draw_card	0.477	columbia_card_task_fmri	16.0	0.7777777777777778	89.0	-80.0	0.2222222222222222	12.0	4.0	2.0	7.23526565875936	0.477	n/a	stim	poldrack-single-stim	s518	False	1
382.128	1.484	383.612	-6.364595268583756	draw_card	1.484	columbia_card_task_fmri	16.0	0.75	89.0	-80.0	0.25	12.0	5.0	2.0	8.89213795032682	1.484	n/a	stim	poldrack-single-stim	s518	False	1
383.616	0.641	384.257	-9.79316669715518	end_round	0.641	columbia_card_task_fmri	16.0	0.7142857142857143	71.0	-80.0	0.2857142857142857	12.0	6.0	2.0	10.68996481026398	0.641	5.0	stim	poldrack-single-stim	s518	False	1
385.014	1.5	384.263	n/a	-1.0	2.386	columbia_card_task_fmri	n/a	n/a	-1.0	n/a	n/a	n/a	n/a	n/a	n/a	n/a	n/a	ITI	poldrack-single-stim	s518	False	0
386.654	0.61	387.264	1.4354047314162446	draw_card	0.61	columbia_card_task_fmri	16.0	0.8	89.0	-65.0	0.2	15.0	1.0	3.0	-0.267991170359096	0.61	n/a	stim	poldrack-single-stim	s518	False	1
387.269	0.531	387.8	0.278261874273388	draw_card	0.531	columbia_card_task_fmri	16.0	0.7857142857142857	89.0	-65.0	0.2142857142857142	15.0	2.0	3.0	0.5673702671907321	0.531	n/a	stim	poldrack-single-stim	s518	False	1
387.805	0.685	388.49	-1.0569029608914495	draw_card	0.685	columbia_card_task_fmri	16.0	0.7692307692307692	89.0	-65.0	0.2307692307692307	15.0	3.0	3.0	1.4572521514358314	0.685	3.0	stim	poldrack-single-stim	s518	False	0
389.246	1.5	388.495	n/a	-1.0	2.726	columbia_card_task_fmri	n/a	n/a	-1.0	n/a	n/a	n/a	n/a	n/a	n/a	n/a	n/a	ITI	poldrack-single-stim	s518	False	0
391.228	0.526	391.754	-0.2395952685837561	draw_card	0.526	columbia_card_task_fmri	15.0	0.8125	89.0	-75.0	0.1875	16.0	1.0	3.0	2.456922814466622	0.526	n/a	stim	poldrack-single-stim	s518	False	1
391.759	0.438	392.197	-1.364595268583756	draw_card	0.438	columbia_card_task_fmri	15.0	0.8	89.0	-75.0	0.2	16.0	2.0	3.0	3.327888550435219	0.438	n/a	stim	poldrack-single-stim	s518	False	1
392.204	0.488	392.692	-2.650309554298041	draw_card	0.488	columbia_card_task_fmri	15.0	0.7857142857142857	89.0	-75.0	0.2142857142857142	16.0	3.0	3.0	4.256286461393636	0.488	n/a	stim	poldrack-single-stim	s518	False	1
392.697	0.54	393.237	-4.133826037814529	draw_card	0.54	columbia_card_task_fmri	15.0	0.7692307692307692	89.0	-75.0	0.2307692307692307	16.0	4.0	3.0	5.245265150195422	0.54	n/a	stim	poldrack-single-stim	s518	False	1
393.242	0.815	394.057	-5.864595268583756	draw_card	0.815	columbia_card_task_fmri	15.0	0.75	89.0	-75.0	0.25	16.0	5.0	3.0	6.296203738087918	0.815	n/a	stim	poldrack-single-stim	s518	False	1
394.063	1.402	395.465	-7.910049814038299	end_round	1.402	columbia_card_task_fmri	15.0	0.7272727272727273	71.0	-75.0	0.2727272727272727	16.0	6.0	3.0	7.406669737764737	1.402	5.0	stim	poldrack-single-stim	s518	False	1
396.221	1.5	395.47	n/a	-1.0	2.454	columbia_card_task_fmri	n/a	n/a	-1.0	n/a	n/a	n/a	n/a	n/a	n/a	n/a	n/a	ITI	poldrack-single-stim	s518	False	0
397.932	0.501	398.433	0.3229047314162439	draw_card	0.501	columbia_card_task_fmri	14.0	0.6875	89.0	-35.0	0.3125	16.0	1.0	5.0	-9.938327712026837	0.501	1.0	stim	poldrack-single-stim	s518	False	0
399.19	1.5	398.439	n/a	-1.0	2.318	columbia_card_task_fmri	n/a	n/a	-1.0	n/a	n/a	n/a	n/a	n/a	n/a	n/a	n/a	ITI	poldrack-single-stim	s518	False	0
400.763	0.49	401.253	5.502071398082912	draw_card	0.49	columbia_card_task_fmri	16.0	0.8666666666666667	89.0	-75.0	0.1333333333333333	15.0	1.0	2.0	-1.7319874151143289	0.49	n/a	stim	poldrack-single-stim	s518	False	1
401.259	0.415	401.674	4.635404731416246	draw_card	0.415	columbia_card_task_fmri	16.0	0.8571428571428572	89.0	-75.0	0.1428571428571428	15.0	2.0	2.0	-0.8239044316331956	0.415	n/a	stim	poldrack-single-stim	s518	False	1
401.679	0.485	402.164	3.635404731416244	draw_card	0.485	columbia_card_task_fmri	16.0	0.8461538461538461	89.0	-75.0	0.1538461538461538	15.0	3.0	2.0	0.164375965585414	0.485	3.0	stim	poldrack-single-stim	s518	False	0
402.921	1.5	402.17	n/a	-1.0	2.318	columbia_card_task_fmri	n/a	n/a	-1.0	n/a	n/a	n/a	n/a	n/a	n/a	n/a	n/a	ITI	poldrack-single-stim	s518	False	0
404.493	0.669	405.162	6.1687380647495775	draw_card	0.669	columbia_card_task_fmri	16.0	0.8666666666666667	89.0	-70.0	0.1333333333333333	15.0	1.0	2.0	-3.429152790202544	0.669	n/a	stim	poldrack-single-stim	s518	False	1
405.167	0.404	405.571	5.34969044570196	draw_card	0.404	columbia_card_task_fmri	16.0	0.8571428571428572	89.0	-70.0	0.1428571428571428	15.0	2.0	2.0	-2.571103474626636	0.404	n/a	stim	poldrack-single-stim	s518	False	1
405.576	0.546	406.122	4.404635500647013	draw_card	0.546	columbia_card_task_fmri	16.0	0.8461538461538461	89.0	-70.0	0.1538461538461538	15.0	3.0	2.0	-1.637266747801636	0.546	3.0	stim	poldrack-single-stim	s518	False	0
406.879	1.5	406.128	n/a	-1.0	2.59	columbia_card_task_fmri	n/a	n/a	-1.0	n/a	n/a	n/a	n/a	n/a	n/a	n/a	n/a	ITI	poldrack-single-stim	s518	False	0
408.723	0.875	409.598	3.510404731416244	draw_card	0.875	columbia_card_task_fmri	8.0	0.9375	89.0	-90.0	0.0625	16.0	1.0	1.0	-8.930909947882807	0.875	n/a	stim	poldrack-single-stim	s518	False	1
409.604	0.541	410.145	3.1020713980829107	draw_card	0.541	columbia_card_task_fmri	8.0	0.9333333333333332	89.0	-90.0	0.0666666666666666	16.0	2.0	1.0	-8.209100632994865	0.541	n/a	stim	poldrack-single-stim	s518	False	1
410.151	0.716	410.867	2.6354047314162448	draw_card	0.716	columbia_card_task_fmri	8.0	0.9285714285714286	89.0	-90.0	0.0714285714285714	16.0	3.0	1.0	-7.417450647341806	0.716	n/a	stim	poldrack-single-stim	s518	False	1
410.873	0.713	411.586	2.096943192954705	draw_card	0.713	columbia_card_task_fmri	8.0	0.9230769230769232	89.0	-90.0	0.0769230769230769	16.0	4.0	1.0	-6.544083032492242	0.713	n/a	stim	poldrack-single-stim	s518	False	1
411.591	1.333	412.924	1.468738064749577	draw_card	1.333	columbia_card_task_fmri	8.0	0.9166666666666666	89.0	-90.0	0.0833333333333333	16.0	5.0	1.0	-5.574142765555628	1.333	n/a	stim	poldrack-single-stim	s518	False	1
412.93	0.759	413.689	0.7263138223253347	end_round	0.759	columbia_card_task_fmri	8.0	0.9090909090909092	71.0	-90.0	0.0909090909090909	16.0	6.0	1.0	-4.488793088688883	0.759	5.0	stim	poldrack-single-stim	s518	False	1
414.447	1.5	413.696	n/a	-1.0	2.726	columbia_card_task_fmri	n/a	n/a	-1.0	n/a	n/a	n/a	n/a	n/a	n/a	n/a	n/a	ITI	poldrack-single-stim	s518	False	0
416.43	0.494	416.924	5.072904731416244	draw_card	0.494	columbia_card_task_fmri	10.0	0.9375	89.0	-95.0	0.0625	16.0	1.0	1.0	-7.240225436616633	0.494	n/a	stim	poldrack-single-stim	s518	False	1
416.93	0.4	417.33	4.635404731416244	draw_card	0.4	columbia_card_task_fmri	10.0	0.9333333333333332	89.0	-95.0	0.0666666666666666	16.0	2.0	1.0	-6.466629403571726	0.4	n/a	stim	poldrack-single-stim	s518	False	1
417.336	0.516	417.852	4.135404731416244	draw_card	0.516	columbia_card_task_fmri	10.0	0.9285714285714286	89.0	-95.0	0.0714285714285714	16.0	3.0	1.0	-5.618196961214832	0.516	n/a	stim	poldrack-single-stim	s518	False	1
417.858	0.5	418.358	3.5584816544931672	draw_card	0.5	columbia_card_task_fmri	10.0	0.9230769230769232	89.0	-95.0	0.0769230769230769	16.0	4.0	1.0	-4.682202128739878	0.5	n/a	stim	poldrack-single-stim	s518	False	1
418.364	0.966	419.33	2.885404731416244	draw_card	0.966	columbia_card_task_fmri	10.0	0.9166666666666666	89.0	-95.0	0.0833333333333333	16.0	5.0	1.0	-3.642728038335445	0.966	n/a	stim	poldrack-single-stim	s518	False	1
419.335	0.519	419.854	2.089950185961697	draw_card	0.519	columbia_card_task_fmri	10.0	0.9090909090909092	89.0	-95.0	0.0909090909090909	16.0	6.0	1.0	-2.4795915539563573	0.519	6.0	stim	poldrack-single-stim	s518	False	0
420.611	1.5	419.86	n/a	-1.0	2.522	columbia_card_task_fmri	n/a	n/a	-1.0	n/a	n/a	n/a	n/a	n/a	n/a	n/a	n/a	ITI	poldrack-single-stim	s518	False	0
422.389	0.368	422.757	6.010404731416244	draw_card	0.368	columbia_card_task_fmri	15.0	0.875	89.0	-70.0	0.125	16.0	1.0	2.0	-4.550600287418316	0.368	n/a	stim	poldrack-single-stim	s518	False	1
422.762	0.443	423.205	5.30207139808291	draw_card	0.443	columbia_card_task_fmri	15.0	0.8666666666666667	89.0	-70.0	0.1333333333333333	16.0	2.0	2.0	-3.768550543667594	0.443	n/a	stim	poldrack-single-stim	s518	False	1
423.21	0.426	423.636	4.492547588559102	draw_card	0.426	columbia_card_task_fmri	15.0	0.8571428571428572	89.0	-70.0	0.1428571428571428	16.0	3.0	2.0	-2.9205089615248205	0.426	n/a	stim	poldrack-single-stim	s518	False	1
423.641	0.37	424.011	3.558481654493165	draw_card	0.37	columbia_card_task_fmri	15.0	0.8461538461538461	89.0	-70.0	0.1538461538461538	16.0	4.0	2.0	-1.9975619947090093	0.37	n/a	stim	poldrack-single-stim	s518	False	1
424.015	0.414	424.429	2.468738064749578	draw_card	0.414	columbia_card_task_fmri	15.0	0.8333333333333334	89.0	-70.0	0.1666666666666666	16.0	5.0	2.0	-0.9894221232093976	0.414	n/a	stim	poldrack-single-stim	s518	False	1
424.435	0.486	424.921	1.180859276870787	draw_card	0.486	columbia_card_task_fmri	15.0	0.8181818181818181	89.0	-70.0	0.1818181818181818	16.0	6.0	2.0	0.1155679197230128	0.486	n/a	stim	poldrack-single-stim	s518	False	1
424.927	0.982	425.909	-0.3645952685837561	end_round	0.982	columbia_card_task_fmri	15.0	0.8	71.0	-70.0	0.2	16.0	7.0	2.0	1.3300700608586595	0.982	6.0	stim	poldrack-single-stim	s518	False	1
426.664	1.5	425.913	n/a	-1.0	3.134	columbia_card_task_fmri	n/a	n/a	-1.0	n/a	n/a	n/a	n/a	n/a	n/a	n/a	n/a	ITI	poldrack-single-stim	s518	False	0
429.054	0.465	429.519	5.010404731416244	draw_card	0.465	columbia_card_task_fmri	16.0	0.875	89.0	-85.0	0.125	16.0	1.0	2.0	0.7333825497221724	0.465	1.0	stim	poldrack-single-stim	s518	False	0
430.276	1.5	429.525	n/a	-1.0	2.386	columbia_card_task_fmri	n/a	n/a	-1.0	n/a	n/a	n/a	n/a	n/a	n/a	n/a	n/a	ITI	poldrack-single-stim	s518	False	0
