onset	duration	movement_onset	block_duration	condition	correct	correct_response	experiment_exp_id	key_press	response_time	trial_id	trial_type	worker_id	junk
3.006	0.5	3.005	0.5	AX	n/a	n/a	dot_pattern_expectancy	-1.0	n/a	cue	AX	s519	False
5.508	0.5	6.338	1.772	AX	1.0	89.0	dot_pattern_expectancy	89.0	0.83	probe	AX	s519	False
7.282	0.5	7.281	0.5	AX	n/a	n/a	dot_pattern_expectancy	-1.0	n/a	cue	AX	s519	False
9.785	0.5	10.602	1.5	AX	1.0	89.0	dot_pattern_expectancy	89.0	0.817	probe	AX	s519	False
11.288	0.5	11.287	0.5	AY	n/a	n/a	dot_pattern_expectancy	-1.0	n/a	cue	AY	s519	False
13.79	0.5	14.57	2.452	AY	1.0	71.0	dot_pattern_expectancy	71.0	0.78	probe	AY	s519	False
16.244	0.5	16.243	0.5	AY	n/a	n/a	dot_pattern_expectancy	-1.0	n/a	cue	AY	s519	False
18.747	0.5	19.495	1.772	AY	1.0	71.0	dot_pattern_expectancy	71.0	0.748	probe	AY	s519	False
20.521	0.5	20.52	0.5	AX	n/a	n/a	dot_pattern_expectancy	-1.0	n/a	cue	AX	s519	False
23.023	0.5	23.796	1.908	AX	1.0	89.0	dot_pattern_expectancy	89.0	0.773	probe	AX	s519	False
24.934	0.5	24.933	0.5	AX	n/a	n/a	dot_pattern_expectancy	-1.0	n/a	cue	AX	s519	False
27.437	0.5	28.334	1.908	AX	1.0	89.0	dot_pattern_expectancy	89.0	0.897	probe	AX	s519	False
29.347	0.5	29.346	0.5	AX	n/a	n/a	dot_pattern_expectancy	-1.0	n/a	cue	AX	s519	False
31.85	0.5	32.577	2.588	AX	1.0	89.0	dot_pattern_expectancy	89.0	0.727	probe	AX	s519	False
34.44	0.5	34.439	0.5	AY	n/a	n/a	dot_pattern_expectancy	-1.0	n/a	cue	AY	s519	False
36.942	0.5	38.045	1.5	AY	1.0	71.0	dot_pattern_expectancy	71.0	1.103	probe	AY	s519	False
38.445	0.5	38.444	0.5	BY	n/a	n/a	dot_pattern_expectancy	-1.0	n/a	cue	BY	s519	False
40.947	0.5	41.711	1.5	BY	1.0	71.0	dot_pattern_expectancy	71.0	0.764	probe	BY	s519	False
42.45	0.5	42.449	0.5	BY	n/a	n/a	dot_pattern_expectancy	-1.0	n/a	cue	BY	s519	False
44.954	0.5	45.758	1.5	BY	1.0	71.0	dot_pattern_expectancy	71.0	0.804	probe	BY	s519	False
46.456	0.5	46.455	0.5	AX	n/a	n/a	dot_pattern_expectancy	-1.0	n/a	cue	AX	s519	False
48.959	0.5	49.793	1.636	AX	1.0	89.0	dot_pattern_expectancy	89.0	0.834	probe	AX	s519	False
50.597	0.5	50.596	0.5	BX	n/a	n/a	dot_pattern_expectancy	-1.0	n/a	cue	BX	s519	False
53.1	0.5	54.016	2.044	BX	1.0	71.0	dot_pattern_expectancy	71.0	0.916	probe	BX	s519	False
55.147	0.5	55.146	0.5	AX	n/a	n/a	dot_pattern_expectancy	-1.0	n/a	cue	AX	s519	False
57.649	0.5	58.436	1.772	AX	1.0	89.0	dot_pattern_expectancy	89.0	0.787	probe	AX	s519	False
59.423	0.5	59.422	0.5	BX	n/a	n/a	dot_pattern_expectancy	-1.0	n/a	cue	BX	s519	False
61.926	0.5	62.692	2.588	BX	1.0	71.0	dot_pattern_expectancy	71.0	0.766	probe	BX	s519	False
64.516	0.5	64.515	0.5	AY	n/a	n/a	dot_pattern_expectancy	-1.0	n/a	cue	AY	s519	False
67.019	0.5	67.758	1.5	AY	1.0	71.0	dot_pattern_expectancy	71.0	0.739	probe	AY	s519	False
68.521	0.5	68.52	0.5	AX	n/a	n/a	dot_pattern_expectancy	-1.0	n/a	cue	AX	s519	False
71.025	0.5	71.573	2.452	AX	1.0	89.0	dot_pattern_expectancy	89.0	0.548	probe	AX	s519	False
73.48	0.5	73.479	0.5	BY	n/a	n/a	dot_pattern_expectancy	-1.0	n/a	cue	BY	s519	False
75.983	0.5	76.842	1.636	BY	1.0	71.0	dot_pattern_expectancy	71.0	0.859	probe	BY	s519	False
77.622	0.5	77.621	0.5	AX	n/a	n/a	dot_pattern_expectancy	-1.0	n/a	cue	AX	s519	False
80.125	0.5	80.954	1.636	AX	1.0	89.0	dot_pattern_expectancy	89.0	0.829	probe	AX	s519	False
81.763	0.5	81.762	0.5	AX	n/a	n/a	dot_pattern_expectancy	-1.0	n/a	cue	AX	s519	False
84.266	0.5	85.072	1.5	AX	1.0	89.0	dot_pattern_expectancy	89.0	0.806	probe	AX	s519	False
85.768	0.5	85.767	0.5	BY	n/a	n/a	dot_pattern_expectancy	-1.0	n/a	cue	BY	s519	False
88.271	0.5	89.057	1.636	BY	1.0	71.0	dot_pattern_expectancy	71.0	0.786	probe	BY	s519	False
89.91	0.5	89.909	0.5	AX	n/a	n/a	dot_pattern_expectancy	-1.0	n/a	cue	AX	s519	False
92.412	0.5	93.278	1.5	AX	1.0	89.0	dot_pattern_expectancy	89.0	0.866	probe	AX	s519	False
93.914	0.5	93.913	0.5	AY	n/a	n/a	dot_pattern_expectancy	-1.0	n/a	cue	AY	s519	False
96.417	0.5	97.264	2.18	AY	1.0	71.0	dot_pattern_expectancy	71.0	0.847	probe	AY	s519	False
98.6	0.5	98.599	0.5	AX	n/a	n/a	dot_pattern_expectancy	-1.0	n/a	cue	AX	s519	False
101.106	0.5	101.977	1.5	AX	1.0	89.0	dot_pattern_expectancy	89.0	0.871	probe	AX	s519	False
102.608	0.5	102.607	0.5	AX	n/a	n/a	dot_pattern_expectancy	-1.0	n/a	cue	AX	s519	False
105.11	0.5	105.948	1.908	AX	1.0	89.0	dot_pattern_expectancy	89.0	0.838	probe	AX	s519	False
107.021	0.5	107.02	0.5	BY	n/a	n/a	dot_pattern_expectancy	-1.0	n/a	cue	BY	s519	False
109.525	0.5	110.443	1.636	BY	1.0	71.0	dot_pattern_expectancy	71.0	0.918	probe	BY	s519	False
111.163	0.5	111.162	0.5	BY	n/a	n/a	dot_pattern_expectancy	-1.0	n/a	cue	BY	s519	False
113.666	0.5	114.763	1.636	BY	1.0	71.0	dot_pattern_expectancy	71.0	1.097	probe	BY	s519	False
115.305	0.5	115.304	0.5	AX	n/a	n/a	dot_pattern_expectancy	-1.0	n/a	cue	AX	s519	False
117.809	0.5	118.699	1.636	AX	1.0	89.0	dot_pattern_expectancy	89.0	0.89	probe	AX	s519	False
119.447	0.5	119.446	0.5	AX	n/a	n/a	dot_pattern_expectancy	-1.0	n/a	cue	AX	s519	False
121.95	0.5	122.766	1.5	AX	1.0	89.0	dot_pattern_expectancy	89.0	0.816	probe	AX	s519	False
123.452	0.5	123.451	0.5	BY	n/a	n/a	dot_pattern_expectancy	-1.0	n/a	cue	BY	s519	False
125.955	0.5	126.875	2.044	BY	1.0	71.0	dot_pattern_expectancy	71.0	0.92	probe	BY	s519	False
128.001	0.5	128.0	0.5	AY	n/a	n/a	dot_pattern_expectancy	-1.0	n/a	cue	AY	s519	False
130.503	0.5	131.45	2.18	AY	1.0	71.0	dot_pattern_expectancy	71.0	0.947	probe	AY	s519	False
132.687	0.5	132.686	0.5	AY	n/a	n/a	dot_pattern_expectancy	-1.0	n/a	cue	AY	s519	False
135.19	0.5	136.114	1.636	AY	1.0	71.0	dot_pattern_expectancy	71.0	0.924	probe	AY	s519	False
136.828	0.5	136.827	0.5	AY	n/a	n/a	dot_pattern_expectancy	-1.0	n/a	cue	AY	s519	False
139.331	0.5	140.152	1.772	AY	1.0	71.0	dot_pattern_expectancy	71.0	0.821	probe	AY	s519	False
141.105	0.5	141.104	0.5	BY	n/a	n/a	dot_pattern_expectancy	-1.0	n/a	cue	BY	s519	False
143.608	0.5	144.455	1.5	BY	1.0	71.0	dot_pattern_expectancy	71.0	0.847	probe	BY	s519	False
145.11	0.5	145.109	0.5	BX	n/a	n/a	dot_pattern_expectancy	-1.0	n/a	cue	BX	s519	False
147.612	0.5	148.437	1.908	BX	1.0	71.0	dot_pattern_expectancy	71.0	0.825	probe	BX	s519	False
149.523	0.5	149.522	0.5	AX	n/a	n/a	dot_pattern_expectancy	-1.0	n/a	cue	AX	s519	False
152.025	0.5	152.976	2.044	AX	1.0	89.0	dot_pattern_expectancy	89.0	0.951	probe	AX	s519	False
154.071	0.5	154.07	0.5	AX	n/a	n/a	dot_pattern_expectancy	-1.0	n/a	cue	AX	s519	False
156.573	0.5	157.393	1.636	AX	1.0	89.0	dot_pattern_expectancy	89.0	0.82	probe	AX	s519	False
158.211	0.5	158.21	0.5	AX	n/a	n/a	dot_pattern_expectancy	-1.0	n/a	cue	AX	s519	False
160.714	0.5	161.613	1.772	AX	1.0	89.0	dot_pattern_expectancy	89.0	0.899	probe	AX	s519	False
162.488	0.5	162.487	0.5	AX	n/a	n/a	dot_pattern_expectancy	-1.0	n/a	cue	AX	s519	False
164.99	0.5	165.822	1.636	AX	1.0	89.0	dot_pattern_expectancy	89.0	0.832	probe	AX	s519	False
166.628	0.5	166.627	0.5	BX	n/a	n/a	dot_pattern_expectancy	-1.0	n/a	cue	BX	s519	False
169.131	0.5	169.975	1.772	BX	1.0	71.0	dot_pattern_expectancy	71.0	0.844	probe	BX	s519	False
170.905	0.5	170.904	0.5	AX	n/a	n/a	dot_pattern_expectancy	-1.0	n/a	cue	AX	s519	False
173.407	0.5	174.321	1.5	AX	1.0	89.0	dot_pattern_expectancy	89.0	0.914	probe	AX	s519	False
185.414	0.5	185.413	0.5	BY	n/a	n/a	dot_pattern_expectancy	-1.0	n/a	cue	BY	s519	False
187.916	0.5	188.738	1.636	BY	1.0	71.0	dot_pattern_expectancy	71.0	0.822	probe	BY	s519	False
189.554	0.5	189.553	0.5	AY	n/a	n/a	dot_pattern_expectancy	-1.0	n/a	cue	AY	s519	False
192.057	0.5	192.908	1.5	AY	1.0	71.0	dot_pattern_expectancy	71.0	0.851	probe	AY	s519	False
193.559	0.5	193.558	0.5	AX	n/a	n/a	dot_pattern_expectancy	-1.0	n/a	cue	AX	s519	False
196.061	0.5	196.916	2.044	AX	1.0	89.0	dot_pattern_expectancy	89.0	0.855	probe	AX	s519	False
198.108	0.5	198.107	0.5	BY	n/a	n/a	dot_pattern_expectancy	-1.0	n/a	cue	BY	s519	False
200.611	0.5	201.418	1.772	BY	1.0	71.0	dot_pattern_expectancy	71.0	0.807	probe	BY	s519	False
202.385	0.5	202.384	0.5	BX	n/a	n/a	dot_pattern_expectancy	-1.0	n/a	cue	BX	s519	False
204.888	0.5	205.635	1.636	BX	1.0	71.0	dot_pattern_expectancy	71.0	0.747	probe	BX	s519	False
206.526	0.5	206.525	0.5	AX	n/a	n/a	dot_pattern_expectancy	-1.0	n/a	cue	AX	s519	False
209.029	0.5	209.822	1.636	AX	1.0	89.0	dot_pattern_expectancy	89.0	0.793	probe	AX	s519	False
210.668	0.5	210.667	0.5	AX	n/a	n/a	dot_pattern_expectancy	-1.0	n/a	cue	AX	s519	False
213.171	0.5	213.983	1.5	AX	1.0	89.0	dot_pattern_expectancy	89.0	0.812	probe	AX	s519	False
214.673	0.5	214.672	0.5	AX	n/a	n/a	dot_pattern_expectancy	-1.0	n/a	cue	AX	s519	False
217.177	0.5	217.871	1.5	AX	1.0	89.0	dot_pattern_expectancy	89.0	0.694	probe	AX	s519	False
218.679	0.5	218.678	0.5	AY	n/a	n/a	dot_pattern_expectancy	-1.0	n/a	cue	AY	s519	False
221.182	0.5	222.044	2.044	AY	1.0	71.0	dot_pattern_expectancy	71.0	0.862	probe	AY	s519	False
223.228	0.5	223.227	0.5	AX	n/a	n/a	dot_pattern_expectancy	-1.0	n/a	cue	AX	s519	False
225.732	0.5	226.5	2.452	AX	1.0	89.0	dot_pattern_expectancy	89.0	0.768	probe	AX	s519	False
228.185	0.5	228.184	0.5	AX	n/a	n/a	dot_pattern_expectancy	-1.0	n/a	cue	AX	s519	False
230.689	0.5	231.472	1.908	AX	1.0	89.0	dot_pattern_expectancy	89.0	0.783	probe	AX	s519	False
232.6	0.5	232.599	0.5	AX	n/a	n/a	dot_pattern_expectancy	-1.0	n/a	cue	AX	s519	False
235.102	0.5	235.861	1.5	AX	1.0	89.0	dot_pattern_expectancy	89.0	0.759	probe	AX	s519	False
236.604	0.5	236.603	0.5	AX	n/a	n/a	dot_pattern_expectancy	-1.0	n/a	cue	AX	s519	False
239.107	0.5	239.828	1.908	AX	1.0	89.0	dot_pattern_expectancy	89.0	0.721	probe	AX	s519	False
241.018	0.5	241.017	0.5	BX	n/a	n/a	dot_pattern_expectancy	-1.0	n/a	cue	BX	s519	False
243.52	0.5	244.317	2.18	BX	1.0	71.0	dot_pattern_expectancy	71.0	0.797	probe	BX	s519	False
245.702	0.5	245.701	0.5	AX	n/a	n/a	dot_pattern_expectancy	-1.0	n/a	cue	AX	s519	False
248.204	0.5	248.981	1.5	AX	1.0	89.0	dot_pattern_expectancy	89.0	0.777	probe	AX	s519	False
249.707	0.5	249.706	0.5	BY	n/a	n/a	dot_pattern_expectancy	-1.0	n/a	cue	BY	s519	False
252.21	0.5	253.004	1.908	BY	1.0	71.0	dot_pattern_expectancy	71.0	0.794	probe	BY	s519	False
254.12	0.5	254.119	0.5	BX	n/a	n/a	dot_pattern_expectancy	-1.0	n/a	cue	BX	s519	False
256.623	0.5	257.343	2.316	BX	1.0	71.0	dot_pattern_expectancy	71.0	0.72	probe	BX	s519	False
258.941	0.5	258.94	0.5	AY	n/a	n/a	dot_pattern_expectancy	-1.0	n/a	cue	AY	s519	False
261.445	0.5	262.272	2.316	AY	1.0	71.0	dot_pattern_expectancy	71.0	0.827	probe	AY	s519	False
263.763	0.5	263.762	0.5	BX	n/a	n/a	dot_pattern_expectancy	-1.0	n/a	cue	BX	s519	False
266.266	0.5	267.023	1.636	BX	1.0	71.0	dot_pattern_expectancy	71.0	0.757	probe	BX	s519	False
267.904	0.5	267.903	0.5	AY	n/a	n/a	dot_pattern_expectancy	-1.0	n/a	cue	AY	s519	False
270.408	0.5	271.274	1.5	AY	1.0	71.0	dot_pattern_expectancy	71.0	0.866	probe	AY	s519	False
271.91	0.5	271.909	0.5	BY	n/a	n/a	dot_pattern_expectancy	-1.0	n/a	cue	BY	s519	False
274.412	0.5	275.132	1.908	BY	1.0	71.0	dot_pattern_expectancy	71.0	0.72	probe	BY	s519	False
276.322	0.5	276.321	0.5	AX	n/a	n/a	dot_pattern_expectancy	-1.0	n/a	cue	AX	s519	False
278.824	0.5	279.589	1.5	AX	1.0	89.0	dot_pattern_expectancy	89.0	0.765	probe	AX	s519	False
280.326	0.5	280.325	0.5	AY	n/a	n/a	dot_pattern_expectancy	-1.0	n/a	cue	AY	s519	False
282.829	0.5	283.588	2.316	AY	1.0	71.0	dot_pattern_expectancy	71.0	0.759	probe	AY	s519	False
285.148	0.5	285.147	0.5	AX	n/a	n/a	dot_pattern_expectancy	-1.0	n/a	cue	AX	s519	False
287.65	0.5	288.436	1.5	AX	1.0	89.0	dot_pattern_expectancy	89.0	0.786	probe	AX	s519	False
289.153	0.5	289.152	0.5	AY	n/a	n/a	dot_pattern_expectancy	-1.0	n/a	cue	AY	s519	False
291.656	0.5	292.423	2.724	AY	1.0	71.0	dot_pattern_expectancy	71.0	0.767	probe	AY	s519	False
294.382	0.5	294.381	0.5	AX	n/a	n/a	dot_pattern_expectancy	-1.0	n/a	cue	AX	s519	False
296.884	0.5	297.623	1.5	AX	1.0	89.0	dot_pattern_expectancy	89.0	0.739	probe	AX	s519	False
298.386	0.5	298.385	0.5	AX	n/a	n/a	dot_pattern_expectancy	-1.0	n/a	cue	AX	s519	False
300.889	0.5	301.646	1.636	AX	1.0	89.0	dot_pattern_expectancy	89.0	0.757	probe	AX	s519	False
302.527	0.5	302.526	0.5	AX	n/a	n/a	dot_pattern_expectancy	-1.0	n/a	cue	AX	s519	False
305.03	0.5	305.768	1.636	AX	1.0	89.0	dot_pattern_expectancy	89.0	0.738	probe	AX	s519	False
306.668	0.5	306.667	0.5	AX	n/a	n/a	dot_pattern_expectancy	-1.0	n/a	cue	AX	s519	False
309.171	0.5	309.946	1.772	AX	1.0	89.0	dot_pattern_expectancy	89.0	0.775	probe	AX	s519	False
310.945	0.5	310.944	0.5	BY	n/a	n/a	dot_pattern_expectancy	-1.0	n/a	cue	BY	s519	False
313.447	0.5	314.21	1.772	BY	1.0	71.0	dot_pattern_expectancy	71.0	0.763	probe	BY	s519	False
315.221	0.5	315.22	0.5	AX	n/a	n/a	dot_pattern_expectancy	-1.0	n/a	cue	AX	s519	False
317.724	0.5	318.51	1.5	AX	1.0	89.0	dot_pattern_expectancy	89.0	0.786	probe	AX	s519	False
319.226	0.5	319.225	0.5	BY	n/a	n/a	dot_pattern_expectancy	-1.0	n/a	cue	BY	s519	False
321.729	0.5	322.524	2.452	BY	1.0	71.0	dot_pattern_expectancy	71.0	0.795	probe	BY	s519	False
324.184	0.5	324.183	0.5	AX	n/a	n/a	dot_pattern_expectancy	-1.0	n/a	cue	AX	s519	False
326.686	0.5	327.483	1.636	AX	1.0	89.0	dot_pattern_expectancy	89.0	0.797	probe	AX	s519	False
328.325	0.5	328.324	0.5	AX	n/a	n/a	dot_pattern_expectancy	-1.0	n/a	cue	AX	s519	False
330.827	0.5	331.634	1.636	AX	1.0	89.0	dot_pattern_expectancy	89.0	0.807	probe	AX	s519	False
332.466	0.5	332.465	0.5	BX	n/a	n/a	dot_pattern_expectancy	-1.0	n/a	cue	BX	s519	False
334.969	0.5	335.801	1.5	BX	1.0	71.0	dot_pattern_expectancy	71.0	0.832	probe	BX	s519	False
336.472	0.5	336.471	0.5	BX	n/a	n/a	dot_pattern_expectancy	-1.0	n/a	cue	BX	s519	False
338.975	0.5	339.786	1.5	BX	1.0	71.0	dot_pattern_expectancy	71.0	0.811	probe	BX	s519	False
340.477	0.5	340.476	0.5	AX	n/a	n/a	dot_pattern_expectancy	-1.0	n/a	cue	AX	s519	False
342.98	0.5	343.763	2.316	AX	1.0	89.0	dot_pattern_expectancy	89.0	0.783	probe	AX	s519	False
345.299	0.5	345.298	0.5	AY	n/a	n/a	dot_pattern_expectancy	-1.0	n/a	cue	AY	s519	False
347.802	0.5	348.614	2.044	AY	1.0	71.0	dot_pattern_expectancy	71.0	0.812	probe	AY	s519	False
349.848	0.5	349.847	0.5	AX	n/a	n/a	dot_pattern_expectancy	-1.0	n/a	cue	AX	s519	False
352.351	0.5	353.204	3.948	AX	1.0	89.0	dot_pattern_expectancy	89.0	0.853	probe	AX	s519	False
356.301	0.5	356.3	0.5	AX	n/a	n/a	dot_pattern_expectancy	-1.0	n/a	cue	AX	s519	False
358.804	0.5	359.556	1.636	AX	1.0	89.0	dot_pattern_expectancy	89.0	0.752	probe	AX	s519	False
370.947	0.5	370.946	0.5	AY	n/a	n/a	dot_pattern_expectancy	-1.0	n/a	cue	AY	s519	False
373.45	0.5	374.275	1.636	AY	1.0	71.0	dot_pattern_expectancy	71.0	0.825	probe	AY	s519	False
375.09	0.5	375.089	0.5	AX	n/a	n/a	dot_pattern_expectancy	-1.0	n/a	cue	AX	s519	False
377.593	0.5	378.383	1.636	AX	1.0	89.0	dot_pattern_expectancy	89.0	0.79	probe	AX	s519	False
379.231	0.5	379.23	0.5	AX	n/a	n/a	dot_pattern_expectancy	-1.0	n/a	cue	AX	s519	False
381.734	0.5	382.454	1.5	AX	1.0	89.0	dot_pattern_expectancy	89.0	0.72	probe	AX	s519	False
383.236	0.5	383.235	0.5	AX	n/a	n/a	dot_pattern_expectancy	-1.0	n/a	cue	AX	s519	False
385.739	0.5	386.518	1.5	AX	1.0	89.0	dot_pattern_expectancy	89.0	0.779	probe	AX	s519	False
387.241	0.5	387.24	0.5	AX	n/a	n/a	dot_pattern_expectancy	-1.0	n/a	cue	AX	s519	False
389.744	0.5	390.487	1.908	AX	1.0	89.0	dot_pattern_expectancy	89.0	0.743	probe	AX	s519	False
391.654	0.5	391.653	0.5	BX	n/a	n/a	dot_pattern_expectancy	-1.0	n/a	cue	BX	s519	False
394.156	0.5	394.963	1.636	BX	1.0	71.0	dot_pattern_expectancy	71.0	0.807	probe	BX	s519	False
395.794	0.5	395.793	0.5	AX	n/a	n/a	dot_pattern_expectancy	-1.0	n/a	cue	AX	s519	False
398.297	0.5	399.013	2.044	AX	1.0	89.0	dot_pattern_expectancy	89.0	0.716	probe	AX	s519	False
400.343	0.5	400.342	0.5	AX	n/a	n/a	dot_pattern_expectancy	-1.0	n/a	cue	AX	s519	False
402.845	0.5	403.576	1.772	AX	1.0	89.0	dot_pattern_expectancy	89.0	0.731	probe	AX	s519	False
404.619	0.5	404.618	0.5	AX	n/a	n/a	dot_pattern_expectancy	-1.0	n/a	cue	AX	s519	False
407.122	0.5	407.814	1.5	AX	1.0	89.0	dot_pattern_expectancy	89.0	0.692	probe	AX	s519	False
408.625	0.5	408.624	0.5	AX	n/a	n/a	dot_pattern_expectancy	-1.0	n/a	cue	AX	s519	False
411.127	0.5	411.899	2.18	AX	1.0	89.0	dot_pattern_expectancy	89.0	0.772	probe	AX	s519	False
413.309	0.5	413.308	0.5	AX	n/a	n/a	dot_pattern_expectancy	-1.0	n/a	cue	AX	s519	False
415.813	0.5	416.599	1.5	AX	1.0	89.0	dot_pattern_expectancy	89.0	0.786	probe	AX	s519	False
417.315	0.5	417.314	0.5	BX	n/a	n/a	dot_pattern_expectancy	-1.0	n/a	cue	BX	s519	False
419.818	0.5	420.539	3.676	BX	1.0	71.0	dot_pattern_expectancy	71.0	0.721	probe	BX	s519	False
423.496	0.5	423.495	0.5	BY	n/a	n/a	dot_pattern_expectancy	-1.0	n/a	cue	BY	s519	False
425.999	0.5	426.829	1.636	BY	1.0	71.0	dot_pattern_expectancy	71.0	0.83	probe	BY	s519	False
427.637	0.5	427.636	0.5	BY	n/a	n/a	dot_pattern_expectancy	-1.0	n/a	cue	BY	s519	False
430.139	0.5	430.891	1.636	BY	1.0	71.0	dot_pattern_expectancy	71.0	0.752	probe	BY	s519	False
431.777	0.5	431.776	0.5	BX	n/a	n/a	dot_pattern_expectancy	-1.0	n/a	cue	BX	s519	False
434.28	0.5	435.124	1.5	BX	1.0	71.0	dot_pattern_expectancy	71.0	0.844	probe	BX	s519	False
435.782	0.5	435.781	0.5	AX	n/a	n/a	dot_pattern_expectancy	-1.0	n/a	cue	AX	s519	False
438.284	0.5	438.968	1.908	AX	1.0	89.0	dot_pattern_expectancy	89.0	0.684	probe	AX	s519	False
440.194	0.5	440.193	0.5	AX	n/a	n/a	dot_pattern_expectancy	-1.0	n/a	cue	AX	s519	False
442.696	0.5	443.439	1.636	AX	1.0	89.0	dot_pattern_expectancy	89.0	0.743	probe	AX	s519	False
444.335	0.5	444.334	0.5	BX	n/a	n/a	dot_pattern_expectancy	-1.0	n/a	cue	BX	s519	False
446.837	0.5	447.672	1.5	BX	1.0	71.0	dot_pattern_expectancy	71.0	0.835	probe	BX	s519	False
448.339	0.5	448.338	0.5	AX	n/a	n/a	dot_pattern_expectancy	-1.0	n/a	cue	AX	s519	False
450.843	0.5	451.599	1.908	AX	1.0	89.0	dot_pattern_expectancy	89.0	0.756	probe	AX	s519	False
452.753	0.5	452.752	0.5	BY	n/a	n/a	dot_pattern_expectancy	-1.0	n/a	cue	BY	s519	False
455.256	0.5	455.948	2.18	BY	1.0	71.0	dot_pattern_expectancy	71.0	0.692	probe	BY	s519	False
457.44	0.5	457.439	0.5	AX	n/a	n/a	dot_pattern_expectancy	-1.0	n/a	cue	AX	s519	False
459.942	0.5	460.756	1.772	AX	1.0	89.0	dot_pattern_expectancy	89.0	0.814	probe	AX	s519	False
461.716	0.5	461.715	0.5	AX	n/a	n/a	dot_pattern_expectancy	-1.0	n/a	cue	AX	s519	False
464.219	0.5	464.89	1.5	AX	1.0	89.0	dot_pattern_expectancy	89.0	0.671	probe	AX	s519	False
465.721	0.5	465.72	0.5	AX	n/a	n/a	dot_pattern_expectancy	-1.0	n/a	cue	AX	s519	False
468.224	0.5	468.915	1.5	AX	1.0	89.0	dot_pattern_expectancy	89.0	0.691	probe	AX	s519	False
469.726	0.5	469.725	0.5	AX	n/a	n/a	dot_pattern_expectancy	-1.0	n/a	cue	AX	s519	False
472.228	0.5	472.974	2.044	AX	1.0	89.0	dot_pattern_expectancy	89.0	0.746	probe	AX	s519	False
474.275	0.5	474.274	0.5	AX	n/a	n/a	dot_pattern_expectancy	-1.0	n/a	cue	AX	s519	False
476.778	0.5	477.562	2.86	AX	1.0	89.0	dot_pattern_expectancy	89.0	0.784	probe	AX	s519	False
479.64	0.5	479.639	0.5	BX	n/a	n/a	dot_pattern_expectancy	-1.0	n/a	cue	BX	s519	False
482.142	0.5	482.953	1.5	BX	1.0	71.0	dot_pattern_expectancy	71.0	0.811	probe	BX	s519	False
483.645	0.5	483.644	0.5	BY	n/a	n/a	dot_pattern_expectancy	-1.0	n/a	cue	BY	s519	False
486.147	0.5	486.951	1.772	BY	1.0	71.0	dot_pattern_expectancy	71.0	0.804	probe	BY	s519	False
487.922	0.5	487.921	0.5	AX	n/a	n/a	dot_pattern_expectancy	-1.0	n/a	cue	AX	s519	False
490.425	0.5	491.199	1.772	AX	1.0	89.0	dot_pattern_expectancy	89.0	0.774	probe	AX	s519	False
492.199	0.5	492.198	0.5	AX	n/a	n/a	dot_pattern_expectancy	-1.0	n/a	cue	AX	s519	False
494.703	0.5	495.45	2.86	AX	1.0	89.0	dot_pattern_expectancy	89.0	0.747	probe	AX	s519	False
497.565	0.5	497.564	0.5	AX	n/a	n/a	dot_pattern_expectancy	-1.0	n/a	cue	AX	s519	False
500.068	0.5	500.836	1.772	AX	1.0	89.0	dot_pattern_expectancy	89.0	0.768	probe	AX	s519	False
501.842	0.5	501.841	0.5	BX	n/a	n/a	dot_pattern_expectancy	-1.0	n/a	cue	BX	s519	False
504.346	0.5	505.205	1.636	BX	1.0	71.0	dot_pattern_expectancy	71.0	0.859	probe	BX	s519	False
505.984	0.5	505.983	0.5	BX	n/a	n/a	dot_pattern_expectancy	-1.0	n/a	cue	BX	s519	False
508.486	0.5	509.233	2.452	BX	1.0	71.0	dot_pattern_expectancy	71.0	0.747	probe	BX	s519	False
510.94	0.5	510.939	0.5	AX	n/a	n/a	dot_pattern_expectancy	-1.0	n/a	cue	AX	s519	False
513.443	0.5	514.227	1.636	AX	1.0	89.0	dot_pattern_expectancy	89.0	0.784	probe	AX	s519	False
515.081	0.5	515.08	0.5	BX	n/a	n/a	dot_pattern_expectancy	-1.0	n/a	cue	BX	s519	False
517.583	0.5	518.411	1.5	BX	1.0	71.0	dot_pattern_expectancy	71.0	0.828	probe	BX	s519	False
519.086	0.5	519.085	0.5	AX	n/a	n/a	dot_pattern_expectancy	-1.0	n/a	cue	AX	s519	False
521.589	0.5	522.317	1.636	AX	1.0	89.0	dot_pattern_expectancy	89.0	0.728	probe	AX	s519	False
523.227	0.5	523.226	0.5	AX	n/a	n/a	dot_pattern_expectancy	-1.0	n/a	cue	AX	s519	False
525.731	0.5	526.536	1.636	AX	1.0	89.0	dot_pattern_expectancy	89.0	0.805	probe	AX	s519	False
527.369	0.5	527.368	0.5	BY	n/a	n/a	dot_pattern_expectancy	-1.0	n/a	cue	BY	s519	False
529.873	0.5	530.655	2.18	BY	1.0	71.0	dot_pattern_expectancy	71.0	0.782	probe	BY	s519	False
532.055	0.5	532.054	0.5	AX	n/a	n/a	dot_pattern_expectancy	-1.0	n/a	cue	AX	s519	False
534.558	0.5	535.293	1.5	AX	1.0	89.0	dot_pattern_expectancy	89.0	0.735	probe	AX	s519	False
536.06	0.5	536.059	0.5	AY	n/a	n/a	dot_pattern_expectancy	-1.0	n/a	cue	AY	s519	False
538.563	0.5	539.459	1.636	AY	1.0	71.0	dot_pattern_expectancy	71.0	0.896	probe	AY	s519	False
540.201	0.5	540.2	0.5	AX	n/a	n/a	dot_pattern_expectancy	-1.0	n/a	cue	AX	s519	False
542.703	0.5	543.493	1.636	AX	1.0	89.0	dot_pattern_expectancy	89.0	0.79	probe	AX	s519	False
554.845	0.5	554.844	0.5	AX	n/a	n/a	dot_pattern_expectancy	-1.0	n/a	cue	AX	s519	False
557.348	0.5	558.029	2.18	AX	1.0	89.0	dot_pattern_expectancy	89.0	0.681	probe	AX	s519	False
559.53	0.5	559.529	0.5	AY	n/a	n/a	dot_pattern_expectancy	-1.0	n/a	cue	AY	s519	False
562.034	0.5	562.777	2.316	AY	1.0	71.0	dot_pattern_expectancy	71.0	0.743	probe	AY	s519	False
564.352	0.5	564.351	0.5	AY	n/a	n/a	dot_pattern_expectancy	-1.0	n/a	cue	AY	s519	False
566.854	0.5	567.67	1.636	AY	1.0	71.0	dot_pattern_expectancy	71.0	0.816	probe	AY	s519	False
568.492	0.5	568.491	0.5	BX	n/a	n/a	dot_pattern_expectancy	-1.0	n/a	cue	BX	s519	False
570.995	0.5	571.782	1.908	BX	1.0	71.0	dot_pattern_expectancy	71.0	0.787	probe	BX	s519	False
572.905	0.5	572.904	0.5	AX	n/a	n/a	dot_pattern_expectancy	-1.0	n/a	cue	AX	s519	False
575.407	0.5	576.128	3.54	AX	1.0	89.0	dot_pattern_expectancy	89.0	0.721	probe	AX	s519	False
578.949	0.5	578.948	0.5	BX	n/a	n/a	dot_pattern_expectancy	-1.0	n/a	cue	BX	s519	False
581.452	0.5	582.331	1.636	BX	1.0	71.0	dot_pattern_expectancy	71.0	0.879	probe	BX	s519	False
583.09	0.5	583.089	0.5	BY	n/a	n/a	dot_pattern_expectancy	-1.0	n/a	cue	BY	s519	False
585.592	0.5	586.36	1.5	BY	1.0	71.0	dot_pattern_expectancy	71.0	0.768	probe	BY	s519	False
587.094	0.5	587.093	0.5	AX	n/a	n/a	dot_pattern_expectancy	-1.0	n/a	cue	AX	s519	False
589.596	0.5	590.417	1.5	AX	1.0	89.0	dot_pattern_expectancy	89.0	0.821	probe	AX	s519	False
591.099	0.5	591.098	0.5	AX	n/a	n/a	dot_pattern_expectancy	-1.0	n/a	cue	AX	s519	False
593.601	0.5	594.358	1.772	AX	1.0	89.0	dot_pattern_expectancy	89.0	0.757	probe	AX	s519	False
595.375	0.5	595.374	0.5	BY	n/a	n/a	dot_pattern_expectancy	-1.0	n/a	cue	BY	s519	False
597.877	0.5	598.631	2.452	BY	1.0	71.0	dot_pattern_expectancy	71.0	0.754	probe	BY	s519	False
600.331	0.5	600.33	0.5	AX	n/a	n/a	dot_pattern_expectancy	-1.0	n/a	cue	AX	s519	False
602.836	0.5	603.639	1.908	AX	1.0	89.0	dot_pattern_expectancy	89.0	0.803	probe	AX	s519	False
604.746	0.5	604.745	0.5	BX	n/a	n/a	dot_pattern_expectancy	-1.0	n/a	cue	BX	s519	False
607.248	0.5	608.074	1.636	BX	1.0	71.0	dot_pattern_expectancy	71.0	0.826	probe	BX	s519	False
608.886	0.5	608.885	0.5	AX	n/a	n/a	dot_pattern_expectancy	-1.0	n/a	cue	AX	s519	False
611.389	0.5	612.15	1.5	AX	1.0	89.0	dot_pattern_expectancy	89.0	0.761	probe	AX	s519	False
612.892	0.5	612.891	0.5	AX	n/a	n/a	dot_pattern_expectancy	-1.0	n/a	cue	AX	s519	False
615.394	0.5	616.175	1.636	AX	1.0	89.0	dot_pattern_expectancy	89.0	0.781	probe	AX	s519	False
617.033	0.5	617.032	0.5	AX	n/a	n/a	dot_pattern_expectancy	-1.0	n/a	cue	AX	s519	False
619.535	0.5	620.341	1.636	AX	1.0	89.0	dot_pattern_expectancy	89.0	0.806	probe	AX	s519	False
621.173	0.5	621.172	0.5	BY	n/a	n/a	dot_pattern_expectancy	-1.0	n/a	cue	BY	s519	False
623.676	0.5	624.453	2.452	BY	1.0	71.0	dot_pattern_expectancy	71.0	0.777	probe	BY	s519	False
626.13	0.5	626.129	0.5	AX	n/a	n/a	dot_pattern_expectancy	-1.0	n/a	cue	AX	s519	False
628.633	0.5	629.422	1.5	AX	1.0	89.0	dot_pattern_expectancy	89.0	0.789	probe	AX	s519	False
630.135	0.5	630.134	0.5	BY	n/a	n/a	dot_pattern_expectancy	-1.0	n/a	cue	BY	s519	False
632.638	0.5	633.641	1.5	BY	1.0	71.0	dot_pattern_expectancy	71.0	1.003	probe	BY	s519	False
634.14	0.5	634.139	0.5	AX	n/a	n/a	dot_pattern_expectancy	-1.0	n/a	cue	AX	s519	False
636.643	0.5	637.405	1.636	AX	1.0	89.0	dot_pattern_expectancy	89.0	0.762	probe	AX	s519	False
638.281	0.5	638.28	0.5	AX	n/a	n/a	dot_pattern_expectancy	-1.0	n/a	cue	AX	s519	False
640.784	0.5	641.46	1.636	AX	1.0	89.0	dot_pattern_expectancy	89.0	0.676	probe	AX	s519	False
642.422	0.5	642.421	0.5	AY	n/a	n/a	dot_pattern_expectancy	-1.0	n/a	cue	AY	s519	False
644.925	0.5	645.726	1.636	AY	1.0	71.0	dot_pattern_expectancy	71.0	0.801	probe	AY	s519	False
646.562	0.5	646.561	0.5	AX	n/a	n/a	dot_pattern_expectancy	-1.0	n/a	cue	AX	s519	False
649.065	0.5	649.771	1.5	AX	1.0	89.0	dot_pattern_expectancy	89.0	0.706	probe	AX	s519	False
650.568	0.5	650.567	0.5	AX	n/a	n/a	dot_pattern_expectancy	-1.0	n/a	cue	AX	s519	False
653.07	0.5	653.821	1.5	AX	1.0	89.0	dot_pattern_expectancy	89.0	0.751	probe	AX	s519	False
654.572	0.5	654.571	0.5	AX	n/a	n/a	dot_pattern_expectancy	-1.0	n/a	cue	AX	s519	False
657.074	0.5	657.851	1.772	AX	1.0	89.0	dot_pattern_expectancy	89.0	0.777	probe	AX	s519	False
658.848	0.5	658.847	0.5	AX	n/a	n/a	dot_pattern_expectancy	-1.0	n/a	cue	AX	s519	False
661.353	0.5	662.154	2.18	AX	1.0	89.0	dot_pattern_expectancy	89.0	0.801	probe	AX	s519	False
663.535	0.5	663.534	0.5	BX	n/a	n/a	dot_pattern_expectancy	-1.0	n/a	cue	BX	s519	False
666.037	0.5	666.819	1.772	BX	1.0	71.0	dot_pattern_expectancy	71.0	0.782	probe	BX	s519	False
667.812	0.5	667.811	0.5	BY	n/a	n/a	dot_pattern_expectancy	-1.0	n/a	cue	BY	s519	False
670.314	0.5	671.141	1.5	BY	1.0	71.0	dot_pattern_expectancy	71.0	0.827	probe	BY	s519	False
671.816	0.5	671.815	0.5	AX	n/a	n/a	dot_pattern_expectancy	-1.0	n/a	cue	AX	s519	False
674.319	0.5	675.117	1.5	AX	1.0	89.0	dot_pattern_expectancy	89.0	0.798	probe	AX	s519	False
675.822	0.5	675.821	0.5	AX	n/a	n/a	dot_pattern_expectancy	-1.0	n/a	cue	AX	s519	False
678.324	0.5	679.084	1.636	AX	1.0	89.0	dot_pattern_expectancy	89.0	0.76	probe	AX	s519	False
679.962	0.5	679.961	0.5	AY	n/a	n/a	dot_pattern_expectancy	-1.0	n/a	cue	AY	s519	False
682.464	0.5	683.275	2.18	AY	1.0	71.0	dot_pattern_expectancy	71.0	0.811	probe	AY	s519	False
684.646	0.5	684.645	0.5	AY	n/a	n/a	dot_pattern_expectancy	-1.0	n/a	cue	AY	s519	False
687.149	0.5	687.939	2.316	AY	1.0	71.0	dot_pattern_expectancy	71.0	0.79	probe	AY	s519	False
689.467	0.5	689.466	0.5	BX	n/a	n/a	dot_pattern_expectancy	-1.0	n/a	cue	BX	s519	False
691.97	0.5	692.734	1.636	BX	1.0	71.0	dot_pattern_expectancy	71.0	0.764	probe	BX	s519	False
693.608	0.5	693.607	0.5	BX	n/a	n/a	dot_pattern_expectancy	-1.0	n/a	cue	BX	s519	False
696.11	0.5	696.988	2.18	BX	1.0	71.0	dot_pattern_expectancy	71.0	0.878	probe	BX	s519	False
698.292	0.5	698.291	0.5	AY	n/a	n/a	dot_pattern_expectancy	-1.0	n/a	cue	AY	s519	False
700.795	0.5	701.597	2.044	AY	1.0	71.0	dot_pattern_expectancy	71.0	0.802	probe	AY	s519	False
702.841	0.5	702.84	0.5	AX	n/a	n/a	dot_pattern_expectancy	-1.0	n/a	cue	AX	s519	False
705.343	0.5	706.183	1.772	AX	1.0	89.0	dot_pattern_expectancy	89.0	0.84	probe	AX	s519	False
707.117	0.5	707.116	0.5	AX	n/a	n/a	dot_pattern_expectancy	-1.0	n/a	cue	AX	s519	False
709.62	0.5	710.41	1.5	AX	1.0	89.0	dot_pattern_expectancy	89.0	0.79	probe	AX	s519	False
711.123	0.5	711.122	0.5	AX	n/a	n/a	dot_pattern_expectancy	-1.0	n/a	cue	AX	s519	False
713.626	0.5	714.397	2.18	AX	1.0	89.0	dot_pattern_expectancy	89.0	0.771	probe	AX	s519	False
715.808	0.5	715.807	0.5	AY	n/a	n/a	dot_pattern_expectancy	-1.0	n/a	cue	AY	s519	False
718.31	0.5	719.076	2.452	AY	1.0	71.0	dot_pattern_expectancy	71.0	0.766	probe	AY	s519	False
720.764	0.5	720.763	0.5	AX	n/a	n/a	dot_pattern_expectancy	-1.0	n/a	cue	AX	s519	False
723.266	0.5	724.066	1.636	AX	1.0	89.0	dot_pattern_expectancy	89.0	0.8	probe	AX	s519	False
724.904	0.5	724.903	0.5	AX	n/a	n/a	dot_pattern_expectancy	-1.0	n/a	cue	AX	s519	False
727.407	0.5	728.405	1.908	AX	1.0	89.0	dot_pattern_expectancy	89.0	0.998	probe	AX	s519	False
