onset	duration	movement_onset	EV	action	block_duration	experiment_exp_id	gain_amount	gain_probability	key_press	loss_amount	loss_probability	num_cards	num_click_in_round	num_loss_cards	risk	response_time	total_cards	trial_id	trial_type	worker_id	junk	feedback
3.007	8.82	11.827	-1.9583788955583827	end_round	8.82	columbia_card_task_fmri	12.0	0.8333333333333334	71.0	-70.0	0.1666666666666666	6.0	1.0	1.0	-2.5115581293456657	8.82	0.0	stim	poldrack-single-stim	s519	False	1
12.581	1.5	11.83	n/a	-1.0	2.318	columbia_card_task_fmri	n/a	n/a	-1.0	n/a	n/a	n/a	n/a	n/a	n/a	n/a	n/a	ITI	poldrack-single-stim	s519	False	0
14.15	7.022	21.172	-1.1250455622250488	draw_card	7.022	columbia_card_task_fmri	14.0	0.8333333333333334	89.0	-75.0	0.1666666666666666	6.0	1.0	1.0	0.0970783448629504	7.022	n/a	stim	poldrack-single-stim	s519	False	1
21.174	2.786	23.96	-4.091712228891716	end_round	2.786	columbia_card_task_fmri	14.0	0.8	71.0	-75.0	0.2	6.0	2.0	1.0	2.5286490623864566	2.786	1.0	stim	poldrack-single-stim	s519	False	1
24.713	1.5	23.962	n/a	-1.0	2.318	columbia_card_task_fmri	n/a	n/a	-1.0	n/a	n/a	n/a	n/a	n/a	n/a	n/a	n/a	ITI	poldrack-single-stim	s519	False	0
26.281	5.624	31.905	0.5416211044416172	draw_card	5.624	columbia_card_task_fmri	15.0	0.8333333333333334	89.0	-70.0	0.1666666666666666	6.0	1.0	1.0	-1.393573277224597	5.624	n/a	stim	poldrack-single-stim	s519	False	1
31.906	5.741	37.647	-2.2917122288917167	draw_card	5.741	columbia_card_task_fmri	15.0	0.8	89.0	-70.0	0.2	6.0	2.0	1.0	0.9287053026605108	5.741	2.0	stim	poldrack-single-stim	s519	False	0
38.401	1.5	37.65	n/a	-1.0	2.862	columbia_card_task_fmri	n/a	n/a	-1.0	n/a	n/a	n/a	n/a	n/a	n/a	n/a	n/a	ITI	poldrack-single-stim	s519	False	0
40.514	2.072	42.586	1.3749544377749512	draw_card	2.072	columbia_card_task_fmri	17.0	0.8333333333333334	89.0	-75.0	0.1666666666666666	6.0	1.0	1.0	1.215070505857092	2.072	n/a	stim	poldrack-single-stim	s519	False	1
42.588	3.899	46.487	-1.6917122288917152	draw_card	3.899	columbia_card_task_fmri	17.0	0.8	89.0	-75.0	0.2	6.0	2.0	1.0	3.7286100913872886	3.899	n/a	stim	poldrack-single-stim	s519	False	1
46.488	0.924	47.412	-6.291712228891717	end_round	0.924	columbia_card_task_fmri	17.0	0.75	71.0	-75.0	0.25	6.0	3.0	1.0	6.7656905214329015	0.924	2.0	stim	poldrack-single-stim	s519	False	1
48.165	1.5	47.414	n/a	-1.0	2.726	columbia_card_task_fmri	n/a	n/a	-1.0	n/a	n/a	n/a	n/a	n/a	n/a	n/a	n/a	ITI	poldrack-single-stim	s519	False	0
50.142	8.376	58.518	2.708287771108284	draw_card	8.376	columbia_card_task_fmri	24.0	0.75	89.0	-60.0	0.25	8.0	1.0	2.0	3.30169062066949	8.376	n/a	stim	poldrack-single-stim	s519	False	1
58.52	0.826	59.346	-0.2917122288917168	end_round	0.826	columbia_card_task_fmri	24.0	0.7142857142857143	71.0	-60.0	0.2857142857142857	8.0	2.0	2.0	4.875907057592713	0.826	1.0	stim	poldrack-single-stim	s519	False	1
60.101	1.5	59.35	n/a	-1.0	2.25	columbia_card_task_fmri	n/a	n/a	-1.0	n/a	n/a	n/a	n/a	n/a	n/a	n/a	n/a	ITI	poldrack-single-stim	s519	False	0
61.601	3.981	65.582	2.708287771108284	draw_card	3.981	columbia_card_task_fmri	29.0	0.75	89.0	-75.0	0.25	8.0	1.0	2.0	11.961719712226175	3.981	n/a	stim	poldrack-single-stim	s519	False	1
65.583	5.127	70.71	-1.0059979431774284	draw_card	5.127	columbia_card_task_fmri	29.0	0.7142857142857143	89.0	-75.0	0.2857142857142857	8.0	2.0	2.0	13.91077047167925	5.127	2.0	stim	poldrack-single-stim	s519	False	0
71.463	1.5	70.712	n/a	-1.0	2.318	columbia_card_task_fmri	n/a	n/a	-1.0	n/a	n/a	n/a	n/a	n/a	n/a	n/a	n/a	ITI	poldrack-single-stim	s519	False	0
73.033	6.458	79.491	-1.5139344511139363	draw_card	6.458	columbia_card_task_fmri	17.0	0.7777777777777778	89.0	-65.0	0.2222222222222222	9.0	1.0	2.0	1.019358165610548	6.458	n/a	stim	poldrack-single-stim	s519	False	1
79.493	3.17	82.663	-3.7917122288917167	end_round	3.17	columbia_card_task_fmri	17.0	0.75	71.0	-65.0	0.25	9.0	2.0	2.0	2.435693746376593	3.17	1.0	stim	poldrack-single-stim	s519	False	1
83.416	1.5	82.665	n/a	-1.0	2.454	columbia_card_task_fmri	n/a	n/a	-1.0	n/a	n/a	n/a	n/a	n/a	n/a	n/a	n/a	ITI	poldrack-single-stim	s519	False	0
85.121	6.364	91.485	2.808287771108283	draw_card	6.364	columbia_card_task_fmri	14.0	0.9	89.0	-95.0	0.1	10.0	1.0	1.0	-0.3712449498675241	6.364	1.0	stim	poldrack-single-stim	s519	False	0
92.238	1.5	91.487	n/a	-1.0	2.522	columbia_card_task_fmri	n/a	n/a	-1.0	n/a	n/a	n/a	n/a	n/a	n/a	n/a	n/a	ITI	poldrack-single-stim	s519	False	0
94.011	13.928	107.939	-1.2917122288917169	draw_card	13.928	columbia_card_task_fmri	15.0	0.8	89.0	-65.0	0.2	10.0	1.0	2.0	-1.071216488675006	13.928	1.0	stim	poldrack-single-stim	s519	False	0
108.693	1.5	107.942	n/a	-1.0	2.318	columbia_card_task_fmri	n/a	n/a	-1.0	n/a	n/a	n/a	n/a	n/a	n/a	n/a	n/a	ITI	poldrack-single-stim	s519	False	0
110.263	11.742	122.005	0.3082877711082846	draw_card	11.742	columbia_card_task_fmri	17.0	0.8	89.0	-65.0	0.2	10.0	1.0	2.0	-0.2712489165901885	11.742	n/a	stim	poldrack-single-stim	s519	False	1
122.008	0.645	122.653	-1.5139344511139363	end_round	0.645	columbia_card_task_fmri	17.0	0.7777777777777778	71.0	-65.0	0.2222222222222222	10.0	2.0	2.0	1.019358165610548	0.645	1.0	stim	poldrack-single-stim	s519	False	1
123.406	1.5	122.655	n/a	-1.0	2.522	columbia_card_task_fmri	n/a	n/a	-1.0	n/a	n/a	n/a	n/a	n/a	n/a	n/a	n/a	ITI	poldrack-single-stim	s519	False	0
125.18	8.769	133.949	-1.1250455622250488	draw_card	8.769	columbia_card_task_fmri	13.0	0.8333333333333334	89.0	-70.0	0.1666666666666666	12.0	1.0	2.0	-2.138896906617472	8.769	n/a	stim	poldrack-single-stim	s519	False	1
133.95	0.589	134.539	-2.38262131980081	end_round	0.589	columbia_card_task_fmri	13.0	0.8181818181818181	71.0	-70.0	0.1818181818181818	12.0	2.0	2.0	-1.0585645567995172	0.589	1.0	stim	poldrack-single-stim	s519	False	1
135.292	1.5	134.541	n/a	-1.0	2.998	columbia_card_task_fmri	n/a	n/a	-1.0	n/a	n/a	n/a	n/a	n/a	n/a	n/a	n/a	ITI	poldrack-single-stim	s519	False	0
137.542	5.836	143.378	-1.1250455622250488	draw_card	5.836	columbia_card_task_fmri	15.0	0.8333333333333334	89.0	-80.0	0.1666666666666666	12.0	1.0	2.0	2.333065308465251	5.836	n/a	stim	poldrack-single-stim	s519	False	1
143.379	0.618	143.997	-2.564439501618992	end_round	0.618	columbia_card_task_fmri	15.0	0.8181818181818181	71.0	-80.0	0.1818181818181818	12.0	2.0	2.0	3.5696028611300434	0.618	1.0	stim	poldrack-single-stim	s519	False	1
144.751	1.5	144.0	n/a	-1.0	2.318	columbia_card_task_fmri	n/a	n/a	-1.0	n/a	n/a	n/a	n/a	n/a	n/a	n/a	n/a	ITI	poldrack-single-stim	s519	False	0
146.321	5.707	152.028	-2.091712228891716	draw_card	5.707	columbia_card_task_fmri	14.0	0.8	89.0	-65.0	0.2	15.0	1.0	3.0	-1.4711996590362126	5.707	n/a	stim	poldrack-single-stim	s519	False	1
152.03	0.416	152.446	-3.220283657463144	end_round	0.416	columbia_card_task_fmri	14.0	0.7857142857142857	71.0	-65.0	0.2142857142857142	15.0	2.0	3.0	-0.6554871780551821	0.416	1.0	stim	poldrack-single-stim	s519	False	1
153.199	1.5	152.448	n/a	-1.0	2.25	columbia_card_task_fmri	n/a	n/a	-1.0	n/a	n/a	n/a	n/a	n/a	n/a	n/a	n/a	ITI	poldrack-single-stim	s519	False	0
154.701	4.788	159.489	-2.1667122288917167	end_round	4.788	columbia_card_task_fmri	1.0	0.9375	71.0	-45.0	0.0625	16.0	1.0	1.0	-21.93389845647203	4.788	0.0	stim	poldrack-single-stim	s519	False	1
160.242	1.5	159.491	n/a	-1.0	2.454	columbia_card_task_fmri	n/a	n/a	-1.0	n/a	n/a	n/a	n/a	n/a	n/a	n/a	n/a	ITI	poldrack-single-stim	s519	False	0
161.947	3.895	165.842	-1.2292122288917169	draw_card	3.895	columbia_card_task_fmri	15.0	0.8125	89.0	-70.0	0.1875	16.0	1.0	3.0	0.1052882276740092	3.895	n/a	stim	poldrack-single-stim	s519	False	1
165.844	0.357	166.201	-2.2917122288917167	end_round	0.357	columbia_card_task_fmri	15.0	0.8	71.0	-70.0	0.2	16.0	2.0	3.0	0.9287053026605108	0.357	1.0	stim	poldrack-single-stim	s519	False	1
166.955	1.5	166.204	n/a	-1.0	2.318	columbia_card_task_fmri	n/a	n/a	-1.0	n/a	n/a	n/a	n/a	n/a	n/a	n/a	n/a	ITI	poldrack-single-stim	s519	False	0
168.526	8.572	177.098	5.708287771108283	draw_card	8.572	columbia_card_task_fmri	30.0	0.7	89.0	-50.0	0.3	10.0	1.0	3.0	3.589220047024355	8.572	n/a	stim	poldrack-single-stim	s519	False	1
177.1	6.04	183.14	3.0416211044416226	draw_card	6.04	columbia_card_task_fmri	30.0	0.6666666666666667	89.0	-50.0	0.3333333333333333	10.0	2.0	3.0	4.64094378452085	6.04	2.0	stim	poldrack-single-stim	s519	False	0
183.893	1.5	183.142	n/a	-1.0	2.318	columbia_card_task_fmri	n/a	n/a	-1.0	n/a	n/a	n/a	n/a	n/a	n/a	n/a	n/a	ITI	poldrack-single-stim	s519	False	0
185.463	7.459	192.922	5.108287771108284	draw_card	7.459	columbia_card_task_fmri	17.0	0.8666666666666667	89.0	-70.0	0.1333333333333333	15.0	1.0	2.0	-3.496794261257829	7.459	n/a	stim	poldrack-single-stim	s519	False	1
192.925	11.05	203.975	4.279716342536856	draw_card	11.05	columbia_card_task_fmri	17.0	0.8571428571428572	89.0	-70.0	0.1428571428571428	15.0	2.0	2.0	-2.6274902882420434	11.05	n/a	stim	poldrack-single-stim	s519	False	1
203.976	8.136	212.112	3.3236723864928983	end_round	8.136	columbia_card_task_fmri	17.0	0.8461538461538461	71.0	-70.0	0.1538461538461538	15.0	3.0	2.0	-1.681485169480858	8.136	2.0	stim	poldrack-single-stim	s519	False	1
212.866	1.5	212.115	n/a	-1.0	2.59	columbia_card_task_fmri	n/a	n/a	-1.0	n/a	n/a	n/a	n/a	n/a	n/a	n/a	n/a	ITI	poldrack-single-stim	s519	False	0
214.707	7.254	221.961	0.3332877711082832	draw_card	7.254	columbia_card_task_fmri	7.0	0.9375	89.0	-95.0	0.0625	16.0	1.0	1.0	-8.380554043983803	7.254	n/a	stim	poldrack-single-stim	s519	False	1
221.963	0.329	222.292	-0.0917122288917166	end_round	0.329	columbia_card_task_fmri	7.0	0.9333333333333332	71.0	-95.0	0.0666666666666666	16.0	2.0	1.0	-7.627603641531085	0.329	1.0	stim	poldrack-single-stim	s519	False	1
223.046	1.5	222.295	n/a	-1.0	2.25	columbia_card_task_fmri	n/a	n/a	-1.0	n/a	n/a	n/a	n/a	n/a	n/a	n/a	n/a	ITI	poldrack-single-stim	s519	False	0
224.549	4.775	229.324	1.8957877711082836	end_round	4.775	columbia_card_task_fmri	9.0	0.9375	71.0	-100.0	0.0625	16.0	1.0	1.0	-6.686234487909665	4.775	0.0	stim	poldrack-single-stim	s519	False	1
230.077	1.5	229.326	n/a	-1.0	2.25	columbia_card_task_fmri	n/a	n/a	-1.0	n/a	n/a	n/a	n/a	n/a	n/a	n/a	n/a	ITI	poldrack-single-stim	s519	False	0
231.579	7.543	239.122	2.833287771108284	draw_card	7.543	columbia_card_task_fmri	15.0	0.875	89.0	-80.0	0.125	16.0	1.0	2.0	-1.652895053610493	7.543	n/a	stim	poldrack-single-stim	s519	False	1
239.124	6.019	245.143	2.0416211044416173	draw_card	6.019	columbia_card_task_fmri	15.0	0.8666666666666667	89.0	-80.0	0.1333333333333333	16.0	2.0	2.0	-0.7774383313374997	6.019	n/a	stim	poldrack-single-stim	s519	False	1
245.146	0.285	245.431	1.136859199679714	end_round	0.285	columbia_card_task_fmri	15.0	0.8571428571428572	71.0	-80.0	0.1428571428571428	16.0	3.0	2.0	0.1718088755851781	0.285	2.0	stim	poldrack-single-stim	s519	False	1
246.185	1.5	245.434	n/a	-1.0	2.522	columbia_card_task_fmri	n/a	n/a	-1.0	n/a	n/a	n/a	n/a	n/a	n/a	n/a	n/a	ITI	poldrack-single-stim	s519	False	0
247.958	7.293	255.251	4.958287771108283	draw_card	7.293	columbia_card_task_fmri	16.0	0.875	89.0	-70.0	0.125	16.0	1.0	2.0	-4.629223565595922	7.293	n/a	stim	poldrack-single-stim	s519	False	1
255.253	0.73	255.983	4.2416211044416166	draw_card	0.73	columbia_card_task_fmri	16.0	0.8666666666666667	89.0	-70.0	0.1333333333333333	16.0	2.0	2.0	-3.836712167879504	0.73	n/a	stim	poldrack-single-stim	s519	False	1
255.986	0.314	256.3	3.422573485393998	end_round	0.314	columbia_card_task_fmri	16.0	0.8571428571428572	71.0	-70.0	0.1428571428571428	16.0	3.0	2.0	-2.977401144340188	0.314	2.0	stim	poldrack-single-stim	s519	False	1
257.053	1.5	256.302	n/a	-1.0	2.454	columbia_card_task_fmri	n/a	n/a	-1.0	n/a	n/a	n/a	n/a	n/a	n/a	n/a	n/a	ITI	poldrack-single-stim	s519	False	0
258.76	7.227	265.987	6.270787771108283	draw_card	7.227	columbia_card_task_fmri	30.0	0.6875	89.0	-45.0	0.3125	16.0	1.0	5.0	1.692108230478155	7.227	n/a	stim	poldrack-single-stim	s519	False	1
265.989	1.043	267.032	4.708287771108287	end_round	1.043	columbia_card_task_fmri	30.0	0.6666666666666667	71.0	-45.0	0.3333333333333333	16.0	2.0	5.0	2.283996391930557	1.043	1.0	stim	poldrack-single-stim	s519	False	1
267.785	1.5	267.034	n/a	-1.0	2.25	columbia_card_task_fmri	n/a	n/a	-1.0	n/a	n/a	n/a	n/a	n/a	n/a	n/a	n/a	ITI	poldrack-single-stim	s519	False	0
269.288	7.509	276.797	-1.9583788955583827	end_round	7.509	columbia_card_task_fmri	13.0	0.8333333333333334	71.0	-75.0	0.1666666666666666	6.0	1.0	1.0	-0.2755850750848054	7.509	0.0	stim	poldrack-single-stim	s519	False	1
277.55	1.5	276.799	n/a	-1.0	2.454	columbia_card_task_fmri	n/a	n/a	-1.0	n/a	n/a	n/a	n/a	n/a	n/a	n/a	n/a	ITI	poldrack-single-stim	s519	False	0
279.255	5.889	285.144	-0.291712228891715	draw_card	5.889	columbia_card_task_fmri	14.0	0.8333333333333334	89.0	-70.0	0.1666666666666666	6.0	1.0	1.0	-1.7662352845460276	5.889	n/a	stim	poldrack-single-stim	s519	False	1
285.145	0.286	285.431	-3.091712228891716	end_round	0.286	columbia_card_task_fmri	14.0	0.8	71.0	-70.0	0.2	6.0	2.0	1.0	0.5287201995916178	0.286	1.0	stim	poldrack-single-stim	s519	False	1
286.184	1.5	285.433	n/a	-1.0	2.454	columbia_card_task_fmri	n/a	n/a	-1.0	n/a	n/a	n/a	n/a	n/a	n/a	n/a	n/a	ITI	poldrack-single-stim	s519	False	0
287.89	6.407	294.297	-0.291712228891715	draw_card	6.407	columbia_card_task_fmri	16.0	0.8333333333333334	89.0	-80.0	0.1666666666666666	6.0	1.0	1.0	2.7057307868923104	6.407	n/a	stim	poldrack-single-stim	s519	False	1
294.299	0.303	294.602	-3.491712228891716	end_round	0.303	columbia_card_task_fmri	16.0	0.8	71.0	-80.0	0.2	6.0	2.0	1.0	5.328561918731552	0.303	1.0	stim	poldrack-single-stim	s519	False	1
295.356	1.5	294.605	n/a	-1.0	2.522	columbia_card_task_fmri	n/a	n/a	-1.0	n/a	n/a	n/a	n/a	n/a	n/a	n/a	n/a	ITI	poldrack-single-stim	s519	False	0
297.13	4.25	301.38	2.208287771108285	draw_card	4.25	columbia_card_task_fmri	17.0	0.8333333333333334	89.0	-70.0	0.1666666666666666	6.0	1.0	1.0	-0.648248159965263	4.25	1.0	stim	poldrack-single-stim	s519	False	0
302.134	1.5	301.383	n/a	-1.0	2.454	columbia_card_task_fmri	n/a	n/a	-1.0	n/a	n/a	n/a	n/a	n/a	n/a	n/a	n/a	ITI	poldrack-single-stim	s519	False	0
303.84	5.973	309.813	2.208287771108284	draw_card	5.973	columbia_card_task_fmri	25.0	0.75	89.0	-65.0	0.25	8.0	1.0	2.0	5.899688851074892	5.973	n/a	stim	poldrack-single-stim	s519	False	1
309.815	12.428	322.243	-1.0059979431774284	draw_card	12.428	columbia_card_task_fmri	25.0	0.7142857142857143	89.0	-65.0	0.2857142857142857	8.0	2.0	2.0	7.586356020167209	12.428	n/a	stim	poldrack-single-stim	s519	False	1
322.245	0.438	322.683	-5.291712228891713	end_round	0.438	columbia_card_task_fmri	25.0	0.6666666666666667	71.0	-65.0	0.3333333333333333	8.0	3.0	2.0	9.354863639171214	0.438	2.0	stim	poldrack-single-stim	s519	False	1
323.438	1.5	322.687	n/a	-1.0	2.658	columbia_card_task_fmri	n/a	n/a	-1.0	n/a	n/a	n/a	n/a	n/a	n/a	n/a	n/a	ITI	poldrack-single-stim	s519	False	0
325.349	5.249	330.598	2.208287771108284	draw_card	5.249	columbia_card_task_fmri	30.0	0.75	89.0	-80.0	0.25	8.0	1.0	2.0	14.55974438992633	5.249	n/a	stim	poldrack-single-stim	s519	False	1
330.599	7.516	338.115	-1.7202836574631402	draw_card	7.516	columbia_card_task_fmri	30.0	0.7142857142857143	89.0	-80.0	0.2857142857142857	8.0	2.0	2.0	16.621244784522936	7.516	n/a	stim	poldrack-single-stim	s519	False	1
338.117	5.527	343.644	-6.958378895558377	draw_card	5.527	columbia_card_task_fmri	30.0	0.6666666666666667	89.0	-80.0	0.3333333333333333	8.0	3.0	2.0	18.782771721031462	5.527	n/a	stim	poldrack-single-stim	s519	False	1
343.647	8.474	352.121	-14.291712228891717	end_round	8.474	columbia_card_task_fmri	30.0	0.6	71.0	-80.0	0.4	8.0	4.0	2.0	20.817017801431632	8.474	3.0	stim	poldrack-single-stim	s519	False	1
352.874	1.5	352.123	n/a	-1.0	2.386	columbia_card_task_fmri	n/a	n/a	-1.0	n/a	n/a	n/a	n/a	n/a	n/a	n/a	n/a	ITI	poldrack-single-stim	s519	False	0
354.512	7.509	362.021	1.9082877711082844	draw_card	7.509	columbia_card_task_fmri	13.0	0.9	89.0	-95.0	0.1	10.0	1.0	1.0	-0.6712329027927382	7.509	n/a	stim	poldrack-single-stim	s519	False	1
362.023	6.294	368.317	0.7082877711082832	end_round	6.294	columbia_card_task_fmri	13.0	0.8888888888888888	71.0	-95.0	0.1111111111111111	10.0	2.0	1.0	0.8698329702025731	6.294	1.0	stim	poldrack-single-stim	s519	False	1
369.07	1.5	368.319	n/a	-1.0	2.522	columbia_card_task_fmri	n/a	n/a	-1.0	n/a	n/a	n/a	n/a	n/a	n/a	n/a	n/a	ITI	poldrack-single-stim	s519	False	0
370.844	6.596	377.44	3.308287771108283	draw_card	6.596	columbia_card_task_fmri	14.0	0.9	89.0	-90.0	0.1	10.0	1.0	1.0	-1.87118239789616	6.596	n/a	stim	poldrack-single-stim	s519	False	1
377.443	7.987	385.43	2.152732215552726	draw_card	7.987	columbia_card_task_fmri	14.0	0.8888888888888888	89.0	-90.0	0.1111111111111111	10.0	2.0	1.0	-0.3871975399575404	7.987	n/a	stim	poldrack-single-stim	s519	False	1
385.433	3.42	388.853	0.7082877711082832	draw_card	3.42	columbia_card_task_fmri	14.0	0.875	89.0	-90.0	0.125	10.0	3.0	1.0	1.323457984161173	3.42	n/a	stim	poldrack-single-stim	s519	False	1
388.855	4.547	393.402	-1.1488550860345723	end_round	4.547	columbia_card_task_fmri	14.0	0.8571428571428572	71.0	-90.0	0.1428571428571428	10.0	4.0	1.0	3.321042075352153	4.547	3.0	stim	poldrack-single-stim	s519	False	1
394.155	1.5	393.404	n/a	-1.0	2.59	columbia_card_task_fmri	n/a	n/a	-1.0	n/a	n/a	n/a	n/a	n/a	n/a	n/a	n/a	ITI	poldrack-single-stim	s519	False	0
395.997	5.938	401.935	-1.491712228891716	draw_card	5.938	columbia_card_task_fmri	16.0	0.8	89.0	-70.0	0.2	10.0	1.0	2.0	1.3286907521507416	5.938	n/a	stim	poldrack-single-stim	s519	False	1
401.937	8.498	410.435	-3.4028233400028274	draw_card	8.498	columbia_card_task_fmri	16.0	0.7777777777777778	89.0	-70.0	0.2222222222222222	10.0	2.0	2.0	2.682258956786661	8.498	n/a	stim	poldrack-single-stim	s519	False	1
410.437	0.318	410.755	-5.791712228891717	end_round	0.318	columbia_card_task_fmri	16.0	0.75	71.0	-70.0	0.25	10.0	3.0	2.0	4.167688821852934	0.318	2.0	stim	poldrack-single-stim	s519	False	1
411.509	1.5	410.758	n/a	-1.0	2.386	columbia_card_task_fmri	n/a	n/a	-1.0	n/a	n/a	n/a	n/a	n/a	n/a	n/a	n/a	ITI	poldrack-single-stim	s519	False	0
413.149	10.256	423.405	-2.2083788955583827	end_round	10.256	columbia_card_task_fmri	7.0	0.9166666666666666	71.0	-100.0	0.0833333333333333	12.0	1.0	1.0	-3.49786967377818	10.256	0.0	stim	poldrack-single-stim	s519	False	1
424.159	1.5	423.408	n/a	-1.0	2.59	columbia_card_task_fmri	n/a	n/a	-1.0	n/a	n/a	n/a	n/a	n/a	n/a	n/a	n/a	ITI	poldrack-single-stim	s519	False	0
426.001	5.637	431.638	-1.958378895558381	draw_card	5.637	columbia_card_task_fmri	14.0	0.8333333333333334	89.0	-80.0	0.1666666666666666	12.0	1.0	2.0	1.960400096361134	5.637	1.0	stim	poldrack-single-stim	s519	False	0
432.392	1.5	431.641	n/a	-1.0	2.318	columbia_card_task_fmri	n/a	n/a	-1.0	n/a	n/a	n/a	n/a	n/a	n/a	n/a	n/a	ITI	poldrack-single-stim	s519	False	0
433.962	7.366	441.328	-0.2917122288917168	draw_card	7.366	columbia_card_task_fmri	15.0	0.8333333333333334	89.0	-75.0	0.1666666666666666	12.0	1.0	2.0	0.4697420887099568	7.366	n/a	stim	poldrack-single-stim	s519	False	1
441.331	7.688	449.019	-1.6553485925280818	draw_card	7.688	columbia_card_task_fmri	15.0	0.8181818181818181	89.0	-75.0	0.1818181818181818	12.0	2.0	2.0	1.6411943301553578	7.688	n/a	stim	poldrack-single-stim	s519	False	1
449.022	0.349	449.371	-3.2917122288917167	end_round	0.349	columbia_card_task_fmri	15.0	0.8	71.0	-75.0	0.2	12.0	3.0	2.0	2.928635783393496	0.349	2.0	stim	poldrack-single-stim	s519	False	1
450.125	1.5	449.374	n/a	-1.0	2.25	columbia_card_task_fmri	n/a	n/a	-1.0	n/a	n/a	n/a	n/a	n/a	n/a	n/a	n/a	ITI	poldrack-single-stim	s519	False	0
451.628	8.071	459.699	-1.2917122288917169	draw_card	8.071	columbia_card_task_fmri	15.0	0.8	89.0	-65.0	0.2	15.0	1.0	3.0	-1.071216488675006	8.071	n/a	stim	poldrack-single-stim	s519	False	1
459.701	1.213	460.914	-2.434569371748859	draw_card	1.213	columbia_card_task_fmri	15.0	0.7857142857142857	89.0	-65.0	0.2142857142857142	15.0	2.0	3.0	-0.2451776809012926	1.213	n/a	stim	poldrack-single-stim	s519	False	1
460.917	9.165	470.082	-3.75325069043018	end_round	9.165	columbia_card_task_fmri	15.0	0.7692307692307692	71.0	-65.0	0.2307692307692307	15.0	3.0	3.0	0.6347197561201057	9.165	2.0	stim	poldrack-single-stim	s519	False	1
470.836	1.5	470.085	n/a	-1.0	2.454	columbia_card_task_fmri	n/a	n/a	-1.0	n/a	n/a	n/a	n/a	n/a	n/a	n/a	n/a	ITI	poldrack-single-stim	s519	False	0
472.544	11.548	484.092	-2.0417122288917167	draw_card	11.548	columbia_card_task_fmri	14.0	0.8125	89.0	-70.0	0.1875	16.0	1.0	3.0	-0.285008880593061	11.548	n/a	stim	poldrack-single-stim	s519	False	1
484.097	0.479	484.576	-3.091712228891716	draw_card	0.479	columbia_card_task_fmri	14.0	0.8	89.0	-70.0	0.2	16.0	2.0	3.0	0.5287201995916178	0.479	n/a	stim	poldrack-single-stim	s519	False	1
484.579	0.391	484.97	-4.291712228891717	end_round	0.391	columbia_card_task_fmri	14.0	0.7857142857142857	71.0	-70.0	0.2142857142857142	16.0	3.0	3.0	1.396064213727506	0.391	2.0	stim	poldrack-single-stim	s519	False	1
485.724	1.5	484.973	n/a	-1.0	3.27	columbia_card_task_fmri	n/a	n/a	-1.0	n/a	n/a	n/a	n/a	n/a	n/a	n/a	n/a	ITI	poldrack-single-stim	s519	False	0
488.247	7.847	496.094	-2.1042122288917167	draw_card	7.847	columbia_card_task_fmri	11.0	0.6875	89.0	-30.0	0.3125	16.0	1.0	5.0	-14.066298698418713	7.847	n/a	stim	poldrack-single-stim	s519	False	1
496.096	0.325	496.421	-2.9583788955583827	end_round	0.325	columbia_card_task_fmri	11.0	0.6666666666666667	71.0	-30.0	0.3333333333333333	16.0	2.0	5.0	-13.742759445604449	0.325	1.0	stim	poldrack-single-stim	s519	False	1
497.176	1.5	496.425	n/a	-1.0	2.25	columbia_card_task_fmri	n/a	n/a	-1.0	n/a	n/a	n/a	n/a	n/a	n/a	n/a	n/a	ITI	poldrack-single-stim	s519	False	0
498.679	8.321	507.0	2.708287771108284	draw_card	8.321	columbia_card_task_fmri	15.0	0.8666666666666667	89.0	-75.0	0.1333333333333333	15.0	1.0	2.0	-2.477038311199916	8.321	n/a	stim	poldrack-single-stim	s519	False	1
507.003	4.056	511.059	1.8511449139654277	draw_card	4.056	columbia_card_task_fmri	15.0	0.8571428571428572	89.0	-75.0	0.1428571428571428	15.0	2.0	2.0	-1.577755553422282	4.056	n/a	stim	poldrack-single-stim	s519	False	1
511.062	5.74	516.802	0.8621339249544365	draw_card	5.74	columbia_card_task_fmri	15.0	0.8461538461538461	89.0	-75.0	0.1538461538461538	15.0	3.0	2.0	-0.5991267123229704	5.74	n/a	stim	poldrack-single-stim	s519	False	1
516.804	5.456	522.26	-0.2917122288917168	draw_card	5.456	columbia_card_task_fmri	15.0	0.8333333333333334	89.0	-75.0	0.1666666666666666	15.0	4.0	2.0	0.4697420887099568	5.456	4.0	stim	poldrack-single-stim	s519	False	0
523.015	1.5	522.264	n/a	-1.0	2.25	columbia_card_task_fmri	n/a	n/a	-1.0	n/a	n/a	n/a	n/a	n/a	n/a	n/a	n/a	ITI	poldrack-single-stim	s519	False	0
524.517	6.79	531.307	4.441621104441618	draw_card	6.79	columbia_card_task_fmri	17.0	0.8666666666666667	89.0	-75.0	0.1333333333333333	15.0	1.0	2.0	-1.797199273862443	6.79	n/a	stim	poldrack-single-stim	s519	False	1
531.31	3.828	535.138	3.5654306282511428	draw_card	3.828	columbia_card_task_fmri	17.0	0.8571428571428572	89.0	-75.0	0.1428571428571428	15.0	2.0	2.0	-0.8779307091739241	3.828	n/a	stim	poldrack-single-stim	s519	False	1
535.141	4.089	539.23	2.55444161726213	draw_card	4.089	columbia_card_task_fmri	17.0	0.8461538461538461	89.0	-75.0	0.1538461538461538	15.0	3.0	2.0	0.1224472292981673	4.089	n/a	stim	poldrack-single-stim	s519	False	1
539.233	2.652	541.885	1.3749544377749512	draw_card	2.652	columbia_card_task_fmri	17.0	0.8333333333333334	89.0	-75.0	0.1666666666666666	15.0	4.0	2.0	1.215070505857092	2.652	n/a	stim	poldrack-single-stim	s519	False	1
541.888	8.255	550.143	-0.0189849561644451	draw_card	8.255	columbia_card_task_fmri	17.0	0.8181818181818181	89.0	-75.0	0.1818181818181818	15.0	5.0	2.0	2.4125569011708947	8.255	n/a	stim	poldrack-single-stim	s519	False	1
550.145	2.377	552.522	-1.6917122288917152	draw_card	2.377	columbia_card_task_fmri	17.0	0.8	89.0	-75.0	0.2	15.0	6.0	2.0	3.7286100913872886	2.377	n/a	stim	poldrack-single-stim	s519	False	1
552.526	7.627	560.153	-3.7361566733361578	end_round	7.627	columbia_card_task_fmri	17.0	0.7777777777777778	71.0	-75.0	0.2222222222222222	15.0	7.0	2.0	5.176619607359946	7.627	6.0	stim	poldrack-single-stim	s519	False	1
560.906	1.5	560.155	n/a	-1.0	2.318	columbia_card_task_fmri	n/a	n/a	-1.0	n/a	n/a	n/a	n/a	n/a	n/a	n/a	n/a	ITI	poldrack-single-stim	s519	False	0
562.478	10.753	573.231	0.0207877711082832	draw_card	10.753	columbia_card_task_fmri	2.0	0.9375	89.0	-25.0	0.0625	16.0	1.0	1.0	-26.530379795787702	10.753	n/a	stim	poldrack-single-stim	s519	False	1
573.234	5.402	578.636	-0.0917122288917168	end_round	5.402	columbia_card_task_fmri	2.0	0.9333333333333332	71.0	-25.0	0.0666666666666666	16.0	2.0	1.0	-26.331248286717077	5.402	1.0	stim	poldrack-single-stim	s519	False	1
579.389	1.5	578.638	n/a	-1.0	2.726	columbia_card_task_fmri	n/a	n/a	-1.0	n/a	n/a	n/a	n/a	n/a	n/a	n/a	n/a	ITI	poldrack-single-stim	s519	False	0
581.369	14.385	595.754	2.208287771108284	draw_card	14.385	columbia_card_task_fmri	9.0	0.9375	89.0	-95.0	0.0625	16.0	1.0	1.0	-7.896464262122603	14.385	n/a	stim	poldrack-single-stim	s519	False	1
595.757	3.785	599.542	1.7749544377749509	draw_card	3.785	columbia_card_task_fmri	9.0	0.9333333333333332	89.0	-95.0	0.0666666666666666	16.0	2.0	1.0	-7.128748145886121	3.785	n/a	stim	poldrack-single-stim	s519	False	1
599.545	7.028	606.573	1.2797163425368554	draw_card	7.028	columbia_card_task_fmri	9.0	0.9285714285714286	89.0	-95.0	0.0714285714285714	16.0	3.0	1.0	-6.286862389233747	7.028	n/a	stim	poldrack-single-stim	s519	False	1
606.576	4.611	611.187	0.7082877711082832	draw_card	4.611	columbia_card_task_fmri	9.0	0.9230769230769232	89.0	-95.0	0.0769230769230769	16.0	4.0	1.0	-5.358197888714891	4.611	n/a	stim	poldrack-single-stim	s519	False	1
611.19	2.536	613.726	0.0416211044416171	end_round	2.536	columbia_card_task_fmri	9.0	0.9166666666666666	71.0	-95.0	0.0833333333333333	16.0	5.0	1.0	-4.326984372551351	2.536	4.0	stim	poldrack-single-stim	s519	False	1
614.481	1.5	613.73	n/a	-1.0	2.386	columbia_card_task_fmri	n/a	n/a	-1.0	n/a	n/a	n/a	n/a	n/a	n/a	n/a	n/a	ITI	poldrack-single-stim	s519	False	0
616.121	8.148	624.269	3.7707877711082833	draw_card	8.148	columbia_card_task_fmri	11.0	0.9375	89.0	-100.0	0.0625	16.0	1.0	1.0	-6.202140622905571	8.148	n/a	stim	poldrack-single-stim	s519	False	1
624.271	1.178	625.449	3.308287771108284	draw_card	1.178	columbia_card_task_fmri	11.0	0.9333333333333332	89.0	-100.0	0.0666666666666666	16.0	2.0	1.0	-5.382744786597694	1.178	n/a	stim	poldrack-single-stim	s519	False	1
625.453	1.366	626.819	2.7797163425368563	draw_card	1.366	columbia_card_task_fmri	11.0	0.9285714285714286	89.0	-100.0	0.0714285714285714	16.0	3.0	1.0	-4.48418692229372	1.366	n/a	stim	poldrack-single-stim	s519	False	1
626.822	2.865	629.687	2.169826232646746	draw_card	2.865	columbia_card_task_fmri	11.0	0.9230769230769232	89.0	-100.0	0.0769230769230769	16.0	4.0	1.0	-3.49300921802013	2.865	n/a	stim	poldrack-single-stim	s519	False	1
629.69	1.151	630.841	1.4582877711082831	draw_card	1.151	columbia_card_task_fmri	11.0	0.9166666666666666	89.0	-100.0	0.0833333333333333	16.0	5.0	1.0	-2.3923799196022277	1.151	n/a	stim	poldrack-single-stim	s519	False	1
630.844	1.334	632.178	0.6173786801991915	draw_card	1.334	columbia_card_task_fmri	11.0	0.9090909090909092	89.0	-100.0	0.0909090909090909	16.0	6.0	1.0	-1.160956360531543	1.334	n/a	stim	poldrack-single-stim	s519	False	1
632.18	2.626	634.806	-0.3917122288917164	draw_card	2.626	columbia_card_task_fmri	11.0	0.9	89.0	-100.0	0.1	16.0	7.0	1.0	0.2287316071380942	2.626	n/a	stim	poldrack-single-stim	s519	False	1
634.81	2.623	637.433	-1.6250455622250506	end_round	2.623	columbia_card_task_fmri	11.0	0.8888888888888888	71.0	-100.0	0.1111111111111111	16.0	8.0	1.0	1.8126081329941783	2.623	7.0	stim	poldrack-single-stim	s519	False	1
638.187	1.5	637.436	n/a	-1.0	2.318	columbia_card_task_fmri	n/a	n/a	-1.0	n/a	n/a	n/a	n/a	n/a	n/a	n/a	n/a	ITI	poldrack-single-stim	s519	False	0
639.758	5.184	644.942	4.333287771108283	draw_card	5.184	columbia_card_task_fmri	16.0	0.875	89.0	-75.0	0.125	16.0	1.0	2.0	-2.975711185992882	5.184	n/a	stim	poldrack-single-stim	s519	False	1
644.944	3.075	648.019	3.5749544377749505	draw_card	3.075	columbia_card_task_fmri	16.0	0.8666666666666667	89.0	-75.0	0.1333333333333333	16.0	2.0	2.0	-2.13711895862528	3.075	n/a	stim	poldrack-single-stim	s519	False	1
648.022	0.609	648.631	2.708287771108285	draw_card	0.609	columbia_card_task_fmri	16.0	0.8571428571428572	89.0	-75.0	0.1428571428571428	16.0	3.0	2.0	-1.2278432926504443	0.609	n/a	stim	poldrack-single-stim	s519	False	1
648.634	2.538	651.172	1.7082877711082831	draw_card	2.538	columbia_card_task_fmri	16.0	0.8461538461538461	89.0	-75.0	0.1538461538461538	16.0	4.0	2.0	-0.2383398980029483	2.538	n/a	stim	poldrack-single-stim	s519	False	1
651.175	0.292	651.467	0.5416211044416172	end_round	0.292	columbia_card_task_fmri	16.0	0.8333333333333334	71.0	-75.0	0.1666666666666666	16.0	5.0	2.0	0.8424061457790017	0.292	4.0	stim	poldrack-single-stim	s519	False	1
652.222	1.5	651.471	n/a	-1.0	2.25	columbia_card_task_fmri	n/a	n/a	-1.0	n/a	n/a	n/a	n/a	n/a	n/a	n/a	n/a	ITI	poldrack-single-stim	s519	False	0
653.726	4.928	658.654	4.583287771108283	draw_card	4.928	columbia_card_task_fmri	17.0	0.875	89.0	-80.0	0.125	16.0	1.0	2.0	-0.9914851466146076	4.928	n/a	stim	poldrack-single-stim	s519	False	1
658.656	2.164	660.82	3.774954437774952	draw_card	2.164	columbia_card_task_fmri	17.0	0.8666666666666667	89.0	-80.0	0.1333333333333333	16.0	2.0	2.0	-0.0975962267810572	2.164	n/a	stim	poldrack-single-stim	s519	False	1
660.824	0.51	661.334	2.851144913965429	draw_card	0.51	columbia_card_task_fmri	17.0	0.8571428571428572	89.0	-80.0	0.1428571428571428	16.0	3.0	2.0	0.8716366994866576	0.51	n/a	stim	poldrack-single-stim	s519	False	1
661.337	6.155	667.492	1.78521084803136	draw_card	6.155	columbia_card_task_fmri	17.0	0.8461538461538461	89.0	-80.0	0.1538461538461538	16.0	4.0	2.0	1.9263872217511064	6.155	n/a	stim	poldrack-single-stim	s519	False	1
667.495	5.34	672.835	0.5416211044416189	draw_card	5.34	columbia_card_task_fmri	17.0	0.8333333333333334	89.0	-80.0	0.1666666666666666	16.0	5.0	2.0	3.0783965234060773	5.34	n/a	stim	poldrack-single-stim	s519	False	1
672.839	6.919	679.758	-0.9280758652553552	draw_card	6.919	columbia_card_task_fmri	17.0	0.8181818181818181	89.0	-80.0	0.1818181818181818	16.0	6.0	2.0	4.340968135536855	6.919	n/a	stim	poldrack-single-stim	s519	False	1
679.761	2.767	682.528	-2.6917122288917152	draw_card	2.767	columbia_card_task_fmri	17.0	0.8	89.0	-80.0	0.2	16.0	7.0	2.0	5.728550496322377	2.767	n/a	stim	poldrack-single-stim	s519	False	1
682.531	0.429	682.96	-4.847267784447272	end_round	0.429	columbia_card_task_fmri	17.0	0.7777777777777778	71.0	-80.0	0.2222222222222222	16.0	8.0	2.0	7.255260816553324	0.429	7.0	stim	poldrack-single-stim	s519	False	1
683.716	1.5	682.965	n/a	-1.0	2.25	columbia_card_task_fmri	n/a	n/a	-1.0	n/a	n/a	n/a	n/a	n/a	n/a	n/a	n/a	ITI	poldrack-single-stim	s519	False	0
