onset	duration	block_duration	choice	experiment_exp_id	key_press	large_amount	later_delay	response_time	small_amount	trial_id	trial_type	worker_id	junk
3.006	4.0	4.636	larger_later	discount_fixed	89	67.0	74.0	1.134	20.0	n/a	larger_later	s524	False
7.645	4.0	5.316	larger_later	discount_fixed	89	29.0	58.0	0.925	20.0	n/a	larger_later	s524	False
12.963	4.0	4.976	larger_later	discount_fixed	89	39.0	104.0	1.114	20.0	n/a	larger_later	s524	False
17.942	4.0	4.568	larger_later	discount_fixed	89	33.0	103.0	1.108	20.0	n/a	larger_later	s524	False
22.512	4.0	5.52	larger_later	discount_fixed	89	33.0	78.0	0.887	20.0	n/a	larger_later	s524	False
28.034	4.0	5.588	larger_later	discount_fixed	89	74.0	52.0	3.808	20.0	n/a	larger_later	s524	False
31.872	4.0	5.792	larger_later	discount_fixed	89	28.0	132.0	0.556	20.0	n/a	larger_later	s524	False
37.666	4.0	4.568	larger_later	discount_fixed	89	28.0	59.0	0.97	20.0	n/a	larger_later	s524	False
42.236	4.0	5.112	larger_later	discount_fixed	89	28.0	163.0	0.752	20.0	n/a	larger_later	s524	False
47.35	4.0	4.5	larger_later	discount_fixed	89	32.0	74.0	1.367	20.0	n/a	larger_later	s524	False
51.852	4.0	4.84	larger_later	discount_fixed	89	57.0	89.0	0.812	20.0	n/a	larger_later	s524	False
56.693	4.0	4.568	larger_later	discount_fixed	89	70.0	108.0	0.887	20.0	n/a	larger_later	s524	False
61.263	4.0	5.384	larger_later	discount_fixed	89	72.0	95.0	0.656	20.0	n/a	larger_later	s524	False
66.649	4.0	5.044	larger_later	discount_fixed	89	30.0	36.0	1.105	20.0	n/a	larger_later	s524	False
71.695	4.0	4.704	false	discount_fixed	-1	41.0	129.0	n/a	20.0	n/a	false	s524	False
76.401	4.0	4.908	false	discount_fixed	-1	78.0	129.0	n/a	20.0	n/a	false	s524	False
81.312	4.0	4.908	larger_later	discount_fixed	89	71.0	88.0	0.023	20.0	n/a	larger_later	s524	False
86.222	4.0	4.84	larger_later	discount_fixed	89	65.0	159.0	0.459	20.0	n/a	larger_later	s524	False
91.064	4.0	5.112	larger_later	discount_fixed	89	24.0	125.0	0.535	20.0	n/a	larger_later	s524	False
96.178	4.0	5.112	larger_later	discount_fixed	89	58.0	36.0	0.592	20.0	n/a	larger_later	s524	False
101.293	4.0	4.704	larger_later	discount_fixed	89	63.0	37.0	3.38	20.0	n/a	larger_later	s524	False
105.999	4.0	4.84	larger_later	discount_fixed	89	75.0	41.0	0.793	20.0	n/a	larger_later	s524	False
110.841	4.0	4.84	larger_later	discount_fixed	89	45.0	72.0	2.244	20.0	n/a	larger_later	s524	False
115.684	4.0	6.88	larger_later	discount_fixed	89	25.0	74.0	0.62	20.0	n/a	larger_later	s524	False
122.566	4.0	4.568	larger_later	discount_fixed	89	65.0	137.0	0.849	20.0	n/a	larger_later	s524	False
127.136	4.0	4.772	larger_later	discount_fixed	89	49.0	140.0	0.449	20.0	n/a	larger_later	s524	False
131.911	4.0	7.016	larger_later	discount_fixed	89	67.0	103.0	0.657	20.0	n/a	larger_later	s524	False
138.929	4.0	4.704	smaller_sooner	discount_fixed	71	69.0	172.0	1.848	20.0	n/a	smaller_sooner	s524	False
143.635	4.0	5.18	larger_later	discount_fixed	89	66.0	71.0	1.276	20.0	n/a	larger_later	s524	False
148.817	4.0	5.044	larger_later	discount_fixed	89	71.0	176.0	1.008	20.0	n/a	larger_later	s524	False
153.863	4.0	5.316	larger_later	discount_fixed	89	31.0	76.0	1.699	20.0	n/a	larger_later	s524	False
159.181	4.0	4.568	larger_later	discount_fixed	89	43.0	19.0	0.854	20.0	n/a	larger_later	s524	False
163.751	4.0	4.636	larger_later	discount_fixed	89	60.0	124.0	1.676	20.0	n/a	larger_later	s524	False
168.388	4.0	4.908	larger_later	discount_fixed	89	27.0	142.0	1.075	20.0	n/a	larger_later	s524	False
173.298	4.0	4.5	larger_later	discount_fixed	89	25.0	70.0	3.517	20.0	n/a	larger_later	s524	False
177.8	4.0	4.976	larger_later	discount_fixed	89	44.0	92.0	0.739	20.0	n/a	larger_later	s524	False
182.778	4.0	4.908	larger_later	discount_fixed	89	41.0	27.0	1.457	20.0	n/a	larger_later	s524	False
187.688	4.0	4.568	larger_later	discount_fixed	89	64.0	89.0	2.327	20.0	n/a	larger_later	s524	False
192.259	4.0	4.5	larger_later	discount_fixed	89	78.0	108.0	0.813	20.0	n/a	larger_later	s524	False
196.761	4.0	6.2	larger_later	discount_fixed	89	80.0	145.0	5.101	20.0	n/a	larger_later	s524	False
202.963	4.0	4.704	larger_later	discount_fixed	89	41.0	174.0	0.576	20.0	n/a	larger_later	s524	False
207.67	4.0	5.044	larger_later	discount_fixed	89	42.0	145.0	0.949	20.0	n/a	larger_later	s524	False
212.716	4.0	5.044	larger_later	discount_fixed	89	36.0	114.0	0.883	20.0	n/a	larger_later	s524	False
217.764	4.0	5.18	larger_later	discount_fixed	89	58.0	55.0	1.094	20.0	n/a	larger_later	s524	False
222.946	4.0	4.976	larger_later	discount_fixed	89	81.0	58.0	3.817	20.0	n/a	larger_later	s524	False
227.924	4.0	4.772	larger_later	discount_fixed	89	32.0	111.0	0.866	20.0	n/a	larger_later	s524	False
232.697	4.0	4.772	larger_later	discount_fixed	89	25.0	141.0	3.072	20.0	n/a	larger_later	s524	False
237.472	4.0	5.18	larger_later	discount_fixed	89	67.0	23.0	0.741	20.0	n/a	larger_later	s524	False
242.653	4.0	5.18	larger_later	discount_fixed	89	77.0	161.0	0.819	20.0	n/a	larger_later	s524	False
247.836	4.0	5.248	larger_later	discount_fixed	89	55.0	163.0	0.769	20.0	n/a	larger_later	s524	False
253.086	4.0	4.568	larger_later	discount_fixed	89	40.0	159.0	1.938	20.0	n/a	larger_later	s524	False
257.656	4.0	4.5	larger_later	discount_fixed	89	76.0	161.0	1.227	20.0	n/a	larger_later	s524	False
262.158	4.0	4.908	false	discount_fixed	-1	48.0	128.0	n/a	20.0	n/a	false	s524	False
267.068	4.0	4.568	false	discount_fixed	-1	39.0	95.0	n/a	20.0	n/a	false	s524	False
271.638	4.0	6.2	larger_later	discount_fixed	89	83.0	105.0	2.858	20.0	n/a	larger_later	s524	False
277.84	4.0	4.908	larger_later	discount_fixed	89	67.0	41.0	3.84	20.0	n/a	larger_later	s524	False
282.751	4.0	5.248	larger_later	discount_fixed	89	56.0	172.0	0.539	20.0	n/a	larger_later	s524	False
288.0	4.0	5.044	false	discount_fixed	-1	28.0	123.0	n/a	20.0	n/a	false	s524	False
293.046	4.0	4.636	larger_later	discount_fixed	89	50.0	129.0	0.78	20.0	n/a	larger_later	s524	False
297.684	4.0	4.704	larger_later	discount_fixed	89	23.0	61.0	0.462	20.0	n/a	larger_later	s524	False
302.391	4.0	4.636	false	discount_fixed	-1	79.0	92.0	n/a	20.0	n/a	false	s524	False
315.532	4.0	4.568	larger_later	discount_fixed	89	61.0	141.0	1.928	20.0	n/a	larger_later	s524	False
320.101	4.0	4.568	larger_later	discount_fixed	89	43.0	38.0	0.407	20.0	n/a	larger_later	s524	False
324.671	4.0	4.908	larger_later	discount_fixed	89	66.0	145.0	0.616	20.0	n/a	larger_later	s524	False
329.581	4.0	4.84	false	discount_fixed	-1	30.0	23.0	n/a	20.0	n/a	false	s524	False
334.423	4.0	5.248	larger_later	discount_fixed	89	32.0	57.0	0.858	20.0	n/a	larger_later	s524	False
339.673	4.0	4.772	larger_later	discount_fixed	89	27.0	91.0	0.672	20.0	n/a	larger_later	s524	False
344.447	4.0	5.996	larger_later	discount_fixed	89	43.0	120.0	4.468	20.0	n/a	larger_later	s524	False
350.445	4.0	5.588	larger_later	discount_fixed	89	75.0	60.0	0.502	20.0	n/a	larger_later	s524	False
356.035	4.0	4.568	false	discount_fixed	-1	34.0	176.0	n/a	20.0	n/a	false	s524	False
360.606	4.0	5.112	larger_later	discount_fixed	89	24.0	38.0	4.511	20.0	n/a	larger_later	s524	False
365.72	4.0	5.656	larger_later	discount_fixed	89	82.0	74.0	0.618	20.0	n/a	larger_later	s524	False
371.379	4.0	4.568	false	discount_fixed	-1	58.0	53.0	n/a	20.0	n/a	false	s524	False
375.949	4.0	4.772	false	discount_fixed	-1	54.0	23.0	n/a	20.0	n/a	false	s524	False
380.724	4.0	5.044	false	discount_fixed	-1	41.0	55.0	n/a	20.0	n/a	false	s524	False
385.769	4.0	4.84	false	discount_fixed	-1	77.0	142.0	n/a	20.0	n/a	false	s524	False
390.611	4.0	5.18	false	discount_fixed	-1	25.0	108.0	n/a	20.0	n/a	false	s524	False
395.793	4.0	5.044	larger_later	discount_fixed	89	33.0	163.0	3.962	20.0	n/a	larger_later	s524	False
400.84	4.0	4.976	larger_later	discount_fixed	89	29.0	75.0	0.669	20.0	n/a	larger_later	s524	False
405.818	4.0	4.976	larger_later	discount_fixed	89	45.0	157.0	0.569	20.0	n/a	larger_later	s524	False
410.796	4.0	5.316	larger_later	discount_fixed	89	31.0	74.0	0.558	20.0	n/a	larger_later	s524	False
416.114	4.0	4.5	larger_later	discount_fixed	89	80.0	39.0	4.006	20.0	n/a	larger_later	s524	False
420.617	4.0	5.044	false	discount_fixed	-1	22.0	21.0	n/a	20.0	n/a	false	s524	False
425.662	4.0	4.704	false	discount_fixed	-1	52.0	139.0	n/a	20.0	n/a	false	s524	False
430.369	4.0	4.84	false	discount_fixed	-1	54.0	126.0	n/a	20.0	n/a	false	s524	False
435.211	4.0	6.744	false	discount_fixed	-1	23.0	176.0	n/a	20.0	n/a	false	s524	False
441.957	4.0	4.5	false	discount_fixed	-1	24.0	87.0	n/a	20.0	n/a	false	s524	False
446.46	4.0	4.568	false	discount_fixed	-1	36.0	140.0	n/a	20.0	n/a	false	s524	False
451.03	4.0	4.704	larger_later	discount_fixed	89	35.0	171.0	0.193	20.0	n/a	larger_later	s524	False
455.736	4.0	4.908	larger_later	discount_fixed	89	34.0	43.0	4.354	20.0	n/a	larger_later	s524	False
460.647	4.0	4.568	larger_later	discount_fixed	89	74.0	121.0	1.702	20.0	n/a	larger_later	s524	False
465.217	4.0	4.772	false	discount_fixed	-1	45.0	107.0	n/a	20.0	n/a	false	s524	False
469.99	4.0	4.636	false	discount_fixed	-1	77.0	24.0	n/a	20.0	n/a	false	s524	False
474.629	4.0	4.568	false	discount_fixed	-1	39.0	161.0	n/a	20.0	n/a	false	s524	False
479.199	4.0	5.452	false	discount_fixed	-1	62.0	180.0	n/a	20.0	n/a	false	s524	False
484.653	4.0	5.384	larger_later	discount_fixed	89	24.0	139.0	3.531	20.0	n/a	larger_later	s524	False
490.039	4.0	4.568	larger_later	discount_fixed	89	58.0	72.0	0.53	20.0	n/a	larger_later	s524	False
494.609	4.0	6.268	false	discount_fixed	-1	56.0	93.0	n/a	20.0	n/a	false	s524	False
500.879	4.0	5.52	false	discount_fixed	-1	45.0	26.0	n/a	20.0	n/a	false	s524	False
506.401	4.0	4.568	false	discount_fixed	-1	23.0	42.0	n/a	20.0	n/a	false	s524	False
510.97	4.0	4.636	false	discount_fixed	-1	50.0	41.0	n/a	20.0	n/a	false	s524	False
515.609	4.0	4.636	false	discount_fixed	-1	25.0	176.0	n/a	20.0	n/a	false	s524	False
520.247	4.0	5.112	false	discount_fixed	-1	54.0	22.0	n/a	20.0	n/a	false	s524	False
525.361	4.0	5.316	false	discount_fixed	-1	29.0	44.0	n/a	20.0	n/a	false	s524	False
530.68	4.0	4.568	false	discount_fixed	-1	24.0	89.0	n/a	20.0	n/a	false	s524	False
535.25	4.0	4.568	false	discount_fixed	-1	23.0	77.0	n/a	20.0	n/a	false	s524	False
539.82	4.0	4.568	false	discount_fixed	-1	27.0	130.0	n/a	20.0	n/a	false	s524	False
544.391	4.0	4.84	larger_later	discount_fixed	89	23.0	134.0	3.188	20.0	n/a	larger_later	s524	False
549.234	4.0	4.5	larger_later	discount_fixed	89	55.0	107.0	1.075	20.0	n/a	larger_later	s524	False
553.736	4.0	5.656	false	discount_fixed	-1	44.0	143.0	n/a	20.0	n/a	false	s524	False
559.393	4.0	4.908	larger_later	discount_fixed	89	23.0	110.0	4.15	20.0	n/a	larger_later	s524	False
564.303	4.0	4.636	larger_later	discount_fixed	89	65.0	156.0	0.766	20.0	n/a	larger_later	s524	False
568.942	4.0	4.5	false	discount_fixed	-1	22.0	27.0	n/a	20.0	n/a	false	s524	False
573.444	4.0	4.5	false	discount_fixed	-1	50.0	59.0	n/a	20.0	n/a	false	s524	False
577.946	4.0	5.112	larger_later	discount_fixed	89	85.0	129.0	4.081	20.0	n/a	larger_later	s524	False
583.061	4.0	6.132	larger_later	discount_fixed	89	66.0	58.0	0.642	20.0	n/a	larger_later	s524	False
589.195	4.0	4.84	larger_later	discount_fixed	89	49.0	172.0	3.223	20.0	n/a	larger_later	s524	False
594.037	4.0	4.568	larger_later	discount_fixed	89	73.0	44.0	0.447	20.0	n/a	larger_later	s524	False
598.607	4.0	4.704	larger_later	discount_fixed	89	58.0	73.0	0.414	20.0	n/a	larger_later	s524	False
603.312	4.0	5.86	larger_later	discount_fixed	89	71.0	76.0	0.552	20.0	n/a	larger_later	s524	False
