duration	onset	block_duration	movement_onset	planning	condition	exp_stage	experiment_exp_id	key_press	problem_id	response_time	trial_id	trial_type	worker_id	junk
3.855	3.007	3.855	6.862	1	UA_with_intermediate	practice	ward_and_allport	71	0.0	3.855	to_hand	poldrack-single-stim	s524	False
0.1	6.864	0.419	7.283	0	UA_with_intermediate	practice	ward_and_allport	82	0.0	0.419	to_board	poldrack-single-stim	s524	False
0.1	7.286	0.679	7.965	0	UA_with_intermediate	practice	ward_and_allport	71	0.0	0.679	to_hand	poldrack-single-stim	s524	False
0.1	7.967	0.337	8.304	0	UA_with_intermediate	practice	ward_and_allport	89	0.0	0.337	to_board	poldrack-single-stim	s524	False
0.1	8.306	0.706	9.012	0	UA_with_intermediate	practice	ward_and_allport	82	0.0	0.706	to_hand	poldrack-single-stim	s524	False
0.1	9.014	0.357	9.371	0	UA_with_intermediate	practice	ward_and_allport	89	0.0	0.357	to_board	poldrack-single-stim	s524	False
1.0	9.374	2.5	9.373	0	UA_with_intermediate	practice	ward_and_allport	-1	0.0	n/a	feedback	poldrack-single-stim	s524	False
2.788	11.877	2.788	14.665	1	UA_with_intermediate	practice	ward_and_allport	89	1.0	2.788	to_hand	poldrack-single-stim	s524	False
0.1	14.667	0.307	14.974	0	UA_with_intermediate	practice	ward_and_allport	82	1.0	0.307	to_board	poldrack-single-stim	s524	False
0.1	14.977	0.328	15.305	0	UA_with_intermediate	practice	ward_and_allport	71	1.0	0.328	to_hand	poldrack-single-stim	s524	False
0.1	15.306	0.31	15.616	0	UA_with_intermediate	practice	ward_and_allport	89	1.0	0.31	to_board	poldrack-single-stim	s524	False
0.1	15.617	0.519	16.136	0	UA_with_intermediate	practice	ward_and_allport	82	1.0	0.519	to_hand	poldrack-single-stim	s524	False
0.1	16.138	0.219	16.357	0	UA_with_intermediate	practice	ward_and_allport	89	1.0	0.219	to_board	poldrack-single-stim	s524	False
1.0	16.359	2.1	16.358	0	UA_with_intermediate	practice	ward_and_allport	-1	1.0	n/a	feedback	poldrack-single-stim	s524	False
2.949	18.46	2.949	21.409	1	UA_without_intermediate	practice	ward_and_allport	82	2.0	2.949	to_hand	poldrack-single-stim	s524	False
0.1	21.411	0.308	21.719	0	UA_without_intermediate	practice	ward_and_allport	89	2.0	0.308	to_board	poldrack-single-stim	s524	False
0.1	21.724	0.311	22.035	0	UA_without_intermediate	practice	ward_and_allport	71	2.0	0.311	to_hand	poldrack-single-stim	s524	False
0.1	22.035	0.316	22.351	0	UA_without_intermediate	practice	ward_and_allport	89	2.0	0.316	to_board	poldrack-single-stim	s524	False
0.1	22.353	0.334	22.687	0	UA_without_intermediate	practice	ward_and_allport	71	2.0	0.334	to_hand	poldrack-single-stim	s524	False
0.1	22.688	0.326	23.014	0	UA_without_intermediate	practice	ward_and_allport	89	2.0	0.326	to_board	poldrack-single-stim	s524	False
1.0	23.017	2.2	23.016	0	UA_without_intermediate	practice	ward_and_allport	-1	2.0	n/a	feedback	poldrack-single-stim	s524	False
3.156	25.219	3.156	28.375	1	UA_without_intermediate	practice	ward_and_allport	71	3.0	3.156	to_hand	poldrack-single-stim	s524	False
0.1	28.375	0.299	28.674	0	UA_without_intermediate	practice	ward_and_allport	89	3.0	0.299	to_board	poldrack-single-stim	s524	False
0.1	28.676	0.32	28.996	0	UA_without_intermediate	practice	ward_and_allport	82	3.0	0.32	to_hand	poldrack-single-stim	s524	False
0.1	28.997	0.269	29.266	0	UA_without_intermediate	practice	ward_and_allport	89	3.0	0.269	to_board	poldrack-single-stim	s524	False
0.1	29.268	0.255	29.523	0	UA_without_intermediate	practice	ward_and_allport	71	3.0	0.255	to_hand	poldrack-single-stim	s524	False
0.1	29.525	0.269	29.794	0	UA_without_intermediate	practice	ward_and_allport	89	3.0	0.269	to_board	poldrack-single-stim	s524	False
1.0	29.797	2.0	29.796	0	UA_without_intermediate	practice	ward_and_allport	-1	3.0	n/a	feedback	poldrack-single-stim	s524	False
4.077	33.802	4.077	37.879	1	PA_with_intermediate	test	ward_and_allport	89	0.0	4.077	to_hand	poldrack-single-stim	s524	False
0.1	37.881	0.285	38.166	0	PA_with_intermediate	test	ward_and_allport	71	0.0	0.285	to_board	poldrack-single-stim	s524	False
0.1	38.168	1.09	39.258	0	PA_with_intermediate	test	ward_and_allport	89	0.0	1.09	to_hand	poldrack-single-stim	s524	False
0.1	39.259	0.275	39.534	0	PA_with_intermediate	test	ward_and_allport	82	0.0	0.275	to_board	poldrack-single-stim	s524	False
0.1	39.536	0.591	40.127	0	PA_with_intermediate	test	ward_and_allport	71	0.0	0.591	to_hand	poldrack-single-stim	s524	False
0.1	40.128	0.234	40.362	0	PA_with_intermediate	test	ward_and_allport	89	0.0	0.234	to_board	poldrack-single-stim	s524	False
1.0	40.365	4.176	40.364	0	PA_with_intermediate	test	ward_and_allport	-1	0.0	n/a	feedback	poldrack-single-stim	s524	False
3.13	44.544	3.13	47.674	1	PA_with_intermediate	test	ward_and_allport	71	1.0	3.13	to_hand	poldrack-single-stim	s524	False
0.1	47.676	0.332	48.008	0	PA_with_intermediate	test	ward_and_allport	89	1.0	0.332	to_board	poldrack-single-stim	s524	False
0.1	48.011	0.496	48.507	0	PA_with_intermediate	test	ward_and_allport	71	1.0	0.496	to_hand	poldrack-single-stim	s524	False
0.1	48.508	0.492	49.0	0	PA_with_intermediate	test	ward_and_allport	82	1.0	0.492	to_board	poldrack-single-stim	s524	False
0.1	49.003	0.293	49.296	0	PA_with_intermediate	test	ward_and_allport	89	1.0	0.293	to_hand	poldrack-single-stim	s524	False
0.1	49.297	0.273	49.57	0	PA_with_intermediate	test	ward_and_allport	71	1.0	0.273	to_board	poldrack-single-stim	s524	False
1.0	49.573	3.36	49.572	0	PA_with_intermediate	test	ward_and_allport	-1	1.0	n/a	feedback	poldrack-single-stim	s524	False
3.134	52.937	3.134	56.071	1	PA_with_intermediate	test	ward_and_allport	71	2.0	3.134	to_hand	poldrack-single-stim	s524	False
0.1	56.071	0.316	56.387	0	PA_with_intermediate	test	ward_and_allport	82	2.0	0.316	to_board	poldrack-single-stim	s524	False
0.1	56.39	0.314	56.704	0	PA_with_intermediate	test	ward_and_allport	71	2.0	0.314	to_hand	poldrack-single-stim	s524	False
0.1	56.706	0.286	56.992	0	PA_with_intermediate	test	ward_and_allport	89	2.0	0.286	to_board	poldrack-single-stim	s524	False
0.1	56.994	0.322	57.316	0	PA_with_intermediate	test	ward_and_allport	82	2.0	0.322	to_hand	poldrack-single-stim	s524	False
0.1	57.317	0.274	57.591	0	PA_with_intermediate	test	ward_and_allport	89	2.0	0.274	to_board	poldrack-single-stim	s524	False
1.0	57.595	2.0	57.594	0	PA_with_intermediate	test	ward_and_allport	-1	2.0	n/a	feedback	poldrack-single-stim	s524	False
3.032	59.598	3.032	62.63	1	PA_without_intermediate	test	ward_and_allport	89	3.0	3.032	to_hand	poldrack-single-stim	s524	False
0.1	62.631	0.317	62.948	0	PA_without_intermediate	test	ward_and_allport	82	3.0	0.317	to_board	poldrack-single-stim	s524	False
0.1	62.951	0.304	63.255	0	PA_without_intermediate	test	ward_and_allport	89	3.0	0.304	to_hand	poldrack-single-stim	s524	False
0.1	63.256	0.304	63.56	0	PA_without_intermediate	test	ward_and_allport	82	3.0	0.304	to_board	poldrack-single-stim	s524	False
0.1	63.563	0.307	63.87	0	PA_without_intermediate	test	ward_and_allport	89	3.0	0.307	to_hand	poldrack-single-stim	s524	False
0.1	63.871	0.295	64.166	0	PA_without_intermediate	test	ward_and_allport	71	3.0	0.295	to_board	poldrack-single-stim	s524	False
1.0	64.17	2.408	64.169	0	PA_without_intermediate	test	ward_and_allport	-1	3.0	n/a	feedback	poldrack-single-stim	s524	False
4.038	66.581	4.038	70.619	1	PA_with_intermediate	test	ward_and_allport	71	4.0	4.038	to_hand	poldrack-single-stim	s524	False
0.1	70.621	0.269	70.89	0	PA_with_intermediate	test	ward_and_allport	89	4.0	0.269	to_board	poldrack-single-stim	s524	False
0.1	70.893	0.326	71.219	0	PA_with_intermediate	test	ward_and_allport	71	4.0	0.326	to_hand	poldrack-single-stim	s524	False
0.1	71.22	0.316	71.536	0	PA_with_intermediate	test	ward_and_allport	82	4.0	0.316	to_board	poldrack-single-stim	s524	False
0.1	71.539	0.294	71.833	0	PA_with_intermediate	test	ward_and_allport	89	4.0	0.294	to_hand	poldrack-single-stim	s524	False
0.1	71.834	0.27	72.104	0	PA_with_intermediate	test	ward_and_allport	71	4.0	0.27	to_board	poldrack-single-stim	s524	False
1.0	72.109	2.816	72.108	0	PA_with_intermediate	test	ward_and_allport	-1	4.0	n/a	feedback	poldrack-single-stim	s524	False
3.114	74.927	3.114	78.041	1	PA_without_intermediate	test	ward_and_allport	89	5.0	3.114	to_hand	poldrack-single-stim	s524	False
0.1	78.043	0.277	78.32	0	PA_without_intermediate	test	ward_and_allport	71	5.0	0.277	to_board	poldrack-single-stim	s524	False
0.1	78.324	0.285	78.609	0	PA_without_intermediate	test	ward_and_allport	89	5.0	0.285	to_hand	poldrack-single-stim	s524	False
0.1	78.61	0.269	78.879	0	PA_without_intermediate	test	ward_and_allport	71	5.0	0.269	to_board	poldrack-single-stim	s524	False
0.1	78.882	0.283	79.165	0	PA_without_intermediate	test	ward_and_allport	89	5.0	0.283	to_hand	poldrack-single-stim	s524	False
0.1	79.167	0.435	79.602	0	PA_without_intermediate	test	ward_and_allport	82	5.0	0.435	to_board	poldrack-single-stim	s524	False
1.0	79.606	3.088	79.605	0	PA_without_intermediate	test	ward_and_allport	-1	5.0	n/a	feedback	poldrack-single-stim	s524	False
3.139	82.697	3.139	85.836	1	PA_without_intermediate	test	ward_and_allport	82	6.0	3.139	to_hand	poldrack-single-stim	s524	False
0.1	85.838	0.297	86.135	0	PA_without_intermediate	test	ward_and_allport	71	6.0	0.297	to_board	poldrack-single-stim	s524	False
0.1	86.138	0.295	86.433	0	PA_without_intermediate	test	ward_and_allport	82	6.0	0.295	to_hand	poldrack-single-stim	s524	False
0.1	86.434	0.281	86.715	0	PA_without_intermediate	test	ward_and_allport	89	6.0	0.281	to_board	poldrack-single-stim	s524	False
0.1	86.719	0.361	87.08	0	PA_without_intermediate	test	ward_and_allport	82	6.0	0.361	to_hand	poldrack-single-stim	s524	False
0.1	87.081	0.829	87.91	0	PA_without_intermediate	test	ward_and_allport	71	6.0	0.829	to_board	poldrack-single-stim	s524	False
1.0	87.914	2.136	87.913	0	PA_without_intermediate	test	ward_and_allport	-1	6.0	n/a	feedback	poldrack-single-stim	s524	False
2.603	90.054	2.603	92.657	1	PA_without_intermediate	test	ward_and_allport	71	7.0	2.603	to_hand	poldrack-single-stim	s524	False
0.1	92.659	0.246	92.905	0	PA_without_intermediate	test	ward_and_allport	89	7.0	0.246	to_board	poldrack-single-stim	s524	False
0.1	92.909	0.263	93.172	0	PA_without_intermediate	test	ward_and_allport	71	7.0	0.263	to_hand	poldrack-single-stim	s524	False
0.1	93.173	0.277	93.45	0	PA_without_intermediate	test	ward_and_allport	89	7.0	0.277	to_board	poldrack-single-stim	s524	False
0.1	93.454	0.28	93.734	0	PA_without_intermediate	test	ward_and_allport	71	7.0	0.28	to_hand	poldrack-single-stim	s524	False
0.1	93.735	0.254	93.989	0	PA_without_intermediate	test	ward_and_allport	82	7.0	0.254	to_board	poldrack-single-stim	s524	False
1.0	93.994	7.168	93.993	0	PA_without_intermediate	test	ward_and_allport	-1	7.0	n/a	feedback	poldrack-single-stim	s524	False
3.218	101.166	3.218	104.384	1	PA_without_intermediate	test	ward_and_allport	82	8.0	3.218	to_hand	poldrack-single-stim	s524	False
0.1	104.386	0.302	104.688	0	PA_without_intermediate	test	ward_and_allport	89	8.0	0.302	to_board	poldrack-single-stim	s524	False
0.1	104.692	0.259	104.951	0	PA_without_intermediate	test	ward_and_allport	82	8.0	0.259	to_hand	poldrack-single-stim	s524	False
0.1	104.952	0.267	105.219	0	PA_without_intermediate	test	ward_and_allport	89	8.0	0.267	to_board	poldrack-single-stim	s524	False
0.1	105.223	0.275	105.498	0	PA_without_intermediate	test	ward_and_allport	82	8.0	0.275	to_hand	poldrack-single-stim	s524	False
0.1	105.5	0.238	105.738	0	PA_without_intermediate	test	ward_and_allport	71	8.0	0.238	to_board	poldrack-single-stim	s524	False
1.0	105.742	2.816	105.741	0	PA_without_intermediate	test	ward_and_allport	-1	8.0	n/a	feedback	poldrack-single-stim	s524	False
2.889	108.562	2.889	111.451	1	PA_with_intermediate	test	ward_and_allport	71	9.0	2.889	to_hand	poldrack-single-stim	s524	False
0.1	111.452	0.253	111.705	0	PA_with_intermediate	test	ward_and_allport	89	9.0	0.253	to_board	poldrack-single-stim	s524	False
0.1	111.708	0.275	111.983	0	PA_with_intermediate	test	ward_and_allport	71	9.0	0.275	to_hand	poldrack-single-stim	s524	False
0.1	111.984	0.264	112.248	0	PA_with_intermediate	test	ward_and_allport	82	9.0	0.264	to_board	poldrack-single-stim	s524	False
0.1	112.252	0.235	112.487	0	PA_with_intermediate	test	ward_and_allport	89	9.0	0.235	to_hand	poldrack-single-stim	s524	False
0.1	112.488	0.256	112.744	0	PA_with_intermediate	test	ward_and_allport	82	9.0	0.256	to_board	poldrack-single-stim	s524	False
1.0	112.749	2.952	112.748	0	PA_with_intermediate	test	ward_and_allport	-1	9.0	n/a	feedback	poldrack-single-stim	s524	False
3.203	115.705	3.203	118.908	1	PA_with_intermediate	test	ward_and_allport	82	10.0	3.203	to_hand	poldrack-single-stim	s524	False
0.1	118.909	0.291	119.2	0	PA_with_intermediate	test	ward_and_allport	71	10.0	0.291	to_board	poldrack-single-stim	s524	False
0.1	119.206	0.274	119.48	0	PA_with_intermediate	test	ward_and_allport	82	10.0	0.274	to_hand	poldrack-single-stim	s524	False
0.1	119.481	0.27	119.751	0	PA_with_intermediate	test	ward_and_allport	89	10.0	0.27	to_board	poldrack-single-stim	s524	False
0.1	119.756	0.3	120.056	0	PA_with_intermediate	test	ward_and_allport	71	10.0	0.3	to_hand	poldrack-single-stim	s524	False
0.1	120.057	0.322	120.379	0	PA_with_intermediate	test	ward_and_allport	89	10.0	0.322	to_board	poldrack-single-stim	s524	False
1.0	120.384	2.136	120.383	0	PA_with_intermediate	test	ward_and_allport	-1	10.0	n/a	feedback	poldrack-single-stim	s524	False
3.849	122.525	3.849	126.374	1	PA_without_intermediate	test	ward_and_allport	71	11.0	3.849	to_hand	poldrack-single-stim	s524	False
0.1	126.376	0.266	126.642	0	PA_without_intermediate	test	ward_and_allport	89	11.0	0.266	to_board	poldrack-single-stim	s524	False
0.1	126.648	0.252	126.9	0	PA_without_intermediate	test	ward_and_allport	71	11.0	0.252	to_hand	poldrack-single-stim	s524	False
0.1	126.902	0.255	127.157	0	PA_without_intermediate	test	ward_and_allport	82	11.0	0.255	to_board	poldrack-single-stim	s524	False
0.1	127.163	0.262	127.425	0	PA_without_intermediate	test	ward_and_allport	71	11.0	0.262	to_hand	poldrack-single-stim	s524	False
0.1	127.427	0.239	127.666	0	PA_without_intermediate	test	ward_and_allport	89	11.0	0.239	to_board	poldrack-single-stim	s524	False
1.0	127.672	2.68	127.671	0	PA_without_intermediate	test	ward_and_allport	-1	11.0	n/a	feedback	poldrack-single-stim	s524	False
2.801	130.357	2.801	133.158	1	PA_without_intermediate	test	ward_and_allport	82	12.0	2.801	to_hand	poldrack-single-stim	s524	False
0.1	133.16	0.243	133.403	0	PA_without_intermediate	test	ward_and_allport	89	12.0	0.243	to_board	poldrack-single-stim	s524	False
0.1	133.409	0.304	133.713	0	PA_without_intermediate	test	ward_and_allport	82	12.0	0.304	to_hand	poldrack-single-stim	s524	False
0.1	133.714	0.252	133.966	0	PA_without_intermediate	test	ward_and_allport	71	12.0	0.252	to_board	poldrack-single-stim	s524	False
0.1	133.972	0.313	134.285	0	PA_without_intermediate	test	ward_and_allport	82	12.0	0.313	to_hand	poldrack-single-stim	s524	False
0.1	134.287	0.249	134.536	0	PA_without_intermediate	test	ward_and_allport	89	12.0	0.249	to_board	poldrack-single-stim	s524	False
1.0	134.542	3.088	134.541	0	PA_without_intermediate	test	ward_and_allport	-1	12.0	n/a	feedback	poldrack-single-stim	s524	False
3.05	137.635	3.05	140.685	1	PA_with_intermediate	test	ward_and_allport	71	13.0	3.05	to_hand	poldrack-single-stim	s524	False
0.1	140.686	0.476	141.162	0	PA_with_intermediate	test	ward_and_allport	82	13.0	0.476	to_board	poldrack-single-stim	s524	False
0.1	141.167	0.302	141.469	0	PA_with_intermediate	test	ward_and_allport	71	13.0	0.302	to_hand	poldrack-single-stim	s524	False
0.1	141.471	0.247	141.718	0	PA_with_intermediate	test	ward_and_allport	89	13.0	0.247	to_board	poldrack-single-stim	s524	False
0.1	141.724	0.256	141.98	0	PA_with_intermediate	test	ward_and_allport	82	13.0	0.256	to_hand	poldrack-single-stim	s524	False
0.1	141.983	0.225	142.208	0	PA_with_intermediate	test	ward_and_allport	71	13.0	0.225	to_board	poldrack-single-stim	s524	False
1.0	142.213	2.0	142.212	0	PA_with_intermediate	test	ward_and_allport	-1	13.0	n/a	feedback	poldrack-single-stim	s524	False
2.775	144.218	2.775	146.993	1	PA_without_intermediate	test	ward_and_allport	71	14.0	2.775	to_hand	poldrack-single-stim	s524	False
0.1	146.995	0.299	147.294	0	PA_without_intermediate	test	ward_and_allport	82	14.0	0.299	to_board	poldrack-single-stim	s524	False
0.1	147.299	0.266	147.565	0	PA_without_intermediate	test	ward_and_allport	71	14.0	0.266	to_hand	poldrack-single-stim	s524	False
0.1	147.566	0.276	147.842	0	PA_without_intermediate	test	ward_and_allport	89	14.0	0.276	to_board	poldrack-single-stim	s524	False
0.1	147.848	0.482	148.33	0	PA_without_intermediate	test	ward_and_allport	71	14.0	0.482	to_hand	poldrack-single-stim	s524	False
0.1	148.33	0.249	148.579	0	PA_without_intermediate	test	ward_and_allport	82	14.0	0.249	to_board	poldrack-single-stim	s524	False
1.0	148.585	2.0	148.584	0	PA_without_intermediate	test	ward_and_allport	-1	14.0	n/a	feedback	poldrack-single-stim	s524	False
3.315	155.591	3.315	158.906	1	PA_without_intermediate	test	ward_and_allport	89	15.0	3.315	to_hand	poldrack-single-stim	s524	False
0.1	158.908	0.298	159.206	0	PA_without_intermediate	test	ward_and_allport	71	15.0	0.298	to_board	poldrack-single-stim	s524	False
0.1	159.212	0.257	159.469	0	PA_without_intermediate	test	ward_and_allport	89	15.0	0.257	to_hand	poldrack-single-stim	s524	False
0.1	159.47	0.261	159.731	0	PA_without_intermediate	test	ward_and_allport	82	15.0	0.261	to_board	poldrack-single-stim	s524	False
0.1	159.736	0.234	159.97	0	PA_without_intermediate	test	ward_and_allport	89	15.0	0.234	to_hand	poldrack-single-stim	s524	False
0.1	159.972	0.224	160.196	0	PA_without_intermediate	test	ward_and_allport	71	15.0	0.224	to_board	poldrack-single-stim	s524	False
1.0	160.201	2.0	160.2	0	PA_without_intermediate	test	ward_and_allport	-1	15.0	n/a	feedback	poldrack-single-stim	s524	False
2.626	162.206	2.626	164.832	1	PA_with_intermediate	test	ward_and_allport	82	16.0	2.626	to_hand	poldrack-single-stim	s524	False
0.1	164.834	0.229	165.063	0	PA_with_intermediate	test	ward_and_allport	89	16.0	0.229	to_board	poldrack-single-stim	s524	False
0.1	165.069	0.27	165.339	0	PA_with_intermediate	test	ward_and_allport	82	16.0	0.27	to_hand	poldrack-single-stim	s524	False
0.1	165.34	0.252	165.592	0	PA_with_intermediate	test	ward_and_allport	71	16.0	0.252	to_board	poldrack-single-stim	s524	False
0.1	165.598	0.23	165.828	0	PA_with_intermediate	test	ward_and_allport	89	16.0	0.23	to_hand	poldrack-single-stim	s524	False
0.1	165.829	0.21	166.039	0	PA_with_intermediate	test	ward_and_allport	71	16.0	0.21	to_board	poldrack-single-stim	s524	False
1.0	166.045	2.544	166.044	0	PA_with_intermediate	test	ward_and_allport	-1	16.0	n/a	feedback	poldrack-single-stim	s524	False
2.38	168.594	2.38	170.974	1	PA_without_intermediate	test	ward_and_allport	71	17.0	2.38	to_hand	poldrack-single-stim	s524	False
0.1	170.976	0.268	171.244	0	PA_without_intermediate	test	ward_and_allport	89	17.0	0.268	to_board	poldrack-single-stim	s524	False
0.1	171.249	0.249	171.498	0	PA_without_intermediate	test	ward_and_allport	71	17.0	0.249	to_hand	poldrack-single-stim	s524	False
0.1	171.5	0.29	171.79	0	PA_without_intermediate	test	ward_and_allport	82	17.0	0.29	to_board	poldrack-single-stim	s524	False
0.1	171.796	0.227	172.023	0	PA_without_intermediate	test	ward_and_allport	71	17.0	0.227	to_hand	poldrack-single-stim	s524	False
0.1	172.025	0.221	172.246	0	PA_without_intermediate	test	ward_and_allport	89	17.0	0.221	to_board	poldrack-single-stim	s524	False
1.0	172.251	2.272	172.25	0	PA_without_intermediate	test	ward_and_allport	-1	17.0	n/a	feedback	poldrack-single-stim	s524	False
3.009	174.53	3.009	177.539	1	PA_with_intermediate	test	ward_and_allport	71	18.0	3.009	to_hand	poldrack-single-stim	s524	False
0.1	177.54	0.25	177.79	0	PA_with_intermediate	test	ward_and_allport	89	18.0	0.25	to_board	poldrack-single-stim	s524	False
0.1	177.8	0.237	178.037	0	PA_with_intermediate	test	ward_and_allport	71	18.0	0.237	to_hand	poldrack-single-stim	s524	False
0.1	178.038	0.26	178.298	0	PA_with_intermediate	test	ward_and_allport	82	18.0	0.26	to_board	poldrack-single-stim	s524	False
0.1	178.306	0.227	178.533	0	PA_with_intermediate	test	ward_and_allport	89	18.0	0.227	to_hand	poldrack-single-stim	s524	False
0.1	178.534	0.254	178.788	0	PA_with_intermediate	test	ward_and_allport	82	18.0	0.254	to_board	poldrack-single-stim	s524	False
1.0	178.794	4.04	178.793	0	PA_with_intermediate	test	ward_and_allport	-1	18.0	n/a	feedback	poldrack-single-stim	s524	False
2.349	182.84	2.349	185.189	1	PA_with_intermediate	test	ward_and_allport	89	19.0	2.349	to_hand	poldrack-single-stim	s524	False
0.1	185.19	0.3	185.49	0	PA_with_intermediate	test	ward_and_allport	82	19.0	0.3	to_board	poldrack-single-stim	s524	False
0.1	185.497	0.291	185.788	0	PA_with_intermediate	test	ward_and_allport	89	19.0	0.291	to_hand	poldrack-single-stim	s524	False
0.1	185.789	0.254	186.043	0	PA_with_intermediate	test	ward_and_allport	71	19.0	0.254	to_board	poldrack-single-stim	s524	False
0.1	186.051	0.271	186.322	0	PA_with_intermediate	test	ward_and_allport	82	19.0	0.271	to_hand	poldrack-single-stim	s524	False
0.1	186.324	0.212	186.536	0	PA_with_intermediate	test	ward_and_allport	89	19.0	0.212	to_board	poldrack-single-stim	s524	False
1.0	186.544	2.272	186.543	0	PA_with_intermediate	test	ward_and_allport	-1	19.0	n/a	feedback	poldrack-single-stim	s524	False
2.086	188.823	2.086	190.909	1	PA_with_intermediate	test	ward_and_allport	89	20.0	2.086	to_hand	poldrack-single-stim	s524	False
0.1	190.91	0.261	191.171	0	PA_with_intermediate	test	ward_and_allport	82	20.0	0.261	to_board	poldrack-single-stim	s524	False
0.1	191.18	0.23	191.41	0	PA_with_intermediate	test	ward_and_allport	89	20.0	0.23	to_hand	poldrack-single-stim	s524	False
0.1	191.412	0.259	191.671	0	PA_with_intermediate	test	ward_and_allport	71	20.0	0.259	to_board	poldrack-single-stim	s524	False
0.1	191.676	2.56	194.236	0	PA_with_intermediate	test	ward_and_allport	82	20.0	2.56	to_hand	poldrack-single-stim	s524	False
0.1	194.237	0.15	194.387	0	PA_with_intermediate	test	ward_and_allport	89	20.0	0.15	to_board	poldrack-single-stim	s524	False
1.0	194.394	2.136	194.393	0	PA_with_intermediate	test	ward_and_allport	-1	20.0	n/a	feedback	poldrack-single-stim	s524	False
3.18	196.535	3.18	199.715	1	PA_with_intermediate	test	ward_and_allport	71	21.0	3.18	to_hand	poldrack-single-stim	s524	False
0.1	199.716	0.263	199.979	0	PA_with_intermediate	test	ward_and_allport	82	21.0	0.263	to_board	poldrack-single-stim	s524	False
0.1	199.987	0.248	200.235	0	PA_with_intermediate	test	ward_and_allport	71	21.0	0.248	to_hand	poldrack-single-stim	s524	False
0.1	200.235	0.25	200.485	0	PA_with_intermediate	test	ward_and_allport	89	21.0	0.25	to_board	poldrack-single-stim	s524	False
0.1	200.49	0.39	200.88	0	PA_with_intermediate	test	ward_and_allport	82	21.0	0.39	to_hand	poldrack-single-stim	s524	False
0.1	200.881	0.174	201.055	0	PA_with_intermediate	test	ward_and_allport	89	21.0	0.174	to_board	poldrack-single-stim	s524	False
1.0	201.063	2.0	201.062	0	PA_with_intermediate	test	ward_and_allport	-1	21.0	n/a	feedback	poldrack-single-stim	s524	False
4.51	203.07	4.51	207.58	1	PA_with_intermediate	test	ward_and_allport	89	22.0	4.51	to_hand	poldrack-single-stim	s524	False
0.1	207.581	0.246	207.827	0	PA_with_intermediate	test	ward_and_allport	71	22.0	0.246	to_board	poldrack-single-stim	s524	False
0.1	207.833	0.777	208.61	0	PA_with_intermediate	test	ward_and_allport	89	22.0	0.777	to_hand	poldrack-single-stim	s524	False
0.1	208.611	0.288	208.899	0	PA_with_intermediate	test	ward_and_allport	82	22.0	0.288	to_board	poldrack-single-stim	s524	False
0.1	208.906	0.319	209.225	0	PA_with_intermediate	test	ward_and_allport	71	22.0	0.319	to_hand	poldrack-single-stim	s524	False
0.1	209.226	0.286	209.512	0	PA_with_intermediate	test	ward_and_allport	82	22.0	0.286	to_board	poldrack-single-stim	s524	False
1.0	209.52	2.0	209.519	0	PA_with_intermediate	test	ward_and_allport	-1	22.0	n/a	feedback	poldrack-single-stim	s524	False
2.747	211.527	2.747	214.274	1	PA_without_intermediate	test	ward_and_allport	82	23.0	2.747	to_hand	poldrack-single-stim	s524	False
0.1	214.276	0.221	214.497	0	PA_without_intermediate	test	ward_and_allport	71	23.0	0.221	to_board	poldrack-single-stim	s524	False
0.1	214.505	0.279	214.784	0	PA_without_intermediate	test	ward_and_allport	82	23.0	0.279	to_hand	poldrack-single-stim	s524	False
0.1	214.785	0.328	215.113	0	PA_without_intermediate	test	ward_and_allport	71	23.0	0.328	to_board	poldrack-single-stim	s524	False
0.1	215.121	0.607	215.728	0	PA_without_intermediate	test	ward_and_allport	82	23.0	0.607	to_hand	poldrack-single-stim	s524	False
0.1	215.73	0.268	215.998	0	PA_without_intermediate	test	ward_and_allport	89	23.0	0.268	to_board	poldrack-single-stim	s524	False
1.0	216.007	2.408	216.006	0	PA_without_intermediate	test	ward_and_allport	-1	23.0	n/a	feedback	poldrack-single-stim	s524	False
2.88	218.423	2.88	221.303	1	PA_with_intermediate	test	ward_and_allport	89	24.0	2.88	to_hand	poldrack-single-stim	s524	False
0.1	221.305	0.279	221.584	0	PA_with_intermediate	test	ward_and_allport	82	24.0	0.279	to_board	poldrack-single-stim	s524	False
0.1	221.592	0.684	222.276	0	PA_with_intermediate	test	ward_and_allport	89	24.0	0.684	to_hand	poldrack-single-stim	s524	False
0.1	222.277	0.246	222.523	0	PA_with_intermediate	test	ward_and_allport	71	24.0	0.246	to_board	poldrack-single-stim	s524	False
0.1	222.532	0.439	222.971	0	PA_with_intermediate	test	ward_and_allport	82	24.0	0.439	to_hand	poldrack-single-stim	s524	False
0.1	222.972	0.19	223.162	0	PA_with_intermediate	test	ward_and_allport	71	24.0	0.19	to_board	poldrack-single-stim	s524	False
1.0	223.17	3.768	223.169	0	PA_with_intermediate	test	ward_and_allport	-1	24.0	n/a	feedback	poldrack-single-stim	s524	False
3.589	226.947	3.589	230.536	1	PA_with_intermediate	test	ward_and_allport	89	25.0	3.589	to_hand	poldrack-single-stim	s524	False
0.1	230.537	0.245	230.782	0	PA_with_intermediate	test	ward_and_allport	82	25.0	0.245	to_board	poldrack-single-stim	s524	False
0.1	230.79	0.788	231.578	0	PA_with_intermediate	test	ward_and_allport	89	25.0	0.788	to_hand	poldrack-single-stim	s524	False
0.1	231.578	0.234	231.812	0	PA_with_intermediate	test	ward_and_allport	71	25.0	0.234	to_board	poldrack-single-stim	s524	False
0.1	231.821	0.31	232.131	0	PA_with_intermediate	test	ward_and_allport	82	25.0	0.31	to_hand	poldrack-single-stim	s524	False
0.1	232.132	0.214	232.346	0	PA_with_intermediate	test	ward_and_allport	71	25.0	0.214	to_board	poldrack-single-stim	s524	False
1.0	232.354	2.68	232.353	0	PA_with_intermediate	test	ward_and_allport	-1	25.0	n/a	feedback	poldrack-single-stim	s524	False
1.712	235.043	1.712	236.755	1	PA_without_intermediate	test	ward_and_allport	82	26.0	1.712	to_hand	poldrack-single-stim	s524	False
0.1	236.756	0.202	236.958	0	PA_without_intermediate	test	ward_and_allport	89	26.0	0.202	to_board	poldrack-single-stim	s524	False
0.1	236.966	0.245	237.211	0	PA_without_intermediate	test	ward_and_allport	82	26.0	0.245	to_hand	poldrack-single-stim	s524	False
0.1	237.212	0.217	237.429	0	PA_without_intermediate	test	ward_and_allport	89	26.0	0.217	to_board	poldrack-single-stim	s524	False
0.1	237.438	0.418	237.856	0	PA_without_intermediate	test	ward_and_allport	82	26.0	0.418	to_hand	poldrack-single-stim	s524	False
0.1	237.857	0.242	238.099	0	PA_without_intermediate	test	ward_and_allport	71	26.0	0.242	to_board	poldrack-single-stim	s524	False
1.0	238.108	3.224	238.107	0	PA_without_intermediate	test	ward_and_allport	-1	26.0	n/a	feedback	poldrack-single-stim	s524	False
3.432	241.34	3.432	244.772	1	PA_without_intermediate	test	ward_and_allport	89	27.0	3.432	to_hand	poldrack-single-stim	s524	False
0.1	244.774	0.263	245.037	0	PA_without_intermediate	test	ward_and_allport	71	27.0	0.263	to_board	poldrack-single-stim	s524	False
0.1	245.046	0.251	245.297	0	PA_without_intermediate	test	ward_and_allport	89	27.0	0.251	to_hand	poldrack-single-stim	s524	False
0.1	245.298	0.261	245.559	0	PA_without_intermediate	test	ward_and_allport	82	27.0	0.261	to_board	poldrack-single-stim	s524	False
0.1	245.571	0.231	245.802	0	PA_without_intermediate	test	ward_and_allport	89	27.0	0.231	to_hand	poldrack-single-stim	s524	False
0.1	245.803	0.229	246.032	0	PA_without_intermediate	test	ward_and_allport	71	27.0	0.229	to_board	poldrack-single-stim	s524	False
1.0	246.041	3.36	246.04	0	PA_without_intermediate	test	ward_and_allport	-1	27.0	n/a	feedback	poldrack-single-stim	s524	False
2.726	249.409	2.726	252.135	1	PA_without_intermediate	test	ward_and_allport	71	28.0	2.726	to_hand	poldrack-single-stim	s524	False
0.1	252.137	0.274	252.411	0	PA_without_intermediate	test	ward_and_allport	82	28.0	0.274	to_board	poldrack-single-stim	s524	False
0.1	252.42	0.571	252.991	0	PA_without_intermediate	test	ward_and_allport	71	28.0	0.571	to_hand	poldrack-single-stim	s524	False
0.1	252.992	0.223	253.215	0	PA_without_intermediate	test	ward_and_allport	89	28.0	0.223	to_board	poldrack-single-stim	s524	False
0.1	253.223	0.201	253.424	0	PA_without_intermediate	test	ward_and_allport	71	28.0	0.201	to_hand	poldrack-single-stim	s524	False
0.1	253.425	0.228	253.653	0	PA_without_intermediate	test	ward_and_allport	82	28.0	0.228	to_board	poldrack-single-stim	s524	False
1.0	253.662	2.0	253.661	0	PA_without_intermediate	test	ward_and_allport	-1	28.0	n/a	feedback	poldrack-single-stim	s524	False
2.063	255.671	2.063	257.734	1	PA_without_intermediate	test	ward_and_allport	89	29.0	2.063	to_hand	poldrack-single-stim	s524	False
0.1	257.734	0.19	257.924	0	PA_without_intermediate	test	ward_and_allport	82	29.0	0.19	to_board	poldrack-single-stim	s524	False
0.1	257.933	0.194	258.127	0	PA_without_intermediate	test	ward_and_allport	89	29.0	0.194	to_hand	poldrack-single-stim	s524	False
0.1	258.128	0.194	258.322	0	PA_without_intermediate	test	ward_and_allport	71	29.0	0.194	to_board	poldrack-single-stim	s524	False
0.1	258.331	0.219	258.55	0	PA_without_intermediate	test	ward_and_allport	89	29.0	0.219	to_hand	poldrack-single-stim	s524	False
0.1	258.552	0.211	258.763	0	PA_without_intermediate	test	ward_and_allport	82	29.0	0.211	to_board	poldrack-single-stim	s524	False
1.0	258.772	2.408	258.771	0	PA_without_intermediate	test	ward_and_allport	-1	29.0	n/a	feedback	poldrack-single-stim	s524	False
2.388	266.188	2.388	268.576	1	PA_with_intermediate	test	ward_and_allport	82	30.0	2.388	to_hand	poldrack-single-stim	s524	False
0.1	268.577	0.159	268.736	0	PA_with_intermediate	test	ward_and_allport	89	30.0	0.159	to_board	poldrack-single-stim	s524	False
0.1	268.744	0.182	268.926	0	PA_with_intermediate	test	ward_and_allport	82	30.0	0.182	to_hand	poldrack-single-stim	s524	False
0.1	268.927	0.206	269.133	0	PA_with_intermediate	test	ward_and_allport	71	30.0	0.206	to_board	poldrack-single-stim	s524	False
0.1	269.144	0.168	269.312	0	PA_with_intermediate	test	ward_and_allport	89	30.0	0.168	to_hand	poldrack-single-stim	s524	False
0.1	269.313	0.193	269.506	0	PA_with_intermediate	test	ward_and_allport	71	30.0	0.193	to_board	poldrack-single-stim	s524	False
1.0	269.516	2.136	269.515	0	PA_with_intermediate	test	ward_and_allport	-1	30.0	n/a	feedback	poldrack-single-stim	s524	False
2.571	271.663	2.571	274.234	1	PA_without_intermediate	test	ward_and_allport	71	31.0	2.571	to_hand	poldrack-single-stim	s524	False
0.1	274.235	0.162	274.397	0	PA_without_intermediate	test	ward_and_allport	82	31.0	0.162	to_board	poldrack-single-stim	s524	False
0.1	274.406	0.16	274.566	0	PA_without_intermediate	test	ward_and_allport	71	31.0	0.16	to_hand	poldrack-single-stim	s524	False
0.1	274.567	0.206	274.773	0	PA_without_intermediate	test	ward_and_allport	82	31.0	0.206	to_board	poldrack-single-stim	s524	False
0.1	274.782	0.154	274.936	0	PA_without_intermediate	test	ward_and_allport	71	31.0	0.154	to_hand	poldrack-single-stim	s524	False
0.1	274.938	0.426	275.364	0	PA_without_intermediate	test	ward_and_allport	89	31.0	0.426	to_board	poldrack-single-stim	s524	False
1.0	275.375	5.128	275.374	0	PA_without_intermediate	test	ward_and_allport	-1	31.0	n/a	feedback	poldrack-single-stim	s524	False
2.137	280.513	2.137	282.65	1	PA_without_intermediate	test	ward_and_allport	71	32.0	2.137	to_hand	poldrack-single-stim	s524	False
0.1	282.651	0.152	282.803	0	PA_without_intermediate	test	ward_and_allport	89	32.0	0.152	to_board	poldrack-single-stim	s524	False
0.1	282.814	0.173	282.987	0	PA_without_intermediate	test	ward_and_allport	71	32.0	0.173	to_hand	poldrack-single-stim	s524	False
0.1	282.987	0.174	283.161	0	PA_without_intermediate	test	ward_and_allport	89	32.0	0.174	to_board	poldrack-single-stim	s524	False
0.1	283.172	0.148	283.32	0	PA_without_intermediate	test	ward_and_allport	71	32.0	0.148	to_hand	poldrack-single-stim	s524	False
0.1	283.321	0.205	283.526	0	PA_without_intermediate	test	ward_and_allport	82	32.0	0.205	to_board	poldrack-single-stim	s524	False
1.0	283.538	2.136	283.537	0	PA_without_intermediate	test	ward_and_allport	-1	32.0	n/a	feedback	poldrack-single-stim	s524	False
3.327	285.684	3.327	289.011	1	PA_without_intermediate	test	ward_and_allport	89	33.0	3.327	to_hand	poldrack-single-stim	s524	False
0.1	289.012	0.219	289.231	0	PA_without_intermediate	test	ward_and_allport	82	33.0	0.219	to_board	poldrack-single-stim	s524	False
0.1	289.238	0.181	289.419	0	PA_without_intermediate	test	ward_and_allport	89	33.0	0.181	to_hand	poldrack-single-stim	s524	False
0.1	289.42	0.227	289.647	0	PA_without_intermediate	test	ward_and_allport	82	33.0	0.227	to_board	poldrack-single-stim	s524	False
0.1	289.657	0.142	289.799	0	PA_without_intermediate	test	ward_and_allport	89	33.0	0.142	to_hand	poldrack-single-stim	s524	False
0.1	289.8	0.196	289.996	0	PA_without_intermediate	test	ward_and_allport	71	33.0	0.196	to_board	poldrack-single-stim	s524	False
1.0	290.008	5.264	290.007	0	PA_without_intermediate	test	ward_and_allport	-1	33.0	n/a	feedback	poldrack-single-stim	s524	False
2.162	295.284	2.162	297.446	1	PA_with_intermediate	test	ward_and_allport	71	34.0	2.162	to_hand	poldrack-single-stim	s524	False
0.1	297.447	0.211	297.658	0	PA_with_intermediate	test	ward_and_allport	82	34.0	0.211	to_board	poldrack-single-stim	s524	False
0.1	297.669	0.19	297.859	0	PA_with_intermediate	test	ward_and_allport	71	34.0	0.19	to_hand	poldrack-single-stim	s524	False
0.1	297.86	0.287	298.147	0	PA_with_intermediate	test	ward_and_allport	89	34.0	0.287	to_board	poldrack-single-stim	s524	False
0.1	298.159	0.471	298.63	0	PA_with_intermediate	test	ward_and_allport	82	34.0	0.471	to_hand	poldrack-single-stim	s524	False
0.1	298.631	0.231	298.862	0	PA_with_intermediate	test	ward_and_allport	71	34.0	0.231	to_board	poldrack-single-stim	s524	False
1.0	298.871	4.04	298.87	0	PA_with_intermediate	test	ward_and_allport	-1	34.0	n/a	feedback	poldrack-single-stim	s524	False
2.925	302.918	2.925	305.843	1	PA_with_intermediate	test	ward_and_allport	89	35.0	2.925	to_hand	poldrack-single-stim	s524	False
0.1	305.844	0.204	306.048	0	PA_with_intermediate	test	ward_and_allport	71	35.0	0.204	to_board	poldrack-single-stim	s524	False
0.1	306.059	0.192	306.251	0	PA_with_intermediate	test	ward_and_allport	89	35.0	0.192	to_hand	poldrack-single-stim	s524	False
0.1	306.253	0.261	306.514	0	PA_with_intermediate	test	ward_and_allport	82	35.0	0.261	to_board	poldrack-single-stim	s524	False
0.1	306.525	0.701	307.226	0	PA_with_intermediate	test	ward_and_allport	71	35.0	0.701	to_hand	poldrack-single-stim	s524	False
0.1	307.228	0.17	307.398	0	PA_with_intermediate	test	ward_and_allport	89	35.0	0.17	to_board	poldrack-single-stim	s524	False
1.0	307.409	2.136	307.408	0	PA_with_intermediate	test	ward_and_allport	-1	35.0	n/a	feedback	poldrack-single-stim	s524	False
3.618	309.556	3.618	313.174	1	PA_with_intermediate	test	ward_and_allport	82	36.0	3.618	to_hand	poldrack-single-stim	s524	False
0.1	313.175	0.175	313.35	0	PA_with_intermediate	test	ward_and_allport	71	36.0	0.175	to_board	poldrack-single-stim	s524	False
0.1	313.358	0.276	313.634	0	PA_with_intermediate	test	ward_and_allport	82	36.0	0.276	to_hand	poldrack-single-stim	s524	False
0.1	313.635	0.242	313.877	0	PA_with_intermediate	test	ward_and_allport	89	36.0	0.242	to_board	poldrack-single-stim	s524	False
0.1	313.886	0.228	314.114	0	PA_with_intermediate	test	ward_and_allport	71	36.0	0.228	to_hand	poldrack-single-stim	s524	False
0.1	314.115	0.185	314.3	0	PA_with_intermediate	test	ward_and_allport	89	36.0	0.185	to_board	poldrack-single-stim	s524	False
1.0	314.312	2.408	314.311	0	PA_with_intermediate	test	ward_and_allport	-1	36.0	n/a	feedback	poldrack-single-stim	s524	False
2.042	316.728	2.042	318.77	1	PA_without_intermediate	test	ward_and_allport	82	37.0	2.042	to_hand	poldrack-single-stim	s524	False
0.1	318.772	0.196	318.968	0	PA_without_intermediate	test	ward_and_allport	71	37.0	0.196	to_board	poldrack-single-stim	s524	False
0.1	318.976	0.242	319.218	0	PA_without_intermediate	test	ward_and_allport	82	37.0	0.242	to_hand	poldrack-single-stim	s524	False
0.1	319.22	0.263	319.483	0	PA_without_intermediate	test	ward_and_allport	71	37.0	0.263	to_board	poldrack-single-stim	s524	False
0.1	319.491	0.28	319.771	0	PA_without_intermediate	test	ward_and_allport	82	37.0	0.28	to_hand	poldrack-single-stim	s524	False
0.1	319.771	0.215	319.986	0	PA_without_intermediate	test	ward_and_allport	89	37.0	0.215	to_board	poldrack-single-stim	s524	False
1.0	319.994	2.68	319.993	0	PA_without_intermediate	test	ward_and_allport	-1	37.0	n/a	feedback	poldrack-single-stim	s524	False
2.509	322.682	2.509	325.191	1	PA_with_intermediate	test	ward_and_allport	89	38.0	2.509	to_hand	poldrack-single-stim	s524	False
0.1	325.192	0.186	325.378	0	PA_with_intermediate	test	ward_and_allport	71	38.0	0.186	to_board	poldrack-single-stim	s524	False
0.1	325.386	0.275	325.661	0	PA_with_intermediate	test	ward_and_allport	89	38.0	0.275	to_hand	poldrack-single-stim	s524	False
0.1	325.662	0.286	325.948	0	PA_with_intermediate	test	ward_and_allport	82	38.0	0.286	to_board	poldrack-single-stim	s524	False
0.1	325.958	1.862	327.82	0	PA_with_intermediate	test	ward_and_allport	71	38.0	1.862	to_hand	poldrack-single-stim	s524	False
0.1	327.821	0.191	328.012	0	PA_with_intermediate	test	ward_and_allport	82	38.0	0.191	to_board	poldrack-single-stim	s524	False
1.0	328.027	4.72	328.026	0	PA_with_intermediate	test	ward_and_allport	-1	38.0	n/a	feedback	poldrack-single-stim	s524	False
1.726	332.759	1.726	334.485	1	PA_without_intermediate	test	ward_and_allport	89	39.0	1.726	to_hand	poldrack-single-stim	s524	False
0.1	334.487	0.207	334.694	0	PA_without_intermediate	test	ward_and_allport	71	39.0	0.207	to_board	poldrack-single-stim	s524	False
0.1	334.706	0.253	334.959	0	PA_without_intermediate	test	ward_and_allport	89	39.0	0.253	to_hand	poldrack-single-stim	s524	False
0.1	334.96	0.218	335.178	0	PA_without_intermediate	test	ward_and_allport	71	39.0	0.218	to_board	poldrack-single-stim	s524	False
0.1	335.189	0.625	335.814	0	PA_without_intermediate	test	ward_and_allport	89	39.0	0.625	to_hand	poldrack-single-stim	s524	False
0.1	335.815	0.25	336.065	0	PA_without_intermediate	test	ward_and_allport	82	39.0	0.25	to_board	poldrack-single-stim	s524	False
1.0	336.074	3.224	336.073	0	PA_without_intermediate	test	ward_and_allport	-1	39.0	n/a	feedback	poldrack-single-stim	s524	False
2.414	339.306	2.414	341.72	1	PA_without_intermediate	test	ward_and_allport	89	40.0	2.414	to_hand	poldrack-single-stim	s524	False
0.1	341.72	0.229	341.949	0	PA_without_intermediate	test	ward_and_allport	82	40.0	0.229	to_board	poldrack-single-stim	s524	False
0.1	341.957	0.364	342.321	0	PA_without_intermediate	test	ward_and_allport	89	40.0	0.364	to_hand	poldrack-single-stim	s524	False
0.1	342.322	0.229	342.551	0	PA_without_intermediate	test	ward_and_allport	71	40.0	0.229	to_board	poldrack-single-stim	s524	False
0.1	342.562	0.237	342.799	0	PA_without_intermediate	test	ward_and_allport	89	40.0	0.237	to_hand	poldrack-single-stim	s524	False
0.1	342.801	0.237	343.038	0	PA_without_intermediate	test	ward_and_allport	82	40.0	0.237	to_board	poldrack-single-stim	s524	False
1.0	343.05	2.272	343.049	0	PA_without_intermediate	test	ward_and_allport	-1	40.0	n/a	feedback	poldrack-single-stim	s524	False
3.42	345.334	3.42	348.754	1	PA_with_intermediate	test	ward_and_allport	82	41.0	3.42	to_hand	poldrack-single-stim	s524	False
0.1	348.755	0.193	348.948	0	PA_with_intermediate	test	ward_and_allport	89	41.0	0.193	to_board	poldrack-single-stim	s524	False
0.1	348.959	0.454	349.413	0	PA_with_intermediate	test	ward_and_allport	89	41.0	0.454	to_hand	poldrack-single-stim	s524	False
0.1	349.414	0.848	350.262	0	PA_with_intermediate	test	ward_and_allport	89	41.0	0.848	to_board	poldrack-single-stim	s524	False
0.1	350.274	0.673	350.947	0	PA_with_intermediate	test	ward_and_allport	82	41.0	0.673	to_hand	poldrack-single-stim	s524	False
0.1	350.948	0.207	351.155	0	PA_with_intermediate	test	ward_and_allport	89	41.0	0.207	to_board	poldrack-single-stim	s524	False
0.1	351.164	1.632	352.796	0	PA_with_intermediate	test	ward_and_allport	89	41.0	1.632	to_hand	poldrack-single-stim	s524	False
0.1	352.798	0.138	352.936	0	PA_with_intermediate	test	ward_and_allport	71	41.0	0.138	to_board	poldrack-single-stim	s524	False
0.1	352.945	0.254	353.199	0	PA_with_intermediate	test	ward_and_allport	89	41.0	0.254	to_hand	poldrack-single-stim	s524	False
0.1	353.2	0.291	353.491	0	PA_with_intermediate	test	ward_and_allport	82	41.0	0.291	to_board	poldrack-single-stim	s524	False
1.0	353.499	3.632	353.498	0	PA_with_intermediate	test	ward_and_allport	-1	41.0	n/a	feedback	poldrack-single-stim	s524	False
2.528	357.143	2.528	359.671	1	PA_without_intermediate	test	ward_and_allport	71	42.0	2.528	to_hand	poldrack-single-stim	s524	False
0.1	359.673	0.216	359.889	0	PA_without_intermediate	test	ward_and_allport	82	42.0	0.216	to_board	poldrack-single-stim	s524	False
0.1	359.905	0.188	360.093	0	PA_without_intermediate	test	ward_and_allport	71	42.0	0.188	to_hand	poldrack-single-stim	s524	False
0.1	360.095	0.23	360.325	0	PA_without_intermediate	test	ward_and_allport	82	42.0	0.23	to_board	poldrack-single-stim	s524	False
0.1	360.338	0.157	360.495	0	PA_without_intermediate	test	ward_and_allport	71	42.0	0.157	to_hand	poldrack-single-stim	s524	False
0.1	360.496	0.376	360.872	0	PA_without_intermediate	test	ward_and_allport	89	42.0	0.376	to_board	poldrack-single-stim	s524	False
1.0	360.884	2.408	360.883	0	PA_without_intermediate	test	ward_and_allport	-1	42.0	n/a	feedback	poldrack-single-stim	s524	False
2.506	363.301	2.506	365.807	1	PA_without_intermediate	test	ward_and_allport	82	43.0	2.506	to_hand	poldrack-single-stim	s524	False
0.1	365.809	0.228	366.037	0	PA_without_intermediate	test	ward_and_allport	71	43.0	0.228	to_board	poldrack-single-stim	s524	False
0.1	366.046	0.266	366.312	0	PA_without_intermediate	test	ward_and_allport	82	43.0	0.266	to_hand	poldrack-single-stim	s524	False
0.1	366.313	0.238	366.551	0	PA_without_intermediate	test	ward_and_allport	89	43.0	0.238	to_board	poldrack-single-stim	s524	False
0.1	366.566	0.286	366.852	0	PA_without_intermediate	test	ward_and_allport	82	43.0	0.286	to_hand	poldrack-single-stim	s524	False
0.1	366.853	0.226	367.079	0	PA_without_intermediate	test	ward_and_allport	71	43.0	0.226	to_board	poldrack-single-stim	s524	False
1.0	367.091	2.0	367.09	0	PA_without_intermediate	test	ward_and_allport	-1	43.0	n/a	feedback	poldrack-single-stim	s524	False
3.426	369.1	3.426	372.526	1	PA_with_intermediate	test	ward_and_allport	82	44.0	3.426	to_hand	poldrack-single-stim	s524	False
0.1	372.527	0.201	372.728	0	PA_with_intermediate	test	ward_and_allport	89	44.0	0.201	to_board	poldrack-single-stim	s524	False
0.1	372.737	0.252	372.989	0	PA_with_intermediate	test	ward_and_allport	82	44.0	0.252	to_hand	poldrack-single-stim	s524	False
0.1	372.99	0.227	373.217	0	PA_with_intermediate	test	ward_and_allport	71	44.0	0.227	to_board	poldrack-single-stim	s524	False
0.1	373.228	0.171	373.399	0	PA_with_intermediate	test	ward_and_allport	89	44.0	0.171	to_hand	poldrack-single-stim	s524	False
0.1	373.399	0.297	373.696	0	PA_with_intermediate	test	ward_and_allport	82	44.0	0.297	to_board	poldrack-single-stim	s524	False
1.0	373.709	2.0	373.708	0	PA_with_intermediate	test	ward_and_allport	-1	44.0	n/a	feedback	poldrack-single-stim	s524	False
2.985	380.722	2.985	383.707	1	PA_with_intermediate	test	ward_and_allport	82	45.0	2.985	to_hand	poldrack-single-stim	s524	False
0.1	383.708	0.216	383.924	0	PA_with_intermediate	test	ward_and_allport	71	45.0	0.216	to_board	poldrack-single-stim	s524	False
0.1	383.937	0.264	384.201	0	PA_with_intermediate	test	ward_and_allport	82	45.0	0.264	to_hand	poldrack-single-stim	s524	False
0.1	384.203	0.253	384.456	0	PA_with_intermediate	test	ward_and_allport	89	45.0	0.253	to_board	poldrack-single-stim	s524	False
0.1	384.47	0.236	384.706	0	PA_with_intermediate	test	ward_and_allport	71	45.0	0.236	to_hand	poldrack-single-stim	s524	False
0.1	384.708	0.247	384.955	0	PA_with_intermediate	test	ward_and_allport	82	45.0	0.247	to_board	poldrack-single-stim	s524	False
1.0	384.969	2.0	384.968	0	PA_with_intermediate	test	ward_and_allport	-1	45.0	n/a	feedback	poldrack-single-stim	s524	False
2.317	386.98	2.317	389.297	1	PA_with_intermediate	test	ward_and_allport	82	46.0	2.317	to_hand	poldrack-single-stim	s524	False
0.1	389.298	0.245	389.543	0	PA_with_intermediate	test	ward_and_allport	71	46.0	0.245	to_board	poldrack-single-stim	s524	False
0.1	389.552	0.265	389.817	0	PA_with_intermediate	test	ward_and_allport	82	46.0	0.265	to_hand	poldrack-single-stim	s524	False
0.1	389.819	0.379	390.198	0	PA_with_intermediate	test	ward_and_allport	89	46.0	0.379	to_board	poldrack-single-stim	s524	False
0.1	390.209	0.687	390.896	0	PA_with_intermediate	test	ward_and_allport	71	46.0	0.687	to_hand	poldrack-single-stim	s524	False
0.1	390.898	0.21	391.108	0	PA_with_intermediate	test	ward_and_allport	82	46.0	0.21	to_board	poldrack-single-stim	s524	False
1.0	391.118	2.408	391.117	0	PA_with_intermediate	test	ward_and_allport	-1	46.0	n/a	feedback	poldrack-single-stim	s524	False
1.299	393.538	1.299	394.837	1	PA_without_intermediate	test	ward_and_allport	82	47.0	1.299	to_hand	poldrack-single-stim	s524	False
0.1	394.838	0.232	395.07	0	PA_without_intermediate	test	ward_and_allport	89	47.0	0.232	to_board	poldrack-single-stim	s524	False
0.1	395.082	0.328	395.41	0	PA_without_intermediate	test	ward_and_allport	82	47.0	0.328	to_hand	poldrack-single-stim	s524	False
0.1	395.411	0.288	395.699	0	PA_without_intermediate	test	ward_and_allport	71	47.0	0.288	to_board	poldrack-single-stim	s524	False
0.1	395.709	0.396	396.105	0	PA_without_intermediate	test	ward_and_allport	82	47.0	0.396	to_hand	poldrack-single-stim	s524	False
0.1	396.105	0.26	396.365	0	PA_without_intermediate	test	ward_and_allport	89	47.0	0.26	to_board	poldrack-single-stim	s524	False
1.0	396.377	2.816	396.376	0	PA_without_intermediate	test	ward_and_allport	-1	47.0	n/a	feedback	poldrack-single-stim	s524	False
