onset	duration	movement_onset	EV	action	block_duration	experiment_exp_id	gain_amount	gain_probability	key_press	loss_amount	loss_probability	num_cards	num_click_in_round	num_loss_cards	risk	response_time	total_cards	trial_id	trial_type	worker_id	junk	feedback
3.007	3.19	6.197	-1.6536740453212415	draw_card	3.19	columbia_card_task_fmri	12.0	0.8333333333333334	89.0	-70.0	0.1666666666666666	6.0	1.0	1.0	-1.0346422602484004	3.19	n/a	stim	poldrack-single-stim	s524	False	1
6.199	1.17	7.369	-4.387007378654574	end_round	1.17	columbia_card_task_fmri	12.0	0.8	71.0	-70.0	0.2	6.0	2.0	1.0	1.2057618585994128	1.17	1.0	stim	poldrack-single-stim	s524	False	1
8.122	1.5	7.371	n/a	-1.0	2.318	columbia_card_task_fmri	n/a	n/a	-1.0	n/a	n/a	n/a	n/a	n/a	n/a	n/a	n/a	ITI	poldrack-single-stim	s524	False	0
9.693	2.379	12.072	-0.8203407119879075	draw_card	2.379	columbia_card_task_fmri	14.0	0.8333333333333334	89.0	-75.0	0.1666666666666666	6.0	1.0	1.0	1.5741034962692773	2.379	1.0	stim	poldrack-single-stim	s524	False	0
12.824	1.5	12.073	n/a	-1.0	2.318	columbia_card_task_fmri	n/a	n/a	-1.0	n/a	n/a	n/a	n/a	n/a	n/a	n/a	n/a	ITI	poldrack-single-stim	s524	False	0
14.394	1.641	16.035	0.8463259546787586	draw_card	1.641	columbia_card_task_fmri	15.0	0.8333333333333334	89.0	-70.0	0.1666666666666666	6.0	1.0	1.0	0.0833916310208842	1.641	n/a	stim	poldrack-single-stim	s524	False	1
16.037	0.458	16.495	-1.9870073786545757	draw_card	0.458	columbia_card_task_fmri	15.0	0.8	89.0	-70.0	0.2	6.0	2.0	1.0	2.4057617677772107	0.458	n/a	stim	poldrack-single-stim	s524	False	1
16.497	0.455	16.952	-6.237007378654575	end_round	0.455	columbia_card_task_fmri	15.0	0.75	71.0	-70.0	0.25	6.0	3.0	1.0	5.211841239353152	0.455	2.0	stim	poldrack-single-stim	s524	False	1
17.705	1.5	16.954	n/a	-1.0	2.862	columbia_card_task_fmri	n/a	n/a	-1.0	n/a	n/a	n/a	n/a	n/a	n/a	n/a	n/a	ITI	poldrack-single-stim	s524	False	0
19.818	1.146	20.964	1.6796592880120924	draw_card	1.146	columbia_card_task_fmri	17.0	0.8333333333333334	89.0	-75.0	0.1666666666666666	6.0	1.0	1.0	2.6921374020392186	1.146	n/a	stim	poldrack-single-stim	s524	False	1
20.965	1.727	22.692	-1.387007378654574	draw_card	1.727	columbia_card_task_fmri	17.0	0.8	89.0	-75.0	0.2	6.0	2.0	1.0	5.2057615788933695	1.727	n/a	stim	poldrack-single-stim	s524	False	1
22.693	0.536	23.229	-5.987007378654575	end_round	0.536	columbia_card_task_fmri	17.0	0.75	71.0	-75.0	0.25	6.0	3.0	1.0	8.24292997811526	0.536	2.0	stim	poldrack-single-stim	s524	False	1
23.981	1.5	23.23	n/a	-1.0	2.726	columbia_card_task_fmri	n/a	n/a	-1.0	n/a	n/a	n/a	n/a	n/a	n/a	n/a	n/a	ITI	poldrack-single-stim	s524	False	0
25.959	1.831	27.79	3.012992621345425	draw_card	1.831	columbia_card_task_fmri	24.0	0.75	89.0	-60.0	0.25	8.0	1.0	2.0	4.77882856476106	1.831	n/a	stim	poldrack-single-stim	s524	False	1
27.794	3.3	31.094	0.0129926213454246	draw_card	3.3	columbia_card_task_fmri	24.0	0.7142857142857143	89.0	-60.0	0.2857142857142857	8.0	2.0	2.0	6.353093431567576	3.3	n/a	stim	poldrack-single-stim	s524	False	1
31.094	0.499	31.593	-3.987007378654576	end_round	0.499	columbia_card_task_fmri	24.0	0.6666666666666667	71.0	-60.0	0.3333333333333333	8.0	3.0	2.0	8.003741163275766	0.499	2.0	stim	poldrack-single-stim	s524	False	1
32.345	1.5	31.594	n/a	-1.0	2.25	columbia_card_task_fmri	n/a	n/a	-1.0	n/a	n/a	n/a	n/a	n/a	n/a	n/a	n/a	ITI	poldrack-single-stim	s524	False	0
33.847	0.966	34.813	3.012992621345425	draw_card	0.966	columbia_card_task_fmri	29.0	0.75	89.0	-75.0	0.25	8.0	1.0	2.0	13.439082156353347	0.966	n/a	stim	poldrack-single-stim	s524	False	1
34.815	0.586	35.401	-0.7012930929402871	end_round	0.586	columbia_card_task_fmri	29.0	0.7142857142857143	71.0	-75.0	0.2857142857142857	8.0	2.0	2.0	15.388172032880991	0.586	1.0	stim	poldrack-single-stim	s524	False	1
36.153	1.5	35.402	n/a	-1.0	2.318	columbia_card_task_fmri	n/a	n/a	-1.0	n/a	n/a	n/a	n/a	n/a	n/a	n/a	n/a	ITI	poldrack-single-stim	s524	False	0
37.723	1.474	39.197	-1.209229600876795	draw_card	1.474	columbia_card_task_fmri	17.0	0.7777777777777778	89.0	-65.0	0.2222222222222222	9.0	1.0	2.0	2.4964179517826715	1.474	n/a	stim	poldrack-single-stim	s524	False	1
39.199	1.061	40.26	-3.4870073786545754	draw_card	1.061	columbia_card_task_fmri	17.0	0.75	89.0	-65.0	0.25	9.0	2.0	2.0	3.912803217574446	1.061	n/a	stim	poldrack-single-stim	s524	False	1
40.262	0.489	40.751	-6.4155788072260025	end_round	0.489	columbia_card_task_fmri	17.0	0.7142857142857143	71.0	-65.0	0.2857142857142857	9.0	3.0	2.0	5.44958558291216	0.489	2.0	stim	poldrack-single-stim	s524	False	1
41.503	1.5	40.752	n/a	-1.0	2.454	columbia_card_task_fmri	n/a	n/a	-1.0	n/a	n/a	n/a	n/a	n/a	n/a	n/a	n/a	ITI	poldrack-single-stim	s524	False	0
43.21	1.775	44.985	3.112992621345424	draw_card	1.775	columbia_card_task_fmri	14.0	0.9	89.0	-95.0	0.1	10.0	1.0	1.0	1.1057618664688142	1.775	n/a	stim	poldrack-single-stim	s524	False	1
44.987	0.621	45.608	1.901881510234312	draw_card	0.621	columbia_card_task_fmri	14.0	0.8888888888888888	89.0	-95.0	0.1111111111111111	10.0	2.0	1.0	2.6611569267504755	0.621	n/a	stim	poldrack-single-stim	s524	False	1
45.61	0.685	46.295	0.3879926213454246	draw_card	0.685	columbia_card_task_fmri	14.0	0.875	89.0	-95.0	0.125	10.0	3.0	1.0	4.454123239971668	0.685	n/a	stim	poldrack-single-stim	s524	False	1
46.297	1.03	47.327	-1.5584359500831466	draw_card	1.03	columbia_card_task_fmri	14.0	0.8571428571428572	89.0	-95.0	0.1428571428571428	10.0	4.0	1.0	6.547816064387032	1.03	n/a	stim	poldrack-single-stim	s524	False	1
47.329	0.689	48.018	-4.15367404532124	end_round	0.689	columbia_card_task_fmri	14.0	0.8333333333333334	71.0	-95.0	0.1666666666666666	10.0	5.0	1.0	9.027662954347736	0.689	4.0	stim	poldrack-single-stim	s524	False	1
48.77	1.5	48.019	n/a	-1.0	2.522	columbia_card_task_fmri	n/a	n/a	-1.0	n/a	n/a	n/a	n/a	n/a	n/a	n/a	n/a	ITI	poldrack-single-stim	s524	False	0
50.544	3.44	53.984	-0.9870073786545752	draw_card	3.44	columbia_card_task_fmri	15.0	0.8	89.0	-65.0	0.2	10.0	1.0	2.0	0.4057619229317986	3.44	n/a	stim	poldrack-single-stim	s524	False	1
53.985	2.319	56.304	-2.764785156432352	draw_card	2.319	columbia_card_task_fmri	15.0	0.7777777777777778	89.0	-65.0	0.2222222222222222	10.0	2.0	2.0	1.6649385943963717	2.319	n/a	stim	poldrack-single-stim	s524	False	1
56.306	0.853	57.159	-4.987007378654575	end_round	0.853	columbia_card_task_fmri	15.0	0.75	71.0	-65.0	0.25	10.0	3.0	2.0	3.0467778732177244	0.853	2.0	stim	poldrack-single-stim	s524	False	1
57.912	1.5	57.161	n/a	-1.0	2.318	columbia_card_task_fmri	n/a	n/a	-1.0	n/a	n/a	n/a	n/a	n/a	n/a	n/a	n/a	ITI	poldrack-single-stim	s524	False	0
59.482	3.915	63.397	0.6129926213454261	draw_card	3.915	columbia_card_task_fmri	17.0	0.8	89.0	-65.0	0.2	10.0	1.0	2.0	1.2057618585994128	3.915	n/a	stim	poldrack-single-stim	s524	False	1
63.399	0.811	64.21	-1.209229600876795	draw_card	0.811	columbia_card_task_fmri	17.0	0.7777777777777778	89.0	-65.0	0.2222222222222222	10.0	2.0	2.0	2.4964179517826715	0.811	n/a	stim	poldrack-single-stim	s524	False	1
64.212	0.876	65.088	-3.4870073786545754	end_round	0.876	columbia_card_task_fmri	17.0	0.75	71.0	-65.0	0.25	10.0	3.0	2.0	3.912803217574446	0.876	2.0	stim	poldrack-single-stim	s524	False	1
65.841	1.5	65.09	n/a	-1.0	2.522	columbia_card_task_fmri	n/a	n/a	-1.0	n/a	n/a	n/a	n/a	n/a	n/a	n/a	n/a	ITI	poldrack-single-stim	s524	False	0
67.616	2.102	69.718	-0.8203407119879075	draw_card	2.102	columbia_card_task_fmri	13.0	0.8333333333333334	89.0	-70.0	0.1666666666666666	12.0	1.0	2.0	-0.6619642972749524	2.102	n/a	stim	poldrack-single-stim	s524	False	1
69.72	0.637	70.357	-2.077916469563669	draw_card	0.637	columbia_card_task_fmri	13.0	0.8181818181818181	89.0	-70.0	0.1818181818181818	12.0	2.0	2.0	0.4184143792439236	0.637	n/a	stim	poldrack-single-stim	s524	False	1
70.359	0.399	70.758	-3.587007378654575	draw_card	0.399	columbia_card_task_fmri	13.0	0.8	89.0	-70.0	0.2	12.0	3.0	2.0	1.6057618275958525	0.399	n/a	stim	poldrack-single-stim	s524	False	1
70.76	0.837	71.597	-5.43145182309902	draw_card	0.837	columbia_card_task_fmri	13.0	0.7777777777777778	89.0	-70.0	0.2222222222222222	12.0	4.0	2.0	2.912157631594436	0.837	4.0	stim	poldrack-single-stim	s524	False	0
72.35	1.5	71.599	n/a	-1.0	2.998	columbia_card_task_fmri	n/a	n/a	-1.0	n/a	n/a	n/a	n/a	n/a	n/a	n/a	n/a	ITI	poldrack-single-stim	s524	False	0
74.6	1.718	76.318	-0.8203407119879075	draw_card	1.718	columbia_card_task_fmri	15.0	0.8333333333333334	89.0	-80.0	0.1666666666666666	12.0	1.0	2.0	3.8101713130500015	1.718	n/a	stim	poldrack-single-stim	s524	False	1
76.319	0.415	76.734	-2.2597346513818506	draw_card	0.415	columbia_card_task_fmri	15.0	0.8181818181818181	89.0	-80.0	0.1818181818181818	12.0	2.0	2.0	5.046749341240766	0.415	n/a	stim	poldrack-single-stim	s524	False	1
76.736	0.304	77.04	-3.987007378654576	end_round	0.304	columbia_card_task_fmri	15.0	0.8	71.0	-80.0	0.2	12.0	3.0	2.0	6.40576150646422	0.304	2.0	stim	poldrack-single-stim	s524	False	1
77.792	1.5	77.041	n/a	-1.0	2.318	columbia_card_task_fmri	n/a	n/a	-1.0	n/a	n/a	n/a	n/a	n/a	n/a	n/a	n/a	ITI	poldrack-single-stim	s524	False	0
79.362	1.305	80.667	-1.7870073786545744	draw_card	1.305	columbia_card_task_fmri	14.0	0.8	89.0	-65.0	0.2	15.0	1.0	3.0	0.0057619563194961	1.305	1.0	stim	poldrack-single-stim	s524	False	0
81.42	1.5	80.669	n/a	-1.0	2.25	columbia_card_task_fmri	n/a	n/a	-1.0	n/a	n/a	n/a	n/a	n/a	n/a	n/a	n/a	ITI	poldrack-single-stim	s524	False	0
82.923	0.974	83.897	-1.8620073786545757	draw_card	0.974	columbia_card_task_fmri	1.0	0.9375	89.0	-45.0	0.0625	16.0	1.0	1.0	-20.459406014162663	0.974	n/a	stim	poldrack-single-stim	s524	False	1
83.899	0.591	84.49	-2.053674045321242	draw_card	0.591	columbia_card_task_fmri	1.0	0.9333333333333332	89.0	-45.0	0.0666666666666666	16.0	2.0	1.0	-20.119817372740066	0.591	n/a	stim	poldrack-single-stim	s524	False	1
84.492	0.442	84.934	-2.272721664368861	draw_card	0.442	columbia_card_task_fmri	1.0	0.9285714285714286	89.0	-45.0	0.0714285714285714	16.0	3.0	1.0	-19.74742225640472	0.442	n/a	stim	poldrack-single-stim	s524	False	1
84.936	0.434	85.37	-2.5254689171161138	draw_card	0.434	columbia_card_task_fmri	1.0	0.9230769230769232	89.0	-45.0	0.0769230769230769	16.0	4.0	1.0	-19.33664349834648	0.434	n/a	stim	poldrack-single-stim	s524	False	1
85.373	0.563	85.936	-2.820340711987909	draw_card	0.563	columbia_card_task_fmri	1.0	0.9166666666666666	89.0	-45.0	0.0833333333333333	16.0	5.0	1.0	-18.880505712852955	0.563	n/a	stim	poldrack-single-stim	s524	False	1
85.938	1.945	87.883	-3.168825560472757	draw_card	1.945	columbia_card_task_fmri	1.0	0.9090909090909092	89.0	-45.0	0.0909090909090909	16.0	6.0	1.0	-18.370164116836666	1.945	n/a	stim	poldrack-single-stim	s524	False	1
87.884	0.383	88.267	-3.5870073786545755	end_round	0.383	columbia_card_task_fmri	1.0	0.9	71.0	-45.0	0.1	16.0	7.0	1.0	-17.79423459845825	0.383	6.0	stim	poldrack-single-stim	s524	False	1
89.02	1.5	88.269	n/a	-1.0	2.454	columbia_card_task_fmri	n/a	n/a	-1.0	n/a	n/a	n/a	n/a	n/a	n/a	n/a	n/a	ITI	poldrack-single-stim	s524	False	0
90.727	2.427	93.154	-0.9245073786545752	draw_card	2.427	columbia_card_task_fmri	15.0	0.8125	89.0	-70.0	0.1875	16.0	1.0	3.0	1.5823136958841495	2.427	n/a	stim	poldrack-single-stim	s524	False	1
93.157	0.695	93.852	-1.9870073786545757	end_round	0.695	columbia_card_task_fmri	15.0	0.8	71.0	-70.0	0.2	16.0	2.0	3.0	2.4057617677772107	0.695	1.0	stim	poldrack-single-stim	s524	False	1
94.604	1.5	93.853	n/a	-1.0	2.318	columbia_card_task_fmri	n/a	n/a	-1.0	n/a	n/a	n/a	n/a	n/a	n/a	n/a	n/a	ITI	poldrack-single-stim	s524	False	0
96.175	1.354	97.529	6.012992621345425	draw_card	1.354	columbia_card_task_fmri	30.0	0.7	89.0	-50.0	0.3	10.0	1.0	3.0	5.066367147260987	1.354	1.0	stim	poldrack-single-stim	s524	False	0
98.282	1.5	97.531	n/a	-1.0	2.318	columbia_card_task_fmri	n/a	n/a	-1.0	n/a	n/a	n/a	n/a	n/a	n/a	n/a	n/a	ITI	poldrack-single-stim	s524	False	0
99.853	1.465	101.318	5.412992621345425	draw_card	1.465	columbia_card_task_fmri	17.0	0.8666666666666667	89.0	-70.0	0.1333333333333333	15.0	1.0	2.0	-2.019924681891659	1.465	n/a	stim	poldrack-single-stim	s524	False	1
101.321	1.676	102.997	4.5844211927739975	end_round	1.676	columbia_card_task_fmri	17.0	0.8571428571428572	71.0	-70.0	0.1428571428571428	15.0	2.0	2.0	-1.1505797104935098	1.676	1.0	stim	poldrack-single-stim	s524	False	1
103.75	1.5	102.999	n/a	-1.0	2.59	columbia_card_task_fmri	n/a	n/a	-1.0	n/a	n/a	n/a	n/a	n/a	n/a	n/a	n/a	ITI	poldrack-single-stim	s524	False	0
105.593	2.413	108.006	0.6379926213454247	draw_card	2.413	columbia_card_task_fmri	7.0	0.9375	89.0	-95.0	0.0625	16.0	1.0	1.0	-6.903968464107283	2.413	n/a	stim	poldrack-single-stim	s524	False	1
108.008	0.994	109.002	0.2129926213454248	draw_card	0.994	columbia_card_task_fmri	7.0	0.9333333333333332	89.0	-95.0	0.0666666666666666	16.0	2.0	1.0	-6.150967167288805	0.994	n/a	stim	poldrack-single-stim	s524	False	1
109.005	0.601	109.606	-0.2727216643688609	end_round	0.601	columbia_card_task_fmri	7.0	0.9285714285714286	71.0	-95.0	0.0714285714285714	16.0	3.0	1.0	-5.325221066106405	0.601	2.0	stim	poldrack-single-stim	s524	False	1
110.359	1.5	109.608	n/a	-1.0	2.25	columbia_card_task_fmri	n/a	n/a	-1.0	n/a	n/a	n/a	n/a	n/a	n/a	n/a	n/a	ITI	poldrack-single-stim	s524	False	0
111.86	1.813	113.673	2.200492621345425	end_round	1.813	columbia_card_task_fmri	9.0	0.9375	71.0	-100.0	0.0625	16.0	1.0	1.0	-5.209538469679284	1.813	0.0	stim	poldrack-single-stim	s524	False	1
114.427	1.5	113.676	n/a	-1.0	2.25	columbia_card_task_fmri	n/a	n/a	-1.0	n/a	n/a	n/a	n/a	n/a	n/a	n/a	n/a	ITI	poldrack-single-stim	s524	False	0
115.929	1.728	117.657	3.137992621345425	draw_card	1.728	columbia_card_task_fmri	15.0	0.875	89.0	-80.0	0.125	16.0	1.0	2.0	-0.1759412093410617	1.728	n/a	stim	poldrack-single-stim	s524	False	1
117.659	0.455	118.114	2.3463259546787585	draw_card	0.455	columbia_card_task_fmri	15.0	0.8666666666666667	89.0	-80.0	0.1333333333333333	16.0	2.0	2.0	0.6995521516904866	0.455	n/a	stim	poldrack-single-stim	s524	False	1
118.117	0.389	118.506	1.4415640499168552	end_round	0.389	columbia_card_task_fmri	15.0	0.8571428571428572	71.0	-80.0	0.1428571428571428	16.0	3.0	2.0	1.6488369049304872	0.389	2.0	stim	poldrack-single-stim	s524	False	1
119.259	1.5	118.508	n/a	-1.0	2.522	columbia_card_task_fmri	n/a	n/a	-1.0	n/a	n/a	n/a	n/a	n/a	n/a	n/a	n/a	ITI	poldrack-single-stim	s524	False	0
121.034	1.187	122.221	5.262992621345425	draw_card	1.187	columbia_card_task_fmri	16.0	0.875	89.0	-70.0	0.125	16.0	1.0	2.0	-3.1524111531472485	1.187	n/a	stim	poldrack-single-stim	s524	False	1
122.224	0.346	122.57	4.546325954678758	draw_card	0.346	columbia_card_task_fmri	16.0	0.8666666666666667	89.0	-70.0	0.1333333333333333	16.0	2.0	2.0	-2.3598592829455214	0.346	n/a	stim	poldrack-single-stim	s524	False	1
122.572	0.339	122.911	3.72727833563114	draw_card	0.339	columbia_card_task_fmri	16.0	0.8571428571428572	89.0	-70.0	0.1428571428571428	16.0	3.0	2.0	-1.5005067843673814	0.339	n/a	stim	poldrack-single-stim	s524	False	1
122.915	0.352	123.267	2.782223390576193	draw_card	0.352	columbia_card_task_fmri	16.0	0.8461538461538461	89.0	-70.0	0.1538461538461538	16.0	4.0	2.0	-0.5653337372262541	0.352	4.0	stim	poldrack-single-stim	s524	False	0
124.02	1.5	123.269	n/a	-1.0	2.454	columbia_card_task_fmri	n/a	n/a	-1.0	n/a	n/a	n/a	n/a	n/a	n/a	n/a	n/a	ITI	poldrack-single-stim	s524	False	0
125.727	1.382	127.109	6.575492621345425	end_round	1.382	columbia_card_task_fmri	30.0	0.6875	71.0	-45.0	0.3125	16.0	1.0	5.0	3.169192121521196	1.382	0.0	stim	poldrack-single-stim	s524	False	1
127.862	1.5	127.111	n/a	-1.0	2.25	columbia_card_task_fmri	n/a	n/a	-1.0	n/a	n/a	n/a	n/a	n/a	n/a	n/a	n/a	ITI	poldrack-single-stim	s524	False	0
129.365	0.895	130.26	-1.6536740453212415	draw_card	0.895	columbia_card_task_fmri	13.0	0.8333333333333334	89.0	-75.0	0.1666666666666666	6.0	1.0	1.0	1.2014255289365785	0.895	n/a	stim	poldrack-single-stim	s524	False	1
130.263	0.682	130.945	-4.587007378654575	end_round	0.682	columbia_card_task_fmri	13.0	0.8	71.0	-75.0	0.2	6.0	2.0	1.0	3.6057616831474384	0.682	1.0	stim	poldrack-single-stim	s524	False	1
131.698	1.5	130.947	n/a	-1.0	2.454	columbia_card_task_fmri	n/a	n/a	-1.0	n/a	n/a	n/a	n/a	n/a	n/a	n/a	n/a	ITI	poldrack-single-stim	s524	False	0
133.405	2.491	135.896	0.0129926213454264	draw_card	2.491	columbia_card_task_fmri	14.0	0.8333333333333334	89.0	-70.0	0.1666666666666666	6.0	1.0	1.0	-0.2892863335091995	2.491	n/a	stim	poldrack-single-stim	s524	False	1
135.898	0.339	136.237	-2.7870073786545744	end_round	0.339	columbia_card_task_fmri	14.0	0.8	71.0	-70.0	0.2	6.0	2.0	1.0	2.005761797330468	0.339	1.0	stim	poldrack-single-stim	s524	False	1
136.99	1.5	136.239	n/a	-1.0	2.454	columbia_card_task_fmri	n/a	n/a	-1.0	n/a	n/a	n/a	n/a	n/a	n/a	n/a	n/a	ITI	poldrack-single-stim	s524	False	0
138.696	1.685	140.381	0.0129926213454264	draw_card	1.685	columbia_card_task_fmri	16.0	0.8333333333333334	89.0	-80.0	0.1666666666666666	6.0	1.0	1.0	4.182849284466638	1.685	n/a	stim	poldrack-single-stim	s524	False	1
140.383	0.321	140.704	-3.1870073786545747	end_round	0.321	columbia_card_task_fmri	16.0	0.8	71.0	-80.0	0.2	6.0	2.0	1.0	6.805761483327135	0.321	1.0	stim	poldrack-single-stim	s524	False	1
141.457	1.5	140.706	n/a	-1.0	2.522	columbia_card_task_fmri	n/a	n/a	-1.0	n/a	n/a	n/a	n/a	n/a	n/a	n/a	n/a	ITI	poldrack-single-stim	s524	False	0
143.231	0.698	143.929	2.5129926213454263	end_round	0.698	columbia_card_task_fmri	17.0	0.8333333333333334	71.0	-70.0	0.1666666666666666	6.0	1.0	1.0	0.828747562268628	0.698	0.0	stim	poldrack-single-stim	s524	False	1
144.683	1.5	143.932	n/a	-1.0	2.454	columbia_card_task_fmri	n/a	n/a	-1.0	n/a	n/a	n/a	n/a	n/a	n/a	n/a	n/a	ITI	poldrack-single-stim	s524	False	0
146.39	1.189	147.579	2.512992621345425	draw_card	1.189	columbia_card_task_fmri	25.0	0.75	89.0	-65.0	0.25	8.0	1.0	2.0	7.376904621413647	1.189	n/a	stim	poldrack-single-stim	s524	False	1
147.581	0.335	147.916	-0.7012930929402871	end_round	0.335	columbia_card_task_fmri	25.0	0.7142857142857143	71.0	-65.0	0.2857142857142857	8.0	2.0	2.0	9.063616992000444	0.335	1.0	stim	poldrack-single-stim	s524	False	1
148.67	1.5	147.919	n/a	-1.0	2.658	columbia_card_task_fmri	n/a	n/a	-1.0	n/a	n/a	n/a	n/a	n/a	n/a	n/a	n/a	ITI	poldrack-single-stim	s524	False	0
150.581	1.471	152.052	2.512992621345425	draw_card	1.471	columbia_card_task_fmri	30.0	0.75	89.0	-80.0	0.25	8.0	1.0	2.0	16.037158265474364	1.471	1.0	stim	poldrack-single-stim	s524	False	0
152.805	1.5	152.054	n/a	-1.0	2.386	columbia_card_task_fmri	n/a	n/a	-1.0	n/a	n/a	n/a	n/a	n/a	n/a	n/a	n/a	ITI	poldrack-single-stim	s524	False	0
154.444	0.93	155.374	2.2129926213454256	draw_card	0.93	columbia_card_task_fmri	13.0	0.9	89.0	-95.0	0.1	10.0	1.0	1.0	0.8057618903684904	0.93	n/a	stim	poldrack-single-stim	s524	False	1
155.377	0.339	155.716	1.0129926213454246	draw_card	0.339	columbia_card_task_fmri	13.0	0.8888888888888888	89.0	-95.0	0.1111111111111111	10.0	2.0	1.0	2.3468872690376053	0.339	n/a	stim	poldrack-single-stim	s524	False	1
155.719	0.6	156.319	-0.4870073786545753	draw_card	0.6	columbia_card_task_fmri	13.0	0.875	89.0	-95.0	0.125	10.0	3.0	1.0	4.123404347768339	0.6	n/a	stim	poldrack-single-stim	s524	False	1
156.322	0.351	156.673	-2.4155788072260025	end_round	0.351	columbia_card_task_fmri	13.0	0.8571428571428572	71.0	-95.0	0.1428571428571428	10.0	4.0	1.0	6.197888978764855	0.351	3.0	stim	poldrack-single-stim	s524	False	1
157.427	1.5	156.676	n/a	-1.0	2.522	columbia_card_task_fmri	n/a	n/a	-1.0	n/a	n/a	n/a	n/a	n/a	n/a	n/a	n/a	ITI	poldrack-single-stim	s524	False	0
159.203	2.34	161.543	3.612992621345424	draw_card	2.34	columbia_card_task_fmri	14.0	0.9	89.0	-90.0	0.1	10.0	1.0	1.0	-0.3942380094367159	2.34	n/a	stim	poldrack-single-stim	s524	False	1
161.546	0.613	162.159	2.4574370657898674	draw_card	0.613	columbia_card_task_fmri	14.0	0.8888888888888888	89.0	-90.0	0.1111111111111111	10.0	2.0	1.0	1.089808642573555	0.613	n/a	stim	poldrack-single-stim	s524	False	1
162.163	0.361	162.524	1.0129926213454246	end_round	0.361	columbia_card_task_fmri	14.0	0.875	71.0	-90.0	0.125	10.0	3.0	1.0	2.800528783124218	0.361	2.0	stim	poldrack-single-stim	s524	False	1
163.277	1.5	162.526	n/a	-1.0	2.59	columbia_card_task_fmri	n/a	n/a	-1.0	n/a	n/a	n/a	n/a	n/a	n/a	n/a	n/a	ITI	poldrack-single-stim	s524	False	0
165.119	1.112	166.231	-1.1870073786545747	draw_card	1.112	columbia_card_task_fmri	16.0	0.8	89.0	-70.0	0.2	10.0	1.0	2.0	2.80576173891124	1.112	n/a	stim	poldrack-single-stim	s524	False	1
166.235	0.361	166.596	-3.098118489765686	end_round	0.361	columbia_card_task_fmri	16.0	0.7777777777777778	71.0	-70.0	0.2222222222222222	10.0	2.0	2.0	4.159376675192039	0.361	1.0	stim	poldrack-single-stim	s524	False	1
167.352	1.5	166.601	n/a	-1.0	2.386	columbia_card_task_fmri	n/a	n/a	-1.0	n/a	n/a	n/a	n/a	n/a	n/a	n/a	n/a	ITI	poldrack-single-stim	s524	False	0
169.0	1.528	170.528	-1.9036740453212413	draw_card	1.528	columbia_card_task_fmri	7.0	0.9166666666666666	89.0	-100.0	0.0833333333333333	12.0	1.0	1.0	-2.021000146623706	1.528	n/a	stim	poldrack-single-stim	s524	False	1
170.53	0.364	170.894	-2.714280105927304	draw_card	0.364	columbia_card_task_fmri	7.0	0.9090909090909092	89.0	-100.0	0.0909090909090909	12.0	2.0	1.0	-0.8339007309502868	0.364	n/a	stim	poldrack-single-stim	s524	False	1
170.896	0.582	171.478	-3.687007378654576	draw_card	0.582	columbia_card_task_fmri	7.0	0.9	89.0	-100.0	0.1	12.0	3.0	1.0	0.5057619147148849	0.582	n/a	stim	poldrack-single-stim	s524	False	1
171.482	0.396	171.878	-4.875896267543465	draw_card	0.396	columbia_card_task_fmri	7.0	0.8888888888888888	89.0	-100.0	0.1111111111111111	12.0	4.0	1.0	2.0326176117511814	0.396	n/a	stim	poldrack-single-stim	s524	False	1
171.88	0.411	172.291	-6.362007378654575	end_round	0.411	columbia_card_task_fmri	7.0	0.875	71.0	-100.0	0.125	12.0	5.0	1.0	3.79268545597024	0.411	4.0	stim	poldrack-single-stim	s524	False	1
173.045	1.5	172.294	n/a	-1.0	2.59	columbia_card_task_fmri	n/a	n/a	-1.0	n/a	n/a	n/a	n/a	n/a	n/a	n/a	n/a	ITI	poldrack-single-stim	s524	False	0
174.889	1.562	176.451	-1.6536740453212395	draw_card	1.562	columbia_card_task_fmri	14.0	0.8333333333333334	89.0	-80.0	0.1666666666666666	12.0	1.0	2.0	3.437493342161733	1.562	n/a	stim	poldrack-single-stim	s524	False	1
176.453	0.378	176.831	-3.077916469563669	draw_card	0.378	columbia_card_task_fmri	14.0	0.8181818181818181	89.0	-80.0	0.1818181818181818	12.0	2.0	2.0	4.661054757826609	0.378	n/a	stim	poldrack-single-stim	s524	False	1
176.835	0.365	177.2	-4.787007378654574	end_round	0.365	columbia_card_task_fmri	14.0	0.8	71.0	-80.0	0.2	12.0	3.0	2.0	6.005761530093583	0.365	2.0	stim	poldrack-single-stim	s524	False	1
177.954	1.5	177.203	n/a	-1.0	2.318	columbia_card_task_fmri	n/a	n/a	-1.0	n/a	n/a	n/a	n/a	n/a	n/a	n/a	n/a	ITI	poldrack-single-stim	s524	False	0
179.524	1.305	180.829	0.0129926213454246	draw_card	1.305	columbia_card_task_fmri	15.0	0.8333333333333334	89.0	-75.0	0.1666666666666666	12.0	1.0	2.0	1.9467814642445909	1.305	n/a	stim	poldrack-single-stim	s524	False	1
180.833	0.366	181.199	-1.3506437422909403	draw_card	0.366	columbia_card_task_fmri	15.0	0.8181818181818181	89.0	-75.0	0.1818181818181818	12.0	2.0	2.0	3.118276429615708	0.366	2.0	stim	poldrack-single-stim	s524	False	0
181.953	1.5	181.202	n/a	-1.0	2.25	columbia_card_task_fmri	n/a	n/a	-1.0	n/a	n/a	n/a	n/a	n/a	n/a	n/a	n/a	ITI	poldrack-single-stim	s524	False	0
183.457	1.938	185.395	-0.9870073786545752	draw_card	1.938	columbia_card_task_fmri	15.0	0.8	89.0	-65.0	0.2	15.0	1.0	3.0	0.4057619229317986	1.938	1.0	stim	poldrack-single-stim	s524	False	0
186.148	1.5	185.397	n/a	-1.0	2.454	columbia_card_task_fmri	n/a	n/a	-1.0	n/a	n/a	n/a	n/a	n/a	n/a	n/a	n/a	ITI	poldrack-single-stim	s524	False	0
187.856	1.199	189.055	-1.7370073786545754	draw_card	1.199	columbia_card_task_fmri	14.0	0.8125	89.0	-70.0	0.1875	16.0	1.0	3.0	1.1920013512710206	1.199	n/a	stim	poldrack-single-stim	s524	False	1
189.058	1.112	190.17	-2.7870073786545744	draw_card	1.112	columbia_card_task_fmri	14.0	0.8	89.0	-70.0	0.2	16.0	2.0	3.0	2.005761797330468	1.112	n/a	stim	poldrack-single-stim	s524	False	1
190.174	0.931	191.105	-3.987007378654576	draw_card	0.931	columbia_card_task_fmri	14.0	0.7857142857142857	89.0	-70.0	0.2142857142857142	16.0	3.0	3.0	2.8731376133431645	0.931	n/a	stim	poldrack-single-stim	s524	False	1
191.109	0.379	191.488	-5.3716227632699605	end_round	0.379	columbia_card_task_fmri	14.0	0.7692307692307692	71.0	-70.0	0.2307692307692307	16.0	4.0	3.0	3.797065385904592	0.379	3.0	stim	poldrack-single-stim	s524	False	1
192.242	1.5	191.491	n/a	-1.0	3.27	columbia_card_task_fmri	n/a	n/a	-1.0	n/a	n/a	n/a	n/a	n/a	n/a	n/a	n/a	ITI	poldrack-single-stim	s524	False	0
194.765	2.886	197.651	-1.7995073786545754	end_round	2.886	columbia_card_task_fmri	11.0	0.6875	71.0	-30.0	0.3125	16.0	1.0	5.0	-12.590227650129991	2.886	0.0	stim	poldrack-single-stim	s524	False	1
198.404	1.5	197.653	n/a	-1.0	2.25	columbia_card_task_fmri	n/a	n/a	-1.0	n/a	n/a	n/a	n/a	n/a	n/a	n/a	n/a	ITI	poldrack-single-stim	s524	False	0
199.908	1.772	201.68	3.012992621345425	draw_card	1.772	columbia_card_task_fmri	15.0	0.8666666666666667	89.0	-75.0	0.1333333333333333	15.0	1.0	2.0	-1.0001208743053134	1.772	n/a	stim	poldrack-single-stim	s524	False	1
201.683	1.03	202.713	2.1558497642025687	draw_card	1.03	columbia_card_task_fmri	15.0	0.8571428571428572	89.0	-75.0	0.1428571428571428	15.0	2.0	2.0	-0.1007984845734917	1.03	2.0	stim	poldrack-single-stim	s524	False	0
203.467	1.5	202.716	n/a	-1.0	2.25	columbia_card_task_fmri	n/a	n/a	-1.0	n/a	n/a	n/a	n/a	n/a	n/a	n/a	n/a	ITI	poldrack-single-stim	s524	False	0
204.971	1.866	206.837	4.746325954678759	draw_card	1.866	columbia_card_task_fmri	17.0	0.8666666666666667	89.0	-75.0	0.1333333333333333	15.0	1.0	2.0	-0.3202516658009351	1.866	n/a	stim	poldrack-single-stim	s524	False	1
206.841	0.623	207.464	3.870135478488284	draw_card	0.623	columbia_card_task_fmri	17.0	0.8571428571428572	89.0	-75.0	0.1428571428571428	15.0	2.0	2.0	0.5990556693882461	0.623	n/a	stim	poldrack-single-stim	s524	False	1
207.467	1.041	208.508	2.8591464674992717	draw_card	1.041	columbia_card_task_fmri	17.0	0.8461538461538461	89.0	-75.0	0.1538461538461538	15.0	3.0	2.0	1.5994733591355974	1.041	3.0	stim	poldrack-single-stim	s524	False	0
209.261	1.5	208.51	n/a	-1.0	2.318	columbia_card_task_fmri	n/a	n/a	-1.0	n/a	n/a	n/a	n/a	n/a	n/a	n/a	n/a	ITI	poldrack-single-stim	s524	False	0
210.833	2.794	213.627	0.3254926213454246	draw_card	2.794	columbia_card_task_fmri	2.0	0.9375	89.0	-25.0	0.0625	16.0	1.0	1.0	-25.058568403586403	2.794	1.0	stim	poldrack-single-stim	s524	False	0
214.381	1.5	213.63	n/a	-1.0	2.726	columbia_card_task_fmri	n/a	n/a	-1.0	n/a	n/a	n/a	n/a	n/a	n/a	n/a	n/a	ITI	poldrack-single-stim	s524	False	0
216.359	2.797	219.156	2.512992621345425	draw_card	2.797	columbia_card_task_fmri	9.0	0.9375	89.0	-95.0	0.0625	16.0	1.0	1.0	-6.419845611572054	2.797	n/a	stim	poldrack-single-stim	s524	False	1
219.16	0.57	219.73	2.079659288012092	end_round	0.57	columbia_card_task_fmri	9.0	0.9333333333333332	71.0	-95.0	0.0666666666666666	16.0	2.0	1.0	-5.652079579514027	0.57	1.0	stim	poldrack-single-stim	s524	False	1
220.485	1.5	219.734	n/a	-1.0	2.386	columbia_card_task_fmri	n/a	n/a	-1.0	n/a	n/a	n/a	n/a	n/a	n/a	n/a	n/a	ITI	poldrack-single-stim	s524	False	0
222.124	1.218	223.342	4.075492621345425	draw_card	1.218	columbia_card_task_fmri	11.0	0.9375	89.0	-100.0	0.0625	16.0	1.0	1.0	-4.725415609042614	1.218	n/a	stim	poldrack-single-stim	s524	False	1
223.346	0.461	223.807	3.612992621345425	draw_card	0.461	columbia_card_task_fmri	11.0	0.9333333333333332	89.0	-100.0	0.0666666666666666	16.0	2.0	1.0	-3.905973004198305	0.461	n/a	stim	poldrack-single-stim	s524	False	1
223.811	0.856	224.667	3.084421192773997	draw_card	0.856	columbia_card_task_fmri	11.0	0.9285714285714286	89.0	-100.0	0.0714285714285714	16.0	3.0	1.0	-3.007366935255586	0.856	n/a	stim	poldrack-single-stim	s524	False	1
224.67	0.393	225.063	2.474531082883887	end_round	0.393	columbia_card_task_fmri	11.0	0.9230769230769232	71.0	-100.0	0.0769230769230769	16.0	4.0	1.0	-2.0161394549188323	0.393	3.0	stim	poldrack-single-stim	s524	False	1
225.817	1.5	225.066	n/a	-1.0	2.318	columbia_card_task_fmri	n/a	n/a	-1.0	n/a	n/a	n/a	n/a	n/a	n/a	n/a	n/a	ITI	poldrack-single-stim	s524	False	0
227.389	1.704	229.093	4.637992621345425	draw_card	1.704	columbia_card_task_fmri	16.0	0.875	89.0	-75.0	0.125	16.0	1.0	2.0	-1.498816746787071	1.704	n/a	stim	poldrack-single-stim	s524	False	1
229.095	0.436	229.531	3.879659288012092	draw_card	0.436	columbia_card_task_fmri	16.0	0.8666666666666667	89.0	-75.0	0.1333333333333333	16.0	2.0	2.0	-0.6601862703826527	0.436	n/a	stim	poldrack-single-stim	s524	False	1
229.535	0.43	229.965	3.0129926213454263	draw_card	0.43	columbia_card_task_fmri	16.0	0.8571428571428572	89.0	-75.0	0.1428571428571428	16.0	3.0	2.0	0.2491285920872634	0.43	3.0	stim	poldrack-single-stim	s524	False	0
230.719	1.5	229.968	n/a	-1.0	2.25	columbia_card_task_fmri	n/a	n/a	-1.0	n/a	n/a	n/a	n/a	n/a	n/a	n/a	n/a	ITI	poldrack-single-stim	s524	False	0
232.223	1.595	233.818	4.887992621345425	draw_card	1.595	columbia_card_task_fmri	17.0	0.875	89.0	-80.0	0.125	16.0	1.0	2.0	0.4854965630340935	1.595	n/a	stim	poldrack-single-stim	s524	False	1
233.822	0.234	234.056	4.079659288012093	draw_card	0.234	columbia_card_task_fmri	17.0	0.8666666666666667	89.0	-80.0	0.1333333333333333	16.0	2.0	2.0	1.3794213662802015	0.234	n/a	stim	poldrack-single-stim	s524	False	1
234.06	0.247	234.307	3.1558497642025705	draw_card	0.247	columbia_card_task_fmri	17.0	0.8571428571428572	89.0	-80.0	0.1428571428571428	16.0	3.0	2.0	2.348691064803784	0.247	n/a	stim	poldrack-single-stim	s524	False	1
234.31	0.564	234.874	2.089915698268501	draw_card	0.564	columbia_card_task_fmri	17.0	0.8461538461538461	89.0	-80.0	0.1538461538461538	16.0	4.0	2.0	3.403479289535337	0.564	4.0	stim	poldrack-single-stim	s524	False	0
235.628	1.5	234.877	n/a	-1.0	2.25	columbia_card_task_fmri	n/a	n/a	-1.0	n/a	n/a	n/a	n/a	n/a	n/a	n/a	n/a	ITI	poldrack-single-stim	s524	False	0
248.134	2.145	250.279	-0.8203407119879075	draw_card	2.145	columbia_card_task_fmri	13.0	0.8333333333333334	89.0	-70.0	0.1666666666666666	6.0	1.0	1.0	-0.6619642972749524	2.145	n/a	stim	poldrack-single-stim	s524	False	1
250.282	0.664	250.946	-3.587007378654575	end_round	0.664	columbia_card_task_fmri	13.0	0.8	71.0	-70.0	0.2	6.0	2.0	1.0	1.6057618275958525	0.664	1.0	stim	poldrack-single-stim	s524	False	1
251.7	1.5	250.949	n/a	-1.0	2.454	columbia_card_task_fmri	n/a	n/a	-1.0	n/a	n/a	n/a	n/a	n/a	n/a	n/a	n/a	ITI	poldrack-single-stim	s524	False	0
253.408	2.188	255.596	-0.8203407119879075	draw_card	2.188	columbia_card_task_fmri	15.0	0.8333333333333334	89.0	-80.0	0.1666666666666666	6.0	1.0	1.0	3.8101713130500015	2.188	1.0	stim	poldrack-single-stim	s524	False	0
256.35	1.5	255.599	n/a	-1.0	2.454	columbia_card_task_fmri	n/a	n/a	-1.0	n/a	n/a	n/a	n/a	n/a	n/a	n/a	n/a	ITI	poldrack-single-stim	s524	False	0
258.058	0.855	258.913	0.8463259546787586	draw_card	0.855	columbia_card_task_fmri	16.0	0.8333333333333334	89.0	-75.0	0.1666666666666666	6.0	1.0	1.0	2.319459432841331	0.855	n/a	stim	poldrack-single-stim	s524	False	1
258.915	1.083	259.998	-2.1870073786545747	end_round	1.083	columbia_card_task_fmri	16.0	0.8	71.0	-75.0	0.2	6.0	2.0	1.0	4.8057616040976505	1.083	1.0	stim	poldrack-single-stim	s524	False	1
260.753	1.5	260.002	n/a	-1.0	2.522	columbia_card_task_fmri	n/a	n/a	-1.0	n/a	n/a	n/a	n/a	n/a	n/a	n/a	n/a	ITI	poldrack-single-stim	s524	False	0
262.529	1.338	263.867	2.012992621345425	draw_card	1.338	columbia_card_task_fmri	21.0	0.75	89.0	-55.0	0.25	8.0	1.0	2.0	1.3147271938876024	1.338	1.0	stim	poldrack-single-stim	s524	False	0
264.621	1.5	263.87	n/a	-1.0	2.386	columbia_card_task_fmri	n/a	n/a	-1.0	n/a	n/a	n/a	n/a	n/a	n/a	n/a	n/a	ITI	poldrack-single-stim	s524	False	0
266.26	1.102	267.362	3.262992621345425	draw_card	1.102	columbia_card_task_fmri	26.0	0.75	89.0	-65.0	0.25	8.0	1.0	2.0	7.809917299505759	1.102	n/a	stim	poldrack-single-stim	s524	False	1
267.366	0.482	267.848	0.0129926213454282	end_round	0.482	columbia_card_task_fmri	26.0	0.7142857142857143	71.0	-65.0	0.2857142857142857	8.0	2.0	2.0	9.51537092064032	0.482	1.0	stim	poldrack-single-stim	s524	False	1
268.602	1.5	267.851	n/a	-1.0	2.454	columbia_card_task_fmri	n/a	n/a	-1.0	n/a	n/a	n/a	n/a	n/a	n/a	n/a	n/a	ITI	poldrack-single-stim	s524	False	0
270.31	1.779	272.089	-1.6536740453212415	draw_card	1.779	columbia_card_task_fmri	15.0	0.7777777777777778	89.0	-60.0	0.2222222222222222	9.0	1.0	2.0	-0.4137597846268015	1.779	1.0	stim	poldrack-single-stim	s524	False	0
272.844	1.5	272.093	n/a	-1.0	2.522	columbia_card_task_fmri	n/a	n/a	-1.0	n/a	n/a	n/a	n/a	n/a	n/a	n/a	n/a	ITI	poldrack-single-stim	s524	False	0
274.619	1.868	276.487	2.7129926213454256	draw_card	1.868	columbia_card_task_fmri	13.0	0.9	89.0	-90.0	0.1	10.0	1.0	1.0	-0.6942379831720622	1.868	n/a	stim	poldrack-single-stim	s524	False	1
276.491	0.669	277.16	1.56854817690098	draw_card	0.669	columbia_card_task_fmri	13.0	0.8888888888888888	89.0	-90.0	0.1111111111111111	10.0	2.0	1.0	0.775538987118285	0.669	n/a	stim	poldrack-single-stim	s524	False	1
277.164	0.392	277.556	0.1379926213454246	end_round	0.392	columbia_card_task_fmri	13.0	0.875	71.0	-90.0	0.125	10.0	3.0	1.0	2.469809893066202	0.392	2.0	stim	poldrack-single-stim	s524	False	1
278.31	1.5	277.559	n/a	-1.0	2.522	columbia_card_task_fmri	n/a	n/a	-1.0	n/a	n/a	n/a	n/a	n/a	n/a	n/a	n/a	ITI	poldrack-single-stim	s524	False	0
280.086	1.3	281.386	4.012992621345425	draw_card	1.3	columbia_card_task_fmri	15.0	0.9	89.0	-95.0	0.1	10.0	1.0	1.0	1.4057618430036776	1.3	n/a	stim	poldrack-single-stim	s524	False	1
281.39	0.754	282.144	2.7907703991232014	end_round	0.754	columbia_card_task_fmri	15.0	0.8888888888888888	71.0	-95.0	0.1111111111111111	10.0	2.0	1.0	2.9754265848781465	0.754	1.0	stim	poldrack-single-stim	s524	False	1
282.899	1.5	282.148	n/a	-1.0	2.59	columbia_card_task_fmri	n/a	n/a	-1.0	n/a	n/a	n/a	n/a	n/a	n/a	n/a	n/a	ITI	poldrack-single-stim	s524	False	0
284.742	1.452	286.194	-0.1870073786545746	draw_card	1.452	columbia_card_task_fmri	16.0	0.8	89.0	-65.0	0.2	10.0	1.0	2.0	0.8057618903684904	1.452	n/a	stim	poldrack-single-stim	s524	False	1
286.199	0.387	286.586	-1.9870073786545737	end_round	0.387	columbia_card_task_fmri	16.0	0.7777777777777778	71.0	-65.0	0.2222222222222222	10.0	2.0	2.0	2.0806782727074413	0.387	1.0	stim	poldrack-single-stim	s524	False	1
287.34	1.5	286.589	n/a	-1.0	2.454	columbia_card_task_fmri	n/a	n/a	-1.0	n/a	n/a	n/a	n/a	n/a	n/a	n/a	n/a	ITI	poldrack-single-stim	s524	False	0
289.048	2.575	291.623	-1.4870073786545754	draw_card	2.575	columbia_card_task_fmri	7.0	0.9166666666666666	89.0	-95.0	0.0833333333333333	12.0	1.0	1.0	-3.4029270026997303	2.575	n/a	stim	poldrack-single-stim	s524	False	1
291.627	0.405	292.032	-2.259734651381849	end_round	0.405	columbia_card_task_fmri	7.0	0.9090909090909092	71.0	-95.0	0.0909090909090909	12.0	2.0	1.0	-2.271299532884281	0.405	1.0	stim	poldrack-single-stim	s524	False	1
292.786	1.5	292.035	n/a	-1.0	2.318	columbia_card_task_fmri	n/a	n/a	-1.0	n/a	n/a	n/a	n/a	n/a	n/a	n/a	n/a	ITI	poldrack-single-stim	s524	False	0
294.358	1.252	295.61	-0.8203407119879075	draw_card	1.252	columbia_card_task_fmri	14.0	0.8333333333333334	89.0	-75.0	0.1666666666666666	12.0	1.0	2.0	1.5741034962692773	1.252	n/a	stim	poldrack-single-stim	s524	False	1
295.614	0.419	296.033	-2.168825560472759	draw_card	0.419	columbia_card_task_fmri	14.0	0.8181818181818181	89.0	-75.0	0.1818181818181818	12.0	2.0	2.0	2.732581849016203	0.419	n/a	stim	poldrack-single-stim	s524	False	1
296.037	0.399	296.436	-3.7870073786545744	end_round	0.399	columbia_card_task_fmri	14.0	0.8	71.0	-75.0	0.2	12.0	3.0	2.0	4.005761656205376	0.399	2.0	stim	poldrack-single-stim	s524	False	1
297.19	1.5	296.439	n/a	-1.0	2.25	columbia_card_task_fmri	n/a	n/a	-1.0	n/a	n/a	n/a	n/a	n/a	n/a	n/a	n/a	ITI	poldrack-single-stim	s524	False	0
298.695	1.211	299.906	0.8463259546787586	draw_card	1.211	columbia_card_task_fmri	15.0	0.8333333333333334	89.0	-70.0	0.1666666666666666	12.0	1.0	2.0	0.0833916310208842	1.211	1.0	stim	poldrack-single-stim	s524	False	0
300.66	1.5	299.909	n/a	-1.0	2.658	columbia_card_task_fmri	n/a	n/a	-1.0	n/a	n/a	n/a	n/a	n/a	n/a	n/a	n/a	ITI	poldrack-single-stim	s524	False	0
302.572	1.466	304.038	-1.1870073786545747	draw_card	1.466	columbia_card_task_fmri	16.0	0.8	89.0	-70.0	0.2	15.0	1.0	3.0	2.80576173891124	1.466	n/a	stim	poldrack-single-stim	s524	False	1
304.043	0.574	304.617	-2.4155788072260043	end_round	0.574	columbia_card_task_fmri	16.0	0.7857142857142857	71.0	-70.0	0.2142857142857142	15.0	2.0	3.0	3.69378936304236	0.574	1.0	stim	poldrack-single-stim	s524	False	1
305.372	1.5	304.621	n/a	-1.0	2.454	columbia_card_task_fmri	n/a	n/a	-1.0	n/a	n/a	n/a	n/a	n/a	n/a	n/a	n/a	ITI	poldrack-single-stim	s524	False	0
307.079	2.805	309.884	-0.7995073786545753	end_round	2.805	columbia_card_task_fmri	14.0	0.8125	71.0	-65.0	0.1875	16.0	1.0	3.0	-0.7595603602933174	2.805	0.0	stim	poldrack-single-stim	s524	False	1
310.64	1.5	309.889	n/a	-1.0	2.386	columbia_card_task_fmri	n/a	n/a	-1.0	n/a	n/a	n/a	n/a	n/a	n/a	n/a	n/a	ITI	poldrack-single-stim	s524	False	0
312.28	1.825	314.105	-1.0495073786545754	draw_card	1.825	columbia_card_task_fmri	16.0	0.8125	89.0	-75.0	0.1875	16.0	1.0	3.0	3.924187777541423	1.825	n/a	stim	poldrack-single-stim	s524	False	1
314.108	0.421	314.529	-2.1870073786545747	end_round	0.421	columbia_card_task_fmri	16.0	0.8	71.0	-75.0	0.2	16.0	2.0	3.0	4.8057616040976505	0.421	1.0	stim	poldrack-single-stim	s524	False	1
315.284	1.5	314.533	n/a	-1.0	2.59	columbia_card_task_fmri	n/a	n/a	-1.0	n/a	n/a	n/a	n/a	n/a	n/a	n/a	n/a	ITI	poldrack-single-stim	s524	False	0
317.129	1.471	318.6	3.2129926213454256	draw_card	1.471	columbia_card_task_fmri	16.0	0.8666666666666667	89.0	-80.0	0.1333333333333333	15.0	1.0	2.0	1.0394867587046654	1.471	1.0	stim	poldrack-single-stim	s524	False	0
319.354	1.5	318.603	n/a	-1.0	2.318	columbia_card_task_fmri	n/a	n/a	-1.0	n/a	n/a	n/a	n/a	n/a	n/a	n/a	n/a	ITI	poldrack-single-stim	s524	False	0
320.927	1.691	322.618	4.079659288012093	draw_card	1.691	columbia_card_task_fmri	17.0	0.8666666666666667	89.0	-80.0	0.1333333333333333	15.0	1.0	2.0	1.3794213662802015	1.691	n/a	stim	poldrack-single-stim	s524	False	1
322.622	0.463	323.085	3.1558497642025705	draw_card	0.463	columbia_card_task_fmri	17.0	0.8571428571428572	89.0	-80.0	0.1428571428571428	15.0	2.0	2.0	2.348691064803784	0.463	n/a	stim	poldrack-single-stim	s524	False	1
323.089	0.367	323.456	2.089915698268501	draw_card	0.367	columbia_card_task_fmri	17.0	0.8461538461538461	89.0	-80.0	0.1538461538461538	15.0	3.0	2.0	3.403479289535337	0.367	n/a	stim	poldrack-single-stim	s524	False	1
323.461	0.393	323.854	0.8463259546787604	end_round	0.393	columbia_card_task_fmri	17.0	0.8333333333333334	71.0	-80.0	0.1666666666666666	15.0	4.0	2.0	4.555527256395305	0.393	3.0	stim	poldrack-single-stim	s524	False	1
324.608	1.5	323.857	n/a	-1.0	2.59	columbia_card_task_fmri	n/a	n/a	-1.0	n/a	n/a	n/a	n/a	n/a	n/a	n/a	n/a	ITI	poldrack-single-stim	s524	False	0
326.453	2.479	328.932	0.0129926213454246	end_round	2.479	columbia_card_task_fmri	1.0	0.9375	71.0	-15.0	0.0625	16.0	1.0	1.0	-27.72123557550413	2.479	0.0	stim	poldrack-single-stim	s524	False	1
329.687	1.5	328.936	n/a	-1.0	2.386	columbia_card_task_fmri	n/a	n/a	-1.0	n/a	n/a	n/a	n/a	n/a	n/a	n/a	n/a	ITI	poldrack-single-stim	s524	False	0
331.326	1.468	332.794	3.137992621345425	draw_card	1.468	columbia_card_task_fmri	10.0	0.9375	89.0	-100.0	0.0625	16.0	1.0	1.0	-4.9674770396229455	1.468	n/a	stim	poldrack-single-stim	s524	False	1
332.799	1.776	334.575	2.6796592880120915	end_round	1.776	columbia_card_task_fmri	10.0	0.9333333333333332	71.0	-100.0	0.0666666666666666	16.0	2.0	1.0	-4.155416802270775	1.776	1.0	stim	poldrack-single-stim	s524	False	1
335.33	1.5	334.579	n/a	-1.0	2.318	columbia_card_task_fmri	n/a	n/a	-1.0	n/a	n/a	n/a	n/a	n/a	n/a	n/a	n/a	ITI	poldrack-single-stim	s524	False	0
336.903	1.206	338.109	3.762992621345425	draw_card	1.206	columbia_card_task_fmri	15.0	0.875	89.0	-75.0	0.125	16.0	1.0	2.0	-1.8295356295084844	1.206	1.0	stim	poldrack-single-stim	s524	False	0
338.864	1.5	338.113	n/a	-1.0	2.318	columbia_card_task_fmri	n/a	n/a	-1.0	n/a	n/a	n/a	n/a	n/a	n/a	n/a	n/a	ITI	poldrack-single-stim	s524	False	0
340.436	0.95	341.386	4.012992621345425	draw_card	0.95	columbia_card_task_fmri	16.0	0.875	89.0	-80.0	0.125	16.0	1.0	2.0	0.1547776765580231	0.95	n/a	stim	poldrack-single-stim	s524	False	1
341.39	1.026	342.416	3.2129926213454256	draw_card	1.026	columbia_card_task_fmri	16.0	0.8666666666666667	89.0	-80.0	0.1333333333333333	16.0	2.0	2.0	1.0394867587046654	1.026	n/a	stim	poldrack-single-stim	s524	False	1
342.421	0.93	343.351	2.298706907059713	draw_card	0.93	columbia_card_task_fmri	16.0	0.8571428571428572	89.0	-80.0	0.1428571428571428	16.0	3.0	2.0	1.9987639845944791	0.93	n/a	stim	poldrack-single-stim	s524	False	1
343.355	1.426	344.781	1.2437618521146545	draw_card	1.426	columbia_card_task_fmri	16.0	0.8461538461538461	89.0	-80.0	0.1538461538461538	16.0	4.0	2.0	3.042678102363137	1.426	n/a	stim	poldrack-single-stim	s524	False	1
344.786	0.462	345.248	0.0129926213454264	end_round	0.462	columbia_card_task_fmri	16.0	0.8333333333333334	71.0	-80.0	0.1666666666666666	16.0	5.0	2.0	4.182849284466638	0.462	4.0	stim	poldrack-single-stim	s524	False	1
346.003	1.5	345.252	n/a	-1.0	2.318	columbia_card_task_fmri	n/a	n/a	-1.0	n/a	n/a	n/a	n/a	n/a	n/a	n/a	n/a	ITI	poldrack-single-stim	s524	False	0
347.575	2.253	349.828	1.2004926213454246	draw_card	2.253	columbia_card_task_fmri	4.0	0.6875	89.0	-5.0	0.3125	16.0	1.0	5.0	-27.4226088327814	2.253	n/a	stim	poldrack-single-stim	s524	False	1
349.833	0.84	350.673	1.012992621345425	draw_card	0.84	columbia_card_task_fmri	4.0	0.6666666666666667	89.0	-5.0	0.3333333333333333	16.0	2.0	5.0	-27.35158013338545	0.84	n/a	stim	poldrack-single-stim	s524	False	1
350.678	0.497	351.175	0.79870690705971	draw_card	0.497	columbia_card_task_fmri	4.0	0.6428571428571428	89.0	-5.0	0.3571428571428571	16.0	3.0	5.0	-27.281804328647333	0.497	n/a	stim	poldrack-single-stim	s524	False	1
351.18	1.145	352.325	0.5514541598069632	draw_card	1.145	columbia_card_task_fmri	4.0	0.6153846153846154	89.0	-5.0	0.3846153846153846	16.0	4.0	5.0	-27.215683139267497	1.145	n/a	stim	poldrack-single-stim	s524	False	1
352.33	0.547	352.877	0.2629926213454242	end_round	0.547	columbia_card_task_fmri	4.0	0.5833333333333333	71.0	-5.0	0.4166666666666667	16.0	5.0	5.0	-27.15716185488224	0.547	4.0	stim	poldrack-single-stim	s524	False	1
353.633	1.5	352.882	n/a	-1.0	2.386	columbia_card_task_fmri	n/a	n/a	-1.0	n/a	n/a	n/a	n/a	n/a	n/a	n/a	n/a	ITI	poldrack-single-stim	s524	False	0
355.273	1.564	356.837	-1.6536740453212395	draw_card	1.564	columbia_card_task_fmri	14.0	0.8333333333333334	89.0	-80.0	0.1666666666666666	6.0	1.0	1.0	3.437493342161733	1.564	n/a	stim	poldrack-single-stim	s524	False	1
356.842	0.679	357.521	-4.787007378654574	end_round	0.679	columbia_card_task_fmri	14.0	0.8	71.0	-80.0	0.2	6.0	2.0	1.0	6.005761530093583	0.679	1.0	stim	poldrack-single-stim	s524	False	1
358.275	1.5	357.524	n/a	-1.0	2.25	columbia_card_task_fmri	n/a	n/a	-1.0	n/a	n/a	n/a	n/a	n/a	n/a	n/a	n/a	ITI	poldrack-single-stim	s524	False	0
359.78	1.482	361.262	0.0129926213454246	draw_card	1.482	columbia_card_task_fmri	15.0	0.8333333333333334	89.0	-75.0	0.1666666666666666	6.0	1.0	1.0	1.9467814642445909	1.482	n/a	stim	poldrack-single-stim	s524	False	1
361.267	0.41	361.677	-2.9870073786545754	end_round	0.41	columbia_card_task_fmri	15.0	0.8	71.0	-75.0	0.2	6.0	2.0	1.0	4.405761629862024	0.41	1.0	stim	poldrack-single-stim	s524	False	1
362.431	1.5	361.68	n/a	-1.0	2.386	columbia_card_task_fmri	n/a	n/a	-1.0	n/a	n/a	n/a	n/a	n/a	n/a	n/a	n/a	ITI	poldrack-single-stim	s524	False	0
364.072	1.427	365.499	1.6796592880120924	draw_card	1.427	columbia_card_task_fmri	16.0	0.8333333333333334	89.0	-70.0	0.1666666666666666	6.0	1.0	1.0	0.4560695962886392	1.427	n/a	stim	poldrack-single-stim	s524	False	1
365.504	0.394	365.898	-1.1870073786545747	end_round	0.394	columbia_card_task_fmri	16.0	0.8	71.0	-70.0	0.2	6.0	2.0	1.0	2.80576173891124	0.394	1.0	stim	poldrack-single-stim	s524	False	1
366.653	1.5	365.902	n/a	-1.0	2.59	columbia_card_task_fmri	n/a	n/a	-1.0	n/a	n/a	n/a	n/a	n/a	n/a	n/a	n/a	ITI	poldrack-single-stim	s524	False	0
368.497	1.215	369.712	2.262992621345425	draw_card	1.215	columbia_card_task_fmri	23.0	0.75	89.0	-60.0	0.25	8.0	1.0	2.0	4.3458158908268025	1.215	n/a	stim	poldrack-single-stim	s524	False	1
369.716	0.908	370.624	-0.7012930929402871	draw_card	0.908	columbia_card_task_fmri	23.0	0.7142857142857143	89.0	-60.0	0.2857142857142857	8.0	2.0	2.0	5.9013395069130645	0.908	n/a	stim	poldrack-single-stim	s524	False	1
370.629	0.405	371.034	-4.65367404532124	end_round	0.405	columbia_card_task_fmri	23.0	0.6666666666666667	71.0	-60.0	0.3333333333333333	8.0	3.0	2.0	7.532336668165765	0.405	2.0	stim	poldrack-single-stim	s524	False	1
371.788	1.5	371.037	n/a	-1.0	2.658	columbia_card_task_fmri	n/a	n/a	-1.0	n/a	n/a	n/a	n/a	n/a	n/a	n/a	n/a	ITI	poldrack-single-stim	s524	False	0
373.701	1.32	375.021	2.762992621345425	draw_card	1.32	columbia_card_task_fmri	27.0	0.75	89.0	-70.0	0.25	8.0	1.0	2.0	10.407993378363605	1.32	1.0	stim	poldrack-single-stim	s524	False	0
375.776	1.5	375.025	n/a	-1.0	2.386	columbia_card_task_fmri	n/a	n/a	-1.0	n/a	n/a	n/a	n/a	n/a	n/a	n/a	n/a	ITI	poldrack-single-stim	s524	False	0
377.417	1.313	378.73	-1.9870073786545737	draw_card	1.313	columbia_card_task_fmri	16.0	0.7777777777777778	89.0	-65.0	0.2222222222222222	9.0	1.0	2.0	2.0806782727074413	1.313	n/a	stim	poldrack-single-stim	s524	False	1
378.735	0.517	379.252	-4.237007378654575	draw_card	0.517	columbia_card_task_fmri	16.0	0.75	89.0	-65.0	0.25	9.0	2.0	2.0	3.4797905450292426	0.517	2.0	stim	poldrack-single-stim	s524	False	0
380.007	1.5	379.256	n/a	-1.0	2.386	columbia_card_task_fmri	n/a	n/a	-1.0	n/a	n/a	n/a	n/a	n/a	n/a	n/a	n/a	ITI	poldrack-single-stim	s524	False	0
381.648	1.999	383.647	3.2129926213454256	draw_card	1.999	columbia_card_task_fmri	13.0	0.9	89.0	-85.0	0.1	10.0	1.0	1.0	-2.1942378438085903	1.999	n/a	stim	poldrack-single-stim	s524	False	1
383.651	0.431	384.082	2.1241037324565357	draw_card	0.431	columbia_card_task_fmri	13.0	0.8888888888888888	89.0	-85.0	0.1111111111111111	10.0	2.0	1.0	-0.7958092824829315	0.431	n/a	stim	poldrack-single-stim	s524	False	1
384.087	0.348	384.435	0.7629926213454247	end_round	0.348	columbia_card_task_fmri	13.0	0.875	71.0	-85.0	0.125	10.0	3.0	1.0	0.816215450069496	0.348	2.0	stim	poldrack-single-stim	s524	False	1
385.191	1.5	384.44	n/a	-1.0	2.25	columbia_card_task_fmri	n/a	n/a	-1.0	n/a	n/a	n/a	n/a	n/a	n/a	n/a	n/a	ITI	poldrack-single-stim	s524	False	0
386.697	1.047	387.744	-1.7870073786545744	draw_card	1.047	columbia_card_task_fmri	14.0	0.8	89.0	-65.0	0.2	10.0	1.0	2.0	0.0057619563194961	1.047	n/a	stim	poldrack-single-stim	s524	False	1
387.75	0.566	388.316	-3.542562934210129	end_round	0.566	columbia_card_task_fmri	14.0	0.7777777777777778	71.0	-65.0	0.2222222222222222	10.0	2.0	2.0	1.2491989168784663	0.566	1.0	stim	poldrack-single-stim	s524	False	1
389.072	1.5	388.321	n/a	-1.0	2.318	columbia_card_task_fmri	n/a	n/a	-1.0	n/a	n/a	n/a	n/a	n/a	n/a	n/a	n/a	ITI	poldrack-single-stim	s524	False	0
390.645	1.012	391.657	-0.3870073786545739	draw_card	1.012	columbia_card_task_fmri	17.0	0.8	89.0	-70.0	0.2	10.0	1.0	2.0	3.20576171070886	1.012	n/a	stim	poldrack-single-stim	s524	False	1
391.661	0.289	391.95	-2.320340711987908	draw_card	0.289	columbia_card_task_fmri	17.0	0.7777777777777778	89.0	-70.0	0.2222222222222222	10.0	2.0	2.0	4.575116357698928	0.289	n/a	stim	poldrack-single-stim	s524	False	1
391.955	0.332	392.287	-4.737007378654575	end_round	0.332	columbia_card_task_fmri	17.0	0.75	71.0	-70.0	0.25	10.0	3.0	2.0	6.077866590420097	0.332	2.0	stim	poldrack-single-stim	s524	False	1
393.042	1.5	392.291	n/a	-1.0	2.25	columbia_card_task_fmri	n/a	n/a	-1.0	n/a	n/a	n/a	n/a	n/a	n/a	n/a	n/a	ITI	poldrack-single-stim	s524	False	0
394.546	1.084	395.63	-1.6536740453212415	draw_card	1.084	columbia_card_task_fmri	13.0	0.8333333333333334	89.0	-75.0	0.1666666666666666	12.0	1.0	2.0	1.2014255289365785	1.084	1.0	stim	poldrack-single-stim	s524	False	0
396.386	1.5	395.635	n/a	-1.0	2.25	columbia_card_task_fmri	n/a	n/a	-1.0	n/a	n/a	n/a	n/a	n/a	n/a	n/a	n/a	ITI	poldrack-single-stim	s524	False	0
397.89	1.188	399.078	0.0129926213454264	draw_card	1.188	columbia_card_task_fmri	14.0	0.8333333333333334	89.0	-70.0	0.1666666666666666	12.0	1.0	2.0	-0.2892863335091995	1.188	n/a	stim	poldrack-single-stim	s524	False	1
399.083	0.152	399.235	-1.2597346513818506	draw_card	0.152	columbia_card_task_fmri	14.0	0.8181818181818181	89.0	-70.0	0.1818181818181818	12.0	2.0	2.0	0.8041089557759413	0.152	n/a	stim	poldrack-single-stim	s524	False	1
399.24	0.208	399.448	-2.7870073786545744	end_round	0.208	columbia_card_task_fmri	14.0	0.8	71.0	-70.0	0.2	12.0	3.0	2.0	2.005761797330468	0.208	2.0	stim	poldrack-single-stim	s524	False	1
400.204	1.5	399.453	n/a	-1.0	2.386	columbia_card_task_fmri	n/a	n/a	-1.0	n/a	n/a	n/a	n/a	n/a	n/a	n/a	n/a	ITI	poldrack-single-stim	s524	False	0
401.846	3.236	405.082	0.0129926213454264	draw_card	3.236	columbia_card_task_fmri	16.0	0.8333333333333334	89.0	-80.0	0.1666666666666666	12.0	1.0	2.0	4.182849284466638	3.236	n/a	stim	poldrack-single-stim	s524	False	1
405.086	0.402	405.488	-1.4415528332000322	draw_card	0.402	columbia_card_task_fmri	16.0	0.8181818181818181	89.0	-80.0	0.1818181818181818	12.0	2.0	2.0	5.432443925165462	0.402	n/a	stim	poldrack-single-stim	s524	False	1
405.494	0.4	405.894	-3.1870073786545747	end_round	0.4	columbia_card_task_fmri	16.0	0.8	71.0	-80.0	0.2	12.0	3.0	2.0	6.805761483327135	0.4	2.0	stim	poldrack-single-stim	s524	False	1
406.65	1.5	405.899	n/a	-1.0	2.386	columbia_card_task_fmri	n/a	n/a	-1.0	n/a	n/a	n/a	n/a	n/a	n/a	n/a	n/a	ITI	poldrack-single-stim	s524	False	0
408.291	0.742	409.033	-0.1870073786545746	draw_card	0.742	columbia_card_task_fmri	16.0	0.8	89.0	-65.0	0.2	15.0	1.0	3.0	0.8057618903684904	0.742	n/a	stim	poldrack-single-stim	s524	False	1
409.038	0.355	409.393	-1.344150235797431	draw_card	0.355	columbia_card_task_fmri	16.0	0.7857142857142857	89.0	-65.0	0.2142857142857142	15.0	2.0	3.0	1.6421599940674447	0.355	2.0	stim	poldrack-single-stim	s524	False	0
410.148	1.5	409.397	n/a	-1.0	2.726	columbia_card_task_fmri	n/a	n/a	-1.0	n/a	n/a	n/a	n/a	n/a	n/a	n/a	n/a	ITI	poldrack-single-stim	s524	False	0
412.13	1.496	413.626	-1.8620073786545757	draw_card	1.496	columbia_card_task_fmri	15.0	0.8125	89.0	-75.0	0.1875	16.0	1.0	3.0	3.533875429045377	1.496	n/a	stim	poldrack-single-stim	s524	False	1
413.631	1.033	414.664	-2.9870073786545754	draw_card	1.033	columbia_card_task_fmri	15.0	0.8	89.0	-75.0	0.2	16.0	2.0	3.0	4.405761629862024	1.033	n/a	stim	poldrack-single-stim	s524	False	1
414.67	0.356	415.026	-4.27272166436886	draw_card	0.356	columbia_card_task_fmri	15.0	0.7857142857142857	89.0	-75.0	0.2142857142857142	16.0	3.0	3.0	5.335092870033957	0.356	3.0	stim	poldrack-single-stim	s524	False	0
415.782	1.5	415.031	n/a	-1.0	2.454	columbia_card_task_fmri	n/a	n/a	-1.0	n/a	n/a	n/a	n/a	n/a	n/a	n/a	n/a	ITI	poldrack-single-stim	s524	False	0
417.49	0.969	418.459	-1.2995073786545754	draw_card	0.969	columbia_card_task_fmri	14.0	0.6875	89.0	-35.0	0.3125	16.0	1.0	5.0	-8.882129131705906	0.969	n/a	stim	poldrack-single-stim	s524	False	1
418.465	0.215	418.68	-2.320340711987908	draw_card	0.215	columbia_card_task_fmri	14.0	0.6666666666666667	89.0	-35.0	0.3333333333333333	16.0	2.0	5.0	-8.495415541892338	0.215	n/a	stim	poldrack-single-stim	s524	False	1
418.684	0.207	418.891	-3.4870073786545754	draw_card	0.207	columbia_card_task_fmri	14.0	0.6428571428571428	89.0	-35.0	0.3571428571428571	16.0	3.0	5.0	-8.11552335602855	0.207	3.0	stim	poldrack-single-stim	s524	False	0
419.647	1.5	418.896	n/a	-1.0	2.318	columbia_card_task_fmri	n/a	n/a	-1.0	n/a	n/a	n/a	n/a	n/a	n/a	n/a	n/a	ITI	poldrack-single-stim	s524	False	0
421.22	1.107	422.327	3.879659288012092	draw_card	1.107	columbia_card_task_fmri	16.0	0.8666666666666667	89.0	-75.0	0.1333333333333333	15.0	1.0	2.0	-0.6601862703826527	1.107	n/a	stim	poldrack-single-stim	s524	False	1
422.332	0.285	422.617	3.0129926213454263	draw_card	0.285	columbia_card_task_fmri	16.0	0.8571428571428572	89.0	-75.0	0.1428571428571428	15.0	2.0	2.0	0.2491285920872634	0.285	n/a	stim	poldrack-single-stim	s524	False	1
422.621	0.638	423.259	2.012992621345425	draw_card	0.638	columbia_card_task_fmri	16.0	0.8461538461538461	89.0	-75.0	0.1538461538461538	15.0	3.0	2.0	1.2386721747840532	0.638	n/a	stim	poldrack-single-stim	s524	False	1
423.265	0.337	423.602	0.8463259546787586	end_round	0.337	columbia_card_task_fmri	16.0	0.8333333333333334	71.0	-75.0	0.1666666666666666	15.0	4.0	2.0	2.319459432841331	0.337	3.0	stim	poldrack-single-stim	s524	False	1
424.359	1.5	423.608	n/a	-1.0	2.318	columbia_card_task_fmri	n/a	n/a	-1.0	n/a	n/a	n/a	n/a	n/a	n/a	n/a	n/a	ITI	poldrack-single-stim	s524	False	0
425.931	1.21	427.141	4.546325954678758	draw_card	1.21	columbia_card_task_fmri	16.0	0.8666666666666667	89.0	-70.0	0.1333333333333333	15.0	1.0	2.0	-2.3598592829455214	1.21	n/a	stim	poldrack-single-stim	s524	False	1
427.146	0.242	427.388	3.72727833563114	draw_card	0.242	columbia_card_task_fmri	16.0	0.8571428571428572	89.0	-70.0	0.1428571428571428	15.0	2.0	2.0	-1.5005067843673814	0.242	n/a	stim	poldrack-single-stim	s524	False	1
427.393	0.207	427.6	2.782223390576193	draw_card	0.207	columbia_card_task_fmri	16.0	0.8461538461538461	89.0	-70.0	0.1538461538461538	15.0	3.0	2.0	-0.5653337372262541	0.207	n/a	stim	poldrack-single-stim	s524	False	1
427.604	0.191	427.795	1.6796592880120924	draw_card	0.191	columbia_card_task_fmri	16.0	0.8333333333333334	89.0	-70.0	0.1666666666666666	15.0	4.0	2.0	0.4560695962886392	0.191	n/a	stim	poldrack-single-stim	s524	False	1
427.8	0.368	428.168	0.3766289849817862	end_round	0.368	columbia_card_task_fmri	16.0	0.8181818181818181	71.0	-70.0	0.1818181818181818	15.0	5.0	2.0	1.5754981110298196	0.368	4.0	stim	poldrack-single-stim	s524	False	1
428.923	1.5	428.172	n/a	-1.0	2.59	columbia_card_task_fmri	n/a	n/a	-1.0	n/a	n/a	n/a	n/a	n/a	n/a	n/a	n/a	ITI	poldrack-single-stim	s524	False	0
430.768	1.459	432.227	1.8879926213454248	draw_card	1.459	columbia_card_task_fmri	8.0	0.9375	89.0	-90.0	0.0625	16.0	1.0	1.0	-7.872214161127857	1.459	n/a	stim	poldrack-single-stim	s524	False	1
432.232	0.337	432.569	1.4796592880120911	end_round	0.337	columbia_card_task_fmri	8.0	0.9333333333333332	71.0	-90.0	0.0666666666666666	16.0	2.0	1.0	-7.148742335026714	0.337	1.0	stim	poldrack-single-stim	s524	False	1
433.325	1.5	432.574	n/a	-1.0	2.726	columbia_card_task_fmri	n/a	n/a	-1.0	n/a	n/a	n/a	n/a	n/a	n/a	n/a	n/a	ITI	poldrack-single-stim	s524	False	0
435.308	1.291	436.599	3.450492621345425	draw_card	1.291	columbia_card_task_fmri	10.0	0.9375	89.0	-95.0	0.0625	16.0	1.0	1.0	-6.177784184365287	1.291	n/a	stim	poldrack-single-stim	s524	False	1
436.606	0.445	437.051	3.012992621345425	end_round	0.445	columbia_card_task_fmri	10.0	0.9333333333333332	71.0	-95.0	0.0666666666666666	16.0	2.0	1.0	-5.40263578471528	0.445	1.0	stim	poldrack-single-stim	s524	False	1
437.807	1.5	437.056	n/a	-1.0	2.522	columbia_card_task_fmri	n/a	n/a	-1.0	n/a	n/a	n/a	n/a	n/a	n/a	n/a	n/a	ITI	poldrack-single-stim	s524	False	0
439.584	1.283	440.867	4.387992621345425	draw_card	1.283	columbia_card_task_fmri	15.0	0.875	89.0	-70.0	0.125	16.0	1.0	2.0	-3.483130032117326	1.283	n/a	stim	poldrack-single-stim	s524	False	1
440.873	0.221	441.094	3.67965928801209	draw_card	0.221	columbia_card_task_fmri	15.0	0.8666666666666667	89.0	-70.0	0.1333333333333333	16.0	2.0	2.0	-2.699793883218554	0.221	2.0	stim	poldrack-single-stim	s524	False	0
441.849	1.5	441.098	n/a	-1.0	3.134	columbia_card_task_fmri	n/a	n/a	-1.0	n/a	n/a	n/a	n/a	n/a	n/a	n/a	n/a	ITI	poldrack-single-stim	s524	False	0
444.24	1.504	445.744	3.387992621345425	draw_card	1.504	columbia_card_task_fmri	16.0	0.875	89.0	-85.0	0.125	16.0	1.0	2.0	1.8083721143655147	1.504	n/a	stim	poldrack-single-stim	s524	False	1
445.748	0.198	445.946	2.5463259546787578	draw_card	0.198	columbia_card_task_fmri	16.0	0.8666666666666667	89.0	-85.0	0.1333333333333333	16.0	2.0	2.0	2.7391598018623178	0.198	n/a	stim	poldrack-single-stim	s524	False	1
445.952	0.203	446.155	1.5844211927739975	draw_card	0.203	columbia_card_task_fmri	16.0	0.8571428571428572	89.0	-85.0	0.1428571428571428	16.0	3.0	2.0	3.748399390770235	0.203	n/a	stim	poldrack-single-stim	s524	False	1
446.16	0.424	446.584	0.4745310828838845	end_round	0.424	columbia_card_task_fmri	16.0	0.8461538461538461	71.0	-85.0	0.1538461538461538	16.0	4.0	2.0	4.846684043198795	0.424	3.0	stim	poldrack-single-stim	s524	False	1
447.34	1.5	446.589	n/a	-1.0	2.386	columbia_card_task_fmri	n/a	n/a	-1.0	n/a	n/a	n/a	n/a	n/a	n/a	n/a	n/a	ITI	poldrack-single-stim	s524	False	0
