onset	duration	movement_onset	EV	action	block_duration	experiment_exp_id	gain_amount	gain_probability	key_press	loss_amount	loss_probability	num_cards	num_click_in_round	num_loss_cards	risk	response_time	total_cards	trial_id	trial_type	worker_id	junk	feedback
3.008	1.466	4.474	-1.4967407712537582	draw_card	1.466	columbia_card_task_fmri	12.0	0.8333333333333334	89.0	-70.0	0.1666666666666666	6.0	1.0	1.0	-1.0026343068372157	1.466	1.0	stim	poldrack-single-stim	s525	False	0
5.227	1.5	4.476	n/a	-1.0	2.318	columbia_card_task_fmri	n/a	n/a	-1.0	n/a	n/a	n/a	n/a	n/a	n/a	n/a	n/a	ITI	poldrack-single-stim	s525	False	0
6.798	1.454	8.252	-0.6634074379204242	draw_card	1.454	columbia_card_task_fmri	14.0	0.8333333333333334	89.0	-75.0	0.1666666666666666	6.0	1.0	1.0	1.6060745099445557	1.454	n/a	stim	poldrack-single-stim	s525	False	1
8.253	1.879	10.132	-3.630074104587091	draw_card	1.879	columbia_card_task_fmri	14.0	0.8	89.0	-75.0	0.2	6.0	2.0	1.0	4.037703112667543	1.879	n/a	stim	poldrack-single-stim	s525	False	1
10.134	1.924	12.058	-8.080074104587093	end_round	1.924	columbia_card_task_fmri	14.0	0.75	71.0	-75.0	0.25	6.0	3.0	1.0	6.975802662981636	1.924	2.0	stim	poldrack-single-stim	s525	False	1
12.81	1.5	12.059	n/a	-1.0	2.318	columbia_card_task_fmri	n/a	n/a	-1.0	n/a	n/a	n/a	n/a	n/a	n/a	n/a	n/a	ITI	poldrack-single-stim	s525	False	0
14.379	2.095	16.474	1.0032592287462418	draw_card	2.095	columbia_card_task_fmri	15.0	0.8333333333333334	89.0	-70.0	0.1666666666666666	6.0	1.0	1.0	0.1153830081297329	2.095	n/a	stim	poldrack-single-stim	s525	False	1
16.475	1.936	18.411	-1.830074104587092	draw_card	1.936	columbia_card_task_fmri	15.0	0.8	89.0	-70.0	0.2	6.0	2.0	1.0	2.4377221968003653	1.936	n/a	stim	poldrack-single-stim	s525	False	1
18.413	2.148	20.561	-6.0800741045870925	draw_card	2.148	columbia_card_task_fmri	15.0	0.75	89.0	-70.0	0.25	6.0	3.0	1.0	5.243769484625815	2.148	n/a	stim	poldrack-single-stim	s525	False	1
20.562	0.801	21.363	-13.163407437920425	end_round	0.801	columbia_card_task_fmri	15.0	0.6666666666666667	71.0	-70.0	0.3333333333333333	6.0	4.0	1.0	8.507042145639652	0.801	3.0	stim	poldrack-single-stim	s525	False	1
22.117	1.5	21.366	n/a	-1.0	2.862	columbia_card_task_fmri	n/a	n/a	-1.0	n/a	n/a	n/a	n/a	n/a	n/a	n/a	n/a	ITI	poldrack-single-stim	s525	False	0
24.231	1.452	25.683	1.836592562079576	draw_card	1.452	columbia_card_task_fmri	17.0	0.8333333333333334	89.0	-75.0	0.1666666666666666	6.0	1.0	1.0	2.724094305160719	1.452	1.0	stim	poldrack-single-stim	s525	False	0
26.434	1.5	25.683	n/a	-1.0	2.726	columbia_card_task_fmri	n/a	n/a	-1.0	n/a	n/a	n/a	n/a	n/a	n/a	n/a	n/a	ITI	poldrack-single-stim	s525	False	0
28.413	1.98	30.393	3.169925895412908	draw_card	1.98	columbia_card_task_fmri	24.0	0.75	89.0	-60.0	0.25	8.0	1.0	2.0	4.810761452372141	1.98	n/a	stim	poldrack-single-stim	s525	False	1
30.395	1.398	31.793	0.1699258954129079	draw_card	1.398	columbia_card_task_fmri	24.0	0.7142857142857143	89.0	-60.0	0.2857142857142857	8.0	2.0	2.0	6.385009949034085	1.398	n/a	stim	poldrack-single-stim	s525	False	1
31.795	2.091	33.886	-3.830074104587092	draw_card	2.091	columbia_card_task_fmri	24.0	0.6666666666666667	89.0	-60.0	0.3333333333333333	8.0	3.0	2.0	8.035641914196361	2.091	3.0	stim	poldrack-single-stim	s525	False	0
34.639	1.5	33.888	n/a	-1.0	2.25	columbia_card_task_fmri	n/a	n/a	-1.0	n/a	n/a	n/a	n/a	n/a	n/a	n/a	n/a	ITI	poldrack-single-stim	s525	False	0
36.14	1.959	38.099	3.169925895412908	draw_card	1.959	columbia_card_task_fmri	29.0	0.75	89.0	-75.0	0.25	8.0	1.0	2.0	13.470939159376227	1.959	n/a	stim	poldrack-single-stim	s525	False	1
38.101	1.42	39.521	-0.5443598188728038	draw_card	1.42	columbia_card_task_fmri	29.0	0.7142857142857143	89.0	-75.0	0.2857142857142857	8.0	2.0	2.0	15.420015813791451	1.42	n/a	stim	poldrack-single-stim	s525	False	1
39.522	0.783	40.305	-5.496740771253757	end_round	0.783	columbia_card_task_fmri	29.0	0.6666666666666667	71.0	-75.0	0.3333333333333333	8.0	3.0	2.0	17.46366221551606	0.783	2.0	stim	poldrack-single-stim	s525	False	1
41.058	1.5	40.307	n/a	-1.0	2.318	columbia_card_task_fmri	n/a	n/a	-1.0	n/a	n/a	n/a	n/a	n/a	n/a	n/a	n/a	ITI	poldrack-single-stim	s525	False	0
42.628	0.663	43.291	-1.0522963268093115	draw_card	0.663	columbia_card_task_fmri	17.0	0.7777777777777778	89.0	-65.0	0.2222222222222222	9.0	1.0	2.0	2.528377258224701	0.663	n/a	stim	poldrack-single-stim	s525	False	1
43.293	1.797	45.09	-3.330074104587092	draw_card	1.797	columbia_card_task_fmri	17.0	0.75	89.0	-65.0	0.25	9.0	2.0	2.0	3.9447457295399104	1.797	n/a	stim	poldrack-single-stim	s525	False	1
45.092	1.999	47.091	-6.25864553315852	end_round	1.999	columbia_card_task_fmri	17.0	0.7142857142857143	71.0	-65.0	0.2857142857142857	9.0	3.0	2.0	5.481511325474308	1.999	2.0	stim	poldrack-single-stim	s525	False	1
47.843	1.5	47.092	n/a	-1.0	2.454	columbia_card_task_fmri	n/a	n/a	-1.0	n/a	n/a	n/a	n/a	n/a	n/a	n/a	n/a	ITI	poldrack-single-stim	s525	False	0
49.549	0.661	50.21	3.269925895412908	draw_card	0.661	columbia_card_task_fmri	14.0	0.9	89.0	-95.0	0.1	10.0	1.0	1.0	1.137739077768792	0.661	n/a	stim	poldrack-single-stim	s525	False	1
50.211	1.715	51.926	2.0588147843017954	draw_card	1.715	columbia_card_task_fmri	14.0	0.8888888888888888	89.0	-95.0	0.1111111111111111	10.0	2.0	1.0	2.6931142084646424	1.715	n/a	stim	poldrack-single-stim	s525	False	1
51.928	1.814	53.742	0.5449258954129079	draw_card	1.814	columbia_card_task_fmri	14.0	0.875	89.0	-95.0	0.125	10.0	3.0	1.0	4.486059681926939	1.814	n/a	stim	poldrack-single-stim	s525	False	1
53.744	1.63	55.374	-1.4015026760156633	draw_card	1.63	columbia_card_task_fmri	14.0	0.8571428571428572	89.0	-95.0	0.1428571428571428	10.0	4.0	1.0	6.579730650920098	1.63	n/a	stim	poldrack-single-stim	s525	False	1
55.376	2.35	57.726	-3.996740771253757	draw_card	2.35	columbia_card_task_fmri	14.0	0.8333333333333334	89.0	-95.0	0.1666666666666666	10.0	5.0	1.0	9.059554568968188	2.35	n/a	stim	poldrack-single-stim	s525	False	1
57.728	2.915	60.643	-7.6300741045870915	end_round	2.915	columbia_card_task_fmri	14.0	0.8	71.0	-95.0	0.2	10.0	6.0	1.0	12.037628701778118	2.915	5.0	stim	poldrack-single-stim	s525	False	1
61.396	1.5	60.645	n/a	-1.0	2.522	columbia_card_task_fmri	n/a	n/a	-1.0	n/a	n/a	n/a	n/a	n/a	n/a	n/a	n/a	ITI	poldrack-single-stim	s525	False	0
63.171	0.932	64.103	-0.8300741045870921	draw_card	0.932	columbia_card_task_fmri	15.0	0.8	89.0	-65.0	0.2	10.0	1.0	2.0	0.4377487356188396	0.932	n/a	stim	poldrack-single-stim	s525	False	1
64.104	1.312	65.416	-2.607851882364869	draw_card	1.312	columbia_card_task_fmri	15.0	0.7777777777777778	89.0	-65.0	0.2222222222222222	10.0	2.0	2.0	1.6969084262481928	1.312	n/a	stim	poldrack-single-stim	s525	False	1
65.418	1.272	66.69	-4.8300741045870925	draw_card	1.272	columbia_card_task_fmri	15.0	0.75	89.0	-65.0	0.25	10.0	3.0	2.0	3.078730490746757	1.272	n/a	stim	poldrack-single-stim	s525	False	1
66.691	1.659	68.35	-7.687216961729947	draw_card	1.659	columbia_card_task_fmri	15.0	0.7142857142857143	89.0	-65.0	0.2857142857142857	10.0	4.0	2.0	4.578013165874296	1.659	4.0	stim	poldrack-single-stim	s525	False	0
69.104	1.5	68.353	n/a	-1.0	2.318	columbia_card_task_fmri	n/a	n/a	-1.0	n/a	n/a	n/a	n/a	n/a	n/a	n/a	n/a	ITI	poldrack-single-stim	s525	False	0
70.674	0.854	71.528	0.7699258954129093	draw_card	0.854	columbia_card_task_fmri	17.0	0.8	89.0	-65.0	0.2	10.0	1.0	2.0	1.2377377317262912	0.854	n/a	stim	poldrack-single-stim	s525	False	1
71.53	0.958	72.488	-1.0522963268093115	draw_card	0.958	columbia_card_task_fmri	17.0	0.7777777777777778	89.0	-65.0	0.2222222222222222	10.0	2.0	2.0	2.528377258224701	0.958	2.0	stim	poldrack-single-stim	s525	False	0
73.241	1.5	72.49	n/a	-1.0	2.522	columbia_card_task_fmri	n/a	n/a	-1.0	n/a	n/a	n/a	n/a	n/a	n/a	n/a	n/a	ITI	poldrack-single-stim	s525	False	0
75.016	0.604	75.62	-0.6634074379204242	draw_card	0.604	columbia_card_task_fmri	13.0	0.8333333333333334	89.0	-70.0	0.1666666666666666	12.0	1.0	2.0	-0.6299620024378498	0.604	1.0	stim	poldrack-single-stim	s525	False	0
76.373	1.5	75.622	n/a	-1.0	2.998	columbia_card_task_fmri	n/a	n/a	-1.0	n/a	n/a	n/a	n/a	n/a	n/a	n/a	n/a	ITI	poldrack-single-stim	s525	False	0
78.623	1.498	80.121	-0.6634074379204242	draw_card	1.498	columbia_card_task_fmri	15.0	0.8333333333333334	89.0	-80.0	0.1666666666666666	12.0	1.0	2.0	3.842114996794585	1.498	n/a	stim	poldrack-single-stim	s525	False	1
80.122	0.853	80.975	-2.1028013773143672	draw_card	0.853	columbia_card_task_fmri	15.0	0.8181818181818181	89.0	-80.0	0.1818181818181818	12.0	2.0	2.0	5.078679343525522	0.853	n/a	stim	poldrack-single-stim	s525	False	1
80.976	0.896	81.872	-3.830074104587092	end_round	0.896	columbia_card_task_fmri	15.0	0.8	71.0	-80.0	0.2	12.0	3.0	2.0	6.437677499704464	0.896	2.0	stim	poldrack-single-stim	s525	False	1
82.626	1.5	81.875	n/a	-1.0	2.318	columbia_card_task_fmri	n/a	n/a	-1.0	n/a	n/a	n/a	n/a	n/a	n/a	n/a	n/a	ITI	poldrack-single-stim	s525	False	0
84.195	0.544	84.739	-1.630074104587091	draw_card	0.544	columbia_card_task_fmri	14.0	0.8	89.0	-65.0	0.2	15.0	1.0	3.0	0.0377544464953345	0.544	n/a	stim	poldrack-single-stim	s525	False	1
84.741	0.525	85.266	-2.758645533158519	draw_card	0.525	columbia_card_task_fmri	14.0	0.7857142857142857	89.0	-65.0	0.2142857142857142	15.0	2.0	3.0	0.8534893119052498	0.525	2.0	stim	poldrack-single-stim	s525	False	0
86.021	1.5	85.27	n/a	-1.0	2.25	columbia_card_task_fmri	n/a	n/a	-1.0	n/a	n/a	n/a	n/a	n/a	n/a	n/a	n/a	ITI	poldrack-single-stim	s525	False	0
87.524	2.089	89.613	-1.705074104587092	draw_card	2.089	columbia_card_task_fmri	1.0	0.9375	89.0	-45.0	0.0625	16.0	1.0	1.0	-20.426578786308987	2.089	n/a	stim	poldrack-single-stim	s525	False	1
89.616	0.68	90.296	-1.8967407712537585	draw_card	0.68	columbia_card_task_fmri	1.0	0.9333333333333332	89.0	-45.0	0.0666666666666666	16.0	2.0	1.0	-20.087028287287325	0.68	n/a	stim	poldrack-single-stim	s525	False	1
90.298	0.601	90.899	-2.1157883903013777	draw_card	0.601	columbia_card_task_fmri	1.0	0.9285714285714286	89.0	-45.0	0.0714285714285714	16.0	3.0	1.0	-19.714672484775623	0.601	n/a	stim	poldrack-single-stim	s525	False	1
90.902	1.121	92.023	-2.3685356430486304	draw_card	1.121	columbia_card_task_fmri	1.0	0.9230769230769232	89.0	-45.0	0.0769230769230769	16.0	4.0	1.0	-19.303934322339448	1.121	n/a	stim	poldrack-single-stim	s525	False	1
92.024	0.816	92.84	-2.6634074379204256	draw_card	0.816	columbia_card_task_fmri	1.0	0.9166666666666666	89.0	-45.0	0.0833333333333333	16.0	5.0	1.0	-18.84783854177341	0.816	n/a	stim	poldrack-single-stim	s525	False	1
92.843	1.606	94.449	-3.0118922864052737	draw_card	1.606	columbia_card_task_fmri	1.0	0.9090909090909092	89.0	-45.0	0.0909090909090909	16.0	6.0	1.0	-18.33754050792952	1.606	n/a	stim	poldrack-single-stim	s525	False	1
94.45	1.126	95.576	-3.430074104587092	draw_card	1.126	columbia_card_task_fmri	1.0	0.9	89.0	-45.0	0.1	16.0	7.0	1.0	-17.761656280993407	1.126	7.0	stim	poldrack-single-stim	s525	False	0
96.331	1.5	95.58	n/a	-1.0	2.454	columbia_card_task_fmri	n/a	n/a	-1.0	n/a	n/a	n/a	n/a	n/a	n/a	n/a	n/a	ITI	poldrack-single-stim	s525	False	0
98.037	0.597	98.634	-0.7675741045870921	draw_card	0.597	columbia_card_task_fmri	15.0	0.8125	89.0	-70.0	0.1875	16.0	1.0	3.0	1.61428460247339	0.597	n/a	stim	poldrack-single-stim	s525	False	1
98.636	0.481	99.117	-1.830074104587092	draw_card	0.481	columbia_card_task_fmri	15.0	0.8	89.0	-70.0	0.2	16.0	2.0	3.0	2.4377221968003653	0.481	n/a	stim	poldrack-single-stim	s525	False	1
99.118	0.539	99.657	-3.044359818872808	draw_card	0.539	columbia_card_task_fmri	15.0	0.7857142857142857	89.0	-70.0	0.2142857142857142	16.0	3.0	3.0	3.315413293691272	0.539	n/a	stim	poldrack-single-stim	s525	False	1
99.66	0.898	100.558	-4.445458719971709	draw_card	0.898	columbia_card_task_fmri	15.0	0.7692307692307692	89.0	-70.0	0.2307692307692307	16.0	4.0	3.0	4.250329464836469	0.898	n/a	stim	poldrack-single-stim	s525	False	1
100.559	1.593	102.152	-6.0800741045870925	end_round	1.593	columbia_card_task_fmri	15.0	0.75	71.0	-70.0	0.25	16.0	5.0	3.0	5.243769484625815	1.593	4.0	stim	poldrack-single-stim	s525	False	1
102.906	1.5	102.155	n/a	-1.0	2.318	columbia_card_task_fmri	n/a	n/a	-1.0	n/a	n/a	n/a	n/a	n/a	n/a	n/a	n/a	ITI	poldrack-single-stim	s525	False	0
104.476	0.894	105.37	6.169925895412908	draw_card	0.894	columbia_card_task_fmri	30.0	0.7	89.0	-50.0	0.3	10.0	1.0	3.0	5.0982969399322045	0.894	n/a	stim	poldrack-single-stim	s525	False	1
105.371	2.052	107.423	3.503259228746247	draw_card	2.052	columbia_card_task_fmri	30.0	0.6666666666666667	89.0	-50.0	0.3333333333333333	10.0	2.0	3.0	6.1500420607443615	2.052	n/a	stim	poldrack-single-stim	s525	False	1
107.425	0.83	108.255	0.1699258954129079	draw_card	0.83	columbia_card_task_fmri	30.0	0.625	89.0	-50.0	0.375	10.0	3.0	3.0	7.167503802367669	0.83	3.0	stim	poldrack-single-stim	s525	False	0
109.009	1.5	108.258	n/a	-1.0	2.318	columbia_card_task_fmri	n/a	n/a	-1.0	n/a	n/a	n/a	n/a	n/a	n/a	n/a	n/a	ITI	poldrack-single-stim	s525	False	0
110.579	0.58	111.159	5.569925895412908	draw_card	0.58	columbia_card_task_fmri	17.0	0.8666666666666667	89.0	-70.0	0.1333333333333333	15.0	1.0	2.0	-1.9879010814926872	0.58	n/a	stim	poldrack-single-stim	s525	False	1
111.161	0.534	111.695	4.74135446684148	draw_card	0.534	columbia_card_task_fmri	17.0	0.8571428571428572	89.0	-70.0	0.1428571428571428	15.0	2.0	2.0	-1.1185699684878436	0.534	n/a	stim	poldrack-single-stim	s525	False	1
111.696	0.47	112.166	3.785310510797523	draw_card	0.47	columbia_card_task_fmri	17.0	0.8461538461538461	89.0	-70.0	0.1538461538461538	15.0	3.0	2.0	-0.1725370231286724	0.47	n/a	stim	poldrack-single-stim	s525	False	1
112.169	0.569	112.738	2.6699258954129097	draw_card	0.569	columbia_card_task_fmri	17.0	0.8333333333333334	89.0	-70.0	0.1666666666666666	15.0	4.0	2.0	0.8607285236030933	0.569	n/a	stim	poldrack-single-stim	s525	False	1
112.741	1.194	113.935	1.3517440772310878	draw_card	1.194	columbia_card_task_fmri	17.0	0.8181818181818181	89.0	-70.0	0.1818181818181818	15.0	5.0	2.0	1.9931587115589764	1.194	n/a	stim	poldrack-single-stim	s525	False	1
113.936	0.875	114.811	-0.2300741045870906	end_round	0.875	columbia_card_task_fmri	17.0	0.8	71.0	-70.0	0.2	15.0	6.0	2.0	3.2377124353800326	0.875	5.0	stim	poldrack-single-stim	s525	False	1
115.566	1.5	114.815	n/a	-1.0	2.59	columbia_card_task_fmri	n/a	n/a	-1.0	n/a	n/a	n/a	n/a	n/a	n/a	n/a	n/a	ITI	poldrack-single-stim	s525	False	0
117.408	1.437	118.845	0.7949258954129079	draw_card	1.437	columbia_card_task_fmri	7.0	0.9375	89.0	-95.0	0.0625	16.0	1.0	1.0	-6.871848864262262	1.437	n/a	stim	poldrack-single-stim	s525	False	1
118.848	0.389	119.237	0.3699258954129081	draw_card	0.389	columbia_card_task_fmri	7.0	0.9333333333333332	89.0	-95.0	0.0666666666666666	16.0	2.0	1.0	-6.118864771255502	0.389	n/a	stim	poldrack-single-stim	s525	False	1
119.24	0.57	119.81	-0.1157883903013776	draw_card	0.57	columbia_card_task_fmri	7.0	0.9285714285714286	89.0	-95.0	0.0714285714285714	16.0	3.0	1.0	-5.293136402100608	0.57	n/a	stim	poldrack-single-stim	s525	False	1
119.812	0.558	120.37	-0.6762279507409388	draw_card	0.558	columbia_card_task_fmri	7.0	0.9230769230769232	89.0	-95.0	0.0769230769230769	16.0	4.0	1.0	-4.382297044238101	0.558	4.0	stim	poldrack-single-stim	s525	False	0
121.124	1.5	120.373	n/a	-1.0	2.25	columbia_card_task_fmri	n/a	n/a	-1.0	n/a	n/a	n/a	n/a	n/a	n/a	n/a	n/a	ITI	poldrack-single-stim	s525	False	0
122.626	0.779	123.405	2.357425895412908	draw_card	0.779	columbia_card_task_fmri	9.0	0.9375	89.0	-100.0	0.0625	16.0	1.0	1.0	-5.1774562012011245	0.779	1.0	stim	poldrack-single-stim	s525	False	0
124.16	1.5	123.409	n/a	-1.0	2.25	columbia_card_task_fmri	n/a	n/a	-1.0	n/a	n/a	n/a	n/a	n/a	n/a	n/a	n/a	ITI	poldrack-single-stim	s525	False	0
125.662	1.127	126.789	3.294925895412908	draw_card	1.127	columbia_card_task_fmri	15.0	0.875	89.0	-80.0	0.125	16.0	1.0	2.0	-0.1439460923713653	1.127	n/a	stim	poldrack-single-stim	s525	False	1
126.792	0.748	127.54	2.503259228746242	draw_card	0.748	columbia_card_task_fmri	15.0	0.8666666666666667	89.0	-80.0	0.1333333333333333	16.0	2.0	2.0	0.7315348839850273	0.748	n/a	stim	poldrack-single-stim	s525	False	1
127.543	0.98	128.523	1.5984973239843383	draw_card	0.98	columbia_card_task_fmri	15.0	0.8571428571428572	89.0	-80.0	0.1428571428571428	16.0	3.0	2.0	1.6808069458047683	0.98	3.0	stim	poldrack-single-stim	s525	False	0
129.277	1.5	128.526	n/a	-1.0	2.522	columbia_card_task_fmri	n/a	n/a	-1.0	n/a	n/a	n/a	n/a	n/a	n/a	n/a	n/a	ITI	poldrack-single-stim	s525	False	0
131.051	0.698	131.749	5.419925895412908	draw_card	0.698	columbia_card_task_fmri	16.0	0.875	89.0	-70.0	0.125	16.0	1.0	2.0	-3.1203682289554315	0.698	n/a	stim	poldrack-single-stim	s525	False	1
131.751	1.127	132.878	4.703259228746241	draw_card	1.127	columbia_card_task_fmri	16.0	0.8666666666666667	89.0	-70.0	0.1333333333333333	16.0	2.0	2.0	-2.327830039434808	1.127	n/a	stim	poldrack-single-stim	s525	False	1
132.88	0.62	133.5	3.8842116096986232	end_round	0.62	columbia_card_task_fmri	16.0	0.8571428571428572	71.0	-70.0	0.1428571428571428	16.0	3.0	2.0	-1.4684915603861484	0.62	2.0	stim	poldrack-single-stim	s525	False	1
134.253	1.5	133.502	n/a	-1.0	2.454	columbia_card_task_fmri	n/a	n/a	-1.0	n/a	n/a	n/a	n/a	n/a	n/a	n/a	n/a	ITI	poldrack-single-stim	s525	False	0
135.961	0.452	136.413	6.732425895412908	draw_card	0.452	columbia_card_task_fmri	30.0	0.6875	89.0	-45.0	0.3125	16.0	1.0	5.0	3.201143280055888	0.452	n/a	stim	poldrack-single-stim	s525	False	1
136.416	0.42	136.836	5.169925895412911	draw_card	0.42	columbia_card_task_fmri	30.0	0.6666666666666667	89.0	-45.0	0.3333333333333333	16.0	2.0	5.0	3.793044978341492	0.42	n/a	stim	poldrack-single-stim	s525	False	1
136.838	0.826	137.664	3.38421160969862	draw_card	0.826	columbia_card_task_fmri	30.0	0.6428571428571428	89.0	-45.0	0.3571428571428571	16.0	3.0	5.0	4.37450609313067	0.826	n/a	stim	poldrack-single-stim	s525	False	1
137.667	0.534	138.201	1.3237720492590612	draw_card	0.534	columbia_card_task_fmri	30.0	0.6153846153846154	89.0	-45.0	0.3846153846153846	16.0	4.0	5.0	4.925512400925456	0.534	n/a	stim	poldrack-single-stim	s525	False	1
138.204	0.88	139.084	-1.0800741045870956	draw_card	0.88	columbia_card_task_fmri	30.0	0.5833333333333333	89.0	-45.0	0.4166666666666667	16.0	5.0	5.0	5.413186670900643	0.88	n/a	stim	poldrack-single-stim	s525	False	1
139.086	0.761	139.847	-3.920983195496182	end_round	0.761	columbia_card_task_fmri	30.0	0.5454545454545454	71.0	-45.0	0.4545454545454545	16.0	6.0	5.0	5.782403996084511	0.761	5.0	stim	poldrack-single-stim	s525	False	1
140.601	1.5	139.85	n/a	-1.0	2.25	columbia_card_task_fmri	n/a	n/a	-1.0	n/a	n/a	n/a	n/a	n/a	n/a	n/a	n/a	ITI	poldrack-single-stim	s525	False	0
142.103	0.97	143.073	-1.4967407712537582	draw_card	0.97	columbia_card_task_fmri	13.0	0.8333333333333334	89.0	-75.0	0.1666666666666666	6.0	1.0	1.0	1.2334014599217935	0.97	n/a	stim	poldrack-single-stim	s525	False	1
143.075	1.828	144.903	-4.430074104587092	end_round	1.828	columbia_card_task_fmri	13.0	0.8	71.0	-75.0	0.2	6.0	2.0	1.0	3.63770772105476	1.828	1.0	stim	poldrack-single-stim	s525	False	1
145.657	1.5	144.906	n/a	-1.0	2.454	columbia_card_task_fmri	n/a	n/a	-1.0	n/a	n/a	n/a	n/a	n/a	n/a	n/a	n/a	ITI	poldrack-single-stim	s525	False	0
147.363	0.623	147.986	0.1699258954129097	draw_card	0.623	columbia_card_task_fmri	14.0	0.8333333333333334	89.0	-70.0	0.1666666666666666	6.0	1.0	1.0	-0.2572895625212545	0.623	n/a	stim	poldrack-single-stim	s525	False	1
147.989	0.52	148.509	-2.630074104587091	draw_card	0.52	columbia_card_task_fmri	14.0	0.8	89.0	-70.0	0.2	6.0	2.0	1.0	2.0377272518183176	0.52	n/a	stim	poldrack-single-stim	s525	False	1
148.513	0.631	149.144	-6.8300741045870925	end_round	0.631	columbia_card_task_fmri	14.0	0.75	71.0	-70.0	0.25	6.0	3.0	1.0	4.810761452372141	0.631	2.0	stim	poldrack-single-stim	s525	False	1
149.898	1.5	149.147	n/a	-1.0	2.454	columbia_card_task_fmri	n/a	n/a	-1.0	n/a	n/a	n/a	n/a	n/a	n/a	n/a	n/a	ITI	poldrack-single-stim	s525	False	0
151.605	0.507	152.112	0.1699258954129097	draw_card	0.507	columbia_card_task_fmri	16.0	0.8333333333333334	89.0	-80.0	0.1666666666666666	6.0	1.0	1.0	4.214788745351534	0.507	1.0	stim	poldrack-single-stim	s525	False	0
152.866	1.5	152.115	n/a	-1.0	2.522	columbia_card_task_fmri	n/a	n/a	-1.0	n/a	n/a	n/a	n/a	n/a	n/a	n/a	n/a	ITI	poldrack-single-stim	s525	False	0
154.641	0.832	155.473	2.6699258954129097	draw_card	0.832	columbia_card_task_fmri	17.0	0.8333333333333334	89.0	-70.0	0.1666666666666666	6.0	1.0	1.0	0.8607285236030933	0.832	1.0	stim	poldrack-single-stim	s525	False	0
156.227	1.5	155.476	n/a	-1.0	2.454	columbia_card_task_fmri	n/a	n/a	-1.0	n/a	n/a	n/a	n/a	n/a	n/a	n/a	n/a	ITI	poldrack-single-stim	s525	False	0
157.934	0.521	158.455	2.669925895412908	draw_card	0.521	columbia_card_task_fmri	25.0	0.75	89.0	-65.0	0.25	8.0	1.0	2.0	7.408811202417205	0.521	n/a	stim	poldrack-single-stim	s525	False	1
158.459	0.352	158.811	-0.5443598188728038	draw_card	0.352	columbia_card_task_fmri	25.0	0.7142857142857143	89.0	-65.0	0.2857142857142857	8.0	2.0	2.0	9.09550829417131	0.352	2.0	stim	poldrack-single-stim	s525	False	0
159.567	1.5	158.816	n/a	-1.0	2.658	columbia_card_task_fmri	n/a	n/a	-1.0	n/a	n/a	n/a	n/a	n/a	n/a	n/a	n/a	ITI	poldrack-single-stim	s525	False	0
161.478	0.373	161.851	2.669925895412908	draw_card	0.373	columbia_card_task_fmri	30.0	0.75	89.0	-80.0	0.25	8.0	1.0	2.0	16.068997883969963	0.373	n/a	stim	poldrack-single-stim	s525	False	1
161.854	1.463	163.317	-1.2586455331585156	end_round	1.463	columbia_card_task_fmri	30.0	0.7142857142857143	71.0	-80.0	0.2857142857142857	8.0	2.0	2.0	18.13052276118125	1.463	1.0	stim	poldrack-single-stim	s525	False	1
164.071	1.5	163.32	n/a	-1.0	2.386	columbia_card_task_fmri	n/a	n/a	-1.0	n/a	n/a	n/a	n/a	n/a	n/a	n/a	n/a	ITI	poldrack-single-stim	s525	False	0
165.71	0.42	166.13	2.369925895412909	draw_card	0.42	columbia_card_task_fmri	13.0	0.9	89.0	-95.0	0.1	10.0	1.0	1.0	0.8377431657487051	0.42	n/a	stim	poldrack-single-stim	s525	False	1
166.133	0.37	166.503	1.169925895412908	draw_card	0.37	columbia_card_task_fmri	13.0	0.8888888888888888	89.0	-95.0	0.1111111111111111	10.0	2.0	1.0	2.3788484303060926	0.37	2.0	stim	poldrack-single-stim	s525	False	0
167.257	1.5	166.506	n/a	-1.0	2.522	columbia_card_task_fmri	n/a	n/a	-1.0	n/a	n/a	n/a	n/a	n/a	n/a	n/a	n/a	ITI	poldrack-single-stim	s525	False	0
169.032	0.648	169.68	3.769925895412908	draw_card	0.648	columbia_card_task_fmri	14.0	0.9	89.0	-90.0	0.1	10.0	1.0	1.0	-0.3622396961986638	0.648	n/a	stim	poldrack-single-stim	s525	False	1
169.682	0.527	170.209	2.614370339857351	draw_card	0.527	columbia_card_task_fmri	14.0	0.8888888888888888	89.0	-90.0	0.1111111111111111	10.0	2.0	1.0	1.1217860681126552	0.527	2.0	stim	poldrack-single-stim	s525	False	0
170.964	1.5	170.213	n/a	-1.0	2.59	columbia_card_task_fmri	n/a	n/a	-1.0	n/a	n/a	n/a	n/a	n/a	n/a	n/a	n/a	ITI	poldrack-single-stim	s525	False	0
172.807	0.679	173.486	-1.0300741045870914	draw_card	0.679	columbia_card_task_fmri	16.0	0.8	89.0	-70.0	0.2	10.0	1.0	2.0	2.837717259338796	0.679	1.0	stim	poldrack-single-stim	s525	False	0
174.24	1.5	173.489	n/a	-1.0	2.386	columbia_card_task_fmri	n/a	n/a	-1.0	n/a	n/a	n/a	n/a	n/a	n/a	n/a	n/a	ITI	poldrack-single-stim	s525	False	0
175.878	0.873	176.751	-1.7467407712537582	draw_card	0.873	columbia_card_task_fmri	7.0	0.9166666666666666	89.0	-100.0	0.0833333333333333	12.0	1.0	1.0	-1.9889765285759609	0.873	n/a	stim	poldrack-single-stim	s525	False	1
176.754	1.988	178.742	-2.5573468318598205	end_round	1.988	columbia_card_task_fmri	7.0	0.9090909090909092	71.0	-100.0	0.0909090909090909	12.0	2.0	1.0	-0.8018958425443152	1.988	1.0	stim	poldrack-single-stim	s525	False	1
179.497	1.5	178.746	n/a	-1.0	2.59	columbia_card_task_fmri	n/a	n/a	-1.0	n/a	n/a	n/a	n/a	n/a	n/a	n/a	n/a	ITI	poldrack-single-stim	s525	False	0
181.34	0.898	182.238	-1.4967407712537564	draw_card	0.898	columbia_card_task_fmri	14.0	0.8333333333333334	89.0	-80.0	0.1666666666666666	12.0	1.0	2.0	3.469441338612519	0.898	n/a	stim	poldrack-single-stim	s525	False	1
182.242	0.81	183.052	-2.9209831954961856	end_round	0.81	columbia_card_task_fmri	14.0	0.8181818181818181	71.0	-80.0	0.1818181818181818	12.0	2.0	2.0	4.692988927275081	0.81	1.0	stim	poldrack-single-stim	s525	False	1
183.806	1.5	183.055	n/a	-1.0	2.318	columbia_card_task_fmri	n/a	n/a	-1.0	n/a	n/a	n/a	n/a	n/a	n/a	n/a	n/a	ITI	poldrack-single-stim	s525	False	0
185.378	0.709	186.087	0.1699258954129079	draw_card	0.709	columbia_card_task_fmri	15.0	0.8333333333333334	89.0	-75.0	0.1666666666666666	12.0	1.0	2.0	1.9787476698813435	0.709	n/a	stim	poldrack-single-stim	s525	False	1
186.09	1.247	187.337	-1.1937104682234572	end_round	1.247	columbia_card_task_fmri	15.0	0.8181818181818181	71.0	-75.0	0.1818181818181818	12.0	2.0	2.0	3.150228193739224	1.247	1.0	stim	poldrack-single-stim	s525	False	1
188.091	1.5	187.34	n/a	-1.0	2.25	columbia_card_task_fmri	n/a	n/a	-1.0	n/a	n/a	n/a	n/a	n/a	n/a	n/a	n/a	ITI	poldrack-single-stim	s525	False	0
189.593	0.484	190.077	-0.8300741045870921	draw_card	0.484	columbia_card_task_fmri	15.0	0.8	89.0	-65.0	0.2	15.0	1.0	3.0	0.4377487356188396	0.484	n/a	stim	poldrack-single-stim	s525	False	1
190.081	1.63	191.711	-1.9729312474442344	draw_card	1.63	columbia_card_task_fmri	15.0	0.7857142857142857	89.0	-65.0	0.2142857142857142	15.0	2.0	3.0	1.2638096480619154	1.63	n/a	stim	poldrack-single-stim	s525	False	1
191.715	0.555	192.27	-3.2916125661255555	end_round	0.555	columbia_card_task_fmri	15.0	0.7692307692307692	71.0	-65.0	0.2307692307692307	15.0	3.0	3.0	2.143729439288812	0.555	2.0	stim	poldrack-single-stim	s525	False	1
193.023	1.5	192.272	n/a	-1.0	2.454	columbia_card_task_fmri	n/a	n/a	-1.0	n/a	n/a	n/a	n/a	n/a	n/a	n/a	n/a	ITI	poldrack-single-stim	s525	False	0
194.73	0.985	195.715	-1.580074104587092	draw_card	0.985	columbia_card_task_fmri	14.0	0.8125	89.0	-70.0	0.1875	16.0	1.0	3.0	1.2239774080529813	0.985	1.0	stim	poldrack-single-stim	s525	False	0
196.468	1.5	195.717	n/a	-1.0	3.27	columbia_card_task_fmri	n/a	n/a	-1.0	n/a	n/a	n/a	n/a	n/a	n/a	n/a	n/a	ITI	poldrack-single-stim	s525	False	0
198.991	0.776	199.767	-1.642574104587092	draw_card	0.776	columbia_card_task_fmri	11.0	0.6875	89.0	-30.0	0.3125	16.0	1.0	5.0	-12.55793411897058	0.776	n/a	stim	poldrack-single-stim	s525	False	1
199.77	4.31	204.08	-2.496740771253758	end_round	4.31	columbia_card_task_fmri	11.0	0.6666666666666667	71.0	-30.0	0.3333333333333333	16.0	2.0	5.0	-12.234370107696687	4.31	1.0	stim	poldrack-single-stim	s525	False	1
204.835	1.5	204.084	n/a	-1.0	2.25	columbia_card_task_fmri	n/a	n/a	-1.0	n/a	n/a	n/a	n/a	n/a	n/a	n/a	n/a	ITI	poldrack-single-stim	s525	False	0
206.339	0.824	207.163	3.169925895412908	draw_card	0.824	columbia_card_task_fmri	15.0	0.8666666666666667	89.0	-75.0	0.1333333333333333	15.0	1.0	2.0	-0.9681134508446512	0.824	n/a	stim	poldrack-single-stim	s525	False	1
207.166	2.324	209.49	2.312783038270052	end_round	2.324	columbia_card_task_fmri	15.0	0.8571428571428572	71.0	-75.0	0.1428571428571428	15.0	2.0	2.0	-0.0688044575809421	2.324	1.0	stim	poldrack-single-stim	s525	False	1
210.245	1.5	209.494	n/a	-1.0	2.25	columbia_card_task_fmri	n/a	n/a	-1.0	n/a	n/a	n/a	n/a	n/a	n/a	n/a	n/a	ITI	poldrack-single-stim	s525	False	0
211.747	1.605	213.352	4.903259228746242	draw_card	1.605	columbia_card_task_fmri	17.0	0.8666666666666667	89.0	-75.0	0.1333333333333333	15.0	1.0	2.0	-0.2882544408582532	1.605	n/a	stim	poldrack-single-stim	s525	False	1
213.356	0.447	213.803	4.027068752555767	draw_card	0.447	columbia_card_task_fmri	17.0	0.8571428571428572	89.0	-75.0	0.1428571428571428	15.0	2.0	2.0	0.6310397890776258	0.447	n/a	stim	poldrack-single-stim	s525	False	1
213.806	0.851	214.657	3.016079741566754	draw_card	0.851	columbia_card_task_fmri	17.0	0.8461538461538461	89.0	-75.0	0.1538461538461538	15.0	3.0	2.0	1.6314440420815544	0.851	n/a	stim	poldrack-single-stim	s525	False	1
214.66	1.144	215.804	1.836592562079576	end_round	1.144	columbia_card_task_fmri	17.0	0.8333333333333334	71.0	-75.0	0.1666666666666666	15.0	4.0	2.0	2.724094305160719	1.144	3.0	stim	poldrack-single-stim	s525	False	1
216.559	1.5	215.808	n/a	-1.0	2.318	columbia_card_task_fmri	n/a	n/a	-1.0	n/a	n/a	n/a	n/a	n/a	n/a	n/a	n/a	ITI	poldrack-single-stim	s525	False	0
218.129	2.604	220.733	0.4824258954129079	draw_card	2.604	columbia_card_task_fmri	2.0	0.9375	89.0	-25.0	0.0625	16.0	1.0	1.0	-25.02483438616892	2.604	1.0	stim	poldrack-single-stim	s525	False	0
221.488	1.5	220.737	n/a	-1.0	2.726	columbia_card_task_fmri	n/a	n/a	-1.0	n/a	n/a	n/a	n/a	n/a	n/a	n/a	n/a	ITI	poldrack-single-stim	s525	False	0
223.468	3.703	227.171	2.669925895412908	draw_card	3.703	columbia_card_task_fmri	9.0	0.9375	89.0	-95.0	0.0625	16.0	1.0	1.0	-6.387737190607879	3.703	n/a	stim	poldrack-single-stim	s525	False	1
227.173	0.437	227.61	2.2365925620795752	end_round	0.437	columbia_card_task_fmri	9.0	0.9333333333333332	71.0	-95.0	0.0666666666666666	16.0	2.0	1.0	-5.619988031541336	0.437	1.0	stim	poldrack-single-stim	s525	False	1
228.365	1.5	227.614	n/a	-1.0	2.386	columbia_card_task_fmri	n/a	n/a	-1.0	n/a	n/a	n/a	n/a	n/a	n/a	n/a	n/a	ITI	poldrack-single-stim	s525	False	0
230.005	2.195	232.2	4.232425895412908	draw_card	2.195	columbia_card_task_fmri	11.0	0.9375	89.0	-100.0	0.0625	16.0	1.0	1.0	-4.69334314187698	2.195	n/a	stim	poldrack-single-stim	s525	False	1
232.203	0.612	232.815	3.769925895412909	draw_card	0.612	columbia_card_task_fmri	11.0	0.9333333333333332	89.0	-100.0	0.0666666666666666	16.0	2.0	1.0	-3.8739163460260535	0.612	n/a	stim	poldrack-single-stim	s525	False	1
232.818	1.645	234.463	3.241354466841481	end_round	1.645	columbia_card_task_fmri	11.0	0.9285714285714286	71.0	-100.0	0.0714285714285714	16.0	3.0	1.0	-2.9753265714615225	1.645	2.0	stim	poldrack-single-stim	s525	False	1
235.218	1.5	234.467	n/a	-1.0	2.318	columbia_card_task_fmri	n/a	n/a	-1.0	n/a	n/a	n/a	n/a	n/a	n/a	n/a	n/a	ITI	poldrack-single-stim	s525	False	0
236.79	2.039	238.829	4.794925895412908	draw_card	2.039	columbia_card_task_fmri	16.0	0.875	89.0	-75.0	0.125	16.0	1.0	2.0	-1.4668015495884037	2.039	1.0	stim	poldrack-single-stim	s525	False	0
239.583	1.5	238.832	n/a	-1.0	2.25	columbia_card_task_fmri	n/a	n/a	-1.0	n/a	n/a	n/a	n/a	n/a	n/a	n/a	n/a	ITI	poldrack-single-stim	s525	False	0
241.087	1.201	242.288	5.044925895412908	draw_card	1.201	columbia_card_task_fmri	17.0	0.875	89.0	-80.0	0.125	16.0	1.0	2.0	0.5174822609137877	1.201	n/a	stim	poldrack-single-stim	s525	False	1
242.291	1.138	243.429	4.236592562079576	draw_card	1.138	columbia_card_task_fmri	17.0	0.8666666666666667	89.0	-80.0	0.1333333333333333	16.0	2.0	2.0	1.4113949348282375	1.138	n/a	stim	poldrack-single-stim	s525	False	1
243.432	1.396	244.828	3.312783038270054	end_round	1.396	columbia_card_task_fmri	17.0	0.8571428571428572	71.0	-80.0	0.1428571428571428	16.0	3.0	2.0	2.380652203600036	1.396	2.0	stim	poldrack-single-stim	s525	False	1
245.583	1.5	244.832	n/a	-1.0	2.25	columbia_card_task_fmri	n/a	n/a	-1.0	n/a	n/a	n/a	n/a	n/a	n/a	n/a	n/a	ITI	poldrack-single-stim	s525	False	0
258.091	1.521	259.612	-0.6634074379204242	draw_card	1.521	columbia_card_task_fmri	13.0	0.8333333333333334	89.0	-70.0	0.1666666666666666	6.0	1.0	1.0	-0.6299620024378498	1.521	1.0	stim	poldrack-single-stim	s525	False	0
260.367	1.5	259.616	n/a	-1.0	2.454	columbia_card_task_fmri	n/a	n/a	-1.0	n/a	n/a	n/a	n/a	n/a	n/a	n/a	n/a	ITI	poldrack-single-stim	s525	False	0
262.074	1.947	264.021	-0.6634074379204242	draw_card	1.947	columbia_card_task_fmri	15.0	0.8333333333333334	89.0	-80.0	0.1666666666666666	6.0	1.0	1.0	3.842114996794585	1.947	n/a	stim	poldrack-single-stim	s525	False	1
264.025	0.994	265.019	-3.830074104587092	end_round	0.994	columbia_card_task_fmri	15.0	0.8	71.0	-80.0	0.2	6.0	2.0	1.0	6.437677499704464	0.994	1.0	stim	poldrack-single-stim	s525	False	1
265.773	1.5	265.022	n/a	-1.0	2.454	columbia_card_task_fmri	n/a	n/a	-1.0	n/a	n/a	n/a	n/a	n/a	n/a	n/a	n/a	ITI	poldrack-single-stim	s525	False	0
267.48	0.893	268.373	1.0032592287462418	draw_card	0.893	columbia_card_task_fmri	16.0	0.8333333333333334	89.0	-75.0	0.1666666666666666	6.0	1.0	1.0	2.3514209361087026	0.893	n/a	stim	poldrack-single-stim	s525	False	1
268.376	1.0	269.376	-2.030074104587092	end_round	1.0	columbia_card_task_fmri	16.0	0.8	71.0	-75.0	0.2	6.0	2.0	1.0	4.8376941997377685	1.0	1.0	stim	poldrack-single-stim	s525	False	1
270.131	1.5	269.38	n/a	-1.0	2.522	columbia_card_task_fmri	n/a	n/a	-1.0	n/a	n/a	n/a	n/a	n/a	n/a	n/a	n/a	ITI	poldrack-single-stim	s525	False	0
271.906	0.731	272.637	2.169925895412908	draw_card	0.731	columbia_card_task_fmri	21.0	0.75	89.0	-55.0	0.25	8.0	1.0	2.0	1.3467016181283071	0.731	n/a	stim	poldrack-single-stim	s525	False	1
272.64	1.138	273.778	-0.5443598188728056	end_round	1.138	columbia_card_task_fmri	21.0	0.7142857142857143	71.0	-55.0	0.2857142857142857	8.0	2.0	2.0	2.7710183850637837	1.138	1.0	stim	poldrack-single-stim	s525	False	1
274.533	1.5	273.782	n/a	-1.0	2.386	columbia_card_task_fmri	n/a	n/a	-1.0	n/a	n/a	n/a	n/a	n/a	n/a	n/a	n/a	ITI	poldrack-single-stim	s525	False	0
276.172	0.576	276.748	3.419925895412908	draw_card	0.576	columbia_card_task_fmri	26.0	0.75	89.0	-65.0	0.25	8.0	1.0	2.0	7.841819833334043	0.576	n/a	stim	poldrack-single-stim	s525	False	1
276.752	1.984	278.736	0.1699258954129114	end_round	1.984	columbia_card_task_fmri	26.0	0.7142857142857143	71.0	-65.0	0.2857142857142857	8.0	2.0	2.0	9.547258343530636	1.984	1.0	stim	poldrack-single-stim	s525	False	1
279.49	1.5	278.739	n/a	-1.0	2.454	columbia_card_task_fmri	n/a	n/a	-1.0	n/a	n/a	n/a	n/a	n/a	n/a	n/a	n/a	ITI	poldrack-single-stim	s525	False	0
281.198	0.838	282.036	-1.4967407712537582	draw_card	0.838	columbia_card_task_fmri	15.0	0.7777777777777778	89.0	-60.0	0.2222222222222222	9.0	1.0	2.0	-0.3817611833738468	0.838	n/a	stim	poldrack-single-stim	s525	False	1
282.04	1.055	283.095	-3.580074104587092	end_round	1.055	columbia_card_task_fmri	15.0	0.75	71.0	-60.0	0.25	9.0	2.0	2.0	0.9136947655488896	1.055	1.0	stim	poldrack-single-stim	s525	False	1
283.849	1.5	283.098	n/a	-1.0	2.522	columbia_card_task_fmri	n/a	n/a	-1.0	n/a	n/a	n/a	n/a	n/a	n/a	n/a	n/a	ITI	poldrack-single-stim	s525	False	0
285.625	0.603	286.228	2.869925895412909	draw_card	0.603	columbia_card_task_fmri	13.0	0.9	89.0	-90.0	0.1	10.0	1.0	1.0	-0.6622352037040642	0.603	n/a	stim	poldrack-single-stim	s525	False	1
286.232	0.771	287.003	1.7254814509684633	end_round	0.771	columbia_card_task_fmri	13.0	0.8888888888888888	71.0	-90.0	0.1111111111111111	10.0	2.0	1.0	0.8075206761029321	0.771	1.0	stim	poldrack-single-stim	s525	False	1
287.758	1.5	287.007	n/a	-1.0	2.522	columbia_card_task_fmri	n/a	n/a	-1.0	n/a	n/a	n/a	n/a	n/a	n/a	n/a	n/a	ITI	poldrack-single-stim	s525	False	0
289.533	0.906	290.439	4.169925895412908	draw_card	0.906	columbia_card_task_fmri	15.0	0.9	89.0	-95.0	0.1	10.0	1.0	1.0	1.4377350641142996	0.906	n/a	stim	poldrack-single-stim	s525	False	1
290.442	1.669	292.111	2.9477036731906847	draw_card	1.669	columbia_card_task_fmri	15.0	0.8888888888888888	89.0	-95.0	0.1111111111111111	10.0	2.0	1.0	3.007380057574053	1.669	n/a	stim	poldrack-single-stim	s525	False	1
292.115	0.547	292.662	1.419925895412908	end_round	0.547	columbia_card_task_fmri	15.0	0.875	71.0	-95.0	0.125	10.0	3.0	1.0	4.816774954951931	0.547	2.0	stim	poldrack-single-stim	s525	False	1
293.417	1.5	292.666	n/a	-1.0	2.59	columbia_card_task_fmri	n/a	n/a	-1.0	n/a	n/a	n/a	n/a	n/a	n/a	n/a	n/a	ITI	poldrack-single-stim	s525	False	0
295.262	0.445	295.707	-0.0300741045870913	draw_card	0.445	columbia_card_task_fmri	16.0	0.8	89.0	-65.0	0.2	10.0	1.0	2.0	0.8377431657487051	0.445	n/a	stim	poldrack-single-stim	s525	False	1
295.709	1.321	297.03	-1.8300741045870903	end_round	1.321	columbia_card_task_fmri	16.0	0.7777777777777778	71.0	-65.0	0.2222222222222222	10.0	2.0	2.0	2.112642776883952	1.321	1.0	stim	poldrack-single-stim	s525	False	1
297.785	1.5	297.034	n/a	-1.0	2.454	columbia_card_task_fmri	n/a	n/a	-1.0	n/a	n/a	n/a	n/a	n/a	n/a	n/a	n/a	ITI	poldrack-single-stim	s525	False	0
299.492	0.674	300.166	-1.330074104587092	draw_card	0.674	columbia_card_task_fmri	7.0	0.9166666666666666	89.0	-95.0	0.0833333333333333	12.0	1.0	1.0	-3.370879594220778	0.674	n/a	stim	poldrack-single-stim	s525	False	1
300.17	1.914	302.084	-2.102801377314365	draw_card	1.914	columbia_card_task_fmri	7.0	0.9090909090909092	89.0	-95.0	0.0909090909090909	12.0	2.0	1.0	-2.239271772119519	1.914	n/a	stim	poldrack-single-stim	s525	False	1
302.087	0.632	302.719	-3.0300741045870923	end_round	0.632	columbia_card_task_fmri	7.0	0.9	71.0	-95.0	0.1	12.0	3.0	1.0	-0.9622306231233466	0.632	2.0	stim	poldrack-single-stim	s525	False	1
303.473	1.5	302.722	n/a	-1.0	2.318	columbia_card_task_fmri	n/a	n/a	-1.0	n/a	n/a	n/a	n/a	n/a	n/a	n/a	n/a	ITI	poldrack-single-stim	s525	False	0
305.045	1.07	306.115	-0.6634074379204242	draw_card	1.07	columbia_card_task_fmri	14.0	0.8333333333333334	89.0	-75.0	0.1666666666666666	12.0	1.0	2.0	1.6060745099445557	1.07	1.0	stim	poldrack-single-stim	s525	False	0
306.869	1.5	306.118	n/a	-1.0	2.25	columbia_card_task_fmri	n/a	n/a	-1.0	n/a	n/a	n/a	n/a	n/a	n/a	n/a	n/a	ITI	poldrack-single-stim	s525	False	0
308.372	0.894	309.266	1.0032592287462418	draw_card	0.894	columbia_card_task_fmri	15.0	0.8333333333333334	89.0	-70.0	0.1666666666666666	12.0	1.0	2.0	0.1153830081297329	0.894	n/a	stim	poldrack-single-stim	s525	False	1
309.27	1.64	310.91	-0.2846195591325489	end_round	1.64	columbia_card_task_fmri	15.0	0.8181818181818181	71.0	-70.0	0.1818181818181818	12.0	2.0	2.0	1.221779619175983	1.64	1.0	stim	poldrack-single-stim	s525	False	1
311.665	1.5	310.914	n/a	-1.0	2.658	columbia_card_task_fmri	n/a	n/a	-1.0	n/a	n/a	n/a	n/a	n/a	n/a	n/a	n/a	ITI	poldrack-single-stim	s525	False	0
313.576	0.575	314.151	-1.0300741045870914	draw_card	0.575	columbia_card_task_fmri	16.0	0.8	89.0	-70.0	0.2	15.0	1.0	3.0	2.837717259338796	0.575	n/a	stim	poldrack-single-stim	s525	False	1
314.156	0.625	314.781	-2.258645533158521	draw_card	0.625	columbia_card_task_fmri	16.0	0.7857142857142857	89.0	-70.0	0.2142857142857142	15.0	2.0	3.0	3.72573438380126	0.625	n/a	stim	poldrack-single-stim	s525	False	1
314.784	0.498	315.282	-3.6762279507409383	draw_card	0.498	columbia_card_task_fmri	16.0	0.7692307692307692	89.0	-70.0	0.2307692307692307	15.0	3.0	3.0	4.671649821506904	0.498	n/a	stim	poldrack-single-stim	s525	False	1
315.287	0.655	315.942	-5.3300741045870925	draw_card	0.655	columbia_card_task_fmri	16.0	0.75	89.0	-70.0	0.25	15.0	4.0	3.0	5.676777625474017	0.655	n/a	stim	poldrack-single-stim	s525	False	1
315.946	0.807	316.753	-7.284619559132546	end_round	0.807	columbia_card_task_fmri	16.0	0.7272727272727273	71.0	-70.0	0.2727272727272727	15.0	5.0	3.0	6.738786854535562	0.807	4.0	stim	poldrack-single-stim	s525	False	1
317.508	1.5	316.757	n/a	-1.0	2.454	columbia_card_task_fmri	n/a	n/a	-1.0	n/a	n/a	n/a	n/a	n/a	n/a	n/a	n/a	ITI	poldrack-single-stim	s525	False	0
319.216	0.892	320.108	-0.6425741045870921	draw_card	0.892	columbia_card_task_fmri	14.0	0.8125	89.0	-65.0	0.1875	16.0	1.0	3.0	-0.7275565968212163	0.892	n/a	stim	poldrack-single-stim	s525	False	1
320.111	0.453	320.564	-1.630074104587091	draw_card	0.453	columbia_card_task_fmri	14.0	0.8	89.0	-65.0	0.2	16.0	2.0	3.0	0.0377544464953345	0.453	n/a	stim	poldrack-single-stim	s525	False	1
320.569	0.804	321.373	-2.758645533158519	draw_card	0.804	columbia_card_task_fmri	14.0	0.7857142857142857	89.0	-65.0	0.2142857142857142	16.0	3.0	3.0	0.8534893119052498	0.804	n/a	stim	poldrack-single-stim	s525	False	1
321.377	0.855	322.232	-4.060843335356324	end_round	0.855	columbia_card_task_fmri	14.0	0.7692307692307692	71.0	-65.0	0.2307692307692307	16.0	4.0	3.0	1.7224098168903694	0.855	3.0	stim	poldrack-single-stim	s525	False	1
322.987	1.5	322.236	n/a	-1.0	2.386	columbia_card_task_fmri	n/a	n/a	-1.0	n/a	n/a	n/a	n/a	n/a	n/a	n/a	n/a	ITI	poldrack-single-stim	s525	False	0
324.627	1.067	325.694	-0.8925741045870921	draw_card	1.067	columbia_card_task_fmri	16.0	0.8125	89.0	-75.0	0.1875	16.0	1.0	3.0	3.9561301599432	1.067	n/a	stim	poldrack-single-stim	s525	False	1
325.699	0.387	326.086	-2.030074104587092	draw_card	0.387	columbia_card_task_fmri	16.0	0.8	89.0	-75.0	0.2	16.0	2.0	3.0	4.8376941997377685	0.387	n/a	stim	poldrack-single-stim	s525	False	1
326.09	0.427	326.517	-3.3300741045870903	draw_card	0.427	columbia_card_task_fmri	16.0	0.7857142857142857	89.0	-75.0	0.2142857142857142	16.0	3.0	3.0	5.7773414210994005	0.427	n/a	stim	poldrack-single-stim	s525	False	1
326.521	0.623	327.144	-4.830074104587096	draw_card	0.623	columbia_card_task_fmri	16.0	0.7692307692307692	89.0	-75.0	0.2307692307692307	16.0	4.0	3.0	6.778253150186238	0.623	n/a	stim	poldrack-single-stim	s525	False	1
327.147	0.675	327.822	-6.5800741045870925	end_round	0.675	columbia_card_task_fmri	16.0	0.75	71.0	-75.0	0.25	16.0	5.0	3.0	7.841819833334043	0.675	4.0	stim	poldrack-single-stim	s525	False	1
328.578	1.5	327.827	n/a	-1.0	2.59	columbia_card_task_fmri	n/a	n/a	-1.0	n/a	n/a	n/a	n/a	n/a	n/a	n/a	n/a	ITI	poldrack-single-stim	s525	False	0
330.422	0.978	331.4	3.369925895412909	draw_card	0.978	columbia_card_task_fmri	16.0	0.8666666666666667	89.0	-80.0	0.1333333333333333	15.0	1.0	2.0	1.071464861399086	0.978	n/a	stim	poldrack-single-stim	s525	False	1
331.403	0.381	331.784	2.455640181127196	draw_card	0.381	columbia_card_task_fmri	16.0	0.8571428571428572	89.0	-80.0	0.1428571428571428	15.0	2.0	2.0	2.030729528065649	0.381	n/a	stim	poldrack-single-stim	s525	False	1
331.787	0.461	332.248	1.400695126182138	draw_card	0.461	columbia_card_task_fmri	16.0	0.8461538461538461	89.0	-80.0	0.1538461538461538	15.0	3.0	2.0	3.074630768933765	0.461	n/a	stim	poldrack-single-stim	s525	False	1
332.252	1.082	333.334	0.1699258954129097	end_round	1.082	columbia_card_task_fmri	16.0	0.8333333333333334	71.0	-80.0	0.1666666666666666	15.0	4.0	2.0	4.214788745351534	1.082	3.0	stim	poldrack-single-stim	s525	False	1
334.089	1.5	333.338	n/a	-1.0	2.318	columbia_card_task_fmri	n/a	n/a	-1.0	n/a	n/a	n/a	n/a	n/a	n/a	n/a	n/a	ITI	poldrack-single-stim	s525	False	0
335.662	0.69	336.352	4.236592562079576	draw_card	0.69	columbia_card_task_fmri	17.0	0.8666666666666667	89.0	-80.0	0.1333333333333333	15.0	1.0	2.0	1.4113949348282375	0.69	n/a	stim	poldrack-single-stim	s525	False	1
336.356	0.462	336.818	3.312783038270054	draw_card	0.462	columbia_card_task_fmri	17.0	0.8571428571428572	89.0	-80.0	0.1428571428571428	15.0	2.0	2.0	2.380652203600036	0.462	n/a	stim	poldrack-single-stim	s525	False	1
336.823	1.197	338.02	2.246848972335985	end_round	1.197	columbia_card_task_fmri	17.0	0.8461538461538461	71.0	-80.0	0.1538461538461538	15.0	3.0	2.0	3.435427684177704	1.197	2.0	stim	poldrack-single-stim	s525	False	1
338.776	1.5	338.025	n/a	-1.0	2.59	columbia_card_task_fmri	n/a	n/a	-1.0	n/a	n/a	n/a	n/a	n/a	n/a	n/a	n/a	ITI	poldrack-single-stim	s525	False	0
340.619	0.649	341.268	0.1699258954129079	draw_card	0.649	columbia_card_task_fmri	1.0	0.9375	89.0	-15.0	0.0625	16.0	1.0	1.0	-27.685993154195188	0.649	n/a	stim	poldrack-single-stim	s525	False	1
341.272	0.417	341.689	0.1032592287462412	draw_card	0.417	columbia_card_task_fmri	1.0	0.9333333333333332	89.0	-15.0	0.0666666666666666	16.0	2.0	1.0	-27.56798545654932	0.417	n/a	stim	poldrack-single-stim	s525	False	1
341.693	0.456	342.149	0.0270687525557651	draw_card	0.456	columbia_card_task_fmri	1.0	0.9285714285714286	89.0	-15.0	0.0714285714285714	16.0	3.0	1.0	-27.438570200573626	0.456	n/a	stim	poldrack-single-stim	s525	False	1
342.154	1.523	343.677	-0.0608433353563229	end_round	1.523	columbia_card_task_fmri	1.0	0.9230769230769232	71.0	-15.0	0.0769230769230769	16.0	4.0	1.0	-27.295807821279524	1.523	3.0	stim	poldrack-single-stim	s525	False	1
344.433	1.5	343.682	n/a	-1.0	2.386	columbia_card_task_fmri	n/a	n/a	-1.0	n/a	n/a	n/a	n/a	n/a	n/a	n/a	n/a	ITI	poldrack-single-stim	s525	False	0
346.074	0.64	346.714	3.294925895412908	draw_card	0.64	columbia_card_task_fmri	10.0	0.9375	89.0	-100.0	0.0625	16.0	1.0	1.0	-4.9353997163511	0.64	n/a	stim	poldrack-single-stim	s525	False	1
346.72	2.324	349.044	2.836592562079575	draw_card	2.324	columbia_card_task_fmri	10.0	0.9333333333333332	89.0	-100.0	0.0666666666666666	16.0	2.0	1.0	-4.123355431701899	2.324	n/a	stim	poldrack-single-stim	s525	False	1
349.049	0.445	349.494	2.312783038270052	draw_card	0.445	columbia_card_task_fmri	10.0	0.9285714285714286	89.0	-100.0	0.0714285714285714	16.0	3.0	1.0	-3.232861357164861	0.445	n/a	stim	poldrack-single-stim	s525	False	1
349.498	0.489	349.987	1.7083874338744471	draw_card	0.489	columbia_card_task_fmri	10.0	0.9230769230769232	89.0	-100.0	0.0769230769230769	16.0	4.0	1.0	-2.2505808343723324	0.489	n/a	stim	poldrack-single-stim	s525	False	1
349.991	2.246	352.237	1.0032592287462418	draw_card	2.246	columbia_card_task_fmri	10.0	0.9166666666666666	89.0	-100.0	0.0833333333333333	16.0	5.0	1.0	-1.159833644981532	2.246	n/a	stim	poldrack-single-stim	s525	False	1
352.242	0.863	353.105	0.1699258954129061	end_round	0.863	columbia_card_task_fmri	10.0	0.9090909090909092	71.0	-100.0	0.0909090909090909	16.0	6.0	1.0	0.0605307191142152	0.863	5.0	stim	poldrack-single-stim	s525	False	1
353.859	1.5	353.108	n/a	-1.0	2.318	columbia_card_task_fmri	n/a	n/a	-1.0	n/a	n/a	n/a	n/a	n/a	n/a	n/a	n/a	ITI	poldrack-single-stim	s525	False	0
355.431	2.957	358.388	3.919925895412908	draw_card	2.957	columbia_card_task_fmri	15.0	0.875	89.0	-75.0	0.125	16.0	1.0	2.0	-1.7975151333672166	2.957	n/a	stim	poldrack-single-stim	s525	False	1
358.392	0.453	358.845	3.169925895412908	draw_card	0.453	columbia_card_task_fmri	15.0	0.8666666666666667	89.0	-75.0	0.1333333333333333	16.0	2.0	2.0	-0.9681134508446512	0.453	n/a	stim	poldrack-single-stim	s525	False	1
358.85	0.438	359.288	2.312783038270052	draw_card	0.438	columbia_card_task_fmri	15.0	0.8571428571428572	89.0	-75.0	0.1428571428571428	16.0	3.0	2.0	-0.0688044575809421	0.438	3.0	stim	poldrack-single-stim	s525	False	0
360.043	1.5	359.292	n/a	-1.0	2.318	columbia_card_task_fmri	n/a	n/a	-1.0	n/a	n/a	n/a	n/a	n/a	n/a	n/a	n/a	ITI	poldrack-single-stim	s525	False	0
361.616	0.579	362.195	4.169925895412908	draw_card	0.579	columbia_card_task_fmri	16.0	0.875	89.0	-80.0	0.125	16.0	1.0	2.0	0.1867680349260148	0.579	n/a	stim	poldrack-single-stim	s525	False	1
362.199	0.421	362.62	3.369925895412909	draw_card	0.421	columbia_card_task_fmri	16.0	0.8666666666666667	89.0	-80.0	0.1333333333333333	16.0	2.0	2.0	1.071464861399086	0.421	n/a	stim	poldrack-single-stim	s525	False	1
362.625	0.729	363.354	2.455640181127196	draw_card	0.729	columbia_card_task_fmri	16.0	0.8571428571428572	89.0	-80.0	0.1428571428571428	16.0	3.0	2.0	2.030729528065649	0.729	n/a	stim	poldrack-single-stim	s525	False	1
363.359	0.656	364.015	1.400695126182138	end_round	0.656	columbia_card_task_fmri	16.0	0.8461538461538461	71.0	-80.0	0.1538461538461538	16.0	4.0	2.0	3.074630768933765	0.656	3.0	stim	poldrack-single-stim	s525	False	1
364.77	1.5	364.019	n/a	-1.0	2.318	columbia_card_task_fmri	n/a	n/a	-1.0	n/a	n/a	n/a	n/a	n/a	n/a	n/a	n/a	ITI	poldrack-single-stim	s525	False	0
366.342	0.422	366.764	1.357425895412908	draw_card	0.422	columbia_card_task_fmri	4.0	0.6875	89.0	-5.0	0.3125	16.0	1.0	5.0	-27.387631345689236	0.422	n/a	stim	poldrack-single-stim	s525	False	1
366.769	0.378	367.147	1.1699258954129084	draw_card	0.378	columbia_card_task_fmri	4.0	0.6666666666666667	89.0	-5.0	0.3333333333333333	16.0	2.0	5.0	-27.316660177615685	0.378	n/a	stim	poldrack-single-stim	s525	False	1
367.151	0.795	367.946	0.9556401811271932	draw_card	0.795	columbia_card_task_fmri	4.0	0.6428571428571428	89.0	-5.0	0.3571428571428571	16.0	3.0	5.0	-27.24693904624872	0.795	n/a	stim	poldrack-single-stim	s525	False	1
367.95	0.734	368.684	0.7083874338744465	end_round	0.734	columbia_card_task_fmri	4.0	0.6153846153846154	71.0	-5.0	0.3846153846153846	16.0	4.0	5.0	-27.18086806045336	0.734	3.0	stim	poldrack-single-stim	s525	False	1
369.44	1.5	368.689	n/a	-1.0	2.386	columbia_card_task_fmri	n/a	n/a	-1.0	n/a	n/a	n/a	n/a	n/a	n/a	n/a	n/a	ITI	poldrack-single-stim	s525	False	0
371.08	1.177	372.257	-1.4967407712537564	draw_card	1.177	columbia_card_task_fmri	14.0	0.8333333333333334	89.0	-80.0	0.1666666666666666	6.0	1.0	1.0	3.469441338612519	1.177	n/a	stim	poldrack-single-stim	s525	False	1
372.262	1.048	373.31	-4.630074104587092	end_round	1.048	columbia_card_task_fmri	14.0	0.8	71.0	-80.0	0.2	6.0	2.0	1.0	6.037681541469901	1.048	1.0	stim	poldrack-single-stim	s525	False	1
374.065	1.5	373.314	n/a	-1.0	2.25	columbia_card_task_fmri	n/a	n/a	-1.0	n/a	n/a	n/a	n/a	n/a	n/a	n/a	n/a	ITI	poldrack-single-stim	s525	False	0
375.57	0.421	375.991	0.1699258954129079	draw_card	0.421	columbia_card_task_fmri	15.0	0.8333333333333334	89.0	-75.0	0.1666666666666666	6.0	1.0	1.0	1.9787476698813435	0.421	n/a	stim	poldrack-single-stim	s525	False	1
375.996	1.29	377.286	-2.830074104587092	end_round	1.29	columbia_card_task_fmri	15.0	0.8	71.0	-75.0	0.2	6.0	2.0	1.0	4.437698606687206	1.29	1.0	stim	poldrack-single-stim	s525	False	1
378.042	1.5	377.291	n/a	-1.0	2.386	columbia_card_task_fmri	n/a	n/a	-1.0	n/a	n/a	n/a	n/a	n/a	n/a	n/a	n/a	ITI	poldrack-single-stim	s525	False	0
379.683	0.542	380.225	1.836592562079576	draw_card	0.542	columbia_card_task_fmri	16.0	0.8333333333333334	89.0	-70.0	0.1666666666666666	6.0	1.0	1.0	0.4880557049547462	0.542	1.0	stim	poldrack-single-stim	s525	False	0
380.98	1.5	380.229	n/a	-1.0	2.59	columbia_card_task_fmri	n/a	n/a	-1.0	n/a	n/a	n/a	n/a	n/a	n/a	n/a	n/a	ITI	poldrack-single-stim	s525	False	0
382.825	2.079	384.904	2.419925895412908	draw_card	2.079	columbia_card_task_fmri	23.0	0.75	89.0	-60.0	0.25	8.0	1.0	2.0	4.37775353263801	2.079	n/a	stim	poldrack-single-stim	s525	False	1
384.908	1.835	386.743	-0.5443598188728038	draw_card	1.835	columbia_card_task_fmri	23.0	0.7142857142857143	89.0	-60.0	0.2857142857142857	8.0	2.0	2.0	5.933260581355391	1.835	n/a	stim	poldrack-single-stim	s525	False	1
386.748	0.675	387.423	-4.496740771253757	end_round	0.675	columbia_card_task_fmri	23.0	0.6666666666666667	71.0	-60.0	0.3333333333333333	8.0	3.0	2.0	7.564241786109392	0.675	2.0	stim	poldrack-single-stim	s525	False	1
388.179	1.5	387.428	n/a	-1.0	2.658	columbia_card_task_fmri	n/a	n/a	-1.0	n/a	n/a	n/a	n/a	n/a	n/a	n/a	n/a	ITI	poldrack-single-stim	s525	False	0
390.092	1.148	391.24	2.919925895412908	draw_card	1.148	columbia_card_task_fmri	27.0	0.75	89.0	-70.0	0.25	8.0	1.0	2.0	10.439873381502778	1.148	1.0	stim	poldrack-single-stim	s525	False	0
391.995	1.5	391.244	n/a	-1.0	2.386	columbia_card_task_fmri	n/a	n/a	-1.0	n/a	n/a	n/a	n/a	n/a	n/a	n/a	n/a	ITI	poldrack-single-stim	s525	False	0
393.636	0.579	394.215	-1.8300741045870903	draw_card	0.579	columbia_card_task_fmri	16.0	0.7777777777777778	89.0	-65.0	0.2222222222222222	9.0	1.0	2.0	2.112642776883952	0.579	n/a	stim	poldrack-single-stim	s525	False	1
394.221	0.718	394.939	-4.0800741045870925	draw_card	0.718	columbia_card_task_fmri	16.0	0.75	89.0	-65.0	0.25	9.0	2.0	2.0	3.5117380473975786	0.718	2.0	stim	poldrack-single-stim	s525	False	0
395.694	1.5	394.943	n/a	-1.0	2.386	columbia_card_task_fmri	n/a	n/a	-1.0	n/a	n/a	n/a	n/a	n/a	n/a	n/a	n/a	ITI	poldrack-single-stim	s525	False	0
397.335	0.467	397.802	3.369925895412909	draw_card	0.467	columbia_card_task_fmri	13.0	0.9	89.0	-85.0	0.1	10.0	1.0	1.0	-2.1622113660108297	0.467	1.0	stim	poldrack-single-stim	s525	False	0
398.558	1.5	397.807	n/a	-1.0	2.25	columbia_card_task_fmri	n/a	n/a	-1.0	n/a	n/a	n/a	n/a	n/a	n/a	n/a	n/a	ITI	poldrack-single-stim	s525	False	0
400.063	0.613	400.676	-1.630074104587091	draw_card	0.613	columbia_card_task_fmri	14.0	0.8	89.0	-65.0	0.2	10.0	1.0	2.0	0.0377544464953345	0.613	n/a	stim	poldrack-single-stim	s525	False	1
400.681	1.29	401.971	-3.3856296601426457	draw_card	1.29	columbia_card_task_fmri	14.0	0.7777777777777778	89.0	-65.0	0.2222222222222222	10.0	2.0	2.0	1.2811742112807778	1.29	n/a	stim	poldrack-single-stim	s525	False	1
401.975	1.188	403.163	-5.5800741045870925	end_round	1.188	columbia_card_task_fmri	14.0	0.75	71.0	-65.0	0.25	10.0	3.0	2.0	2.645723064352836	1.188	2.0	stim	poldrack-single-stim	s525	False	1
403.918	1.5	403.167	n/a	-1.0	2.318	columbia_card_task_fmri	n/a	n/a	-1.0	n/a	n/a	n/a	n/a	n/a	n/a	n/a	n/a	ITI	poldrack-single-stim	s525	False	0
405.491	0.485	405.976	-0.2300741045870906	draw_card	0.485	columbia_card_task_fmri	17.0	0.8	89.0	-70.0	0.2	10.0	1.0	2.0	3.2377124353800326	0.485	n/a	stim	poldrack-single-stim	s525	False	1
405.98	0.865	406.845	-2.163407437920424	draw_card	0.865	columbia_card_task_fmri	17.0	0.7777777777777778	89.0	-70.0	0.2222222222222222	10.0	2.0	2.0	4.607051467759597	0.865	n/a	stim	poldrack-single-stim	s525	False	1
406.849	0.559	407.408	-4.5800741045870925	end_round	0.559	columbia_card_task_fmri	17.0	0.75	71.0	-70.0	0.25	10.0	3.0	2.0	6.1097858711721855	0.559	2.0	stim	poldrack-single-stim	s525	False	1
408.164	1.5	407.413	n/a	-1.0	2.25	columbia_card_task_fmri	n/a	n/a	-1.0	n/a	n/a	n/a	n/a	n/a	n/a	n/a	n/a	ITI	poldrack-single-stim	s525	False	0
409.668	0.361	410.029	-1.4967407712537582	draw_card	0.361	columbia_card_task_fmri	13.0	0.8333333333333334	89.0	-75.0	0.1666666666666666	12.0	1.0	2.0	1.2334014599217935	0.361	n/a	stim	poldrack-single-stim	s525	False	1
410.034	0.582	410.616	-2.830074104587094	end_round	0.582	columbia_card_task_fmri	13.0	0.8181818181818181	71.0	-75.0	0.1818181818181818	12.0	2.0	2.0	2.3788484303060926	0.582	1.0	stim	poldrack-single-stim	s525	False	1
411.372	1.5	410.621	n/a	-1.0	2.25	columbia_card_task_fmri	n/a	n/a	-1.0	n/a	n/a	n/a	n/a	n/a	n/a	n/a	n/a	ITI	poldrack-single-stim	s525	False	0
412.877	0.393	413.27	0.1699258954129097	draw_card	0.393	columbia_card_task_fmri	14.0	0.8333333333333334	89.0	-70.0	0.1666666666666666	12.0	1.0	2.0	-0.2572895625212545	0.393	n/a	stim	poldrack-single-stim	s525	False	1
413.275	0.445	413.72	-1.1028013773143672	end_round	0.445	columbia_card_task_fmri	14.0	0.8181818181818181	71.0	-70.0	0.1818181818181818	12.0	2.0	2.0	0.8360902537568364	0.445	1.0	stim	poldrack-single-stim	s525	False	1
414.476	1.5	413.725	n/a	-1.0	2.386	columbia_card_task_fmri	n/a	n/a	-1.0	n/a	n/a	n/a	n/a	n/a	n/a	n/a	n/a	ITI	poldrack-single-stim	s525	False	0
416.118	0.527	416.645	0.1699258954129097	draw_card	0.527	columbia_card_task_fmri	16.0	0.8333333333333334	89.0	-80.0	0.1666666666666666	12.0	1.0	2.0	4.214788745351534	0.527	n/a	stim	poldrack-single-stim	s525	False	1
416.65	1.238	417.888	-1.2846195591325489	draw_card	1.238	columbia_card_task_fmri	16.0	0.8181818181818181	89.0	-80.0	0.1818181818181818	12.0	2.0	2.0	5.464369847101011	1.238	2.0	stim	poldrack-single-stim	s525	False	0
418.644	1.5	417.893	n/a	-1.0	2.386	columbia_card_task_fmri	n/a	n/a	-1.0	n/a	n/a	n/a	n/a	n/a	n/a	n/a	n/a	ITI	poldrack-single-stim	s525	False	0
420.285	0.506	420.791	-0.0300741045870913	end_round	0.506	columbia_card_task_fmri	16.0	0.8	71.0	-65.0	0.2	15.0	1.0	3.0	0.8377431657487051	0.506	0.0	stim	poldrack-single-stim	s525	False	1
421.547	1.5	420.796	n/a	-1.0	2.726	columbia_card_task_fmri	n/a	n/a	-1.0	n/a	n/a	n/a	n/a	n/a	n/a	n/a	n/a	ITI	poldrack-single-stim	s525	False	0
423.528	0.619	424.147	-1.705074104587092	draw_card	0.619	columbia_card_task_fmri	15.0	0.8125	89.0	-75.0	0.1875	16.0	1.0	3.0	3.565822301370289	0.619	1.0	stim	poldrack-single-stim	s525	False	0
424.903	1.5	424.152	n/a	-1.0	2.454	columbia_card_task_fmri	n/a	n/a	-1.0	n/a	n/a	n/a	n/a	n/a	n/a	n/a	n/a	ITI	poldrack-single-stim	s525	False	0
426.612	1.894	428.506	-1.142574104587092	draw_card	1.894	columbia_card_task_fmri	14.0	0.6875	89.0	-35.0	0.3125	16.0	1.0	5.0	-8.849958902299015	1.894	n/a	stim	poldrack-single-stim	s525	False	1
428.511	1.263	429.774	-2.163407437920424	draw_card	1.263	columbia_card_task_fmri	14.0	0.6666666666666667	89.0	-35.0	0.3333333333333333	16.0	2.0	5.0	-8.463255892028652	1.263	n/a	stim	poldrack-single-stim	s525	False	1
429.778	1.072	430.85	-3.330074104587092	draw_card	1.072	columbia_card_task_fmri	14.0	0.6428571428571428	89.0	-35.0	0.3571428571428571	16.0	3.0	5.0	-8.083373759764122	1.072	3.0	stim	poldrack-single-stim	s525	False	0
431.606	1.5	430.855	n/a	-1.0	2.318	columbia_card_task_fmri	n/a	n/a	-1.0	n/a	n/a	n/a	n/a	n/a	n/a	n/a	n/a	ITI	poldrack-single-stim	s525	False	0
433.179	0.483	433.662	4.036592562079575	draw_card	0.483	columbia_card_task_fmri	16.0	0.8666666666666667	89.0	-75.0	0.1333333333333333	15.0	1.0	2.0	-0.6281840022155194	0.483	n/a	stim	poldrack-single-stim	s525	False	1
433.667	0.827	434.494	3.1699258954129097	end_round	0.827	columbia_card_task_fmri	16.0	0.8571428571428572	71.0	-75.0	0.1428571428571428	15.0	2.0	2.0	0.281117610993661	0.827	1.0	stim	poldrack-single-stim	s525	False	1
435.249	1.5	434.498	n/a	-1.0	2.318	columbia_card_task_fmri	n/a	n/a	-1.0	n/a	n/a	n/a	n/a	n/a	n/a	n/a	n/a	ITI	poldrack-single-stim	s525	False	0
436.823	0.376	437.199	4.703259228746241	draw_card	0.376	columbia_card_task_fmri	16.0	0.8666666666666667	89.0	-70.0	0.1333333333333333	15.0	1.0	2.0	-2.327830039434808	0.376	n/a	stim	poldrack-single-stim	s525	False	1
437.203	0.672	437.875	3.8842116096986232	draw_card	0.672	columbia_card_task_fmri	16.0	0.8571428571428572	89.0	-70.0	0.1428571428571428	15.0	2.0	2.0	-1.4684915603861484	0.672	n/a	stim	poldrack-single-stim	s525	False	1
437.879	0.618	438.497	2.939156664643676	end_round	0.618	columbia_card_task_fmri	16.0	0.8461538461538461	71.0	-70.0	0.1538461538461538	15.0	3.0	2.0	-0.5333328873933354	0.618	2.0	stim	poldrack-single-stim	s525	False	1
439.254	1.5	438.503	n/a	-1.0	2.59	columbia_card_task_fmri	n/a	n/a	-1.0	n/a	n/a	n/a	n/a	n/a	n/a	n/a	n/a	ITI	poldrack-single-stim	s525	False	0
441.098	0.51	441.608	2.044925895412908	draw_card	0.51	columbia_card_task_fmri	8.0	0.9375	89.0	-90.0	0.0625	16.0	1.0	1.0	-7.840070834729861	0.51	n/a	stim	poldrack-single-stim	s525	False	1
441.614	0.415	442.029	1.6365925620795747	draw_card	0.415	columbia_card_task_fmri	8.0	0.9333333333333332	89.0	-90.0	0.0666666666666666	16.0	2.0	1.0	-7.1166169145851015	0.415	n/a	stim	poldrack-single-stim	s525	False	1
442.034	0.589	442.623	1.1699258954129088	end_round	0.589	columbia_card_task_fmri	8.0	0.9285714285714286	71.0	-90.0	0.0714285714285714	16.0	3.0	1.0	-6.323271477528277	0.589	2.0	stim	poldrack-single-stim	s525	False	1
443.379	1.5	442.628	n/a	-1.0	2.726	columbia_card_task_fmri	n/a	n/a	-1.0	n/a	n/a	n/a	n/a	n/a	n/a	n/a	n/a	ITI	poldrack-single-stim	s525	False	0
445.36	0.754	446.114	3.607425895412908	draw_card	0.754	columbia_card_task_fmri	10.0	0.9375	89.0	-95.0	0.0625	16.0	1.0	1.0	-6.145681193148693	0.754	n/a	stim	poldrack-single-stim	s525	False	1
446.12	0.755	446.875	3.169925895412909	draw_card	0.755	columbia_card_task_fmri	10.0	0.9333333333333332	89.0	-95.0	0.0666666666666666	16.0	2.0	1.0	-5.3705495058055845	0.755	n/a	stim	poldrack-single-stim	s525	False	1
446.881	0.563	447.444	2.669925895412909	end_round	0.563	columbia_card_task_fmri	10.0	0.9285714285714286	71.0	-95.0	0.0714285714285714	16.0	3.0	1.0	-4.5205339739718085	0.563	2.0	stim	poldrack-single-stim	s525	False	1
448.201	1.5	447.45	n/a	-1.0	2.522	columbia_card_task_fmri	n/a	n/a	-1.0	n/a	n/a	n/a	n/a	n/a	n/a	n/a	n/a	ITI	poldrack-single-stim	s525	False	0
449.977	0.495	450.472	4.544925895412908	draw_card	0.495	columbia_card_task_fmri	15.0	0.875	89.0	-70.0	0.125	16.0	1.0	2.0	-3.451081171097485	0.495	n/a	stim	poldrack-single-stim	s525	False	1
450.477	0.458	450.935	3.836592562079574	draw_card	0.458	columbia_card_task_fmri	15.0	0.8666666666666667	89.0	-70.0	0.1333333333333333	16.0	2.0	2.0	-2.667758863820417	0.458	n/a	stim	poldrack-single-stim	s525	False	1
450.94	0.483	451.423	3.0270687525557656	draw_card	0.483	columbia_card_task_fmri	15.0	0.8571428571428572	89.0	-70.0	0.1428571428571428	16.0	3.0	2.0	-1.8184130225413924	0.483	n/a	stim	poldrack-single-stim	s525	False	1
451.429	1.112	452.541	2.093002818489829	end_round	1.112	columbia_card_task_fmri	15.0	0.8461538461538461	71.0	-70.0	0.1538461538461538	16.0	4.0	2.0	-0.8941286258248731	1.112	3.0	stim	poldrack-single-stim	s525	False	1
453.297	1.5	452.546	n/a	-1.0	3.134	columbia_card_task_fmri	n/a	n/a	-1.0	n/a	n/a	n/a	n/a	n/a	n/a	n/a	n/a	ITI	poldrack-single-stim	s525	False	0
455.687	0.556	456.243	3.544925895412908	draw_card	0.556	columbia_card_task_fmri	16.0	0.875	89.0	-85.0	0.125	16.0	1.0	2.0	1.8403400931424017	0.556	n/a	stim	poldrack-single-stim	s525	False	1
456.247	0.396	456.643	2.703259228746241	draw_card	0.396	columbia_card_task_fmri	16.0	0.8666666666666667	89.0	-85.0	0.1333333333333333	16.0	2.0	2.0	2.7711161316584807	0.396	n/a	stim	poldrack-single-stim	s525	False	1
456.648	2.331	458.979	1.7413544668414809	end_round	2.331	columbia_card_task_fmri	16.0	0.8571428571428572	71.0	-85.0	0.1428571428571428	16.0	3.0	2.0	3.7803437830639695	2.331	2.0	stim	poldrack-single-stim	s525	False	1
459.736	1.5	458.985	n/a	-1.0	2.386	columbia_card_task_fmri	n/a	n/a	-1.0	n/a	n/a	n/a	n/a	n/a	n/a	n/a	n/a	ITI	poldrack-single-stim	s525	False	0
