onset	duration	movement_onset	CTI	block_duration	correct	correct_response	cue	cue_switch	experiment_exp_id	key_press	response_time	stim_color	stim_number	switch_type	task	task_switch	trial_id	trial_type	worker_id	first_trial_of_block	junk
4.414	1.0	5.771	0.9	2.272	True	71.0	Color	stay	twobytwo	71.0	0.457	orange	4.0	cue_stay	color	stay	stim	poldrack-single-stim	s526	1	False
6.792	1.0	8.158	0.1	2.136	True	89.0	High-Low	n/a	twobytwo	89.0	1.266	blue	7.0	task_switch	magnitude	switch	stim	poldrack-single-stim	s526	0	False
9.835	1.0	11.286	0.9	2.0	True	71.0	Magnitude	switch	twobytwo	71.0	0.551	blue	4.0	cue_switch	magnitude	stay	stim	poldrack-single-stim	s526	0	False
12.74	1.0	15.417	0.9	2.0	True	89.0	Orange-Blue	n/a	twobytwo	89.0	1.777	blue	4.0	task_switch	color	switch	stim	poldrack-single-stim	s526	0	False
14.845	1.0	16.188	0.1	2.136	True	89.0	Magnitude	n/a	twobytwo	89.0	1.243	blue	8.0	task_switch	magnitude	switch	stim	poldrack-single-stim	s526	0	False
17.886	1.0	19.38	0.9	2.0	True	71.0	Color	n/a	twobytwo	71.0	0.594	orange	7.0	task_switch	color	switch	stim	poldrack-single-stim	s526	0	False
19.991	1.0	21.194	0.1	2.136	True	89.0	Magnitude	n/a	twobytwo	89.0	1.103	orange	6.0	task_switch	magnitude	switch	stim	poldrack-single-stim	s526	0	False
22.232	1.0	23.673	0.1	2.408	True	71.0	Magnitude	stay	twobytwo	71.0	1.341	blue	3.0	cue_stay	magnitude	stay	stim	poldrack-single-stim	s526	0	False
24.745	1.0	25.852	0.1	2.136	True	71.0	Orange-Blue	n/a	twobytwo	71.0	1.007	orange	4.0	task_switch	color	switch	stim	poldrack-single-stim	s526	0	False
26.988	1.0	27.955	0.1	2.0	False	71.0	High-Low	n/a	twobytwo	89.0	0.867	blue	4.0	task_switch	magnitude	switch	stim	poldrack-single-stim	s526	0	False
29.092	1.0	30.154	0.1	2.136	True	89.0	Color	n/a	twobytwo	89.0	0.962	blue	3.0	task_switch	color	switch	stim	poldrack-single-stim	s526	0	False
31.333	1.0	32.193	0.1	2.272	True	89.0	Color	stay	twobytwo	89.0	0.76	blue	1.0	cue_stay	color	stay	stim	poldrack-single-stim	s526	0	False
33.71	1.0	35.02	0.1	2.0	True	89.0	High-Low	n/a	twobytwo	89.0	1.21	blue	6.0	task_switch	magnitude	switch	stim	poldrack-single-stim	s526	0	False
36.616	1.0	38.227	0.9	2.408	True	71.0	Orange-Blue	n/a	twobytwo	71.0	0.711	orange	9.0	task_switch	color	switch	stim	poldrack-single-stim	s526	0	False
39.929	1.0	41.485	0.9	2.0	True	89.0	Color	switch	twobytwo	89.0	0.656	blue	1.0	cue_switch	color	stay	stim	poldrack-single-stim	s526	0	False
42.034	1.0	43.14	0.1	2.136	False	71.0	Magnitude	n/a	twobytwo	89.0	1.006	blue	1.0	task_switch	magnitude	switch	stim	poldrack-single-stim	s526	0	False
45.074	1.0	46.773	0.9	2.408	True	89.0	Orange-Blue	n/a	twobytwo	89.0	0.799	blue	1.0	task_switch	color	switch	stim	poldrack-single-stim	s526	0	False
48.388	1.0	50.075	0.9	2.136	False	89.0	High-Low	n/a	twobytwo	71.0	0.787	orange	8.0	task_switch	magnitude	switch	stim	poldrack-single-stim	s526	0	False
51.429	1.0	53.466	0.9	2.408	True	71.0	Orange-Blue	n/a	twobytwo	71.0	1.137	orange	9.0	task_switch	color	switch	stim	poldrack-single-stim	s526	0	False
53.943	1.0	55.385	0.1	2.136	True	89.0	High-Low	n/a	twobytwo	89.0	1.342	orange	6.0	task_switch	magnitude	switch	stim	poldrack-single-stim	s526	0	False
56.986	1.0	58.387	0.9	2.0	True	71.0	Magnitude	switch	twobytwo	71.0	0.501	blue	2.0	cue_switch	magnitude	stay	stim	poldrack-single-stim	s526	0	False
59.891	1.0	61.515	0.9	2.272	True	89.0	Magnitude	stay	twobytwo	89.0	0.724	blue	8.0	cue_stay	magnitude	stay	stim	poldrack-single-stim	s526	0	False
62.268	1.0	63.622	0.1	2.0	True	71.0	Orange-Blue	n/a	twobytwo	71.0	1.254	orange	6.0	task_switch	color	switch	stim	poldrack-single-stim	s526	0	False
65.173	1.0	66.718	0.9	2.272	True	71.0	Magnitude	n/a	twobytwo	71.0	0.645	orange	2.0	task_switch	magnitude	switch	stim	poldrack-single-stim	s526	0	False
67.55	1.0	68.672	0.1	2.272	True	89.0	High-Low	switch	twobytwo	89.0	1.022	blue	6.0	cue_switch	magnitude	stay	stim	poldrack-single-stim	s526	0	False
70.726	1.0	72.318	0.9	2.952	True	89.0	Magnitude	switch	twobytwo	89.0	0.692	blue	9.0	cue_switch	magnitude	stay	stim	poldrack-single-stim	s526	0	False
73.782	1.0	74.847	0.1	2.68	True	71.0	Magnitude	stay	twobytwo	71.0	0.965	orange	4.0	cue_stay	magnitude	stay	stim	poldrack-single-stim	s526	0	False
76.566	1.0	77.587	0.1	2.136	True	89.0	Magnitude	stay	twobytwo	89.0	0.921	blue	7.0	cue_stay	magnitude	stay	stim	poldrack-single-stim	s526	0	False
79.607	1.0	81.225	0.9	2.272	True	89.0	Magnitude	stay	twobytwo	89.0	0.718	blue	6.0	cue_stay	magnitude	stay	stim	poldrack-single-stim	s526	0	False
81.984	1.0	82.95	0.1	2.272	True	89.0	High-Low	switch	twobytwo	89.0	0.866	blue	6.0	cue_switch	magnitude	stay	stim	poldrack-single-stim	s526	0	False
85.162	1.0	86.773	0.9	2.136	True	89.0	Orange-Blue	n/a	twobytwo	89.0	0.711	blue	8.0	task_switch	color	switch	stim	poldrack-single-stim	s526	0	False
87.403	1.0	88.648	0.1	2.408	True	71.0	Color	switch	twobytwo	71.0	1.145	orange	3.0	cue_switch	color	stay	stim	poldrack-single-stim	s526	0	False
90.715	1.0	92.367	0.9	2.136	True	89.0	Orange-Blue	switch	twobytwo	89.0	0.752	blue	1.0	cue_switch	color	stay	stim	poldrack-single-stim	s526	0	False
93.756	1.0	95.413	0.9	2.136	True	89.0	Color	switch	twobytwo	89.0	0.757	blue	3.0	cue_switch	color	stay	stim	poldrack-single-stim	s526	0	False
96.797	1.0	98.556	0.9	2.0	True	71.0	Orange-Blue	switch	twobytwo	71.0	0.859	orange	3.0	cue_switch	color	stay	stim	poldrack-single-stim	s526	0	False
98.903	1.0	100.655	0.1	2.0	True	89.0	Orange-Blue	stay	twobytwo	89.0	1.652	blue	1.0	cue_stay	color	stay	stim	poldrack-single-stim	s526	0	False
101.009	1.0	102.236	0.1	2.0	True	89.0	Color	switch	twobytwo	89.0	1.127	blue	4.0	cue_switch	color	stay	stim	poldrack-single-stim	s526	0	False
103.114	1.0	104.189	0.1	2.0	True	89.0	Orange-Blue	switch	twobytwo	89.0	0.975	blue	3.0	cue_switch	color	stay	stim	poldrack-single-stim	s526	0	False
106.018	1.0	107.446	0.9	2.0	True	89.0	Color	switch	twobytwo	89.0	0.528	blue	3.0	cue_switch	color	stay	stim	poldrack-single-stim	s526	0	False
108.923	1.0	110.251	0.9	2.272	True	89.0	Orange-Blue	switch	twobytwo	89.0	0.428	blue	6.0	cue_switch	color	stay	stim	poldrack-single-stim	s526	0	False
111.301	1.0	112.749	0.1	2.408	True	71.0	Color	switch	twobytwo	71.0	1.348	orange	6.0	cue_switch	color	stay	stim	poldrack-single-stim	s526	0	False
113.814	1.0	114.711	0.1	2.0	True	71.0	Color	stay	twobytwo	71.0	0.797	orange	6.0	cue_stay	color	stay	stim	poldrack-single-stim	s526	0	False
115.92	1.0	116.842	0.1	2.136	True	71.0	High-Low	n/a	twobytwo	71.0	0.822	blue	3.0	task_switch	magnitude	switch	stim	poldrack-single-stim	s526	0	False
118.962	1.0	120.462	0.9	2.0	True	89.0	Magnitude	switch	twobytwo	89.0	0.6	blue	7.0	cue_switch	magnitude	stay	stim	poldrack-single-stim	s526	0	False
121.868	1.0	123.383	0.9	2.136	True	71.0	Orange-Blue	n/a	twobytwo	71.0	0.615	orange	8.0	task_switch	color	switch	stim	poldrack-single-stim	s526	0	False
124.909	1.0	126.429	0.9	2.544	True	71.0	High-Low	n/a	twobytwo	71.0	0.62	orange	4.0	task_switch	magnitude	switch	stim	poldrack-single-stim	s526	0	False
127.559	1.0	128.495	0.1	2.68	True	89.0	Orange-Blue	n/a	twobytwo	89.0	0.836	blue	7.0	task_switch	color	switch	stim	poldrack-single-stim	s526	0	False
131.144	1.0	132.905	0.9	3.088	True	89.0	Color	switch	twobytwo	89.0	0.861	blue	2.0	cue_switch	color	stay	stim	poldrack-single-stim	s526	0	False
134.337	1.0	135.211	0.1	2.136	True	89.0	Orange-Blue	switch	twobytwo	89.0	0.774	blue	6.0	cue_switch	color	stay	stim	poldrack-single-stim	s526	0	False
137.377	1.0	138.975	0.9	2.544	True	89.0	Color	switch	twobytwo	89.0	0.698	blue	4.0	cue_switch	color	stay	stim	poldrack-single-stim	s526	0	False
140.027	1.0	141.074	0.1	2.0	True	89.0	Orange-Blue	switch	twobytwo	89.0	0.947	blue	9.0	cue_switch	color	stay	stim	poldrack-single-stim	s526	0	False
142.132	1.0	143.005	0.1	2.136	True	89.0	Magnitude	n/a	twobytwo	89.0	0.773	blue	8.0	task_switch	magnitude	switch	stim	poldrack-single-stim	s526	0	False
144.373	1.0	145.27	0.1	2.0	True	71.0	Color	n/a	twobytwo	71.0	0.797	orange	1.0	task_switch	color	switch	stim	poldrack-single-stim	s526	0	False
146.478	1.0	147.45	0.1	2.408	True	89.0	Magnitude	n/a	twobytwo	89.0	0.872	orange	8.0	task_switch	magnitude	switch	stim	poldrack-single-stim	s526	0	False
149.791	1.0	151.58	0.9	2.0	False	71.0	High-Low	switch	twobytwo	89.0	0.889	orange	3.0	cue_switch	magnitude	stay	stim	poldrack-single-stim	s526	0	False
152.697	1.0	154.433	0.9	2.0	True	89.0	High-Low	stay	twobytwo	89.0	0.836	blue	8.0	cue_stay	magnitude	stay	stim	poldrack-single-stim	s526	0	False
155.601	1.0	157.453	0.9	2.0	False	71.0	Color	n/a	twobytwo	89.0	0.952	orange	2.0	task_switch	color	switch	stim	poldrack-single-stim	s526	0	False
157.706	1.0	158.781	0.1	2.68	True	71.0	Color	stay	twobytwo	71.0	0.975	orange	1.0	cue_stay	color	stay	stim	poldrack-single-stim	s526	0	False
161.291	1.0	162.866	0.9	2.272	True	71.0	Orange-Blue	switch	twobytwo	71.0	0.675	orange	3.0	cue_switch	color	stay	stim	poldrack-single-stim	s526	0	False
163.668	1.0	165.063	0.1	2.408	True	89.0	Orange-Blue	stay	twobytwo	89.0	1.295	blue	8.0	cue_stay	color	stay	stim	poldrack-single-stim	s526	0	False
166.981	1.0	168.53	0.9	3.224	True	71.0	Orange-Blue	stay	twobytwo	71.0	0.649	orange	7.0	cue_stay	color	stay	stim	poldrack-single-stim	s526	0	False
170.309	1.0	171.511	0.1	2.408	False	71.0	High-Low	n/a	twobytwo	89.0	1.102	orange	2.0	task_switch	magnitude	switch	stim	poldrack-single-stim	s526	0	False
173.622	1.0	175.278	0.9	2.816	True	71.0	Orange-Blue	n/a	twobytwo	71.0	0.756	orange	2.0	task_switch	color	switch	stim	poldrack-single-stim	s526	0	False
177.344	1.0	179.033	0.9	2.408	True	89.0	Magnitude	n/a	twobytwo	89.0	0.789	orange	8.0	task_switch	magnitude	switch	stim	poldrack-single-stim	s526	0	False
180.656	1.0	182.335	0.9	2.136	True	89.0	Color	n/a	twobytwo	89.0	0.779	blue	7.0	task_switch	color	switch	stim	poldrack-single-stim	s526	0	False
182.896	1.0	184.244	0.1	2.136	True	71.0	Color	stay	twobytwo	71.0	1.248	orange	9.0	cue_stay	color	stay	stim	poldrack-single-stim	s526	0	False
185.138	1.0	186.159	0.1	2.0	True	71.0	Orange-Blue	switch	twobytwo	71.0	0.921	orange	8.0	cue_switch	color	stay	stim	poldrack-single-stim	s526	0	False
187.242	1.0	188.282	0.1	2.0	True	71.0	Color	switch	twobytwo	71.0	0.94	orange	6.0	cue_switch	color	stay	stim	poldrack-single-stim	s526	0	False
189.347	1.0	190.488	0.1	2.272	True	71.0	High-Low	n/a	twobytwo	71.0	1.041	orange	2.0	task_switch	magnitude	switch	stim	poldrack-single-stim	s526	0	False
192.523	1.0	194.179	0.9	2.408	True	71.0	Color	n/a	twobytwo	71.0	0.756	orange	8.0	task_switch	color	switch	stim	poldrack-single-stim	s526	0	False
195.037	1.0	196.074	0.1	2.0	True	89.0	Magnitude	n/a	twobytwo	89.0	0.937	orange	8.0	task_switch	magnitude	switch	stim	poldrack-single-stim	s526	0	False
197.144	1.0	198.363	0.1	2.136	True	89.0	High-Low	switch	twobytwo	89.0	1.119	blue	8.0	cue_switch	magnitude	stay	stim	poldrack-single-stim	s526	0	False
200.185	1.0	201.896	0.9	2.0	True	89.0	Orange-Blue	n/a	twobytwo	89.0	0.811	blue	1.0	task_switch	color	switch	stim	poldrack-single-stim	s526	0	False
202.289	1.0	203.476	0.1	2.408	True	89.0	High-Low	n/a	twobytwo	89.0	1.087	blue	9.0	task_switch	magnitude	switch	stim	poldrack-single-stim	s526	0	False
205.602	1.0	207.29	0.9	2.272	True	89.0	Magnitude	switch	twobytwo	89.0	0.788	orange	9.0	cue_switch	magnitude	stay	stim	poldrack-single-stim	s526	0	False
207.979	1.0	209.08	0.1	2.0	True	89.0	Color	n/a	twobytwo	89.0	1.001	blue	1.0	task_switch	color	switch	stim	poldrack-single-stim	s526	0	False
210.085	1.0	210.98	0.1	2.272	True	89.0	Orange-Blue	switch	twobytwo	89.0	0.795	blue	1.0	cue_switch	color	stay	stim	poldrack-single-stim	s526	0	False
212.462	1.0	213.526	0.1	2.0	True	71.0	High-Low	n/a	twobytwo	71.0	0.964	blue	1.0	task_switch	magnitude	switch	stim	poldrack-single-stim	s526	0	False
214.566	1.0	215.757	0.1	2.0	True	89.0	Color	n/a	twobytwo	89.0	1.091	blue	9.0	task_switch	color	switch	stim	poldrack-single-stim	s526	0	False
216.671	1.0	217.678	0.1	2.272	True	71.0	Color	stay	twobytwo	71.0	0.907	orange	6.0	cue_stay	color	stay	stim	poldrack-single-stim	s526	0	False
233.356	1.0	235.3	0.9	2.136	True	71.0	Magnitude	stay	twobytwo	71.0	1.044	orange	4.0	cue_stay	magnitude	stay	stim	poldrack-single-stim	s526	1	False
235.598	1.0	236.529	0.1	2.0	True	89.0	Color	n/a	twobytwo	89.0	0.831	blue	7.0	task_switch	color	switch	stim	poldrack-single-stim	s526	0	False
238.503	1.0	239.967	0.9	2.0	True	89.0	Orange-Blue	switch	twobytwo	89.0	0.564	blue	4.0	cue_switch	color	stay	stim	poldrack-single-stim	s526	0	False
241.408	1.0	242.86	0.9	2.0	True	71.0	Magnitude	n/a	twobytwo	71.0	0.552	blue	4.0	task_switch	magnitude	switch	stim	poldrack-single-stim	s526	0	False
243.513	1.0	244.478	0.1	2.0	True	89.0	Color	n/a	twobytwo	89.0	0.865	blue	8.0	task_switch	color	switch	stim	poldrack-single-stim	s526	0	False
246.418	1.0	248.432	0.9	2.0	True	89.0	High-Low	n/a	twobytwo	89.0	1.114	orange	7.0	task_switch	magnitude	switch	stim	poldrack-single-stim	s526	0	False
248.523	1.0	249.486	0.1	2.136	True	71.0	Color	n/a	twobytwo	71.0	0.863	orange	6.0	task_switch	color	switch	stim	poldrack-single-stim	s526	0	False
250.765	1.0	251.653	0.1	2.0	True	89.0	Color	stay	twobytwo	89.0	0.788	blue	3.0	cue_stay	color	stay	stim	poldrack-single-stim	s526	0	False
252.871	1.0	253.968	0.1	2.0	True	71.0	Magnitude	n/a	twobytwo	71.0	0.997	orange	4.0	task_switch	magnitude	switch	stim	poldrack-single-stim	s526	0	False
254.975	1.0	256.104	0.1	2.136	True	89.0	Orange-Blue	n/a	twobytwo	89.0	1.029	blue	4.0	task_switch	color	switch	stim	poldrack-single-stim	s526	0	False
257.217	1.0	258.556	0.1	2.0	True	71.0	Magnitude	n/a	twobytwo	71.0	1.239	blue	3.0	task_switch	magnitude	switch	stim	poldrack-single-stim	s526	0	False
259.321	1.0	260.25	0.1	2.136	True	71.0	Magnitude	stay	twobytwo	71.0	0.829	blue	1.0	cue_stay	magnitude	stay	stim	poldrack-single-stim	s526	0	False
261.561	1.0	262.635	0.1	2.68	True	89.0	Color	n/a	twobytwo	89.0	0.974	blue	6.0	task_switch	color	switch	stim	poldrack-single-stim	s526	0	False
265.146	1.0	266.636	0.9	2.272	True	89.0	Magnitude	n/a	twobytwo	89.0	0.59	orange	9.0	task_switch	magnitude	switch	stim	poldrack-single-stim	s526	0	False
268.324	1.0	269.84	0.9	2.136	True	71.0	High-Low	switch	twobytwo	71.0	0.616	blue	1.0	cue_switch	magnitude	stay	stim	poldrack-single-stim	s526	0	False
270.566	1.0	271.908	0.1	2.0	True	89.0	Color	n/a	twobytwo	89.0	1.242	blue	1.0	task_switch	color	switch	stim	poldrack-single-stim	s526	0	False
273.47	1.0	275.099	0.9	2.136	True	71.0	High-Low	n/a	twobytwo	71.0	0.729	blue	1.0	task_switch	magnitude	switch	stim	poldrack-single-stim	s526	0	False
276.512	1.0	278.087	0.9	2.68	True	71.0	Color	n/a	twobytwo	71.0	0.675	orange	8.0	task_switch	color	switch	stim	poldrack-single-stim	s526	0	False
280.097	1.0	281.805	0.9	2.272	True	89.0	High-Low	n/a	twobytwo	89.0	0.808	orange	9.0	task_switch	magnitude	switch	stim	poldrack-single-stim	s526	0	False
282.474	1.0	283.713	0.1	2.0	True	71.0	Orange-Blue	n/a	twobytwo	71.0	1.139	orange	6.0	task_switch	color	switch	stim	poldrack-single-stim	s526	0	False
285.378	1.0	286.917	0.9	2.0	True	89.0	Color	switch	twobytwo	89.0	0.639	blue	2.0	cue_switch	color	stay	stim	poldrack-single-stim	s526	0	False
288.282	1.0	289.576	0.9	2.136	True	89.0	Color	stay	twobytwo	89.0	0.394	blue	8.0	cue_stay	color	stay	stim	poldrack-single-stim	s526	0	False
290.523	1.0	291.931	0.1	2.0	True	89.0	Magnitude	n/a	twobytwo	89.0	1.308	orange	6.0	task_switch	magnitude	switch	stim	poldrack-single-stim	s526	0	False
293.429	1.0	295.195	0.9	2.0	True	71.0	Orange-Blue	n/a	twobytwo	71.0	0.866	orange	2.0	task_switch	color	switch	stim	poldrack-single-stim	s526	0	False
295.535	1.0	296.395	0.1	2.0	True	89.0	Color	switch	twobytwo	89.0	0.76	blue	6.0	cue_switch	color	stay	stim	poldrack-single-stim	s526	0	False
298.439	1.0	300.057	0.9	2.272	True	89.0	Orange-Blue	switch	twobytwo	89.0	0.718	blue	9.0	cue_switch	color	stay	stim	poldrack-single-stim	s526	0	False
300.816	1.0	301.922	0.1	2.408	True	71.0	Orange-Blue	stay	twobytwo	71.0	1.006	orange	4.0	cue_stay	color	stay	stim	poldrack-single-stim	s526	0	False
303.327	1.0	304.273	0.1	2.0	True	89.0	Orange-Blue	stay	twobytwo	89.0	0.846	blue	7.0	cue_stay	color	stay	stim	poldrack-single-stim	s526	0	False
306.232	1.0	307.795	0.9	2.0	True	89.0	Orange-Blue	stay	twobytwo	89.0	0.663	blue	6.0	cue_stay	color	stay	stim	poldrack-single-stim	s526	0	False
308.337	1.0	309.226	0.1	2.0	True	89.0	Color	switch	twobytwo	89.0	0.789	blue	6.0	cue_switch	color	stay	stim	poldrack-single-stim	s526	0	False
311.243	1.0	312.777	0.9	2.272	True	89.0	High-Low	n/a	twobytwo	89.0	0.634	blue	8.0	task_switch	magnitude	switch	stim	poldrack-single-stim	s526	0	False
313.62	1.0	314.461	0.1	2.136	True	71.0	Magnitude	switch	twobytwo	71.0	0.741	orange	3.0	cue_switch	magnitude	stay	stim	poldrack-single-stim	s526	0	False
316.661	1.0	318.495	0.9	2.0	False	71.0	High-Low	switch	twobytwo	89.0	0.934	blue	1.0	cue_switch	magnitude	stay	stim	poldrack-single-stim	s526	0	False
319.566	1.0	321.156	0.9	2.544	True	71.0	Magnitude	switch	twobytwo	71.0	0.69	blue	3.0	cue_switch	magnitude	stay	stim	poldrack-single-stim	s526	0	False
323.015	1.0	324.968	0.9	2.272	True	71.0	High-Low	switch	twobytwo	71.0	1.053	orange	3.0	cue_switch	magnitude	stay	stim	poldrack-single-stim	s526	0	False
325.393	1.0	326.286	0.1	2.272	True	71.0	High-Low	stay	twobytwo	71.0	0.793	blue	1.0	cue_stay	magnitude	stay	stim	poldrack-single-stim	s526	0	False
327.77	1.0	328.78	0.1	2.0	True	71.0	Magnitude	switch	twobytwo	71.0	0.91	blue	4.0	cue_switch	magnitude	stay	stim	poldrack-single-stim	s526	0	False
329.876	1.0	330.688	0.1	2.0	True	71.0	High-Low	switch	twobytwo	71.0	0.712	blue	3.0	cue_switch	magnitude	stay	stim	poldrack-single-stim	s526	0	False
332.78	1.0	334.257	0.9	2.136	True	71.0	Magnitude	switch	twobytwo	71.0	0.577	blue	3.0	cue_switch	magnitude	stay	stim	poldrack-single-stim	s526	0	False
335.822	1.0	337.355	0.9	2.0	True	89.0	High-Low	switch	twobytwo	89.0	0.633	blue	6.0	cue_switch	magnitude	stay	stim	poldrack-single-stim	s526	0	False
337.926	1.0	338.92	0.1	2.136	True	89.0	Magnitude	switch	twobytwo	89.0	0.894	orange	6.0	cue_switch	magnitude	stay	stim	poldrack-single-stim	s526	0	False
340.167	1.0	341.038	0.1	2.272	True	89.0	Magnitude	stay	twobytwo	89.0	0.771	orange	6.0	cue_stay	magnitude	stay	stim	poldrack-single-stim	s526	0	False
342.544	1.0	343.467	0.1	2.136	False	89.0	Orange-Blue	n/a	twobytwo	71.0	0.823	blue	3.0	task_switch	color	switch	stim	poldrack-single-stim	s526	0	False
345.585	1.0	347.297	0.9	2.272	True	89.0	Color	switch	twobytwo	89.0	0.812	blue	7.0	cue_switch	color	stay	stim	poldrack-single-stim	s526	0	False
348.762	1.0	350.327	0.9	2.0	True	89.0	High-Low	n/a	twobytwo	89.0	0.665	orange	8.0	task_switch	magnitude	switch	stim	poldrack-single-stim	s526	0	False
351.668	1.0	353.287	0.9	2.816	True	71.0	Color	n/a	twobytwo	71.0	0.719	orange	4.0	task_switch	color	switch	stim	poldrack-single-stim	s526	0	False
354.589	1.0	355.699	0.1	2.408	True	89.0	High-Low	n/a	twobytwo	89.0	1.01	blue	7.0	task_switch	magnitude	switch	stim	poldrack-single-stim	s526	0	False
357.902	1.0	359.481	0.9	2.0	True	71.0	Magnitude	switch	twobytwo	71.0	0.679	blue	2.0	cue_switch	magnitude	stay	stim	poldrack-single-stim	s526	0	False
360.007	1.0	360.925	0.1	2.544	True	89.0	High-Low	switch	twobytwo	89.0	0.818	blue	6.0	cue_switch	magnitude	stay	stim	poldrack-single-stim	s526	0	False
363.457	1.0	364.914	0.9	2.136	True	71.0	Magnitude	switch	twobytwo	71.0	0.557	blue	4.0	cue_switch	magnitude	stay	stim	poldrack-single-stim	s526	0	False
365.698	1.0	366.67	0.1	2.0	True	89.0	High-Low	switch	twobytwo	89.0	0.872	blue	9.0	cue_switch	magnitude	stay	stim	poldrack-single-stim	s526	0	False
367.805	1.0	369.169	0.1	2.0	True	89.0	Color	n/a	twobytwo	89.0	1.264	blue	8.0	task_switch	color	switch	stim	poldrack-single-stim	s526	0	False
369.91	1.0	370.724	0.1	2.136	True	71.0	Magnitude	n/a	twobytwo	71.0	0.714	orange	1.0	task_switch	magnitude	switch	stim	poldrack-single-stim	s526	0	False
372.152	1.0	373.509	0.1	2.136	True	71.0	Orange-Blue	n/a	twobytwo	71.0	1.257	orange	8.0	task_switch	color	switch	stim	poldrack-single-stim	s526	0	False
375.193	1.0	376.635	0.9	2.272	True	71.0	Color	switch	twobytwo	71.0	0.542	orange	3.0	cue_switch	color	stay	stim	poldrack-single-stim	s526	0	False
378.371	1.0	379.856	0.9	3.224	True	89.0	Color	stay	twobytwo	89.0	0.585	blue	8.0	cue_stay	color	stay	stim	poldrack-single-stim	s526	0	False
382.499	1.0	383.981	0.9	2.0	True	71.0	High-Low	n/a	twobytwo	71.0	0.582	orange	2.0	task_switch	magnitude	switch	stim	poldrack-single-stim	s526	0	False
384.605	1.0	385.359	0.1	2.0	True	71.0	High-Low	stay	twobytwo	71.0	0.654	orange	1.0	cue_stay	magnitude	stay	stim	poldrack-single-stim	s526	0	False
387.51	1.0	389.048	0.9	2.272	True	71.0	Magnitude	switch	twobytwo	71.0	0.638	orange	3.0	cue_switch	magnitude	stay	stim	poldrack-single-stim	s526	0	False
389.886	1.0	390.967	0.1	2.136	True	89.0	Magnitude	stay	twobytwo	89.0	0.981	blue	8.0	cue_stay	magnitude	stay	stim	poldrack-single-stim	s526	0	False
392.928	1.0	394.438	0.9	2.0	True	89.0	Magnitude	stay	twobytwo	89.0	0.61	orange	7.0	cue_stay	magnitude	stay	stim	poldrack-single-stim	s526	0	False
395.033	1.0	396.358	0.1	2.0	True	71.0	Color	n/a	twobytwo	71.0	1.225	orange	2.0	task_switch	color	switch	stim	poldrack-single-stim	s526	0	False
397.937	1.0	399.492	0.9	2.0	True	71.0	High-Low	n/a	twobytwo	71.0	0.655	orange	2.0	task_switch	magnitude	switch	stim	poldrack-single-stim	s526	0	False
400.841	1.0	402.592	0.9	2.68	True	71.0	Orange-Blue	n/a	twobytwo	71.0	0.851	orange	8.0	task_switch	color	switch	stim	poldrack-single-stim	s526	0	False
404.428	1.0	406.042	0.9	2.0	True	89.0	High-Low	n/a	twobytwo	89.0	0.714	blue	7.0	task_switch	magnitude	switch	stim	poldrack-single-stim	s526	0	False
406.533	1.0	407.326	0.1	2.272	True	89.0	High-Low	stay	twobytwo	89.0	0.693	orange	9.0	cue_stay	magnitude	stay	stim	poldrack-single-stim	s526	0	False
408.911	1.0	409.819	0.1	2.0	True	89.0	Magnitude	switch	twobytwo	89.0	0.808	orange	8.0	cue_switch	magnitude	stay	stim	poldrack-single-stim	s526	0	False
411.017	1.0	411.94	0.1	2.272	True	89.0	High-Low	switch	twobytwo	89.0	0.823	orange	6.0	cue_switch	magnitude	stay	stim	poldrack-single-stim	s526	0	False
413.394	1.0	414.25	0.1	2.952	True	71.0	Orange-Blue	n/a	twobytwo	71.0	0.756	orange	2.0	task_switch	color	switch	stim	poldrack-single-stim	s526	0	False
417.252	1.0	418.763	0.9	2.0	True	89.0	Magnitude	n/a	twobytwo	89.0	0.611	orange	8.0	task_switch	magnitude	switch	stim	poldrack-single-stim	s526	0	False
419.357	1.0	420.254	0.1	2.0	True	71.0	Color	n/a	twobytwo	71.0	0.797	orange	8.0	task_switch	color	switch	stim	poldrack-single-stim	s526	0	False
421.463	1.0	422.302	0.1	2.0	True	89.0	Orange-Blue	switch	twobytwo	89.0	0.739	blue	8.0	cue_switch	color	stay	stim	poldrack-single-stim	s526	0	False
424.366	1.0	425.811	0.9	2.0	True	71.0	High-Low	n/a	twobytwo	71.0	0.545	blue	1.0	task_switch	magnitude	switch	stim	poldrack-single-stim	s526	0	False
426.471	1.0	427.599	0.1	2.136	True	89.0	Orange-Blue	n/a	twobytwo	89.0	1.028	blue	9.0	task_switch	color	switch	stim	poldrack-single-stim	s526	0	False
429.512	1.0	431.097	0.9	2.0	True	71.0	Color	switch	twobytwo	71.0	0.685	orange	9.0	cue_switch	color	stay	stim	poldrack-single-stim	s526	0	False
431.617	1.0	432.623	0.1	2.0	True	71.0	High-Low	n/a	twobytwo	71.0	0.906	blue	1.0	task_switch	magnitude	switch	stim	poldrack-single-stim	s526	0	False
433.723	1.0	434.435	0.1	2.0	True	71.0	Magnitude	switch	twobytwo	71.0	0.612	blue	1.0	cue_switch	magnitude	stay	stim	poldrack-single-stim	s526	0	False
435.827	1.0	437.013	0.1	2.272	True	89.0	Orange-Blue	n/a	twobytwo	89.0	1.086	blue	1.0	task_switch	color	switch	stim	poldrack-single-stim	s526	0	False
438.203	1.0	439.356	0.1	2.136	False	89.0	High-Low	n/a	twobytwo	71.0	1.053	blue	9.0	task_switch	magnitude	switch	stim	poldrack-single-stim	s526	0	False
440.445	1.0	441.511	0.1	2.0	True	89.0	High-Low	stay	twobytwo	89.0	0.966	orange	6.0	cue_stay	magnitude	stay	stim	poldrack-single-stim	s526	0	False
456.859	1.0	458.597	0.9	2.136	True	71.0	High-Low	stay	twobytwo	71.0	0.838	orange	4.0	cue_stay	magnitude	stay	stim	poldrack-single-stim	s526	1	False
459.1	1.0	460.407	0.1	2.816	True	89.0	Orange-Blue	n/a	twobytwo	89.0	1.207	blue	7.0	task_switch	color	switch	stim	poldrack-single-stim	s526	0	False
462.821	1.0	464.169	0.9	2.408	True	89.0	Color	switch	twobytwo	89.0	0.448	blue	4.0	cue_switch	color	stay	stim	poldrack-single-stim	s526	0	False
466.135	1.0	467.645	0.9	2.0	True	71.0	Magnitude	n/a	twobytwo	71.0	0.61	blue	4.0	task_switch	magnitude	switch	stim	poldrack-single-stim	s526	0	False
468.24	1.0	469.248	0.1	2.136	True	89.0	Orange-Blue	n/a	twobytwo	89.0	0.908	blue	8.0	task_switch	color	switch	stim	poldrack-single-stim	s526	0	False
471.282	1.0	472.852	0.9	2.136	True	89.0	High-Low	n/a	twobytwo	89.0	0.67	orange	7.0	task_switch	magnitude	switch	stim	poldrack-single-stim	s526	0	False
473.522	1.0	474.823	0.1	2.136	True	71.0	Orange-Blue	n/a	twobytwo	71.0	1.201	orange	6.0	task_switch	color	switch	stim	poldrack-single-stim	s526	0	False
475.763	1.0	476.905	0.1	2.544	True	89.0	Orange-Blue	stay	twobytwo	89.0	1.042	blue	3.0	cue_stay	color	stay	stim	poldrack-single-stim	s526	0	False
478.413	1.0	479.38	0.1	2.136	True	71.0	Magnitude	n/a	twobytwo	71.0	0.867	orange	4.0	task_switch	magnitude	switch	stim	poldrack-single-stim	s526	0	False
480.652	1.0	482.151	0.1	2.0	True	89.0	Orange-Blue	n/a	twobytwo	89.0	1.399	blue	4.0	task_switch	color	switch	stim	poldrack-single-stim	s526	0	False
482.757	1.0	483.862	0.1	2.0	True	71.0	Magnitude	n/a	twobytwo	71.0	1.005	blue	3.0	task_switch	magnitude	switch	stim	poldrack-single-stim	s526	0	False
484.863	1.0	485.689	0.1	2.0	True	71.0	Magnitude	stay	twobytwo	71.0	0.726	blue	1.0	cue_stay	magnitude	stay	stim	poldrack-single-stim	s526	0	False
486.968	1.0	487.917	0.1	2.0	True	89.0	Orange-Blue	n/a	twobytwo	89.0	0.849	blue	6.0	task_switch	color	switch	stim	poldrack-single-stim	s526	0	False
489.873	1.0	491.52	0.9	2.136	True	89.0	High-Low	n/a	twobytwo	89.0	0.747	orange	9.0	task_switch	magnitude	switch	stim	poldrack-single-stim	s526	0	False
492.914	1.0	494.49	0.9	2.0	True	71.0	Magnitude	switch	twobytwo	71.0	0.676	blue	1.0	cue_switch	magnitude	stay	stim	poldrack-single-stim	s526	0	False
495.021	1.0	496.129	0.1	2.0	True	89.0	Color	n/a	twobytwo	89.0	1.008	blue	1.0	task_switch	color	switch	stim	poldrack-single-stim	s526	0	False
497.926	1.0	499.585	0.9	2.0	True	71.0	Magnitude	n/a	twobytwo	71.0	0.759	blue	1.0	task_switch	magnitude	switch	stim	poldrack-single-stim	s526	0	False
500.83	1.0	502.342	0.9	2.136	True	71.0	Orange-Blue	n/a	twobytwo	71.0	0.612	orange	8.0	task_switch	color	switch	stim	poldrack-single-stim	s526	0	False
503.87	1.0	505.494	0.9	2.136	True	89.0	High-Low	n/a	twobytwo	89.0	0.724	orange	9.0	task_switch	magnitude	switch	stim	poldrack-single-stim	s526	0	False
506.11	1.0	507.074	0.1	2.136	True	71.0	Orange-Blue	n/a	twobytwo	71.0	0.864	orange	6.0	task_switch	color	switch	stim	poldrack-single-stim	s526	0	False
509.151	1.0	510.697	0.9	2.136	True	89.0	Color	switch	twobytwo	89.0	0.646	blue	2.0	cue_switch	color	stay	stim	poldrack-single-stim	s526	0	False
512.192	1.0	513.74	0.9	2.68	True	89.0	Color	stay	twobytwo	89.0	0.648	blue	8.0	cue_stay	color	stay	stim	poldrack-single-stim	s526	0	False
514.977	1.0	516.191	0.1	2.544	False	89.0	Magnitude	n/a	twobytwo	71.0	1.114	orange	6.0	task_switch	magnitude	switch	stim	poldrack-single-stim	s526	0	False
518.426	1.0	520.02	0.9	2.272	True	71.0	Color	n/a	twobytwo	71.0	0.694	orange	2.0	task_switch	color	switch	stim	poldrack-single-stim	s526	0	False
520.803	1.0	521.944	0.1	2.272	True	89.0	Orange-Blue	switch	twobytwo	89.0	1.041	blue	6.0	cue_switch	color	stay	stim	poldrack-single-stim	s526	0	False
523.98	1.0	525.857	0.9	2.408	True	89.0	Color	switch	twobytwo	89.0	0.977	blue	9.0	cue_switch	color	stay	stim	poldrack-single-stim	s526	0	False
526.494	1.0	527.678	0.1	2.136	True	71.0	Color	stay	twobytwo	71.0	1.084	orange	4.0	cue_stay	color	stay	stim	poldrack-single-stim	s526	0	False
528.734	1.0	529.541	0.1	2.272	True	89.0	Color	stay	twobytwo	89.0	0.707	blue	7.0	cue_stay	color	stay	stim	poldrack-single-stim	s526	0	False
531.911	1.0	533.784	0.9	2.0	True	89.0	Color	stay	twobytwo	89.0	0.973	blue	6.0	cue_stay	color	stay	stim	poldrack-single-stim	s526	0	False
534.015	1.0	535.031	0.1	2.136	True	89.0	Orange-Blue	switch	twobytwo	89.0	0.916	blue	6.0	cue_switch	color	stay	stim	poldrack-single-stim	s526	0	False
537.057	1.0	538.477	0.9	2.272	True	89.0	Magnitude	n/a	twobytwo	89.0	0.52	blue	8.0	task_switch	magnitude	switch	stim	poldrack-single-stim	s526	0	False
539.434	1.0	540.37	0.1	2.0	True	71.0	High-Low	switch	twobytwo	71.0	0.836	orange	3.0	cue_switch	magnitude	stay	stim	poldrack-single-stim	s526	0	False
542.34	1.0	544.109	0.9	2.68	True	71.0	Magnitude	switch	twobytwo	71.0	0.869	blue	1.0	cue_switch	magnitude	stay	stim	poldrack-single-stim	s526	0	False
545.925	1.0	547.422	0.9	2.0	True	71.0	High-Low	switch	twobytwo	71.0	0.597	blue	3.0	cue_switch	magnitude	stay	stim	poldrack-single-stim	s526	0	False
548.829	1.0	550.351	0.9	2.0	True	71.0	Magnitude	switch	twobytwo	71.0	0.622	orange	3.0	cue_switch	magnitude	stay	stim	poldrack-single-stim	s526	0	False
550.934	1.0	551.716	0.1	2.0	True	71.0	Magnitude	stay	twobytwo	71.0	0.682	blue	1.0	cue_stay	magnitude	stay	stim	poldrack-single-stim	s526	0	False
553.039	1.0	553.837	0.1	2.272	True	71.0	High-Low	switch	twobytwo	71.0	0.698	blue	4.0	cue_switch	magnitude	stay	stim	poldrack-single-stim	s526	0	False
555.416	1.0	556.037	0.1	2.0	True	71.0	Magnitude	switch	twobytwo	71.0	0.521	blue	3.0	cue_switch	magnitude	stay	stim	poldrack-single-stim	s526	0	False
558.322	1.0	559.921	0.9	2.0	True	71.0	High-Low	switch	twobytwo	71.0	0.699	blue	3.0	cue_switch	magnitude	stay	stim	poldrack-single-stim	s526	0	False
561.226	1.0	563.01	0.9	2.0	True	89.0	Magnitude	switch	twobytwo	89.0	0.884	blue	6.0	cue_switch	magnitude	stay	stim	poldrack-single-stim	s526	0	False
563.331	1.0	563.33	0.1	2.68	False	89.0	High-Low	switch	twobytwo	-1.0	n/a	orange	6.0	cue_switch	magnitude	stay	stim	poldrack-single-stim	s526	0	False
566.117	1.0	567.23	0.1	2.0	True	89.0	High-Low	stay	twobytwo	89.0	1.013	orange	6.0	cue_stay	magnitude	stay	stim	poldrack-single-stim	s526	0	False
568.222	1.0	569.129	0.1	2.136	False	89.0	Orange-Blue	n/a	twobytwo	71.0	0.807	blue	3.0	task_switch	color	switch	stim	poldrack-single-stim	s526	0	False
571.264	1.0	573.097	0.9	2.408	True	89.0	Color	switch	twobytwo	89.0	0.933	blue	7.0	cue_switch	color	stay	stim	poldrack-single-stim	s526	0	False
574.577	1.0	576.437	0.9	2.136	True	89.0	High-Low	n/a	twobytwo	89.0	0.96	orange	8.0	task_switch	magnitude	switch	stim	poldrack-single-stim	s526	0	False
577.617	1.0	579.456	0.9	2.0	True	71.0	Orange-Blue	n/a	twobytwo	71.0	0.939	orange	4.0	task_switch	color	switch	stim	poldrack-single-stim	s526	0	False
579.723	1.0	579.722	0.1	2.0	False	89.0	High-Low	n/a	twobytwo	-1.0	n/a	blue	7.0	task_switch	magnitude	switch	stim	poldrack-single-stim	s526	0	False
582.628	1.0	583.91	0.9	2.544	True	71.0	Magnitude	switch	twobytwo	71.0	0.382	blue	2.0	cue_switch	magnitude	stay	stim	poldrack-single-stim	s526	0	False
585.276	1.0	586.515	0.1	2.136	True	89.0	High-Low	switch	twobytwo	89.0	1.139	blue	6.0	cue_switch	magnitude	stay	stim	poldrack-single-stim	s526	0	False
588.317	1.0	589.734	0.9	2.544	True	71.0	Magnitude	switch	twobytwo	71.0	0.517	blue	4.0	cue_switch	magnitude	stay	stim	poldrack-single-stim	s526	0	False
590.965	1.0	591.837	0.1	2.68	True	89.0	High-Low	switch	twobytwo	89.0	0.772	blue	9.0	cue_switch	magnitude	stay	stim	poldrack-single-stim	s526	0	False
593.751	1.0	595.131	0.1	2.0	True	89.0	Orange-Blue	n/a	twobytwo	89.0	1.28	blue	8.0	task_switch	color	switch	stim	poldrack-single-stim	s526	0	False
595.855	1.0	596.732	0.1	2.272	True	71.0	High-Low	n/a	twobytwo	71.0	0.777	orange	1.0	task_switch	magnitude	switch	stim	poldrack-single-stim	s526	0	False
598.233	1.0	599.232	0.1	3.088	True	71.0	Color	n/a	twobytwo	71.0	0.899	orange	8.0	task_switch	color	switch	stim	poldrack-single-stim	s526	0	False
602.226	1.0	604.021	0.9	2.0	True	71.0	Orange-Blue	switch	twobytwo	71.0	0.895	orange	3.0	cue_switch	color	stay	stim	poldrack-single-stim	s526	0	False
605.13	1.0	606.589	0.9	2.136	True	89.0	Orange-Blue	stay	twobytwo	89.0	0.559	blue	8.0	cue_stay	color	stay	stim	poldrack-single-stim	s526	0	False
608.172	1.0	609.648	0.9	2.136	True	71.0	High-Low	n/a	twobytwo	71.0	0.576	orange	2.0	task_switch	magnitude	switch	stim	poldrack-single-stim	s526	0	False
610.413	1.0	611.171	0.1	2.0	True	71.0	High-Low	stay	twobytwo	71.0	0.658	orange	1.0	cue_stay	magnitude	stay	stim	poldrack-single-stim	s526	0	False
613.319	1.0	614.732	0.9	2.272	True	71.0	Magnitude	switch	twobytwo	71.0	0.513	orange	3.0	cue_switch	magnitude	stay	stim	poldrack-single-stim	s526	0	False
615.696	1.0	616.485	0.1	2.0	True	89.0	Magnitude	stay	twobytwo	89.0	0.689	blue	8.0	cue_stay	magnitude	stay	stim	poldrack-single-stim	s526	0	False
618.6	1.0	620.102	0.9	2.136	True	89.0	Magnitude	stay	twobytwo	89.0	0.602	orange	7.0	cue_stay	magnitude	stay	stim	poldrack-single-stim	s526	0	False
620.841	1.0	621.73	0.1	2.136	True	71.0	Orange-Blue	n/a	twobytwo	71.0	0.789	orange	2.0	task_switch	color	switch	stim	poldrack-single-stim	s526	0	False
623.882	1.0	625.357	0.9	2.544	True	71.0	Magnitude	n/a	twobytwo	71.0	0.575	orange	2.0	task_switch	magnitude	switch	stim	poldrack-single-stim	s526	0	False
627.332	1.0	629.479	0.9	2.0	True	71.0	Orange-Blue	n/a	twobytwo	71.0	1.247	orange	8.0	task_switch	color	switch	stim	poldrack-single-stim	s526	0	False
630.238	1.0	631.886	0.9	2.136	True	89.0	Magnitude	n/a	twobytwo	89.0	0.748	blue	7.0	task_switch	magnitude	switch	stim	poldrack-single-stim	s526	0	False
632.479	1.0	633.741	0.1	2.136	True	89.0	Magnitude	stay	twobytwo	89.0	1.162	orange	9.0	cue_stay	magnitude	stay	stim	poldrack-single-stim	s526	0	False
634.72	1.0	635.486	0.1	2.136	True	89.0	High-Low	switch	twobytwo	89.0	0.666	orange	8.0	cue_switch	magnitude	stay	stim	poldrack-single-stim	s526	0	False
636.961	1.0	637.658	0.1	2.0	True	89.0	Magnitude	switch	twobytwo	89.0	0.597	orange	6.0	cue_switch	magnitude	stay	stim	poldrack-single-stim	s526	0	False
639.065	1.0	640.234	0.1	2.136	False	71.0	Orange-Blue	n/a	twobytwo	89.0	1.069	orange	2.0	task_switch	color	switch	stim	poldrack-single-stim	s526	0	False
642.107	1.0	643.636	0.9	2.0	True	89.0	Magnitude	n/a	twobytwo	89.0	0.629	orange	8.0	task_switch	magnitude	switch	stim	poldrack-single-stim	s526	0	False
644.212	1.0	645.371	0.1	2.136	False	71.0	Orange-Blue	n/a	twobytwo	89.0	1.059	orange	8.0	task_switch	color	switch	stim	poldrack-single-stim	s526	0	False
646.452	1.0	647.351	0.1	2.816	True	89.0	Color	switch	twobytwo	89.0	0.799	blue	8.0	cue_switch	color	stay	stim	poldrack-single-stim	s526	0	False
650.174	1.0	651.694	0.9	2.136	True	71.0	Magnitude	n/a	twobytwo	71.0	0.62	blue	1.0	task_switch	magnitude	switch	stim	poldrack-single-stim	s526	0	False
652.415	1.0	653.565	0.1	2.0	True	89.0	Color	n/a	twobytwo	89.0	1.05	blue	9.0	task_switch	color	switch	stim	poldrack-single-stim	s526	0	False
655.319	1.0	656.868	0.9	2.0	True	71.0	Orange-Blue	switch	twobytwo	71.0	0.649	orange	9.0	cue_switch	color	stay	stim	poldrack-single-stim	s526	0	False
657.425	1.0	658.233	0.1	2.272	True	71.0	High-Low	n/a	twobytwo	71.0	0.708	blue	1.0	task_switch	magnitude	switch	stim	poldrack-single-stim	s526	0	False
659.801	1.0	660.53	0.1	2.0	True	71.0	Magnitude	switch	twobytwo	71.0	0.629	blue	1.0	cue_switch	magnitude	stay	stim	poldrack-single-stim	s526	0	False
661.906	1.0	662.969	0.1	2.0	True	89.0	Color	n/a	twobytwo	89.0	0.963	blue	1.0	task_switch	color	switch	stim	poldrack-single-stim	s526	0	False
664.011	1.0	665.156	0.1	2.0	True	89.0	High-Low	n/a	twobytwo	89.0	1.045	blue	9.0	task_switch	magnitude	switch	stim	poldrack-single-stim	s526	0	False
666.118	1.0	667.224	0.1	2.408	True	89.0	High-Low	stay	twobytwo	89.0	1.006	orange	6.0	cue_stay	magnitude	stay	stim	poldrack-single-stim	s526	0	False
