onset	duration	movement_onset	EV	action	block_duration	experiment_exp_id	gain_amount	gain_probability	key_press	loss_amount	loss_probability	num_cards	num_click_in_round	num_loss_cards	risk	response_time	total_cards	trial_id	trial_type	worker_id	junk	feedback
3.008	6.346	9.354	-1.818678896711441	draw_card	6.346	columbia_card_task_fmri	12.0	0.8333333333333334	89.0	-70.0	0.1666666666666666	6.0	1.0	1.0	-2.0293894246647604	6.346	n/a	stim	poldrack-single-stim	s526	False	1
9.356	1.771	11.127	-4.552012230044774	end_round	1.771	columbia_card_task_fmri	12.0	0.8	71.0	-70.0	0.2	6.0	2.0	1.0	0.2109890587797664	1.771	1.0	stim	poldrack-single-stim	s526	False	1
11.88	1.5	11.129	n/a	-1.0	2.318	columbia_card_task_fmri	n/a	n/a	-1.0	n/a	n/a	n/a	n/a	n/a	n/a	n/a	n/a	ITI	poldrack-single-stim	s526	False	0
13.451	2.756	16.207	-0.9853455633781072	draw_card	2.756	columbia_card_task_fmri	14.0	0.8333333333333334	89.0	-75.0	0.1666666666666666	6.0	1.0	1.0	0.5793268132559106	2.756	n/a	stim	poldrack-single-stim	s526	False	1
16.207	2.38	18.587	-3.9520122300447738	end_round	2.38	columbia_card_task_fmri	14.0	0.8	71.0	-75.0	0.2	6.0	2.0	1.0	3.01096135399412	2.38	1.0	stim	poldrack-single-stim	s526	False	1
19.34	1.5	18.589	n/a	-1.0	2.318	columbia_card_task_fmri	n/a	n/a	-1.0	n/a	n/a	n/a	n/a	n/a	n/a	n/a	n/a	ITI	poldrack-single-stim	s526	False	0
20.909	3.353	24.262	0.6813211032885589	end_round	3.353	columbia_card_task_fmri	15.0	0.8333333333333334	71.0	-70.0	0.1666666666666666	6.0	1.0	1.0	-0.9113687795454872	3.353	0.0	stim	poldrack-single-stim	s526	False	1
25.016	1.5	24.265	n/a	-1.0	2.862	columbia_card_task_fmri	n/a	n/a	-1.0	n/a	n/a	n/a	n/a	n/a	n/a	n/a	n/a	ITI	poldrack-single-stim	s526	False	0
27.13	2.679	29.809	1.5146544366218928	draw_card	2.679	columbia_card_task_fmri	17.0	0.8333333333333334	89.0	-75.0	0.1666666666666666	6.0	1.0	1.0	1.697349443267008	2.679	n/a	stim	poldrack-single-stim	s526	False	1
29.81	3.372	33.182	-1.5520122300447736	draw_card	3.372	columbia_card_task_fmri	17.0	0.8	89.0	-75.0	0.2	6.0	2.0	1.0	4.210950771092797	3.372	n/a	stim	poldrack-single-stim	s526	False	1
33.183	4.304	37.487	-6.152012230044775	draw_card	4.304	columbia_card_task_fmri	17.0	0.75	89.0	-75.0	0.25	6.0	3.0	1.0	7.248095409013871	4.304	n/a	stim	poldrack-single-stim	s526	False	1
37.488	1.457	38.945	-13.81867889671144	end_round	1.457	columbia_card_task_fmri	17.0	0.6666666666666667	71.0	-75.0	0.3333333333333333	6.0	4.0	1.0	10.78011912774342	1.457	3.0	stim	poldrack-single-stim	s526	False	1
39.697	1.5	38.946	n/a	-1.0	2.726	columbia_card_task_fmri	n/a	n/a	-1.0	n/a	n/a	n/a	n/a	n/a	n/a	n/a	n/a	ITI	poldrack-single-stim	s526	False	0
41.675	8.129	49.804	2.847987769955225	draw_card	8.129	columbia_card_task_fmri	24.0	0.75	89.0	-60.0	0.25	8.0	1.0	2.0	3.78402141517477	8.129	1.0	stim	poldrack-single-stim	s526	False	0
50.557	1.5	49.806	n/a	-1.0	2.25	columbia_card_task_fmri	n/a	n/a	-1.0	n/a	n/a	n/a	n/a	n/a	n/a	n/a	n/a	ITI	poldrack-single-stim	s526	False	0
52.058	4.866	56.924	2.847987769955225	end_round	4.866	columbia_card_task_fmri	29.0	0.75	71.0	-75.0	0.25	8.0	1.0	2.0	12.444214367378372	4.866	0.0	stim	poldrack-single-stim	s526	False	1
57.677	1.5	56.926	n/a	-1.0	2.318	columbia_card_task_fmri	n/a	n/a	-1.0	n/a	n/a	n/a	n/a	n/a	n/a	n/a	n/a	ITI	poldrack-single-stim	s526	False	0
59.247	2.172	61.419	-1.3742344522669947	end_round	2.172	columbia_card_task_fmri	17.0	0.7777777777777778	71.0	-65.0	0.2222222222222222	9.0	1.0	2.0	1.5016319135062943	2.172	0.0	stim	poldrack-single-stim	s526	False	1
62.172	1.5	61.421	n/a	-1.0	2.454	columbia_card_task_fmri	n/a	n/a	-1.0	n/a	n/a	n/a	n/a	n/a	n/a	n/a	n/a	ITI	poldrack-single-stim	s526	False	0
63.878	4.852	68.73	2.947987769955225	end_round	4.852	columbia_card_task_fmri	14.0	0.9	71.0	-95.0	0.1	10.0	1.0	1.0	0.1109901359849843	4.852	0.0	stim	poldrack-single-stim	s526	False	1
69.484	1.5	68.733	n/a	-1.0	2.522	columbia_card_task_fmri	n/a	n/a	-1.0	n/a	n/a	n/a	n/a	n/a	n/a	n/a	n/a	ITI	poldrack-single-stim	s526	False	0
71.258	3.124	74.382	-1.152012230044775	end_round	3.124	columbia_card_task_fmri	15.0	0.8	71.0	-65.0	0.2	10.0	1.0	2.0	-0.5890021350706718	3.124	0.0	stim	poldrack-single-stim	s526	False	1
75.135	1.5	74.384	n/a	-1.0	2.318	columbia_card_task_fmri	n/a	n/a	-1.0	n/a	n/a	n/a	n/a	n/a	n/a	n/a	n/a	ITI	poldrack-single-stim	s526	False	0
76.705	3.434	80.139	0.4479877699552264	draw_card	3.434	columbia_card_task_fmri	17.0	0.8	89.0	-65.0	0.2	10.0	1.0	2.0	0.2109890587797664	3.434	n/a	stim	poldrack-single-stim	s526	False	1
80.14	1.679	81.819	-1.3742344522669947	draw_card	1.679	columbia_card_task_fmri	17.0	0.7777777777777778	89.0	-65.0	0.2222222222222222	10.0	2.0	2.0	1.5016319135062943	1.679	n/a	stim	poldrack-single-stim	s526	False	1
81.82	5.554	87.374	-3.652012230044775	end_round	5.554	columbia_card_task_fmri	17.0	0.75	71.0	-65.0	0.25	10.0	3.0	2.0	2.9180037588166954	5.554	2.0	stim	poldrack-single-stim	s526	False	1
88.127	1.5	87.376	n/a	-1.0	2.522	columbia_card_task_fmri	n/a	n/a	-1.0	n/a	n/a	n/a	n/a	n/a	n/a	n/a	n/a	ITI	poldrack-single-stim	s526	False	0
89.901	3.841	93.742	-0.9853455633781072	end_round	3.841	columbia_card_task_fmri	13.0	0.8333333333333334	71.0	-70.0	0.1666666666666666	12.0	1.0	2.0	-1.6567159834674854	3.841	0.0	stim	poldrack-single-stim	s526	False	1
94.495	1.5	93.744	n/a	-1.0	2.998	columbia_card_task_fmri	n/a	n/a	-1.0	n/a	n/a	n/a	n/a	n/a	n/a	n/a	n/a	ITI	poldrack-single-stim	s526	False	0
96.744	3.36	100.104	-0.9853455633781072	end_round	3.36	columbia_card_task_fmri	15.0	0.8333333333333334	71.0	-80.0	0.1666666666666666	12.0	1.0	2.0	2.8153727906618826	3.36	0.0	stim	poldrack-single-stim	s526	False	1
100.857	1.5	100.106	n/a	-1.0	2.318	columbia_card_task_fmri	n/a	n/a	-1.0	n/a	n/a	n/a	n/a	n/a	n/a	n/a	n/a	ITI	poldrack-single-stim	s526	False	0
102.426	4.079	106.505	-1.952012230044774	draw_card	4.079	columbia_card_task_fmri	14.0	0.8	89.0	-65.0	0.2	15.0	1.0	3.0	-0.9889975647933724	4.079	n/a	stim	poldrack-single-stim	s526	False	1
106.507	1.56	108.067	-3.080583658616202	draw_card	1.56	columbia_card_task_fmri	14.0	0.7857142857142857	89.0	-65.0	0.2142857142857142	15.0	2.0	3.0	-0.1732604031164868	1.56	2.0	stim	poldrack-single-stim	s526	False	0
108.82	1.5	108.069	n/a	-1.0	2.25	columbia_card_task_fmri	n/a	n/a	-1.0	n/a	n/a	n/a	n/a	n/a	n/a	n/a	n/a	ITI	poldrack-single-stim	s526	False	0
110.321	5.702	116.023	-2.027012230044775	end_round	5.702	columbia_card_task_fmri	1.0	0.9375	71.0	-45.0	0.0625	16.0	1.0	1.0	-21.453498486577	5.702	0.0	stim	poldrack-single-stim	s526	False	1
116.776	1.5	116.025	n/a	-1.0	2.454	columbia_card_task_fmri	n/a	n/a	-1.0	n/a	n/a	n/a	n/a	n/a	n/a	n/a	n/a	ITI	poldrack-single-stim	s526	False	0
118.483	3.555	122.038	-1.089512230044775	draw_card	3.555	columbia_card_task_fmri	15.0	0.8125	89.0	-70.0	0.1875	16.0	1.0	3.0	0.5875369272982027	3.555	1.0	stim	poldrack-single-stim	s526	False	0
122.792	1.5	122.041	n/a	-1.0	2.318	columbia_card_task_fmri	n/a	n/a	-1.0	n/a	n/a	n/a	n/a	n/a	n/a	n/a	n/a	ITI	poldrack-single-stim	s526	False	0
124.362	6.775	131.137	5.847987769955225	end_round	6.775	columbia_card_task_fmri	30.0	0.7	71.0	-50.0	0.3	10.0	1.0	3.0	4.071557524506282	6.775	0.0	stim	poldrack-single-stim	s526	False	1
131.89	1.5	131.139	n/a	-1.0	2.318	columbia_card_task_fmri	n/a	n/a	-1.0	n/a	n/a	n/a	n/a	n/a	n/a	n/a	n/a	ITI	poldrack-single-stim	s526	False	0
133.46	7.039	140.499	5.247987769955225	draw_card	7.039	columbia_card_task_fmri	17.0	0.8666666666666667	89.0	-70.0	0.1333333333333333	15.0	1.0	2.0	-3.014659342770795	7.039	1.0	stim	poldrack-single-stim	s526	False	0
141.251	1.5	140.5	n/a	-1.0	2.59	columbia_card_task_fmri	n/a	n/a	-1.0	n/a	n/a	n/a	n/a	n/a	n/a	n/a	n/a	ITI	poldrack-single-stim	s526	False	0
143.094	2.921	146.015	0.4729877699552249	end_round	2.921	columbia_card_task_fmri	7.0	0.9375	71.0	-95.0	0.0625	16.0	1.0	1.0	-7.898626411557359	2.921	0.0	stim	poldrack-single-stim	s526	False	1
146.767	1.5	146.016	n/a	-1.0	2.25	columbia_card_task_fmri	n/a	n/a	-1.0	n/a	n/a	n/a	n/a	n/a	n/a	n/a	n/a	ITI	poldrack-single-stim	s526	False	0
148.268	2.144	150.412	2.035487769955225	end_round	2.144	columbia_card_task_fmri	9.0	0.9375	71.0	-100.0	0.0625	16.0	1.0	1.0	-6.204226248750011	2.144	0.0	stim	poldrack-single-stim	s526	False	1
151.165	1.5	150.414	n/a	-1.0	2.25	columbia_card_task_fmri	n/a	n/a	-1.0	n/a	n/a	n/a	n/a	n/a	n/a	n/a	n/a	ITI	poldrack-single-stim	s526	False	0
152.667	4.356	157.023	2.972987769955225	draw_card	4.356	columbia_card_task_fmri	15.0	0.875	89.0	-80.0	0.125	16.0	1.0	2.0	-1.1706986313789471	4.356	1.0	stim	poldrack-single-stim	s526	False	0
157.776	1.5	157.025	n/a	-1.0	2.522	columbia_card_task_fmri	n/a	n/a	-1.0	n/a	n/a	n/a	n/a	n/a	n/a	n/a	n/a	ITI	poldrack-single-stim	s526	False	0
159.55	3.097	162.647	5.097987769955225	draw_card	3.097	columbia_card_task_fmri	16.0	0.875	89.0	-70.0	0.125	16.0	1.0	2.0	-4.147130372341845	3.097	n/a	stim	poldrack-single-stim	s526	False	1
162.65	2.485	165.135	4.381321103288558	draw_card	2.485	columbia_card_task_fmri	16.0	0.8666666666666667	89.0	-70.0	0.1333333333333333	16.0	2.0	2.0	-3.3545894344025378	2.485	n/a	stim	poldrack-single-stim	s526	False	1
165.136	2.312	167.448	3.5622734842409405	draw_card	2.312	columbia_card_task_fmri	16.0	0.8571428571428572	89.0	-70.0	0.1428571428571428	16.0	3.0	2.0	-2.495248138858095	2.312	n/a	stim	poldrack-single-stim	s526	False	1
167.45	2.529	169.979	2.617218539185993	draw_card	2.529	columbia_card_task_fmri	16.0	0.8461538461538461	89.0	-70.0	0.1538461538461538	16.0	4.0	2.0	-1.5600865781240143	2.529	n/a	stim	poldrack-single-stim	s526	False	1
169.98	1.513	171.493	1.5146544366218928	end_round	1.513	columbia_card_task_fmri	16.0	0.8333333333333334	71.0	-70.0	0.1666666666666666	16.0	5.0	2.0	-0.538695024297958	1.513	4.0	stim	poldrack-single-stim	s526	False	1
172.246	1.5	171.495	n/a	-1.0	2.454	columbia_card_task_fmri	n/a	n/a	-1.0	n/a	n/a	n/a	n/a	n/a	n/a	n/a	n/a	ITI	poldrack-single-stim	s526	False	0
173.952	7.082	181.034	6.410487769955225	draw_card	7.082	columbia_card_task_fmri	30.0	0.6875	89.0	-45.0	0.3125	16.0	1.0	5.0	2.174399572244233	7.082	1.0	stim	poldrack-single-stim	s526	False	0
181.788	1.5	181.037	n/a	-1.0	2.25	columbia_card_task_fmri	n/a	n/a	-1.0	n/a	n/a	n/a	n/a	n/a	n/a	n/a	n/a	ITI	poldrack-single-stim	s526	False	0
183.29	3.515	186.805	-1.818678896711441	draw_card	3.515	columbia_card_task_fmri	13.0	0.8333333333333334	89.0	-75.0	0.1666666666666666	6.0	1.0	1.0	0.2066527753515927	3.515	1.0	stim	poldrack-single-stim	s526	False	0
187.558	1.5	186.807	n/a	-1.0	2.454	columbia_card_task_fmri	n/a	n/a	-1.0	n/a	n/a	n/a	n/a	n/a	n/a	n/a	n/a	ITI	poldrack-single-stim	s526	False	0
189.264	6.533	195.797	-0.1520122300447732	draw_card	6.533	columbia_card_task_fmri	14.0	0.8333333333333334	89.0	-70.0	0.1666666666666666	6.0	1.0	1.0	-1.2840424338185272	6.533	1.0	stim	poldrack-single-stim	s526	False	0
196.551	1.5	195.8	n/a	-1.0	2.454	columbia_card_task_fmri	n/a	n/a	-1.0	n/a	n/a	n/a	n/a	n/a	n/a	n/a	n/a	ITI	poldrack-single-stim	s526	False	0
198.257	1.68	199.937	-0.1520122300447732	draw_card	1.68	columbia_card_task_fmri	16.0	0.8333333333333334	89.0	-80.0	0.1666666666666666	6.0	1.0	1.0	3.188047387588057	1.68	n/a	stim	poldrack-single-stim	s526	False	1
199.938	1.141	201.079	-3.352012230044774	draw_card	1.141	columbia_card_task_fmri	16.0	0.8	89.0	-80.0	0.2	6.0	2.0	1.0	5.810937689438283	1.141	n/a	stim	poldrack-single-stim	s526	False	1
201.081	1.434	202.515	-8.152012230044775	end_round	1.434	columbia_card_task_fmri	16.0	0.75	71.0	-80.0	0.25	6.0	3.0	1.0	8.9801341322462	1.434	2.0	stim	poldrack-single-stim	s526	False	1
203.268	1.5	202.517	n/a	-1.0	2.522	columbia_card_task_fmri	n/a	n/a	-1.0	n/a	n/a	n/a	n/a	n/a	n/a	n/a	n/a	ITI	poldrack-single-stim	s526	False	0
205.042	4.311	209.353	2.347987769955227	draw_card	4.311	columbia_card_task_fmri	17.0	0.8333333333333334	89.0	-70.0	0.1666666666666666	6.0	1.0	1.0	-0.1660211715577517	4.311	n/a	stim	poldrack-single-stim	s526	False	1
209.354	3.476	212.83	-0.5520122300447736	end_round	3.476	columbia_card_task_fmri	17.0	0.8	71.0	-70.0	0.2	6.0	2.0	1.0	2.2109688147311672	3.476	1.0	stim	poldrack-single-stim	s526	False	1
213.582	1.5	212.831	n/a	-1.0	2.454	columbia_card_task_fmri	n/a	n/a	-1.0	n/a	n/a	n/a	n/a	n/a	n/a	n/a	n/a	ITI	poldrack-single-stim	s526	False	0
215.289	4.585	219.874	2.347987769955225	draw_card	4.585	columbia_card_task_fmri	25.0	0.75	89.0	-65.0	0.25	8.0	1.0	2.0	6.382076450204458	4.585	n/a	stim	poldrack-single-stim	s526	False	1
219.876	2.308	222.184	-0.8662979443304868	end_round	2.308	columbia_card_task_fmri	25.0	0.7142857142857143	71.0	-65.0	0.2857142857142857	8.0	2.0	2.0	8.068776611472558	2.308	1.0	stim	poldrack-single-stim	s526	False	1
222.936	1.5	222.185	n/a	-1.0	2.658	columbia_card_task_fmri	n/a	n/a	-1.0	n/a	n/a	n/a	n/a	n/a	n/a	n/a	n/a	ITI	poldrack-single-stim	s526	False	0
224.847	3.928	228.775	2.347987769955225	draw_card	3.928	columbia_card_task_fmri	30.0	0.75	89.0	-80.0	0.25	8.0	1.0	2.0	15.042276584529574	3.928	n/a	stim	poldrack-single-stim	s526	False	1
228.776	2.463	231.239	-1.5805836586161983	draw_card	2.463	columbia_card_task_fmri	30.0	0.7142857142857143	89.0	-80.0	0.2857142857142857	8.0	2.0	2.0	17.10380397318184	2.463	2.0	stim	poldrack-single-stim	s526	False	0
231.992	1.5	231.241	n/a	-1.0	2.386	columbia_card_task_fmri	n/a	n/a	-1.0	n/a	n/a	n/a	n/a	n/a	n/a	n/a	n/a	ITI	poldrack-single-stim	s526	False	0
233.63	2.911	236.541	2.0479877699552262	end_round	2.911	columbia_card_task_fmri	13.0	0.9	71.0	-95.0	0.1	10.0	1.0	1.0	-0.1890065925035031	2.911	0.0	stim	poldrack-single-stim	s526	False	1
237.294	1.5	236.543	n/a	-1.0	2.522	columbia_card_task_fmri	n/a	n/a	-1.0	n/a	n/a	n/a	n/a	n/a	n/a	n/a	n/a	ITI	poldrack-single-stim	s526	False	0
239.068	3.474	242.542	3.447987769955225	draw_card	3.474	columbia_card_task_fmri	14.0	0.9	89.0	-90.0	0.1	10.0	1.0	1.0	-1.388992877331539	3.474	n/a	stim	poldrack-single-stim	s526	False	1
242.544	1.464	244.008	2.292432214399668	draw_card	1.464	columbia_card_task_fmri	14.0	0.8888888888888888	89.0	-90.0	0.1111111111111111	10.0	2.0	1.0	0.0950370832884814	1.464	n/a	stim	poldrack-single-stim	s526	False	1
244.009	1.281	245.29	0.847987769955225	end_round	1.281	columbia_card_task_fmri	14.0	0.875	71.0	-90.0	0.125	10.0	3.0	1.0	1.8057397701661628	1.281	2.0	stim	poldrack-single-stim	s526	False	1
246.044	1.5	245.293	n/a	-1.0	2.59	columbia_card_task_fmri	n/a	n/a	-1.0	n/a	n/a	n/a	n/a	n/a	n/a	n/a	n/a	ITI	poldrack-single-stim	s526	False	0
247.886	2.945	250.831	-1.3520122300447743	draw_card	2.945	columbia_card_task_fmri	16.0	0.8	89.0	-70.0	0.2	10.0	1.0	2.0	1.8109726752269424	2.945	n/a	stim	poldrack-single-stim	s526	False	1
250.833	1.95	252.783	-3.263123341155885	draw_card	1.95	columbia_card_task_fmri	16.0	0.7777777777777778	89.0	-70.0	0.2222222222222222	10.0	2.0	2.0	3.1645749887752714	1.95	2.0	stim	poldrack-single-stim	s526	False	0
253.536	1.5	252.785	n/a	-1.0	2.386	columbia_card_task_fmri	n/a	n/a	-1.0	n/a	n/a	n/a	n/a	n/a	n/a	n/a	n/a	ITI	poldrack-single-stim	s526	False	0
255.174	2.071	257.245	-2.068678896711441	end_round	2.071	columbia_card_task_fmri	7.0	0.9166666666666666	71.0	-100.0	0.0833333333333333	12.0	1.0	1.0	-3.0157347933996768	2.071	0.0	stim	poldrack-single-stim	s526	False	1
257.999	1.5	257.248	n/a	-1.0	2.59	columbia_card_task_fmri	n/a	n/a	-1.0	n/a	n/a	n/a	n/a	n/a	n/a	n/a	n/a	ITI	poldrack-single-stim	s526	False	0
259.84	3.452	263.292	-1.8186788967114396	draw_card	3.452	columbia_card_task_fmri	14.0	0.8333333333333334	89.0	-80.0	0.1666666666666666	12.0	1.0	2.0	2.442698266060724	3.452	n/a	stim	poldrack-single-stim	s526	False	1
263.294	0.874	264.168	-3.2429213209538683	end_round	0.874	columbia_card_task_fmri	14.0	0.8181818181818181	71.0	-80.0	0.1818181818181818	12.0	2.0	2.0	3.6662486325574335	0.874	1.0	stim	poldrack-single-stim	s526	False	1
264.921	1.5	264.17	n/a	-1.0	2.318	columbia_card_task_fmri	n/a	n/a	-1.0	n/a	n/a	n/a	n/a	n/a	n/a	n/a	n/a	ITI	poldrack-single-stim	s526	False	0
266.491	3.386	269.877	-0.152012230044775	end_round	3.386	columbia_card_task_fmri	15.0	0.8333333333333334	71.0	-75.0	0.1666666666666666	12.0	1.0	2.0	0.9520009391220938	3.386	0.0	stim	poldrack-single-stim	s526	False	1
270.631	1.5	269.88	n/a	-1.0	2.25	columbia_card_task_fmri	n/a	n/a	-1.0	n/a	n/a	n/a	n/a	n/a	n/a	n/a	n/a	ITI	poldrack-single-stim	s526	False	0
272.133	4.986	277.119	-1.152012230044775	draw_card	4.986	columbia_card_task_fmri	15.0	0.8	89.0	-65.0	0.2	15.0	1.0	3.0	-0.5890021350706718	4.986	n/a	stim	poldrack-single-stim	s526	False	1
277.122	1.942	279.064	-2.294869372901917	end_round	1.942	columbia_card_task_fmri	15.0	0.7857142857142857	71.0	-65.0	0.2142857142857142	15.0	2.0	3.0	0.2370610449381658	1.942	1.0	stim	poldrack-single-stim	s526	False	1
279.817	1.5	279.066	n/a	-1.0	2.454	columbia_card_task_fmri	n/a	n/a	-1.0	n/a	n/a	n/a	n/a	n/a	n/a	n/a	n/a	ITI	poldrack-single-stim	s526	False	0
281.524	5.589	287.113	-1.902012230044775	end_round	5.589	columbia_card_task_fmri	14.0	0.8125	71.0	-70.0	0.1875	16.0	1.0	3.0	0.197228698210381	5.589	0.0	stim	poldrack-single-stim	s526	False	1
287.866	1.5	287.115	n/a	-1.0	3.27	columbia_card_task_fmri	n/a	n/a	-1.0	n/a	n/a	n/a	n/a	n/a	n/a	n/a	n/a	ITI	poldrack-single-stim	s526	False	0
290.389	4.124	294.513	-1.964512230044775	draw_card	4.124	columbia_card_task_fmri	11.0	0.6875	89.0	-30.0	0.3125	16.0	1.0	5.0	-13.584746608096085	4.124	n/a	stim	poldrack-single-stim	s526	False	1
294.514	1.725	296.239	-2.818678896711441	draw_card	1.725	columbia_card_task_fmri	11.0	0.6666666666666667	89.0	-30.0	0.3333333333333333	16.0	2.0	5.0	-13.26118005681331	1.725	n/a	stim	poldrack-single-stim	s526	False	1
296.242	1.956	298.198	-3.794869372901919	end_round	1.956	columbia_card_task_fmri	11.0	0.6428571428571428	71.0	-30.0	0.3571428571428571	16.0	3.0	5.0	-12.943320707485878	1.956	2.0	stim	poldrack-single-stim	s526	False	1
298.952	1.5	298.201	n/a	-1.0	2.25	columbia_card_task_fmri	n/a	n/a	-1.0	n/a	n/a	n/a	n/a	n/a	n/a	n/a	n/a	ITI	poldrack-single-stim	s526	False	0
300.454	2.8	303.254	2.847987769955225	draw_card	2.8	columbia_card_task_fmri	15.0	0.8666666666666667	89.0	-75.0	0.1333333333333333	15.0	1.0	2.0	-1.9948684622060533	2.8	n/a	stim	poldrack-single-stim	s526	False	1
303.256	2.35	305.606	1.990844912812369	draw_card	2.35	columbia_card_task_fmri	15.0	0.8571428571428572	89.0	-75.0	0.1428571428571428	15.0	2.0	2.0	-1.095556777613794	2.35	n/a	stim	poldrack-single-stim	s526	False	1
305.608	1.737	307.345	1.0018339238013785	end_round	1.737	columbia_card_task_fmri	15.0	0.8461538461538461	71.0	-75.0	0.1538461538461538	15.0	3.0	2.0	-0.1168982779047524	1.737	2.0	stim	poldrack-single-stim	s526	False	1
308.098	1.5	307.347	n/a	-1.0	2.25	columbia_card_task_fmri	n/a	n/a	-1.0	n/a	n/a	n/a	n/a	n/a	n/a	n/a	n/a	ITI	poldrack-single-stim	s526	False	0
309.6	2.375	311.975	4.581321103288559	draw_card	2.375	columbia_card_task_fmri	17.0	0.8666666666666667	89.0	-75.0	0.1333333333333333	15.0	1.0	2.0	-1.3150074033543078	2.375	n/a	stim	poldrack-single-stim	s526	False	1
311.978	1.415	313.393	3.7051306270980846	end_round	1.415	columbia_card_task_fmri	17.0	0.8571428571428572	71.0	-75.0	0.1428571428571428	15.0	2.0	2.0	-0.3957105405924253	1.415	1.0	stim	poldrack-single-stim	s526	False	1
314.148	1.5	313.397	n/a	-1.0	2.318	columbia_card_task_fmri	n/a	n/a	-1.0	n/a	n/a	n/a	n/a	n/a	n/a	n/a	n/a	ITI	poldrack-single-stim	s526	False	0
315.718	3.405	319.123	0.1604877699552249	end_round	3.405	columbia_card_task_fmri	2.0	0.9375	71.0	-25.0	0.0625	16.0	1.0	1.0	-26.051936215010222	3.405	0.0	stim	poldrack-single-stim	s526	False	1
319.875	1.5	319.124	n/a	-1.0	2.726	columbia_card_task_fmri	n/a	n/a	-1.0	n/a	n/a	n/a	n/a	n/a	n/a	n/a	n/a	ITI	poldrack-single-stim	s526	False	0
321.854	2.388	324.242	2.347987769955225	end_round	2.388	columbia_card_task_fmri	9.0	0.9375	71.0	-95.0	0.0625	16.0	1.0	1.0	-7.414512492106134	2.388	0.0	stim	poldrack-single-stim	s526	False	1
324.996	1.5	324.245	n/a	-1.0	2.386	columbia_card_task_fmri	n/a	n/a	-1.0	n/a	n/a	n/a	n/a	n/a	n/a	n/a	n/a	ITI	poldrack-single-stim	s526	False	0
326.636	4.975	331.611	3.910487769955225	end_round	4.975	columbia_card_task_fmri	11.0	0.9375	71.0	-100.0	0.0625	16.0	1.0	1.0	-5.720111220370818	4.975	0.0	stim	poldrack-single-stim	s526	False	1
332.365	1.5	331.614	n/a	-1.0	2.318	columbia_card_task_fmri	n/a	n/a	-1.0	n/a	n/a	n/a	n/a	n/a	n/a	n/a	n/a	ITI	poldrack-single-stim	s526	False	0
333.936	2.206	336.142	4.472987769955225	draw_card	2.206	columbia_card_task_fmri	16.0	0.875	89.0	-75.0	0.125	16.0	1.0	2.0	-2.493558122679783	2.206	n/a	stim	poldrack-single-stim	s526	False	1
336.144	1.345	337.489	3.714654436621892	draw_card	1.345	columbia_card_task_fmri	16.0	0.8666666666666667	89.0	-75.0	0.1333333333333333	16.0	2.0	2.0	-1.6549379778872044	1.345	n/a	stim	poldrack-single-stim	s526	False	1
337.491	2.247	339.738	2.847987769955227	draw_card	2.247	columbia_card_task_fmri	16.0	0.8571428571428572	89.0	-75.0	0.1428571428571428	16.0	3.0	2.0	-0.7456337029221523	2.247	n/a	stim	poldrack-single-stim	s526	False	1
339.742	2.205	341.947	1.847987769955225	end_round	2.205	columbia_card_task_fmri	16.0	0.8461538461538461	71.0	-75.0	0.1538461538461538	16.0	4.0	2.0	0.2438990244671686	2.205	3.0	stim	poldrack-single-stim	s526	False	1
342.701	1.5	341.95	n/a	-1.0	2.25	columbia_card_task_fmri	n/a	n/a	-1.0	n/a	n/a	n/a	n/a	n/a	n/a	n/a	n/a	ITI	poldrack-single-stim	s526	False	0
344.204	3.35	347.554	4.722987769955225	draw_card	3.35	columbia_card_task_fmri	17.0	0.875	89.0	-80.0	0.125	16.0	1.0	2.0	-0.5092683858125042	3.35	n/a	stim	poldrack-single-stim	s526	False	1
347.556	1.442	348.998	3.914654436621893	draw_card	1.442	columbia_card_task_fmri	17.0	0.8666666666666667	89.0	-80.0	0.1333333333333333	16.0	2.0	2.0	0.3846467248687375	1.442	n/a	stim	poldrack-single-stim	s526	False	1
349.0	1.473	350.473	2.990844912812371	draw_card	1.473	columbia_card_task_fmri	17.0	0.8571428571428572	89.0	-80.0	0.1428571428571428	16.0	3.0	2.0	1.3539064907635634	1.473	n/a	stim	poldrack-single-stim	s526	False	1
350.475	1.15	351.625	1.9249108468783016	end_round	1.15	columbia_card_task_fmri	17.0	0.8461538461538461	71.0	-80.0	0.1538461538461538	16.0	4.0	2.0	2.408684531629568	1.15	3.0	stim	poldrack-single-stim	s526	False	1
352.379	1.5	351.628	n/a	-1.0	2.25	columbia_card_task_fmri	n/a	n/a	-1.0	n/a	n/a	n/a	n/a	n/a	n/a	n/a	n/a	ITI	poldrack-single-stim	s526	False	0
364.886	2.634	367.52	-0.9853455633781072	draw_card	2.634	columbia_card_task_fmri	13.0	0.8333333333333334	89.0	-70.0	0.1666666666666666	6.0	1.0	1.0	-1.6567159834674854	2.634	n/a	stim	poldrack-single-stim	s526	False	1
367.522	3.215	370.737	-3.7520122300447754	draw_card	3.215	columbia_card_task_fmri	13.0	0.8	89.0	-70.0	0.2	6.0	2.0	1.0	0.610984814849715	3.215	n/a	stim	poldrack-single-stim	s526	False	1
370.739	0.933	371.672	-7.902012230044775	end_round	0.933	columbia_card_task_fmri	13.0	0.75	71.0	-70.0	0.25	6.0	3.0	1.0	3.351012540325108	0.933	2.0	stim	poldrack-single-stim	s526	False	1
372.427	1.5	371.676	n/a	-1.0	2.454	columbia_card_task_fmri	n/a	n/a	-1.0	n/a	n/a	n/a	n/a	n/a	n/a	n/a	n/a	ITI	poldrack-single-stim	s526	False	0
374.133	2.714	376.847	-0.9853455633781072	draw_card	2.714	columbia_card_task_fmri	15.0	0.8333333333333334	89.0	-80.0	0.1666666666666666	6.0	1.0	1.0	2.8153727906618826	2.714	n/a	stim	poldrack-single-stim	s526	False	1
376.849	0.767	377.616	-4.152012230044775	end_round	0.767	columbia_card_task_fmri	15.0	0.8	71.0	-80.0	0.2	6.0	2.0	1.0	5.410940856576936	0.767	1.0	stim	poldrack-single-stim	s526	False	1
378.37	1.5	377.619	n/a	-1.0	2.454	columbia_card_task_fmri	n/a	n/a	-1.0	n/a	n/a	n/a	n/a	n/a	n/a	n/a	n/a	ITI	poldrack-single-stim	s526	False	0
380.076	2.115	382.191	0.6813211032885589	draw_card	2.115	columbia_card_task_fmri	16.0	0.8333333333333334	89.0	-75.0	0.1666666666666666	6.0	1.0	1.0	1.3246751500503606	2.115	n/a	stim	poldrack-single-stim	s526	False	1
382.194	0.902	383.096	-2.352012230044774	end_round	0.902	columbia_card_task_fmri	16.0	0.8	71.0	-75.0	0.2	6.0	2.0	1.0	3.8109542211971714	0.902	1.0	stim	poldrack-single-stim	s526	False	1
383.85	1.5	383.099	n/a	-1.0	2.522	columbia_card_task_fmri	n/a	n/a	-1.0	n/a	n/a	n/a	n/a	n/a	n/a	n/a	n/a	ITI	poldrack-single-stim	s526	False	0
385.624	4.225	389.849	1.847987769955225	draw_card	4.225	columbia_card_task_fmri	21.0	0.75	89.0	-55.0	0.25	8.0	1.0	2.0	0.3199532362612061	4.225	1.0	stim	poldrack-single-stim	s526	False	0
390.602	1.5	389.851	n/a	-1.0	2.386	columbia_card_task_fmri	n/a	n/a	-1.0	n/a	n/a	n/a	n/a	n/a	n/a	n/a	n/a	ITI	poldrack-single-stim	s526	False	0
392.242	2.617	394.859	3.097987769955225	draw_card	2.617	columbia_card_task_fmri	26.0	0.75	89.0	-65.0	0.25	8.0	1.0	2.0	6.815085894197608	2.617	n/a	stim	poldrack-single-stim	s526	False	1
394.861	1.323	396.184	-0.1520122300447714	draw_card	1.323	columbia_card_task_fmri	26.0	0.7142857142857143	89.0	-65.0	0.2857142857142857	8.0	2.0	2.0	8.520527440178903	1.323	n/a	stim	poldrack-single-stim	s526	False	1
396.186	1.224	397.41	-4.485345563378104	end_round	1.224	columbia_card_task_fmri	26.0	0.6666666666666667	71.0	-65.0	0.3333333333333333	8.0	3.0	2.0	10.308717534473637	1.224	2.0	stim	poldrack-single-stim	s526	False	1
398.164	1.5	397.413	n/a	-1.0	2.454	columbia_card_task_fmri	n/a	n/a	-1.0	n/a	n/a	n/a	n/a	n/a	n/a	n/a	n/a	ITI	poldrack-single-stim	s526	False	0
399.87	2.078	401.948	-1.818678896711441	draw_card	2.078	columbia_card_task_fmri	15.0	0.7777777777777778	89.0	-60.0	0.2222222222222222	9.0	1.0	2.0	-1.4085144223684516	2.078	n/a	stim	poldrack-single-stim	s526	False	1
401.952	1.141	403.093	-3.902012230044775	draw_card	1.141	columbia_card_task_fmri	15.0	0.75	89.0	-60.0	0.25	9.0	2.0	2.0	-0.113054784567538	1.141	2.0	stim	poldrack-single-stim	s526	False	0
403.848	1.5	403.097	n/a	-1.0	2.522	columbia_card_task_fmri	n/a	n/a	-1.0	n/a	n/a	n/a	n/a	n/a	n/a	n/a	n/a	ITI	poldrack-single-stim	s526	False	0
405.623	1.782	407.405	2.5479877699552262	end_round	1.782	columbia_card_task_fmri	13.0	0.9	71.0	-90.0	0.1	10.0	1.0	1.0	-1.6889892820952426	1.782	0.0	stim	poldrack-single-stim	s526	False	1
408.158	1.5	407.407	n/a	-1.0	2.522	columbia_card_task_fmri	n/a	n/a	-1.0	n/a	n/a	n/a	n/a	n/a	n/a	n/a	n/a	ITI	poldrack-single-stim	s526	False	0
409.933	1.78	411.713	3.847987769955225	draw_card	1.78	columbia_card_task_fmri	15.0	0.9	89.0	-95.0	0.1	10.0	1.0	1.0	0.410986923954546	1.78	1.0	stim	poldrack-single-stim	s526	False	0
412.466	1.5	411.715	n/a	-1.0	2.59	columbia_card_task_fmri	n/a	n/a	-1.0	n/a	n/a	n/a	n/a	n/a	n/a	n/a	n/a	ITI	poldrack-single-stim	s526	False	0
414.309	5.782	420.091	-0.3520122300447743	draw_card	5.782	columbia_card_task_fmri	16.0	0.8	89.0	-65.0	0.2	10.0	1.0	2.0	-0.1890065925035102	5.782	1.0	stim	poldrack-single-stim	s526	False	0
420.845	1.5	420.094	n/a	-1.0	2.454	columbia_card_task_fmri	n/a	n/a	-1.0	n/a	n/a	n/a	n/a	n/a	n/a	n/a	n/a	ITI	poldrack-single-stim	s526	False	0
422.551	3.664	426.215	-1.652012230044775	end_round	3.664	columbia_card_task_fmri	7.0	0.9166666666666666	71.0	-95.0	0.0833333333333333	12.0	1.0	1.0	-4.397642638489916	3.664	0.0	stim	poldrack-single-stim	s526	False	1
426.97	1.5	426.219	n/a	-1.0	2.318	columbia_card_task_fmri	n/a	n/a	-1.0	n/a	n/a	n/a	n/a	n/a	n/a	n/a	n/a	ITI	poldrack-single-stim	s526	False	0
428.54	4.206	432.746	-0.9853455633781072	draw_card	4.206	columbia_card_task_fmri	14.0	0.8333333333333334	89.0	-75.0	0.1666666666666666	12.0	1.0	2.0	0.5793268132559106	4.206	n/a	stim	poldrack-single-stim	s526	False	1
432.75	1.423	434.173	-2.3338304118629583	draw_card	1.423	columbia_card_task_fmri	14.0	0.8181818181818181	89.0	-75.0	0.1818181818181818	12.0	2.0	2.0	1.7377934961134187	1.423	n/a	stim	poldrack-single-stim	s526	False	1
434.176	1.673	435.849	-3.9520122300447738	draw_card	1.673	columbia_card_task_fmri	14.0	0.8	89.0	-75.0	0.2	12.0	3.0	2.0	3.01096135399412	1.673	n/a	stim	poldrack-single-stim	s526	False	1
435.852	1.851	437.703	-5.92979000782255	draw_card	1.851	columbia_card_task_fmri	14.0	0.7777777777777778	89.0	-75.0	0.2222222222222222	12.0	4.0	2.0	4.411783225072185	1.851	n/a	stim	poldrack-single-stim	s526	False	1
437.706	2.354	440.06	-8.402012230044775	end_round	2.354	columbia_card_task_fmri	14.0	0.75	71.0	-75.0	0.25	12.0	5.0	2.0	5.949067079421681	2.354	4.0	stim	poldrack-single-stim	s526	False	1
440.815	1.5	440.064	n/a	-1.0	2.25	columbia_card_task_fmri	n/a	n/a	-1.0	n/a	n/a	n/a	n/a	n/a	n/a	n/a	n/a	ITI	poldrack-single-stim	s526	False	0
442.318	2.513	444.831	0.6813211032885589	draw_card	2.513	columbia_card_task_fmri	15.0	0.8333333333333334	89.0	-70.0	0.1666666666666666	12.0	1.0	2.0	-0.9113687795454872	2.513	n/a	stim	poldrack-single-stim	s526	False	1
444.837	1.41	446.247	-0.6065576845902318	draw_card	1.41	columbia_card_task_fmri	15.0	0.8181818181818181	89.0	-70.0	0.1818181818181818	12.0	2.0	2.0	0.1950309034374981	1.41	n/a	stim	poldrack-single-stim	s526	False	1
446.253	1.619	447.872	-2.152012230044775	draw_card	1.619	columbia_card_task_fmri	15.0	0.8	89.0	-70.0	0.2	12.0	3.0	2.0	1.4109766265565753	1.619	3.0	stim	poldrack-single-stim	s526	False	0
448.63	1.5	447.879	n/a	-1.0	2.658	columbia_card_task_fmri	n/a	n/a	-1.0	n/a	n/a	n/a	n/a	n/a	n/a	n/a	n/a	ITI	poldrack-single-stim	s526	False	0
450.545	2.006	452.551	-1.3520122300447743	draw_card	2.006	columbia_card_task_fmri	16.0	0.8	89.0	-70.0	0.2	15.0	1.0	3.0	1.8109726752269424	2.006	n/a	stim	poldrack-single-stim	s526	False	1
452.557	1.617	454.174	-2.580583658616204	end_round	1.617	columbia_card_task_fmri	16.0	0.7857142857142857	71.0	-70.0	0.2142857142857142	15.0	2.0	3.0	2.698991909063458	1.617	1.0	stim	poldrack-single-stim	s526	False	1
454.932	1.5	454.181	n/a	-1.0	2.454	columbia_card_task_fmri	n/a	n/a	-1.0	n/a	n/a	n/a	n/a	n/a	n/a	n/a	n/a	ITI	poldrack-single-stim	s526	False	0
456.643	1.696	458.339	-0.964512230044775	draw_card	1.696	columbia_card_task_fmri	14.0	0.8125	89.0	-65.0	0.1875	16.0	1.0	3.0	-1.7543108728971717	1.696	n/a	stim	poldrack-single-stim	s526	False	1
458.345	3.201	461.546	-1.952012230044774	draw_card	3.201	columbia_card_task_fmri	14.0	0.8	89.0	-65.0	0.2	16.0	2.0	3.0	-0.9889975647933724	3.201	n/a	stim	poldrack-single-stim	s526	False	1
461.553	1.271	462.824	-3.080583658616202	end_round	1.271	columbia_card_task_fmri	14.0	0.7857142857142857	71.0	-65.0	0.2142857142857142	16.0	3.0	3.0	-0.1732604031164868	1.271	2.0	stim	poldrack-single-stim	s526	False	1
463.581	1.5	462.83	n/a	-1.0	2.386	columbia_card_task_fmri	n/a	n/a	-1.0	n/a	n/a	n/a	n/a	n/a	n/a	n/a	n/a	ITI	poldrack-single-stim	s526	False	0
465.224	4.158	469.382	-1.214512230044775	draw_card	4.158	columbia_card_task_fmri	16.0	0.8125	89.0	-75.0	0.1875	16.0	1.0	3.0	2.929388215249233	4.158	n/a	stim	poldrack-single-stim	s526	False	1
469.388	1.916	471.304	-2.352012230044774	draw_card	1.916	columbia_card_task_fmri	16.0	0.8	89.0	-75.0	0.2	16.0	2.0	3.0	3.8109542211971714	1.916	2.0	stim	poldrack-single-stim	s526	False	0
472.063	1.5	471.312	n/a	-1.0	2.59	columbia_card_task_fmri	n/a	n/a	-1.0	n/a	n/a	n/a	n/a	n/a	n/a	n/a	n/a	ITI	poldrack-single-stim	s526	False	0
473.909	2.9	476.809	3.0479877699552262	draw_card	2.9	columbia_card_task_fmri	16.0	0.8666666666666667	89.0	-80.0	0.1333333333333333	15.0	1.0	2.0	0.0447157405352811	2.9	n/a	stim	poldrack-single-stim	s526	False	1
476.817	1.316	478.133	2.133702055669513	draw_card	1.316	columbia_card_task_fmri	16.0	0.8571428571428572	89.0	-80.0	0.1428571428571428	15.0	2.0	2.0	1.003982930334729	1.316	2.0	stim	poldrack-single-stim	s526	False	0
478.89	1.5	478.139	n/a	-1.0	2.318	columbia_card_task_fmri	n/a	n/a	-1.0	n/a	n/a	n/a	n/a	n/a	n/a	n/a	n/a	ITI	poldrack-single-stim	s526	False	0
480.465	1.551	482.016	3.914654436621893	draw_card	1.551	columbia_card_task_fmri	17.0	0.8666666666666667	89.0	-80.0	0.1333333333333333	15.0	1.0	2.0	0.3846467248687375	1.551	n/a	stim	poldrack-single-stim	s526	False	1
482.023	1.401	483.424	2.990844912812371	draw_card	1.401	columbia_card_task_fmri	17.0	0.8571428571428572	89.0	-80.0	0.1428571428571428	15.0	2.0	2.0	1.3539064907635634	1.401	n/a	stim	poldrack-single-stim	s526	False	1
483.432	1.538	484.97	1.9249108468783016	draw_card	1.538	columbia_card_task_fmri	17.0	0.8461538461538461	89.0	-80.0	0.1538461538461538	15.0	3.0	2.0	2.408684531629568	1.538	n/a	stim	poldrack-single-stim	s526	False	1
484.976	1.452	486.428	0.6813211032885607	draw_card	1.452	columbia_card_task_fmri	17.0	0.8333333333333334	89.0	-80.0	0.1666666666666666	15.0	4.0	2.0	3.560722054602465	1.452	4.0	stim	poldrack-single-stim	s526	False	0
487.187	1.5	486.436	n/a	-1.0	2.59	columbia_card_task_fmri	n/a	n/a	-1.0	n/a	n/a	n/a	n/a	n/a	n/a	n/a	n/a	ITI	poldrack-single-stim	s526	False	0
489.034	7.22	496.254	-0.152012230044775	end_round	7.22	columbia_card_task_fmri	1.0	0.9375	71.0	-15.0	0.0625	16.0	1.0	1.0	-28.713397799373737	7.22	0.0	stim	poldrack-single-stim	s526	False	1
497.013	1.5	496.262	n/a	-1.0	2.386	columbia_card_task_fmri	n/a	n/a	-1.0	n/a	n/a	n/a	n/a	n/a	n/a	n/a	n/a	ITI	poldrack-single-stim	s526	False	0
498.655	1.6	500.255	2.972987769955225	end_round	1.6	columbia_card_task_fmri	10.0	0.9375	71.0	-100.0	0.0625	16.0	1.0	1.0	-5.962168770422707	1.6	0.0	stim	poldrack-single-stim	s526	False	1
501.012	1.5	500.261	n/a	-1.0	2.318	columbia_card_task_fmri	n/a	n/a	-1.0	n/a	n/a	n/a	n/a	n/a	n/a	n/a	n/a	ITI	poldrack-single-stim	s526	False	0
502.586	3.775	506.361	3.597987769955225	draw_card	3.775	columbia_card_task_fmri	15.0	0.875	89.0	-75.0	0.125	16.0	1.0	2.0	-2.8242727710060755	3.775	n/a	stim	poldrack-single-stim	s526	False	1
506.368	2.436	508.804	2.847987769955225	draw_card	2.436	columbia_card_task_fmri	15.0	0.8666666666666667	89.0	-75.0	0.1333333333333333	16.0	2.0	2.0	-1.9948684622060533	2.436	n/a	stim	poldrack-single-stim	s526	False	1
508.811	1.515	510.326	1.990844912812369	end_round	1.515	columbia_card_task_fmri	15.0	0.8571428571428572	71.0	-75.0	0.1428571428571428	16.0	3.0	2.0	-1.095556777613794	1.515	2.0	stim	poldrack-single-stim	s526	False	1
511.084	1.5	510.333	n/a	-1.0	2.318	columbia_card_task_fmri	n/a	n/a	-1.0	n/a	n/a	n/a	n/a	n/a	n/a	n/a	n/a	ITI	poldrack-single-stim	s526	False	0
512.655	2.326	514.981	3.847987769955225	end_round	2.326	columbia_card_task_fmri	16.0	0.875	71.0	-80.0	0.125	16.0	1.0	2.0	-0.8399835480856694	2.326	0.0	stim	poldrack-single-stim	s526	False	1
515.736	1.5	514.985	n/a	-1.0	2.318	columbia_card_task_fmri	n/a	n/a	-1.0	n/a	n/a	n/a	n/a	n/a	n/a	n/a	n/a	ITI	poldrack-single-stim	s526	False	0
517.308	3.644	520.952	1.035487769955225	end_round	3.644	columbia_card_task_fmri	4.0	0.6875	71.0	-5.0	0.3125	16.0	1.0	5.0	-28.41498282177061	3.644	0.0	stim	poldrack-single-stim	s526	False	1
521.707	1.5	520.956	n/a	-1.0	2.386	columbia_card_task_fmri	n/a	n/a	-1.0	n/a	n/a	n/a	n/a	n/a	n/a	n/a	n/a	ITI	poldrack-single-stim	s526	False	0
523.346	2.6	525.946	-1.8186788967114396	end_round	2.6	columbia_card_task_fmri	14.0	0.8333333333333334	71.0	-80.0	0.1666666666666666	6.0	1.0	1.0	2.442698266060724	2.6	0.0	stim	poldrack-single-stim	s526	False	1
526.7	1.5	525.949	n/a	-1.0	2.25	columbia_card_task_fmri	n/a	n/a	-1.0	n/a	n/a	n/a	n/a	n/a	n/a	n/a	n/a	ITI	poldrack-single-stim	s526	False	0
528.204	2.5	530.704	-0.152012230044775	end_round	2.5	columbia_card_task_fmri	15.0	0.8333333333333334	71.0	-75.0	0.1666666666666666	6.0	1.0	1.0	0.9520009391220938	2.5	0.0	stim	poldrack-single-stim	s526	False	1
531.458	1.5	530.707	n/a	-1.0	2.386	columbia_card_task_fmri	n/a	n/a	-1.0	n/a	n/a	n/a	n/a	n/a	n/a	n/a	n/a	ITI	poldrack-single-stim	s526	False	0
533.098	2.988	536.086	1.5146544366218928	draw_card	2.988	columbia_card_task_fmri	16.0	0.8333333333333334	89.0	-70.0	0.1666666666666666	6.0	1.0	1.0	-0.538695024297958	2.988	n/a	stim	poldrack-single-stim	s526	False	1
536.088	1.3	537.388	-1.3520122300447743	end_round	1.3	columbia_card_task_fmri	16.0	0.8	71.0	-70.0	0.2	6.0	2.0	1.0	1.8109726752269424	1.3	1.0	stim	poldrack-single-stim	s526	False	1
538.143	1.5	537.392	n/a	-1.0	2.59	columbia_card_task_fmri	n/a	n/a	-1.0	n/a	n/a	n/a	n/a	n/a	n/a	n/a	n/a	ITI	poldrack-single-stim	s526	False	0
539.987	2.135	542.122	2.097987769955225	draw_card	2.135	columbia_card_task_fmri	23.0	0.75	89.0	-60.0	0.25	8.0	1.0	2.0	3.351012540325108	2.135	n/a	stim	poldrack-single-stim	s526	False	1
542.125	1.351	543.476	-0.8662979443304868	draw_card	1.351	columbia_card_task_fmri	23.0	0.7142857142857143	89.0	-60.0	0.2857142857142857	8.0	2.0	2.0	4.906522917416758	1.351	2.0	stim	poldrack-single-stim	s526	False	0
544.23	1.5	543.479	n/a	-1.0	2.658	columbia_card_task_fmri	n/a	n/a	-1.0	n/a	n/a	n/a	n/a	n/a	n/a	n/a	n/a	ITI	poldrack-single-stim	s526	False	0
546.142	1.634	547.776	2.597987769955225	draw_card	1.634	columbia_card_task_fmri	27.0	0.75	89.0	-70.0	0.25	8.0	1.0	2.0	9.413143968778703	1.634	n/a	stim	poldrack-single-stim	s526	False	1
547.779	0.953	548.732	-0.8662979443304903	end_round	0.953	columbia_card_task_fmri	27.0	0.7142857142857143	71.0	-70.0	0.2857142857142857	8.0	2.0	2.0	11.231033764521136	0.953	1.0	stim	poldrack-single-stim	s526	False	1
549.487	1.5	548.736	n/a	-1.0	2.386	columbia_card_task_fmri	n/a	n/a	-1.0	n/a	n/a	n/a	n/a	n/a	n/a	n/a	n/a	ITI	poldrack-single-stim	s526	False	0
551.127	1.826	552.953	-2.152012230044773	draw_card	1.826	columbia_card_task_fmri	16.0	0.7777777777777778	89.0	-65.0	0.2222222222222222	9.0	1.0	2.0	1.0858963879461785	1.826	n/a	stim	poldrack-single-stim	s526	False	1
552.955	1.46	554.415	-4.402012230044775	draw_card	1.46	columbia_card_task_fmri	16.0	0.75	89.0	-65.0	0.25	9.0	2.0	2.0	2.4849950741065285	1.46	n/a	stim	poldrack-single-stim	s526	False	1
554.42	0.898	555.318	-7.294869372901916	end_round	0.898	columbia_card_task_fmri	16.0	0.7142857142857143	71.0	-65.0	0.2857142857142857	9.0	3.0	2.0	4.003022622791775	0.898	2.0	stim	poldrack-single-stim	s526	False	1
556.071	1.5	555.32	n/a	-1.0	2.386	columbia_card_task_fmri	n/a	n/a	-1.0	n/a	n/a	n/a	n/a	n/a	n/a	n/a	n/a	ITI	poldrack-single-stim	s526	False	0
557.711	2.883	560.594	3.0479877699552262	draw_card	2.883	columbia_card_task_fmri	13.0	0.9	89.0	-85.0	0.1	10.0	1.0	1.0	-3.18897020535254	2.883	1.0	stim	poldrack-single-stim	s526	False	0
561.349	1.5	560.598	n/a	-1.0	2.25	columbia_card_task_fmri	n/a	n/a	-1.0	n/a	n/a	n/a	n/a	n/a	n/a	n/a	n/a	ITI	poldrack-single-stim	s526	False	0
562.852	5.074	567.926	-1.952012230044774	draw_card	5.074	columbia_card_task_fmri	14.0	0.8	89.0	-65.0	0.2	10.0	1.0	2.0	-0.9889975647933724	5.074	n/a	stim	poldrack-single-stim	s526	False	1
567.929	1.59	569.519	-3.707567785600328	end_round	1.59	columbia_card_task_fmri	14.0	0.7777777777777778	71.0	-65.0	0.2222222222222222	10.0	2.0	2.0	0.254425654599288	1.59	1.0	stim	poldrack-single-stim	s526	False	1
570.273	1.5	569.522	n/a	-1.0	2.318	columbia_card_task_fmri	n/a	n/a	-1.0	n/a	n/a	n/a	n/a	n/a	n/a	n/a	n/a	ITI	poldrack-single-stim	s526	False	0
571.845	1.806	573.651	-0.5520122300447736	draw_card	1.806	columbia_card_task_fmri	17.0	0.8	89.0	-70.0	0.2	10.0	1.0	2.0	2.2109688147311672	1.806	1.0	stim	poldrack-single-stim	s526	False	0
574.405	1.5	573.654	n/a	-1.0	2.25	columbia_card_task_fmri	n/a	n/a	-1.0	n/a	n/a	n/a	n/a	n/a	n/a	n/a	n/a	ITI	poldrack-single-stim	s526	False	0
575.908	2.32	578.228	-1.818678896711441	draw_card	2.32	columbia_card_task_fmri	13.0	0.8333333333333334	89.0	-75.0	0.1666666666666666	12.0	1.0	2.0	0.2066527753515927	2.32	n/a	stim	poldrack-single-stim	s526	False	1
578.232	1.148	579.38	-3.1520122300447766	draw_card	1.148	columbia_card_task_fmri	13.0	0.8181818181818181	89.0	-75.0	0.1818181818181818	12.0	2.0	2.0	1.3521027129549807	1.148	n/a	stim	poldrack-single-stim	s526	False	1
579.383	1.058	580.441	-4.752012230044775	draw_card	1.058	columbia_card_task_fmri	13.0	0.8	89.0	-75.0	0.2	12.0	3.0	2.0	2.6109650419726838	1.058	3.0	stim	poldrack-single-stim	s526	False	0
581.196	1.5	580.445	n/a	-1.0	2.25	columbia_card_task_fmri	n/a	n/a	-1.0	n/a	n/a	n/a	n/a	n/a	n/a	n/a	n/a	ITI	poldrack-single-stim	s526	False	0
582.7	2.662	585.362	-0.1520122300447732	draw_card	2.662	columbia_card_task_fmri	14.0	0.8333333333333334	89.0	-70.0	0.1666666666666666	12.0	1.0	2.0	-1.2840424338185272	2.662	n/a	stim	poldrack-single-stim	s526	False	1
585.366	0.974	586.34	-1.4247395027720502	draw_card	0.974	columbia_card_task_fmri	14.0	0.8181818181818181	89.0	-70.0	0.1818181818181818	12.0	2.0	2.0	-0.1906595090358251	0.974	n/a	stim	poldrack-single-stim	s526	False	1
586.344	2.142	588.486	-2.9520122300447738	end_round	2.142	columbia_card_task_fmri	14.0	0.8	71.0	-70.0	0.2	12.0	3.0	2.0	1.0109806719640488	2.142	2.0	stim	poldrack-single-stim	s526	False	1
589.241	1.5	588.49	n/a	-1.0	2.386	columbia_card_task_fmri	n/a	n/a	-1.0	n/a	n/a	n/a	n/a	n/a	n/a	n/a	n/a	ITI	poldrack-single-stim	s526	False	0
590.88	2.046	592.926	-0.1520122300447732	draw_card	2.046	columbia_card_task_fmri	16.0	0.8333333333333334	89.0	-80.0	0.1666666666666666	12.0	1.0	2.0	3.188047387588057	2.046	n/a	stim	poldrack-single-stim	s526	False	1
592.93	1.276	594.206	-1.6065576845902318	end_round	1.276	columbia_card_task_fmri	16.0	0.8181818181818181	71.0	-80.0	0.1818181818181818	12.0	2.0	2.0	4.437631209303589	1.276	1.0	stim	poldrack-single-stim	s526	False	1
594.961	1.5	594.21	n/a	-1.0	2.386	columbia_card_task_fmri	n/a	n/a	-1.0	n/a	n/a	n/a	n/a	n/a	n/a	n/a	n/a	ITI	poldrack-single-stim	s526	False	0
596.601	4.825	601.426	-0.3520122300447743	draw_card	4.825	columbia_card_task_fmri	16.0	0.8	89.0	-65.0	0.2	15.0	1.0	3.0	-0.1890065925035102	4.825	n/a	stim	poldrack-single-stim	s526	False	1
601.43	1.405	602.835	-1.509155087187631	draw_card	1.405	columbia_card_task_fmri	16.0	0.7857142857142857	89.0	-65.0	0.2142857142857142	15.0	2.0	3.0	0.6473826029977303	1.405	n/a	stim	poldrack-single-stim	s526	False	1
602.837	1.752	604.589	-2.844319922352468	end_round	1.752	columbia_card_task_fmri	16.0	0.7692307692307692	71.0	-65.0	0.2307692307692307	15.0	3.0	3.0	1.5383039417283657	1.752	2.0	stim	poldrack-single-stim	s526	False	1
605.344	1.5	604.593	n/a	-1.0	2.726	columbia_card_task_fmri	n/a	n/a	-1.0	n/a	n/a	n/a	n/a	n/a	n/a	n/a	n/a	ITI	poldrack-single-stim	s526	False	0
607.324	3.606	610.93	-2.027012230044775	draw_card	3.606	columbia_card_task_fmri	15.0	0.8125	89.0	-75.0	0.1875	16.0	1.0	3.0	2.53907945465442	3.606	1.0	stim	poldrack-single-stim	s526	False	0
611.684	1.5	610.933	n/a	-1.0	2.454	columbia_card_task_fmri	n/a	n/a	-1.0	n/a	n/a	n/a	n/a	n/a	n/a	n/a	n/a	ITI	poldrack-single-stim	s526	False	0
613.392	4.959	618.351	-1.464512230044775	end_round	4.959	columbia_card_task_fmri	14.0	0.6875	71.0	-35.0	0.3125	16.0	1.0	5.0	-9.876746620859269	4.959	0.0	stim	poldrack-single-stim	s526	False	1
619.106	1.5	618.355	n/a	-1.0	2.318	columbia_card_task_fmri	n/a	n/a	-1.0	n/a	n/a	n/a	n/a	n/a	n/a	n/a	n/a	ITI	poldrack-single-stim	s526	False	0
620.678	3.09	623.768	3.714654436621892	draw_card	3.09	columbia_card_task_fmri	16.0	0.8666666666666667	89.0	-75.0	0.1333333333333333	15.0	1.0	2.0	-1.6549379778872044	3.09	n/a	stim	poldrack-single-stim	s526	False	1
623.772	1.689	625.461	2.847987769955227	draw_card	1.689	columbia_card_task_fmri	16.0	0.8571428571428572	89.0	-75.0	0.1428571428571428	15.0	2.0	2.0	-0.7456337029221523	1.689	n/a	stim	poldrack-single-stim	s526	False	1
625.465	1.873	627.338	1.847987769955225	draw_card	1.873	columbia_card_task_fmri	16.0	0.8461538461538461	89.0	-75.0	0.1538461538461538	15.0	3.0	2.0	0.2438990244671686	1.873	n/a	stim	poldrack-single-stim	s526	False	1
627.342	1.811	629.153	0.6813211032885589	end_round	1.811	columbia_card_task_fmri	16.0	0.8333333333333334	71.0	-75.0	0.1666666666666666	15.0	4.0	2.0	1.3246751500503606	1.811	3.0	stim	poldrack-single-stim	s526	False	1
629.908	1.5	629.157	n/a	-1.0	2.318	columbia_card_task_fmri	n/a	n/a	-1.0	n/a	n/a	n/a	n/a	n/a	n/a	n/a	n/a	ITI	poldrack-single-stim	s526	False	0
631.48	2.63	634.11	4.381321103288558	draw_card	2.63	columbia_card_task_fmri	16.0	0.8666666666666667	89.0	-70.0	0.1333333333333333	15.0	1.0	2.0	-3.3545894344025378	2.63	n/a	stim	poldrack-single-stim	s526	False	1
634.113	1.353	635.466	3.5622734842409405	draw_card	1.353	columbia_card_task_fmri	16.0	0.8571428571428572	89.0	-70.0	0.1428571428571428	15.0	2.0	2.0	-2.495248138858095	1.353	n/a	stim	poldrack-single-stim	s526	False	1
635.47	1.389	636.859	2.617218539185993	end_round	1.389	columbia_card_task_fmri	16.0	0.8461538461538461	71.0	-70.0	0.1538461538461538	15.0	3.0	2.0	-1.5600865781240143	1.389	2.0	stim	poldrack-single-stim	s526	False	1
637.615	1.5	636.864	n/a	-1.0	2.59	columbia_card_task_fmri	n/a	n/a	-1.0	n/a	n/a	n/a	n/a	n/a	n/a	n/a	n/a	ITI	poldrack-single-stim	s526	False	0
639.458	1.891	641.349	1.722987769955225	end_round	1.891	columbia_card_task_fmri	8.0	0.9375	71.0	-90.0	0.0625	16.0	1.0	1.0	-8.866853148595741	1.891	0.0	stim	poldrack-single-stim	s526	False	1
642.104	1.5	641.353	n/a	-1.0	2.726	columbia_card_task_fmri	n/a	n/a	-1.0	n/a	n/a	n/a	n/a	n/a	n/a	n/a	n/a	ITI	poldrack-single-stim	s526	False	0
644.085	5.242	649.327	3.285487769955225	draw_card	5.242	columbia_card_task_fmri	10.0	0.9375	89.0	-95.0	0.0625	16.0	1.0	1.0	-7.172455403829378	5.242	n/a	stim	poldrack-single-stim	s526	False	1
649.332	1.62	650.952	2.847987769955226	draw_card	1.62	columbia_card_task_fmri	10.0	0.9333333333333332	89.0	-95.0	0.0666666666666666	16.0	2.0	1.0	-6.397320359037945	1.62	n/a	stim	poldrack-single-stim	s526	False	1
650.955	2.245	653.2	2.347987769955226	draw_card	2.245	columbia_card_task_fmri	10.0	0.9285714285714286	89.0	-95.0	0.0714285714285714	16.0	3.0	1.0	-5.547301366665753	2.245	n/a	stim	poldrack-single-stim	s526	False	1
653.204	2.292	655.496	1.7710646930321483	end_round	2.292	columbia_card_task_fmri	10.0	0.9230769230769232	71.0	-95.0	0.0769230769230769	16.0	4.0	1.0	-4.609667974696002	2.292	3.0	stim	poldrack-single-stim	s526	False	1
656.251	1.5	655.5	n/a	-1.0	2.522	columbia_card_task_fmri	n/a	n/a	-1.0	n/a	n/a	n/a	n/a	n/a	n/a	n/a	n/a	ITI	poldrack-single-stim	s526	False	0
658.027	2.186	660.213	4.222987769955225	draw_card	2.186	columbia_card_task_fmri	15.0	0.875	89.0	-70.0	0.125	16.0	1.0	2.0	-4.477844507178592	2.186	n/a	stim	poldrack-single-stim	s526	False	1
660.217	2.261	662.478	3.5146544366218917	end_round	2.261	columbia_card_task_fmri	15.0	0.8666666666666667	71.0	-70.0	0.1333333333333333	16.0	2.0	2.0	-3.6945194191515824	2.261	1.0	stim	poldrack-single-stim	s526	False	1
663.234	1.5	662.483	n/a	-1.0	3.134	columbia_card_task_fmri	n/a	n/a	-1.0	n/a	n/a	n/a	n/a	n/a	n/a	n/a	n/a	ITI	poldrack-single-stim	s526	False	0
665.621	2.146	667.767	3.222987769955225	draw_card	2.146	columbia_card_task_fmri	16.0	0.875	89.0	-85.0	0.125	16.0	1.0	2.0	0.8135930061613053	2.146	n/a	stim	poldrack-single-stim	s526	False	1
667.771	1.101	668.872	2.3813211032885584	draw_card	1.101	columbia_card_task_fmri	16.0	0.8666666666666667	89.0	-85.0	0.1333333333333333	16.0	2.0	2.0	1.7443713849452678	1.101	n/a	stim	poldrack-single-stim	s526	False	1
668.877	1.378	670.255	1.419416341383798	draw_card	1.378	columbia_card_task_fmri	16.0	0.8571428571428572	89.0	-85.0	0.1428571428571428	16.0	3.0	2.0	2.7536014345843043	1.378	n/a	stim	poldrack-single-stim	s526	False	1
670.259	2.068	672.327	0.3095262314936848	draw_card	2.068	columbia_card_task_fmri	16.0	0.8461538461538461	89.0	-85.0	0.1538461538461538	16.0	4.0	2.0	3.8518763064575614	2.068	n/a	stim	poldrack-single-stim	s526	False	1
672.33	1.255	673.585	-0.9853455633781072	end_round	1.255	columbia_card_task_fmri	16.0	0.8333333333333334	71.0	-85.0	0.1666666666666666	16.0	5.0	2.0	5.051421381906295	1.255	4.0	stim	poldrack-single-stim	s526	False	1
674.341	1.5	673.59	n/a	-1.0	2.386	columbia_card_task_fmri	n/a	n/a	-1.0	n/a	n/a	n/a	n/a	n/a	n/a	n/a	n/a	ITI	poldrack-single-stim	s526	False	0
