duration	onset	block_duration	movement_onset	planning	condition	exp_stage	experiment_exp_id	key_press	problem_id	response_time	trial_id	trial_type	worker_id	junk
3.595	3.007	3.595	6.602	1	UA_with_intermediate	practice	ward_and_allport	71	0.0	3.595	to_hand	poldrack-single-stim	s533	False
0.1	6.604	1.242	7.846	0	UA_with_intermediate	practice	ward_and_allport	82	0.0	1.242	to_board	poldrack-single-stim	s533	False
0.1	7.847	0.911	8.758	0	UA_with_intermediate	practice	ward_and_allport	71	0.0	0.911	to_hand	poldrack-single-stim	s533	False
0.1	8.759	0.686	9.445	0	UA_with_intermediate	practice	ward_and_allport	89	0.0	0.686	to_board	poldrack-single-stim	s533	False
0.1	9.447	1.115	10.562	0	UA_with_intermediate	practice	ward_and_allport	82	0.0	1.115	to_hand	poldrack-single-stim	s533	False
0.1	10.562	1.943	12.505	0	UA_with_intermediate	practice	ward_and_allport	89	0.0	1.943	to_board	poldrack-single-stim	s533	False
1.0	12.509	2.5	12.508	0	UA_with_intermediate	practice	ward_and_allport	-1	0.0	n/a	feedback	poldrack-single-stim	s533	False
3.548	15.011	3.548	18.559	1	UA_with_intermediate	practice	ward_and_allport	71	1.0	3.548	to_hand	poldrack-single-stim	s533	False
0.1	18.56	4.625	23.185	0	UA_with_intermediate	practice	ward_and_allport	71	1.0	4.625	to_board	poldrack-single-stim	s533	False
0.1	23.188	0.913	24.101	0	UA_with_intermediate	practice	ward_and_allport	89	1.0	0.913	to_hand	poldrack-single-stim	s533	False
0.1	24.102	2.101	26.203	0	UA_with_intermediate	practice	ward_and_allport	82	1.0	2.101	to_board	poldrack-single-stim	s533	False
0.1	26.205	0.804	27.009	0	UA_with_intermediate	practice	ward_and_allport	71	1.0	0.804	to_hand	poldrack-single-stim	s533	False
0.1	27.01	0.673	27.683	0	UA_with_intermediate	practice	ward_and_allport	89	1.0	0.673	to_board	poldrack-single-stim	s533	False
0.1	27.685	1.874	29.559	0	UA_with_intermediate	practice	ward_and_allport	82	1.0	1.874	to_hand	poldrack-single-stim	s533	False
0.1	29.56	0.528	30.088	0	UA_with_intermediate	practice	ward_and_allport	89	1.0	0.528	to_board	poldrack-single-stim	s533	False
1.0	30.091	2.1	30.09	0	UA_with_intermediate	practice	ward_and_allport	-1	1.0	n/a	feedback	poldrack-single-stim	s533	False
1.823	32.192	1.823	34.015	1	UA_without_intermediate	practice	ward_and_allport	82	2.0	1.823	to_hand	poldrack-single-stim	s533	False
0.1	34.017	0.884	34.901	0	UA_without_intermediate	practice	ward_and_allport	89	2.0	0.884	to_board	poldrack-single-stim	s533	False
0.1	34.903	1.934	36.837	0	UA_without_intermediate	practice	ward_and_allport	71	2.0	1.934	to_hand	poldrack-single-stim	s533	False
0.1	36.837	2.19	39.027	0	UA_without_intermediate	practice	ward_and_allport	82	2.0	2.19	to_board	poldrack-single-stim	s533	False
0.1	39.029	0.532	39.561	0	UA_without_intermediate	practice	ward_and_allport	71	2.0	0.532	to_hand	poldrack-single-stim	s533	False
0.1	39.562	0.507	40.069	0	UA_without_intermediate	practice	ward_and_allport	89	2.0	0.507	to_board	poldrack-single-stim	s533	False
0.1	40.07	1.091	41.161	0	UA_without_intermediate	practice	ward_and_allport	82	2.0	1.091	to_hand	poldrack-single-stim	s533	False
0.1	41.162	0.399	41.561	0	UA_without_intermediate	practice	ward_and_allport	89	2.0	0.399	to_board	poldrack-single-stim	s533	False
0.1	41.563	5.179	46.742	0	UA_without_intermediate	practice	ward_and_allport	89	2.0	5.179	to_hand	poldrack-single-stim	s533	False
0.1	46.743	1.529	48.272	0	UA_without_intermediate	practice	ward_and_allport	71	2.0	1.529	to_board	poldrack-single-stim	s533	False
0.1	48.274	1.475	49.749	0	UA_without_intermediate	practice	ward_and_allport	71	2.0	1.475	to_hand	poldrack-single-stim	s533	False
0.1	49.75	0.93	50.68	0	UA_without_intermediate	practice	ward_and_allport	71	2.0	0.93	to_board	poldrack-single-stim	s533	False
0.1	50.681	2.888	53.569	0	UA_without_intermediate	practice	ward_and_allport	89	2.0	2.888	to_hand	poldrack-single-stim	s533	False
0.1	53.57	0.604	54.174	0	UA_without_intermediate	practice	ward_and_allport	82	2.0	0.604	to_board	poldrack-single-stim	s533	False
0.1	54.176	0.596	54.772	0	UA_without_intermediate	practice	ward_and_allport	71	2.0	0.596	to_hand	poldrack-single-stim	s533	False
0.1	54.772	0.552	55.324	0	UA_without_intermediate	practice	ward_and_allport	89	2.0	0.552	to_board	poldrack-single-stim	s533	False
0.1	55.325	2.058	57.383	0	UA_without_intermediate	practice	ward_and_allport	82	2.0	2.058	to_hand	poldrack-single-stim	s533	False
0.1	57.384	0.649	58.033	0	UA_without_intermediate	practice	ward_and_allport	89	2.0	0.649	to_board	poldrack-single-stim	s533	False
1.0	58.035	2.2	58.034	0	UA_without_intermediate	practice	ward_and_allport	-1	2.0	n/a	feedback	poldrack-single-stim	s533	False
2.39	60.237	2.39	62.627	1	UA_without_intermediate	practice	ward_and_allport	71	3.0	2.39	to_hand	poldrack-single-stim	s533	False
0.1	62.627	0.595	63.222	0	UA_without_intermediate	practice	ward_and_allport	89	3.0	0.595	to_board	poldrack-single-stim	s533	False
0.1	63.224	2.082	65.306	0	UA_without_intermediate	practice	ward_and_allport	82	3.0	2.082	to_hand	poldrack-single-stim	s533	False
0.1	65.307	0.754	66.061	0	UA_without_intermediate	practice	ward_and_allport	89	3.0	0.754	to_board	poldrack-single-stim	s533	False
0.1	66.063	0.67	66.733	0	UA_without_intermediate	practice	ward_and_allport	71	3.0	0.67	to_hand	poldrack-single-stim	s533	False
0.1	66.734	0.425	67.159	0	UA_without_intermediate	practice	ward_and_allport	89	3.0	0.425	to_board	poldrack-single-stim	s533	False
1.0	67.164	2.0	67.163	0	UA_without_intermediate	practice	ward_and_allport	-1	3.0	n/a	feedback	poldrack-single-stim	s533	False
5.145	71.17	5.145	76.315	1	PA_with_intermediate	test	ward_and_allport	82	0.0	5.145	to_hand	poldrack-single-stim	s533	False
0.1	76.316	0.623	76.939	0	PA_with_intermediate	test	ward_and_allport	89	0.0	0.623	to_board	poldrack-single-stim	s533	False
0.1	76.942	3.079	80.021	0	PA_with_intermediate	test	ward_and_allport	82	0.0	3.079	to_hand	poldrack-single-stim	s533	False
0.1	80.022	1.123	81.145	0	PA_with_intermediate	test	ward_and_allport	71	0.0	1.123	to_board	poldrack-single-stim	s533	False
0.1	81.147	1.282	82.429	0	PA_with_intermediate	test	ward_and_allport	71	0.0	1.282	to_hand	poldrack-single-stim	s533	False
0.1	82.43	0.803	83.233	0	PA_with_intermediate	test	ward_and_allport	71	0.0	0.803	to_board	poldrack-single-stim	s533	False
0.1	83.236	0.762	83.998	0	PA_with_intermediate	test	ward_and_allport	89	0.0	0.762	to_hand	poldrack-single-stim	s533	False
0.1	83.999	1.155	85.154	0	PA_with_intermediate	test	ward_and_allport	82	0.0	1.155	to_board	poldrack-single-stim	s533	False
1.0	85.157	4.176	85.156	0	PA_with_intermediate	test	ward_and_allport	-1	0.0	n/a	feedback	poldrack-single-stim	s533	False
3.878	89.336	3.878	93.214	1	PA_with_intermediate	test	ward_and_allport	82	1.0	3.878	to_hand	poldrack-single-stim	s533	False
0.1	93.214	0.77	93.984	0	PA_with_intermediate	test	ward_and_allport	71	1.0	0.77	to_board	poldrack-single-stim	s533	False
0.1	93.987	1.664	95.651	0	PA_with_intermediate	test	ward_and_allport	82	1.0	1.664	to_hand	poldrack-single-stim	s533	False
0.1	95.652	0.589	96.241	0	PA_with_intermediate	test	ward_and_allport	89	1.0	0.589	to_board	poldrack-single-stim	s533	False
0.1	96.243	0.583	96.826	0	PA_with_intermediate	test	ward_and_allport	71	1.0	0.583	to_hand	poldrack-single-stim	s533	False
0.1	96.827	0.52	97.347	0	PA_with_intermediate	test	ward_and_allport	89	1.0	0.52	to_board	poldrack-single-stim	s533	False
1.0	97.351	3.36	97.35	0	PA_with_intermediate	test	ward_and_allport	-1	1.0	n/a	feedback	poldrack-single-stim	s533	False
3.907	100.713	3.907	104.62	1	PA_with_intermediate	test	ward_and_allport	89	2.0	3.907	to_hand	poldrack-single-stim	s533	False
0.1	104.622	1.62	106.242	0	PA_with_intermediate	test	ward_and_allport	82	2.0	1.62	to_board	poldrack-single-stim	s533	False
0.1	106.245	2.169	108.414	0	PA_with_intermediate	test	ward_and_allport	89	2.0	2.169	to_hand	poldrack-single-stim	s533	False
0.1	108.414	0.741	109.155	0	PA_with_intermediate	test	ward_and_allport	71	2.0	0.741	to_board	poldrack-single-stim	s533	False
0.1	109.158	2.164	111.322	0	PA_with_intermediate	test	ward_and_allport	82	2.0	2.164	to_hand	poldrack-single-stim	s533	False
0.1	111.323	0.718	112.041	0	PA_with_intermediate	test	ward_and_allport	71	2.0	0.718	to_board	poldrack-single-stim	s533	False
1.0	112.045	2.0	112.044	0	PA_with_intermediate	test	ward_and_allport	-1	2.0	n/a	feedback	poldrack-single-stim	s533	False
2.926	114.048	2.926	116.974	1	PA_without_intermediate	test	ward_and_allport	71	3.0	2.926	to_hand	poldrack-single-stim	s533	False
0.1	116.974	0.779	117.753	0	PA_without_intermediate	test	ward_and_allport	82	3.0	0.779	to_board	poldrack-single-stim	s533	False
0.1	117.756	1.621	119.377	0	PA_without_intermediate	test	ward_and_allport	71	3.0	1.621	to_hand	poldrack-single-stim	s533	False
0.1	119.378	0.618	119.996	0	PA_without_intermediate	test	ward_and_allport	89	3.0	0.618	to_board	poldrack-single-stim	s533	False
0.1	119.998	1.138	121.136	0	PA_without_intermediate	test	ward_and_allport	71	3.0	1.138	to_hand	poldrack-single-stim	s533	False
0.1	121.137	0.641	121.778	0	PA_without_intermediate	test	ward_and_allport	82	3.0	0.641	to_board	poldrack-single-stim	s533	False
1.0	121.782	2.408	121.781	0	PA_without_intermediate	test	ward_and_allport	-1	3.0	n/a	feedback	poldrack-single-stim	s533	False
2.215	124.193	2.215	126.408	1	PA_with_intermediate	test	ward_and_allport	71	4.0	2.215	to_hand	poldrack-single-stim	s533	False
0.1	126.409	2.669	129.078	0	PA_with_intermediate	test	ward_and_allport	82	4.0	2.669	to_board	poldrack-single-stim	s533	False
0.1	129.081	0.52	129.601	0	PA_with_intermediate	test	ward_and_allport	71	4.0	0.52	to_hand	poldrack-single-stim	s533	False
0.1	129.602	0.54	130.142	0	PA_with_intermediate	test	ward_and_allport	89	4.0	0.54	to_board	poldrack-single-stim	s533	False
0.1	130.145	0.755	130.9	0	PA_with_intermediate	test	ward_and_allport	82	4.0	0.755	to_hand	poldrack-single-stim	s533	False
0.1	130.902	0.518	131.42	0	PA_with_intermediate	test	ward_and_allport	89	4.0	0.518	to_board	poldrack-single-stim	s533	False
1.0	131.425	2.816	131.424	0	PA_with_intermediate	test	ward_and_allport	-1	4.0	n/a	feedback	poldrack-single-stim	s533	False
4.298	134.243	4.298	138.541	1	PA_without_intermediate	test	ward_and_allport	82	5.0	4.298	to_hand	poldrack-single-stim	s533	False
0.1	138.542	0.617	139.159	0	PA_without_intermediate	test	ward_and_allport	71	5.0	0.617	to_board	poldrack-single-stim	s533	False
0.1	139.163	0.807	139.97	0	PA_without_intermediate	test	ward_and_allport	82	5.0	0.807	to_hand	poldrack-single-stim	s533	False
0.1	139.971	0.669	140.64	0	PA_without_intermediate	test	ward_and_allport	71	5.0	0.669	to_board	poldrack-single-stim	s533	False
0.1	140.643	1.361	142.004	0	PA_without_intermediate	test	ward_and_allport	82	5.0	1.361	to_hand	poldrack-single-stim	s533	False
0.1	142.005	0.499	142.504	0	PA_without_intermediate	test	ward_and_allport	89	5.0	0.499	to_board	poldrack-single-stim	s533	False
1.0	142.509	3.088	142.508	0	PA_without_intermediate	test	ward_and_allport	-1	5.0	n/a	feedback	poldrack-single-stim	s533	False
2.154	145.6	2.154	147.754	1	PA_without_intermediate	test	ward_and_allport	82	6.0	2.154	to_hand	poldrack-single-stim	s533	False
0.1	147.754	0.558	148.312	0	PA_without_intermediate	test	ward_and_allport	89	6.0	0.558	to_board	poldrack-single-stim	s533	False
0.1	148.315	1.765	150.08	0	PA_without_intermediate	test	ward_and_allport	82	6.0	1.765	to_hand	poldrack-single-stim	s533	False
0.1	150.082	0.428	150.51	0	PA_without_intermediate	test	ward_and_allport	89	6.0	0.428	to_board	poldrack-single-stim	s533	False
0.1	150.513	2.746	153.259	0	PA_without_intermediate	test	ward_and_allport	89	6.0	2.746	to_hand	poldrack-single-stim	s533	False
0.1	153.26	0.544	153.804	0	PA_without_intermediate	test	ward_and_allport	71	6.0	0.544	to_board	poldrack-single-stim	s533	False
0.1	153.808	1.282	155.09	0	PA_without_intermediate	test	ward_and_allport	82	6.0	1.282	to_hand	poldrack-single-stim	s533	False
0.1	155.09	0.884	155.974	0	PA_without_intermediate	test	ward_and_allport	89	6.0	0.884	to_board	poldrack-single-stim	s533	False
1.0	155.98	2.136	155.979	0	PA_without_intermediate	test	ward_and_allport	-1	6.0	n/a	feedback	poldrack-single-stim	s533	False
7.768	158.118	7.768	165.886	1	PA_without_intermediate	test	ward_and_allport	89	7.0	7.768	to_hand	poldrack-single-stim	s533	False
0.1	165.887	0.575	166.462	0	PA_without_intermediate	test	ward_and_allport	82	7.0	0.575	to_board	poldrack-single-stim	s533	False
0.1	166.466	1.611	168.077	0	PA_without_intermediate	test	ward_and_allport	89	7.0	1.611	to_hand	poldrack-single-stim	s533	False
0.1	168.078	0.617	168.695	0	PA_without_intermediate	test	ward_and_allport	71	7.0	0.617	to_board	poldrack-single-stim	s533	False
0.1	168.698	0.723	169.421	0	PA_without_intermediate	test	ward_and_allport	82	7.0	0.723	to_hand	poldrack-single-stim	s533	False
0.1	169.421	1.454	170.875	0	PA_without_intermediate	test	ward_and_allport	82	7.0	1.454	to_board	poldrack-single-stim	s533	False
0.1	170.879	0.562	171.441	0	PA_without_intermediate	test	ward_and_allport	89	7.0	0.562	to_hand	poldrack-single-stim	s533	False
0.1	171.441	1.184	172.625	0	PA_without_intermediate	test	ward_and_allport	82	7.0	1.184	to_board	poldrack-single-stim	s533	False
1.0	172.631	7.168	172.63	0	PA_without_intermediate	test	ward_and_allport	-1	7.0	n/a	feedback	poldrack-single-stim	s533	False
1.933	179.803	1.933	181.736	1	PA_without_intermediate	test	ward_and_allport	71	8.0	1.933	to_hand	poldrack-single-stim	s533	False
0.1	181.737	0.8	182.537	0	PA_without_intermediate	test	ward_and_allport	89	8.0	0.8	to_board	poldrack-single-stim	s533	False
0.1	182.542	1.024	183.566	0	PA_without_intermediate	test	ward_and_allport	71	8.0	1.024	to_hand	poldrack-single-stim	s533	False
0.1	183.568	0.616	184.184	0	PA_without_intermediate	test	ward_and_allport	82	8.0	0.616	to_board	poldrack-single-stim	s533	False
0.1	184.188	1.659	185.847	0	PA_without_intermediate	test	ward_and_allport	71	8.0	1.659	to_hand	poldrack-single-stim	s533	False
0.1	185.848	0.732	186.58	0	PA_without_intermediate	test	ward_and_allport	89	8.0	0.732	to_board	poldrack-single-stim	s533	False
1.0	186.586	2.816	186.585	0	PA_without_intermediate	test	ward_and_allport	-1	8.0	n/a	feedback	poldrack-single-stim	s533	False
4.068	189.406	4.068	193.474	1	PA_with_intermediate	test	ward_and_allport	71	9.0	4.068	to_hand	poldrack-single-stim	s533	False
0.1	193.474	0.648	194.122	0	PA_with_intermediate	test	ward_and_allport	89	9.0	0.648	to_board	poldrack-single-stim	s533	False
0.1	194.127	0.882	195.009	0	PA_with_intermediate	test	ward_and_allport	71	9.0	0.882	to_hand	poldrack-single-stim	s533	False
0.1	195.009	0.549	195.558	0	PA_with_intermediate	test	ward_and_allport	82	9.0	0.549	to_board	poldrack-single-stim	s533	False
0.1	195.563	1.075	196.638	0	PA_with_intermediate	test	ward_and_allport	89	9.0	1.075	to_hand	poldrack-single-stim	s533	False
0.1	196.639	0.746	197.385	0	PA_with_intermediate	test	ward_and_allport	82	9.0	0.746	to_board	poldrack-single-stim	s533	False
0.1	197.389	1.916	199.305	0	PA_with_intermediate	test	ward_and_allport	82	9.0	1.916	to_hand	poldrack-single-stim	s533	False
0.1	199.306	0.542	199.848	0	PA_with_intermediate	test	ward_and_allport	71	9.0	0.542	to_board	poldrack-single-stim	s533	False
1.0	199.854	2.952	199.853	0	PA_with_intermediate	test	ward_and_allport	-1	9.0	n/a	feedback	poldrack-single-stim	s533	False
3.629	202.81	3.629	206.439	1	PA_with_intermediate	test	ward_and_allport	82	10.0	3.629	to_hand	poldrack-single-stim	s533	False
0.1	206.439	1.974	208.413	0	PA_with_intermediate	test	ward_and_allport	71	10.0	1.974	to_board	poldrack-single-stim	s533	False
0.1	208.418	1.182	209.6	0	PA_with_intermediate	test	ward_and_allport	82	10.0	1.182	to_hand	poldrack-single-stim	s533	False
0.1	209.601	0.462	210.063	0	PA_with_intermediate	test	ward_and_allport	89	10.0	0.462	to_board	poldrack-single-stim	s533	False
0.1	210.067	0.88	210.947	0	PA_with_intermediate	test	ward_and_allport	71	10.0	0.88	to_hand	poldrack-single-stim	s533	False
0.1	210.948	0.446	211.394	0	PA_with_intermediate	test	ward_and_allport	82	10.0	0.446	to_board	poldrack-single-stim	s533	False
1.0	211.4	2.136	211.399	0	PA_with_intermediate	test	ward_and_allport	-1	10.0	n/a	feedback	poldrack-single-stim	s533	False
4.207	213.541	4.207	217.748	1	PA_without_intermediate	test	ward_and_allport	82	11.0	4.207	to_hand	poldrack-single-stim	s533	False
0.1	217.748	0.856	218.604	0	PA_without_intermediate	test	ward_and_allport	71	11.0	0.856	to_board	poldrack-single-stim	s533	False
0.1	218.609	2.516	221.125	0	PA_without_intermediate	test	ward_and_allport	82	11.0	2.516	to_hand	poldrack-single-stim	s533	False
0.1	221.126	0.797	221.923	0	PA_without_intermediate	test	ward_and_allport	71	11.0	0.797	to_board	poldrack-single-stim	s533	False
0.1	221.928	1.032	222.96	0	PA_without_intermediate	test	ward_and_allport	82	11.0	1.032	to_hand	poldrack-single-stim	s533	False
0.1	222.961	0.539	223.5	0	PA_without_intermediate	test	ward_and_allport	89	11.0	0.539	to_board	poldrack-single-stim	s533	False
1.0	223.505	2.68	223.504	0	PA_without_intermediate	test	ward_and_allport	-1	11.0	n/a	feedback	poldrack-single-stim	s533	False
5.457	226.189	5.457	231.646	1	PA_without_intermediate	test	ward_and_allport	89	12.0	5.457	to_hand	poldrack-single-stim	s533	False
0.1	231.647	0.607	232.254	0	PA_without_intermediate	test	ward_and_allport	71	12.0	0.607	to_board	poldrack-single-stim	s533	False
0.1	232.258	0.934	233.192	0	PA_without_intermediate	test	ward_and_allport	89	12.0	0.934	to_hand	poldrack-single-stim	s533	False
0.1	233.193	0.471	233.664	0	PA_without_intermediate	test	ward_and_allport	82	12.0	0.471	to_board	poldrack-single-stim	s533	False
0.1	233.668	0.544	234.212	0	PA_without_intermediate	test	ward_and_allport	89	12.0	0.544	to_hand	poldrack-single-stim	s533	False
0.1	234.213	0.739	234.952	0	PA_without_intermediate	test	ward_and_allport	71	12.0	0.739	to_board	poldrack-single-stim	s533	False
1.0	234.957	3.088	234.956	0	PA_without_intermediate	test	ward_and_allport	-1	12.0	n/a	feedback	poldrack-single-stim	s533	False
2.951	238.05	2.951	241.001	1	PA_with_intermediate	test	ward_and_allport	89	13.0	2.951	to_hand	poldrack-single-stim	s533	False
0.1	241.002	0.465	241.467	0	PA_with_intermediate	test	ward_and_allport	82	13.0	0.465	to_board	poldrack-single-stim	s533	False
0.1	241.471	1.322	242.793	0	PA_with_intermediate	test	ward_and_allport	89	13.0	1.322	to_hand	poldrack-single-stim	s533	False
0.1	242.794	0.501	243.295	0	PA_with_intermediate	test	ward_and_allport	71	13.0	0.501	to_board	poldrack-single-stim	s533	False
0.1	243.299	1.349	244.648	0	PA_with_intermediate	test	ward_and_allport	82	13.0	1.349	to_hand	poldrack-single-stim	s533	False
0.1	244.649	0.547	245.196	0	PA_with_intermediate	test	ward_and_allport	71	13.0	0.547	to_board	poldrack-single-stim	s533	False
1.0	245.202	2.0	245.201	0	PA_with_intermediate	test	ward_and_allport	-1	13.0	n/a	feedback	poldrack-single-stim	s533	False
3.762	247.208	3.762	250.97	1	PA_without_intermediate	test	ward_and_allport	89	14.0	3.762	to_hand	poldrack-single-stim	s533	False
0.1	250.97	0.636	251.606	0	PA_without_intermediate	test	ward_and_allport	82	14.0	0.636	to_board	poldrack-single-stim	s533	False
0.1	251.611	1.879	253.49	0	PA_without_intermediate	test	ward_and_allport	89	14.0	1.879	to_hand	poldrack-single-stim	s533	False
0.1	253.491	0.617	254.108	0	PA_without_intermediate	test	ward_and_allport	82	14.0	0.617	to_board	poldrack-single-stim	s533	False
0.1	254.112	1.744	255.856	0	PA_without_intermediate	test	ward_and_allport	89	14.0	1.744	to_hand	poldrack-single-stim	s533	False
0.1	255.857	0.511	256.368	0	PA_without_intermediate	test	ward_and_allport	71	14.0	0.511	to_board	poldrack-single-stim	s533	False
1.0	256.374	2.0	256.373	0	PA_without_intermediate	test	ward_and_allport	-1	14.0	n/a	feedback	poldrack-single-stim	s533	False
3.807	263.383	3.807	267.19	1	PA_without_intermediate	test	ward_and_allport	71	15.0	3.807	to_hand	poldrack-single-stim	s533	False
0.1	267.191	0.493	267.684	0	PA_without_intermediate	test	ward_and_allport	82	15.0	0.493	to_board	poldrack-single-stim	s533	False
0.1	267.689	1.075	268.764	0	PA_without_intermediate	test	ward_and_allport	71	15.0	1.075	to_hand	poldrack-single-stim	s533	False
0.1	268.765	0.703	269.468	0	PA_without_intermediate	test	ward_and_allport	82	15.0	0.703	to_board	poldrack-single-stim	s533	False
0.1	269.473	2.707	272.18	0	PA_without_intermediate	test	ward_and_allport	71	15.0	2.707	to_hand	poldrack-single-stim	s533	False
0.1	272.18	0.64	272.82	0	PA_without_intermediate	test	ward_and_allport	89	15.0	0.64	to_board	poldrack-single-stim	s533	False
1.0	272.826	2.0	272.825	0	PA_without_intermediate	test	ward_and_allport	-1	15.0	n/a	feedback	poldrack-single-stim	s533	False
3.672	274.831	3.672	278.503	1	PA_with_intermediate	test	ward_and_allport	82	16.0	3.672	to_hand	poldrack-single-stim	s533	False
0.1	278.504	1.02	279.524	0	PA_with_intermediate	test	ward_and_allport	71	16.0	1.02	to_board	poldrack-single-stim	s533	False
0.1	279.528	2.253	281.781	0	PA_with_intermediate	test	ward_and_allport	82	16.0	2.253	to_hand	poldrack-single-stim	s533	False
0.1	281.782	2.361	284.143	0	PA_with_intermediate	test	ward_and_allport	82	16.0	2.361	to_board	poldrack-single-stim	s533	False
0.1	284.149	1.27	285.419	0	PA_with_intermediate	test	ward_and_allport	71	16.0	1.27	to_hand	poldrack-single-stim	s533	False
0.1	285.419	0.642	286.061	0	PA_with_intermediate	test	ward_and_allport	89	16.0	0.642	to_board	poldrack-single-stim	s533	False
0.1	286.066	0.878	286.944	0	PA_with_intermediate	test	ward_and_allport	82	16.0	0.878	to_hand	poldrack-single-stim	s533	False
0.1	286.945	0.523	287.468	0	PA_with_intermediate	test	ward_and_allport	71	16.0	0.523	to_board	poldrack-single-stim	s533	False
0.1	287.474	1.619	289.093	0	PA_with_intermediate	test	ward_and_allport	89	16.0	1.619	to_hand	poldrack-single-stim	s533	False
0.1	289.094	0.567	289.661	0	PA_with_intermediate	test	ward_and_allport	82	16.0	0.567	to_board	poldrack-single-stim	s533	False
1.0	289.667	2.544	289.666	0	PA_with_intermediate	test	ward_and_allport	-1	16.0	n/a	feedback	poldrack-single-stim	s533	False
3.904	292.215	3.904	296.119	1	PA_without_intermediate	test	ward_and_allport	89	17.0	3.904	to_hand	poldrack-single-stim	s533	False
0.1	296.12	1.563	297.683	0	PA_without_intermediate	test	ward_and_allport	71	17.0	1.563	to_board	poldrack-single-stim	s533	False
0.1	297.688	0.914	298.602	0	PA_without_intermediate	test	ward_and_allport	89	17.0	0.914	to_hand	poldrack-single-stim	s533	False
0.1	298.604	0.743	299.347	0	PA_without_intermediate	test	ward_and_allport	82	17.0	0.743	to_board	poldrack-single-stim	s533	False
0.1	299.351	0.775	300.126	0	PA_without_intermediate	test	ward_and_allport	89	17.0	0.775	to_hand	poldrack-single-stim	s533	False
0.1	300.128	0.672	300.8	0	PA_without_intermediate	test	ward_and_allport	71	17.0	0.672	to_board	poldrack-single-stim	s533	False
1.0	300.806	2.272	300.805	0	PA_without_intermediate	test	ward_and_allport	-1	17.0	n/a	feedback	poldrack-single-stim	s533	False
2.705	303.083	2.705	305.788	1	PA_with_intermediate	test	ward_and_allport	82	18.0	2.705	to_hand	poldrack-single-stim	s533	False
0.1	305.788	0.528	306.316	0	PA_with_intermediate	test	ward_and_allport	71	18.0	0.528	to_board	poldrack-single-stim	s533	False
0.1	306.32	1.319	307.639	0	PA_with_intermediate	test	ward_and_allport	82	18.0	1.319	to_hand	poldrack-single-stim	s533	False
0.1	307.641	0.669	308.31	0	PA_with_intermediate	test	ward_and_allport	89	18.0	0.669	to_board	poldrack-single-stim	s533	False
0.1	308.315	1.203	309.518	0	PA_with_intermediate	test	ward_and_allport	71	18.0	1.203	to_hand	poldrack-single-stim	s533	False
0.1	309.519	0.562	310.081	0	PA_with_intermediate	test	ward_and_allport	89	18.0	0.562	to_board	poldrack-single-stim	s533	False
1.0	310.087	4.04	310.086	0	PA_with_intermediate	test	ward_and_allport	-1	18.0	n/a	feedback	poldrack-single-stim	s533	False
2.87	314.133	2.87	317.003	1	PA_with_intermediate	test	ward_and_allport	89	19.0	2.87	to_hand	poldrack-single-stim	s533	False
0.1	317.004	0.93	317.934	0	PA_with_intermediate	test	ward_and_allport	71	19.0	0.93	to_board	poldrack-single-stim	s533	False
0.1	317.94	0.782	318.722	0	PA_with_intermediate	test	ward_and_allport	89	19.0	0.782	to_hand	poldrack-single-stim	s533	False
0.1	318.724	0.841	319.565	0	PA_with_intermediate	test	ward_and_allport	82	19.0	0.841	to_board	poldrack-single-stim	s533	False
0.1	319.571	0.574	320.145	0	PA_with_intermediate	test	ward_and_allport	71	19.0	0.574	to_hand	poldrack-single-stim	s533	False
0.1	320.146	0.584	320.73	0	PA_with_intermediate	test	ward_and_allport	82	19.0	0.584	to_board	poldrack-single-stim	s533	False
1.0	320.737	2.272	320.736	0	PA_with_intermediate	test	ward_and_allport	-1	19.0	n/a	feedback	poldrack-single-stim	s533	False
2.279	323.015	2.279	325.294	1	PA_with_intermediate	test	ward_and_allport	71	20.0	2.279	to_hand	poldrack-single-stim	s533	False
0.1	325.296	1.309	326.605	0	PA_with_intermediate	test	ward_and_allport	82	20.0	1.309	to_board	poldrack-single-stim	s533	False
0.1	326.611	0.75	327.361	0	PA_with_intermediate	test	ward_and_allport	71	20.0	0.75	to_hand	poldrack-single-stim	s533	False
0.1	327.363	0.745	328.108	0	PA_with_intermediate	test	ward_and_allport	89	20.0	0.745	to_board	poldrack-single-stim	s533	False
0.1	328.115	0.662	328.777	0	PA_with_intermediate	test	ward_and_allport	82	20.0	0.662	to_hand	poldrack-single-stim	s533	False
0.1	328.777	0.487	329.264	0	PA_with_intermediate	test	ward_and_allport	71	20.0	0.487	to_board	poldrack-single-stim	s533	False
1.0	329.272	2.136	329.271	0	PA_with_intermediate	test	ward_and_allport	-1	20.0	n/a	feedback	poldrack-single-stim	s533	False
1.938	331.414	1.938	333.352	1	PA_with_intermediate	test	ward_and_allport	71	21.0	1.938	to_hand	poldrack-single-stim	s533	False
0.1	333.352	1.294	334.646	0	PA_with_intermediate	test	ward_and_allport	89	21.0	1.294	to_board	poldrack-single-stim	s533	False
0.1	334.652	0.896	335.548	0	PA_with_intermediate	test	ward_and_allport	71	21.0	0.896	to_hand	poldrack-single-stim	s533	False
0.1	335.549	0.563	336.112	0	PA_with_intermediate	test	ward_and_allport	82	21.0	0.563	to_board	poldrack-single-stim	s533	False
0.1	336.118	0.81	336.928	0	PA_with_intermediate	test	ward_and_allport	89	21.0	0.81	to_hand	poldrack-single-stim	s533	False
0.1	336.929	0.616	337.545	0	PA_with_intermediate	test	ward_and_allport	82	21.0	0.616	to_board	poldrack-single-stim	s533	False
1.0	337.552	2.0	337.551	0	PA_with_intermediate	test	ward_and_allport	-1	21.0	n/a	feedback	poldrack-single-stim	s533	False
1.242	339.56	1.242	340.802	1	PA_with_intermediate	test	ward_and_allport	71	22.0	1.242	to_hand	poldrack-single-stim	s533	False
0.1	340.803	1.341	342.144	0	PA_with_intermediate	test	ward_and_allport	82	22.0	1.341	to_board	poldrack-single-stim	s533	False
0.1	342.15	0.615	342.765	0	PA_with_intermediate	test	ward_and_allport	71	22.0	0.615	to_hand	poldrack-single-stim	s533	False
0.1	342.766	0.768	343.534	0	PA_with_intermediate	test	ward_and_allport	89	22.0	0.768	to_board	poldrack-single-stim	s533	False
0.1	343.541	0.792	344.333	0	PA_with_intermediate	test	ward_and_allport	82	22.0	0.792	to_hand	poldrack-single-stim	s533	False
0.1	344.334	0.814	345.148	0	PA_with_intermediate	test	ward_and_allport	89	22.0	0.814	to_board	poldrack-single-stim	s533	False
1.0	345.156	2.0	345.155	0	PA_with_intermediate	test	ward_and_allport	-1	22.0	n/a	feedback	poldrack-single-stim	s533	False
3.435	347.164	3.435	350.599	1	PA_without_intermediate	test	ward_and_allport	71	23.0	3.435	to_hand	poldrack-single-stim	s533	False
0.1	350.599	0.917	351.516	0	PA_without_intermediate	test	ward_and_allport	89	23.0	0.917	to_board	poldrack-single-stim	s533	False
0.1	351.522	1.214	352.736	0	PA_without_intermediate	test	ward_and_allport	71	23.0	1.214	to_hand	poldrack-single-stim	s533	False
0.1	352.738	0.634	353.372	0	PA_without_intermediate	test	ward_and_allport	82	23.0	0.634	to_board	poldrack-single-stim	s533	False
0.1	353.379	0.842	354.221	0	PA_without_intermediate	test	ward_and_allport	71	23.0	0.842	to_hand	poldrack-single-stim	s533	False
0.1	354.221	0.554	354.775	0	PA_without_intermediate	test	ward_and_allport	89	23.0	0.554	to_board	poldrack-single-stim	s533	False
1.0	354.784	2.408	354.783	0	PA_without_intermediate	test	ward_and_allport	-1	23.0	n/a	feedback	poldrack-single-stim	s533	False
2.403	357.199	2.403	359.602	1	PA_with_intermediate	test	ward_and_allport	71	24.0	2.403	to_hand	poldrack-single-stim	s533	False
0.1	359.602	1.315	360.917	0	PA_with_intermediate	test	ward_and_allport	89	24.0	1.315	to_board	poldrack-single-stim	s533	False
0.1	360.924	0.764	361.688	0	PA_with_intermediate	test	ward_and_allport	71	24.0	0.764	to_hand	poldrack-single-stim	s533	False
0.1	361.689	0.49	362.179	0	PA_with_intermediate	test	ward_and_allport	82	24.0	0.49	to_board	poldrack-single-stim	s533	False
0.1	362.185	0.802	362.987	0	PA_with_intermediate	test	ward_and_allport	71	24.0	0.802	to_hand	poldrack-single-stim	s533	False
0.1	362.988	0.767	363.755	0	PA_with_intermediate	test	ward_and_allport	89	24.0	0.767	to_board	poldrack-single-stim	s533	False
0.1	363.762	3.18	366.942	0	PA_with_intermediate	test	ward_and_allport	89	24.0	3.18	to_hand	poldrack-single-stim	s533	False
0.1	366.943	2.593	369.536	0	PA_with_intermediate	test	ward_and_allport	71	24.0	2.593	to_board	poldrack-single-stim	s533	False
0.1	369.544	1.109	370.653	0	PA_with_intermediate	test	ward_and_allport	89	24.0	1.109	to_hand	poldrack-single-stim	s533	False
0.1	370.654	0.744	371.398	0	PA_with_intermediate	test	ward_and_allport	82	24.0	0.744	to_board	poldrack-single-stim	s533	False
0.1	371.405	0.587	371.992	0	PA_with_intermediate	test	ward_and_allport	71	24.0	0.587	to_hand	poldrack-single-stim	s533	False
0.1	371.992	2.053	374.045	0	PA_with_intermediate	test	ward_and_allport	71	24.0	2.053	to_board	poldrack-single-stim	s533	False
0.1	374.053	1.79	375.843	0	PA_with_intermediate	test	ward_and_allport	82	24.0	1.79	to_hand	poldrack-single-stim	s533	False
0.1	375.844	0.664	376.508	0	PA_with_intermediate	test	ward_and_allport	71	24.0	0.664	to_board	poldrack-single-stim	s533	False
1.0	376.517	3.768	376.516	0	PA_with_intermediate	test	ward_and_allport	-1	24.0	n/a	feedback	poldrack-single-stim	s533	False
3.215	380.3	3.215	383.515	1	PA_with_intermediate	test	ward_and_allport	71	25.0	3.215	to_hand	poldrack-single-stim	s533	False
0.1	383.517	0.926	384.443	0	PA_with_intermediate	test	ward_and_allport	89	25.0	0.926	to_board	poldrack-single-stim	s533	False
0.1	384.45	0.554	385.004	0	PA_with_intermediate	test	ward_and_allport	71	25.0	0.554	to_hand	poldrack-single-stim	s533	False
0.1	385.005	0.526	385.531	0	PA_with_intermediate	test	ward_and_allport	82	25.0	0.526	to_board	poldrack-single-stim	s533	False
0.1	385.538	0.655	386.193	0	PA_with_intermediate	test	ward_and_allport	89	25.0	0.655	to_hand	poldrack-single-stim	s533	False
0.1	386.194	0.525	386.719	0	PA_with_intermediate	test	ward_and_allport	82	25.0	0.525	to_board	poldrack-single-stim	s533	False
1.0	386.727	2.68	386.726	0	PA_with_intermediate	test	ward_and_allport	-1	25.0	n/a	feedback	poldrack-single-stim	s533	False
5.951	389.414	5.951	395.365	1	PA_without_intermediate	test	ward_and_allport	82	26.0	5.951	to_hand	poldrack-single-stim	s533	False
0.1	395.366	1.34	396.706	0	PA_without_intermediate	test	ward_and_allport	89	26.0	1.34	to_board	poldrack-single-stim	s533	False
0.1	396.715	2.366	399.081	0	PA_without_intermediate	test	ward_and_allport	82	26.0	2.366	to_hand	poldrack-single-stim	s533	False
0.1	399.081	0.662	399.743	0	PA_without_intermediate	test	ward_and_allport	71	26.0	0.662	to_board	poldrack-single-stim	s533	False
0.1	399.752	1.209	400.961	0	PA_without_intermediate	test	ward_and_allport	82	26.0	1.209	to_hand	poldrack-single-stim	s533	False
0.1	400.962	0.436	401.398	0	PA_without_intermediate	test	ward_and_allport	89	26.0	0.436	to_board	poldrack-single-stim	s533	False
1.0	401.408	3.224	401.407	0	PA_without_intermediate	test	ward_and_allport	-1	26.0	n/a	feedback	poldrack-single-stim	s533	False
2.439	404.64	2.439	407.079	1	PA_without_intermediate	test	ward_and_allport	82	27.0	2.439	to_hand	poldrack-single-stim	s533	False
0.1	407.08	0.915	407.995	0	PA_without_intermediate	test	ward_and_allport	71	27.0	0.915	to_board	poldrack-single-stim	s533	False
0.1	408.005	0.675	408.68	0	PA_without_intermediate	test	ward_and_allport	82	27.0	0.675	to_hand	poldrack-single-stim	s533	False
0.1	408.681	0.673	409.354	0	PA_without_intermediate	test	ward_and_allport	89	27.0	0.673	to_board	poldrack-single-stim	s533	False
0.1	409.364	1.265	410.629	0	PA_without_intermediate	test	ward_and_allport	82	27.0	1.265	to_hand	poldrack-single-stim	s533	False
0.1	410.629	1.034	411.663	0	PA_without_intermediate	test	ward_and_allport	71	27.0	1.034	to_board	poldrack-single-stim	s533	False
1.0	411.672	3.36	411.671	0	PA_without_intermediate	test	ward_and_allport	-1	27.0	n/a	feedback	poldrack-single-stim	s533	False
2.22	415.04	2.22	417.26	1	PA_without_intermediate	test	ward_and_allport	89	28.0	2.22	to_hand	poldrack-single-stim	s533	False
0.1	417.26	0.597	417.857	0	PA_without_intermediate	test	ward_and_allport	71	28.0	0.597	to_board	poldrack-single-stim	s533	False
0.1	417.865	0.696	418.561	0	PA_without_intermediate	test	ward_and_allport	89	28.0	0.696	to_hand	poldrack-single-stim	s533	False
0.1	418.562	0.549	419.111	0	PA_without_intermediate	test	ward_and_allport	71	28.0	0.549	to_board	poldrack-single-stim	s533	False
0.1	419.119	0.876	419.995	0	PA_without_intermediate	test	ward_and_allport	89	28.0	0.876	to_hand	poldrack-single-stim	s533	False
0.1	419.997	0.567	420.564	0	PA_without_intermediate	test	ward_and_allport	82	28.0	0.567	to_board	poldrack-single-stim	s533	False
1.0	420.574	2.0	420.573	0	PA_without_intermediate	test	ward_and_allport	-1	28.0	n/a	feedback	poldrack-single-stim	s533	False
2.134	422.579	2.134	424.713	1	PA_without_intermediate	test	ward_and_allport	82	29.0	2.134	to_hand	poldrack-single-stim	s533	False
0.1	424.715	1.272	425.987	0	PA_without_intermediate	test	ward_and_allport	89	29.0	1.272	to_board	poldrack-single-stim	s533	False
0.1	425.993	2.411	428.404	0	PA_without_intermediate	test	ward_and_allport	82	29.0	2.411	to_hand	poldrack-single-stim	s533	False
0.1	428.404	0.545	428.949	0	PA_without_intermediate	test	ward_and_allport	89	29.0	0.545	to_board	poldrack-single-stim	s533	False
0.1	428.957	0.895	429.852	0	PA_without_intermediate	test	ward_and_allport	82	29.0	0.895	to_hand	poldrack-single-stim	s533	False
0.1	429.852	0.499	430.351	0	PA_without_intermediate	test	ward_and_allport	71	29.0	0.499	to_board	poldrack-single-stim	s533	False
1.0	430.361	2.408	430.36	0	PA_without_intermediate	test	ward_and_allport	-1	29.0	n/a	feedback	poldrack-single-stim	s533	False
3.941	437.781	3.941	441.722	1	PA_with_intermediate	test	ward_and_allport	89	30.0	3.941	to_hand	poldrack-single-stim	s533	False
0.1	441.723	1.071	442.794	0	PA_with_intermediate	test	ward_and_allport	71	30.0	1.071	to_board	poldrack-single-stim	s533	False
0.1	442.803	0.862	443.665	0	PA_with_intermediate	test	ward_and_allport	89	30.0	0.862	to_hand	poldrack-single-stim	s533	False
0.1	443.666	0.469	444.135	0	PA_with_intermediate	test	ward_and_allport	82	30.0	0.469	to_board	poldrack-single-stim	s533	False
0.1	444.143	0.529	444.672	0	PA_with_intermediate	test	ward_and_allport	89	30.0	0.529	to_hand	poldrack-single-stim	s533	False
0.1	444.674	1.996	446.67	0	PA_with_intermediate	test	ward_and_allport	82	30.0	1.996	to_board	poldrack-single-stim	s533	False
0.1	446.679	0.99	447.669	0	PA_with_intermediate	test	ward_and_allport	71	30.0	0.99	to_hand	poldrack-single-stim	s533	False
0.1	447.669	0.567	448.236	0	PA_with_intermediate	test	ward_and_allport	89	30.0	0.567	to_board	poldrack-single-stim	s533	False
0.1	448.244	1.136	449.38	0	PA_with_intermediate	test	ward_and_allport	82	30.0	1.136	to_hand	poldrack-single-stim	s533	False
0.1	449.38	0.504	449.884	0	PA_with_intermediate	test	ward_and_allport	89	30.0	0.504	to_board	poldrack-single-stim	s533	False
0.1	449.891	6.124	456.015	0	PA_with_intermediate	test	ward_and_allport	89	30.0	6.124	to_hand	poldrack-single-stim	s533	False
0.1	456.015	1.142	457.157	0	PA_with_intermediate	test	ward_and_allport	71	30.0	1.142	to_board	poldrack-single-stim	s533	False
0.1	457.164	0.899	458.063	0	PA_with_intermediate	test	ward_and_allport	89	30.0	0.899	to_hand	poldrack-single-stim	s533	False
0.1	458.063	0.465	458.528	0	PA_with_intermediate	test	ward_and_allport	82	30.0	0.465	to_board	poldrack-single-stim	s533	False
0.1	458.537	0.646	459.183	0	PA_with_intermediate	test	ward_and_allport	71	30.0	0.646	to_hand	poldrack-single-stim	s533	False
0.1	459.185	0.54	459.725	0	PA_with_intermediate	test	ward_and_allport	89	30.0	0.54	to_board	poldrack-single-stim	s533	False
0.1	459.735	0.872	460.607	0	PA_with_intermediate	test	ward_and_allport	82	30.0	0.872	to_hand	poldrack-single-stim	s533	False
0.1	460.608	0.734	461.342	0	PA_with_intermediate	test	ward_and_allport	89	30.0	0.734	to_board	poldrack-single-stim	s533	False
1.0	461.351	2.136	461.35	0	PA_with_intermediate	test	ward_and_allport	-1	30.0	n/a	feedback	poldrack-single-stim	s533	False
3.028	463.496	3.028	466.524	1	PA_without_intermediate	test	ward_and_allport	71	31.0	3.028	to_hand	poldrack-single-stim	s533	False
0.1	466.525	0.466	466.991	0	PA_without_intermediate	test	ward_and_allport	89	31.0	0.466	to_board	poldrack-single-stim	s533	False
0.1	467.0	0.9	467.9	0	PA_without_intermediate	test	ward_and_allport	71	31.0	0.9	to_hand	poldrack-single-stim	s533	False
0.1	467.901	1.024	468.925	0	PA_without_intermediate	test	ward_and_allport	89	31.0	1.024	to_board	poldrack-single-stim	s533	False
0.1	468.934	0.822	469.756	0	PA_without_intermediate	test	ward_and_allport	71	31.0	0.822	to_hand	poldrack-single-stim	s533	False
0.1	469.758	0.405	470.163	0	PA_without_intermediate	test	ward_and_allport	82	31.0	0.405	to_board	poldrack-single-stim	s533	False
1.0	470.173	5.128	470.172	0	PA_without_intermediate	test	ward_and_allport	-1	31.0	n/a	feedback	poldrack-single-stim	s533	False
2.092	475.308	2.092	477.4	1	PA_without_intermediate	test	ward_and_allport	89	32.0	2.092	to_hand	poldrack-single-stim	s533	False
0.1	477.401	0.974	478.375	0	PA_without_intermediate	test	ward_and_allport	82	32.0	0.974	to_board	poldrack-single-stim	s533	False
0.1	478.383	1.138	479.521	0	PA_without_intermediate	test	ward_and_allport	89	32.0	1.138	to_hand	poldrack-single-stim	s533	False
0.1	479.523	0.523	480.046	0	PA_without_intermediate	test	ward_and_allport	82	32.0	0.523	to_board	poldrack-single-stim	s533	False
0.1	480.056	0.864	480.92	0	PA_without_intermediate	test	ward_and_allport	89	32.0	0.864	to_hand	poldrack-single-stim	s533	False
0.1	480.921	0.437	481.358	0	PA_without_intermediate	test	ward_and_allport	71	32.0	0.437	to_board	poldrack-single-stim	s533	False
1.0	481.368	2.136	481.367	0	PA_without_intermediate	test	ward_and_allport	-1	32.0	n/a	feedback	poldrack-single-stim	s533	False
3.383	483.512	3.383	486.895	1	PA_without_intermediate	test	ward_and_allport	89	33.0	3.383	to_hand	poldrack-single-stim	s533	False
0.1	486.896	0.671	487.567	0	PA_without_intermediate	test	ward_and_allport	82	33.0	0.671	to_board	poldrack-single-stim	s533	False
0.1	487.574	0.959	488.533	0	PA_without_intermediate	test	ward_and_allport	89	33.0	0.959	to_hand	poldrack-single-stim	s533	False
0.1	488.535	0.38	488.915	0	PA_without_intermediate	test	ward_and_allport	71	33.0	0.38	to_board	poldrack-single-stim	s533	False
0.1	488.926	0.614	489.54	0	PA_without_intermediate	test	ward_and_allport	89	33.0	0.614	to_hand	poldrack-single-stim	s533	False
0.1	489.541	0.483	490.024	0	PA_without_intermediate	test	ward_and_allport	82	33.0	0.483	to_board	poldrack-single-stim	s533	False
1.0	490.033	5.264	490.032	0	PA_without_intermediate	test	ward_and_allport	-1	33.0	n/a	feedback	poldrack-single-stim	s533	False
7.281	495.305	7.281	502.586	1	PA_with_intermediate	test	ward_and_allport	89	34.0	7.281	to_hand	poldrack-single-stim	s533	False
0.1	502.587	0.561	503.148	0	PA_with_intermediate	test	ward_and_allport	82	34.0	0.561	to_board	poldrack-single-stim	s533	False
0.1	503.158	1.485	504.643	0	PA_with_intermediate	test	ward_and_allport	89	34.0	1.485	to_hand	poldrack-single-stim	s533	False
0.1	504.645	0.331	504.976	0	PA_with_intermediate	test	ward_and_allport	71	34.0	0.331	to_board	poldrack-single-stim	s533	False
0.1	504.985	1.477	506.462	0	PA_with_intermediate	test	ward_and_allport	82	34.0	1.477	to_hand	poldrack-single-stim	s533	False
0.1	506.464	0.562	507.026	0	PA_with_intermediate	test	ward_and_allport	89	34.0	0.562	to_board	poldrack-single-stim	s533	False
1.0	507.037	4.04	507.036	0	PA_with_intermediate	test	ward_and_allport	-1	34.0	n/a	feedback	poldrack-single-stim	s533	False
2.198	511.088	2.198	513.286	1	PA_with_intermediate	test	ward_and_allport	89	35.0	2.198	to_hand	poldrack-single-stim	s533	False
0.1	513.287	0.998	514.285	0	PA_with_intermediate	test	ward_and_allport	82	35.0	0.998	to_board	poldrack-single-stim	s533	False
0.1	514.295	0.549	514.844	0	PA_with_intermediate	test	ward_and_allport	89	35.0	0.549	to_hand	poldrack-single-stim	s533	False
0.1	514.845	0.434	515.279	0	PA_with_intermediate	test	ward_and_allport	71	35.0	0.434	to_board	poldrack-single-stim	s533	False
0.1	515.288	1.189	516.477	0	PA_with_intermediate	test	ward_and_allport	82	35.0	1.189	to_hand	poldrack-single-stim	s533	False
0.1	516.478	0.699	517.177	0	PA_with_intermediate	test	ward_and_allport	89	35.0	0.699	to_board	poldrack-single-stim	s533	False
1.0	517.187	2.136	517.186	0	PA_with_intermediate	test	ward_and_allport	-1	35.0	n/a	feedback	poldrack-single-stim	s533	False
2.08	519.332	2.08	521.412	1	PA_with_intermediate	test	ward_and_allport	82	36.0	2.08	to_hand	poldrack-single-stim	s533	False
0.1	521.412	1.171	522.583	0	PA_with_intermediate	test	ward_and_allport	89	36.0	1.171	to_board	poldrack-single-stim	s533	False
0.1	522.59	0.94	523.53	0	PA_with_intermediate	test	ward_and_allport	82	36.0	0.94	to_hand	poldrack-single-stim	s533	False
0.1	523.53	0.657	524.187	0	PA_with_intermediate	test	ward_and_allport	71	36.0	0.657	to_board	poldrack-single-stim	s533	False
0.1	524.196	0.566	524.762	0	PA_with_intermediate	test	ward_and_allport	89	36.0	0.566	to_hand	poldrack-single-stim	s533	False
0.1	524.764	0.439	525.203	0	PA_with_intermediate	test	ward_and_allport	71	36.0	0.439	to_board	poldrack-single-stim	s533	False
1.0	525.214	2.408	525.213	0	PA_with_intermediate	test	ward_and_allport	-1	36.0	n/a	feedback	poldrack-single-stim	s533	False
2.283	527.631	2.283	529.914	1	PA_without_intermediate	test	ward_and_allport	82	37.0	2.283	to_hand	poldrack-single-stim	s533	False
0.1	529.916	0.422	530.338	0	PA_without_intermediate	test	ward_and_allport	71	37.0	0.422	to_board	poldrack-single-stim	s533	False
0.1	530.346	1.412	531.758	0	PA_without_intermediate	test	ward_and_allport	82	37.0	1.412	to_hand	poldrack-single-stim	s533	False
0.1	531.759	0.431	532.19	0	PA_without_intermediate	test	ward_and_allport	89	37.0	0.431	to_board	poldrack-single-stim	s533	False
0.1	532.2	0.977	533.177	0	PA_without_intermediate	test	ward_and_allport	82	37.0	0.977	to_hand	poldrack-single-stim	s533	False
0.1	533.178	0.752	533.93	0	PA_without_intermediate	test	ward_and_allport	71	37.0	0.752	to_board	poldrack-single-stim	s533	False
1.0	533.941	2.68	533.94	0	PA_without_intermediate	test	ward_and_allport	-1	37.0	n/a	feedback	poldrack-single-stim	s533	False
3.419	536.627	3.419	540.046	1	PA_with_intermediate	test	ward_and_allport	82	38.0	3.419	to_hand	poldrack-single-stim	s533	False
0.1	540.047	0.72	540.767	0	PA_with_intermediate	test	ward_and_allport	71	38.0	0.72	to_board	poldrack-single-stim	s533	False
0.1	540.773	0.818	541.591	0	PA_with_intermediate	test	ward_and_allport	82	38.0	0.818	to_hand	poldrack-single-stim	s533	False
0.1	541.592	0.57	542.162	0	PA_with_intermediate	test	ward_and_allport	89	38.0	0.57	to_board	poldrack-single-stim	s533	False
0.1	542.173	1.331	543.504	0	PA_with_intermediate	test	ward_and_allport	71	38.0	1.331	to_hand	poldrack-single-stim	s533	False
0.1	543.505	0.486	543.991	0	PA_with_intermediate	test	ward_and_allport	82	38.0	0.486	to_board	poldrack-single-stim	s533	False
1.0	544.003	4.72	544.002	0	PA_with_intermediate	test	ward_and_allport	-1	38.0	n/a	feedback	poldrack-single-stim	s533	False
2.066	548.734	2.066	550.8	1	PA_without_intermediate	test	ward_and_allport	89	39.0	2.066	to_hand	poldrack-single-stim	s533	False
0.1	550.801	0.437	551.238	0	PA_without_intermediate	test	ward_and_allport	71	39.0	0.437	to_board	poldrack-single-stim	s533	False
0.1	551.249	0.899	552.148	0	PA_without_intermediate	test	ward_and_allport	89	39.0	0.899	to_hand	poldrack-single-stim	s533	False
0.1	552.148	0.468	552.616	0	PA_without_intermediate	test	ward_and_allport	71	39.0	0.468	to_board	poldrack-single-stim	s533	False
0.1	552.627	1.093	553.72	0	PA_without_intermediate	test	ward_and_allport	89	39.0	1.093	to_hand	poldrack-single-stim	s533	False
0.1	553.721	0.436	554.157	0	PA_without_intermediate	test	ward_and_allport	82	39.0	0.436	to_board	poldrack-single-stim	s533	False
1.0	554.166	3.224	554.165	0	PA_without_intermediate	test	ward_and_allport	-1	39.0	n/a	feedback	poldrack-single-stim	s533	False
1.372	557.397	1.372	558.769	1	PA_without_intermediate	test	ward_and_allport	71	40.0	1.372	to_hand	poldrack-single-stim	s533	False
0.1	558.77	0.851	559.621	0	PA_without_intermediate	test	ward_and_allport	89	40.0	0.851	to_board	poldrack-single-stim	s533	False
0.1	559.628	0.743	560.371	0	PA_without_intermediate	test	ward_and_allport	71	40.0	0.743	to_hand	poldrack-single-stim	s533	False
0.1	560.372	0.515	560.887	0	PA_without_intermediate	test	ward_and_allport	89	40.0	0.515	to_board	poldrack-single-stim	s533	False
0.1	560.898	1.069	561.967	0	PA_without_intermediate	test	ward_and_allport	71	40.0	1.069	to_hand	poldrack-single-stim	s533	False
0.1	561.968	0.671	562.639	0	PA_without_intermediate	test	ward_and_allport	82	40.0	0.671	to_board	poldrack-single-stim	s533	False
1.0	562.65	2.272	562.649	0	PA_without_intermediate	test	ward_and_allport	-1	40.0	n/a	feedback	poldrack-single-stim	s533	False
2.208	564.932	2.208	567.14	1	PA_with_intermediate	test	ward_and_allport	71	41.0	2.208	to_hand	poldrack-single-stim	s533	False
0.1	567.141	0.807	567.948	0	PA_with_intermediate	test	ward_and_allport	82	41.0	0.807	to_board	poldrack-single-stim	s533	False
0.1	567.956	0.482	568.438	0	PA_with_intermediate	test	ward_and_allport	71	41.0	0.482	to_hand	poldrack-single-stim	s533	False
0.1	568.439	0.639	569.078	0	PA_with_intermediate	test	ward_and_allport	89	41.0	0.639	to_board	poldrack-single-stim	s533	False
0.1	569.086	1.028	570.114	0	PA_with_intermediate	test	ward_and_allport	82	41.0	1.028	to_hand	poldrack-single-stim	s533	False
0.1	570.117	0.618	570.735	0	PA_with_intermediate	test	ward_and_allport	71	41.0	0.618	to_board	poldrack-single-stim	s533	False
1.0	570.745	3.632	570.744	0	PA_with_intermediate	test	ward_and_allport	-1	41.0	n/a	feedback	poldrack-single-stim	s533	False
