onset	duration	movement_onset	EV	action	block_duration	experiment_exp_id	gain_amount	gain_probability	key_press	loss_amount	loss_probability	num_cards	num_click_in_round	num_loss_cards	risk	response_time	total_cards	trial_id	trial_type	worker_id	junk	feedback
3.008	2.407	5.415	-0.5580691504346567	draw_card	2.407	columbia_card_task_fmri	12.0	0.8333333333333334	89.0	-70.0	0.1666666666666666	6.0	1.0	1.0	-1.2347442302199632	2.407	1.0	stim	poldrack-single-stim	s533	False	0
6.169	1.5	5.418	n/a	-1.0	2.318	columbia_card_task_fmri	n/a	n/a	-1.0	n/a	n/a	n/a	n/a	n/a	n/a	n/a	n/a	ITI	poldrack-single-stim	s533	False	0
7.739	1.168	8.907	0.2752641828986772	draw_card	1.168	columbia_card_task_fmri	14.0	0.8333333333333334	89.0	-75.0	0.1666666666666666	6.0	1.0	1.0	1.372421650557115	1.168	n/a	stim	poldrack-single-stim	s533	False	1
8.907	1.4	10.307	-2.6914024837679893	draw_card	1.4	columbia_card_task_fmri	14.0	0.8	89.0	-75.0	0.2	6.0	2.0	1.0	3.802815518226673	1.4	n/a	stim	poldrack-single-stim	s533	False	1
10.309	1.173	11.482	-7.14140248376799	end_round	1.173	columbia_card_task_fmri	14.0	0.75	71.0	-75.0	0.25	6.0	3.0	1.0	6.7396308951256	1.173	2.0	stim	poldrack-single-stim	s533	False	1
12.234	1.5	11.483	n/a	-1.0	2.318	columbia_card_task_fmri	n/a	n/a	-1.0	n/a	n/a	n/a	n/a	n/a	n/a	n/a	n/a	ITI	poldrack-single-stim	s533	False	0
13.802	1.785	15.587	1.9419308495653436	draw_card	1.785	columbia_card_task_fmri	15.0	0.8333333333333334	89.0	-70.0	0.1666666666666666	6.0	1.0	1.0	-0.1174192624362753	1.785	n/a	stim	poldrack-single-stim	s533	False	1
15.588	1.062	16.65	-0.8914024837679906	draw_card	1.062	columbia_card_task_fmri	15.0	0.8	89.0	-70.0	0.2	6.0	2.0	1.0	2.2036271855692178	1.062	n/a	stim	poldrack-single-stim	s533	False	1
16.652	1.017	17.669	-5.14140248376799	end_round	1.017	columbia_card_task_fmri	15.0	0.75	71.0	-70.0	0.25	6.0	3.0	1.0	5.008329957465108	1.017	2.0	stim	poldrack-single-stim	s533	False	1
18.42	1.5	17.669	n/a	-1.0	2.862	columbia_card_task_fmri	n/a	n/a	-1.0	n/a	n/a	n/a	n/a	n/a	n/a	n/a	n/a	ITI	poldrack-single-stim	s533	False	0
20.533	0.861	21.394	2.775264182898677	draw_card	0.861	columbia_card_task_fmri	17.0	0.8333333333333334	89.0	-75.0	0.1666666666666666	6.0	1.0	1.0	2.4898520027728352	0.861	n/a	stim	poldrack-single-stim	s533	False	1
21.395	0.808	22.203	-0.2914024837679891	draw_card	0.808	columbia_card_task_fmri	17.0	0.8	89.0	-75.0	0.2	6.0	2.0	1.0	5.002253052976414	0.808	2.0	stim	poldrack-single-stim	s533	False	0
22.956	1.5	22.205	n/a	-1.0	2.726	columbia_card_task_fmri	n/a	n/a	-1.0	n/a	n/a	n/a	n/a	n/a	n/a	n/a	n/a	ITI	poldrack-single-stim	s533	False	0
24.933	1.009	25.942	4.10859751623201	draw_card	1.009	columbia_card_task_fmri	24.0	0.75	89.0	-60.0	0.25	8.0	1.0	2.0	4.575515874236373	1.009	n/a	stim	poldrack-single-stim	s533	False	1
25.945	0.728	26.673	1.1085975162320094	draw_card	0.728	columbia_card_task_fmri	24.0	0.7142857142857143	89.0	-60.0	0.2857142857142857	8.0	2.0	2.0	6.149080440127506	0.728	n/a	stim	poldrack-single-stim	s533	False	1
26.675	0.99	27.665	-2.8914024837679904	draw_card	0.99	columbia_card_task_fmri	24.0	0.6666666666666667	89.0	-60.0	0.3333333333333333	8.0	3.0	2.0	7.79905365654681	0.99	n/a	stim	poldrack-single-stim	s533	False	1
27.666	1.308	28.974	-8.491402483767992	end_round	1.308	columbia_card_task_fmri	24.0	0.6	71.0	-60.0	0.4	8.0	4.0	2.0	9.351916110460266	1.308	3.0	stim	poldrack-single-stim	s533	False	1
29.726	1.5	28.975	n/a	-1.0	2.25	columbia_card_task_fmri	n/a	n/a	-1.0	n/a	n/a	n/a	n/a	n/a	n/a	n/a	n/a	ITI	poldrack-single-stim	s533	False	0
31.228	1.384	32.612	4.10859751623201	draw_card	1.384	columbia_card_task_fmri	29.0	0.75	89.0	-75.0	0.25	8.0	1.0	2.0	13.2325228805025	1.384	n/a	stim	poldrack-single-stim	s533	False	1
32.614	0.669	33.283	0.3943118019462976	draw_card	0.669	columbia_card_task_fmri	29.0	0.7142857142857143	89.0	-75.0	0.2857142857142857	8.0	2.0	2.0	15.181046998033942	0.669	n/a	stim	poldrack-single-stim	s533	False	1
33.284	3.095	36.379	-4.558069150434655	draw_card	3.095	columbia_card_task_fmri	29.0	0.6666666666666667	89.0	-75.0	0.3333333333333333	8.0	3.0	2.0	17.224161217328607	3.095	3.0	stim	poldrack-single-stim	s533	False	0
37.131	1.5	36.38	n/a	-1.0	2.318	columbia_card_task_fmri	n/a	n/a	-1.0	n/a	n/a	n/a	n/a	n/a	n/a	n/a	n/a	ITI	poldrack-single-stim	s533	False	0
38.7	0.753	39.453	-0.1136247059902102	draw_card	0.753	columbia_card_task_fmri	17.0	0.7777777777777778	89.0	-65.0	0.2222222222222222	9.0	1.0	2.0	2.294235352456454	0.753	n/a	stim	poldrack-single-stim	s533	False	1
39.455	0.667	40.122	-2.3914024837679904	draw_card	0.667	columbia_card_task_fmri	17.0	0.75	89.0	-65.0	0.25	9.0	2.0	2.0	3.7099022304450457	0.667	2.0	stim	poldrack-single-stim	s533	False	0
40.875	1.5	40.124	n/a	-1.0	2.454	columbia_card_task_fmri	n/a	n/a	-1.0	n/a	n/a	n/a	n/a	n/a	n/a	n/a	n/a	ITI	poldrack-single-stim	s533	False	0
42.581	0.708	43.289	4.208597516232009	draw_card	0.708	columbia_card_task_fmri	14.0	0.9	89.0	-95.0	0.1	10.0	1.0	1.0	0.9043451028981976	0.708	n/a	stim	poldrack-single-stim	s533	False	1
43.29	0.74	44.03	2.997486405120897	draw_card	0.74	columbia_card_task_fmri	14.0	0.8888888888888888	89.0	-95.0	0.1111111111111111	10.0	2.0	1.0	2.458887721515552	0.74	n/a	stim	poldrack-single-stim	s533	False	1
44.031	4.814	48.845	1.4835975162320094	end_round	4.814	columbia_card_task_fmri	14.0	0.875	71.0	-95.0	0.125	10.0	3.0	1.0	4.25096259611793	4.814	2.0	stim	poldrack-single-stim	s533	False	1
49.599	1.5	48.848	n/a	-1.0	2.522	columbia_card_task_fmri	n/a	n/a	-1.0	n/a	n/a	n/a	n/a	n/a	n/a	n/a	n/a	ITI	poldrack-single-stim	s533	False	0
51.372	0.796	52.168	0.1085975162320094	draw_card	0.796	columbia_card_task_fmri	15.0	0.8	89.0	-65.0	0.2	10.0	1.0	2.0	0.2047558133032083	0.796	n/a	stim	poldrack-single-stim	s533	False	1
52.169	0.757	52.926	-1.6691802615457674	draw_card	0.757	columbia_card_task_fmri	15.0	0.7777777777777778	89.0	-65.0	0.2222222222222222	10.0	2.0	2.0	1.4632061995318253	0.757	n/a	stim	poldrack-single-stim	s533	False	1
52.928	1.341	54.269	-3.8914024837679904	end_round	1.341	columbia_card_task_fmri	15.0	0.75	71.0	-65.0	0.25	10.0	3.0	2.0	2.844309159233028	1.341	2.0	stim	poldrack-single-stim	s533	False	1
55.023	1.5	54.272	n/a	-1.0	2.318	columbia_card_task_fmri	n/a	n/a	-1.0	n/a	n/a	n/a	n/a	n/a	n/a	n/a	n/a	ITI	poldrack-single-stim	s533	False	0
56.593	3.721	60.314	1.7085975162320108	draw_card	3.721	columbia_card_task_fmri	17.0	0.8	89.0	-65.0	0.2	10.0	1.0	2.0	1.0042878597936775	3.721	n/a	stim	poldrack-single-stim	s533	False	1
60.317	1.818	62.135	-0.1136247059902102	draw_card	1.818	columbia_card_task_fmri	17.0	0.7777777777777778	89.0	-65.0	0.2222222222222222	10.0	2.0	2.0	2.294235352456454	1.818	n/a	stim	poldrack-single-stim	s533	False	1
62.137	1.184	63.321	-2.3914024837679904	draw_card	1.184	columbia_card_task_fmri	17.0	0.75	89.0	-65.0	0.25	10.0	3.0	2.0	3.7099022304450457	1.184	n/a	stim	poldrack-single-stim	s533	False	1
63.323	1.274	64.597	-5.319973912339417	end_round	1.274	columbia_card_task_fmri	17.0	0.7142857142857143	71.0	-65.0	0.2857142857142857	10.0	4.0	2.0	5.245967238008653	1.274	3.0	stim	poldrack-single-stim	s533	False	1
65.35	1.5	64.599	n/a	-1.0	2.522	columbia_card_task_fmri	n/a	n/a	-1.0	n/a	n/a	n/a	n/a	n/a	n/a	n/a	n/a	ITI	poldrack-single-stim	s533	False	0
67.124	0.964	68.088	0.2752641828986772	draw_card	0.964	columbia_card_task_fmri	13.0	0.8333333333333334	89.0	-70.0	0.1666666666666666	12.0	1.0	2.0	-0.86230826378047	0.964	n/a	stim	poldrack-single-stim	s533	False	1
68.09	0.864	68.954	-0.982311574677084	draw_card	0.864	columbia_card_task_fmri	13.0	0.8181818181818181	89.0	-70.0	0.1818181818181818	12.0	2.0	2.0	0.2174006878422076	0.864	n/a	stim	poldrack-single-stim	s533	False	1
68.955	0.919	69.874	-2.49140248376799	draw_card	0.919	columbia_card_task_fmri	13.0	0.8	89.0	-70.0	0.2	12.0	3.0	2.0	1.4040623328482835	0.919	n/a	stim	poldrack-single-stim	s533	False	1
69.876	1.865	71.741	-4.335846928212435	draw_card	1.865	columbia_card_task_fmri	13.0	0.7777777777777778	89.0	-70.0	0.2222222222222222	12.0	4.0	2.0	2.7097580598651163	1.865	n/a	stim	poldrack-single-stim	s533	False	1
71.742	1.815	73.557	-6.64140248376799	end_round	1.815	columbia_card_task_fmri	13.0	0.75	71.0	-70.0	0.25	12.0	5.0	2.0	4.142706573627507	1.815	4.0	stim	poldrack-single-stim	s533	False	1
74.31	1.5	73.559	n/a	-1.0	2.998	columbia_card_task_fmri	n/a	n/a	-1.0	n/a	n/a	n/a	n/a	n/a	n/a	n/a	n/a	ITI	poldrack-single-stim	s533	False	0
76.56	0.842	77.402	0.2752641828986772	draw_card	0.842	columbia_card_task_fmri	15.0	0.8333333333333334	89.0	-80.0	0.1666666666666666	12.0	1.0	2.0	3.607320450458772	0.842	n/a	stim	poldrack-single-stim	s533	False	1
77.404	0.869	78.273	-1.1641297564952655	draw_card	0.869	columbia_card_task_fmri	15.0	0.8181818181818181	89.0	-80.0	0.1818181818181818	12.0	2.0	2.0	4.843313221720955	0.869	n/a	stim	poldrack-single-stim	s533	False	1
78.274	0.782	79.056	-2.8914024837679904	draw_card	0.782	columbia_card_task_fmri	15.0	0.8	89.0	-80.0	0.2	12.0	3.0	2.0	6.201726088434242	0.782	3.0	stim	poldrack-single-stim	s533	False	0
79.809	1.5	79.058	n/a	-1.0	2.318	columbia_card_task_fmri	n/a	n/a	-1.0	n/a	n/a	n/a	n/a	n/a	n/a	n/a	n/a	ITI	poldrack-single-stim	s533	False	0
81.378	1.101	82.479	-0.6914024837679895	draw_card	1.101	columbia_card_task_fmri	14.0	0.8	89.0	-65.0	0.2	15.0	1.0	3.0	-0.1950013328073545	1.101	n/a	stim	poldrack-single-stim	s533	False	1
82.481	0.789	83.27	-1.8199739123394176	draw_card	0.789	columbia_card_task_fmri	14.0	0.7857142857142857	89.0	-65.0	0.2142857142857142	15.0	2.0	3.0	0.6202561082513967	0.789	n/a	stim	poldrack-single-stim	s533	False	1
83.271	0.7	83.971	-3.122171714537222	draw_card	0.7	columbia_card_task_fmri	14.0	0.7692307692307692	89.0	-65.0	0.2307692307692307	15.0	3.0	3.0	1.4886937788242136	0.7	n/a	stim	poldrack-single-stim	s533	False	1
83.973	1.748	85.721	-4.64140248376799	draw_card	1.748	columbia_card_task_fmri	14.0	0.75	89.0	-65.0	0.25	15.0	4.0	3.0	2.4115208261191228	1.748	n/a	stim	poldrack-single-stim	s533	False	1
85.724	1.268	86.992	-6.436857029222535	draw_card	1.268	columbia_card_task_fmri	14.0	0.7272727272727273	89.0	-65.0	0.2727272727272727	15.0	5.0	3.0	3.386599605588465	1.268	n/a	stim	poldrack-single-stim	s533	False	1
86.994	1.962	88.956	-8.591402483767991	end_round	1.962	columbia_card_task_fmri	14.0	0.7	71.0	-65.0	0.3	15.0	6.0	3.0	4.404876517535683	1.962	5.0	stim	poldrack-single-stim	s533	False	1
89.709	1.5	88.958	n/a	-1.0	2.25	columbia_card_task_fmri	n/a	n/a	-1.0	n/a	n/a	n/a	n/a	n/a	n/a	n/a	n/a	ITI	poldrack-single-stim	s533	False	0
91.211	1.267	92.478	-0.7664024837679906	draw_card	1.267	columbia_card_task_fmri	1.0	0.9375	89.0	-45.0	0.0625	16.0	1.0	1.0	-20.62456365008343	1.267	n/a	stim	poldrack-single-stim	s533	False	1
92.481	1.038	93.519	-0.958069150434657	draw_card	1.038	columbia_card_task_fmri	1.0	0.9333333333333332	89.0	-45.0	0.0666666666666666	16.0	2.0	1.0	-20.286596358598054	1.038	n/a	stim	poldrack-single-stim	s533	False	1
93.521	1.052	94.573	-1.1771167694822762	draw_card	1.052	columbia_card_task_fmri	1.0	0.9285714285714286	89.0	-45.0	0.0714285714285714	16.0	3.0	1.0	-19.91587308814374	1.052	n/a	stim	poldrack-single-stim	s533	False	1
94.575	0.847	95.422	-1.429864022229529	draw_card	0.847	columbia_card_task_fmri	1.0	0.9230769230769232	89.0	-45.0	0.0769230769230769	16.0	4.0	1.0	-19.50682140958033	0.847	n/a	stim	poldrack-single-stim	s533	False	1
95.423	3.732	99.155	-1.724735817101324	draw_card	3.732	columbia_card_task_fmri	1.0	0.9166666666666666	89.0	-45.0	0.0833333333333333	16.0	5.0	1.0	-19.05247140975256	3.732	n/a	stim	poldrack-single-stim	s533	False	1
99.157	2.221	101.378	-2.073220665586172	draw_card	2.221	columbia_card_task_fmri	1.0	0.9090909090909092	89.0	-45.0	0.0909090909090909	16.0	6.0	1.0	-18.54398465471672	2.221	n/a	stim	poldrack-single-stim	s533	False	1
101.381	1.625	103.006	-2.491402483767991	end_round	1.625	columbia_card_task_fmri	1.0	0.9	71.0	-45.0	0.1	16.0	7.0	1.0	-17.969984415285076	1.625	6.0	stim	poldrack-single-stim	s533	False	1
103.758	1.5	103.007	n/a	-1.0	2.454	columbia_card_task_fmri	n/a	n/a	-1.0	n/a	n/a	n/a	n/a	n/a	n/a	n/a	n/a	ITI	poldrack-single-stim	s533	False	0
105.464	0.88	106.344	0.1710975162320094	draw_card	0.88	columbia_card_task_fmri	15.0	0.8125	89.0	-70.0	0.1875	16.0	1.0	3.0	1.380627269879085	0.88	1.0	stim	poldrack-single-stim	s533	False	0
107.097	1.5	106.346	n/a	-1.0	2.318	columbia_card_task_fmri	n/a	n/a	-1.0	n/a	n/a	n/a	n/a	n/a	n/a	n/a	n/a	ITI	poldrack-single-stim	s533	False	0
108.667	1.52	110.187	7.10859751623201	draw_card	1.52	columbia_card_task_fmri	30.0	0.7	89.0	-50.0	0.3	10.0	1.0	3.0	4.8629220608090336	1.52	n/a	stim	poldrack-single-stim	s533	False	1
110.19	1.599	111.789	4.441930849565349	draw_card	1.599	columbia_card_task_fmri	30.0	0.6666666666666667	89.0	-50.0	0.3333333333333333	10.0	2.0	3.0	5.9142110105401855	1.599	n/a	stim	poldrack-single-stim	s533	False	1
111.79	0.87	112.66	1.1085975162320094	draw_card	0.87	columbia_card_task_fmri	30.0	0.625	89.0	-50.0	0.375	10.0	3.0	3.0	6.931255013255154	0.87	n/a	stim	poldrack-single-stim	s533	False	1
112.663	0.911	113.574	-3.177116769482275	end_round	0.911	columbia_card_task_fmri	30.0	0.5714285714285714	71.0	-50.0	0.4285714285714285	10.0	4.0	3.0	7.790809885279366	0.911	3.0	stim	poldrack-single-stim	s533	False	1
114.327	1.5	113.576	n/a	-1.0	2.318	columbia_card_task_fmri	n/a	n/a	-1.0	n/a	n/a	n/a	n/a	n/a	n/a	n/a	n/a	ITI	poldrack-single-stim	s533	False	0
115.898	1.038	116.936	6.50859751623201	draw_card	1.038	columbia_card_task_fmri	17.0	0.8666666666666667	89.0	-70.0	0.1333333333333333	15.0	1.0	2.0	-2.2193575168054416	1.038	n/a	stim	poldrack-single-stim	s533	False	1
116.938	1.217	118.155	5.680026087660583	draw_card	1.217	columbia_card_task_fmri	17.0	0.8571428571428572	89.0	-70.0	0.1428571428571428	15.0	2.0	2.0	-1.3506051899802358	1.217	n/a	stim	poldrack-single-stim	s533	False	1
118.157	0.885	119.042	4.723982131616625	draw_card	0.885	columbia_card_task_fmri	17.0	0.8461538461538461	89.0	-70.0	0.1538461538461538	15.0	3.0	2.0	-0.4051657060448974	0.885	n/a	stim	poldrack-single-stim	s533	False	1
119.044	1.288	120.332	3.6085975162320114	draw_card	1.288	columbia_card_task_fmri	17.0	0.8333333333333334	89.0	-70.0	0.1666666666666666	15.0	4.0	2.0	0.6274911905110514	1.288	n/a	stim	poldrack-single-stim	s533	False	1
120.335	1.525	121.86	2.290415698050189	end_round	1.525	columbia_card_task_fmri	17.0	0.8181818181818181	71.0	-70.0	0.1818181818181818	15.0	5.0	2.0	1.7592973315923572	1.525	4.0	stim	poldrack-single-stim	s533	False	1
122.614	1.5	121.863	n/a	-1.0	2.59	columbia_card_task_fmri	n/a	n/a	-1.0	n/a	n/a	n/a	n/a	n/a	n/a	n/a	n/a	ITI	poldrack-single-stim	s533	False	0
124.456	0.985	125.441	1.7335975162320094	draw_card	0.985	columbia_card_task_fmri	7.0	0.9375	89.0	-95.0	0.0625	16.0	1.0	1.0	-7.09929695798947	0.985	n/a	stim	poldrack-single-stim	s533	False	1
125.443	1.202	126.645	1.3085975162320096	draw_card	1.202	columbia_card_task_fmri	7.0	0.9333333333333332	89.0	-95.0	0.0666666666666666	16.0	2.0	1.0	-6.347031052064697	1.202	n/a	stim	poldrack-single-stim	s533	False	1
126.648	1.181	127.829	0.8228832305177238	draw_card	1.181	columbia_card_task_fmri	7.0	0.9285714285714286	89.0	-95.0	0.0714285714285714	16.0	3.0	1.0	-5.5220429859235765	1.181	n/a	stim	poldrack-single-stim	s533	False	1
127.831	1.345	129.176	0.2624436700781627	draw_card	1.345	columbia_card_task_fmri	7.0	0.9230769230769232	89.0	-95.0	0.0769230769230769	16.0	4.0	1.0	-4.6119681290982975	1.345	n/a	stim	poldrack-single-stim	s533	False	1
129.178	1.718	130.896	-0.3914024837679906	draw_card	1.718	columbia_card_task_fmri	7.0	0.9166666666666666	89.0	-95.0	0.0833333333333333	16.0	5.0	1.0	-3.6013417833575083	1.718	n/a	stim	poldrack-single-stim	s533	False	1
130.898	1.37	132.268	-1.164129756495264	end_round	1.37	columbia_card_task_fmri	7.0	0.9090909090909092	71.0	-95.0	0.0909090909090909	16.0	6.0	1.0	-2.4705544593859337	1.37	5.0	stim	poldrack-single-stim	s533	False	1
133.023	1.5	132.272	n/a	-1.0	2.25	columbia_card_task_fmri	n/a	n/a	-1.0	n/a	n/a	n/a	n/a	n/a	n/a	n/a	n/a	ITI	poldrack-single-stim	s533	False	0
134.525	1.405	135.93	3.2960975162320096	draw_card	1.405	columbia_card_task_fmri	9.0	0.9375	89.0	-100.0	0.0625	16.0	1.0	1.0	-5.406462802027331	1.405	n/a	stim	poldrack-single-stim	s533	False	1
135.933	1.291	137.224	2.841930849565343	draw_card	1.291	columbia_card_task_fmri	9.0	0.9333333333333332	89.0	-100.0	0.0666666666666666	16.0	2.0	1.0	-4.602473221518682	1.291	n/a	stim	poldrack-single-stim	s533	False	1
137.226	0.939	138.165	2.322883230517725	draw_card	0.939	columbia_card_task_fmri	9.0	0.9285714285714286	89.0	-100.0	0.0714285714285714	16.0	3.0	1.0	-3.720767731783937	0.939	n/a	stim	poldrack-single-stim	s533	False	1
138.167	0.783	138.95	1.7239821316166253	draw_card	0.783	columbia_card_task_fmri	9.0	0.9230769230769232	89.0	-100.0	0.0769230769230769	16.0	4.0	1.0	-2.748132865893417	0.783	n/a	stim	poldrack-single-stim	s533	False	1
138.953	1.299	140.252	1.0252641828986773	draw_card	1.299	columbia_card_task_fmri	9.0	0.9166666666666666	89.0	-100.0	0.0833333333333333	16.0	5.0	1.0	-1.668042295429931	1.299	n/a	stim	poldrack-single-stim	s533	False	1
140.255	2.218	142.473	0.1995066071410993	draw_card	2.218	columbia_card_task_fmri	9.0	0.9090909090909092	89.0	-100.0	0.0909090909090909	16.0	6.0	1.0	-0.4595404019939018	2.218	6.0	stim	poldrack-single-stim	s533	False	0
143.227	1.5	142.476	n/a	-1.0	2.25	columbia_card_task_fmri	n/a	n/a	-1.0	n/a	n/a	n/a	n/a	n/a	n/a	n/a	n/a	ITI	poldrack-single-stim	s533	False	0
144.729	0.626	145.355	4.23359751623201	draw_card	0.626	columbia_card_task_fmri	15.0	0.875	89.0	-80.0	0.125	16.0	1.0	2.0	-0.3765921549742188	0.626	n/a	stim	poldrack-single-stim	s533	False	1
145.358	0.622	145.98	3.441930849565344	draw_card	0.622	columbia_card_task_fmri	15.0	0.8666666666666667	89.0	-80.0	0.1333333333333333	16.0	2.0	2.0	0.4983715244293663	0.622	n/a	stim	poldrack-single-stim	s533	False	1
145.982	0.935	146.917	2.53716894480344	draw_card	0.935	columbia_card_task_fmri	15.0	0.8571428571428572	89.0	-80.0	0.1428571428571428	16.0	3.0	2.0	1.4471134504261869	0.935	3.0	stim	poldrack-single-stim	s533	False	0
147.67	1.5	146.919	n/a	-1.0	2.522	columbia_card_task_fmri	n/a	n/a	-1.0	n/a	n/a	n/a	n/a	n/a	n/a	n/a	n/a	ITI	poldrack-single-stim	s533	False	0
149.445	0.554	149.999	6.35859751623201	draw_card	0.554	columbia_card_task_fmri	16.0	0.875	89.0	-70.0	0.125	16.0	1.0	2.0	-3.351017677753781	0.554	1.0	stim	poldrack-single-stim	s533	False	0
150.752	1.5	150.001	n/a	-1.0	2.454	columbia_card_task_fmri	n/a	n/a	-1.0	n/a	n/a	n/a	n/a	n/a	n/a	n/a	n/a	ITI	poldrack-single-stim	s533	False	0
152.459	0.448	152.907	7.67109751623201	draw_card	0.448	columbia_card_task_fmri	30.0	0.6875	89.0	-45.0	0.3125	16.0	1.0	5.0	2.9666609989141435	0.448	n/a	stim	poldrack-single-stim	s533	False	1
152.91	1.166	154.076	6.108597516232013	draw_card	1.166	columbia_card_task_fmri	30.0	0.6666666666666667	89.0	-45.0	0.3333333333333333	16.0	2.0	5.0	3.558273937753505	1.166	2.0	stim	poldrack-single-stim	s533	False	0
154.83	1.5	154.079	n/a	-1.0	2.25	columbia_card_task_fmri	n/a	n/a	-1.0	n/a	n/a	n/a	n/a	n/a	n/a	n/a	n/a	ITI	poldrack-single-stim	s533	False	0
156.332	0.756	157.088	-0.5580691504346567	draw_card	0.756	columbia_card_task_fmri	13.0	0.8333333333333334	89.0	-75.0	0.1666666666666666	6.0	1.0	1.0	0.9999540048060852	0.756	n/a	stim	poldrack-single-stim	s533	False	1
157.09	1.17	158.26	-3.49140248376799	draw_card	1.17	columbia_card_task_fmri	13.0	0.8	89.0	-75.0	0.2	6.0	2.0	1.0	3.4030115226255475	1.17	2.0	stim	poldrack-single-stim	s533	False	0
159.013	1.5	158.262	n/a	-1.0	2.454	columbia_card_task_fmri	n/a	n/a	-1.0	n/a	n/a	n/a	n/a	n/a	n/a	n/a	n/a	ITI	poldrack-single-stim	s533	False	0
160.72	0.56	161.28	1.1085975162320112	draw_card	0.56	columbia_card_task_fmri	14.0	0.8333333333333334	89.0	-70.0	0.1666666666666666	6.0	1.0	1.0	-0.4898665402059272	0.56	n/a	stim	poldrack-single-stim	s533	False	1
161.283	0.57	161.853	-1.6914024837679895	end_round	0.57	columbia_card_task_fmri	14.0	0.8	71.0	-70.0	0.2	6.0	2.0	1.0	1.8038421711592107	0.57	1.0	stim	poldrack-single-stim	s533	False	1
162.607	1.5	161.856	n/a	-1.0	2.454	columbia_card_task_fmri	n/a	n/a	-1.0	n/a	n/a	n/a	n/a	n/a	n/a	n/a	n/a	ITI	poldrack-single-stim	s533	False	0
164.313	0.637	164.95	1.1085975162320112	draw_card	0.637	columbia_card_task_fmri	16.0	0.8333333333333334	89.0	-80.0	0.1666666666666666	6.0	1.0	1.0	3.9798177820048224	0.637	n/a	stim	poldrack-single-stim	s533	False	1
164.952	0.886	165.838	-2.0914024837679897	draw_card	0.886	columbia_card_task_fmri	16.0	0.8	89.0	-80.0	0.2	6.0	2.0	1.0	6.601557747885053	0.886	n/a	stim	poldrack-single-stim	s533	False	1
165.841	1.77	167.611	-6.89140248376799	end_round	1.77	columbia_card_task_fmri	16.0	0.75	71.0	-80.0	0.25	6.0	3.0	1.0	9.76955781486162	1.77	2.0	stim	poldrack-single-stim	s533	False	1
168.365	1.5	167.614	n/a	-1.0	2.522	columbia_card_task_fmri	n/a	n/a	-1.0	n/a	n/a	n/a	n/a	n/a	n/a	n/a	n/a	ITI	poldrack-single-stim	s533	False	0
170.142	0.583	170.725	3.6085975162320114	draw_card	0.583	columbia_card_task_fmri	17.0	0.8333333333333334	89.0	-70.0	0.1666666666666666	6.0	1.0	1.0	0.6274911905110514	0.583	1.0	stim	poldrack-single-stim	s533	False	0
171.479	1.5	170.728	n/a	-1.0	2.454	columbia_card_task_fmri	n/a	n/a	-1.0	n/a	n/a	n/a	n/a	n/a	n/a	n/a	n/a	ITI	poldrack-single-stim	s533	False	0
173.185	0.623	173.808	3.6085975162320096	draw_card	0.623	columbia_card_task_fmri	25.0	0.75	89.0	-65.0	0.25	8.0	1.0	2.0	7.172466537937019	0.623	1.0	stim	poldrack-single-stim	s533	False	0
174.561	1.5	173.81	n/a	-1.0	2.658	columbia_card_task_fmri	n/a	n/a	-1.0	n/a	n/a	n/a	n/a	n/a	n/a	n/a	n/a	ITI	poldrack-single-stim	s533	False	0
176.472	0.489	176.961	3.6085975162320096	draw_card	0.489	columbia_card_task_fmri	30.0	0.75	89.0	-80.0	0.25	8.0	1.0	2.0	15.829855121507345	0.489	n/a	stim	poldrack-single-stim	s533	False	1
176.963	0.861	177.824	-0.3199739123394141	draw_card	0.861	columbia_card_task_fmri	30.0	0.7142857142857143	89.0	-80.0	0.2857142857142857	8.0	2.0	2.0	17.890857575489562	0.861	2.0	stim	poldrack-single-stim	s533	False	0
178.577	1.5	177.826	n/a	-1.0	2.386	columbia_card_task_fmri	n/a	n/a	-1.0	n/a	n/a	n/a	n/a	n/a	n/a	n/a	n/a	ITI	poldrack-single-stim	s533	False	0
180.216	1.136	181.352	3.3085975162320107	draw_card	1.136	columbia_card_task_fmri	13.0	0.9	89.0	-95.0	0.1	10.0	1.0	1.0	0.6045189504804114	1.136	n/a	stim	poldrack-single-stim	s533	False	1
181.356	1.887	183.243	2.1085975162320096	draw_card	1.887	columbia_card_task_fmri	13.0	0.8888888888888888	89.0	-95.0	0.1111111111111111	10.0	2.0	1.0	2.1447840076754403	1.887	2.0	stim	poldrack-single-stim	s533	False	0
183.996	1.5	183.245	n/a	-1.0	2.522	columbia_card_task_fmri	n/a	n/a	-1.0	n/a	n/a	n/a	n/a	n/a	n/a	n/a	n/a	ITI	poldrack-single-stim	s533	False	0
185.77	0.526	186.296	4.708597516232009	draw_card	0.526	columbia_card_task_fmri	14.0	0.9	89.0	-90.0	0.1	10.0	1.0	1.0	-0.5947522577107804	0.526	n/a	stim	poldrack-single-stim	s533	False	1
186.299	1.712	188.011	3.5530419606764525	draw_card	1.712	columbia_card_task_fmri	14.0	0.8888888888888888	89.0	-90.0	0.1111111111111111	10.0	2.0	1.0	0.8884010422345625	1.712	n/a	stim	poldrack-single-stim	s533	False	1
188.012	1.547	189.559	2.1085975162320096	end_round	1.547	columbia_card_task_fmri	14.0	0.875	71.0	-90.0	0.125	10.0	3.0	1.0	2.5981869552103376	1.547	2.0	stim	poldrack-single-stim	s533	False	1
190.314	1.5	189.563	n/a	-1.0	2.59	columbia_card_task_fmri	n/a	n/a	-1.0	n/a	n/a	n/a	n/a	n/a	n/a	n/a	n/a	ITI	poldrack-single-stim	s533	False	0
192.156	0.826	192.982	-0.0914024837679898	draw_card	0.826	columbia_card_task_fmri	16.0	0.8	89.0	-70.0	0.2	10.0	1.0	2.0	2.6034171957073937	0.826	1.0	stim	poldrack-single-stim	s533	False	0
193.736	1.5	192.985	n/a	-1.0	2.386	columbia_card_task_fmri	n/a	n/a	-1.0	n/a	n/a	n/a	n/a	n/a	n/a	n/a	n/a	ITI	poldrack-single-stim	s533	False	0
195.376	0.523	195.899	-0.8080691504346567	draw_card	0.523	columbia_card_task_fmri	7.0	0.9166666666666666	89.0	-100.0	0.0833333333333333	12.0	1.0	1.0	-2.220432226821842	0.523	n/a	stim	poldrack-single-stim	s533	False	1
195.902	0.847	196.749	-1.618675211040719	draw_card	0.847	columbia_card_task_fmri	7.0	0.9090909090909092	89.0	-100.0	0.0909090909090909	12.0	2.0	1.0	-1.034133779301179	0.847	n/a	stim	poldrack-single-stim	s533	False	1
196.752	1.311	198.063	-2.5914024837679905	draw_card	1.311	columbia_card_task_fmri	7.0	0.9	89.0	-100.0	0.1	12.0	3.0	1.0	0.3046960446732001	1.311	n/a	stim	poldrack-single-stim	s533	False	1
198.066	0.821	198.887	-3.78029137265688	end_round	0.821	columbia_card_task_fmri	7.0	0.8888888888888888	71.0	-100.0	0.1111111111111111	12.0	4.0	1.0	1.8306833935133968	0.821	3.0	stim	poldrack-single-stim	s533	False	1
199.641	1.5	198.89	n/a	-1.0	2.59	columbia_card_task_fmri	n/a	n/a	-1.0	n/a	n/a	n/a	n/a	n/a	n/a	n/a	n/a	ITI	poldrack-single-stim	s533	False	0
201.484	0.943	202.427	-0.5580691504346549	draw_card	0.943	columbia_card_task_fmri	14.0	0.8333333333333334	89.0	-80.0	0.1666666666666666	12.0	1.0	2.0	3.2348269599882613	0.943	n/a	stim	poldrack-single-stim	s533	False	1
202.43	0.641	203.071	-1.982311574677084	draw_card	0.641	columbia_card_task_fmri	14.0	0.8181818181818181	89.0	-80.0	0.1818181818181818	12.0	2.0	2.0	4.457796901573268	0.641	n/a	stim	poldrack-single-stim	s533	False	1
203.073	0.608	203.681	-3.691402483767989	draw_card	0.608	columbia_card_task_fmri	14.0	0.8	89.0	-80.0	0.2	12.0	3.0	2.0	5.801898008388264	0.608	n/a	stim	poldrack-single-stim	s533	False	1
203.684	2.121	205.805	-5.78029137265688	end_round	2.121	columbia_card_task_fmri	14.0	0.7777777777777778	71.0	-80.0	0.2222222222222222	12.0	4.0	2.0	7.280812367052654	2.121	3.0	stim	poldrack-single-stim	s533	False	1
206.559	1.5	205.808	n/a	-1.0	2.318	columbia_card_task_fmri	n/a	n/a	-1.0	n/a	n/a	n/a	n/a	n/a	n/a	n/a	n/a	ITI	poldrack-single-stim	s533	False	0
208.13	0.905	209.035	1.1085975162320094	draw_card	0.905	columbia_card_task_fmri	15.0	0.8333333333333334	89.0	-75.0	0.1666666666666666	12.0	1.0	2.0	1.7448939668943453	0.905	n/a	stim	poldrack-single-stim	s533	False	1
209.037	0.591	209.628	-0.2550388474043557	draw_card	0.591	columbia_card_task_fmri	15.0	0.8181818181818181	89.0	-75.0	0.1818181818181818	12.0	2.0	2.0	2.915771211168249	0.591	2.0	stim	poldrack-single-stim	s533	False	0
210.383	1.5	209.632	n/a	-1.0	2.25	columbia_card_task_fmri	n/a	n/a	-1.0	n/a	n/a	n/a	n/a	n/a	n/a	n/a	n/a	ITI	poldrack-single-stim	s533	False	0
211.885	0.474	212.359	0.1085975162320094	draw_card	0.474	columbia_card_task_fmri	15.0	0.8	89.0	-65.0	0.2	15.0	1.0	3.0	0.2047558133032083	0.474	1.0	stim	poldrack-single-stim	s533	False	0
213.113	1.5	212.362	n/a	-1.0	2.454	columbia_card_task_fmri	n/a	n/a	-1.0	n/a	n/a	n/a	n/a	n/a	n/a	n/a	n/a	ITI	poldrack-single-stim	s533	False	0
214.82	1.256	216.076	-0.6414024837679906	draw_card	1.256	columbia_card_task_fmri	14.0	0.8125	89.0	-70.0	0.1875	16.0	1.0	3.0	0.9905352076260812	1.256	1.0	stim	poldrack-single-stim	s533	False	0
216.83	1.5	216.079	n/a	-1.0	3.27	columbia_card_task_fmri	n/a	n/a	-1.0	n/a	n/a	n/a	n/a	n/a	n/a	n/a	n/a	ITI	poldrack-single-stim	s533	False	0
219.353	0.8	220.153	-0.7039024837679906	draw_card	0.8	columbia_card_task_fmri	11.0	0.6875	89.0	-30.0	0.3125	16.0	1.0	5.0	-12.778125232412144	0.8	1.0	stim	poldrack-single-stim	s533	False	0
220.907	1.5	220.156	n/a	-1.0	2.25	columbia_card_task_fmri	n/a	n/a	-1.0	n/a	n/a	n/a	n/a	n/a	n/a	n/a	n/a	ITI	poldrack-single-stim	s533	False	0
222.41	0.553	222.963	4.10859751623201	draw_card	0.553	columbia_card_task_fmri	15.0	0.8666666666666667	89.0	-75.0	0.1333333333333333	15.0	1.0	2.0	-1.2002455080868837	0.553	n/a	stim	poldrack-single-stim	s533	False	1
222.966	1.539	224.505	3.2514546590891538	draw_card	1.539	columbia_card_task_fmri	15.0	0.8571428571428572	89.0	-75.0	0.1428571428571428	15.0	2.0	2.0	-0.3014960465281007	1.539	n/a	stim	poldrack-single-stim	s533	False	1
224.508	0.916	225.424	2.262443670078163	draw_card	0.916	columbia_card_task_fmri	15.0	0.8461538461538461	89.0	-75.0	0.1538461538461538	15.0	3.0	2.0	0.6765859772991547	0.916	n/a	stim	poldrack-single-stim	s533	False	1
225.427	1.862	227.289	1.1085975162320094	draw_card	1.862	columbia_card_task_fmri	15.0	0.8333333333333334	89.0	-75.0	0.1666666666666666	15.0	4.0	2.0	1.7448939668943453	1.862	n/a	stim	poldrack-single-stim	s533	False	1
227.293	1.522	228.815	-0.2550388474043557	end_round	1.522	columbia_card_task_fmri	15.0	0.8181818181818181	71.0	-75.0	0.1818181818181818	15.0	5.0	2.0	2.915771211168249	1.522	4.0	stim	poldrack-single-stim	s533	False	1
229.568	1.5	228.817	n/a	-1.0	2.25	columbia_card_task_fmri	n/a	n/a	-1.0	n/a	n/a	n/a	n/a	n/a	n/a	n/a	n/a	ITI	poldrack-single-stim	s533	False	0
231.072	1.007	232.079	5.841930849565344	draw_card	1.007	columbia_card_task_fmri	17.0	0.8666666666666667	89.0	-75.0	0.1333333333333333	15.0	1.0	2.0	-0.5208124578751878	1.007	n/a	stim	poldrack-single-stim	s533	False	1
232.081	0.603	232.684	4.965740373374869	draw_card	0.603	columbia_card_task_fmri	17.0	0.8571428571428572	89.0	-75.0	0.1428571428571428	15.0	2.0	2.0	0.3979343810589952	0.603	n/a	stim	poldrack-single-stim	s533	False	1
232.688	0.751	233.439	3.954751362385856	draw_card	0.751	columbia_card_task_fmri	17.0	0.8461538461538461	89.0	-75.0	0.1538461538461538	15.0	3.0	2.0	1.3977773674358147	0.751	n/a	stim	poldrack-single-stim	s533	False	1
233.442	3.125	236.567	2.775264182898677	end_round	3.125	columbia_card_task_fmri	17.0	0.8333333333333334	71.0	-75.0	0.1666666666666666	15.0	4.0	2.0	2.4898520027728352	3.125	3.0	stim	poldrack-single-stim	s533	False	1
237.321	1.5	236.57	n/a	-1.0	2.318	columbia_card_task_fmri	n/a	n/a	-1.0	n/a	n/a	n/a	n/a	n/a	n/a	n/a	n/a	ITI	poldrack-single-stim	s533	False	0
238.891	0.541	239.432	1.4210975162320094	draw_card	0.541	columbia_card_task_fmri	2.0	0.9375	89.0	-25.0	0.0625	16.0	1.0	1.0	-25.185426951271324	0.541	n/a	stim	poldrack-single-stim	s533	False	1
239.436	0.444	239.88	1.3085975162320094	draw_card	0.444	columbia_card_task_fmri	2.0	0.9333333333333332	89.0	-25.0	0.0666666666666666	16.0	2.0	1.0	-24.98882869328389	0.444	n/a	stim	poldrack-single-stim	s533	False	1
239.883	0.569	240.452	1.180026087660581	draw_card	0.569	columbia_card_task_fmri	2.0	0.9285714285714286	89.0	-25.0	0.0714285714285714	16.0	3.0	1.0	-24.773061588480218	0.569	n/a	stim	poldrack-single-stim	s533	False	1
240.455	1.171	241.626	1.0316744393089323	draw_card	1.171	columbia_card_task_fmri	2.0	0.9230769230769232	89.0	-25.0	0.0769230769230769	16.0	4.0	1.0	-24.534860199402004	1.171	n/a	stim	poldrack-single-stim	s533	False	1
241.629	2.199	243.828	0.8585975162320096	draw_card	2.199	columbia_card_task_fmri	2.0	0.9166666666666666	89.0	-25.0	0.0833333333333333	16.0	5.0	1.0	-24.2701396522604	2.199	n/a	stim	poldrack-single-stim	s533	False	1
243.832	3.572	247.404	0.6540520616865546	end_round	3.572	columbia_card_task_fmri	2.0	0.9090909090909092	71.0	-25.0	0.0909090909090909	16.0	6.0	1.0	-23.973719318375565	3.572	5.0	stim	poldrack-single-stim	s533	False	1
248.159	1.5	247.408	n/a	-1.0	2.726	columbia_card_task_fmri	n/a	n/a	-1.0	n/a	n/a	n/a	n/a	n/a	n/a	n/a	n/a	ITI	poldrack-single-stim	s533	False	0
250.139	1.146	251.285	3.6085975162320096	draw_card	1.146	columbia_card_task_fmri	9.0	0.9375	89.0	-95.0	0.0625	16.0	1.0	1.0	-6.615651948607759	1.146	n/a	stim	poldrack-single-stim	s533	False	1
251.288	0.538	251.826	3.175264182898677	draw_card	0.538	columbia_card_task_fmri	9.0	0.9333333333333332	89.0	-95.0	0.0666666666666666	16.0	2.0	1.0	-5.848607205570016	0.538	n/a	stim	poldrack-single-stim	s533	False	1
251.83	0.716	252.546	2.6800260876605817	draw_card	0.716	columbia_card_task_fmri	9.0	0.9285714285714286	89.0	-95.0	0.0714285714285714	16.0	3.0	1.0	-5.007413496769075	0.716	n/a	stim	poldrack-single-stim	s533	False	1
252.549	1.142	253.691	2.1085975162320096	draw_card	1.142	columbia_card_task_fmri	9.0	0.9230769230769232	89.0	-95.0	0.0769230769230769	16.0	4.0	1.0	-4.079463665147952	1.142	n/a	stim	poldrack-single-stim	s533	False	1
253.694	1.131	254.825	1.4419308495653431	end_round	1.131	columbia_card_task_fmri	9.0	0.9166666666666666	71.0	-95.0	0.0833333333333333	16.0	5.0	1.0	-3.0489896873867792	1.131	4.0	stim	poldrack-single-stim	s533	False	1
255.579	1.5	254.828	n/a	-1.0	2.386	columbia_card_task_fmri	n/a	n/a	-1.0	n/a	n/a	n/a	n/a	n/a	n/a	n/a	n/a	ITI	poldrack-single-stim	s533	False	0
257.219	0.744	257.963	5.17109751623201	draw_card	0.744	columbia_card_task_fmri	11.0	0.9375	89.0	-100.0	0.0625	16.0	1.0	1.0	-4.922758974812499	0.744	n/a	stim	poldrack-single-stim	s533	False	1
257.967	0.581	258.548	4.70859751623201	draw_card	0.581	columbia_card_task_fmri	11.0	0.9333333333333332	89.0	-100.0	0.0666666666666666	16.0	2.0	1.0	-4.10399228867356	0.581	n/a	stim	poldrack-single-stim	s533	False	1
258.552	0.49	259.042	4.180026087660583	draw_card	0.49	columbia_card_task_fmri	11.0	0.9285714285714286	89.0	-100.0	0.0714285714285714	16.0	3.0	1.0	-3.2060829417900045	0.49	n/a	stim	poldrack-single-stim	s533	False	1
259.045	0.631	259.676	3.570135977770472	draw_card	0.631	columbia_card_task_fmri	11.0	0.9230769230769232	89.0	-100.0	0.0769230769230769	16.0	4.0	1.0	-2.2155749457087026	0.631	n/a	stim	poldrack-single-stim	s533	False	1
259.68	1.204	260.884	2.8585975162320096	draw_card	1.204	columbia_card_task_fmri	11.0	0.9166666666666666	89.0	-100.0	0.0833333333333333	16.0	5.0	1.0	-1.1156386527753952	1.204	n/a	stim	poldrack-single-stim	s533	False	1
260.888	1.893	262.781	2.017688425322918	draw_card	1.893	columbia_card_task_fmri	11.0	0.9090909090909092	89.0	-100.0	0.0909090909090909	16.0	6.0	1.0	0.1150661594577755	1.893	n/a	stim	poldrack-single-stim	s533	False	1
262.785	1.557	264.342	1.0085975162320098	end_round	1.557	columbia_card_task_fmri	11.0	0.9	71.0	-100.0	0.1	16.0	7.0	1.0	1.5040067969773006	1.557	6.0	stim	poldrack-single-stim	s533	False	1
265.096	1.5	264.345	n/a	-1.0	2.318	columbia_card_task_fmri	n/a	n/a	-1.0	n/a	n/a	n/a	n/a	n/a	n/a	n/a	n/a	ITI	poldrack-single-stim	s533	False	0
266.667	0.942	267.609	5.73359751623201	draw_card	0.942	columbia_card_task_fmri	16.0	0.875	89.0	-75.0	0.125	16.0	1.0	2.0	-1.6986089346424895	0.942	n/a	stim	poldrack-single-stim	s533	False	1
267.613	0.507	268.12	4.975264182898677	draw_card	0.507	columbia_card_task_fmri	16.0	0.8666666666666667	89.0	-75.0	0.1333333333333333	16.0	2.0	2.0	-0.8605313774785266	0.507	n/a	stim	poldrack-single-stim	s533	False	1
268.123	0.648	268.771	4.108597516232011	draw_card	0.648	columbia_card_task_fmri	16.0	0.8571428571428572	89.0	-75.0	0.1428571428571428	16.0	3.0	2.0	0.0482168408928842	0.648	n/a	stim	poldrack-single-stim	s533	False	1
268.773	0.566	269.339	3.1085975162320096	draw_card	0.566	columbia_card_task_fmri	16.0	0.8461538461538461	89.0	-75.0	0.1538461538461538	16.0	4.0	2.0	1.037179415865637	0.566	n/a	stim	poldrack-single-stim	s533	False	1
269.343	0.873	270.216	1.9419308495653436	draw_card	0.873	columbia_card_task_fmri	16.0	0.8333333333333334	89.0	-75.0	0.1666666666666666	16.0	5.0	2.0	2.117370800009532	0.873	5.0	stim	poldrack-single-stim	s533	False	0
270.97	1.5	270.219	n/a	-1.0	2.25	columbia_card_task_fmri	n/a	n/a	-1.0	n/a	n/a	n/a	n/a	n/a	n/a	n/a	n/a	ITI	poldrack-single-stim	s533	False	0
272.475	0.936	273.411	5.98359751623201	draw_card	0.936	columbia_card_task_fmri	17.0	0.875	89.0	-80.0	0.125	16.0	1.0	2.0	0.2844427735770125	0.936	n/a	stim	poldrack-single-stim	s533	False	1
273.414	0.484	273.898	5.175264182898678	draw_card	0.484	columbia_card_task_fmri	17.0	0.8666666666666667	89.0	-80.0	0.1333333333333333	16.0	2.0	2.0	1.1778487972452538	0.484	n/a	stim	poldrack-single-stim	s533	False	1
273.901	0.537	274.438	4.251454659089156	draw_card	0.537	columbia_card_task_fmri	17.0	0.8571428571428572	89.0	-80.0	0.1428571428571428	16.0	3.0	2.0	2.1465868422219714	0.537	n/a	stim	poldrack-single-stim	s533	False	1
274.44	0.871	275.311	3.1855205931550863	draw_card	0.871	columbia_card_task_fmri	17.0	0.8461538461538461	89.0	-80.0	0.1538461538461538	16.0	4.0	2.0	3.2008299402710136	0.871	n/a	stim	poldrack-single-stim	s533	False	1
275.315	0.881	276.196	1.941930849565345	end_round	0.881	columbia_card_task_fmri	17.0	0.8333333333333334	71.0	-80.0	0.1666666666666666	16.0	5.0	2.0	4.352318835943649	0.881	4.0	stim	poldrack-single-stim	s533	False	1
276.951	1.5	276.2	n/a	-1.0	2.25	columbia_card_task_fmri	n/a	n/a	-1.0	n/a	n/a	n/a	n/a	n/a	n/a	n/a	n/a	ITI	poldrack-single-stim	s533	False	0
289.458	1.497	290.955	0.2752641828986772	draw_card	1.497	columbia_card_task_fmri	13.0	0.8333333333333334	89.0	-70.0	0.1666666666666666	6.0	1.0	1.0	-0.86230826378047	1.497	n/a	stim	poldrack-single-stim	s533	False	1
290.959	1.322	292.281	-2.49140248376799	draw_card	1.322	columbia_card_task_fmri	13.0	0.8	89.0	-70.0	0.2	6.0	2.0	1.0	1.4040623328482835	1.322	n/a	stim	poldrack-single-stim	s533	False	1
292.283	1.03	293.313	-6.64140248376799	draw_card	1.03	columbia_card_task_fmri	13.0	0.75	89.0	-70.0	0.25	6.0	3.0	1.0	4.142706573627507	1.03	n/a	stim	poldrack-single-stim	s533	False	1
293.316	0.653	293.969	-13.558069150434656	end_round	0.653	columbia_card_task_fmri	13.0	0.6666666666666667	71.0	-70.0	0.3333333333333333	6.0	4.0	1.0	7.3278359923345775	0.653	3.0	stim	poldrack-single-stim	s533	False	1
294.725	1.5	293.974	n/a	-1.0	2.454	columbia_card_task_fmri	n/a	n/a	-1.0	n/a	n/a	n/a	n/a	n/a	n/a	n/a	n/a	ITI	poldrack-single-stim	s533	False	0
296.432	0.672	297.104	0.2752641828986772	draw_card	0.672	columbia_card_task_fmri	15.0	0.8333333333333334	89.0	-80.0	0.1666666666666666	6.0	1.0	1.0	3.607320450458772	0.672	n/a	stim	poldrack-single-stim	s533	False	1
297.107	0.682	297.789	-2.8914024837679904	draw_card	0.682	columbia_card_task_fmri	15.0	0.8	89.0	-80.0	0.2	6.0	2.0	1.0	6.201726088434242	0.682	2.0	stim	poldrack-single-stim	s533	False	0
298.545	1.5	297.794	n/a	-1.0	2.454	columbia_card_task_fmri	n/a	n/a	-1.0	n/a	n/a	n/a	n/a	n/a	n/a	n/a	n/a	ITI	poldrack-single-stim	s533	False	0
300.252	0.715	300.967	1.9419308495653436	draw_card	0.715	columbia_card_task_fmri	16.0	0.8333333333333334	89.0	-75.0	0.1666666666666666	6.0	1.0	1.0	2.117370800009532	0.715	1.0	stim	poldrack-single-stim	s533	False	0
301.722	1.5	300.971	n/a	-1.0	2.522	columbia_card_task_fmri	n/a	n/a	-1.0	n/a	n/a	n/a	n/a	n/a	n/a	n/a	n/a	ITI	poldrack-single-stim	s533	False	0
303.498	0.902	304.4	3.1085975162320096	end_round	0.902	columbia_card_task_fmri	21.0	0.75	71.0	-55.0	0.25	8.0	1.0	2.0	1.1131912241885615	0.902	0.0	stim	poldrack-single-stim	s533	False	1
305.155	1.5	304.404	n/a	-1.0	2.386	columbia_card_task_fmri	n/a	n/a	-1.0	n/a	n/a	n/a	n/a	n/a	n/a	n/a	n/a	ITI	poldrack-single-stim	s533	False	0
306.794	0.511	307.305	4.35859751623201	draw_card	0.511	columbia_card_task_fmri	26.0	0.75	89.0	-65.0	0.25	8.0	1.0	2.0	7.605306069822554	0.511	1.0	stim	poldrack-single-stim	s533	False	0
308.06	1.5	307.309	n/a	-1.0	2.454	columbia_card_task_fmri	n/a	n/a	-1.0	n/a	n/a	n/a	n/a	n/a	n/a	n/a	n/a	ITI	poldrack-single-stim	s533	False	0
309.768	2.059	311.827	-0.5580691504346567	draw_card	2.059	columbia_card_task_fmri	15.0	0.7777777777777778	89.0	-60.0	0.2222222222222222	9.0	1.0	2.0	-0.6142617152235239	2.059	n/a	stim	poldrack-single-stim	s533	False	1
311.83	0.968	312.798	-2.6414024837679904	draw_card	0.968	columbia_card_task_fmri	15.0	0.75	89.0	-60.0	0.25	9.0	2.0	2.0	0.6804272750712315	0.968	2.0	stim	poldrack-single-stim	s533	False	0
313.554	1.5	312.803	n/a	-1.0	2.522	columbia_card_task_fmri	n/a	n/a	-1.0	n/a	n/a	n/a	n/a	n/a	n/a	n/a	n/a	ITI	poldrack-single-stim	s533	False	0
315.329	0.53	315.859	3.8085975162320103	draw_card	0.53	columbia_card_task_fmri	13.0	0.9	89.0	-90.0	0.1	10.0	1.0	1.0	-0.8945612235672442	0.53	n/a	stim	poldrack-single-stim	s533	False	1
315.863	0.663	316.526	2.664153071787565	draw_card	0.663	columbia_card_task_fmri	13.0	0.8888888888888888	89.0	-90.0	0.1111111111111111	10.0	2.0	1.0	0.5743137372415319	0.663	n/a	stim	poldrack-single-stim	s533	False	1
316.529	1.355	317.884	1.2335975162320094	draw_card	1.355	columbia_card_task_fmri	13.0	0.875	89.0	-90.0	0.125	10.0	3.0	1.0	2.267641360534931	1.355	n/a	stim	poldrack-single-stim	s533	False	1
317.887	1.124	319.011	-0.6056881980537023	end_round	1.124	columbia_card_task_fmri	13.0	0.8571428571428572	71.0	-90.0	0.1428571428571428	10.0	4.0	1.0	4.245095686500115	1.124	3.0	stim	poldrack-single-stim	s533	False	1
319.766	1.5	319.015	n/a	-1.0	2.522	columbia_card_task_fmri	n/a	n/a	-1.0	n/a	n/a	n/a	n/a	n/a	n/a	n/a	n/a	ITI	poldrack-single-stim	s533	False	0
321.542	0.609	322.151	5.10859751623201	draw_card	0.609	columbia_card_task_fmri	15.0	0.9	89.0	-95.0	0.1	10.0	1.0	1.0	1.2041744134838623	0.609	n/a	stim	poldrack-single-stim	s533	False	1
322.154	0.487	322.641	3.8863752940097855	draw_card	0.487	columbia_card_task_fmri	15.0	0.8888888888888888	89.0	-95.0	0.1111111111111111	10.0	2.0	1.0	2.7729944505851165	0.487	n/a	stim	poldrack-single-stim	s533	False	1
322.645	0.928	323.573	2.3585975162320096	draw_card	0.928	columbia_card_task_fmri	15.0	0.875	89.0	-95.0	0.125	10.0	3.0	1.0	4.581526651709709	0.928	n/a	stim	poldrack-single-stim	s533	False	1
323.577	1.431	325.008	0.3943118019462959	draw_card	1.431	columbia_card_task_fmri	15.0	0.8571428571428572	89.0	-95.0	0.1428571428571428	10.0	4.0	1.0	6.693501204046001	1.431	n/a	stim	poldrack-single-stim	s533	False	1
325.011	0.975	325.986	-2.2247358171013225	end_round	0.975	columbia_card_task_fmri	15.0	0.8333333333333334	71.0	-95.0	0.1666666666666666	10.0	5.0	1.0	9.195125120826638	0.975	4.0	stim	poldrack-single-stim	s533	False	1
326.741	1.5	325.99	n/a	-1.0	2.59	columbia_card_task_fmri	n/a	n/a	-1.0	n/a	n/a	n/a	n/a	n/a	n/a	n/a	n/a	ITI	poldrack-single-stim	s533	False	0
328.584	0.515	329.099	0.90859751623201	draw_card	0.515	columbia_card_task_fmri	16.0	0.8	89.0	-65.0	0.2	10.0	1.0	2.0	0.6045189504804043	0.515	n/a	stim	poldrack-single-stim	s533	False	1
329.103	0.781	329.884	-0.8914024837679888	draw_card	0.781	columbia_card_task_fmri	16.0	0.7777777777777778	89.0	-65.0	0.2222222222222222	10.0	2.0	2.0	1.8787179988293372	0.781	n/a	stim	poldrack-single-stim	s533	False	1
329.887	0.784	330.671	-3.1414024837679904	draw_card	0.784	columbia_card_task_fmri	16.0	0.75	89.0	-65.0	0.25	10.0	3.0	2.0	3.277103028117409	0.784	3.0	stim	poldrack-single-stim	s533	False	0
331.427	1.5	330.676	n/a	-1.0	2.454	columbia_card_task_fmri	n/a	n/a	-1.0	n/a	n/a	n/a	n/a	n/a	n/a	n/a	n/a	ITI	poldrack-single-stim	s533	False	0
333.134	0.415	333.549	-0.3914024837679906	draw_card	0.415	columbia_card_task_fmri	7.0	0.9166666666666666	89.0	-95.0	0.0833333333333333	12.0	1.0	1.0	-3.6013417833575083	0.415	n/a	stim	poldrack-single-stim	s533	False	1
333.553	0.484	334.037	-1.164129756495264	draw_card	0.484	columbia_card_task_fmri	7.0	0.9090909090909092	89.0	-95.0	0.0909090909090909	12.0	2.0	1.0	-2.4705544593859337	0.484	n/a	stim	poldrack-single-stim	s533	False	1
334.041	2.438	336.479	-2.0914024837679905	draw_card	2.438	columbia_card_task_fmri	7.0	0.9	89.0	-95.0	0.1	12.0	3.0	1.0	-1.1943664473035618	2.438	n/a	stim	poldrack-single-stim	s533	False	1
336.484	1.258	337.742	-3.2247358171013243	draw_card	1.258	columbia_card_task_fmri	7.0	0.8888888888888888	89.0	-95.0	0.1111111111111111	12.0	4.0	1.0	0.2602300050660133	1.258	n/a	stim	poldrack-single-stim	s533	False	1
337.746	1.242	338.988	-4.64140248376799	end_round	1.242	columbia_card_task_fmri	7.0	0.875	71.0	-95.0	0.125	12.0	5.0	1.0	1.937099161551835	1.242	4.0	stim	poldrack-single-stim	s533	False	1
339.744	1.5	338.993	n/a	-1.0	2.318	columbia_card_task_fmri	n/a	n/a	-1.0	n/a	n/a	n/a	n/a	n/a	n/a	n/a	n/a	ITI	poldrack-single-stim	s533	False	0
341.316	2.51	343.826	0.2752641828986772	draw_card	2.51	columbia_card_task_fmri	14.0	0.8333333333333334	89.0	-75.0	0.1666666666666666	12.0	1.0	2.0	1.372421650557115	2.51	1.0	stim	poldrack-single-stim	s533	False	0
344.58	1.5	343.829	n/a	-1.0	2.25	columbia_card_task_fmri	n/a	n/a	-1.0	n/a	n/a	n/a	n/a	n/a	n/a	n/a	n/a	ITI	poldrack-single-stim	s533	False	0
346.084	0.713	346.797	1.9419308495653436	draw_card	0.713	columbia_card_task_fmri	15.0	0.8333333333333334	89.0	-70.0	0.1666666666666666	12.0	1.0	2.0	-0.1174192624362753	0.713	n/a	stim	poldrack-single-stim	s533	False	1
346.801	6.725	353.526	0.6540520616865526	draw_card	6.725	columbia_card_task_fmri	15.0	0.8181818181818181	89.0	-70.0	0.1818181818181818	12.0	2.0	2.0	0.9883386446323073	6.725	n/a	stim	poldrack-single-stim	s533	False	1
353.531	1.406	354.937	-0.8914024837679906	draw_card	1.406	columbia_card_task_fmri	15.0	0.8	89.0	-70.0	0.2	12.0	3.0	2.0	2.2036271855692178	1.406	n/a	stim	poldrack-single-stim	s533	False	1
354.94	1.629	356.569	-2.78029137265688	draw_card	1.629	columbia_card_task_fmri	15.0	0.7777777777777778	89.0	-70.0	0.2222222222222222	12.0	4.0	2.0	3.54081878096266	1.629	4.0	stim	poldrack-single-stim	s533	False	0
357.325	1.5	356.574	n/a	-1.0	2.658	columbia_card_task_fmri	n/a	n/a	-1.0	n/a	n/a	n/a	n/a	n/a	n/a	n/a	n/a	ITI	poldrack-single-stim	s533	False	0
359.237	4.821	364.058	-0.0914024837679898	draw_card	4.821	columbia_card_task_fmri	16.0	0.8	89.0	-70.0	0.2	15.0	1.0	3.0	2.6034171957073937	4.821	1.0	stim	poldrack-single-stim	s533	False	0
364.813	1.5	364.062	n/a	-1.0	2.454	columbia_card_task_fmri	n/a	n/a	-1.0	n/a	n/a	n/a	n/a	n/a	n/a	n/a	n/a	ITI	poldrack-single-stim	s533	False	0
366.523	0.769	367.292	0.2960975162320094	end_round	0.769	columbia_card_task_fmri	14.0	0.8125	71.0	-65.0	0.1875	16.0	1.0	3.0	-0.9598415181115704	0.769	0.0	stim	poldrack-single-stim	s533	False	1
368.047	1.5	367.296	n/a	-1.0	2.386	columbia_card_task_fmri	n/a	n/a	-1.0	n/a	n/a	n/a	n/a	n/a	n/a	n/a	n/a	ITI	poldrack-single-stim	s533	False	0
369.688	0.546	370.234	0.0460975162320094	draw_card	0.546	columbia_card_task_fmri	16.0	0.8125	89.0	-75.0	0.1875	16.0	1.0	3.0	3.721281248126303	0.546	n/a	stim	poldrack-single-stim	s533	False	1
370.239	0.672	370.911	-1.09140248376799	draw_card	0.672	columbia_card_task_fmri	16.0	0.8	89.0	-75.0	0.2	16.0	2.0	3.0	4.602436423643866	0.672	n/a	stim	poldrack-single-stim	s533	False	1
370.916	1.009	371.925	-2.3914024837679886	draw_card	1.009	columbia_card_task_fmri	16.0	0.7857142857142857	89.0	-75.0	0.2142857142857142	16.0	3.0	3.0	5.541669083734689	1.009	n/a	stim	poldrack-single-stim	s533	False	1
371.929	1.561	373.49	-3.891402483767994	draw_card	1.561	columbia_card_task_fmri	16.0	0.7692307692307692	89.0	-75.0	0.2307692307692307	16.0	4.0	3.0	6.542161558644466	1.561	n/a	stim	poldrack-single-stim	s533	False	1
373.495	0.956	374.451	-5.64140248376799	draw_card	0.956	columbia_card_task_fmri	16.0	0.75	89.0	-75.0	0.25	16.0	5.0	3.0	7.605306069822554	0.956	n/a	stim	poldrack-single-stim	s533	False	1
374.455	1.103	375.558	-7.709584301949807	end_round	1.103	columbia_card_task_fmri	16.0	0.7272727272727273	71.0	-75.0	0.2727272727272727	16.0	6.0	3.0	8.728639234548972	1.103	5.0	stim	poldrack-single-stim	s533	False	1
376.314	1.5	375.563	n/a	-1.0	2.59	columbia_card_task_fmri	n/a	n/a	-1.0	n/a	n/a	n/a	n/a	n/a	n/a	n/a	n/a	ITI	poldrack-single-stim	s533	False	0
378.158	0.625	378.783	4.308597516232011	draw_card	0.625	columbia_card_task_fmri	16.0	0.8666666666666667	89.0	-80.0	0.1333333333333333	15.0	1.0	2.0	0.838108120958573	0.625	n/a	stim	poldrack-single-stim	s533	False	1
378.788	0.446	379.234	3.394311801946298	draw_card	0.446	columbia_card_task_fmri	16.0	0.8571428571428572	89.0	-80.0	0.1428571428571428	15.0	2.0	2.0	1.7968481645029115	0.446	n/a	stim	poldrack-single-stim	s533	False	1
379.237	0.408	379.645	2.33936674700124	draw_card	0.408	columbia_card_task_fmri	16.0	0.8461538461538461	89.0	-80.0	0.1538461538461538	15.0	3.0	2.0	2.840211486131679	0.408	3.0	stim	poldrack-single-stim	s533	False	0
380.401	1.5	379.65	n/a	-1.0	2.318	columbia_card_task_fmri	n/a	n/a	-1.0	n/a	n/a	n/a	n/a	n/a	n/a	n/a	n/a	ITI	poldrack-single-stim	s533	False	0
381.973	0.543	382.516	5.175264182898678	draw_card	0.543	columbia_card_task_fmri	17.0	0.8666666666666667	89.0	-80.0	0.1333333333333333	15.0	1.0	2.0	1.1778487972452538	0.543	n/a	stim	poldrack-single-stim	s533	False	1
382.52	0.45	382.97	4.251454659089156	draw_card	0.45	columbia_card_task_fmri	17.0	0.8571428571428572	89.0	-80.0	0.1428571428571428	15.0	2.0	2.0	2.1465868422219714	0.45	n/a	stim	poldrack-single-stim	s533	False	1
382.975	0.575	383.55	3.1855205931550863	draw_card	0.575	columbia_card_task_fmri	17.0	0.8461538461538461	89.0	-80.0	0.1538461538461538	15.0	3.0	2.0	3.2008299402710136	0.575	n/a	stim	poldrack-single-stim	s533	False	1
383.555	0.752	384.307	1.941930849565345	draw_card	0.752	columbia_card_task_fmri	17.0	0.8333333333333334	89.0	-80.0	0.1666666666666666	15.0	4.0	2.0	4.352318835943649	0.752	n/a	stim	poldrack-single-stim	s533	False	1
384.312	1.982	386.294	0.4722338798683709	draw_card	1.982	columbia_card_task_fmri	17.0	0.8181818181818181	89.0	-80.0	0.1818181818181818	15.0	5.0	2.0	5.614356882741404	1.982	n/a	stim	poldrack-single-stim	s533	False	1
386.298	0.725	387.023	-1.2914024837679892	end_round	0.725	columbia_card_task_fmri	17.0	0.8	71.0	-80.0	0.2	15.0	6.0	2.0	7.001392876129188	0.725	5.0	stim	poldrack-single-stim	s533	False	1
387.778	1.5	387.027	n/a	-1.0	2.59	columbia_card_task_fmri	n/a	n/a	-1.0	n/a	n/a	n/a	n/a	n/a	n/a	n/a	n/a	ITI	poldrack-single-stim	s533	False	0
389.622	0.729	390.351	1.1085975162320094	draw_card	0.729	columbia_card_task_fmri	1.0	0.9375	89.0	-15.0	0.0625	16.0	1.0	1.0	-27.785919503468428	0.729	n/a	stim	poldrack-single-stim	s533	False	1
390.354	0.475	390.829	1.0419308495653428	draw_card	0.475	columbia_card_task_fmri	1.0	0.9333333333333332	89.0	-15.0	0.0666666666666666	16.0	2.0	1.0	-27.67223455269377	0.475	n/a	stim	poldrack-single-stim	s533	False	1
390.832	0.417	391.249	0.9657403733748666	draw_card	0.417	columbia_card_task_fmri	1.0	0.9285714285714286	89.0	-15.0	0.0714285714285714	16.0	3.0	1.0	-27.547290064451577	0.417	n/a	stim	poldrack-single-stim	s533	False	1
391.254	0.628	391.882	0.8778282854627786	draw_card	0.628	columbia_card_task_fmri	1.0	0.9230769230769232	89.0	-15.0	0.0769230769230769	16.0	4.0	1.0	-27.4091600827506	0.628	n/a	stim	poldrack-single-stim	s533	False	1
391.885	0.694	392.579	0.775264182898676	draw_card	0.694	columbia_card_task_fmri	1.0	0.9166666666666666	89.0	-15.0	0.0833333333333333	16.0	5.0	1.0	-27.255434462620396	0.694	n/a	stim	poldrack-single-stim	s533	False	1
392.583	1.376	393.959	0.6540520616865547	draw_card	1.376	columbia_card_task_fmri	1.0	0.9090909090909092	89.0	-15.0	0.0909090909090909	16.0	6.0	1.0	-27.083055397756105	1.376	n/a	stim	poldrack-single-stim	s533	False	1
393.964	0.8	394.764	0.5085975162320094	end_round	0.8	columbia_card_task_fmri	1.0	0.9	71.0	-15.0	0.1	16.0	7.0	1.0	-26.888084864041208	0.8	6.0	stim	poldrack-single-stim	s533	False	1
395.518	1.5	394.767	n/a	-1.0	2.386	columbia_card_task_fmri	n/a	n/a	-1.0	n/a	n/a	n/a	n/a	n/a	n/a	n/a	n/a	ITI	poldrack-single-stim	s533	False	0
397.159	0.936	398.095	4.23359751623201	draw_card	0.936	columbia_card_task_fmri	10.0	0.9375	89.0	-100.0	0.0625	16.0	1.0	1.0	-5.164612790906464	0.936	n/a	stim	poldrack-single-stim	s533	False	1
398.099	0.477	398.576	3.7752641828986766	draw_card	0.477	columbia_card_task_fmri	10.0	0.9333333333333332	89.0	-100.0	0.0666666666666666	16.0	2.0	1.0	-4.353234601557514	0.477	n/a	stim	poldrack-single-stim	s533	False	1
398.579	0.432	399.011	3.2514546590891538	draw_card	0.432	columbia_card_task_fmri	10.0	0.9285714285714286	89.0	-100.0	0.0714285714285714	16.0	3.0	1.0	-3.463427125476884	0.432	3.0	stim	poldrack-single-stim	s533	False	0
399.767	1.5	399.016	n/a	-1.0	2.318	columbia_card_task_fmri	n/a	n/a	-1.0	n/a	n/a	n/a	n/a	n/a	n/a	n/a	n/a	ITI	poldrack-single-stim	s533	False	0
401.339	0.834	402.173	4.85859751623201	draw_card	0.834	columbia_card_task_fmri	15.0	0.875	89.0	-75.0	0.125	16.0	1.0	2.0	-2.0291012128607875	0.834	n/a	stim	poldrack-single-stim	s533	False	1
402.178	0.475	402.653	4.10859751623201	draw_card	0.475	columbia_card_task_fmri	15.0	0.8666666666666667	89.0	-75.0	0.1333333333333333	16.0	2.0	2.0	-1.2002455080868837	0.475	n/a	stim	poldrack-single-stim	s533	False	1
402.657	0.466	403.123	3.2514546590891538	draw_card	0.466	columbia_card_task_fmri	15.0	0.8571428571428572	89.0	-75.0	0.1428571428571428	16.0	3.0	2.0	-0.3014960465281007	0.466	n/a	stim	poldrack-single-stim	s533	False	1
403.126	0.544	403.67	2.262443670078163	draw_card	0.544	columbia_card_task_fmri	15.0	0.8461538461538461	89.0	-75.0	0.1538461538461538	16.0	4.0	2.0	0.6765859772991547	0.544	n/a	stim	poldrack-single-stim	s533	False	1
403.674	0.486	404.16	1.1085975162320094	draw_card	0.486	columbia_card_task_fmri	15.0	0.8333333333333334	89.0	-75.0	0.1666666666666666	16.0	5.0	2.0	1.7448939668943453	0.486	n/a	stim	poldrack-single-stim	s533	False	1
404.165	0.575	404.74	-0.2550388474043557	draw_card	0.575	columbia_card_task_fmri	15.0	0.8181818181818181	89.0	-75.0	0.1818181818181818	16.0	6.0	2.0	2.915771211168249	0.575	n/a	stim	poldrack-single-stim	s533	False	1
404.744	0.789	405.533	-1.8914024837679904	draw_card	0.789	columbia_card_task_fmri	15.0	0.8	89.0	-75.0	0.2	16.0	7.0	2.0	4.202623866350962	0.789	n/a	stim	poldrack-single-stim	s533	False	1
405.538	3.063	408.601	-3.8914024837679886	end_round	3.063	columbia_card_task_fmri	15.0	0.7777777777777778	71.0	-75.0	0.2222222222222222	16.0	8.0	2.0	5.618551941130896	3.063	7.0	stim	poldrack-single-stim	s533	False	1
409.356	1.5	408.605	n/a	-1.0	2.318	columbia_card_task_fmri	n/a	n/a	-1.0	n/a	n/a	n/a	n/a	n/a	n/a	n/a	n/a	ITI	poldrack-single-stim	s533	False	0
410.929	0.835	411.764	5.10859751623201	draw_card	0.835	columbia_card_task_fmri	16.0	0.875	89.0	-80.0	0.125	16.0	1.0	2.0	-0.0460767872151528	0.835	n/a	stim	poldrack-single-stim	s533	False	1
411.768	0.426	412.194	4.308597516232011	draw_card	0.426	columbia_card_task_fmri	16.0	0.8666666666666667	89.0	-80.0	0.1333333333333333	16.0	2.0	2.0	0.838108120958573	0.426	n/a	stim	poldrack-single-stim	s533	False	1
412.199	0.503	412.702	3.394311801946298	draw_card	0.503	columbia_card_task_fmri	16.0	0.8571428571428572	89.0	-80.0	0.1428571428571428	16.0	3.0	2.0	1.7968481645029115	0.503	n/a	stim	poldrack-single-stim	s533	False	1
412.706	0.44	413.146	2.33936674700124	draw_card	0.44	columbia_card_task_fmri	16.0	0.8461538461538461	89.0	-80.0	0.1538461538461538	16.0	4.0	2.0	2.840211486131679	0.44	n/a	stim	poldrack-single-stim	s533	False	1
413.151	0.485	413.636	1.1085975162320112	draw_card	0.485	columbia_card_task_fmri	16.0	0.8333333333333334	89.0	-80.0	0.1666666666666666	16.0	5.0	2.0	3.9798177820048224	0.485	n/a	stim	poldrack-single-stim	s533	False	1
413.64	0.516	414.156	-0.3459479383134474	draw_card	0.516	columbia_card_task_fmri	16.0	0.8181818181818181	89.0	-80.0	0.1818181818181818	16.0	6.0	2.0	5.228833253675617	0.516	n/a	stim	poldrack-single-stim	s533	False	1
414.16	0.703	414.863	-2.0914024837679897	draw_card	0.703	columbia_card_task_fmri	16.0	0.8	89.0	-80.0	0.2	16.0	7.0	2.0	6.601557747885053	0.703	n/a	stim	poldrack-single-stim	s533	False	1
414.867	0.924	415.791	-4.224735817101324	draw_card	0.924	columbia_card_task_fmri	16.0	0.7777777777777778	89.0	-80.0	0.2222222222222222	16.0	8.0	2.0	8.111964392418486	0.924	n/a	stim	poldrack-single-stim	s533	False	1
415.796	2.124	417.92	-6.89140248376799	draw_card	2.124	columbia_card_task_fmri	16.0	0.75	89.0	-80.0	0.25	16.0	9.0	2.0	9.76955781486162	2.124	9.0	stim	poldrack-single-stim	s533	False	0
418.675	1.5	417.924	n/a	-1.0	2.318	columbia_card_task_fmri	n/a	n/a	-1.0	n/a	n/a	n/a	n/a	n/a	n/a	n/a	n/a	ITI	poldrack-single-stim	s533	False	0
420.247	0.513	420.76	2.2960975162320096	draw_card	0.513	columbia_card_task_fmri	4.0	0.6875	89.0	-5.0	0.3125	16.0	1.0	5.0	-27.498038680558587	0.513	n/a	stim	poldrack-single-stim	s533	False	1
420.765	0.404	421.169	2.1085975162320096	draw_card	0.404	columbia_card_task_fmri	4.0	0.6666666666666667	89.0	-5.0	0.3333333333333333	16.0	2.0	5.0	-27.42935432103392	0.404	n/a	stim	poldrack-single-stim	s533	False	1
421.174	0.576	421.75	1.8943118019462948	draw_card	0.576	columbia_card_task_fmri	4.0	0.6428571428571428	89.0	-5.0	0.3571428571428571	16.0	3.0	5.0	-27.3618098781606	0.576	3.0	stim	poldrack-single-stim	s533	False	0
422.506	1.5	421.755	n/a	-1.0	2.386	columbia_card_task_fmri	n/a	n/a	-1.0	n/a	n/a	n/a	n/a	n/a	n/a	n/a	n/a	ITI	poldrack-single-stim	s533	False	0
424.148	0.821	424.969	-0.5580691504346549	draw_card	0.821	columbia_card_task_fmri	14.0	0.8333333333333334	89.0	-80.0	0.1666666666666666	6.0	1.0	1.0	3.2348269599882613	0.821	n/a	stim	poldrack-single-stim	s533	False	1
424.974	1.096	426.07	-3.691402483767989	end_round	1.096	columbia_card_task_fmri	14.0	0.8	71.0	-80.0	0.2	6.0	2.0	1.0	5.801898008388264	1.096	1.0	stim	poldrack-single-stim	s533	False	1
426.826	1.5	426.075	n/a	-1.0	2.25	columbia_card_task_fmri	n/a	n/a	-1.0	n/a	n/a	n/a	n/a	n/a	n/a	n/a	n/a	ITI	poldrack-single-stim	s533	False	0
428.33	0.931	429.261	1.1085975162320094	draw_card	0.931	columbia_card_task_fmri	15.0	0.8333333333333334	89.0	-75.0	0.1666666666666666	6.0	1.0	1.0	1.7448939668943453	0.931	n/a	stim	poldrack-single-stim	s533	False	1
429.265	0.467	429.732	-1.8914024837679904	draw_card	0.467	columbia_card_task_fmri	15.0	0.8	89.0	-75.0	0.2	6.0	2.0	1.0	4.202623866350962	0.467	n/a	stim	poldrack-single-stim	s533	False	1
429.736	1.136	430.872	-6.39140248376799	draw_card	1.136	columbia_card_task_fmri	15.0	0.75	89.0	-75.0	0.25	6.0	3.0	1.0	7.172466537937019	1.136	n/a	stim	poldrack-single-stim	s533	False	1
430.876	0.756	431.632	-13.891402483767989	end_round	0.756	columbia_card_task_fmri	15.0	0.6666666666666667	71.0	-75.0	0.3333333333333333	6.0	4.0	1.0	10.626446794616603	0.756	3.0	stim	poldrack-single-stim	s533	False	1
432.388	1.5	431.637	n/a	-1.0	2.386	columbia_card_task_fmri	n/a	n/a	-1.0	n/a	n/a	n/a	n/a	n/a	n/a	n/a	n/a	ITI	poldrack-single-stim	s533	False	0
434.028	0.619	434.647	2.775264182898677	draw_card	0.619	columbia_card_task_fmri	16.0	0.8333333333333334	89.0	-70.0	0.1666666666666666	6.0	1.0	1.0	0.2550333760131664	0.619	n/a	stim	poldrack-single-stim	s533	False	1
434.651	0.512	435.163	-0.0914024837679898	draw_card	0.512	columbia_card_task_fmri	16.0	0.8	89.0	-70.0	0.2	6.0	2.0	1.0	2.6034171957073937	0.512	2.0	stim	poldrack-single-stim	s533	False	0
435.918	1.5	435.167	n/a	-1.0	2.59	columbia_card_task_fmri	n/a	n/a	-1.0	n/a	n/a	n/a	n/a	n/a	n/a	n/a	n/a	ITI	poldrack-single-stim	s533	False	0
437.763	0.999	438.762	3.3585975162320096	draw_card	0.999	columbia_card_task_fmri	23.0	0.75	89.0	-60.0	0.25	8.0	1.0	2.0	4.142706573627507	0.999	1.0	stim	poldrack-single-stim	s533	False	0
439.518	1.5	438.767	n/a	-1.0	2.658	columbia_card_task_fmri	n/a	n/a	-1.0	n/a	n/a	n/a	n/a	n/a	n/a	n/a	n/a	ITI	poldrack-single-stim	s533	False	0
441.431	0.522	441.953	3.8585975162320096	draw_card	0.522	columbia_card_task_fmri	27.0	0.75	89.0	-70.0	0.25	8.0	1.0	2.0	10.20241820093898	0.522	n/a	stim	poldrack-single-stim	s533	False	1
441.958	0.616	442.574	0.3943118019462941	draw_card	0.616	columbia_card_task_fmri	27.0	0.7142857142857143	89.0	-70.0	0.2857142857142857	8.0	2.0	2.0	12.019712777489715	0.616	n/a	stim	poldrack-single-stim	s533	False	1
442.579	0.74	443.319	-4.224735817101319	draw_card	0.74	columbia_card_task_fmri	27.0	0.6666666666666667	89.0	-70.0	0.3333333333333333	8.0	3.0	2.0	13.925233717071116	0.74	n/a	stim	poldrack-single-stim	s533	False	1
443.324	1.59	444.914	-10.691402483767993	draw_card	1.59	columbia_card_task_fmri	27.0	0.6	89.0	-70.0	0.4	8.0	4.0	2.0	15.71858912639606	1.59	4.0	stim	poldrack-single-stim	s533	False	0
445.67	1.5	444.919	n/a	-1.0	2.386	columbia_card_task_fmri	n/a	n/a	-1.0	n/a	n/a	n/a	n/a	n/a	n/a	n/a	n/a	ITI	poldrack-single-stim	s533	False	0
447.311	0.576	447.887	-0.8914024837679888	draw_card	0.576	columbia_card_task_fmri	16.0	0.7777777777777778	89.0	-65.0	0.2222222222222222	9.0	1.0	2.0	1.8787179988293372	0.576	1.0	stim	poldrack-single-stim	s533	False	0
448.643	1.5	447.892	n/a	-1.0	2.386	columbia_card_task_fmri	n/a	n/a	-1.0	n/a	n/a	n/a	n/a	n/a	n/a	n/a	n/a	ITI	poldrack-single-stim	s533	False	0
450.285	0.649	450.934	4.308597516232011	draw_card	0.649	columbia_card_task_fmri	13.0	0.9	89.0	-85.0	0.1	10.0	1.0	1.0	-2.3935476330883105	0.649	n/a	stim	poldrack-single-stim	s533	False	1
450.938	0.688	451.626	3.2197086273431204	draw_card	0.688	columbia_card_task_fmri	13.0	0.8888888888888888	89.0	-85.0	0.1111111111111111	10.0	2.0	1.0	-0.9960670107494564	0.688	n/a	stim	poldrack-single-stim	s533	False	1
451.632	0.694	452.326	1.8585975162320092	draw_card	0.694	columbia_card_task_fmri	13.0	0.875	89.0	-85.0	0.125	10.0	3.0	1.0	0.6149663991964829	0.694	n/a	stim	poldrack-single-stim	s533	False	1
452.33	1.136	453.466	0.1085975162320112	draw_card	1.136	columbia_card_task_fmri	13.0	0.8571428571428572	89.0	-85.0	0.1428571428571428	10.0	4.0	1.0	2.496329362376038	1.136	n/a	stim	poldrack-single-stim	s533	False	1
453.47	0.703	454.173	-2.2247358171013225	end_round	0.703	columbia_card_task_fmri	13.0	0.8333333333333334	71.0	-85.0	0.1666666666666666	10.0	5.0	1.0	4.724823498430993	0.703	4.0	stim	poldrack-single-stim	s533	False	1
454.928	1.5	454.177	n/a	-1.0	2.25	columbia_card_task_fmri	n/a	n/a	-1.0	n/a	n/a	n/a	n/a	n/a	n/a	n/a	n/a	ITI	poldrack-single-stim	s533	False	0
456.433	0.722	457.155	-0.6914024837679895	draw_card	0.722	columbia_card_task_fmri	14.0	0.8	89.0	-65.0	0.2	10.0	1.0	2.0	-0.1950013328073545	0.722	n/a	stim	poldrack-single-stim	s533	False	1
457.159	0.434	457.593	-2.446958039323544	draw_card	0.434	columbia_card_task_fmri	14.0	0.7777777777777778	89.0	-65.0	0.2222222222222222	10.0	2.0	2.0	1.047700165252202	0.434	2.0	stim	poldrack-single-stim	s533	False	0
458.35	1.5	457.599	n/a	-1.0	2.318	columbia_card_task_fmri	n/a	n/a	-1.0	n/a	n/a	n/a	n/a	n/a	n/a	n/a	n/a	ITI	poldrack-single-stim	s533	False	0
459.922	0.511	460.433	0.7085975162320108	draw_card	0.511	columbia_card_task_fmri	17.0	0.8	89.0	-70.0	0.2	10.0	1.0	2.0	3.0032120294849847	0.511	n/a	stim	poldrack-single-stim	s533	False	1
460.438	0.434	460.872	-1.2247358171013227	draw_card	0.434	columbia_card_task_fmri	17.0	0.7777777777777778	89.0	-70.0	0.2222222222222222	10.0	2.0	2.0	4.371898738676094	0.434	n/a	stim	poldrack-single-stim	s533	False	1
460.877	0.712	461.589	-3.6414024837679904	draw_card	0.712	columbia_card_task_fmri	17.0	0.75	89.0	-70.0	0.25	10.0	3.0	2.0	5.873971812696574	0.712	n/a	stim	poldrack-single-stim	s533	False	1
461.593	0.954	462.547	-6.748545340910848	draw_card	0.954	columbia_card_task_fmri	17.0	0.7142857142857143	89.0	-70.0	0.2857142857142857	10.0	4.0	2.0	7.503784248293336	0.954	n/a	stim	poldrack-single-stim	s533	False	1
462.552	1.368	463.92	-10.891402483767989	end_round	1.368	columbia_card_task_fmri	17.0	0.6666666666666667	71.0	-70.0	0.3333333333333333	10.0	5.0	2.0	9.212732407995864	1.368	4.0	stim	poldrack-single-stim	s533	False	1
464.676	1.5	463.925	n/a	-1.0	2.25	columbia_card_task_fmri	n/a	n/a	-1.0	n/a	n/a	n/a	n/a	n/a	n/a	n/a	n/a	ITI	poldrack-single-stim	s533	False	0
466.18	1.02	467.2	-0.5580691504346567	draw_card	1.02	columbia_card_task_fmri	13.0	0.8333333333333334	89.0	-75.0	0.1666666666666666	12.0	1.0	2.0	0.9999540048060852	1.02	n/a	stim	poldrack-single-stim	s533	False	1
467.204	0.494	467.698	-1.8914024837679924	draw_card	0.494	columbia_card_task_fmri	13.0	0.8181818181818181	89.0	-75.0	0.1818181818181818	12.0	2.0	2.0	2.1447840076754403	0.494	n/a	stim	poldrack-single-stim	s533	False	1
467.704	0.632	468.336	-3.49140248376799	draw_card	0.632	columbia_card_task_fmri	13.0	0.8	89.0	-75.0	0.2	12.0	3.0	2.0	3.4030115226255475	0.632	n/a	stim	poldrack-single-stim	s533	False	1
468.341	0.536	468.877	-5.446958039323544	draw_card	0.536	columbia_card_task_fmri	13.0	0.7777777777777778	89.0	-75.0	0.2222222222222222	12.0	4.0	2.0	4.787445521778743	0.536	n/a	stim	poldrack-single-stim	s533	False	1
468.882	1.076	469.958	-7.89140248376799	draw_card	1.076	columbia_card_task_fmri	13.0	0.75	89.0	-75.0	0.25	12.0	5.0	2.0	6.306799273860108	1.076	n/a	stim	poldrack-single-stim	s533	False	1
469.963	1.174	471.137	-11.034259626625133	end_round	1.174	columbia_card_task_fmri	13.0	0.7142857142857143	71.0	-75.0	0.2857142857142857	12.0	6.0	2.0	7.955360634569104	1.174	5.0	stim	poldrack-single-stim	s533	False	1
471.892	1.5	471.141	n/a	-1.0	2.25	columbia_card_task_fmri	n/a	n/a	-1.0	n/a	n/a	n/a	n/a	n/a	n/a	n/a	n/a	ITI	poldrack-single-stim	s533	False	0
473.396	0.956	474.352	1.1085975162320112	draw_card	0.956	columbia_card_task_fmri	14.0	0.8333333333333334	89.0	-70.0	0.1666666666666666	12.0	1.0	2.0	-0.4898665402059272	0.956	n/a	stim	poldrack-single-stim	s533	False	1
474.357	0.449	474.806	-0.1641297564952657	draw_card	0.449	columbia_card_task_fmri	14.0	0.8181818181818181	89.0	-70.0	0.1818181818181818	12.0	2.0	2.0	0.6028669825279209	0.449	n/a	stim	poldrack-single-stim	s533	False	1
474.811	0.547	475.358	-1.6914024837679895	draw_card	0.547	columbia_card_task_fmri	14.0	0.8	89.0	-70.0	0.2	12.0	3.0	2.0	1.8038421711592107	0.547	n/a	stim	poldrack-single-stim	s533	False	1
475.363	0.668	476.031	-3.5580691504346564	draw_card	0.668	columbia_card_task_fmri	14.0	0.7777777777777778	89.0	-70.0	0.2222222222222222	12.0	4.0	2.0	3.125285930044868	0.668	n/a	stim	poldrack-single-stim	s533	False	1
476.037	1.503	477.54	-5.89140248376799	draw_card	1.503	columbia_card_task_fmri	14.0	0.75	89.0	-70.0	0.25	12.0	5.0	2.0	4.575515874236373	1.503	n/a	stim	poldrack-single-stim	s533	False	1
477.544	1.188	478.732	-8.89140248376799	draw_card	1.188	columbia_card_task_fmri	14.0	0.7142857142857143	89.0	-70.0	0.2857142857142857	12.0	6.0	2.0	6.149080440127506	1.188	n/a	stim	poldrack-single-stim	s533	False	1
478.738	0.732	479.47	-12.891402483767989	end_round	0.732	columbia_card_task_fmri	14.0	0.6666666666666667	71.0	-70.0	0.3333333333333333	12.0	7.0	2.0	7.79905365654681	0.732	6.0	stim	poldrack-single-stim	s533	False	1
480.226	1.5	479.475	n/a	-1.0	2.386	columbia_card_task_fmri	n/a	n/a	-1.0	n/a	n/a	n/a	n/a	n/a	n/a	n/a	n/a	ITI	poldrack-single-stim	s533	False	0
481.865	1.499	483.364	1.1085975162320112	draw_card	1.499	columbia_card_task_fmri	16.0	0.8333333333333334	89.0	-80.0	0.1666666666666666	12.0	1.0	2.0	3.9798177820048224	1.499	n/a	stim	poldrack-single-stim	s533	False	1
483.369	0.451	483.82	-0.3459479383134474	draw_card	0.451	columbia_card_task_fmri	16.0	0.8181818181818181	89.0	-80.0	0.1818181818181818	12.0	2.0	2.0	5.228833253675617	0.451	n/a	stim	poldrack-single-stim	s533	False	1
483.825	0.52	484.345	-2.0914024837679897	draw_card	0.52	columbia_card_task_fmri	16.0	0.8	89.0	-80.0	0.2	12.0	3.0	2.0	6.601557747885053	0.52	n/a	stim	poldrack-single-stim	s533	False	1
484.35	0.805	485.155	-4.224735817101324	draw_card	0.805	columbia_card_task_fmri	16.0	0.7777777777777778	89.0	-80.0	0.2222222222222222	12.0	4.0	2.0	8.111964392418486	0.805	n/a	stim	poldrack-single-stim	s533	False	1
485.161	0.754	485.915	-6.89140248376799	draw_card	0.754	columbia_card_task_fmri	16.0	0.75	89.0	-80.0	0.25	12.0	5.0	2.0	9.76955781486162	0.754	n/a	stim	poldrack-single-stim	s533	False	1
485.92	1.206	487.126	-10.319973912339416	end_round	1.206	columbia_card_task_fmri	16.0	0.7142857142857143	71.0	-80.0	0.2857142857142857	12.0	6.0	2.0	11.568104829209254	1.206	5.0	stim	poldrack-single-stim	s533	False	1
487.882	1.5	487.131	n/a	-1.0	2.386	columbia_card_task_fmri	n/a	n/a	-1.0	n/a	n/a	n/a	n/a	n/a	n/a	n/a	n/a	ITI	poldrack-single-stim	s533	False	0
489.523	0.601	490.124	0.90859751623201	draw_card	0.601	columbia_card_task_fmri	16.0	0.8	89.0	-65.0	0.2	15.0	1.0	3.0	0.6045189504804043	0.601	n/a	stim	poldrack-single-stim	s533	False	1
490.127	0.484	490.611	-0.2485453409108464	draw_card	0.484	columbia_card_task_fmri	16.0	0.7857142857142857	89.0	-65.0	0.2142857142857142	15.0	2.0	3.0	1.440440249413946	0.484	n/a	stim	poldrack-single-stim	s533	False	1
490.617	0.734	491.351	-1.583710176075684	draw_card	0.734	columbia_card_task_fmri	16.0	0.7692307692307692	89.0	-65.0	0.2307692307692307	15.0	3.0	3.0	2.330888390652049	0.734	n/a	stim	poldrack-single-stim	s533	False	1
491.355	0.851	492.206	-3.1414024837679904	draw_card	0.851	columbia_card_task_fmri	16.0	0.75	89.0	-65.0	0.25	15.0	4.0	3.0	3.277103028117409	0.851	n/a	stim	poldrack-single-stim	s533	False	1
492.211	0.778	492.989	-4.98231157467708	draw_card	0.778	columbia_card_task_fmri	16.0	0.7272727272727273	89.0	-65.0	0.2727272727272727	15.0	5.0	3.0	4.276892217718078	0.778	5.0	stim	poldrack-single-stim	s533	False	0
493.745	1.5	492.994	n/a	-1.0	2.726	columbia_card_task_fmri	n/a	n/a	-1.0	n/a	n/a	n/a	n/a	n/a	n/a	n/a	n/a	ITI	poldrack-single-stim	s533	False	0
495.726	0.549	496.275	-0.7664024837679906	draw_card	0.549	columbia_card_task_fmri	15.0	0.8125	89.0	-75.0	0.1875	16.0	1.0	3.0	3.331160961511202	0.549	n/a	stim	poldrack-single-stim	s533	False	1
496.28	0.513	496.793	-1.8914024837679904	draw_card	0.513	columbia_card_task_fmri	15.0	0.8	89.0	-75.0	0.2	16.0	2.0	3.0	4.202623866350962	0.513	n/a	stim	poldrack-single-stim	s533	False	1
496.798	0.581	497.379	-3.177116769482275	draw_card	0.581	columbia_card_task_fmri	15.0	0.7857142857142857	89.0	-75.0	0.2142857142857142	16.0	3.0	3.0	5.131525912480747	0.581	n/a	stim	poldrack-single-stim	s533	False	1
497.384	1.041	498.425	-4.660633252998764	draw_card	1.041	columbia_card_task_fmri	15.0	0.7692307692307692	89.0	-75.0	0.2307692307692307	16.0	4.0	3.0	6.121014482189253	1.041	n/a	stim	poldrack-single-stim	s533	False	1
498.43	1.063	499.493	-6.39140248376799	end_round	1.063	columbia_card_task_fmri	15.0	0.75	71.0	-75.0	0.25	16.0	5.0	3.0	7.172466537937019	1.063	4.0	stim	poldrack-single-stim	s533	False	1
500.249	1.5	499.498	n/a	-1.0	2.454	columbia_card_task_fmri	n/a	n/a	-1.0	n/a	n/a	n/a	n/a	n/a	n/a	n/a	n/a	ITI	poldrack-single-stim	s533	False	0
501.958	0.79	502.748	-0.2039024837679905	draw_card	0.79	columbia_card_task_fmri	14.0	0.6875	89.0	-35.0	0.3125	16.0	1.0	5.0	-9.07529380312219	0.79	n/a	stim	poldrack-single-stim	s533	False	1
502.753	0.449	503.202	-1.2247358171013227	draw_card	0.449	columbia_card_task_fmri	14.0	0.6666666666666667	89.0	-35.0	0.3333333333333333	16.0	2.0	5.0	-8.689032316936494	0.449	n/a	stim	poldrack-single-stim	s533	False	1
503.208	0.455	503.663	-2.3914024837679904	draw_card	0.455	columbia_card_task_fmri	14.0	0.6428571428571428	89.0	-35.0	0.3571428571428571	16.0	3.0	5.0	-8.309569783162786	0.455	n/a	stim	poldrack-single-stim	s533	False	1
503.669	0.563	504.232	-3.7375563299218353	draw_card	0.563	columbia_card_task_fmri	14.0	0.6153846153846154	89.0	-35.0	0.3846153846153846	16.0	4.0	5.0	-7.949969618456542	0.563	n/a	stim	poldrack-single-stim	s533	False	1
504.238	0.717	504.955	-5.308069150434658	draw_card	0.717	columbia_card_task_fmri	14.0	0.5833333333333333	89.0	-35.0	0.4166666666666667	16.0	5.0	5.0	-7.6316917910422895	0.717	n/a	stim	poldrack-single-stim	s533	False	1
504.96	1.0	505.96	-7.164129756495264	draw_card	1.0	columbia_card_task_fmri	14.0	0.5454545454545454	89.0	-35.0	0.4545454545454545	16.0	6.0	5.0	-7.3907183838005075	1.0	n/a	stim	poldrack-single-stim	s533	False	1
505.965	2.567	508.532	-9.39140248376799	draw_card	2.567	columbia_card_task_fmri	14.0	0.5	89.0	-35.0	0.5	16.0	7.0	5.0	-7.289372801132313	2.567	n/a	stim	poldrack-single-stim	s533	False	1
508.536	0.961	509.497	-12.113624705990215	end_round	0.961	columbia_card_task_fmri	14.0	0.4444444444444444	71.0	-35.0	0.5555555555555556	16.0	8.0	5.0	-7.440921015291298	0.961	7.0	stim	poldrack-single-stim	s533	False	1
510.254	1.5	509.503	n/a	-1.0	2.318	columbia_card_task_fmri	n/a	n/a	-1.0	n/a	n/a	n/a	n/a	n/a	n/a	n/a	n/a	ITI	poldrack-single-stim	s533	False	0
511.828	2.077	513.905	4.975264182898677	draw_card	2.077	columbia_card_task_fmri	16.0	0.8666666666666667	89.0	-75.0	0.1333333333333333	15.0	1.0	2.0	-0.8605313774785266	2.077	n/a	stim	poldrack-single-stim	s533	False	1
513.912	0.581	514.493	4.108597516232011	draw_card	0.581	columbia_card_task_fmri	16.0	0.8571428571428572	89.0	-75.0	0.1428571428571428	15.0	2.0	2.0	0.0482168408928842	0.581	n/a	stim	poldrack-single-stim	s533	False	1
514.499	0.599	515.098	3.1085975162320096	draw_card	0.599	columbia_card_task_fmri	16.0	0.8461538461538461	89.0	-75.0	0.1538461538461538	15.0	3.0	2.0	1.037179415865637	0.599	n/a	stim	poldrack-single-stim	s533	False	1
515.104	0.492	515.596	1.9419308495653436	draw_card	0.492	columbia_card_task_fmri	16.0	0.8333333333333334	89.0	-75.0	0.1666666666666666	15.0	4.0	2.0	2.117370800009532	0.492	4.0	stim	poldrack-single-stim	s533	False	0
516.353	1.5	515.602	n/a	-1.0	2.318	columbia_card_task_fmri	n/a	n/a	-1.0	n/a	n/a	n/a	n/a	n/a	n/a	n/a	n/a	ITI	poldrack-single-stim	s533	False	0
517.928	1.636	519.564	5.641930849565343	draw_card	1.636	columbia_card_task_fmri	16.0	0.8666666666666667	89.0	-70.0	0.1333333333333333	15.0	1.0	2.0	-2.559050804011669	1.636	n/a	stim	poldrack-single-stim	s533	False	1
519.571	1.449	521.02	4.822883230517725	draw_card	1.449	columbia_card_task_fmri	16.0	0.8571428571428572	89.0	-70.0	0.1428571428571428	15.0	2.0	2.0	-1.7002978268778437	1.449	n/a	stim	poldrack-single-stim	s533	False	1
521.025	0.652	521.677	3.877828285462778	draw_card	0.652	columbia_card_task_fmri	16.0	0.8461538461538461	89.0	-70.0	0.1538461538461538	15.0	3.0	2.0	-0.7657395021716518	0.652	n/a	stim	poldrack-single-stim	s533	False	1
521.684	0.774	522.458	2.775264182898677	draw_card	0.774	columbia_card_task_fmri	16.0	0.8333333333333334	89.0	-70.0	0.1666666666666666	15.0	4.0	2.0	0.2550333760131664	0.774	n/a	stim	poldrack-single-stim	s533	False	1
522.464	0.968	523.432	1.472233879868371	end_round	0.968	columbia_card_task_fmri	16.0	0.8181818181818181	71.0	-70.0	0.1818181818181818	15.0	5.0	2.0	1.3738154871324897	0.968	4.0	stim	poldrack-single-stim	s533	False	1
524.188	1.5	523.437	n/a	-1.0	2.59	columbia_card_task_fmri	n/a	n/a	-1.0	n/a	n/a	n/a	n/a	n/a	n/a	n/a	n/a	ITI	poldrack-single-stim	s533	False	0
526.036	0.579	526.615	2.9835975162320096	draw_card	0.579	columbia_card_task_fmri	8.0	0.9375	89.0	-90.0	0.0625	16.0	1.0	1.0	-8.066528549874793	0.579	n/a	stim	poldrack-single-stim	s533	False	1
526.621	0.379	527.0	2.5752641828986764	draw_card	0.379	columbia_card_task_fmri	8.0	0.9333333333333332	89.0	-90.0	0.0666666666666666	16.0	2.0	1.0	-7.343822037212227	0.379	n/a	stim	poldrack-single-stim	s533	False	1
527.006	0.426	527.432	2.1085975162320105	draw_card	0.426	columbia_card_task_fmri	8.0	0.9285714285714286	89.0	-90.0	0.0714285714285714	16.0	3.0	1.0	-6.551247029155299	0.426	n/a	stim	poldrack-single-stim	s533	False	1
527.437	0.677	528.114	1.570135977770471	draw_card	0.677	columbia_card_task_fmri	8.0	0.9230769230769232	89.0	-90.0	0.0769230769230769	16.0	4.0	1.0	-5.676923953449638	0.677	n/a	stim	poldrack-single-stim	s533	False	1
528.119	0.557	528.676	0.9419308495653425	draw_card	0.557	columbia_card_task_fmri	8.0	0.9166666666666666	89.0	-90.0	0.0833333333333333	16.0	5.0	1.0	-4.705994767856939	0.557	n/a	stim	poldrack-single-stim	s533	False	1
528.682	1.19	529.872	0.1995066071411002	end_round	1.19	columbia_card_task_fmri	8.0	0.9090909090909092	71.0	-90.0	0.0909090909090909	16.0	6.0	1.0	-3.619619211483414	1.19	5.0	stim	poldrack-single-stim	s533	False	1
530.629	1.5	529.878	n/a	-1.0	2.726	columbia_card_task_fmri	n/a	n/a	-1.0	n/a	n/a	n/a	n/a	n/a	n/a	n/a	n/a	ITI	poldrack-single-stim	s533	False	0
532.609	0.674	533.283	4.54609751623201	draw_card	0.674	columbia_card_task_fmri	10.0	0.9375	89.0	-95.0	0.0625	16.0	1.0	1.0	-6.373822626497784	0.674	n/a	stim	poldrack-single-stim	s533	False	1
533.289	0.502	533.791	4.1085975162320105	draw_card	0.502	columbia_card_task_fmri	10.0	0.9333333333333332	89.0	-95.0	0.0666666666666666	16.0	2.0	1.0	-5.599388665539397	0.502	n/a	stim	poldrack-single-stim	s533	False	1
533.797	0.429	534.226	3.6085975162320105	draw_card	0.429	columbia_card_task_fmri	10.0	0.9285714285714286	89.0	-95.0	0.0714285714285714	16.0	3.0	1.0	-4.750092342310193	0.429	n/a	stim	poldrack-single-stim	s533	False	1
534.232	0.472	534.704	3.031674439308933	draw_card	0.472	columbia_card_task_fmri	10.0	0.9230769230769232	89.0	-95.0	0.0769230769230769	16.0	4.0	1.0	-3.813205237045928	0.472	n/a	stim	poldrack-single-stim	s533	False	1
534.71	0.541	535.251	2.3585975162320096	draw_card	0.541	columbia_card_task_fmri	10.0	0.9166666666666666	89.0	-95.0	0.0833333333333333	16.0	5.0	1.0	-2.77280766456089	0.541	n/a	stim	poldrack-single-stim	s533	False	1
535.256	0.952	536.208	1.563142970777463	draw_card	0.952	columbia_card_task_fmri	10.0	0.9090909090909092	89.0	-95.0	0.0909090909090909	16.0	6.0	1.0	-1.608713220071433	0.952	6.0	stim	poldrack-single-stim	s533	False	0
536.966	1.5	536.215	n/a	-1.0	2.522	columbia_card_task_fmri	n/a	n/a	-1.0	n/a	n/a	n/a	n/a	n/a	n/a	n/a	n/a	ITI	poldrack-single-stim	s533	False	0
538.742	0.568	539.31	5.48359751623201	draw_card	0.568	columbia_card_task_fmri	15.0	0.875	89.0	-70.0	0.125	16.0	1.0	2.0	-3.68148270429472	0.568	1.0	stim	poldrack-single-stim	s533	False	0
540.066	1.5	539.315	n/a	-1.0	3.134	columbia_card_task_fmri	n/a	n/a	-1.0	n/a	n/a	n/a	n/a	n/a	n/a	n/a	n/a	ITI	poldrack-single-stim	s533	False	0
542.455	1.731	544.186	4.48359751623201	draw_card	1.731	columbia_card_task_fmri	16.0	0.875	89.0	-85.0	0.125	16.0	1.0	2.0	1.6065604590138207	1.731	n/a	stim	poldrack-single-stim	s533	False	1
544.192	0.867	545.059	3.641930849565343	draw_card	0.867	columbia_card_task_fmri	16.0	0.8666666666666667	89.0	-85.0	0.1333333333333333	16.0	2.0	2.0	2.5368498789713314	0.867	n/a	stim	poldrack-single-stim	s533	False	1
545.065	0.604	545.669	2.6800260876605826	draw_card	0.604	columbia_card_task_fmri	16.0	0.8571428571428572	89.0	-85.0	0.1428571428571428	16.0	3.0	2.0	3.545578837287508	0.604	n/a	stim	poldrack-single-stim	s533	False	1
545.676	0.693	546.369	1.570135977770469	draw_card	0.693	columbia_card_task_fmri	16.0	0.8461538461538461	89.0	-85.0	0.1538461538461538	16.0	4.0	2.0	4.643339920683559	0.693	n/a	stim	poldrack-single-stim	s533	False	1
546.375	1.038	547.413	0.2752641828986772	draw_card	1.038	columbia_card_task_fmri	16.0	0.8333333333333334	89.0	-85.0	0.1666666666666666	16.0	5.0	2.0	5.842358066295695	1.038	n/a	stim	poldrack-single-stim	s533	False	1
547.419	1.43	548.849	-1.2550388474043557	draw_card	1.43	columbia_card_task_fmri	16.0	0.8181818181818181	89.0	-85.0	0.1818181818181818	16.0	6.0	2.0	7.156485235014948	1.43	n/a	stim	poldrack-single-stim	s533	False	1
548.855	0.735	549.59	-3.0914024837679897	end_round	0.735	columbia_card_task_fmri	16.0	0.8	71.0	-85.0	0.2	16.0	7.0	2.0	8.600766017980803	0.735	6.0	stim	poldrack-single-stim	s533	False	1
550.347	1.5	549.596	n/a	-1.0	2.386	columbia_card_task_fmri	n/a	n/a	-1.0	n/a	n/a	n/a	n/a	n/a	n/a	n/a	n/a	ITI	poldrack-single-stim	s533	False	0
