onset	duration	movement_onset	EV	action	block_duration	experiment_exp_id	gain_amount	gain_probability	key_press	loss_amount	loss_probability	num_cards	num_click_in_round	num_loss_cards	risk	response_time	total_cards	trial_id	trial_type	worker_id	junk	feedback
3.019	4.121	7.14	-1.1583895401068298	draw_card	4.121	columbia_card_task_fmri	12.0	0.8333333333333334	89.0	-70.0	0.1666666666666666	6.0	1.0	1.0	-2.289334598029104	4.121	n/a	stim	poldrack-single-stim	s541	False	1
7.143	2.086	9.229	-3.8917228734401625	draw_card	2.086	columbia_card_task_fmri	12.0	0.8	89.0	-70.0	0.2	6.0	2.0	1.0	-0.0492189541149343	2.086	n/a	stim	poldrack-single-stim	s541	False	1
9.231	2.861	12.092	-7.991722873440164	draw_card	2.861	columbia_card_task_fmri	12.0	0.75	89.0	-70.0	0.25	6.0	3.0	1.0	2.6575224047510417	2.861	3.0	stim	poldrack-single-stim	s541	False	0
12.849	1.5	12.098	n/a	-1.0	2.318	columbia_card_task_fmri	n/a	n/a	-1.0	n/a	n/a	n/a	n/a	n/a	n/a	n/a	n/a	ITI	poldrack-single-stim	s541	False	0
14.418	2.938	17.356	-0.3250562067734959	draw_card	2.938	columbia_card_task_fmri	14.0	0.8333333333333334	89.0	-75.0	0.1666666666666666	6.0	1.0	1.0	0.3190789853980078	2.938	n/a	stim	poldrack-single-stim	s541	False	1
17.357	0.928	18.285	-3.291722873440163	draw_card	0.928	columbia_card_task_fmri	14.0	0.8	89.0	-75.0	0.2	6.0	2.0	1.0	2.750471351659698	0.928	2.0	stim	poldrack-single-stim	s541	False	0
19.041	1.5	18.29	n/a	-1.0	2.318	columbia_card_task_fmri	n/a	n/a	-1.0	n/a	n/a	n/a	n/a	n/a	n/a	n/a	n/a	ITI	poldrack-single-stim	s541	False	0
20.61	2.654	23.264	1.3416104598931702	draw_card	2.654	columbia_card_task_fmri	15.0	0.8333333333333334	89.0	-70.0	0.1666666666666666	6.0	1.0	1.0	-1.171449764654504	2.654	n/a	stim	poldrack-single-stim	s541	False	1
23.265	1.645	24.91	-1.4917228734401635	draw_card	1.645	columbia_card_task_fmri	15.0	0.8	89.0	-70.0	0.2	6.0	2.0	1.0	1.150642074898279	1.645	n/a	stim	poldrack-single-stim	s541	False	1
24.912	0.951	25.863	-5.741722873440164	end_round	0.951	columbia_card_task_fmri	15.0	0.75	71.0	-70.0	0.25	6.0	3.0	1.0	3.95643213125696	0.951	2.0	stim	poldrack-single-stim	s541	False	1
26.619	1.5	25.868	n/a	-1.0	2.862	columbia_card_task_fmri	n/a	n/a	-1.0	n/a	n/a	n/a	n/a	n/a	n/a	n/a	n/a	ITI	poldrack-single-stim	s541	False	0
28.733	3.037	31.77	2.174943793226504	draw_card	3.037	columbia_card_task_fmri	17.0	0.8333333333333334	89.0	-75.0	0.1666666666666666	6.0	1.0	1.0	1.4369860024897534	3.037	n/a	stim	poldrack-single-stim	s541	False	1
31.771	1.441	33.212	-0.8917228734401623	draw_card	1.441	columbia_card_task_fmri	17.0	0.8	89.0	-75.0	0.2	6.0	2.0	1.0	3.950353050141935	1.441	n/a	stim	poldrack-single-stim	s541	False	1
33.214	2.337	35.551	-5.491722873440164	end_round	2.337	columbia_card_task_fmri	17.0	0.75	71.0	-75.0	0.25	6.0	3.0	1.0	6.987254048793396	2.337	2.0	stim	poldrack-single-stim	s541	False	1
36.309	1.5	35.558	n/a	-1.0	2.726	columbia_card_task_fmri	n/a	n/a	-1.0	n/a	n/a	n/a	n/a	n/a	n/a	n/a	n/a	ITI	poldrack-single-stim	s541	False	0
38.287	2.824	41.111	3.508277126559836	draw_card	2.824	columbia_card_task_fmri	24.0	0.75	89.0	-60.0	0.25	8.0	1.0	2.0	3.5234612036891733	2.824	n/a	stim	poldrack-single-stim	s541	False	1
41.112	1.751	42.863	0.5082771265598363	draw_card	1.751	columbia_card_task_fmri	24.0	0.7142857142857143	89.0	-60.0	0.2857142857142857	8.0	2.0	2.0	5.097578858604528	1.751	n/a	stim	poldrack-single-stim	s541	False	1
42.864	1.392	44.256	-3.491722873440164	draw_card	1.392	columbia_card_task_fmri	24.0	0.6666666666666667	89.0	-60.0	0.3333333333333333	8.0	3.0	2.0	6.748084804966169	1.392	n/a	stim	poldrack-single-stim	s541	False	1
44.257	0.949	45.206	-9.091722873440164	end_round	0.949	columbia_card_task_fmri	24.0	0.6	71.0	-60.0	0.4	8.0	4.0	2.0	8.301409608875865	0.949	3.0	stim	poldrack-single-stim	s541	False	1
45.963	1.5	45.212	n/a	-1.0	2.25	columbia_card_task_fmri	n/a	n/a	-1.0	n/a	n/a	n/a	n/a	n/a	n/a	n/a	n/a	ITI	poldrack-single-stim	s541	False	0
47.464	1.803	49.267	3.508277126559836	draw_card	1.803	columbia_card_task_fmri	29.0	0.75	89.0	-75.0	0.25	8.0	1.0	2.0	12.183032375174797	1.803	n/a	stim	poldrack-single-stim	s541	False	1
49.268	1.409	50.677	-0.2060085877258755	draw_card	1.409	columbia_card_task_fmri	29.0	0.7142857142857143	89.0	-75.0	0.2857142857142857	8.0	2.0	2.0	14.13200334398131	1.409	n/a	stim	poldrack-single-stim	s541	False	1
50.679	3.674	54.353	-5.158389540106828	end_round	3.674	columbia_card_task_fmri	29.0	0.6666666666666667	71.0	-75.0	0.3333333333333333	8.0	3.0	2.0	16.175547956214928	3.674	2.0	stim	poldrack-single-stim	s541	False	1
55.107	1.5	54.356	n/a	-1.0	2.318	columbia_card_task_fmri	n/a	n/a	-1.0	n/a	n/a	n/a	n/a	n/a	n/a	n/a	n/a	ITI	poldrack-single-stim	s541	False	0
56.677	2.359	59.036	-0.7139450956623834	draw_card	2.359	columbia_card_task_fmri	17.0	0.7777777777777778	89.0	-65.0	0.2222222222222222	9.0	1.0	2.0	1.2412881641014977	2.359	n/a	stim	poldrack-single-stim	s541	False	1
59.038	2.008	61.046	-2.991722873440164	draw_card	2.008	columbia_card_task_fmri	17.0	0.75	89.0	-65.0	0.25	9.0	2.0	2.0	2.6575224047510417	2.008	2.0	stim	poldrack-single-stim	s541	False	0
61.802	1.5	61.051	n/a	-1.0	2.454	columbia_card_task_fmri	n/a	n/a	-1.0	n/a	n/a	n/a	n/a	n/a	n/a	n/a	n/a	ITI	poldrack-single-stim	s541	False	0
63.507	3.515	67.022	3.608277126559836	draw_card	3.515	columbia_card_task_fmri	14.0	0.9	89.0	-95.0	0.1	10.0	1.0	1.0	-0.1492069128782631	3.515	n/a	stim	poldrack-single-stim	s541	False	1
67.024	1.794	68.818	2.3971660154487235	draw_card	1.794	columbia_card_task_fmri	14.0	0.8888888888888888	89.0	-95.0	0.1111111111111111	10.0	2.0	1.0	1.406008931699347	1.794	n/a	stim	poldrack-single-stim	s541	False	1
68.819	1.998	70.817	0.8832771265598363	draw_card	1.998	columbia_card_task_fmri	14.0	0.875	89.0	-95.0	0.125	10.0	3.0	1.0	3.1987878418631723	1.998	n/a	stim	poldrack-single-stim	s541	False	1
70.818	4.11	74.928	-1.063151444868735	end_round	4.11	columbia_card_task_fmri	14.0	0.8571428571428572	71.0	-95.0	0.1428571428571428	10.0	4.0	1.0	5.292284127006276	4.11	3.0	stim	poldrack-single-stim	s541	False	1
75.682	1.5	74.931	n/a	-1.0	2.522	columbia_card_task_fmri	n/a	n/a	-1.0	n/a	n/a	n/a	n/a	n/a	n/a	n/a	n/a	ITI	poldrack-single-stim	s541	False	0
77.456	2.44	79.896	-0.4917228734401637	draw_card	2.44	columbia_card_task_fmri	15.0	0.8	89.0	-65.0	0.2	10.0	1.0	2.0	-0.8491205173976724	2.44	n/a	stim	poldrack-single-stim	s541	False	1
79.897	1.916	81.813	-2.2695006512179408	draw_card	1.916	columbia_card_task_fmri	15.0	0.7777777777777778	89.0	-65.0	0.2222222222222222	10.0	2.0	2.0	0.4099034560666865	1.916	n/a	stim	poldrack-single-stim	s541	False	1
81.816	2.191	84.007	-4.491722873440164	draw_card	2.191	columbia_card_task_fmri	15.0	0.75	89.0	-65.0	0.25	10.0	3.0	2.0	1.7915879353729594	2.191	n/a	stim	poldrack-single-stim	s541	False	1
84.009	1.68	85.689	-7.348865730583018	draw_card	1.68	columbia_card_task_fmri	15.0	0.7142857142857143	89.0	-65.0	0.2857142857142857	10.0	4.0	2.0	3.2907332288652285	1.68	n/a	stim	poldrack-single-stim	s541	False	1
85.691	1.054	86.745	-11.158389540106826	end_round	1.054	columbia_card_task_fmri	15.0	0.6666666666666667	71.0	-65.0	0.3333333333333333	10.0	5.0	2.0	4.862629805939839	1.054	4.0	stim	poldrack-single-stim	s541	False	1
87.497	1.5	86.746	n/a	-1.0	2.318	columbia_card_task_fmri	n/a	n/a	-1.0	n/a	n/a	n/a	n/a	n/a	n/a	n/a	n/a	ITI	poldrack-single-stim	s541	False	0
89.067	2.935	92.002	1.1082771265598377	draw_card	2.935	columbia_card_task_fmri	17.0	0.8	89.0	-65.0	0.2	10.0	1.0	2.0	-0.0492189541149343	2.935	n/a	stim	poldrack-single-stim	s541	False	1
92.003	1.586	93.589	-0.7139450956623834	draw_card	1.586	columbia_card_task_fmri	17.0	0.7777777777777778	89.0	-65.0	0.2222222222222222	10.0	2.0	2.0	1.2412881641014977	1.586	2.0	stim	poldrack-single-stim	s541	False	0
94.344	1.5	93.593	n/a	-1.0	2.522	columbia_card_task_fmri	n/a	n/a	-1.0	n/a	n/a	n/a	n/a	n/a	n/a	n/a	n/a	ITI	poldrack-single-stim	s541	False	0
96.117	3.554	99.671	-0.3250562067734959	draw_card	3.554	columbia_card_task_fmri	13.0	0.8333333333333334	89.0	-70.0	0.1666666666666666	12.0	1.0	2.0	-1.9167075180310815	3.554	n/a	stim	poldrack-single-stim	s541	False	1
99.672	1.939	101.611	-1.5826319643492572	draw_card	1.939	columbia_card_task_fmri	13.0	0.8181818181818181	89.0	-70.0	0.1818181818181818	12.0	2.0	2.0	-0.8364696551589716	1.939	n/a	stim	poldrack-single-stim	s541	False	1
101.612	2.068	103.68	-3.091722873440164	draw_card	2.068	columbia_card_task_fmri	13.0	0.8	89.0	-70.0	0.2	12.0	3.0	2.0	0.3507336061854076	2.068	3.0	stim	poldrack-single-stim	s541	False	0
104.434	1.5	103.683	n/a	-1.0	2.998	columbia_card_task_fmri	n/a	n/a	-1.0	n/a	n/a	n/a	n/a	n/a	n/a	n/a	n/a	ITI	poldrack-single-stim	s541	False	0
106.683	2.144	108.827	-0.3250562067734959	draw_card	2.144	columbia_card_task_fmri	15.0	0.8333333333333334	89.0	-80.0	0.1666666666666666	12.0	1.0	2.0	2.5549010375634325	2.144	1.0	stim	poldrack-single-stim	s541	False	0
109.583	1.5	108.832	n/a	-1.0	2.318	columbia_card_task_fmri	n/a	n/a	-1.0	n/a	n/a	n/a	n/a	n/a	n/a	n/a	n/a	ITI	poldrack-single-stim	s541	False	0
111.154	2.994	114.148	-1.291722873440163	draw_card	2.994	columbia_card_task_fmri	14.0	0.8	89.0	-65.0	0.2	15.0	1.0	3.0	-1.2490694303440932	2.994	n/a	stim	poldrack-single-stim	s541	False	1
114.15	2.166	116.316	-2.420294302011591	draw_card	2.166	columbia_card_task_fmri	14.0	0.7857142857142857	89.0	-65.0	0.2142857142857142	15.0	2.0	3.0	-0.43342591696004	2.166	n/a	stim	poldrack-single-stim	s541	False	1
116.318	1.875	118.193	-3.722492104209396	draw_card	1.875	columbia_card_task_fmri	14.0	0.7692307692307692	89.0	-65.0	0.2307692307692307	15.0	3.0	3.0	0.4354022041379508	1.875	n/a	stim	poldrack-single-stim	s541	False	1
118.195	1.796	119.991	-5.241722873440164	draw_card	1.796	columbia_card_task_fmri	14.0	0.75	89.0	-65.0	0.25	15.0	4.0	3.0	1.3586224270054077	1.796	n/a	stim	poldrack-single-stim	s541	False	1
119.992	2.155	122.147	-7.037177418894709	draw_card	2.155	columbia_card_task_fmri	14.0	0.7272727272727273	89.0	-65.0	0.2727272727272727	15.0	5.0	3.0	2.334094231826292	2.155	5.0	stim	poldrack-single-stim	s541	False	0
122.905	1.5	122.154	n/a	-1.0	2.25	columbia_card_task_fmri	n/a	n/a	-1.0	n/a	n/a	n/a	n/a	n/a	n/a	n/a	n/a	ITI	poldrack-single-stim	s541	False	0
124.407	3.27	127.677	-1.3667228734401635	draw_card	3.27	columbia_card_task_fmri	1.0	0.9375	89.0	-45.0	0.0625	16.0	1.0	1.0	-21.70673503742897	3.27	1.0	stim	poldrack-single-stim	s541	False	0
128.434	1.5	127.683	n/a	-1.0	2.454	columbia_card_task_fmri	n/a	n/a	-1.0	n/a	n/a	n/a	n/a	n/a	n/a	n/a	n/a	ITI	poldrack-single-stim	s541	False	0
130.14	3.351	133.491	-0.4292228734401637	draw_card	3.351	columbia_card_task_fmri	15.0	0.8125	89.0	-70.0	0.1875	16.0	1.0	3.0	0.3272882220501003	3.351	n/a	stim	poldrack-single-stim	s541	False	1
133.493	1.495	134.988	-1.4917228734401635	draw_card	1.495	columbia_card_task_fmri	15.0	0.8	89.0	-70.0	0.2	16.0	2.0	3.0	1.150642074898279	1.495	n/a	stim	poldrack-single-stim	s541	False	1
134.991	1.298	136.289	-2.7060085877258797	draw_card	1.298	columbia_card_task_fmri	15.0	0.7857142857142857	89.0	-70.0	0.2142857142857142	16.0	3.0	3.0	2.0282482657098058	1.298	n/a	stim	poldrack-single-stim	s541	False	1
136.292	0.794	137.086	-4.107107488824781	end_round	0.794	columbia_card_task_fmri	15.0	0.7692307692307692	71.0	-70.0	0.2307692307692307	16.0	4.0	3.0	2.9630785718485626	0.794	3.0	stim	poldrack-single-stim	s541	False	1
137.84	1.5	137.089	n/a	-1.0	2.318	columbia_card_task_fmri	n/a	n/a	-1.0	n/a	n/a	n/a	n/a	n/a	n/a	n/a	n/a	ITI	poldrack-single-stim	s541	False	0
139.41	2.937	142.347	6.508277126559836	draw_card	2.937	columbia_card_task_fmri	30.0	0.7	89.0	-50.0	0.3	10.0	1.0	3.0	3.810971954425746	2.937	n/a	stim	poldrack-single-stim	s541	False	1
142.35	3.592	145.942	3.8416104598931753	draw_card	3.592	columbia_card_task_fmri	30.0	0.6666666666666667	89.0	-50.0	0.3333333333333333	10.0	2.0	3.0	4.862629805939839	3.592	2.0	stim	poldrack-single-stim	s541	False	0
146.695	1.5	145.944	n/a	-1.0	2.318	columbia_card_task_fmri	n/a	n/a	-1.0	n/a	n/a	n/a	n/a	n/a	n/a	n/a	n/a	ITI	poldrack-single-stim	s541	False	0
148.265	2.52	150.785	5.908277126559836	draw_card	2.52	columbia_card_task_fmri	17.0	0.8666666666666667	89.0	-70.0	0.1333333333333333	15.0	1.0	2.0	-3.274476320163629	2.52	n/a	stim	poldrack-single-stim	s541	False	1
150.786	1.134	151.92	5.079705697988409	draw_card	1.134	columbia_card_task_fmri	17.0	0.8571428571428572	89.0	-70.0	0.1428571428571428	15.0	2.0	2.0	-2.405255964939037	1.134	n/a	stim	poldrack-single-stim	s541	False	1
151.922	1.158	153.08	4.123661741944451	draw_card	1.158	columbia_card_task_fmri	17.0	0.8461538461538461	89.0	-70.0	0.1538461538461538	15.0	3.0	2.0	-1.4593365803454184	1.158	n/a	stim	poldrack-single-stim	s541	False	1
153.082	6.739	159.821	3.008277126559838	end_round	6.739	columbia_card_task_fmri	17.0	0.8333333333333334	71.0	-70.0	0.1666666666666666	15.0	4.0	2.0	-0.4261874953888309	6.739	3.0	stim	poldrack-single-stim	s541	False	1
160.577	1.5	159.826	n/a	-1.0	2.59	columbia_card_task_fmri	n/a	n/a	-1.0	n/a	n/a	n/a	n/a	n/a	n/a	n/a	n/a	ITI	poldrack-single-stim	s541	False	0
162.42	1.687	164.107	1.1332771265598365	end_round	1.687	columbia_card_task_fmri	7.0	0.9375	71.0	-95.0	0.0625	16.0	1.0	1.0	-8.157656905568388	1.687	0.0	stim	poldrack-single-stim	s541	False	1
164.865	1.5	164.114	n/a	-1.0	2.25	columbia_card_task_fmri	n/a	n/a	-1.0	n/a	n/a	n/a	n/a	n/a	n/a	n/a	n/a	ITI	poldrack-single-stim	s541	False	0
166.367	1.77	168.137	2.695777126559836	end_round	1.77	columbia_card_task_fmri	9.0	0.9375	71.0	-100.0	0.0625	16.0	1.0	1.0	-6.463562574214492	1.77	0.0	stim	poldrack-single-stim	s541	False	1
168.891	1.5	168.14	n/a	-1.0	2.25	columbia_card_task_fmri	n/a	n/a	-1.0	n/a	n/a	n/a	n/a	n/a	n/a	n/a	n/a	ITI	poldrack-single-stim	s541	False	0
170.393	1.738	172.131	3.633277126559836	draw_card	1.738	columbia_card_task_fmri	15.0	0.875	89.0	-80.0	0.125	16.0	1.0	2.0	-1.4307489751681643	1.738	n/a	stim	poldrack-single-stim	s541	False	1
172.133	0.707	172.84	2.84161045989317	draw_card	0.707	columbia_card_task_fmri	15.0	0.8666666666666667	89.0	-80.0	0.1333333333333333	16.0	2.0	2.0	-0.5553669808748367	0.707	n/a	stim	poldrack-single-stim	s541	False	1
172.841	0.509	173.35	1.9368485551312669	end_round	0.509	columbia_card_task_fmri	15.0	0.8571428571428572	71.0	-80.0	0.1428571428571428	16.0	3.0	2.0	0.3938036462201708	0.509	2.0	stim	poldrack-single-stim	s541	False	1
174.107	1.5	173.356	n/a	-1.0	2.522	columbia_card_task_fmri	n/a	n/a	-1.0	n/a	n/a	n/a	n/a	n/a	n/a	n/a	n/a	ITI	poldrack-single-stim	s541	False	0
175.881	2.114	177.995	5.758277126559836	draw_card	2.114	columbia_card_task_fmri	16.0	0.875	89.0	-70.0	0.125	16.0	1.0	2.0	-4.40678903212693	2.114	n/a	stim	poldrack-single-stim	s541	False	1
177.997	0.7	178.697	5.041610459893169	draw_card	0.7	columbia_card_task_fmri	16.0	0.8666666666666667	89.0	-70.0	0.1333333333333333	16.0	2.0	2.0	-3.6143601781443806	0.7	n/a	stim	poldrack-single-stim	s541	False	1
178.699	2.777	181.476	4.222562840845551	draw_card	2.777	columbia_card_task_fmri	16.0	0.8571428571428572	89.0	-70.0	0.1428571428571428	16.0	3.0	2.0	-2.755133744130056	2.777	3.0	stim	poldrack-single-stim	s541	False	0
182.233	1.5	181.482	n/a	-1.0	2.454	columbia_card_task_fmri	n/a	n/a	-1.0	n/a	n/a	n/a	n/a	n/a	n/a	n/a	n/a	ITI	poldrack-single-stim	s541	False	0
183.94	2.351	186.291	7.070777126559836	draw_card	2.351	columbia_card_task_fmri	30.0	0.6875	89.0	-45.0	0.3125	16.0	1.0	5.0	1.9139890636079144	2.351	n/a	stim	poldrack-single-stim	s541	False	1
186.294	0.695	186.989	5.50827712655984	draw_card	0.695	columbia_card_task_fmri	30.0	0.6666666666666667	89.0	-45.0	0.3333333333333333	16.0	2.0	5.0	2.505835516200761	0.695	n/a	stim	poldrack-single-stim	s541	False	1
186.991	0.539	187.53	3.722562840845548	end_round	0.539	columbia_card_task_fmri	30.0	0.6428571428571428	71.0	-45.0	0.3571428571428571	16.0	3.0	5.0	3.0872441315132804	0.539	2.0	stim	poldrack-single-stim	s541	False	1
188.284	1.5	187.533	n/a	-1.0	2.25	columbia_card_task_fmri	n/a	n/a	-1.0	n/a	n/a	n/a	n/a	n/a	n/a	n/a	n/a	ITI	poldrack-single-stim	s541	False	0
189.787	2.526	192.313	-1.1583895401068298	draw_card	2.526	columbia_card_task_fmri	13.0	0.8333333333333334	89.0	-75.0	0.1666666666666666	6.0	1.0	1.0	-0.053554763493075	2.526	n/a	stim	poldrack-single-stim	s541	False	1
192.316	0.493	192.809	-4.091722873440164	end_round	0.493	columbia_card_task_fmri	13.0	0.8	71.0	-75.0	0.2	6.0	2.0	1.0	2.3505125776710614	0.493	1.0	stim	poldrack-single-stim	s541	False	1
193.563	1.5	192.812	n/a	-1.0	2.454	columbia_card_task_fmri	n/a	n/a	-1.0	n/a	n/a	n/a	n/a	n/a	n/a	n/a	n/a	ITI	poldrack-single-stim	s541	False	0
195.269	1.836	197.105	0.508277126559838	draw_card	1.836	columbia_card_task_fmri	14.0	0.8333333333333334	89.0	-70.0	0.1666666666666666	6.0	1.0	1.0	-1.5440792259838858	1.836	n/a	stim	poldrack-single-stim	s541	False	1
197.108	1.847	198.955	-2.291722873440163	end_round	1.847	columbia_card_task_fmri	14.0	0.8	71.0	-70.0	0.2	6.0	2.0	1.0	0.7506872958062587	1.847	1.0	stim	poldrack-single-stim	s541	False	1
199.711	1.5	198.96	n/a	-1.0	2.454	columbia_card_task_fmri	n/a	n/a	-1.0	n/a	n/a	n/a	n/a	n/a	n/a	n/a	n/a	ITI	poldrack-single-stim	s541	False	0
201.418	1.789	203.207	0.508277126559838	draw_card	1.789	columbia_card_task_fmri	16.0	0.8333333333333334	89.0	-80.0	0.1666666666666666	6.0	1.0	1.0	2.9275410344678363	1.789	n/a	stim	poldrack-single-stim	s541	False	1
203.209	0.464	203.673	-2.6917228734401637	end_round	0.464	columbia_card_task_fmri	16.0	0.8	71.0	-80.0	0.2	6.0	2.0	1.0	5.550206814748776	0.464	1.0	stim	poldrack-single-stim	s541	False	1
204.428	1.5	203.677	n/a	-1.0	2.522	columbia_card_task_fmri	n/a	n/a	-1.0	n/a	n/a	n/a	n/a	n/a	n/a	n/a	n/a	ITI	poldrack-single-stim	s541	False	0
206.202	1.637	207.839	3.008277126559838	draw_card	1.637	columbia_card_task_fmri	17.0	0.8333333333333334	89.0	-70.0	0.1666666666666666	6.0	1.0	1.0	-0.4261874953888309	1.637	n/a	stim	poldrack-single-stim	s541	False	1
207.841	1.235	209.076	0.1082771265598376	end_round	1.235	columbia_card_task_fmri	17.0	0.8	71.0	-70.0	0.2	6.0	2.0	1.0	1.9505547512569308	1.235	1.0	stim	poldrack-single-stim	s541	False	1
209.831	1.5	209.08	n/a	-1.0	2.454	columbia_card_task_fmri	n/a	n/a	-1.0	n/a	n/a	n/a	n/a	n/a	n/a	n/a	n/a	ITI	poldrack-single-stim	s541	False	0
211.538	1.868	213.406	3.008277126559836	draw_card	1.868	columbia_card_task_fmri	25.0	0.75	89.0	-65.0	0.25	8.0	1.0	2.0	6.121300692017421	1.868	n/a	stim	poldrack-single-stim	s541	False	1
213.407	1.483	214.89	-0.2060085877258755	draw_card	1.483	columbia_card_task_fmri	25.0	0.7142857142857143	89.0	-65.0	0.2857142857142857	8.0	2.0	2.0	7.807875662350419	1.483	2.0	stim	poldrack-single-stim	s541	False	0
215.647	1.5	214.896	n/a	-1.0	2.658	columbia_card_task_fmri	n/a	n/a	-1.0	n/a	n/a	n/a	n/a	n/a	n/a	n/a	n/a	ITI	poldrack-single-stim	s541	False	0
217.557	1.919	219.476	3.008277126559836	draw_card	1.919	columbia_card_task_fmri	30.0	0.75	89.0	-80.0	0.25	8.0	1.0	2.0	14.780952143412216	1.919	n/a	stim	poldrack-single-stim	s541	False	1
219.479	1.044	220.523	-0.9202943020115872	end_round	1.044	columbia_card_task_fmri	30.0	0.7142857142857143	71.0	-80.0	0.2857142857142857	8.0	2.0	2.0	16.84237709860426	1.044	1.0	stim	poldrack-single-stim	s541	False	1
221.276	1.5	220.525	n/a	-1.0	2.386	columbia_card_task_fmri	n/a	n/a	-1.0	n/a	n/a	n/a	n/a	n/a	n/a	n/a	n/a	ITI	poldrack-single-stim	s541	False	0
222.913	1.799	224.712	2.708277126559837	draw_card	1.799	columbia_card_task_fmri	13.0	0.9	89.0	-95.0	0.1	10.0	1.0	1.0	-0.4491703432782259	1.799	n/a	stim	poldrack-single-stim	s541	False	1
224.715	2.297	227.012	1.5082771265598365	end_round	2.297	columbia_card_task_fmri	13.0	0.8888888888888888	71.0	-95.0	0.1111111111111111	10.0	2.0	1.0	1.0917741608649223	2.297	1.0	stim	poldrack-single-stim	s541	False	1
227.768	1.5	227.017	n/a	-1.0	2.522	columbia_card_task_fmri	n/a	n/a	-1.0	n/a	n/a	n/a	n/a	n/a	n/a	n/a	n/a	ITI	poldrack-single-stim	s541	False	0
229.542	1.727	231.269	4.108277126559836	draw_card	1.727	columbia_card_task_fmri	14.0	0.9	89.0	-90.0	0.1	10.0	1.0	1.0	-1.649017033623462	1.727	n/a	stim	poldrack-single-stim	s541	False	1
231.271	1.758	233.029	2.952721571004279	draw_card	1.758	columbia_card_task_fmri	14.0	0.8888888888888888	89.0	-90.0	0.1111111111111111	10.0	2.0	1.0	-0.1651582102540274	1.758	n/a	stim	poldrack-single-stim	s541	False	1
233.031	0.804	233.835	1.5082771265598365	end_round	0.804	columbia_card_task_fmri	14.0	0.875	71.0	-90.0	0.125	10.0	3.0	1.0	1.5453655205154675	0.804	2.0	stim	poldrack-single-stim	s541	False	1
234.591	1.5	233.84	n/a	-1.0	2.59	columbia_card_task_fmri	n/a	n/a	-1.0	n/a	n/a	n/a	n/a	n/a	n/a	n/a	n/a	ITI	poldrack-single-stim	s541	False	0
236.435	1.574	238.009	-0.691722873440163	draw_card	1.574	columbia_card_task_fmri	16.0	0.8	89.0	-70.0	0.2	10.0	1.0	2.0	1.550597905465139	1.574	n/a	stim	poldrack-single-stim	s541	False	1
238.011	0.484	238.495	-2.6028339845512747	draw_card	0.484	columbia_card_task_fmri	16.0	0.7777777777777778	89.0	-70.0	0.2222222222222222	10.0	2.0	2.0	2.904070793608774	0.484	2.0	stim	poldrack-single-stim	s541	False	0
239.248	1.5	238.497	n/a	-1.0	2.386	columbia_card_task_fmri	n/a	n/a	-1.0	n/a	n/a	n/a	n/a	n/a	n/a	n/a	n/a	ITI	poldrack-single-stim	s541	False	0
240.886	2.458	243.344	-1.4083895401068298	end_round	2.458	columbia_card_task_fmri	7.0	0.9166666666666666	71.0	-100.0	0.0833333333333333	12.0	1.0	1.0	-3.275551626196865	2.458	0.0	stim	poldrack-single-stim	s541	False	1
244.1	1.5	243.349	n/a	-1.0	2.59	columbia_card_task_fmri	n/a	n/a	-1.0	n/a	n/a	n/a	n/a	n/a	n/a	n/a	n/a	ITI	poldrack-single-stim	s541	False	0
245.944	1.763	247.707	-1.158389540106828	draw_card	1.763	columbia_card_task_fmri	14.0	0.8333333333333334	89.0	-80.0	0.1666666666666666	12.0	1.0	2.0	2.182261849029452	1.763	n/a	stim	poldrack-single-stim	s541	False	1
247.71	1.837	249.547	-2.582631964349257	end_round	1.837	columbia_card_task_fmri	14.0	0.8181818181818181	71.0	-80.0	0.1818181818181818	12.0	2.0	2.0	3.405698923874823	1.837	1.0	stim	poldrack-single-stim	s541	False	1
250.303	1.5	249.552	n/a	-1.0	2.318	columbia_card_task_fmri	n/a	n/a	-1.0	n/a	n/a	n/a	n/a	n/a	n/a	n/a	n/a	ITI	poldrack-single-stim	s541	False	0
251.874	1.515	253.389	0.5082771265598363	draw_card	1.515	columbia_card_task_fmri	15.0	0.8333333333333334	89.0	-75.0	0.1666666666666666	12.0	1.0	2.0	0.6917137173925099	1.515	n/a	stim	poldrack-single-stim	s541	False	1
253.392	0.996	254.388	-0.8553592370765288	draw_card	0.996	columbia_card_task_fmri	15.0	0.8181818181818181	89.0	-75.0	0.1818181818181818	12.0	2.0	2.0	1.8630788174871995	0.996	n/a	stim	poldrack-single-stim	s541	False	1
254.391	0.522	254.913	-2.491722873440164	end_round	0.522	columbia_card_task_fmri	15.0	0.8	71.0	-75.0	0.2	12.0	3.0	2.0	3.1504310416434365	0.522	2.0	stim	poldrack-single-stim	s541	False	1
255.668	1.5	254.917	n/a	-1.0	2.25	columbia_card_task_fmri	n/a	n/a	-1.0	n/a	n/a	n/a	n/a	n/a	n/a	n/a	n/a	ITI	poldrack-single-stim	s541	False	0
257.17	2.581	259.751	-0.4917228734401637	draw_card	2.581	columbia_card_task_fmri	15.0	0.8	89.0	-65.0	0.2	15.0	1.0	3.0	-0.8491205173976724	2.581	n/a	stim	poldrack-single-stim	s541	False	1
259.753	0.717	260.47	-1.634580016297306	draw_card	0.717	columbia_card_task_fmri	15.0	0.7857142857142857	89.0	-65.0	0.2142857142857142	15.0	2.0	3.0	-0.0231498155514557	0.717	n/a	stim	poldrack-single-stim	s541	False	1
260.473	1.031	261.504	-2.9532613349786274	draw_card	1.031	columbia_card_task_fmri	15.0	0.7692307692307692	89.0	-65.0	0.2307692307692307	15.0	3.0	3.0	0.8566787461343708	1.031	3.0	stim	poldrack-single-stim	s541	False	0
262.263	1.5	261.512	n/a	-1.0	2.454	columbia_card_task_fmri	n/a	n/a	-1.0	n/a	n/a	n/a	n/a	n/a	n/a	n/a	n/a	ITI	poldrack-single-stim	s541	False	0
263.969	1.723	265.692	-1.2417228734401635	draw_card	1.723	columbia_card_task_fmri	14.0	0.8125	89.0	-70.0	0.1875	16.0	1.0	3.0	-0.062977809945508	1.723	n/a	stim	poldrack-single-stim	s541	False	1
265.696	1.189	266.885	-2.291722873440163	draw_card	1.189	columbia_card_task_fmri	14.0	0.8	89.0	-70.0	0.2	16.0	2.0	3.0	0.7506872958062587	1.189	n/a	stim	poldrack-single-stim	s541	False	1
266.888	3.342	270.23	-3.491722873440164	draw_card	3.342	columbia_card_task_fmri	14.0	0.7857142857142857	89.0	-70.0	0.2142857142857142	16.0	3.0	3.0	1.6179664456752647	3.342	n/a	stim	poldrack-single-stim	s541	False	1
270.233	0.736	270.969	-4.876338258055549	end_round	0.736	columbia_card_task_fmri	14.0	0.7692307692307692	71.0	-70.0	0.2307692307692307	16.0	4.0	3.0	2.5417964604185315	0.736	3.0	stim	poldrack-single-stim	s541	False	1
271.725	1.5	270.974	n/a	-1.0	3.27	columbia_card_task_fmri	n/a	n/a	-1.0	n/a	n/a	n/a	n/a	n/a	n/a	n/a	n/a	ITI	poldrack-single-stim	s541	False	0
274.249	3.347	277.596	-1.3042228734401635	draw_card	3.347	columbia_card_task_fmri	11.0	0.6875	89.0	-30.0	0.3125	16.0	1.0	5.0	-13.842352370010914	3.347	1.0	stim	poldrack-single-stim	s541	False	0
278.351	1.5	277.6	n/a	-1.0	2.25	columbia_card_task_fmri	n/a	n/a	-1.0	n/a	n/a	n/a	n/a	n/a	n/a	n/a	n/a	ITI	poldrack-single-stim	s541	False	0
279.855	1.937	281.792	3.508277126559836	draw_card	1.937	columbia_card_task_fmri	15.0	0.8666666666666667	89.0	-75.0	0.1333333333333333	15.0	1.0	2.0	-2.254817977492479	1.937	n/a	stim	poldrack-single-stim	s541	False	1
281.796	1.98	283.776	2.65113426941698	draw_card	1.98	columbia_card_task_fmri	15.0	0.8571428571428572	89.0	-75.0	0.1428571428571428	15.0	2.0	2.0	-1.355616051762386	1.98	2.0	stim	poldrack-single-stim	s541	False	0
284.533	1.5	283.782	n/a	-1.0	2.25	columbia_card_task_fmri	n/a	n/a	-1.0	n/a	n/a	n/a	n/a	n/a	n/a	n/a	n/a	ITI	poldrack-single-stim	s541	False	0
286.035	1.498	287.533	5.24161045989317	draw_card	1.498	columbia_card_task_fmri	17.0	0.8666666666666667	89.0	-75.0	0.1333333333333333	15.0	1.0	2.0	-1.5750404762025596	1.498	n/a	stim	poldrack-single-stim	s541	False	1
287.536	0.925	288.461	4.365419983702696	draw_card	0.925	columbia_card_task_fmri	17.0	0.8571428571428572	89.0	-75.0	0.1428571428571428	15.0	2.0	2.0	-0.655850987252343	0.925	n/a	stim	poldrack-single-stim	s541	False	1
288.464	0.439	288.903	3.3544309727136827	end_round	0.439	columbia_card_task_fmri	17.0	0.8461538461538461	71.0	-75.0	0.1538461538461538	15.0	3.0	2.0	0.3444458742067411	0.439	2.0	stim	poldrack-single-stim	s541	False	1
289.659	1.5	288.908	n/a	-1.0	2.318	columbia_card_task_fmri	n/a	n/a	-1.0	n/a	n/a	n/a	n/a	n/a	n/a	n/a	n/a	ITI	poldrack-single-stim	s541	False	0
291.229	2.124	293.353	0.8207771265598363	draw_card	2.124	columbia_card_task_fmri	2.0	0.9375	89.0	-25.0	0.0625	16.0	1.0	1.0	-26.297762997910876	2.124	n/a	stim	poldrack-single-stim	s541	False	1
293.357	1.264	294.621	0.7082771265598362	draw_card	1.264	columbia_card_task_fmri	2.0	0.9333333333333332	89.0	-25.0	0.0666666666666666	16.0	2.0	1.0	-26.09902146634038	1.264	n/a	stim	poldrack-single-stim	s541	False	1
294.624	1.025	295.649	0.5797056979884079	end_round	1.025	columbia_card_task_fmri	2.0	0.9285714285714286	71.0	-25.0	0.0714285714285714	16.0	3.0	1.0	-25.88104199369674	1.025	2.0	stim	poldrack-single-stim	s541	False	1
296.404	1.5	295.653	n/a	-1.0	2.726	columbia_card_task_fmri	n/a	n/a	-1.0	n/a	n/a	n/a	n/a	n/a	n/a	n/a	n/a	ITI	poldrack-single-stim	s541	False	0
298.383	2.09	300.473	3.008277126559836	draw_card	2.09	columbia_card_task_fmri	9.0	0.9375	89.0	-95.0	0.0625	16.0	1.0	1.0	-7.673634566127404	2.09	n/a	stim	poldrack-single-stim	s541	False	1
300.476	0.48	300.956	2.574943793226504	end_round	0.48	columbia_card_task_fmri	9.0	0.9333333333333332	71.0	-95.0	0.0666666666666666	16.0	2.0	1.0	-6.906020246855505	0.48	1.0	stim	poldrack-single-stim	s541	False	1
301.709	1.5	300.958	n/a	-1.0	2.386	columbia_card_task_fmri	n/a	n/a	-1.0	n/a	n/a	n/a	n/a	n/a	n/a	n/a	n/a	ITI	poldrack-single-stim	s541	False	0
303.349	2.616	305.965	4.570777126559836	draw_card	2.616	columbia_card_task_fmri	11.0	0.9375	89.0	-100.0	0.0625	16.0	1.0	1.0	-5.979527843496534	2.616	n/a	stim	poldrack-single-stim	s541	False	1
305.967	1.006	306.973	4.108277126559837	end_round	1.006	columbia_card_task_fmri	11.0	0.9333333333333332	71.0	-100.0	0.0666666666666666	16.0	2.0	1.0	-5.1602273891199495	1.006	1.0	stim	poldrack-single-stim	s541	False	1
307.729	1.5	306.978	n/a	-1.0	2.318	columbia_card_task_fmri	n/a	n/a	-1.0	n/a	n/a	n/a	n/a	n/a	n/a	n/a	n/a	ITI	poldrack-single-stim	s541	False	0
309.3	1.536	310.836	5.133277126559836	draw_card	1.536	columbia_card_task_fmri	16.0	0.875	89.0	-75.0	0.125	16.0	1.0	2.0	-2.753443947381772	1.536	n/a	stim	poldrack-single-stim	s541	False	1
310.84	0.507	311.347	4.374943793226503	draw_card	0.507	columbia_card_task_fmri	16.0	0.8666666666666667	89.0	-75.0	0.1333333333333333	16.0	2.0	2.0	-1.914929730960765	0.507	n/a	stim	poldrack-single-stim	s541	False	1
311.349	1.864	313.213	3.508277126559838	draw_card	1.864	columbia_card_task_fmri	16.0	0.8571428571428572	89.0	-75.0	0.1428571428571428	16.0	3.0	2.0	-1.0057340092363845	1.864	n/a	stim	poldrack-single-stim	s541	False	1
313.216	0.547	313.763	2.508277126559836	end_round	0.547	columbia_card_task_fmri	16.0	0.8461538461538461	71.0	-75.0	0.1538461538461538	16.0	4.0	2.0	-0.0163125821214151	0.547	3.0	stim	poldrack-single-stim	s541	False	1
314.52	1.5	313.769	n/a	-1.0	2.25	columbia_card_task_fmri	n/a	n/a	-1.0	n/a	n/a	n/a	n/a	n/a	n/a	n/a	n/a	ITI	poldrack-single-stim	s541	False	0
316.022	1.46	317.482	5.383277126559836	draw_card	1.46	columbia_card_task_fmri	17.0	0.875	89.0	-80.0	0.125	16.0	1.0	2.0	-0.7693959019998573	1.46	1.0	stim	poldrack-single-stim	s541	False	0
318.238	1.5	317.487	n/a	-1.0	2.25	columbia_card_task_fmri	n/a	n/a	-1.0	n/a	n/a	n/a	n/a	n/a	n/a	n/a	n/a	ITI	poldrack-single-stim	s541	False	0
330.749	2.051	332.8	-0.3250562067734959	draw_card	2.051	columbia_card_task_fmri	13.0	0.8333333333333334	89.0	-70.0	0.1666666666666666	6.0	1.0	1.0	-1.9167075180310815	2.051	n/a	stim	poldrack-single-stim	s541	False	1
332.803	1.004	333.807	-3.091722873440164	end_round	1.004	columbia_card_task_fmri	13.0	0.8	71.0	-70.0	0.2	6.0	2.0	1.0	0.3507336061854076	1.004	1.0	stim	poldrack-single-stim	s541	False	1
334.565	1.5	333.814	n/a	-1.0	2.454	columbia_card_task_fmri	n/a	n/a	-1.0	n/a	n/a	n/a	n/a	n/a	n/a	n/a	n/a	ITI	poldrack-single-stim	s541	False	0
336.272	1.528	337.8	-0.3250562067734959	draw_card	1.528	columbia_card_task_fmri	15.0	0.8333333333333334	89.0	-80.0	0.1666666666666666	6.0	1.0	1.0	2.5549010375634325	1.528	n/a	stim	poldrack-single-stim	s541	False	1
337.802	1.472	339.274	-3.491722873440164	end_round	1.472	columbia_card_task_fmri	15.0	0.8	71.0	-80.0	0.2	6.0	2.0	1.0	5.150242219263156	1.472	1.0	stim	poldrack-single-stim	s541	False	1
340.032	1.5	339.281	n/a	-1.0	2.454	columbia_card_task_fmri	n/a	n/a	-1.0	n/a	n/a	n/a	n/a	n/a	n/a	n/a	n/a	ITI	poldrack-single-stim	s541	False	0
341.74	1.492	343.232	1.3416104598931702	draw_card	1.492	columbia_card_task_fmri	16.0	0.8333333333333334	89.0	-75.0	0.1666666666666666	6.0	1.0	1.0	1.0643494000878275	1.492	n/a	stim	poldrack-single-stim	s541	False	1
343.234	0.466	343.7	-1.691722873440163	draw_card	0.466	columbia_card_task_fmri	16.0	0.8	89.0	-75.0	0.2	6.0	2.0	1.0	3.5503916174306127	0.466	n/a	stim	poldrack-single-stim	s541	False	1
343.703	0.389	344.092	-6.241722873440164	end_round	0.389	columbia_card_task_fmri	16.0	0.75	71.0	-75.0	0.25	6.0	3.0	1.0	6.5542769745921206	0.389	2.0	stim	poldrack-single-stim	s541	False	1
344.858	1.5	344.107	n/a	-1.0	2.522	columbia_card_task_fmri	n/a	n/a	-1.0	n/a	n/a	n/a	n/a	n/a	n/a	n/a	n/a	ITI	poldrack-single-stim	s541	False	0
346.634	1.916	348.55	2.508277126559836	draw_card	1.916	columbia_card_task_fmri	21.0	0.75	89.0	-55.0	0.25	8.0	1.0	2.0	0.0597333522181315	1.916	n/a	stim	poldrack-single-stim	s541	False	1
348.552	0.462	349.014	-0.2060085877258772	draw_card	0.462	columbia_card_task_fmri	21.0	0.7142857142857143	89.0	-55.0	0.2857142857142857	8.0	2.0	2.0	1.4839055095952034	0.462	n/a	stim	poldrack-single-stim	s541	False	1
349.018	1.819	350.837	-3.8250562067734943	draw_card	1.819	columbia_card_task_fmri	21.0	0.6666666666666667	89.0	-55.0	0.3333333333333333	8.0	3.0	2.0	2.977191971199332	1.819	n/a	stim	poldrack-single-stim	s541	False	1
350.84	0.65	351.49	-8.891722873440164	end_round	0.65	columbia_card_task_fmri	21.0	0.6	71.0	-55.0	0.4	8.0	4.0	2.0	4.3825563956870255	0.65	3.0	stim	poldrack-single-stim	s541	False	1
352.246	1.5	351.495	n/a	-1.0	2.386	columbia_card_task_fmri	n/a	n/a	-1.0	n/a	n/a	n/a	n/a	n/a	n/a	n/a	n/a	ITI	poldrack-single-stim	s541	False	0
353.885	1.756	355.641	3.758277126559836	draw_card	1.756	columbia_card_task_fmri	26.0	0.75	89.0	-65.0	0.25	8.0	1.0	2.0	6.5542769745921206	1.756	n/a	stim	poldrack-single-stim	s541	False	1
355.644	0.524	356.168	0.5082771265598398	draw_card	0.524	columbia_card_task_fmri	26.0	0.7142857142857143	89.0	-65.0	0.2857142857142857	8.0	2.0	2.0	8.259594705002172	0.524	n/a	stim	poldrack-single-stim	s541	False	1
356.17	0.825	356.995	-3.825056206773493	draw_card	0.825	columbia_card_task_fmri	26.0	0.6666666666666667	89.0	-65.0	0.3333333333333333	8.0	3.0	2.0	10.047665547930634	0.825	n/a	stim	poldrack-single-stim	s541	False	1
356.999	1.151	358.15	-9.891722873440164	end_round	1.151	columbia_card_task_fmri	26.0	0.6	71.0	-65.0	0.4	8.0	4.0	2.0	11.730453815615093	1.151	3.0	stim	poldrack-single-stim	s541	False	1
358.906	1.5	358.155	n/a	-1.0	2.454	columbia_card_task_fmri	n/a	n/a	-1.0	n/a	n/a	n/a	n/a	n/a	n/a	n/a	n/a	ITI	poldrack-single-stim	s541	False	0
360.614	2.355	362.969	-1.1583895401068298	draw_card	2.355	columbia_card_task_fmri	15.0	0.7777777777777778	89.0	-60.0	0.2222222222222222	9.0	1.0	2.0	-1.6685362189153103	2.355	n/a	stim	poldrack-single-stim	s541	False	1
362.971	0.724	363.695	-3.241722873440164	draw_card	0.724	columbia_card_task_fmri	15.0	0.75	89.0	-60.0	0.25	9.0	2.0	2.0	-0.3732270237492159	0.724	n/a	stim	poldrack-single-stim	s541	False	1
363.699	0.94	364.639	-5.920294302011591	draw_card	0.94	columbia_card_task_fmri	15.0	0.7142857142857143	89.0	-60.0	0.2857142857142857	9.0	3.0	2.0	1.032201714037711	0.94	n/a	stim	poldrack-single-stim	s541	False	1
364.641	0.417	365.058	-9.491722873440162	end_round	0.417	columbia_card_task_fmri	15.0	0.6666666666666667	71.0	-60.0	0.3333333333333333	9.0	4.0	2.0	2.505835516200761	0.417	3.0	stim	poldrack-single-stim	s541	False	1
365.816	1.5	365.065	n/a	-1.0	2.522	columbia_card_task_fmri	n/a	n/a	-1.0	n/a	n/a	n/a	n/a	n/a	n/a	n/a	n/a	ITI	poldrack-single-stim	s541	False	0
367.591	1.457	369.048	3.208277126559837	draw_card	1.457	columbia_card_task_fmri	13.0	0.9	89.0	-90.0	0.1	10.0	1.0	1.0	-1.9489768460261487	1.457	n/a	stim	poldrack-single-stim	s541	False	1
369.051	0.614	369.665	2.0638326821153914	draw_card	0.614	columbia_card_task_fmri	13.0	0.8888888888888888	89.0	-90.0	0.1111111111111111	10.0	2.0	1.0	-0.4793895272517545	0.614	n/a	stim	poldrack-single-stim	s541	False	1
369.669	0.471	370.14	0.6332771265598363	end_round	0.471	columbia_card_task_fmri	13.0	0.875	71.0	-90.0	0.125	10.0	3.0	1.0	1.2146830626917264	0.471	2.0	stim	poldrack-single-stim	s541	False	1
370.893	1.5	370.142	n/a	-1.0	2.522	columbia_card_task_fmri	n/a	n/a	-1.0	n/a	n/a	n/a	n/a	n/a	n/a	n/a	n/a	ITI	poldrack-single-stim	s541	False	0
372.668	1.967	374.635	4.508277126559836	draw_card	1.967	columbia_card_task_fmri	15.0	0.9	89.0	-95.0	0.1	10.0	1.0	1.0	0.1507571823041402	1.967	n/a	stim	poldrack-single-stim	s541	False	1
374.638	0.395	375.033	3.286054904337613	draw_card	0.395	columbia_card_task_fmri	15.0	0.8888888888888888	89.0	-95.0	0.1111111111111111	10.0	2.0	1.0	1.7202443371516123	0.395	2.0	stim	poldrack-single-stim	s541	False	0
375.791	1.5	375.04	n/a	-1.0	2.59	columbia_card_task_fmri	n/a	n/a	-1.0	n/a	n/a	n/a	n/a	n/a	n/a	n/a	n/a	ITI	poldrack-single-stim	s541	False	0
377.633	1.571	379.204	0.3082771265598369	draw_card	1.571	columbia_card_task_fmri	16.0	0.8	89.0	-65.0	0.2	10.0	1.0	2.0	-0.4491703432782188	1.571	n/a	stim	poldrack-single-stim	s541	False	1
379.208	0.394	379.602	-1.491722873440162	draw_card	0.394	columbia_card_task_fmri	16.0	0.7777777777777778	89.0	-65.0	0.2222222222222222	10.0	2.0	2.0	0.8255952255466354	0.394	2.0	stim	poldrack-single-stim	s541	False	0
380.359	1.5	379.608	n/a	-1.0	2.454	columbia_card_task_fmri	n/a	n/a	-1.0	n/a	n/a	n/a	n/a	n/a	n/a	n/a	n/a	ITI	poldrack-single-stim	s541	False	0
382.067	1.942	384.009	-0.9917228734401636	draw_card	1.942	columbia_card_task_fmri	7.0	0.9166666666666666	89.0	-95.0	0.0833333333333333	12.0	1.0	1.0	-4.657264559428828	1.942	n/a	stim	poldrack-single-stim	s541	False	1
384.012	0.421	384.433	-1.7644501461674371	end_round	0.421	columbia_card_task_fmri	7.0	0.9090909090909092	71.0	-95.0	0.0909090909090909	12.0	2.0	1.0	-3.5258137609679068	0.421	1.0	stim	poldrack-single-stim	s541	False	1
385.188	1.5	384.437	n/a	-1.0	2.318	columbia_card_task_fmri	n/a	n/a	-1.0	n/a	n/a	n/a	n/a	n/a	n/a	n/a	n/a	ITI	poldrack-single-stim	s541	False	0
386.76	2.073	388.833	-0.3250562067734959	draw_card	2.073	columbia_card_task_fmri	14.0	0.8333333333333334	89.0	-75.0	0.1666666666666666	12.0	1.0	2.0	0.3190789853980078	2.073	n/a	stim	poldrack-single-stim	s541	False	1
388.837	0.439	389.276	-1.6735410552583472	draw_card	0.439	columbia_card_task_fmri	14.0	0.8181818181818181	89.0	-75.0	0.1818181818181818	12.0	2.0	2.0	1.4774260142023865	0.439	n/a	stim	poldrack-single-stim	s541	False	1
389.28	0.866	390.146	-3.291722873440163	end_round	0.866	columbia_card_task_fmri	14.0	0.8	71.0	-75.0	0.2	12.0	3.0	2.0	2.750471351659698	0.866	2.0	stim	poldrack-single-stim	s541	False	1
390.905	1.5	390.154	n/a	-1.0	2.25	columbia_card_task_fmri	n/a	n/a	-1.0	n/a	n/a	n/a	n/a	n/a	n/a	n/a	n/a	ITI	poldrack-single-stim	s541	False	0
392.409	1.639	394.048	1.3416104598931702	draw_card	1.639	columbia_card_task_fmri	15.0	0.8333333333333334	89.0	-70.0	0.1666666666666666	12.0	1.0	2.0	-1.171449764654504	1.639	n/a	stim	poldrack-single-stim	s541	False	1
394.05	0.393	394.443	0.0537316720143794	draw_card	0.393	columbia_card_task_fmri	15.0	0.8181818181818181	89.0	-70.0	0.1818181818181818	12.0	2.0	2.0	-0.0651753642656345	0.393	2.0	stim	poldrack-single-stim	s541	False	0
395.198	1.5	394.447	n/a	-1.0	2.658	columbia_card_task_fmri	n/a	n/a	-1.0	n/a	n/a	n/a	n/a	n/a	n/a	n/a	n/a	ITI	poldrack-single-stim	s541	False	0
397.109	1.697	398.806	-0.691722873440163	draw_card	1.697	columbia_card_task_fmri	16.0	0.8	89.0	-70.0	0.2	15.0	1.0	3.0	1.550597905465139	1.697	n/a	stim	poldrack-single-stim	s541	False	1
398.809	0.574	399.383	-1.9202943020115928	draw_card	0.574	columbia_card_task_fmri	16.0	0.7857142857142857	89.0	-70.0	0.2142857142857142	15.0	2.0	3.0	2.4385311107757346	0.574	2.0	stim	poldrack-single-stim	s541	False	0
400.142	1.5	399.391	n/a	-1.0	2.454	columbia_card_task_fmri	n/a	n/a	-1.0	n/a	n/a	n/a	n/a	n/a	n/a	n/a	n/a	ITI	poldrack-single-stim	s541	False	0
401.849	1.879	403.728	-0.3042228734401637	draw_card	1.879	columbia_card_task_fmri	14.0	0.8125	89.0	-65.0	0.1875	16.0	1.0	3.0	-2.0142903747823944	1.879	n/a	stim	poldrack-single-stim	s541	False	1
403.731	0.413	404.144	-1.291722873440163	draw_card	0.413	columbia_card_task_fmri	14.0	0.8	89.0	-65.0	0.2	16.0	2.0	3.0	-1.2490694303440932	0.413	n/a	stim	poldrack-single-stim	s541	False	1
404.148	0.678	404.826	-2.420294302011591	end_round	0.678	columbia_card_task_fmri	14.0	0.7857142857142857	71.0	-65.0	0.2142857142857142	16.0	3.0	3.0	-0.43342591696004	0.678	2.0	stim	poldrack-single-stim	s541	False	1
405.58	1.5	404.829	n/a	-1.0	2.386	columbia_card_task_fmri	n/a	n/a	-1.0	n/a	n/a	n/a	n/a	n/a	n/a	n/a	n/a	ITI	poldrack-single-stim	s541	False	0
407.22	1.729	408.949	-0.5542228734401637	draw_card	1.729	columbia_card_task_fmri	16.0	0.8125	89.0	-75.0	0.1875	16.0	1.0	3.0	2.6689057996035928	1.729	1.0	stim	poldrack-single-stim	s541	False	0
409.704	1.5	408.953	n/a	-1.0	2.59	columbia_card_task_fmri	n/a	n/a	-1.0	n/a	n/a	n/a	n/a	n/a	n/a	n/a	n/a	ITI	poldrack-single-stim	s541	False	0
411.548	2.014	413.562	3.708277126559837	draw_card	2.014	columbia_card_task_fmri	16.0	0.8666666666666667	89.0	-80.0	0.1333333333333333	15.0	1.0	2.0	-0.215474004887227	2.014	1.0	stim	poldrack-single-stim	s541	False	0
414.32	1.5	413.569	n/a	-1.0	2.318	columbia_card_task_fmri	n/a	n/a	-1.0	n/a	n/a	n/a	n/a	n/a	n/a	n/a	n/a	ITI	poldrack-single-stim	s541	False	0
415.892	1.508	417.4	4.574943793226504	draw_card	1.508	columbia_card_task_fmri	17.0	0.8666666666666667	89.0	-80.0	0.1333333333333333	15.0	1.0	2.0	0.1244198298787822	1.508	1.0	stim	poldrack-single-stim	s541	False	0
418.155	1.5	417.404	n/a	-1.0	2.59	columbia_card_task_fmri	n/a	n/a	-1.0	n/a	n/a	n/a	n/a	n/a	n/a	n/a	n/a	ITI	poldrack-single-stim	s541	False	0
419.998	1.988	421.986	0.5082771265598363	end_round	1.988	columbia_card_task_fmri	1.0	0.9375	71.0	-15.0	0.0625	16.0	1.0	1.0	-28.94696367223881	1.988	0.0	stim	poldrack-single-stim	s541	False	1
422.743	1.5	421.992	n/a	-1.0	2.386	columbia_card_task_fmri	n/a	n/a	-1.0	n/a	n/a	n/a	n/a	n/a	n/a	n/a	n/a	ITI	poldrack-single-stim	s541	False	0
424.382	1.488	425.87	3.633277126559836	end_round	1.488	columbia_card_task_fmri	10.0	0.9375	71.0	-100.0	0.0625	16.0	1.0	1.0	-6.221545609598529	1.488	0.0	stim	poldrack-single-stim	s541	False	1
426.624	1.5	425.873	n/a	-1.0	2.318	columbia_card_task_fmri	n/a	n/a	-1.0	n/a	n/a	n/a	n/a	n/a	n/a	n/a	n/a	ITI	poldrack-single-stim	s541	False	0
428.196	1.69	429.886	4.258277126559836	draw_card	1.69	columbia_card_task_fmri	15.0	0.875	89.0	-75.0	0.125	16.0	1.0	2.0	-3.084115181481696	1.69	n/a	stim	poldrack-single-stim	s541	False	1
429.89	0.587	430.477	3.508277126559836	draw_card	0.587	columbia_card_task_fmri	15.0	0.8666666666666667	89.0	-75.0	0.1333333333333333	16.0	2.0	2.0	-2.254817977492479	0.587	n/a	stim	poldrack-single-stim	s541	False	1
430.481	1.161	431.642	2.65113426941698	draw_card	1.161	columbia_card_task_fmri	15.0	0.8571428571428572	89.0	-75.0	0.1428571428571428	16.0	3.0	2.0	-1.355616051762386	1.161	n/a	stim	poldrack-single-stim	s541	False	1
431.646	1.025	432.671	1.6621232804059896	end_round	1.025	columbia_card_task_fmri	15.0	0.8461538461538461	71.0	-75.0	0.1538461538461538	16.0	4.0	2.0	-0.3770700884896456	1.025	3.0	stim	poldrack-single-stim	s541	False	1
433.43	1.5	432.679	n/a	-1.0	2.318	columbia_card_task_fmri	n/a	n/a	-1.0	n/a	n/a	n/a	n/a	n/a	n/a	n/a	n/a	ITI	poldrack-single-stim	s541	False	0
435.002	1.469	436.471	4.508277126559836	draw_card	1.469	columbia_card_task_fmri	16.0	0.875	89.0	-80.0	0.125	16.0	1.0	2.0	-1.100072879929371	1.469	n/a	stim	poldrack-single-stim	s541	False	1
436.475	0.636	437.111	3.708277126559837	draw_card	0.636	columbia_card_task_fmri	16.0	0.8666666666666667	89.0	-80.0	0.1333333333333333	16.0	2.0	2.0	-0.215474004887227	0.636	n/a	stim	poldrack-single-stim	s541	False	1
437.114	0.594	437.708	2.7939914122741243	draw_card	0.594	columbia_card_task_fmri	16.0	0.8571428571428572	89.0	-80.0	0.1428571428571428	16.0	3.0	2.0	0.7436902832488599	0.594	n/a	stim	poldrack-single-stim	s541	False	1
437.713	0.53	438.243	1.7390463573290662	end_round	0.53	columbia_card_task_fmri	16.0	0.8461538461538461	71.0	-80.0	0.1538461538461538	16.0	4.0	2.0	1.7874886055267751	0.53	3.0	stim	poldrack-single-stim	s541	False	1
438.998	1.5	438.247	n/a	-1.0	2.318	columbia_card_task_fmri	n/a	n/a	-1.0	n/a	n/a	n/a	n/a	n/a	n/a	n/a	n/a	ITI	poldrack-single-stim	s541	False	0
440.57	2.635	443.205	1.6957771265598365	draw_card	2.635	columbia_card_task_fmri	4.0	0.6875	89.0	-5.0	0.3125	16.0	1.0	5.0	-28.65069461288064	2.635	n/a	stim	poldrack-single-stim	s541	False	1
443.21	0.737	443.947	1.5082771265598367	draw_card	0.737	columbia_card_task_fmri	4.0	0.6666666666666667	89.0	-5.0	0.3333333333333333	16.0	2.0	5.0	-28.580178369423347	0.737	2.0	stim	poldrack-single-stim	s541	False	0
444.701	1.5	443.95	n/a	-1.0	2.386	columbia_card_task_fmri	n/a	n/a	-1.0	n/a	n/a	n/a	n/a	n/a	n/a	n/a	n/a	ITI	poldrack-single-stim	s541	False	0
446.341	1.738	448.079	-1.158389540106828	draw_card	1.738	columbia_card_task_fmri	14.0	0.8333333333333334	89.0	-80.0	0.1666666666666666	6.0	1.0	1.0	2.182261849029452	1.738	n/a	stim	poldrack-single-stim	s541	False	1
448.084	0.686	448.77	-4.291722873440163	end_round	0.686	columbia_card_task_fmri	14.0	0.8	71.0	-80.0	0.2	6.0	2.0	1.0	4.750278376962925	0.686	1.0	stim	poldrack-single-stim	s541	False	1
449.526	1.5	448.775	n/a	-1.0	2.25	columbia_card_task_fmri	n/a	n/a	-1.0	n/a	n/a	n/a	n/a	n/a	n/a	n/a	n/a	ITI	poldrack-single-stim	s541	False	0
451.03	1.687	452.717	0.5082771265598363	draw_card	1.687	columbia_card_task_fmri	15.0	0.8333333333333334	89.0	-75.0	0.1666666666666666	6.0	1.0	1.0	0.6917137173925099	1.687	n/a	stim	poldrack-single-stim	s541	False	1
452.72	0.761	453.481	-2.491722873440164	draw_card	0.761	columbia_card_task_fmri	15.0	0.8	89.0	-75.0	0.2	6.0	2.0	1.0	3.1504310416434365	0.761	n/a	stim	poldrack-single-stim	s541	False	1
453.485	0.646	454.131	-6.991722873440164	end_round	0.646	columbia_card_task_fmri	15.0	0.75	71.0	-75.0	0.25	6.0	3.0	1.0	6.121300692017421	0.646	2.0	stim	poldrack-single-stim	s541	False	1
454.888	1.5	454.137	n/a	-1.0	2.386	columbia_card_task_fmri	n/a	n/a	-1.0	n/a	n/a	n/a	n/a	n/a	n/a	n/a	n/a	ITI	poldrack-single-stim	s541	False	0
456.528	2.178	458.706	2.174943793226504	draw_card	2.178	columbia_card_task_fmri	16.0	0.8333333333333334	89.0	-70.0	0.1666666666666666	6.0	1.0	1.0	-0.7988191748214248	2.178	n/a	stim	poldrack-single-stim	s541	False	1
458.71	0.437	459.147	-0.691722873440163	draw_card	0.437	columbia_card_task_fmri	16.0	0.8	89.0	-70.0	0.2	6.0	2.0	1.0	1.550597905465139	0.437	n/a	stim	poldrack-single-stim	s541	False	1
459.15	0.921	460.071	-4.991722873440164	end_round	0.921	columbia_card_task_fmri	16.0	0.75	71.0	-70.0	0.25	6.0	3.0	1.0	4.38940403018335	0.921	2.0	stim	poldrack-single-stim	s541	False	1
460.829	1.5	460.078	n/a	-1.0	2.59	columbia_card_task_fmri	n/a	n/a	-1.0	n/a	n/a	n/a	n/a	n/a	n/a	n/a	n/a	ITI	poldrack-single-stim	s541	False	0
462.672	1.831	464.503	2.758277126559836	draw_card	1.831	columbia_card_task_fmri	23.0	0.75	89.0	-60.0	0.25	8.0	1.0	2.0	3.09049128258242	1.831	n/a	stim	poldrack-single-stim	s541	False	1
464.506	0.573	465.079	-0.2060085877258755	draw_card	0.573	columbia_card_task_fmri	23.0	0.7142857142857143	89.0	-60.0	0.2857142857142857	8.0	2.0	2.0	4.6458659136478175	0.573	2.0	stim	poldrack-single-stim	s541	False	0
465.838	1.5	465.087	n/a	-1.0	2.658	columbia_card_task_fmri	n/a	n/a	-1.0	n/a	n/a	n/a	n/a	n/a	n/a	n/a	n/a	ITI	poldrack-single-stim	s541	False	0
467.749	1.725	469.474	3.258277126559836	draw_card	1.725	columbia_card_task_fmri	27.0	0.75	89.0	-70.0	0.25	8.0	1.0	2.0	9.152150437414726	1.725	n/a	stim	poldrack-single-stim	s541	False	1
469.478	3.834	473.312	-0.206008587725879	end_round	3.834	columbia_card_task_fmri	27.0	0.7142857142857143	71.0	-70.0	0.2857142857142857	8.0	2.0	2.0	10.969924074465524	3.834	1.0	stim	poldrack-single-stim	s541	False	1
474.068	1.5	473.317	n/a	-1.0	2.386	columbia_card_task_fmri	n/a	n/a	-1.0	n/a	n/a	n/a	n/a	n/a	n/a	n/a	n/a	ITI	poldrack-single-stim	s541	False	0
475.707	2.311	478.018	-1.491722873440162	draw_card	2.311	columbia_card_task_fmri	16.0	0.7777777777777778	89.0	-65.0	0.2222222222222222	9.0	1.0	2.0	0.8255952255466354	2.311	1.0	stim	poldrack-single-stim	s541	False	0
478.777	1.5	478.026	n/a	-1.0	2.386	columbia_card_task_fmri	n/a	n/a	-1.0	n/a	n/a	n/a	n/a	n/a	n/a	n/a	n/a	ITI	poldrack-single-stim	s541	False	0
480.418	2.455	482.873	3.708277126559837	draw_card	2.455	columbia_card_task_fmri	13.0	0.9	89.0	-85.0	0.1	10.0	1.0	1.0	-3.448763608373248	2.455	n/a	stim	poldrack-single-stim	s541	False	1
482.876	1.236	484.112	2.6193882376709468	end_round	1.236	columbia_card_task_fmri	13.0	0.8888888888888888	71.0	-85.0	0.1111111111111111	10.0	2.0	1.0	-2.0505343706162016	1.236	1.0	stim	poldrack-single-stim	s541	False	1
484.867	1.5	484.116	n/a	-1.0	2.25	columbia_card_task_fmri	n/a	n/a	-1.0	n/a	n/a	n/a	n/a	n/a	n/a	n/a	n/a	ITI	poldrack-single-stim	s541	False	0
486.374	1.786	488.16	-1.291722873440163	draw_card	1.786	columbia_card_task_fmri	14.0	0.8	89.0	-65.0	0.2	10.0	1.0	2.0	-1.2490694303440932	1.786	n/a	stim	poldrack-single-stim	s541	False	1
488.165	0.694	488.859	-3.047278428995717	draw_card	0.694	columbia_card_task_fmri	14.0	0.7777777777777778	89.0	-65.0	0.2222222222222222	10.0	2.0	2.0	-0.0057870999535438	0.694	2.0	stim	poldrack-single-stim	s541	False	0
489.614	1.5	488.863	n/a	-1.0	2.318	columbia_card_task_fmri	n/a	n/a	-1.0	n/a	n/a	n/a	n/a	n/a	n/a	n/a	n/a	ITI	poldrack-single-stim	s541	False	0
491.185	1.618	492.803	0.1082771265598376	draw_card	1.618	columbia_card_task_fmri	17.0	0.8	89.0	-70.0	0.2	10.0	1.0	2.0	1.9505547512569308	1.618	n/a	stim	poldrack-single-stim	s541	False	1
492.807	0.567	493.374	-1.825056206773496	draw_card	0.567	columbia_card_task_fmri	17.0	0.7777777777777778	89.0	-70.0	0.2222222222222222	10.0	2.0	2.0	3.3197689823409604	0.567	n/a	stim	poldrack-single-stim	s541	False	1
493.378	0.528	493.906	-4.241722873440164	end_round	0.528	columbia_card_task_fmri	17.0	0.75	71.0	-70.0	0.25	10.0	3.0	2.0	4.822376866979411	0.528	2.0	stim	poldrack-single-stim	s541	False	1
494.663	1.5	493.912	n/a	-1.0	2.25	columbia_card_task_fmri	n/a	n/a	-1.0	n/a	n/a	n/a	n/a	n/a	n/a	n/a	n/a	ITI	poldrack-single-stim	s541	False	0
496.168	3.714	499.882	-1.1583895401068298	draw_card	3.714	columbia_card_task_fmri	13.0	0.8333333333333334	89.0	-75.0	0.1666666666666666	12.0	1.0	2.0	-0.053554763493075	3.714	n/a	stim	poldrack-single-stim	s541	False	1
499.886	1.55	501.436	-2.4917228734401657	draw_card	1.55	columbia_card_task_fmri	13.0	0.8181818181818181	89.0	-75.0	0.1818181818181818	12.0	2.0	2.0	1.0917741608649294	1.55	n/a	stim	poldrack-single-stim	s541	False	1
501.44	0.637	502.077	-4.091722873440164	end_round	0.637	columbia_card_task_fmri	13.0	0.8	71.0	-75.0	0.2	12.0	3.0	2.0	2.3505125776710614	0.637	2.0	stim	poldrack-single-stim	s541	False	1
502.834	1.5	502.083	n/a	-1.0	2.25	columbia_card_task_fmri	n/a	n/a	-1.0	n/a	n/a	n/a	n/a	n/a	n/a	n/a	n/a	ITI	poldrack-single-stim	s541	False	0
504.338	1.716	506.054	0.508277126559838	draw_card	1.716	columbia_card_task_fmri	14.0	0.8333333333333334	89.0	-70.0	0.1666666666666666	12.0	1.0	2.0	-1.5440792259838858	1.716	n/a	stim	poldrack-single-stim	s541	False	1
506.058	0.524	506.582	-0.7644501461674389	draw_card	0.524	columbia_card_task_fmri	14.0	0.8181818181818181	89.0	-70.0	0.1818181818181818	12.0	2.0	2.0	-0.4508230746374551	0.524	n/a	stim	poldrack-single-stim	s541	False	1
506.586	1.755	508.341	-2.291722873440163	draw_card	1.755	columbia_card_task_fmri	14.0	0.8	89.0	-70.0	0.2	12.0	3.0	2.0	0.7506872958062587	1.755	3.0	stim	poldrack-single-stim	s541	False	0
509.098	1.5	508.347	n/a	-1.0	2.386	columbia_card_task_fmri	n/a	n/a	-1.0	n/a	n/a	n/a	n/a	n/a	n/a	n/a	n/a	ITI	poldrack-single-stim	s541	False	0
510.739	1.439	512.178	0.508277126559838	draw_card	1.439	columbia_card_task_fmri	16.0	0.8333333333333334	89.0	-80.0	0.1666666666666666	12.0	1.0	2.0	2.9275410344678363	1.439	n/a	stim	poldrack-single-stim	s541	False	1
512.183	0.584	512.767	-0.9462683279856204	draw_card	0.584	columbia_card_task_fmri	16.0	0.8181818181818181	89.0	-80.0	0.1818181818181818	12.0	2.0	2.0	4.177013924014396	0.584	n/a	stim	poldrack-single-stim	s541	False	1
512.772	0.452	513.224	-2.6917228734401637	end_round	0.452	columbia_card_task_fmri	16.0	0.8	71.0	-80.0	0.2	12.0	3.0	2.0	5.550206814748776	0.452	2.0	stim	poldrack-single-stim	s541	False	1
513.981	1.5	513.23	n/a	-1.0	2.386	columbia_card_task_fmri	n/a	n/a	-1.0	n/a	n/a	n/a	n/a	n/a	n/a	n/a	n/a	ITI	poldrack-single-stim	s541	False	0
515.623	1.717	517.34	0.3082771265598369	draw_card	1.717	columbia_card_task_fmri	16.0	0.8	89.0	-65.0	0.2	15.0	1.0	3.0	-0.4491703432782188	1.717	n/a	stim	poldrack-single-stim	s541	False	1
517.344	0.557	517.901	-0.8488657305830196	draw_card	0.557	columbia_card_task_fmri	16.0	0.7857142857142857	89.0	-65.0	0.2142857142857142	15.0	2.0	3.0	0.3871275153156972	0.557	n/a	stim	poldrack-single-stim	s541	False	1
517.906	1.122	519.028	-2.1840305657478574	draw_card	1.122	columbia_card_task_fmri	16.0	0.7692307692307692	89.0	-65.0	0.2307692307692307	15.0	3.0	3.0	1.2779564855152188	1.122	n/a	stim	poldrack-single-stim	s541	False	1
519.033	0.52	519.553	-3.741722873440164	end_round	0.52	columbia_card_task_fmri	16.0	0.75	71.0	-65.0	0.25	15.0	4.0	3.0	2.2245546088269066	0.52	3.0	stim	poldrack-single-stim	s541	False	1
520.311	1.5	519.56	n/a	-1.0	2.726	columbia_card_task_fmri	n/a	n/a	-1.0	n/a	n/a	n/a	n/a	n/a	n/a	n/a	n/a	ITI	poldrack-single-stim	s541	False	0
522.291	1.368	523.659	-1.3667228734401635	draw_card	1.368	columbia_card_task_fmri	15.0	0.8125	89.0	-75.0	0.1875	16.0	1.0	3.0	2.278633827132552	1.368	1.0	stim	poldrack-single-stim	s541	False	0
524.417	1.5	523.666	n/a	-1.0	2.454	columbia_card_task_fmri	n/a	n/a	-1.0	n/a	n/a	n/a	n/a	n/a	n/a	n/a	n/a	ITI	poldrack-single-stim	s541	False	0
526.126	1.665	527.791	-0.8042228734401637	draw_card	1.665	columbia_card_task_fmri	14.0	0.6875	89.0	-35.0	0.3125	16.0	1.0	5.0	-10.135362359639789	1.665	n/a	stim	poldrack-single-stim	s541	False	1
527.795	1.122	528.917	-1.825056206773496	draw_card	1.122	columbia_card_task_fmri	14.0	0.6666666666666667	89.0	-35.0	0.3333333333333333	16.0	2.0	5.0	-9.748743889209068	1.122	n/a	stim	poldrack-single-stim	s541	False	1
528.92	0.436	529.356	-2.991722873440164	end_round	0.436	columbia_card_task_fmri	14.0	0.6428571428571428	71.0	-35.0	0.3571428571428571	16.0	3.0	5.0	-9.368942094998276	0.436	2.0	stim	poldrack-single-stim	s541	False	1
530.111	1.5	529.36	n/a	-1.0	2.318	columbia_card_task_fmri	n/a	n/a	-1.0	n/a	n/a	n/a	n/a	n/a	n/a	n/a	n/a	ITI	poldrack-single-stim	s541	False	0
531.683	2.521	534.204	4.374943793226503	draw_card	2.521	columbia_card_task_fmri	16.0	0.8666666666666667	89.0	-75.0	0.1333333333333333	15.0	1.0	2.0	-1.914929730960765	2.521	n/a	stim	poldrack-single-stim	s541	False	1
534.208	0.678	534.886	3.508277126559838	draw_card	0.678	columbia_card_task_fmri	16.0	0.8571428571428572	89.0	-75.0	0.1428571428571428	15.0	2.0	2.0	-1.0057340092363845	0.678	2.0	stim	poldrack-single-stim	s541	False	0
535.642	1.5	534.891	n/a	-1.0	2.318	columbia_card_task_fmri	n/a	n/a	-1.0	n/a	n/a	n/a	n/a	n/a	n/a	n/a	n/a	ITI	poldrack-single-stim	s541	False	0
537.214	1.72	538.934	5.041610459893169	draw_card	1.72	columbia_card_task_fmri	16.0	0.8666666666666667	89.0	-70.0	0.1333333333333333	15.0	1.0	2.0	-3.6143601781443806	1.72	n/a	stim	poldrack-single-stim	s541	False	1
538.938	0.449	539.387	4.222562840845551	draw_card	0.449	columbia_card_task_fmri	16.0	0.8571428571428572	89.0	-70.0	0.1428571428571428	15.0	2.0	2.0	-2.755133744130056	0.449	n/a	stim	poldrack-single-stim	s541	False	1
539.392	0.519	539.911	3.2775078957906043	end_round	0.519	columbia_card_task_fmri	16.0	0.8461538461538461	71.0	-70.0	0.1538461538461538	15.0	3.0	2.0	-1.820089951771017	0.519	2.0	stim	poldrack-single-stim	s541	False	1
540.666	1.5	539.915	n/a	-1.0	2.59	columbia_card_task_fmri	n/a	n/a	-1.0	n/a	n/a	n/a	n/a	n/a	n/a	n/a	n/a	ITI	poldrack-single-stim	s541	False	0
542.512	1.378	543.89	2.383277126559836	end_round	1.378	columbia_card_task_fmri	8.0	0.9375	71.0	-90.0	0.0625	16.0	1.0	1.0	-9.125689272776537	1.378	0.0	stim	poldrack-single-stim	s541	False	1
544.648	1.5	543.897	n/a	-1.0	2.726	columbia_card_task_fmri	n/a	n/a	-1.0	n/a	n/a	n/a	n/a	n/a	n/a	n/a	n/a	ITI	poldrack-single-stim	s541	False	0
546.628	3.861	550.489	3.945777126559836	draw_card	3.861	columbia_card_task_fmri	10.0	0.9375	89.0	-95.0	0.0625	16.0	1.0	1.0	-7.431621960002822	3.861	n/a	stim	poldrack-single-stim	s541	False	1
550.493	0.526	551.019	3.508277126559837	end_round	0.526	columbia_card_task_fmri	10.0	0.9333333333333332	71.0	-95.0	0.0666666666666666	16.0	2.0	1.0	-6.656623829100919	0.526	1.0	stim	poldrack-single-stim	s541	False	1
551.774	1.5	551.023	n/a	-1.0	2.522	columbia_card_task_fmri	n/a	n/a	-1.0	n/a	n/a	n/a	n/a	n/a	n/a	n/a	n/a	ITI	poldrack-single-stim	s541	False	0
553.551	1.39	554.941	4.883277126559836	draw_card	1.39	columbia_card_task_fmri	15.0	0.875	89.0	-70.0	0.125	16.0	1.0	2.0	-4.737454527780468	1.39	1.0	stim	poldrack-single-stim	s541	False	0
555.696	1.5	554.945	n/a	-1.0	3.134	columbia_card_task_fmri	n/a	n/a	-1.0	n/a	n/a	n/a	n/a	n/a	n/a	n/a	n/a	ITI	poldrack-single-stim	s541	False	0
558.084	1.918	560.002	3.883277126559836	draw_card	1.918	columbia_card_task_fmri	16.0	0.875	89.0	-85.0	0.125	16.0	1.0	2.0	0.5533203123807695	1.918	n/a	stim	poldrack-single-stim	s541	False	1
560.006	1.174	561.18	3.041610459893169	draw_card	1.174	columbia_card_task_fmri	16.0	0.8666666666666667	89.0	-85.0	0.1333333333333333	16.0	2.0	2.0	1.484003246677446	1.174	n/a	stim	poldrack-single-stim	s541	False	1
561.185	0.497	561.682	2.079705697988409	end_round	0.497	columbia_card_task_fmri	16.0	0.8571428571428572	71.0	-85.0	0.1428571428571428	16.0	3.0	2.0	2.493135486976179	0.497	2.0	stim	poldrack-single-stim	s541	False	1
562.439	1.5	561.688	n/a	-1.0	2.386	columbia_card_task_fmri	n/a	n/a	-1.0	n/a	n/a	n/a	n/a	n/a	n/a	n/a	n/a	ITI	poldrack-single-stim	s541	False	0
