onset	duration	movement_onset	CTI	block_duration	correct	correct_response	cue	cue_switch	experiment_exp_id	key_press	response_time	stim_color	stim_number	switch_type	task	task_switch	trial_id	trial_type	worker_id	first_trial_of_block	junk
3.629	1.0	4.534	0.1	2.272	True	89.0	Magnitude	stay	twobytwo	89.0	0.805	blue	6.0	cue_stay	magnitude	stay	stim	poldrack-single-stim	s541	1	False
6.011	1.0	6.837	0.1	2.136	False	71.0	Color	n/a	twobytwo	89.0	0.726	orange	9.0	task_switch	color	switch	stim	poldrack-single-stim	s541	0	False
8.259	1.0	9.31	0.1	2.0	True	71.0	Orange-Blue	switch	twobytwo	71.0	0.951	orange	1.0	cue_switch	color	stay	stim	poldrack-single-stim	s541	0	False
11.165	1.0	12.582	0.9	2.0	True	89.0	High-Low	n/a	twobytwo	89.0	0.517	orange	7.0	task_switch	magnitude	switch	stim	poldrack-single-stim	s541	0	False
13.275	1.0	14.083	0.1	2.136	True	89.0	Orange-Blue	n/a	twobytwo	89.0	0.708	blue	8.0	task_switch	color	switch	stim	poldrack-single-stim	s541	0	False
15.519	1.0	16.344	0.1	2.0	True	89.0	High-Low	n/a	twobytwo	89.0	0.725	orange	6.0	task_switch	magnitude	switch	stim	poldrack-single-stim	s541	0	False
18.427	1.0	19.74	0.9	2.136	True	71.0	Orange-Blue	n/a	twobytwo	71.0	0.413	orange	6.0	task_switch	color	switch	stim	poldrack-single-stim	s541	0	False
20.673	1.0	21.408	0.1	2.408	True	89.0	Orange-Blue	stay	twobytwo	89.0	0.635	blue	7.0	cue_stay	color	stay	stim	poldrack-single-stim	s541	0	False
23.99	1.0	25.387	0.9	2.136	True	71.0	Magnitude	n/a	twobytwo	71.0	0.497	blue	2.0	task_switch	magnitude	switch	stim	poldrack-single-stim	s541	0	False
26.238	1.0	27.095	0.1	2.0	True	71.0	Color	n/a	twobytwo	71.0	0.757	orange	4.0	task_switch	color	switch	stim	poldrack-single-stim	s541	0	False
29.145	1.0	30.491	0.9	2.136	True	89.0	High-Low	n/a	twobytwo	89.0	0.446	orange	9.0	task_switch	magnitude	switch	stim	poldrack-single-stim	s541	0	False
32.19	1.0	33.635	0.9	2.272	True	71.0	High-Low	stay	twobytwo	71.0	0.545	blue	4.0	cue_stay	magnitude	stay	stim	poldrack-single-stim	s541	0	False
34.574	1.0	35.423	0.1	2.0	True	89.0	Color	n/a	twobytwo	89.0	0.749	blue	1.0	task_switch	color	switch	stim	poldrack-single-stim	s541	0	False
37.483	1.0	38.957	0.9	2.408	True	89.0	Magnitude	n/a	twobytwo	89.0	0.574	orange	6.0	task_switch	magnitude	switch	stim	poldrack-single-stim	s541	0	False
40.799	1.0	42.21	0.9	2.0	True	71.0	High-Low	switch	twobytwo	71.0	0.511	orange	1.0	cue_switch	magnitude	stay	stim	poldrack-single-stim	s541	0	False
43.708	1.0	45.009	0.9	2.136	True	71.0	Color	n/a	twobytwo	71.0	0.401	orange	9.0	task_switch	color	switch	stim	poldrack-single-stim	s541	0	False
46.748	1.0	48.574	0.9	2.408	False	71.0	Magnitude	n/a	twobytwo	89.0	0.926	blue	2.0	task_switch	magnitude	switch	stim	poldrack-single-stim	s541	0	False
50.066	1.0	51.55	0.9	2.136	True	89.0	Color	n/a	twobytwo	89.0	0.584	blue	7.0	task_switch	color	switch	stim	poldrack-single-stim	s541	0	False
53.111	1.0	54.529	0.9	2.408	True	89.0	High-Low	n/a	twobytwo	89.0	0.518	orange	6.0	task_switch	magnitude	switch	stim	poldrack-single-stim	s541	0	False
55.632	1.0	56.376	0.1	2.136	True	71.0	Orange-Blue	n/a	twobytwo	71.0	0.644	orange	4.0	task_switch	color	switch	stim	poldrack-single-stim	s541	0	False
58.677	1.0	59.977	0.9	2.0	True	89.0	Color	switch	twobytwo	89.0	0.4	blue	7.0	cue_switch	color	stay	stim	poldrack-single-stim	s541	0	False
61.587	1.0	62.954	0.9	2.272	True	71.0	Color	stay	twobytwo	71.0	0.467	orange	7.0	cue_stay	color	stay	stim	poldrack-single-stim	s541	0	False
63.964	1.0	64.733	0.1	2.0	True	89.0	Magnitude	n/a	twobytwo	89.0	0.669	blue	7.0	task_switch	magnitude	switch	stim	poldrack-single-stim	s541	0	False
66.074	1.0	67.096	0.1	2.272	True	89.0	Orange-Blue	n/a	twobytwo	89.0	0.922	blue	1.0	task_switch	color	switch	stim	poldrack-single-stim	s541	0	False
69.258	1.0	70.757	0.9	2.272	True	89.0	Color	switch	twobytwo	89.0	0.599	blue	8.0	cue_switch	color	stay	stim	poldrack-single-stim	s541	0	False
71.64	1.0	72.558	0.1	2.952	False	89.0	Orange-Blue	switch	twobytwo	71.0	0.818	blue	1.0	cue_switch	color	stay	stim	poldrack-single-stim	s541	0	False
74.701	1.0	75.987	0.1	2.68	False	71.0	Orange-Blue	stay	twobytwo	89.0	1.186	orange	1.0	cue_stay	color	stay	stim	poldrack-single-stim	s541	0	False
78.291	1.0	79.994	0.9	2.136	True	71.0	Orange-Blue	stay	twobytwo	71.0	0.803	orange	4.0	cue_stay	color	stay	stim	poldrack-single-stim	s541	0	False
81.339	1.0	82.697	0.9	2.272	True	71.0	Orange-Blue	stay	twobytwo	71.0	0.458	orange	8.0	cue_stay	color	stay	stim	poldrack-single-stim	s541	0	False
84.523	1.0	85.882	0.9	2.272	True	89.0	Color	switch	twobytwo	89.0	0.459	blue	2.0	cue_switch	color	stay	stim	poldrack-single-stim	s541	0	False
87.703	1.0	89.675	0.9	2.136	True	71.0	Magnitude	n/a	twobytwo	71.0	1.072	blue	3.0	task_switch	magnitude	switch	stim	poldrack-single-stim	s541	0	False
90.744	1.0	92.242	0.9	2.408	True	89.0	High-Low	switch	twobytwo	89.0	0.598	blue	9.0	cue_switch	magnitude	stay	stim	poldrack-single-stim	s541	0	False
94.062	1.0	95.643	0.9	2.136	True	89.0	Magnitude	switch	twobytwo	89.0	0.681	orange	7.0	cue_switch	magnitude	stay	stim	poldrack-single-stim	s541	0	False
96.308	1.0	97.354	0.1	2.136	True	71.0	High-Low	switch	twobytwo	71.0	0.946	orange	3.0	cue_switch	magnitude	stay	stim	poldrack-single-stim	s541	0	False
99.354	1.0	100.861	0.9	2.0	True	89.0	Magnitude	switch	twobytwo	89.0	0.607	orange	8.0	cue_switch	magnitude	stay	stim	poldrack-single-stim	s541	0	False
102.26	1.0	103.716	0.9	2.0	True	89.0	Magnitude	stay	twobytwo	89.0	0.556	blue	9.0	cue_stay	magnitude	stay	stim	poldrack-single-stim	s541	0	False
105.168	1.0	106.658	0.9	2.0	True	89.0	High-Low	switch	twobytwo	89.0	0.59	blue	8.0	cue_switch	magnitude	stay	stim	poldrack-single-stim	s541	0	False
108.076	1.0	109.415	0.9	2.0	True	89.0	Magnitude	switch	twobytwo	89.0	0.439	blue	9.0	cue_switch	magnitude	stay	stim	poldrack-single-stim	s541	0	False
110.983	1.0	112.301	0.9	2.0	True	71.0	High-Low	switch	twobytwo	71.0	0.418	orange	2.0	cue_switch	magnitude	stay	stim	poldrack-single-stim	s541	0	False
113.889	1.0	115.303	0.9	2.272	True	89.0	Magnitude	switch	twobytwo	89.0	0.514	orange	8.0	cue_switch	magnitude	stay	stim	poldrack-single-stim	s541	0	False
116.271	1.0	117.091	0.1	2.408	True	71.0	High-Low	switch	twobytwo	71.0	0.72	blue	3.0	cue_switch	magnitude	stay	stim	poldrack-single-stim	s541	0	False
118.785	1.0	119.538	0.1	2.0	True	89.0	High-Low	stay	twobytwo	89.0	0.653	blue	7.0	cue_stay	magnitude	stay	stim	poldrack-single-stim	s541	0	False
120.895	1.0	121.833	0.1	2.136	True	89.0	Color	n/a	twobytwo	89.0	0.838	blue	2.0	task_switch	color	switch	stim	poldrack-single-stim	s541	0	False
123.943	1.0	125.217	0.9	2.0	True	71.0	Orange-Blue	switch	twobytwo	71.0	0.374	orange	4.0	cue_switch	color	stay	stim	poldrack-single-stim	s541	0	False
126.852	1.0	128.298	0.9	2.136	True	89.0	Magnitude	n/a	twobytwo	89.0	0.546	blue	9.0	task_switch	magnitude	switch	stim	poldrack-single-stim	s541	0	False
129.895	1.0	131.347	0.9	2.544	True	71.0	Color	n/a	twobytwo	71.0	0.552	orange	8.0	task_switch	color	switch	stim	poldrack-single-stim	s541	0	False
133.345	1.0	135.122	0.9	2.68	True	71.0	Magnitude	n/a	twobytwo	71.0	0.877	blue	3.0	task_switch	magnitude	switch	stim	poldrack-single-stim	s541	0	False
136.134	1.0	137.088	0.1	3.088	True	71.0	High-Low	switch	twobytwo	71.0	0.854	blue	4.0	cue_switch	magnitude	stay	stim	poldrack-single-stim	s541	0	False
140.128	1.0	141.585	0.9	2.136	True	89.0	Magnitude	switch	twobytwo	89.0	0.557	orange	9.0	cue_switch	magnitude	stay	stim	poldrack-single-stim	s541	0	False
142.375	1.0	143.201	0.1	2.544	True	89.0	High-Low	switch	twobytwo	89.0	0.726	blue	8.0	cue_switch	magnitude	stay	stim	poldrack-single-stim	s541	0	False
145.026	1.0	145.703	0.1	2.0	True	89.0	Magnitude	switch	twobytwo	89.0	0.577	blue	9.0	cue_switch	magnitude	stay	stim	poldrack-single-stim	s541	0	False
147.136	1.0	147.867	0.1	2.136	True	71.0	Orange-Blue	n/a	twobytwo	71.0	0.631	orange	1.0	task_switch	color	switch	stim	poldrack-single-stim	s541	0	False
150.184	1.0	151.572	0.9	2.0	True	71.0	Magnitude	n/a	twobytwo	71.0	0.488	orange	1.0	task_switch	magnitude	switch	stim	poldrack-single-stim	s541	0	False
153.093	1.0	154.442	0.9	2.408	True	89.0	Orange-Blue	n/a	twobytwo	89.0	0.449	blue	7.0	task_switch	color	switch	stim	poldrack-single-stim	s541	0	False
155.608	1.0	156.368	0.1	2.0	True	89.0	Color	switch	twobytwo	89.0	0.66	blue	6.0	cue_switch	color	stay	stim	poldrack-single-stim	s541	0	False
157.715	1.0	158.636	0.1	2.0	True	89.0	Color	stay	twobytwo	89.0	0.821	blue	1.0	cue_stay	color	stay	stim	poldrack-single-stim	s541	0	False
159.822	1.0	160.746	0.1	2.0	True	71.0	High-Low	n/a	twobytwo	71.0	0.824	blue	2.0	task_switch	magnitude	switch	stim	poldrack-single-stim	s541	0	False
161.931	1.0	162.714	0.1	2.68	True	89.0	High-Low	stay	twobytwo	89.0	0.683	blue	7.0	cue_stay	magnitude	stay	stim	poldrack-single-stim	s541	0	False
165.523	1.0	167.083	0.9	2.272	True	89.0	Magnitude	switch	twobytwo	89.0	0.66	blue	7.0	cue_switch	magnitude	stay	stim	poldrack-single-stim	s541	0	False
168.705	1.0	170.244	0.9	2.408	True	71.0	Magnitude	stay	twobytwo	71.0	0.639	blue	2.0	cue_stay	magnitude	stay	stim	poldrack-single-stim	s541	0	False
172.022	1.0	173.568	0.9	3.224	True	71.0	Magnitude	stay	twobytwo	71.0	0.646	orange	1.0	cue_stay	magnitude	stay	stim	poldrack-single-stim	s541	0	False
176.156	1.0	177.484	0.9	2.408	False	71.0	Color	n/a	twobytwo	89.0	0.428	orange	6.0	task_switch	color	switch	stim	poldrack-single-stim	s541	0	False
179.475	1.0	180.899	0.9	2.816	True	89.0	Magnitude	n/a	twobytwo	89.0	0.524	blue	9.0	task_switch	magnitude	switch	stim	poldrack-single-stim	s541	0	False
183.201	1.0	185.11	0.9	2.408	True	89.0	Orange-Blue	n/a	twobytwo	89.0	1.009	blue	7.0	task_switch	color	switch	stim	poldrack-single-stim	s541	0	False
186.519	1.0	187.99	0.9	2.136	True	89.0	Magnitude	n/a	twobytwo	89.0	0.571	blue	7.0	task_switch	magnitude	switch	stim	poldrack-single-stim	s541	0	False
188.764	1.0	189.483	0.1	2.136	True	71.0	Magnitude	stay	twobytwo	71.0	0.619	orange	4.0	cue_stay	magnitude	stay	stim	poldrack-single-stim	s541	0	False
191.012	1.0	191.861	0.1	2.0	True	71.0	High-Low	switch	twobytwo	71.0	0.749	orange	2.0	cue_switch	magnitude	stay	stim	poldrack-single-stim	s541	0	False
193.119	1.0	193.87	0.1	2.0	True	71.0	Magnitude	switch	twobytwo	71.0	0.651	orange	1.0	cue_switch	magnitude	stay	stim	poldrack-single-stim	s541	0	False
195.231	1.0	196.139	0.1	2.272	True	71.0	Orange-Blue	n/a	twobytwo	71.0	0.808	orange	7.0	task_switch	color	switch	stim	poldrack-single-stim	s541	0	False
197.612	1.0	198.327	0.1	2.408	True	89.0	Magnitude	n/a	twobytwo	89.0	0.615	orange	8.0	task_switch	magnitude	switch	stim	poldrack-single-stim	s541	0	False
200.132	1.0	201.118	0.1	2.0	True	89.0	Orange-Blue	n/a	twobytwo	89.0	0.886	blue	6.0	task_switch	color	switch	stim	poldrack-single-stim	s541	0	False
203.037	1.0	204.498	0.9	2.136	True	89.0	Color	switch	twobytwo	89.0	0.561	blue	4.0	cue_switch	color	stay	stim	poldrack-single-stim	s541	0	False
206.079	1.0	207.538	0.9	2.0	True	71.0	High-Low	n/a	twobytwo	71.0	0.559	blue	1.0	task_switch	magnitude	switch	stim	poldrack-single-stim	s541	0	False
208.989	1.0	210.501	0.9	2.408	True	71.0	Orange-Blue	n/a	twobytwo	71.0	0.612	orange	1.0	task_switch	color	switch	stim	poldrack-single-stim	s541	0	False
211.503	1.0	212.385	0.1	2.272	True	71.0	Color	switch	twobytwo	71.0	0.782	orange	9.0	cue_switch	color	stay	stim	poldrack-single-stim	s541	0	False
213.887	1.0	214.642	0.1	2.0	True	89.0	High-Low	n/a	twobytwo	89.0	0.655	orange	7.0	task_switch	magnitude	switch	stim	poldrack-single-stim	s541	0	False
216.794	1.0	218.412	0.9	2.272	True	89.0	Magnitude	switch	twobytwo	89.0	0.718	blue	8.0	cue_switch	magnitude	stay	stim	poldrack-single-stim	s541	0	False
219.978	1.0	221.398	0.9	2.0	True	89.0	Color	n/a	twobytwo	89.0	0.52	blue	2.0	task_switch	color	switch	stim	poldrack-single-stim	s541	0	False
222.091	1.0	222.998	0.1	2.0	True	71.0	High-Low	n/a	twobytwo	71.0	0.807	blue	2.0	task_switch	magnitude	switch	stim	poldrack-single-stim	s541	0	False
225.003	1.0	226.431	0.9	2.272	True	71.0	High-Low	stay	twobytwo	71.0	0.528	orange	1.0	cue_stay	magnitude	stay	stim	poldrack-single-stim	s541	0	False
240.906	1.0	241.778	0.1	2.136	True	89.0	High-Low	stay	twobytwo	89.0	0.772	blue	6.0	cue_stay	magnitude	stay	stim	poldrack-single-stim	s541	1	False
243.153	1.0	244.054	0.1	2.0	True	71.0	Orange-Blue	n/a	twobytwo	71.0	0.801	orange	9.0	task_switch	color	switch	stim	poldrack-single-stim	s541	0	False
245.265	1.0	245.999	0.1	2.0	True	71.0	Color	switch	twobytwo	71.0	0.634	orange	1.0	cue_switch	color	stay	stim	poldrack-single-stim	s541	0	False
248.171	1.0	249.54	0.9	2.0	True	89.0	High-Low	n/a	twobytwo	89.0	0.469	orange	7.0	task_switch	magnitude	switch	stim	poldrack-single-stim	s541	0	False
250.278	1.0	251.163	0.1	2.0	True	89.0	Orange-Blue	n/a	twobytwo	89.0	0.785	blue	8.0	task_switch	color	switch	stim	poldrack-single-stim	s541	0	False
252.39	1.0	253.173	0.1	2.0	True	89.0	Magnitude	n/a	twobytwo	89.0	0.683	orange	6.0	task_switch	magnitude	switch	stim	poldrack-single-stim	s541	0	False
255.3	1.0	256.627	0.9	2.136	True	71.0	Color	n/a	twobytwo	71.0	0.427	orange	6.0	task_switch	color	switch	stim	poldrack-single-stim	s541	0	False
257.548	1.0	258.303	0.1	2.0	True	89.0	Color	stay	twobytwo	89.0	0.655	blue	7.0	cue_stay	color	stay	stim	poldrack-single-stim	s541	0	False
260.455	1.0	261.874	0.9	2.0	True	71.0	Magnitude	n/a	twobytwo	71.0	0.519	blue	2.0	task_switch	magnitude	switch	stim	poldrack-single-stim	s541	0	False
262.564	1.0	263.292	0.1	2.136	True	71.0	Orange-Blue	n/a	twobytwo	71.0	0.628	orange	4.0	task_switch	color	switch	stim	poldrack-single-stim	s541	0	False
265.612	1.0	267.073	0.9	2.0	True	89.0	High-Low	n/a	twobytwo	89.0	0.561	orange	9.0	task_switch	magnitude	switch	stim	poldrack-single-stim	s541	0	False
268.522	1.0	270.213	0.9	2.136	True	71.0	High-Low	stay	twobytwo	71.0	0.791	blue	4.0	cue_stay	magnitude	stay	stim	poldrack-single-stim	s541	0	False
270.767	1.0	271.705	0.1	2.68	True	89.0	Orange-Blue	n/a	twobytwo	89.0	0.838	blue	1.0	task_switch	color	switch	stim	poldrack-single-stim	s541	0	False
274.359	1.0	276.088	0.9	2.272	True	89.0	High-Low	n/a	twobytwo	89.0	0.829	orange	6.0	task_switch	magnitude	switch	stim	poldrack-single-stim	s541	0	False
277.541	1.0	278.932	0.9	2.136	True	71.0	Magnitude	switch	twobytwo	71.0	0.491	orange	1.0	cue_switch	magnitude	stay	stim	poldrack-single-stim	s541	0	False
280.583	1.0	281.955	0.9	2.0	True	71.0	Color	n/a	twobytwo	71.0	0.472	orange	9.0	task_switch	color	switch	stim	poldrack-single-stim	s541	0	False
283.489	1.0	285.108	0.9	2.136	True	71.0	High-Low	n/a	twobytwo	71.0	0.719	blue	2.0	task_switch	magnitude	switch	stim	poldrack-single-stim	s541	0	False
286.533	1.0	288.073	0.9	2.68	True	89.0	Color	n/a	twobytwo	89.0	0.64	blue	7.0	task_switch	color	switch	stim	poldrack-single-stim	s541	0	False
290.125	1.0	291.529	0.9	2.272	True	89.0	Magnitude	n/a	twobytwo	89.0	0.504	orange	6.0	task_switch	magnitude	switch	stim	poldrack-single-stim	s541	0	False
292.509	1.0	293.275	0.1	2.0	True	71.0	Orange-Blue	n/a	twobytwo	71.0	0.666	orange	4.0	task_switch	color	switch	stim	poldrack-single-stim	s541	0	False
295.416	1.0	296.788	0.9	2.0	True	89.0	Color	switch	twobytwo	89.0	0.472	blue	7.0	cue_switch	color	stay	stim	poldrack-single-stim	s541	0	False
298.325	1.0	299.63	0.9	2.136	True	71.0	Color	stay	twobytwo	71.0	0.405	orange	7.0	cue_stay	color	stay	stim	poldrack-single-stim	s541	0	False
300.568	1.0	301.265	0.1	2.0	True	89.0	High-Low	n/a	twobytwo	89.0	0.597	blue	7.0	task_switch	magnitude	switch	stim	poldrack-single-stim	s541	0	False
302.679	1.0	303.629	0.1	2.0	True	89.0	Color	n/a	twobytwo	89.0	0.85	blue	1.0	task_switch	color	switch	stim	poldrack-single-stim	s541	0	False
305.587	1.0	307.047	0.9	2.0	True	89.0	Orange-Blue	switch	twobytwo	89.0	0.56	blue	8.0	cue_switch	color	stay	stim	poldrack-single-stim	s541	0	False
307.694	1.0	308.39	0.1	2.272	True	89.0	Color	switch	twobytwo	89.0	0.596	blue	1.0	cue_switch	color	stay	stim	poldrack-single-stim	s541	0	False
310.075	1.0	310.682	0.1	2.408	True	71.0	Color	stay	twobytwo	71.0	0.507	orange	1.0	cue_stay	color	stay	stim	poldrack-single-stim	s541	0	False
313.395	1.0	314.864	0.9	2.0	True	71.0	Color	stay	twobytwo	71.0	0.569	orange	4.0	cue_stay	color	stay	stim	poldrack-single-stim	s541	0	False
316.307	1.0	317.745	0.9	2.0	True	71.0	Color	stay	twobytwo	71.0	0.538	orange	8.0	cue_stay	color	stay	stim	poldrack-single-stim	s541	0	False
319.219	1.0	320.779	0.9	2.0	True	89.0	Orange-Blue	switch	twobytwo	89.0	0.66	blue	2.0	cue_switch	color	stay	stim	poldrack-single-stim	s541	0	False
322.131	1.0	323.784	0.9	2.272	True	71.0	Magnitude	n/a	twobytwo	71.0	0.753	blue	3.0	task_switch	magnitude	switch	stim	poldrack-single-stim	s541	0	False
325.313	1.0	326.814	0.9	2.136	True	89.0	High-Low	switch	twobytwo	89.0	0.601	blue	9.0	cue_switch	magnitude	stay	stim	poldrack-single-stim	s541	0	False
328.361	1.0	329.89	0.9	2.0	True	89.0	Magnitude	switch	twobytwo	89.0	0.629	orange	7.0	cue_switch	magnitude	stay	stim	poldrack-single-stim	s541	0	False
330.468	1.0	331.231	0.1	2.544	True	71.0	High-Low	switch	twobytwo	71.0	0.663	orange	3.0	cue_switch	magnitude	stay	stim	poldrack-single-stim	s541	0	False
333.919	1.0	335.257	0.9	2.272	True	89.0	Magnitude	switch	twobytwo	89.0	0.438	orange	8.0	cue_switch	magnitude	stay	stim	poldrack-single-stim	s541	0	False
337.103	1.0	338.604	0.9	2.272	True	89.0	Magnitude	stay	twobytwo	89.0	0.601	blue	9.0	cue_stay	magnitude	stay	stim	poldrack-single-stim	s541	0	False
340.287	1.0	341.731	0.9	2.0	True	89.0	High-Low	switch	twobytwo	89.0	0.544	blue	8.0	cue_switch	magnitude	stay	stim	poldrack-single-stim	s541	0	False
343.199	1.0	344.707	0.9	2.0	True	89.0	Magnitude	switch	twobytwo	89.0	0.608	blue	9.0	cue_switch	magnitude	stay	stim	poldrack-single-stim	s541	0	False
346.108	1.0	347.435	0.9	2.136	True	71.0	High-Low	switch	twobytwo	71.0	0.427	orange	2.0	cue_switch	magnitude	stay	stim	poldrack-single-stim	s541	0	False
349.157	1.0	350.595	0.9	2.0	True	89.0	Magnitude	switch	twobytwo	89.0	0.538	orange	8.0	cue_switch	magnitude	stay	stim	poldrack-single-stim	s541	0	False
351.265	1.0	352.038	0.1	2.136	True	71.0	High-Low	switch	twobytwo	71.0	0.673	blue	3.0	cue_switch	magnitude	stay	stim	poldrack-single-stim	s541	0	False
353.509	1.0	354.201	0.1	2.272	True	89.0	High-Low	stay	twobytwo	89.0	0.592	blue	7.0	cue_stay	magnitude	stay	stim	poldrack-single-stim	s541	0	False
355.89	1.0	356.822	0.1	2.136	True	89.0	Color	n/a	twobytwo	89.0	0.832	blue	2.0	task_switch	color	switch	stim	poldrack-single-stim	s541	0	False
358.938	1.0	360.343	0.9	2.272	True	71.0	Orange-Blue	switch	twobytwo	71.0	0.505	orange	4.0	cue_switch	color	stay	stim	poldrack-single-stim	s541	0	False
362.122	1.0	363.647	0.9	2.0	True	89.0	High-Low	n/a	twobytwo	89.0	0.625	blue	9.0	task_switch	magnitude	switch	stim	poldrack-single-stim	s541	0	False
365.029	1.0	366.398	0.9	2.816	True	71.0	Orange-Blue	n/a	twobytwo	71.0	0.469	orange	8.0	task_switch	color	switch	stim	poldrack-single-stim	s541	0	False
368.752	1.0	370.294	0.9	2.408	True	71.0	High-Low	n/a	twobytwo	71.0	0.642	blue	3.0	task_switch	magnitude	switch	stim	poldrack-single-stim	s541	0	False
371.269	1.0	372.266	0.1	2.0	True	71.0	Magnitude	switch	twobytwo	71.0	0.897	blue	4.0	cue_switch	magnitude	stay	stim	poldrack-single-stim	s541	0	False
374.176	1.0	375.496	0.9	2.544	True	89.0	High-Low	switch	twobytwo	89.0	0.42	orange	9.0	cue_switch	magnitude	stay	stim	poldrack-single-stim	s541	0	False
376.829	1.0	377.601	0.1	2.136	True	89.0	Magnitude	switch	twobytwo	89.0	0.672	blue	8.0	cue_switch	magnitude	stay	stim	poldrack-single-stim	s541	0	False
379.078	1.0	379.814	0.1	2.0	True	89.0	High-Low	switch	twobytwo	89.0	0.636	blue	9.0	cue_switch	magnitude	stay	stim	poldrack-single-stim	s541	0	False
381.184	1.0	381.963	0.1	2.0	True	71.0	Orange-Blue	n/a	twobytwo	71.0	0.679	orange	1.0	task_switch	color	switch	stim	poldrack-single-stim	s541	0	False
384.094	1.0	385.576	0.9	2.136	True	71.0	Magnitude	n/a	twobytwo	71.0	0.582	orange	1.0	task_switch	magnitude	switch	stim	poldrack-single-stim	s541	0	False
387.139	1.0	388.606	0.9	2.136	True	89.0	Color	n/a	twobytwo	89.0	0.567	blue	7.0	task_switch	color	switch	stim	poldrack-single-stim	s541	0	False
389.387	1.0	390.443	0.1	2.272	True	89.0	Orange-Blue	switch	twobytwo	89.0	0.956	blue	6.0	cue_switch	color	stay	stim	poldrack-single-stim	s541	0	False
391.769	1.0	392.562	0.1	3.224	True	89.0	Orange-Blue	stay	twobytwo	89.0	0.693	blue	1.0	cue_stay	color	stay	stim	poldrack-single-stim	s541	0	False
395.104	1.0	395.977	0.1	2.0	True	71.0	Magnitude	n/a	twobytwo	71.0	0.773	blue	2.0	task_switch	magnitude	switch	stim	poldrack-single-stim	s541	0	False
397.212	1.0	398.024	0.1	2.0	True	89.0	Magnitude	stay	twobytwo	89.0	0.712	blue	7.0	cue_stay	magnitude	stay	stim	poldrack-single-stim	s541	0	False
400.124	1.0	401.496	0.9	2.272	True	89.0	High-Low	switch	twobytwo	89.0	0.472	blue	7.0	cue_switch	magnitude	stay	stim	poldrack-single-stim	s541	0	False
403.305	1.0	404.711	0.9	2.136	True	71.0	High-Low	stay	twobytwo	71.0	0.506	blue	2.0	cue_stay	magnitude	stay	stim	poldrack-single-stim	s541	0	False
406.353	1.0	407.859	0.9	2.0	True	71.0	High-Low	stay	twobytwo	71.0	0.606	orange	1.0	cue_stay	magnitude	stay	stim	poldrack-single-stim	s541	0	False
409.265	1.0	410.55	0.9	2.0	True	71.0	Orange-Blue	n/a	twobytwo	71.0	0.385	orange	6.0	task_switch	color	switch	stim	poldrack-single-stim	s541	0	False
412.172	1.0	414.127	0.9	2.0	True	89.0	High-Low	n/a	twobytwo	89.0	1.055	blue	9.0	task_switch	magnitude	switch	stim	poldrack-single-stim	s541	0	False
415.081	1.0	416.403	0.9	2.68	True	89.0	Orange-Blue	n/a	twobytwo	89.0	0.422	blue	7.0	task_switch	color	switch	stim	poldrack-single-stim	s541	0	False
418.674	1.0	420.114	0.9	2.0	True	89.0	Magnitude	n/a	twobytwo	89.0	0.54	blue	7.0	task_switch	magnitude	switch	stim	poldrack-single-stim	s541	0	False
420.78	1.0	421.487	0.1	2.272	True	71.0	Magnitude	stay	twobytwo	71.0	0.607	orange	4.0	cue_stay	magnitude	stay	stim	poldrack-single-stim	s541	0	False
423.165	1.0	423.858	0.1	2.0	True	71.0	High-Low	switch	twobytwo	71.0	0.593	orange	2.0	cue_switch	magnitude	stay	stim	poldrack-single-stim	s541	0	False
425.271	1.0	425.959	0.1	2.272	True	71.0	Magnitude	switch	twobytwo	71.0	0.588	orange	1.0	cue_switch	magnitude	stay	stim	poldrack-single-stim	s541	0	False
427.653	1.0	428.392	0.1	2.952	False	71.0	Color	n/a	twobytwo	89.0	0.639	orange	7.0	task_switch	color	switch	stim	poldrack-single-stim	s541	0	False
430.717	1.0	431.866	0.1	2.0	False	89.0	Magnitude	n/a	twobytwo	71.0	1.049	orange	8.0	task_switch	magnitude	switch	stim	poldrack-single-stim	s541	0	False
432.824	1.0	433.943	0.1	2.0	True	89.0	Color	n/a	twobytwo	89.0	1.019	blue	6.0	task_switch	color	switch	stim	poldrack-single-stim	s541	0	False
435.736	1.0	437.28	0.9	2.0	True	89.0	Orange-Blue	switch	twobytwo	89.0	0.644	blue	4.0	cue_switch	color	stay	stim	poldrack-single-stim	s541	0	False
438.641	1.0	440.083	0.9	2.0	True	71.0	Magnitude	n/a	twobytwo	71.0	0.542	blue	1.0	task_switch	magnitude	switch	stim	poldrack-single-stim	s541	0	False
441.547	1.0	443.374	0.9	2.136	True	71.0	Color	n/a	twobytwo	71.0	0.927	orange	1.0	task_switch	color	switch	stim	poldrack-single-stim	s541	0	False
443.794	1.0	444.934	0.1	2.0	True	71.0	Orange-Blue	switch	twobytwo	71.0	1.04	orange	9.0	cue_switch	color	stay	stim	poldrack-single-stim	s541	0	False
445.906	1.0	446.978	0.1	2.0	True	89.0	High-Low	n/a	twobytwo	89.0	0.972	orange	7.0	task_switch	magnitude	switch	stim	poldrack-single-stim	s541	0	False
448.813	1.0	450.393	0.9	2.0	True	89.0	Magnitude	switch	twobytwo	89.0	0.68	blue	8.0	cue_switch	magnitude	stay	stim	poldrack-single-stim	s541	0	False
451.72	1.0	453.015	0.9	2.272	True	89.0	Color	n/a	twobytwo	89.0	0.395	blue	2.0	task_switch	color	switch	stim	poldrack-single-stim	s541	0	False
454.105	1.0	454.927	0.1	2.136	False	71.0	High-Low	n/a	twobytwo	89.0	0.722	blue	2.0	task_switch	magnitude	switch	stim	poldrack-single-stim	s541	0	False
457.15	1.0	459.125	0.9	2.0	True	71.0	High-Low	stay	twobytwo	71.0	1.075	orange	1.0	cue_stay	magnitude	stay	stim	poldrack-single-stim	s541	0	False
472.774	1.0	473.655	0.1	2.136	True	89.0	Orange-Blue	stay	twobytwo	89.0	0.781	blue	6.0	cue_stay	color	stay	stim	poldrack-single-stim	s541	1	False
475.022	1.0	475.683	0.1	2.816	True	89.0	Magnitude	n/a	twobytwo	89.0	0.561	orange	9.0	task_switch	magnitude	switch	stim	poldrack-single-stim	s541	0	False
477.948	1.0	478.659	0.1	2.408	True	71.0	High-Low	switch	twobytwo	71.0	0.611	orange	1.0	cue_switch	magnitude	stay	stim	poldrack-single-stim	s541	0	False
481.268	1.0	482.622	0.9	2.0	False	71.0	Orange-Blue	n/a	twobytwo	89.0	0.454	orange	7.0	task_switch	color	switch	stim	poldrack-single-stim	s541	0	False
483.377	1.0	484.388	0.1	2.136	True	89.0	High-Low	n/a	twobytwo	89.0	0.911	blue	8.0	task_switch	magnitude	switch	stim	poldrack-single-stim	s541	0	False
485.623	1.0	486.468	0.1	2.136	True	71.0	Color	n/a	twobytwo	71.0	0.745	orange	6.0	task_switch	color	switch	stim	poldrack-single-stim	s541	0	False
488.668	1.0	490.503	0.9	2.136	True	89.0	High-Low	n/a	twobytwo	89.0	0.935	orange	6.0	task_switch	magnitude	switch	stim	poldrack-single-stim	s541	0	False
490.911	1.0	491.627	0.1	2.544	True	89.0	High-Low	stay	twobytwo	89.0	0.616	blue	7.0	cue_stay	magnitude	stay	stim	poldrack-single-stim	s541	0	False
494.365	1.0	495.885	0.9	2.136	True	89.0	Orange-Blue	n/a	twobytwo	89.0	0.62	blue	2.0	task_switch	color	switch	stim	poldrack-single-stim	s541	0	False
496.61	1.0	497.352	0.1	2.0	True	71.0	Magnitude	n/a	twobytwo	71.0	0.642	orange	4.0	task_switch	magnitude	switch	stim	poldrack-single-stim	s541	0	False
499.519	1.0	501.073	0.9	2.0	True	71.0	Orange-Blue	n/a	twobytwo	71.0	0.654	orange	9.0	task_switch	color	switch	stim	poldrack-single-stim	s541	0	False
502.424	1.0	503.856	0.9	2.0	True	89.0	Orange-Blue	stay	twobytwo	89.0	0.532	blue	4.0	cue_stay	color	stay	stim	poldrack-single-stim	s541	0	False
504.53	1.0	505.375	0.1	2.0	True	71.0	Magnitude	n/a	twobytwo	71.0	0.745	blue	1.0	task_switch	magnitude	switch	stim	poldrack-single-stim	s541	0	False
507.437	1.0	508.821	0.9	2.136	True	71.0	Color	n/a	twobytwo	71.0	0.484	orange	6.0	task_switch	color	switch	stim	poldrack-single-stim	s541	0	False
510.48	1.0	511.977	0.9	2.0	True	71.0	Orange-Blue	switch	twobytwo	71.0	0.597	orange	1.0	cue_switch	color	stay	stim	poldrack-single-stim	s541	0	False
513.392	1.0	514.869	0.9	2.0	True	89.0	Magnitude	n/a	twobytwo	89.0	0.577	orange	9.0	task_switch	magnitude	switch	stim	poldrack-single-stim	s541	0	False
516.304	1.0	517.703	0.9	2.0	True	89.0	Color	n/a	twobytwo	89.0	0.499	blue	2.0	task_switch	color	switch	stim	poldrack-single-stim	s541	0	False
519.216	1.0	520.736	0.9	2.136	True	89.0	High-Low	n/a	twobytwo	89.0	0.62	blue	7.0	task_switch	magnitude	switch	stim	poldrack-single-stim	s541	0	False
522.259	1.0	523.583	0.9	2.136	True	71.0	Orange-Blue	n/a	twobytwo	71.0	0.424	orange	6.0	task_switch	color	switch	stim	poldrack-single-stim	s541	0	False
524.504	1.0	525.533	0.1	2.136	True	71.0	Magnitude	n/a	twobytwo	71.0	0.929	orange	4.0	task_switch	magnitude	switch	stim	poldrack-single-stim	s541	0	False
527.55	1.0	529.182	0.9	2.136	True	89.0	High-Low	switch	twobytwo	89.0	0.732	blue	7.0	cue_switch	magnitude	stay	stim	poldrack-single-stim	s541	0	False
530.595	1.0	532.07	0.9	2.68	True	89.0	High-Low	stay	twobytwo	89.0	0.575	orange	7.0	cue_stay	magnitude	stay	stim	poldrack-single-stim	s541	0	False
533.387	1.0	534.286	0.1	2.544	True	89.0	Color	n/a	twobytwo	89.0	0.799	blue	7.0	task_switch	color	switch	stim	poldrack-single-stim	s541	0	False
536.043	1.0	536.829	0.1	2.272	True	71.0	Magnitude	n/a	twobytwo	71.0	0.686	blue	1.0	task_switch	magnitude	switch	stim	poldrack-single-stim	s541	0	False
539.228	1.0	540.669	0.9	2.272	True	89.0	High-Low	switch	twobytwo	89.0	0.541	blue	8.0	cue_switch	magnitude	stay	stim	poldrack-single-stim	s541	0	False
541.609	1.0	542.368	0.1	2.408	True	71.0	Magnitude	switch	twobytwo	71.0	0.659	blue	1.0	cue_switch	magnitude	stay	stim	poldrack-single-stim	s541	0	False
544.126	1.0	545.181	0.1	2.136	True	71.0	Magnitude	stay	twobytwo	71.0	0.955	orange	1.0	cue_stay	magnitude	stay	stim	poldrack-single-stim	s541	0	False
547.169	1.0	548.594	0.9	2.272	False	71.0	Magnitude	stay	twobytwo	89.0	0.525	orange	4.0	cue_stay	magnitude	stay	stim	poldrack-single-stim	s541	0	False
550.348	1.0	552.038	0.9	2.0	True	89.0	Magnitude	stay	twobytwo	89.0	0.79	orange	8.0	cue_stay	magnitude	stay	stim	poldrack-single-stim	s541	0	False
553.259	1.0	554.928	0.9	2.136	True	71.0	High-Low	switch	twobytwo	71.0	0.769	blue	2.0	cue_switch	magnitude	stay	stim	poldrack-single-stim	s541	0	False
556.305	1.0	557.832	0.9	2.272	True	89.0	Orange-Blue	n/a	twobytwo	89.0	0.627	blue	3.0	task_switch	color	switch	stim	poldrack-single-stim	s541	0	False
559.49	1.0	560.902	0.9	2.0	True	89.0	Color	switch	twobytwo	89.0	0.512	blue	9.0	cue_switch	color	stay	stim	poldrack-single-stim	s541	0	False
562.399	1.0	563.727	0.9	2.68	True	71.0	Orange-Blue	switch	twobytwo	71.0	0.428	orange	7.0	cue_switch	color	stay	stim	poldrack-single-stim	s541	0	False
565.191	1.0	565.9	0.1	2.0	True	71.0	Color	switch	twobytwo	71.0	0.609	orange	3.0	cue_switch	color	stay	stim	poldrack-single-stim	s541	0	False
568.1	1.0	569.61	0.9	2.0	True	71.0	Orange-Blue	switch	twobytwo	71.0	0.61	orange	8.0	cue_switch	color	stay	stim	poldrack-single-stim	s541	0	False
571.01	1.0	572.334	0.9	2.0	True	89.0	Orange-Blue	stay	twobytwo	89.0	0.424	blue	9.0	cue_stay	color	stay	stim	poldrack-single-stim	s541	0	False
573.922	1.0	575.431	0.9	2.272	True	89.0	Color	switch	twobytwo	89.0	0.609	blue	8.0	cue_switch	color	stay	stim	poldrack-single-stim	s541	0	False
577.101	1.0	578.592	0.9	2.0	True	89.0	Orange-Blue	switch	twobytwo	89.0	0.591	blue	9.0	cue_switch	color	stay	stim	poldrack-single-stim	s541	0	False
580.013	1.0	581.351	0.9	2.0	True	71.0	Color	switch	twobytwo	71.0	0.438	orange	2.0	cue_switch	color	stay	stim	poldrack-single-stim	s541	0	False
582.925	1.0	584.413	0.9	2.0	True	71.0	Orange-Blue	switch	twobytwo	71.0	0.588	orange	8.0	cue_switch	color	stay	stim	poldrack-single-stim	s541	0	False
585.036	1.0	585.803	0.1	2.68	True	89.0	Color	switch	twobytwo	89.0	0.667	blue	3.0	cue_switch	color	stay	stim	poldrack-single-stim	s541	0	False
587.826	1.0	588.527	0.1	2.0	True	89.0	Color	stay	twobytwo	89.0	0.601	blue	7.0	cue_stay	color	stay	stim	poldrack-single-stim	s541	0	False
589.936	1.0	590.938	0.1	2.136	True	71.0	High-Low	n/a	twobytwo	71.0	0.902	blue	2.0	task_switch	magnitude	switch	stim	poldrack-single-stim	s541	0	False
592.981	1.0	594.576	0.9	2.408	True	71.0	Magnitude	switch	twobytwo	71.0	0.695	orange	4.0	cue_switch	magnitude	stay	stim	poldrack-single-stim	s541	0	False
596.299	1.0	597.868	0.9	2.136	True	89.0	Color	n/a	twobytwo	89.0	0.669	blue	9.0	task_switch	color	switch	stim	poldrack-single-stim	s541	0	False
599.347	1.0	601.179	0.9	2.0	True	89.0	High-Low	n/a	twobytwo	89.0	0.932	orange	8.0	task_switch	magnitude	switch	stim	poldrack-single-stim	s541	0	False
602.259	1.0	604.279	0.9	2.0	True	89.0	Orange-Blue	n/a	twobytwo	89.0	1.12	blue	3.0	task_switch	color	switch	stim	poldrack-single-stim	s541	0	False
604.366	1.0	605.359	0.1	2.544	True	89.0	Color	switch	twobytwo	89.0	0.893	blue	4.0	cue_switch	color	stay	stim	poldrack-single-stim	s541	0	False
607.814	1.0	609.294	0.9	2.136	True	71.0	Orange-Blue	switch	twobytwo	71.0	0.58	orange	9.0	cue_switch	color	stay	stim	poldrack-single-stim	s541	0	False
610.061	1.0	610.812	0.1	2.544	True	89.0	Color	switch	twobytwo	89.0	0.651	blue	8.0	cue_switch	color	stay	stim	poldrack-single-stim	s541	0	False
612.71	1.0	613.997	0.1	2.68	True	89.0	Orange-Blue	switch	twobytwo	89.0	1.187	blue	9.0	cue_switch	color	stay	stim	poldrack-single-stim	s541	0	False
615.499	1.0	616.24	0.1	2.0	True	71.0	Magnitude	n/a	twobytwo	71.0	0.641	orange	1.0	task_switch	magnitude	switch	stim	poldrack-single-stim	s541	0	False
618.409	1.0	619.918	0.9	2.272	True	71.0	Color	n/a	twobytwo	71.0	0.609	orange	1.0	task_switch	color	switch	stim	poldrack-single-stim	s541	0	False
621.593	1.0	623.042	0.9	3.088	True	89.0	Magnitude	n/a	twobytwo	89.0	0.549	blue	7.0	task_switch	magnitude	switch	stim	poldrack-single-stim	s541	0	False
624.792	1.0	625.693	0.1	2.0	True	89.0	High-Low	switch	twobytwo	89.0	0.801	blue	6.0	cue_switch	magnitude	stay	stim	poldrack-single-stim	s541	0	False
626.901	1.0	627.688	0.1	2.136	True	71.0	High-Low	stay	twobytwo	71.0	0.687	blue	1.0	cue_stay	magnitude	stay	stim	poldrack-single-stim	s541	0	False
629.143	1.0	629.962	0.1	2.136	True	89.0	Color	n/a	twobytwo	89.0	0.719	blue	2.0	task_switch	color	switch	stim	poldrack-single-stim	s541	0	False
631.391	1.0	632.249	0.1	2.0	True	89.0	Color	stay	twobytwo	89.0	0.758	blue	7.0	cue_stay	color	stay	stim	poldrack-single-stim	s541	0	False
634.303	1.0	635.755	0.9	2.272	True	89.0	Orange-Blue	switch	twobytwo	89.0	0.552	blue	7.0	cue_switch	color	stay	stim	poldrack-single-stim	s541	0	False
637.487	1.0	638.87	0.9	2.0	True	89.0	Orange-Blue	stay	twobytwo	89.0	0.483	blue	2.0	cue_stay	color	stay	stim	poldrack-single-stim	s541	0	False
640.397	1.0	641.686	0.9	2.136	True	71.0	Orange-Blue	stay	twobytwo	71.0	0.389	orange	1.0	cue_stay	color	stay	stim	poldrack-single-stim	s541	0	False
643.442	1.0	644.899	0.9	2.136	True	89.0	Magnitude	n/a	twobytwo	89.0	0.557	orange	6.0	task_switch	magnitude	switch	stim	poldrack-single-stim	s541	0	False
646.49	1.0	648.079	0.9	2.544	True	89.0	Color	n/a	twobytwo	89.0	0.689	blue	9.0	task_switch	color	switch	stim	poldrack-single-stim	s541	0	False
649.946	1.0	651.406	0.9	2.0	True	89.0	High-Low	n/a	twobytwo	89.0	0.56	blue	7.0	task_switch	magnitude	switch	stim	poldrack-single-stim	s541	0	False
652.855	1.0	654.341	0.9	2.136	True	89.0	Orange-Blue	n/a	twobytwo	89.0	0.586	blue	7.0	task_switch	color	switch	stim	poldrack-single-stim	s541	0	False
655.096	1.0	655.822	0.1	2.136	True	71.0	Orange-Blue	stay	twobytwo	71.0	0.626	orange	4.0	cue_stay	color	stay	stim	poldrack-single-stim	s541	0	False
657.341	1.0	658.145	0.1	2.136	True	71.0	Color	switch	twobytwo	71.0	0.704	orange	2.0	cue_switch	color	stay	stim	poldrack-single-stim	s541	0	False
659.586	1.0	660.799	0.1	2.0	True	71.0	Orange-Blue	switch	twobytwo	71.0	1.113	orange	1.0	cue_switch	color	stay	stim	poldrack-single-stim	s541	0	False
661.693	1.0	662.418	0.1	2.136	True	89.0	High-Low	n/a	twobytwo	89.0	0.625	orange	7.0	task_switch	magnitude	switch	stim	poldrack-single-stim	s541	0	False
663.941	1.0	665.204	0.1	2.0	True	71.0	Orange-Blue	n/a	twobytwo	71.0	1.163	orange	8.0	task_switch	color	switch	stim	poldrack-single-stim	s541	0	False
666.049	1.0	666.727	0.1	2.136	True	89.0	High-Low	n/a	twobytwo	89.0	0.578	blue	6.0	task_switch	magnitude	switch	stim	poldrack-single-stim	s541	0	False
669.094	1.0	670.564	0.9	2.816	True	71.0	Magnitude	switch	twobytwo	71.0	0.57	blue	4.0	cue_switch	magnitude	stay	stim	poldrack-single-stim	s541	0	False
672.819	1.0	674.459	0.9	2.136	True	89.0	Orange-Blue	n/a	twobytwo	89.0	0.74	blue	1.0	task_switch	color	switch	stim	poldrack-single-stim	s541	0	False
675.867	1.0	677.241	0.9	2.0	True	71.0	High-Low	n/a	twobytwo	71.0	0.474	orange	1.0	task_switch	magnitude	switch	stim	poldrack-single-stim	s541	0	False
677.974	1.0	678.71	0.1	2.0	True	89.0	Magnitude	switch	twobytwo	89.0	0.636	orange	9.0	cue_switch	magnitude	stay	stim	poldrack-single-stim	s541	0	False
680.086	1.0	680.919	0.1	2.272	True	71.0	Orange-Blue	n/a	twobytwo	71.0	0.733	orange	7.0	task_switch	color	switch	stim	poldrack-single-stim	s541	0	False
683.265	1.0	684.545	0.9	2.0	True	89.0	Color	switch	twobytwo	89.0	0.38	blue	8.0	cue_switch	color	stay	stim	poldrack-single-stim	s541	0	False
686.176	1.0	687.76	0.9	2.0	True	71.0	High-Low	n/a	twobytwo	71.0	0.684	blue	2.0	task_switch	magnitude	switch	stim	poldrack-single-stim	s541	0	False
688.286	1.0	689.312	0.1	2.0	True	89.0	Orange-Blue	n/a	twobytwo	89.0	0.926	blue	2.0	task_switch	color	switch	stim	poldrack-single-stim	s541	0	False
691.193	1.0	692.512	0.9	2.408	True	71.0	Orange-Blue	stay	twobytwo	71.0	0.419	orange	1.0	cue_stay	color	stay	stim	poldrack-single-stim	s541	0	False
