onset	duration	block_duration	correct	correct_response	cue	experiment_exp_id	flanker_location	flanker_middle_direction	flanker_type	key_press	response_time	trial_id	worker_id	junk
3.5120479999999996	1.7	2.1009520000000004	1.0	89.0	spatial	attention_network_task	up	left	incongruent	89	0.652	stim	s546	False
6.120863999999999	1.7	2.100136	1.0	71.0	double	attention_network_task	down	right	incongruent	71	0.548	stim	s546	False
8.725727999999998	1.7	2.100272	1.0	89.0	double	attention_network_task	up	left	incongruent	89	0.468	stim	s546	False
11.331728	1.7	2.100272	1.0	71.0	double	attention_network_task	down	right	incongruent	71	0.61	stim	s546	False
13.939	1.7	2.1	1.0	89.0	double	attention_network_task	up	left	congruent	89	0.558	stim	s546	False
16.547	1.7	2.1	1.0	71.0	spatial	attention_network_task	down	right	incongruent	71	0.44	stim	s546	False
19.152728	1.7	2.100272	1.0	71.0	spatial	attention_network_task	up	right	congruent	71	0.48	stim	s546	False
21.759	1.7	2.1	1.0	71.0	spatial	attention_network_task	down	right	congruent	71	0.497	stim	s546	False
24.364	1.7	2.1	1.0	89.0	spatial	attention_network_task	down	left	incongruent	89	0.683	stim	s546	False
26.969728	1.7	2.100272	1.0	71.0	double	attention_network_task	down	right	congruent	71	0.554	stim	s546	False
29.577	1.7	2.1	1.0	89.0	spatial	attention_network_task	down	left	incongruent	89	0.689	stim	s546	False
32.183864	1.7	2.100136	1.0	89.0	spatial	attention_network_task	up	left	congruent	89	0.442	stim	s546	False
34.790728	1.7	2.100272	1.0	89.0	spatial	attention_network_task	up	left	congruent	89	0.531	stim	s546	False
37.398	1.7	2.1	1.0	71.0	spatial	attention_network_task	down	right	congruent	71	0.424	stim	s546	False
40.005	1.7	2.1	1.0	89.0	double	attention_network_task	down	left	incongruent	89	0.646	stim	s546	False
42.61	1.7	2.1	1.0	71.0	double	attention_network_task	up	right	congruent	71	0.559	stim	s546	False
45.216	1.7	2.1	1.0	71.0	spatial	attention_network_task	up	right	incongruent	71	0.609	stim	s546	False
47.823	1.7	2.1	1.0	71.0	double	attention_network_task	down	right	congruent	71	0.497	stim	s546	False
50.43	1.7	2.1	1.0	71.0	spatial	attention_network_task	up	right	incongruent	71	0.512	stim	s546	False
53.036728000000004	1.7	2.100272	1.0	89.0	double	attention_network_task	up	left	congruent	89	0.564	stim	s546	False
55.642864	1.7	2.100136	1.0	89.0	double	attention_network_task	down	left	incongruent	89	0.544	stim	s546	False
58.248912	1.7	2.1010880000000003	1.0	89.0	double	attention_network_task	up	left	incongruent	89	0.503	stim	s546	False
60.855728000000006	1.7	2.100272	1.0	71.0	spatial	attention_network_task	down	right	congruent	71	0.399	stim	s546	False
63.461864	1.7	2.100136	1.0	89.0	spatial	attention_network_task	up	left	congruent	89	0.4	stim	s546	False
66.071864	1.7	2.100136	1.0	71.0	double	attention_network_task	up	right	congruent	71	0.567	stim	s546	False
68.678	1.7	2.1	1.0	89.0	double	attention_network_task	up	left	congruent	89	0.449	stim	s546	False
71.286	1.7	2.1	1.0	71.0	spatial	attention_network_task	down	right	incongruent	71	0.428	stim	s546	False
73.891	1.7	2.1	1.0	71.0	spatial	attention_network_task	up	right	congruent	71	0.526	stim	s546	False
76.496	1.7	2.1	1.0	71.0	double	attention_network_task	down	right	incongruent	71	0.585	stim	s546	False
79.101864	1.7	2.100136	1.0	71.0	spatial	attention_network_task	up	right	incongruent	71	0.576	stim	s546	False
81.707728	1.7	2.100272	1.0	89.0	double	attention_network_task	down	left	incongruent	89	0.408	stim	s546	False
84.315864	1.7	2.100136	1.0	71.0	spatial	attention_network_task	down	right	congruent	71	0.558	stim	s546	False
86.923864	1.7	2.100136	1.0	89.0	double	attention_network_task	down	left	congruent	89	0.484	stim	s546	False
89.529	1.7	2.1	1.0	89.0	double	attention_network_task	up	left	incongruent	89	0.468	stim	s546	False
92.134	1.7	2.1	1.0	89.0	spatial	attention_network_task	up	left	congruent	89	0.493	stim	s546	False
94.739592	1.7	2.100408	1.0	71.0	double	attention_network_task	down	right	congruent	71	0.446	stim	s546	False
97.345456	1.7	2.1005439999999997	1.0	89.0	double	attention_network_task	up	left	congruent	89	0.412	stim	s546	False
99.95259200000001	1.7	2.100408	1.0	89.0	spatial	attention_network_task	down	left	incongruent	89	0.493	stim	s546	False
102.561	1.7	2.1	1.0	89.0	spatial	attention_network_task	down	left	congruent	89	0.502	stim	s546	False
105.16659200000001	1.7	2.100408	1.0	89.0	double	attention_network_task	down	left	congruent	89	0.42	stim	s546	False
107.771	1.7	2.1	1.0	89.0	spatial	attention_network_task	down	left	congruent	89	0.5	stim	s546	False
110.376592	1.7	2.100408	1.0	89.0	spatial	attention_network_task	down	left	congruent	89	0.523	stim	s546	False
112.983	1.7	2.1	1.0	89.0	spatial	attention_network_task	up	left	incongruent	89	0.402	stim	s546	False
115.589	1.7	2.1	1.0	71.0	spatial	attention_network_task	up	right	incongruent	71	0.443	stim	s546	False
118.19359200000001	1.7	2.100408	1.0	89.0	spatial	attention_network_task	up	left	incongruent	89	0.64	stim	s546	False
120.798864	1.7	2.100136	1.0	71.0	spatial	attention_network_task	down	right	incongruent	71	0.529	stim	s546	False
123.404728	1.7	2.100272	1.0	89.0	double	attention_network_task	down	left	incongruent	89	0.498	stim	s546	False
126.01145600000001	1.7	2.1005439999999997	1.0	89.0	double	attention_network_task	up	left	incongruent	89	0.415	stim	s546	False
128.617728	1.7	2.100272	1.0	89.0	spatial	attention_network_task	up	left	incongruent	89	0.482	stim	s546	False
131.224	1.7	2.1	1.0	71.0	spatial	attention_network_task	up	right	incongruent	71	0.46	stim	s546	False
133.830592	1.7	2.100408	1.0	89.0	spatial	attention_network_task	up	left	incongruent	89	0.458	stim	s546	False
136.437	1.7	2.1	1.0	89.0	spatial	attention_network_task	down	left	congruent	89	0.44	stim	s546	False
139.044	1.7	2.1	1.0	71.0	double	attention_network_task	up	right	congruent	71	0.571	stim	s546	False
141.65045600000002	1.7	2.1005439999999997	1.0	71.0	double	attention_network_task	up	right	incongruent	71	0.42	stim	s546	False
144.255592	1.7	2.100408	1.0	89.0	spatial	attention_network_task	up	left	congruent	89	0.355	stim	s546	False
146.862	1.7	2.1	1.0	71.0	spatial	attention_network_task	down	right	congruent	71	0.435	stim	s546	False
149.46686400000002	1.7	2.100136	1.0	89.0	spatial	attention_network_task	down	left	congruent	89	0.434	stim	s546	False
152.07218400000002	1.7	2.100816	0.0	71.0	spatial	attention_network_task	down	right	incongruent	89	0.428	stim	s546	False
154.679864	1.7	2.100136	1.0	71.0	double	attention_network_task	down	right	congruent	71	0.567	stim	s546	False
157.286	1.7	2.1	1.0	71.0	spatial	attention_network_task	up	right	congruent	71	0.427	stim	s546	False
159.892864	1.7	2.100136	1.0	89.0	double	attention_network_task	down	left	incongruent	89	0.504	stim	s546	False
162.499864	1.7	2.100136	1.0	71.0	spatial	attention_network_task	down	right	incongruent	71	0.681	stim	s546	False
165.104864	1.7	2.100136	1.0	89.0	double	attention_network_task	up	left	incongruent	89	0.608	stim	s546	False
167.710456	1.7	2.1005439999999997	1.0	71.0	spatial	attention_network_task	up	right	congruent	71	0.579	stim	s546	False
180.824	1.7	2.1	1.0	71.0	spatial	attention_network_task	up	right	congruent	71	0.578	stim	s546	False
183.43072800000002	1.7	2.100272	1.0	71.0	double	attention_network_task	up	right	incongruent	71	0.764	stim	s546	False
186.037	1.7	2.1	1.0	89.0	spatial	attention_network_task	up	left	congruent	89	0.439	stim	s546	False
188.643864	1.7	2.100136	1.0	71.0	spatial	attention_network_task	down	right	congruent	71	0.515	stim	s546	False
191.249592	1.7	2.100408	1.0	89.0	double	attention_network_task	up	left	incongruent	89	0.502	stim	s546	False
193.854456	1.7	2.1005439999999997	1.0	89.0	double	attention_network_task	up	left	congruent	89	0.564	stim	s546	False
196.46	1.7	2.1	1.0	71.0	double	attention_network_task	down	right	incongruent	71	0.604	stim	s546	False
199.065864	1.7	2.100136	1.0	89.0	spatial	attention_network_task	up	left	incongruent	89	0.547	stim	s546	False
201.673864	1.7	2.100136	1.0	71.0	double	attention_network_task	up	right	incongruent	71	0.752	stim	s546	False
204.278864	1.7	2.100136	1.0	89.0	spatial	attention_network_task	up	left	incongruent	89	0.538	stim	s546	False
206.885864	1.7	2.100136	1.0	89.0	double	attention_network_task	down	left	congruent	89	0.551	stim	s546	False
209.492728	1.7	2.100272	1.0	71.0	spatial	attention_network_task	down	right	incongruent	71	0.681	stim	s546	False
212.09786400000002	1.7	2.100136	1.0	89.0	spatial	attention_network_task	up	left	incongruent	89	0.408	stim	s546	False
214.704592	1.7	2.100408	1.0	71.0	spatial	attention_network_task	up	right	incongruent	71	0.559	stim	s546	False
217.312	1.7	2.1	1.0	71.0	double	attention_network_task	down	right	incongruent	71	0.645	stim	s546	False
219.916864	1.7	2.100136	1.0	89.0	double	attention_network_task	up	left	congruent	89	0.477	stim	s546	False
222.522	1.7	2.1	1.0	71.0	spatial	attention_network_task	down	right	congruent	71	0.445	stim	s546	False
225.127864	1.7	2.100136	1.0	89.0	double	attention_network_task	up	left	incongruent	89	0.479	stim	s546	False
227.734048	1.7	2.1009520000000004	1.0	71.0	spatial	attention_network_task	up	right	congruent	71	0.526	stim	s546	False
230.341728	1.7	2.100272	1.0	89.0	double	attention_network_task	up	left	congruent	89	0.541	stim	s546	False
232.946864	1.7	2.100136	1.0	71.0	double	attention_network_task	up	right	congruent	71	0.451	stim	s546	False
235.553	1.7	2.1	1.0	71.0	double	attention_network_task	up	right	incongruent	71	0.416	stim	s546	False
238.159864	1.7	2.100136	1.0	71.0	spatial	attention_network_task	up	right	incongruent	71	0.609	stim	s546	False
240.766	1.7	2.1	1.0	89.0	double	attention_network_task	down	left	congruent	89	0.63	stim	s546	False
243.371864	1.7	2.100136	1.0	89.0	spatial	attention_network_task	down	left	incongruent	89	0.785	stim	s546	False
245.976728	1.7	2.100272	1.0	71.0	double	attention_network_task	up	right	incongruent	71	0.461	stim	s546	False
248.582728	1.7	2.100272	1.0	71.0	spatial	attention_network_task	up	right	incongruent	71	0.446	stim	s546	False
251.187864	1.7	2.100136	1.0	89.0	double	attention_network_task	down	left	congruent	89	0.433	stim	s546	False
253.793	1.7	2.1	1.0	71.0	double	attention_network_task	down	right	incongruent	71	0.629	stim	s546	False
256.400864	1.7	2.100136	1.0	71.0	double	attention_network_task	up	right	incongruent	71	0.528	stim	s546	False
259.007	1.7	2.1	1.0	71.0	spatial	attention_network_task	down	right	congruent	71	0.577	stim	s546	False
261.611728	1.7	2.100272	1.0	71.0	double	attention_network_task	down	right	congruent	71	0.673	stim	s546	False
264.218	1.7	2.1	1.0	71.0	spatial	attention_network_task	down	right	incongruent	71	0.813	stim	s546	False
266.823	1.7	2.1	1.0	89.0	spatial	attention_network_task	down	left	incongruent	89	0.672	stim	s546	False
269.429864	1.7	2.100136	1.0	89.0	spatial	attention_network_task	up	left	congruent	89	0.483	stim	s546	False
272.035728	1.7	2.100272	1.0	89.0	spatial	attention_network_task	down	left	congruent	89	0.468	stim	s546	False
274.642592	1.7	2.100408	1.0	71.0	double	attention_network_task	down	right	incongruent	71	0.592	stim	s546	False
277.25	1.7	2.1	1.0	71.0	double	attention_network_task	down	right	congruent	71	0.575	stim	s546	False
279.854864	1.7	2.100136	1.0	89.0	double	attention_network_task	down	left	congruent	89	0.534	stim	s546	False
282.460864	1.7	2.100136	1.0	89.0	spatial	attention_network_task	up	left	congruent	89	0.42	stim	s546	False
285.066	1.7	2.1	1.0	71.0	double	attention_network_task	up	right	congruent	71	0.519	stim	s546	False
287.672592	1.7	2.100408	1.0	71.0	double	attention_network_task	up	right	incongruent	71	0.388	stim	s546	False
290.279456	1.7	2.1005439999999997	1.0	71.0	spatial	attention_network_task	up	right	congruent	71	0.441	stim	s546	False
292.884864	1.7	2.100136	1.0	71.0	spatial	attention_network_task	up	right	congruent	71	0.465	stim	s546	False
295.490864	1.7	2.100136	1.0	89.0	spatial	attention_network_task	down	left	congruent	89	0.557	stim	s546	False
298.096	1.7	2.1	1.0	89.0	spatial	attention_network_task	down	left	incongruent	89	0.529	stim	s546	False
300.702	1.7	2.1	1.0	89.0	double	attention_network_task	down	left	congruent	89	0.577	stim	s546	False
303.306864	1.7	2.100136	1.0	71.0	double	attention_network_task	up	right	congruent	71	0.512	stim	s546	False
305.913	1.7	2.1	1.0	71.0	double	attention_network_task	down	right	congruent	71	0.504	stim	s546	False
308.520864	1.7	2.100136	1.0	71.0	double	attention_network_task	up	right	congruent	71	0.446	stim	s546	False
311.128	1.7	2.1	1.0	89.0	double	attention_network_task	up	left	congruent	89	0.446	stim	s546	False
313.733592	1.7	2.100408	1.0	89.0	spatial	attention_network_task	down	left	congruent	89	0.57	stim	s546	False
316.34	1.7	2.1	1.0	89.0	spatial	attention_network_task	down	left	incongruent	89	0.56	stim	s546	False
318.946184	1.7	2.100816	1.0	71.0	double	attention_network_task	down	right	incongruent	71	0.753	stim	s546	False
321.55232	1.7	2.1006799999999997	1.0	89.0	spatial	attention_network_task	up	left	congruent	89	0.513	stim	s546	False
324.16	1.7	2.1	1.0	71.0	spatial	attention_network_task	up	right	congruent	71	0.552	stim	s546	False
326.766864	1.7	2.100136	1.0	89.0	spatial	attention_network_task	up	left	congruent	89	0.476	stim	s546	False
329.373864	1.7	2.100136	1.0	89.0	double	attention_network_task	up	left	incongruent	89	0.484	stim	s546	False
331.979864	1.7	2.100136	1.0	89.0	double	attention_network_task	down	left	incongruent	89	0.681	stim	s546	False
334.585	1.7	2.1	1.0	89.0	double	attention_network_task	down	left	incongruent	89	0.73	stim	s546	False
337.190864	1.7	2.100136	1.0	89.0	spatial	attention_network_task	down	left	incongruent	89	0.806	stim	s546	False
339.795048	1.7	2.1009520000000004	1.0	71.0	spatial	attention_network_task	down	right	incongruent	71	0.574	stim	s546	False
342.401864	1.7	2.100136	1.0	71.0	double	attention_network_task	up	right	incongruent	71	0.939	stim	s546	False
345.007592	1.7	2.100408	1.0	89.0	double	attention_network_task	down	left	incongruent	89	0.725	stim	s546	False
