onset	duration	movement_onset	CTI	block_duration	correct	correct_response	cue	cue_switch	experiment_exp_id	key_press	response_time	stim_color	stim_number	switch_type	task	task_switch	trial_id	trial_type	worker_id	first_trial_of_block	junk
3.612	1.0	4.416	0.1	2.136	True	89.0	Magnitude	n/a	twobytwo	89.0	0.704	blue	6.0	task_switch	magnitude	switch	stim	poldrack-single-stim	s546	1	False
6.654	1.0	7.983	0.9	2.68	True	71.0	Magnitude	stay	twobytwo	71.0	0.429	blue	4.0	cue_stay	magnitude	stay	stim	poldrack-single-stim	s546	0	False
10.241	1.0	11.637	0.9	2.544	True	71.0	High-Low	switch	twobytwo	71.0	0.496	blue	4.0	cue_switch	magnitude	stay	stim	poldrack-single-stim	s546	0	False
12.889	1.0	13.678	0.1	2.272	True	89.0	Magnitude	switch	twobytwo	89.0	0.689	orange	8.0	cue_switch	magnitude	stay	stim	poldrack-single-stim	s546	0	False
16.067	1.0	17.531	0.9	2.272	True	89.0	High-Low	switch	twobytwo	89.0	0.564	blue	8.0	cue_switch	magnitude	stay	stim	poldrack-single-stim	s546	0	False
18.444	1.0	19.55	0.1	2.408	True	71.0	Color	n/a	twobytwo	71.0	1.006	orange	6.0	task_switch	color	switch	stim	poldrack-single-stim	s546	0	False
21.756	1.0	23.036	0.9	2.136	True	89.0	Color	stay	twobytwo	89.0	0.38	blue	6.0	cue_stay	color	stay	stim	poldrack-single-stim	s546	0	False
23.996	1.0	24.997	0.1	2.272	True	71.0	High-Low	n/a	twobytwo	71.0	0.901	orange	3.0	task_switch	magnitude	switch	stim	poldrack-single-stim	s546	0	False
27.175	1.0	28.594	0.9	2.0	True	89.0	Magnitude	switch	twobytwo	89.0	0.519	orange	7.0	cue_switch	magnitude	stay	stim	poldrack-single-stim	s546	0	False
29.282	1.0	30.196	0.1	2.136	True	89.0	High-Low	switch	twobytwo	89.0	0.814	blue	6.0	cue_switch	magnitude	stay	stim	poldrack-single-stim	s546	0	False
32.324	1.0	33.761	0.9	2.272	True	89.0	High-Low	stay	twobytwo	89.0	0.537	orange	6.0	cue_stay	magnitude	stay	stim	poldrack-single-stim	s546	0	False
35.5	1.0	36.934	0.9	2.0	True	89.0	Orange-Blue	n/a	twobytwo	89.0	0.534	blue	7.0	task_switch	color	switch	stim	poldrack-single-stim	s546	0	False
38.406	1.0	39.904	0.9	2.68	True	71.0	High-Low	n/a	twobytwo	71.0	0.598	blue	3.0	task_switch	magnitude	switch	stim	poldrack-single-stim	s546	0	False
41.992	1.0	43.413	0.9	2.0	True	89.0	Magnitude	switch	twobytwo	89.0	0.521	orange	7.0	cue_switch	magnitude	stay	stim	poldrack-single-stim	s546	0	False
44.096	1.0	45.355	0.1	2.0	False	89.0	Orange-Blue	n/a	twobytwo	71.0	1.159	blue	4.0	task_switch	color	switch	stim	poldrack-single-stim	s546	0	False
46.201	1.0	47.317	0.1	2.0	True	71.0	Orange-Blue	stay	twobytwo	71.0	1.016	orange	4.0	cue_stay	color	stay	stim	poldrack-single-stim	s546	0	False
49.106	1.0	50.867	0.9	2.272	True	71.0	Magnitude	n/a	twobytwo	71.0	0.861	blue	3.0	task_switch	magnitude	switch	stim	poldrack-single-stim	s546	0	False
51.483	1.0	52.45	0.1	2.0	True	71.0	Orange-Blue	n/a	twobytwo	71.0	0.867	orange	3.0	task_switch	color	switch	stim	poldrack-single-stim	s546	0	False
53.587	1.0	54.475	0.1	2.0	True	71.0	Magnitude	n/a	twobytwo	71.0	0.788	orange	3.0	task_switch	magnitude	switch	stim	poldrack-single-stim	s546	0	False
56.495	1.0	57.948	0.9	2.0	True	71.0	Orange-Blue	n/a	twobytwo	71.0	0.553	orange	1.0	task_switch	color	switch	stim	poldrack-single-stim	s546	0	False
58.6	1.0	59.381	0.1	2.68	True	71.0	Orange-Blue	stay	twobytwo	71.0	0.681	orange	4.0	cue_stay	color	stay	stim	poldrack-single-stim	s546	0	False
61.386	1.0	62.172	0.1	2.0	True	71.0	Orange-Blue	stay	twobytwo	71.0	0.686	orange	7.0	cue_stay	color	stay	stim	poldrack-single-stim	s546	0	False
64.291	1.0	65.965	0.9	2.136	True	89.0	High-Low	n/a	twobytwo	89.0	0.774	orange	8.0	task_switch	magnitude	switch	stim	poldrack-single-stim	s546	0	False
67.331	1.0	68.827	0.9	2.408	True	89.0	Magnitude	switch	twobytwo	89.0	0.596	blue	7.0	cue_switch	magnitude	stay	stim	poldrack-single-stim	s546	0	False
69.844	1.0	70.525	0.1	2.136	True	89.0	Magnitude	stay	twobytwo	89.0	0.581	blue	9.0	cue_stay	magnitude	stay	stim	poldrack-single-stim	s546	0	False
72.885	1.0	74.259	0.9	2.0	True	71.0	Magnitude	stay	twobytwo	71.0	0.474	blue	2.0	cue_stay	magnitude	stay	stim	poldrack-single-stim	s546	0	False
74.99	1.0	75.97	0.1	2.0	True	71.0	Orange-Blue	n/a	twobytwo	71.0	0.88	orange	3.0	task_switch	color	switch	stim	poldrack-single-stim	s546	0	False
77.894	1.0	79.344	0.9	2.544	True	89.0	High-Low	n/a	twobytwo	89.0	0.55	orange	8.0	task_switch	magnitude	switch	stim	poldrack-single-stim	s546	0	False
81.343	1.0	82.866	0.9	2.136	True	89.0	High-Low	stay	twobytwo	89.0	0.623	blue	6.0	cue_stay	magnitude	stay	stim	poldrack-single-stim	s546	0	False
83.585	1.0	84.34	0.1	2.544	True	71.0	High-Low	stay	twobytwo	71.0	0.655	orange	1.0	cue_stay	magnitude	stay	stim	poldrack-single-stim	s546	0	False
86.233	1.0	87.23	0.1	2.68	True	89.0	Orange-Blue	n/a	twobytwo	89.0	0.897	blue	2.0	task_switch	color	switch	stim	poldrack-single-stim	s546	0	False
89.017	1.0	90.024	0.1	2.0	True	71.0	Color	switch	twobytwo	71.0	0.907	orange	4.0	cue_switch	color	stay	stim	poldrack-single-stim	s546	0	False
91.922	1.0	93.625	0.9	2.272	True	71.0	Magnitude	n/a	twobytwo	71.0	0.803	blue	2.0	task_switch	magnitude	switch	stim	poldrack-single-stim	s546	0	False
95.099	1.0	96.515	0.9	3.088	True	71.0	Orange-Blue	n/a	twobytwo	71.0	0.516	orange	8.0	task_switch	color	switch	stim	poldrack-single-stim	s546	0	False
98.292	1.0	99.034	0.1	2.0	True	71.0	High-Low	n/a	twobytwo	71.0	0.642	orange	1.0	task_switch	magnitude	switch	stim	poldrack-single-stim	s546	0	False
101.199	1.0	102.79	0.9	2.136	True	89.0	High-Low	stay	twobytwo	89.0	0.691	orange	7.0	cue_stay	magnitude	stay	stim	poldrack-single-stim	s546	0	False
103.439	1.0	104.887	0.1	2.136	True	89.0	Color	n/a	twobytwo	89.0	1.348	blue	4.0	task_switch	color	switch	stim	poldrack-single-stim	s546	0	False
105.68	1.0	106.468	0.1	2.0	True	89.0	Color	stay	twobytwo	89.0	0.688	blue	3.0	cue_stay	color	stay	stim	poldrack-single-stim	s546	0	False
108.586	1.0	110.029	0.9	2.272	True	71.0	Orange-Blue	switch	twobytwo	71.0	0.543	orange	8.0	cue_switch	color	stay	stim	poldrack-single-stim	s546	0	False
111.763	1.0	113.131	0.9	2.0	True	89.0	Magnitude	n/a	twobytwo	89.0	0.468	orange	8.0	task_switch	magnitude	switch	stim	poldrack-single-stim	s546	0	False
113.867	1.0	114.805	0.1	2.136	False	89.0	Color	n/a	twobytwo	71.0	0.838	blue	1.0	task_switch	color	switch	stim	poldrack-single-stim	s546	0	False
116.107	1.0	117.014	0.1	2.136	True	89.0	Magnitude	n/a	twobytwo	89.0	0.807	blue	7.0	task_switch	magnitude	switch	stim	poldrack-single-stim	s546	0	False
119.147	1.0	120.678	0.9	2.544	True	89.0	Magnitude	stay	twobytwo	89.0	0.631	orange	7.0	cue_stay	magnitude	stay	stim	poldrack-single-stim	s546	0	False
121.797	1.0	122.705	0.1	2.0	True	89.0	Color	n/a	twobytwo	89.0	0.808	blue	1.0	task_switch	color	switch	stim	poldrack-single-stim	s546	0	False
123.902	1.0	124.696	0.1	2.136	True	89.0	Color	stay	twobytwo	89.0	0.694	blue	3.0	cue_stay	color	stay	stim	poldrack-single-stim	s546	0	False
126.144	1.0	127.045	0.1	2.136	True	71.0	Magnitude	n/a	twobytwo	71.0	0.801	blue	3.0	task_switch	magnitude	switch	stim	poldrack-single-stim	s546	0	False
129.183	1.0	130.884	0.9	2.136	True	89.0	Color	n/a	twobytwo	89.0	0.801	blue	2.0	task_switch	color	switch	stim	poldrack-single-stim	s546	0	False
131.424	1.0	132.639	0.1	2.0	True	71.0	Magnitude	n/a	twobytwo	71.0	1.115	blue	4.0	task_switch	magnitude	switch	stim	poldrack-single-stim	s546	0	False
133.529	1.0	134.965	0.1	2.136	True	71.0	Orange-Blue	n/a	twobytwo	71.0	1.336	orange	1.0	task_switch	color	switch	stim	poldrack-single-stim	s546	0	False
135.77	1.0	136.829	0.1	2.0	True	71.0	Orange-Blue	stay	twobytwo	71.0	0.959	orange	6.0	cue_stay	color	stay	stim	poldrack-single-stim	s546	0	False
138.677	1.0	140.522	0.9	2.136	True	71.0	Color	switch	twobytwo	71.0	0.945	orange	3.0	cue_switch	color	stay	stim	poldrack-single-stim	s546	0	False
141.718	1.0	143.216	0.9	2.816	True	71.0	High-Low	n/a	twobytwo	71.0	0.598	blue	4.0	task_switch	magnitude	switch	stim	poldrack-single-stim	s546	0	False
144.64	1.0	145.456	0.1	2.136	True	89.0	High-Low	stay	twobytwo	89.0	0.716	blue	7.0	cue_stay	magnitude	stay	stim	poldrack-single-stim	s546	0	False
146.881	1.0	147.815	0.1	2.0	True	89.0	High-Low	stay	twobytwo	89.0	0.834	orange	9.0	cue_stay	magnitude	stay	stim	poldrack-single-stim	s546	0	False
148.986	1.0	149.98	0.1	2.0	True	89.0	Color	n/a	twobytwo	89.0	0.894	blue	6.0	task_switch	color	switch	stim	poldrack-single-stim	s546	0	False
151.092	1.0	151.903	0.1	2.272	True	89.0	Color	stay	twobytwo	89.0	0.711	blue	9.0	cue_stay	color	stay	stim	poldrack-single-stim	s546	0	False
153.468	1.0	154.326	0.1	2.0	True	71.0	Magnitude	n/a	twobytwo	71.0	0.758	blue	3.0	task_switch	magnitude	switch	stim	poldrack-single-stim	s546	0	False
155.572	1.0	156.469	0.1	2.0	True	71.0	Color	n/a	twobytwo	71.0	0.797	orange	8.0	task_switch	color	switch	stim	poldrack-single-stim	s546	0	False
157.677	1.0	159.088	0.1	2.0	True	71.0	Magnitude	n/a	twobytwo	71.0	1.311	orange	3.0	task_switch	magnitude	switch	stim	poldrack-single-stim	s546	0	False
159.782	1.0	161.122	0.1	2.408	True	71.0	Color	n/a	twobytwo	71.0	1.24	orange	8.0	task_switch	color	switch	stim	poldrack-single-stim	s546	0	False
163.095	1.0	164.395	0.9	2.272	True	89.0	Color	stay	twobytwo	89.0	0.4	blue	8.0	cue_stay	color	stay	stim	poldrack-single-stim	s546	0	False
166.272	1.0	167.67	0.9	2.136	True	71.0	High-Low	n/a	twobytwo	71.0	0.498	orange	4.0	task_switch	magnitude	switch	stim	poldrack-single-stim	s546	0	False
168.514	1.0	169.29	0.1	2.0	True	71.0	Magnitude	switch	twobytwo	71.0	0.676	orange	4.0	cue_switch	magnitude	stay	stim	poldrack-single-stim	s546	0	False
171.42	1.0	173.057	0.9	2.0	False	89.0	Orange-Blue	n/a	twobytwo	71.0	0.737	blue	1.0	task_switch	color	switch	stim	poldrack-single-stim	s546	0	False
174.325	1.0	175.931	0.9	2.136	True	71.0	Magnitude	n/a	twobytwo	71.0	0.706	blue	3.0	task_switch	magnitude	switch	stim	poldrack-single-stim	s546	0	False
177.367	1.0	179.052	0.9	2.0	True	89.0	Orange-Blue	n/a	twobytwo	89.0	0.785	blue	3.0	task_switch	color	switch	stim	poldrack-single-stim	s546	0	False
179.471	1.0	180.569	0.1	2.136	True	89.0	High-Low	n/a	twobytwo	89.0	0.998	blue	8.0	task_switch	magnitude	switch	stim	poldrack-single-stim	s546	0	False
181.713	1.0	183.005	0.1	2.408	True	89.0	High-Low	stay	twobytwo	89.0	1.192	orange	7.0	cue_stay	magnitude	stay	stim	poldrack-single-stim	s546	0	False
185.026	1.0	186.43	0.9	2.136	True	71.0	Color	n/a	twobytwo	71.0	0.504	orange	1.0	task_switch	color	switch	stim	poldrack-single-stim	s546	0	False
187.268	1.0	187.932	0.1	2.0	True	89.0	High-Low	n/a	twobytwo	89.0	0.564	blue	7.0	task_switch	magnitude	switch	stim	poldrack-single-stim	s546	0	False
189.373	1.0	190.534	0.1	2.136	True	89.0	Color	n/a	twobytwo	89.0	1.061	blue	9.0	task_switch	color	switch	stim	poldrack-single-stim	s546	0	False
192.413	1.0	193.987	0.9	2.272	True	89.0	Color	stay	twobytwo	89.0	0.674	blue	8.0	cue_stay	color	stay	stim	poldrack-single-stim	s546	0	False
195.589	1.0	197.046	0.9	2.0	True	89.0	High-Low	n/a	twobytwo	89.0	0.557	orange	9.0	task_switch	magnitude	switch	stim	poldrack-single-stim	s546	0	False
197.694	1.0	199.023	0.1	2.408	False	89.0	Orange-Blue	n/a	twobytwo	71.0	1.229	blue	7.0	task_switch	color	switch	stim	poldrack-single-stim	s546	0	False
201.007	1.0	202.737	0.9	2.0	True	71.0	Color	switch	twobytwo	71.0	0.83	orange	7.0	cue_switch	color	stay	stim	poldrack-single-stim	s546	0	False
203.112	1.0	204.742	0.1	2.136	True	89.0	Magnitude	n/a	twobytwo	89.0	1.53	orange	8.0	task_switch	magnitude	switch	stim	poldrack-single-stim	s546	0	False
206.153	1.0	207.842	0.9	2.408	True	89.0	Orange-Blue	n/a	twobytwo	89.0	0.789	blue	6.0	task_switch	color	switch	stim	poldrack-single-stim	s546	0	False
208.665	1.0	209.712	0.1	2.136	True	89.0	Magnitude	n/a	twobytwo	89.0	0.947	blue	9.0	task_switch	magnitude	switch	stim	poldrack-single-stim	s546	0	False
211.705	1.0	213.03	0.9	2.408	True	89.0	Color	n/a	twobytwo	89.0	0.425	blue	8.0	task_switch	color	switch	stim	poldrack-single-stim	s546	0	False
215.017	1.0	216.649	0.9	2.136	True	89.0	High-Low	n/a	twobytwo	89.0	0.732	orange	6.0	task_switch	magnitude	switch	stim	poldrack-single-stim	s546	0	False
230.767	1.0	231.623	0.1	2.0	True	89.0	Magnitude	n/a	twobytwo	89.0	0.756	blue	6.0	task_switch	magnitude	switch	stim	poldrack-single-stim	s546	1	False
233.671	1.0	235.455	0.9	2.272	True	71.0	Magnitude	stay	twobytwo	71.0	0.884	blue	4.0	cue_stay	magnitude	stay	stim	poldrack-single-stim	s546	0	False
236.848	1.0	238.185	0.9	2.0	True	71.0	High-Low	switch	twobytwo	71.0	0.437	blue	4.0	cue_switch	magnitude	stay	stim	poldrack-single-stim	s546	0	False
238.953	1.0	239.98	0.1	2.272	True	89.0	Magnitude	switch	twobytwo	89.0	0.927	orange	8.0	cue_switch	magnitude	stay	stim	poldrack-single-stim	s546	0	False
242.13	1.0	243.549	0.9	2.272	True	89.0	High-Low	switch	twobytwo	89.0	0.519	blue	8.0	cue_switch	magnitude	stay	stim	poldrack-single-stim	s546	0	False
244.506	1.0	245.718	0.1	2.952	True	71.0	Color	n/a	twobytwo	71.0	1.112	orange	6.0	task_switch	color	switch	stim	poldrack-single-stim	s546	0	False
248.364	1.0	250.189	0.9	2.68	True	89.0	Color	stay	twobytwo	89.0	0.925	blue	6.0	cue_stay	color	stay	stim	poldrack-single-stim	s546	0	False
251.15	1.0	252.344	0.1	2.136	True	71.0	High-Low	n/a	twobytwo	71.0	1.094	orange	3.0	task_switch	magnitude	switch	stim	poldrack-single-stim	s546	0	False
254.191	1.0	255.778	0.9	2.272	True	89.0	Magnitude	switch	twobytwo	89.0	0.687	orange	7.0	cue_switch	magnitude	stay	stim	poldrack-single-stim	s546	0	False
256.568	1.0	257.834	0.1	2.272	True	89.0	High-Low	switch	twobytwo	89.0	1.166	blue	6.0	cue_switch	magnitude	stay	stim	poldrack-single-stim	s546	0	False
259.744	1.0	261.101	0.9	2.136	True	89.0	High-Low	stay	twobytwo	89.0	0.457	orange	6.0	cue_stay	magnitude	stay	stim	poldrack-single-stim	s546	0	False
262.784	1.0	264.125	0.9	2.408	True	89.0	Orange-Blue	n/a	twobytwo	89.0	0.441	blue	7.0	task_switch	color	switch	stim	poldrack-single-stim	s546	0	False
266.096	1.0	267.522	0.9	2.136	True	71.0	Magnitude	n/a	twobytwo	71.0	0.526	blue	3.0	task_switch	magnitude	switch	stim	poldrack-single-stim	s546	0	False
269.136	1.0	270.665	0.9	2.136	True	89.0	High-Low	switch	twobytwo	89.0	0.629	orange	7.0	cue_switch	magnitude	stay	stim	poldrack-single-stim	s546	0	False
271.378	1.0	272.41	0.1	2.0	True	89.0	Color	n/a	twobytwo	89.0	0.932	blue	4.0	task_switch	color	switch	stim	poldrack-single-stim	s546	0	False
273.484	1.0	274.319	0.1	2.0	True	71.0	Color	stay	twobytwo	71.0	0.735	orange	4.0	cue_stay	color	stay	stim	poldrack-single-stim	s546	0	False
276.389	1.0	277.722	0.9	2.0	True	71.0	High-Low	n/a	twobytwo	71.0	0.433	blue	3.0	task_switch	magnitude	switch	stim	poldrack-single-stim	s546	0	False
278.494	1.0	279.428	0.1	2.0	True	71.0	Color	n/a	twobytwo	71.0	0.834	orange	3.0	task_switch	color	switch	stim	poldrack-single-stim	s546	0	False
280.599	1.0	281.556	0.1	2.0	True	71.0	High-Low	n/a	twobytwo	71.0	0.857	orange	3.0	task_switch	magnitude	switch	stim	poldrack-single-stim	s546	0	False
283.504	1.0	284.995	0.9	2.272	True	71.0	Orange-Blue	n/a	twobytwo	71.0	0.591	orange	1.0	task_switch	color	switch	stim	poldrack-single-stim	s546	0	False
285.881	1.0	286.784	0.1	2.408	True	71.0	Orange-Blue	stay	twobytwo	71.0	0.803	orange	4.0	cue_stay	color	stay	stim	poldrack-single-stim	s546	0	False
288.395	1.0	289.56	0.1	2.0	True	71.0	Orange-Blue	stay	twobytwo	71.0	1.065	orange	7.0	cue_stay	color	stay	stim	poldrack-single-stim	s546	0	False
291.3	1.0	292.78	0.9	2.136	True	89.0	Magnitude	n/a	twobytwo	89.0	0.58	orange	8.0	task_switch	magnitude	switch	stim	poldrack-single-stim	s546	0	False
294.342	1.0	295.696	0.9	2.0	True	89.0	High-Low	switch	twobytwo	89.0	0.454	blue	7.0	cue_switch	magnitude	stay	stim	poldrack-single-stim	s546	0	False
296.446	1.0	297.21	0.1	2.136	True	89.0	High-Low	stay	twobytwo	89.0	0.664	blue	9.0	cue_stay	magnitude	stay	stim	poldrack-single-stim	s546	0	False
299.487	1.0	300.996	0.9	2.544	True	71.0	High-Low	stay	twobytwo	71.0	0.609	blue	2.0	cue_stay	magnitude	stay	stim	poldrack-single-stim	s546	0	False
302.137	1.0	303.169	0.1	2.68	True	71.0	Color	n/a	twobytwo	71.0	0.932	orange	3.0	task_switch	color	switch	stim	poldrack-single-stim	s546	0	False
305.721	1.0	307.215	0.9	3.088	True	89.0	Magnitude	n/a	twobytwo	89.0	0.594	orange	8.0	task_switch	magnitude	switch	stim	poldrack-single-stim	s546	0	False
309.714	1.0	311.131	0.9	2.136	True	89.0	Magnitude	stay	twobytwo	89.0	0.517	blue	6.0	cue_stay	magnitude	stay	stim	poldrack-single-stim	s546	0	False
311.954	1.0	313.1	0.1	2.544	True	71.0	Magnitude	stay	twobytwo	71.0	1.046	orange	1.0	cue_stay	magnitude	stay	stim	poldrack-single-stim	s546	0	False
314.603	1.0	315.618	0.1	2.0	True	89.0	Orange-Blue	n/a	twobytwo	89.0	0.915	blue	2.0	task_switch	color	switch	stim	poldrack-single-stim	s546	0	False
316.709	1.0	317.77	0.1	2.136	True	71.0	Color	switch	twobytwo	71.0	0.961	orange	4.0	cue_switch	color	stay	stim	poldrack-single-stim	s546	0	False
319.751	1.0	321.273	0.9	2.0	True	71.0	High-Low	n/a	twobytwo	71.0	0.622	blue	2.0	task_switch	magnitude	switch	stim	poldrack-single-stim	s546	0	False
322.655	1.0	324.471	0.9	2.408	True	71.0	Color	n/a	twobytwo	71.0	0.916	orange	8.0	task_switch	color	switch	stim	poldrack-single-stim	s546	0	False
325.168	1.0	326.032	0.1	2.0	True	71.0	Magnitude	n/a	twobytwo	71.0	0.764	orange	1.0	task_switch	magnitude	switch	stim	poldrack-single-stim	s546	0	False
328.074	1.0	329.486	0.9	2.0	True	89.0	Magnitude	stay	twobytwo	89.0	0.512	orange	7.0	cue_stay	magnitude	stay	stim	poldrack-single-stim	s546	0	False
330.18	1.0	331.255	0.1	2.0	True	89.0	Color	n/a	twobytwo	89.0	0.975	blue	4.0	task_switch	color	switch	stim	poldrack-single-stim	s546	0	False
332.285	1.0	333.223	0.1	2.68	True	89.0	Color	stay	twobytwo	89.0	0.838	blue	3.0	cue_stay	color	stay	stim	poldrack-single-stim	s546	0	False
335.87	1.0	337.187	0.9	2.272	True	71.0	Orange-Blue	switch	twobytwo	71.0	0.417	orange	8.0	cue_switch	color	stay	stim	poldrack-single-stim	s546	0	False
339.048	1.0	340.387	0.9	2.408	True	89.0	Magnitude	n/a	twobytwo	89.0	0.439	orange	8.0	task_switch	magnitude	switch	stim	poldrack-single-stim	s546	0	False
341.56	1.0	343.279	0.1	3.224	True	89.0	Orange-Blue	n/a	twobytwo	89.0	1.619	blue	1.0	task_switch	color	switch	stim	poldrack-single-stim	s546	0	False
344.889	1.0	345.811	0.1	2.408	True	89.0	Magnitude	n/a	twobytwo	89.0	0.822	blue	7.0	task_switch	magnitude	switch	stim	poldrack-single-stim	s546	0	False
348.202	1.0	349.831	0.9	2.816	True	89.0	Magnitude	stay	twobytwo	89.0	0.729	orange	7.0	cue_stay	magnitude	stay	stim	poldrack-single-stim	s546	0	False
351.123	1.0	352.331	0.1	2.408	True	89.0	Orange-Blue	n/a	twobytwo	89.0	1.108	blue	1.0	task_switch	color	switch	stim	poldrack-single-stim	s546	0	False
353.635	1.0	354.421	0.1	2.136	True	89.0	Orange-Blue	stay	twobytwo	89.0	0.686	blue	3.0	cue_stay	color	stay	stim	poldrack-single-stim	s546	0	False
355.875	1.0	356.625	0.1	2.136	False	71.0	Magnitude	n/a	twobytwo	89.0	0.65	blue	3.0	task_switch	magnitude	switch	stim	poldrack-single-stim	s546	0	False
358.917	1.0	360.411	0.9	2.0	True	89.0	Orange-Blue	n/a	twobytwo	89.0	0.594	blue	2.0	task_switch	color	switch	stim	poldrack-single-stim	s546	0	False
361.022	1.0	361.883	0.1	2.0	True	71.0	High-Low	n/a	twobytwo	71.0	0.761	blue	4.0	task_switch	magnitude	switch	stim	poldrack-single-stim	s546	0	False
363.126	1.0	364.761	0.1	2.272	True	71.0	Orange-Blue	n/a	twobytwo	71.0	1.535	orange	1.0	task_switch	color	switch	stim	poldrack-single-stim	s546	0	False
365.502	1.0	366.462	0.1	2.408	True	71.0	Orange-Blue	stay	twobytwo	71.0	0.86	orange	6.0	cue_stay	color	stay	stim	poldrack-single-stim	s546	0	False
368.816	1.0	370.106	0.9	2.0	True	71.0	Color	switch	twobytwo	71.0	0.39	orange	3.0	cue_switch	color	stay	stim	poldrack-single-stim	s546	0	False
371.721	1.0	373.638	0.9	2.136	True	71.0	High-Low	n/a	twobytwo	71.0	1.017	blue	4.0	task_switch	magnitude	switch	stim	poldrack-single-stim	s546	0	False
373.964	1.0	374.756	0.1	2.0	True	89.0	High-Low	stay	twobytwo	89.0	0.692	blue	7.0	cue_stay	magnitude	stay	stim	poldrack-single-stim	s546	0	False
376.068	1.0	376.816	0.1	2.408	True	89.0	High-Low	stay	twobytwo	89.0	0.648	orange	9.0	cue_stay	magnitude	stay	stim	poldrack-single-stim	s546	0	False
378.581	1.0	379.414	0.1	2.272	True	89.0	Color	n/a	twobytwo	89.0	0.733	blue	6.0	task_switch	color	switch	stim	poldrack-single-stim	s546	0	False
380.958	1.0	381.7	0.1	2.0	True	89.0	Color	stay	twobytwo	89.0	0.642	blue	9.0	cue_stay	color	stay	stim	poldrack-single-stim	s546	0	False
383.063	1.0	383.93	0.1	2.272	True	71.0	Magnitude	n/a	twobytwo	71.0	0.767	blue	3.0	task_switch	magnitude	switch	stim	poldrack-single-stim	s546	0	False
385.441	1.0	386.345	0.1	2.0	True	71.0	Color	n/a	twobytwo	71.0	0.804	orange	8.0	task_switch	color	switch	stim	poldrack-single-stim	s546	0	False
387.548	1.0	389.219	0.1	2.0	True	71.0	High-Low	n/a	twobytwo	71.0	1.571	orange	3.0	task_switch	magnitude	switch	stim	poldrack-single-stim	s546	0	False
389.652	1.0	390.779	0.1	2.272	True	71.0	Color	n/a	twobytwo	71.0	1.027	orange	8.0	task_switch	color	switch	stim	poldrack-single-stim	s546	0	False
392.83	1.0	394.312	0.9	2.136	True	89.0	Color	stay	twobytwo	89.0	0.582	blue	8.0	cue_stay	color	stay	stim	poldrack-single-stim	s546	0	False
395.871	1.0	397.462	0.9	2.0	True	71.0	Magnitude	n/a	twobytwo	71.0	0.691	orange	4.0	task_switch	magnitude	switch	stim	poldrack-single-stim	s546	0	False
397.976	1.0	399.478	0.1	2.0	True	71.0	High-Low	switch	twobytwo	71.0	1.402	orange	4.0	cue_switch	magnitude	stay	stim	poldrack-single-stim	s546	0	False
400.881	1.0	402.423	0.9	2.0	True	89.0	Orange-Blue	n/a	twobytwo	89.0	0.642	blue	1.0	task_switch	color	switch	stim	poldrack-single-stim	s546	0	False
403.786	1.0	405.296	0.9	2.0	True	71.0	Magnitude	n/a	twobytwo	71.0	0.61	blue	3.0	task_switch	magnitude	switch	stim	poldrack-single-stim	s546	0	False
406.691	1.0	408.208	0.9	2.0	False	89.0	Orange-Blue	n/a	twobytwo	71.0	0.617	blue	3.0	task_switch	color	switch	stim	poldrack-single-stim	s546	0	False
408.795	1.0	409.75	0.1	2.136	True	89.0	Magnitude	n/a	twobytwo	89.0	0.855	blue	8.0	task_switch	magnitude	switch	stim	poldrack-single-stim	s546	0	False
411.036	1.0	411.964	0.1	2.0	True	89.0	Magnitude	stay	twobytwo	89.0	0.828	orange	7.0	cue_stay	magnitude	stay	stim	poldrack-single-stim	s546	0	False
413.941	1.0	415.237	0.9	2.0	True	71.0	Orange-Blue	n/a	twobytwo	71.0	0.396	orange	1.0	task_switch	color	switch	stim	poldrack-single-stim	s546	0	False
416.047	1.0	416.684	0.1	2.136	True	89.0	Magnitude	n/a	twobytwo	89.0	0.537	blue	7.0	task_switch	magnitude	switch	stim	poldrack-single-stim	s546	0	False
418.288	1.0	419.321	0.1	2.0	True	89.0	Orange-Blue	n/a	twobytwo	89.0	0.933	blue	9.0	task_switch	color	switch	stim	poldrack-single-stim	s546	0	False
421.194	1.0	422.493	0.9	2.136	True	89.0	Orange-Blue	stay	twobytwo	89.0	0.399	blue	8.0	cue_stay	color	stay	stim	poldrack-single-stim	s546	0	False
424.235	1.0	425.835	0.9	2.68	False	89.0	High-Low	n/a	twobytwo	71.0	0.7	orange	9.0	task_switch	magnitude	switch	stim	poldrack-single-stim	s546	0	False
427.02	1.0	428.248	0.1	2.272	True	89.0	Orange-Blue	n/a	twobytwo	89.0	1.128	blue	7.0	task_switch	color	switch	stim	poldrack-single-stim	s546	0	False
430.198	1.0	431.849	0.9	2.136	True	71.0	Color	switch	twobytwo	71.0	0.751	orange	7.0	cue_switch	color	stay	stim	poldrack-single-stim	s546	0	False
432.439	1.0	433.544	0.1	2.0	True	89.0	High-Low	n/a	twobytwo	89.0	1.005	orange	8.0	task_switch	magnitude	switch	stim	poldrack-single-stim	s546	0	False
435.345	1.0	437.228	0.9	2.136	True	89.0	Orange-Blue	n/a	twobytwo	89.0	0.983	blue	6.0	task_switch	color	switch	stim	poldrack-single-stim	s546	0	False
437.587	1.0	438.4	0.1	2.68	True	89.0	High-Low	n/a	twobytwo	89.0	0.713	blue	9.0	task_switch	magnitude	switch	stim	poldrack-single-stim	s546	0	False
441.172	1.0	442.959	0.9	2.272	False	89.0	Orange-Blue	n/a	twobytwo	71.0	0.887	blue	8.0	task_switch	color	switch	stim	poldrack-single-stim	s546	0	False
444.349	1.0	446.588	0.9	2.0	True	89.0	Magnitude	n/a	twobytwo	89.0	1.339	orange	6.0	task_switch	magnitude	switch	stim	poldrack-single-stim	s546	0	False
459.964	1.0	460.826	0.1	2.0	True	89.0	Orange-Blue	n/a	twobytwo	89.0	0.762	blue	6.0	task_switch	color	switch	stim	poldrack-single-stim	s546	1	False
462.87	1.0	464.545	0.9	2.136	True	89.0	Orange-Blue	stay	twobytwo	89.0	0.775	blue	4.0	cue_stay	color	stay	stim	poldrack-single-stim	s546	0	False
465.911	1.0	467.235	0.9	2.0	True	89.0	Color	switch	twobytwo	89.0	0.424	blue	4.0	cue_switch	color	stay	stim	poldrack-single-stim	s546	0	False
468.016	1.0	468.72	0.1	2.0	True	71.0	Orange-Blue	switch	twobytwo	71.0	0.604	orange	8.0	cue_switch	color	stay	stim	poldrack-single-stim	s546	0	False
470.921	1.0	472.294	0.9	2.0	True	89.0	Color	switch	twobytwo	89.0	0.473	blue	8.0	cue_switch	color	stay	stim	poldrack-single-stim	s546	0	False
473.027	1.0	473.976	0.1	2.272	True	89.0	High-Low	n/a	twobytwo	89.0	0.849	orange	6.0	task_switch	magnitude	switch	stim	poldrack-single-stim	s546	0	False
476.204	1.0	477.552	0.9	2.408	True	89.0	High-Low	stay	twobytwo	89.0	0.448	blue	6.0	cue_stay	magnitude	stay	stim	poldrack-single-stim	s546	0	False
478.717	1.0	480.354	0.1	2.0	True	71.0	Color	n/a	twobytwo	71.0	1.537	orange	3.0	task_switch	color	switch	stim	poldrack-single-stim	s546	0	False
481.623	1.0	482.89	0.9	2.0	True	71.0	Orange-Blue	switch	twobytwo	71.0	0.367	orange	7.0	cue_switch	color	stay	stim	poldrack-single-stim	s546	0	False
483.728	1.0	484.816	0.1	2.0	True	89.0	Color	switch	twobytwo	89.0	0.988	blue	6.0	cue_switch	color	stay	stim	poldrack-single-stim	s546	0	False
486.632	1.0	487.853	0.9	2.272	True	71.0	Color	stay	twobytwo	71.0	0.321	orange	6.0	cue_stay	color	stay	stim	poldrack-single-stim	s546	0	False
489.81	1.0	491.223	0.9	2.136	True	89.0	High-Low	n/a	twobytwo	89.0	0.513	blue	7.0	task_switch	magnitude	switch	stim	poldrack-single-stim	s546	0	False
492.851	1.0	494.381	0.9	2.0	True	89.0	Color	n/a	twobytwo	89.0	0.63	blue	3.0	task_switch	color	switch	stim	poldrack-single-stim	s546	0	False
495.755	1.0	497.196	0.9	2.544	True	71.0	Orange-Blue	switch	twobytwo	71.0	0.541	orange	7.0	cue_switch	color	stay	stim	poldrack-single-stim	s546	0	False
498.404	1.0	500.07	0.1	2.272	True	71.0	Magnitude	n/a	twobytwo	71.0	1.566	blue	4.0	task_switch	magnitude	switch	stim	poldrack-single-stim	s546	0	False
500.782	1.0	502.678	0.1	2.272	True	71.0	Magnitude	stay	twobytwo	71.0	1.796	orange	4.0	cue_stay	magnitude	stay	stim	poldrack-single-stim	s546	0	False
503.96	1.0	505.57	0.9	2.0	True	89.0	Orange-Blue	n/a	twobytwo	89.0	0.71	blue	3.0	task_switch	color	switch	stim	poldrack-single-stim	s546	0	False
506.065	1.0	507.491	0.1	2.0	True	71.0	High-Low	n/a	twobytwo	71.0	1.326	orange	3.0	task_switch	magnitude	switch	stim	poldrack-single-stim	s546	0	False
508.169	1.0	509.121	0.1	2.136	True	71.0	Orange-Blue	n/a	twobytwo	71.0	0.852	orange	3.0	task_switch	color	switch	stim	poldrack-single-stim	s546	0	False
511.21	1.0	512.553	0.9	2.0	True	71.0	High-Low	n/a	twobytwo	71.0	0.443	orange	1.0	task_switch	magnitude	switch	stim	poldrack-single-stim	s546	0	False
513.316	1.0	514.495	0.1	2.136	True	71.0	High-Low	stay	twobytwo	71.0	1.079	orange	4.0	cue_stay	magnitude	stay	stim	poldrack-single-stim	s546	0	False
515.557	1.0	516.667	0.1	2.272	True	89.0	High-Low	stay	twobytwo	89.0	1.01	orange	7.0	cue_stay	magnitude	stay	stim	poldrack-single-stim	s546	0	False
518.735	1.0	520.29	0.9	2.136	True	71.0	Color	n/a	twobytwo	71.0	0.655	orange	8.0	task_switch	color	switch	stim	poldrack-single-stim	s546	0	False
521.776	1.0	523.272	0.9	2.272	True	89.0	Orange-Blue	switch	twobytwo	89.0	0.596	blue	7.0	cue_switch	color	stay	stim	poldrack-single-stim	s546	0	False
524.154	1.0	525.002	0.1	2.0	True	89.0	Orange-Blue	stay	twobytwo	89.0	0.748	blue	9.0	cue_stay	color	stay	stim	poldrack-single-stim	s546	0	False
527.059	1.0	528.48	0.9	2.816	True	89.0	Orange-Blue	stay	twobytwo	89.0	0.521	blue	2.0	cue_stay	color	stay	stim	poldrack-single-stim	s546	0	False
529.981	1.0	530.978	0.1	2.408	True	71.0	Magnitude	n/a	twobytwo	71.0	0.897	orange	3.0	task_switch	magnitude	switch	stim	poldrack-single-stim	s546	0	False
533.294	1.0	535.21	0.9	2.0	True	71.0	Orange-Blue	n/a	twobytwo	71.0	1.016	orange	8.0	task_switch	color	switch	stim	poldrack-single-stim	s546	0	False
536.199	1.0	537.574	0.9	2.544	True	89.0	Orange-Blue	stay	twobytwo	89.0	0.475	blue	6.0	cue_stay	color	stay	stim	poldrack-single-stim	s546	0	False
538.847	1.0	539.75	0.1	2.136	True	71.0	Orange-Blue	stay	twobytwo	71.0	0.803	orange	1.0	cue_stay	color	stay	stim	poldrack-single-stim	s546	0	False
541.089	1.0	542.101	0.1	2.0	False	71.0	High-Low	n/a	twobytwo	89.0	0.912	blue	2.0	task_switch	magnitude	switch	stim	poldrack-single-stim	s546	0	False
543.194	1.0	544.523	0.1	2.0	True	71.0	Magnitude	switch	twobytwo	71.0	1.229	orange	4.0	cue_switch	magnitude	stay	stim	poldrack-single-stim	s546	0	False
546.1	1.0	547.721	0.9	2.136	True	89.0	Color	n/a	twobytwo	89.0	0.721	blue	2.0	task_switch	color	switch	stim	poldrack-single-stim	s546	0	False
549.141	1.0	550.732	0.9	2.136	True	89.0	High-Low	n/a	twobytwo	89.0	0.691	orange	8.0	task_switch	magnitude	switch	stim	poldrack-single-stim	s546	0	False
551.382	1.0	552.973	0.1	2.272	True	71.0	Color	n/a	twobytwo	71.0	1.491	orange	1.0	task_switch	color	switch	stim	poldrack-single-stim	s546	0	False
554.56	1.0	556.26	0.9	3.224	True	71.0	Color	stay	twobytwo	71.0	0.8	orange	7.0	cue_stay	color	stay	stim	poldrack-single-stim	s546	0	False
557.888	1.0	558.669	0.1	2.0	True	71.0	High-Low	n/a	twobytwo	71.0	0.681	blue	4.0	task_switch	magnitude	switch	stim	poldrack-single-stim	s546	0	False
559.994	1.0	560.92	0.1	2.0	True	71.0	High-Low	stay	twobytwo	71.0	0.826	blue	3.0	cue_stay	magnitude	stay	stim	poldrack-single-stim	s546	0	False
562.899	1.0	564.462	0.9	2.272	True	89.0	Magnitude	switch	twobytwo	89.0	0.663	orange	8.0	cue_switch	magnitude	stay	stim	poldrack-single-stim	s546	0	False
566.075	1.0	567.419	0.9	2.136	True	71.0	Orange-Blue	n/a	twobytwo	71.0	0.444	orange	8.0	task_switch	color	switch	stim	poldrack-single-stim	s546	0	False
568.318	1.0	569.443	0.1	2.0	True	71.0	High-Low	n/a	twobytwo	71.0	1.025	blue	1.0	task_switch	magnitude	switch	stim	poldrack-single-stim	s546	0	False
570.423	1.0	571.491	0.1	2.0	True	89.0	Orange-Blue	n/a	twobytwo	89.0	0.968	blue	7.0	task_switch	color	switch	stim	poldrack-single-stim	s546	0	False
573.328	1.0	574.672	0.9	2.0	True	71.0	Orange-Blue	stay	twobytwo	71.0	0.444	orange	7.0	cue_stay	color	stay	stim	poldrack-single-stim	s546	0	False
575.433	1.0	576.56	0.1	2.68	True	71.0	Magnitude	n/a	twobytwo	71.0	1.027	blue	1.0	task_switch	magnitude	switch	stim	poldrack-single-stim	s546	0	False
578.219	1.0	579.154	0.1	2.0	True	71.0	Magnitude	stay	twobytwo	71.0	0.835	blue	3.0	cue_stay	magnitude	stay	stim	poldrack-single-stim	s546	0	False
580.324	1.0	581.534	0.1	2.272	True	89.0	Orange-Blue	n/a	twobytwo	89.0	1.11	blue	3.0	task_switch	color	switch	stim	poldrack-single-stim	s546	0	False
583.501	1.0	585.392	0.9	2.0	True	71.0	High-Low	n/a	twobytwo	71.0	0.991	blue	2.0	task_switch	magnitude	switch	stim	poldrack-single-stim	s546	0	False
585.606	1.0	587.148	0.1	2.272	True	89.0	Orange-Blue	n/a	twobytwo	89.0	1.442	blue	4.0	task_switch	color	switch	stim	poldrack-single-stim	s546	0	False
587.984	1.0	588.884	0.1	2.952	True	71.0	Magnitude	n/a	twobytwo	71.0	0.8	orange	1.0	task_switch	magnitude	switch	stim	poldrack-single-stim	s546	0	False
591.041	1.0	591.85	0.1	2.0	True	89.0	Magnitude	stay	twobytwo	89.0	0.709	orange	6.0	cue_stay	magnitude	stay	stim	poldrack-single-stim	s546	0	False
593.945	1.0	595.352	0.9	2.0	True	71.0	High-Low	switch	twobytwo	71.0	0.507	orange	3.0	cue_switch	magnitude	stay	stim	poldrack-single-stim	s546	0	False
596.851	1.0	598.313	0.9	2.0	True	89.0	Color	n/a	twobytwo	89.0	0.562	blue	4.0	task_switch	color	switch	stim	poldrack-single-stim	s546	0	False
598.954	1.0	600.353	0.1	2.0	True	89.0	Color	stay	twobytwo	89.0	1.299	blue	7.0	cue_stay	color	stay	stim	poldrack-single-stim	s546	0	False
601.06	1.0	602.094	0.1	2.136	True	71.0	Color	stay	twobytwo	71.0	0.934	orange	9.0	cue_stay	color	stay	stim	poldrack-single-stim	s546	0	False
603.3	1.0	604.289	0.1	2.0	True	89.0	High-Low	n/a	twobytwo	89.0	0.889	blue	6.0	task_switch	magnitude	switch	stim	poldrack-single-stim	s546	0	False
605.406	1.0	606.502	0.1	2.0	True	89.0	High-Low	stay	twobytwo	89.0	0.996	blue	9.0	cue_stay	magnitude	stay	stim	poldrack-single-stim	s546	0	False
607.511	1.0	608.413	0.1	2.0	True	89.0	Orange-Blue	n/a	twobytwo	89.0	0.802	blue	3.0	task_switch	color	switch	stim	poldrack-single-stim	s546	0	False
609.617	1.0	610.904	0.1	2.272	True	89.0	High-Low	n/a	twobytwo	89.0	1.187	orange	8.0	task_switch	magnitude	switch	stim	poldrack-single-stim	s546	0	False
611.995	1.0	613.141	0.1	2.136	True	71.0	Orange-Blue	n/a	twobytwo	71.0	1.046	orange	3.0	task_switch	color	switch	stim	poldrack-single-stim	s546	0	False
614.236	1.0	615.063	0.1	2.0	True	89.0	Magnitude	n/a	twobytwo	89.0	0.727	orange	8.0	task_switch	magnitude	switch	stim	poldrack-single-stim	s546	0	False
617.141	1.0	618.747	0.9	2.136	True	89.0	Magnitude	stay	twobytwo	89.0	0.706	blue	8.0	cue_stay	magnitude	stay	stim	poldrack-single-stim	s546	0	False
620.183	1.0	621.469	0.9	2.816	True	71.0	Orange-Blue	n/a	twobytwo	71.0	0.386	orange	4.0	task_switch	color	switch	stim	poldrack-single-stim	s546	0	False
623.105	1.0	623.851	0.1	2.408	True	71.0	Color	switch	twobytwo	71.0	0.646	orange	4.0	cue_switch	color	stay	stim	poldrack-single-stim	s546	0	False
626.418	1.0	628.176	0.9	2.0	True	71.0	High-Low	n/a	twobytwo	71.0	0.858	blue	1.0	task_switch	magnitude	switch	stim	poldrack-single-stim	s546	0	False
629.324	1.0	631.513	0.9	2.136	True	89.0	Color	n/a	twobytwo	89.0	1.289	blue	3.0	task_switch	color	switch	stim	poldrack-single-stim	s546	0	False
632.365	1.0	633.706	0.9	2.136	True	71.0	High-Low	n/a	twobytwo	71.0	0.441	blue	3.0	task_switch	magnitude	switch	stim	poldrack-single-stim	s546	0	False
634.606	1.0	635.942	0.1	2.136	True	89.0	Orange-Blue	n/a	twobytwo	89.0	1.236	blue	8.0	task_switch	color	switch	stim	poldrack-single-stim	s546	0	False
636.848	1.0	637.633	0.1	2.544	True	71.0	Orange-Blue	stay	twobytwo	71.0	0.685	orange	7.0	cue_stay	color	stay	stim	poldrack-single-stim	s546	0	False
640.296	1.0	641.746	0.9	2.136	True	71.0	High-Low	n/a	twobytwo	71.0	0.55	orange	1.0	task_switch	magnitude	switch	stim	poldrack-single-stim	s546	0	False
642.538	1.0	643.619	0.1	2.0	True	89.0	Orange-Blue	n/a	twobytwo	89.0	0.981	blue	7.0	task_switch	color	switch	stim	poldrack-single-stim	s546	0	False
644.643	1.0	645.548	0.1	2.0	True	89.0	Magnitude	n/a	twobytwo	89.0	0.805	blue	9.0	task_switch	magnitude	switch	stim	poldrack-single-stim	s546	0	False
647.549	1.0	649.033	0.9	2.0	True	89.0	Magnitude	stay	twobytwo	89.0	0.584	blue	8.0	cue_stay	magnitude	stay	stim	poldrack-single-stim	s546	0	False
650.455	1.0	651.997	0.9	2.0	True	71.0	Color	n/a	twobytwo	71.0	0.642	orange	9.0	task_switch	color	switch	stim	poldrack-single-stim	s546	0	False
652.561	1.0	653.46	0.1	2.136	True	89.0	High-Low	n/a	twobytwo	89.0	0.799	blue	7.0	task_switch	magnitude	switch	stim	poldrack-single-stim	s546	0	False
655.601	1.0	657.244	0.9	2.0	True	89.0	Magnitude	switch	twobytwo	89.0	0.743	orange	7.0	cue_switch	magnitude	stay	stim	poldrack-single-stim	s546	0	False
657.706	1.0	658.904	0.1	2.0	True	71.0	Orange-Blue	n/a	twobytwo	71.0	1.098	orange	8.0	task_switch	color	switch	stim	poldrack-single-stim	s546	0	False
660.611	1.0	662.17	0.9	2.0	True	89.0	Magnitude	n/a	twobytwo	89.0	0.659	blue	6.0	task_switch	magnitude	switch	stim	poldrack-single-stim	s546	0	False
662.716	1.0	663.623	0.1	2.136	True	89.0	Color	n/a	twobytwo	89.0	0.807	blue	9.0	task_switch	color	switch	stim	poldrack-single-stim	s546	0	False
665.757	1.0	667.24	0.9	2.136	True	89.0	High-Low	n/a	twobytwo	89.0	0.583	blue	8.0	task_switch	magnitude	switch	stim	poldrack-single-stim	s546	0	False
668.798	1.0	670.427	0.9	2.136	True	71.0	Color	n/a	twobytwo	71.0	0.729	orange	6.0	task_switch	color	switch	stim	poldrack-single-stim	s546	0	False
