onset	duration	movement_onset	EV	action	block_duration	experiment_exp_id	gain_amount	gain_probability	key_press	loss_amount	loss_probability	num_cards	num_click_in_round	num_loss_cards	risk	response_time	total_cards	trial_id	trial_type	worker_id	junk	feedback
3.009	3.772	6.781	-1.085329967651396	draw_card	3.772	columbia_card_task_fmri	12.0	0.8333333333333334	89.0	-70.0	0.1666666666666666	6.0	1.0	1.0	-2.51302790373585	3.772	n/a	stim	poldrack-single-stim	s546	False	1
6.782	1.101	7.883	-3.8186633009847286	draw_card	1.101	columbia_card_task_fmri	12.0	0.8	89.0	-70.0	0.2	6.0	2.0	1.0	-0.273001186203551	1.101	n/a	stim	poldrack-single-stim	s546	False	1
7.885	0.424	8.309	-7.91866330098473	draw_card	0.424	columbia_card_task_fmri	12.0	0.75	89.0	-70.0	0.25	6.0	3.0	1.0	2.4336476902335065	0.424	n/a	stim	poldrack-single-stim	s546	False	1
8.311	0.933	9.244	-14.75199663431806	end_round	0.933	columbia_card_task_fmri	12.0	0.6666666666666667	71.0	-70.0	0.3333333333333333	6.0	4.0	1.0	5.581389336500926	0.933	3.0	stim	poldrack-single-stim	s546	False	1
9.997	1.5	9.246	n/a	-1.0	2.25	columbia_card_task_fmri	n/a	n/a	-1.0	n/a	n/a	n/a	n/a	n/a	n/a	n/a	n/a	ITI	poldrack-single-stim	s546	False	0
11.499	4.272	15.771	-0.2519966343180621	draw_card	4.272	columbia_card_task_fmri	14.0	0.8333333333333334	89.0	-75.0	0.1666666666666666	6.0	1.0	1.0	0.0952832824758616	4.272	n/a	stim	poldrack-single-stim	s546	False	1
15.773	0.422	16.195	-3.218663300984729	draw_card	0.422	columbia_card_task_fmri	14.0	0.8	89.0	-75.0	0.2	6.0	2.0	1.0	2.5265937110334136	0.422	2.0	stim	poldrack-single-stim	s546	False	0
16.947	1.5	16.196	n/a	-1.0	2.386	columbia_card_task_fmri	n/a	n/a	-1.0	n/a	n/a	n/a	n/a	n/a	n/a	n/a	n/a	ITI	poldrack-single-stim	s546	False	0
18.584	4.204	22.788	1.414670032348604	draw_card	4.204	columbia_card_task_fmri	15.0	0.8333333333333334	89.0	-70.0	0.1666666666666666	6.0	1.0	1.0	-1.3951890191185117	4.204	n/a	stim	poldrack-single-stim	s546	False	1
22.789	1.294	24.083	-1.41866330098473	draw_card	1.294	columbia_card_task_fmri	15.0	0.8	89.0	-70.0	0.2	6.0	2.0	1.0	0.9268170299727316	1.294	n/a	stim	poldrack-single-stim	s546	False	1
24.084	1.02	25.104	-5.66866330098473	end_round	1.02	columbia_card_task_fmri	15.0	0.75	71.0	-70.0	0.25	6.0	3.0	1.0	3.732517865608109	1.02	2.0	stim	poldrack-single-stim	s546	False	1
25.857	1.5	25.106	n/a	-1.0	2.59	columbia_card_task_fmri	n/a	n/a	-1.0	n/a	n/a	n/a	n/a	n/a	n/a	n/a	n/a	ITI	poldrack-single-stim	s546	False	0
27.699	1.705	29.404	2.248003365681938	draw_card	1.705	columbia_card_task_fmri	17.0	0.8333333333333334	89.0	-75.0	0.1666666666666666	6.0	1.0	1.0	1.2131511831949808	1.705	n/a	stim	poldrack-single-stim	s546	False	1
29.406	0.446	29.852	-0.8186633009847285	draw_card	0.446	columbia_card_task_fmri	17.0	0.8	89.0	-75.0	0.2	6.0	2.0	1.0	3.7264389630959016	0.446	n/a	stim	poldrack-single-stim	s546	False	1
29.854	1.017	30.871	-5.41866330098473	end_round	1.017	columbia_card_task_fmri	17.0	0.75	71.0	-75.0	0.25	6.0	3.0	1.0	6.763257525236774	1.017	2.0	stim	poldrack-single-stim	s546	False	1
31.624	1.5	30.873	n/a	-1.0	2.658	columbia_card_task_fmri	n/a	n/a	-1.0	n/a	n/a	n/a	n/a	n/a	n/a	n/a	n/a	ITI	poldrack-single-stim	s546	False	0
33.533	4.848	38.381	3.58133669901527	draw_card	4.848	columbia_card_task_fmri	24.0	0.75	89.0	-60.0	0.25	8.0	1.0	2.0	3.299559807959419	4.848	n/a	stim	poldrack-single-stim	s546	False	1
38.383	0.292	38.675	0.5813366990152701	draw_card	0.292	columbia_card_task_fmri	24.0	0.7142857142857143	89.0	-60.0	0.2857142857142857	8.0	2.0	2.0	4.873632079622887	0.292	n/a	stim	poldrack-single-stim	s546	False	1
38.677	0.223	38.9	-3.41866330098473	draw_card	0.223	columbia_card_task_fmri	24.0	0.6666666666666667	89.0	-60.0	0.3333333333333333	8.0	3.0	2.0	6.52409431500265	0.223	n/a	stim	poldrack-single-stim	s546	False	1
38.902	0.264	39.166	-9.01866330098473	draw_card	0.264	columbia_card_task_fmri	24.0	0.6	89.0	-60.0	0.4	8.0	4.0	2.0	8.077381183984677	0.264	n/a	stim	poldrack-single-stim	s546	False	1
39.168	2.935	42.103	-17.41866330098473	end_round	2.935	columbia_card_task_fmri	24.0	0.5	71.0	-60.0	0.5	8.0	5.0	2.0	8.92587055521458	2.935	4.0	stim	poldrack-single-stim	s546	False	1
42.856	1.5	42.105	n/a	-1.0	2.386	columbia_card_task_fmri	n/a	n/a	-1.0	n/a	n/a	n/a	n/a	n/a	n/a	n/a	n/a	ITI	poldrack-single-stim	s546	False	0
44.493	2.991	47.484	3.58133669901527	draw_card	2.991	columbia_card_task_fmri	29.0	0.75	89.0	-75.0	0.25	8.0	1.0	2.0	11.958920593803532	2.991	n/a	stim	poldrack-single-stim	s546	False	1
47.486	0.245	47.731	-0.1329490152704416	draw_card	0.245	columbia_card_task_fmri	29.0	0.7142857142857143	89.0	-75.0	0.2857142857142857	8.0	2.0	2.0	13.907854902775831	0.245	2.0	stim	poldrack-single-stim	s546	False	0
48.484	1.5	47.733	n/a	-1.0	2.386	columbia_card_task_fmri	n/a	n/a	-1.0	n/a	n/a	n/a	n/a	n/a	n/a	n/a	n/a	ITI	poldrack-single-stim	s546	False	0
50.122	5.134	55.256	-0.6408855232069496	draw_card	5.134	columbia_card_task_fmri	17.0	0.7777777777777778	89.0	-65.0	0.2222222222222222	9.0	1.0	2.0	1.0174600072061253	5.134	n/a	stim	poldrack-single-stim	s546	False	1
55.258	0.357	55.615	-2.91866330098473	draw_card	0.357	columbia_card_task_fmri	17.0	0.75	89.0	-65.0	0.25	9.0	2.0	2.0	2.4336476902335065	0.357	2.0	stim	poldrack-single-stim	s546	False	0
56.368	1.5	55.617	n/a	-1.0	2.25	columbia_card_task_fmri	n/a	n/a	-1.0	n/a	n/a	n/a	n/a	n/a	n/a	n/a	n/a	ITI	poldrack-single-stim	s546	False	0
57.87	1.093	58.963	3.6813366990152696	end_round	1.093	columbia_card_task_fmri	14.0	0.9	71.0	-95.0	0.1	10.0	1.0	1.0	-0.3729854354523425	1.093	0.0	stim	poldrack-single-stim	s546	False	1
59.715	1.5	58.964	n/a	-1.0	2.318	columbia_card_task_fmri	n/a	n/a	-1.0	n/a	n/a	n/a	n/a	n/a	n/a	n/a	n/a	ITI	poldrack-single-stim	s546	False	0
61.284	2.498	63.782	-0.4186633009847299	draw_card	2.498	columbia_card_task_fmri	15.0	0.8	89.0	-65.0	0.2	10.0	1.0	2.0	-1.0728724244840393	2.498	n/a	stim	poldrack-single-stim	s546	False	1
63.784	0.313	64.097	-2.196441078762507	draw_card	0.313	columbia_card_task_fmri	15.0	0.7777777777777778	89.0	-65.0	0.2222222222222222	10.0	2.0	2.0	0.1861044770067224	0.313	n/a	stim	poldrack-single-stim	s546	False	1
64.099	0.371	64.47	-4.41866330098473	draw_card	0.371	columbia_card_task_fmri	15.0	0.75	89.0	-65.0	0.25	10.0	3.0	2.0	1.567741235643112	0.371	n/a	stim	poldrack-single-stim	s546	False	1
64.472	1.308	65.78	-7.275806158127584	draw_card	1.308	columbia_card_task_fmri	15.0	0.7142857142857143	89.0	-65.0	0.2857142857142857	10.0	4.0	2.0	3.0668388783040683	1.308	n/a	stim	poldrack-single-stim	s546	False	1
65.782	0.695	66.477	-11.085329967651392	end_round	0.695	columbia_card_task_fmri	15.0	0.6666666666666667	71.0	-65.0	0.3333333333333333	10.0	5.0	2.0	4.63868956024838	0.695	4.0	stim	poldrack-single-stim	s546	False	1
67.229	1.5	66.478	n/a	-1.0	2.25	columbia_card_task_fmri	n/a	n/a	-1.0	n/a	n/a	n/a	n/a	n/a	n/a	n/a	n/a	ITI	poldrack-single-stim	s546	False	0
68.731	2.065	70.796	1.1813366990152714	draw_card	2.065	columbia_card_task_fmri	17.0	0.8	89.0	-65.0	0.2	10.0	1.0	2.0	-0.273001186203551	2.065	n/a	stim	poldrack-single-stim	s546	False	1
70.798	0.355	71.153	-0.6408855232069496	draw_card	0.355	columbia_card_task_fmri	17.0	0.7777777777777778	89.0	-65.0	0.2222222222222222	10.0	2.0	2.0	1.0174600072061253	0.355	n/a	stim	poldrack-single-stim	s546	False	1
71.155	0.687	71.842	-2.91866330098473	draw_card	0.687	columbia_card_task_fmri	17.0	0.75	89.0	-65.0	0.25	10.0	3.0	2.0	2.4336476902335065	0.687	n/a	stim	poldrack-single-stim	s546	False	1
71.843	0.432	72.275	-5.847234729556157	draw_card	0.432	columbia_card_task_fmri	17.0	0.7142857142857143	89.0	-65.0	0.2857142857142857	10.0	4.0	2.0	3.970232764776071	0.432	4.0	stim	poldrack-single-stim	s546	False	0
73.029	1.5	72.278	n/a	-1.0	2.25	columbia_card_task_fmri	n/a	n/a	-1.0	n/a	n/a	n/a	n/a	n/a	n/a	n/a	n/a	ITI	poldrack-single-stim	s546	False	0
74.532	2.465	76.997	-0.2519966343180621	end_round	2.465	columbia_card_task_fmri	13.0	0.8333333333333334	71.0	-70.0	0.1666666666666666	12.0	1.0	2.0	-2.140416508884769	2.465	0.0	stim	poldrack-single-stim	s546	False	1
77.749	1.5	76.998	n/a	-1.0	2.386	columbia_card_task_fmri	n/a	n/a	-1.0	n/a	n/a	n/a	n/a	n/a	n/a	n/a	n/a	ITI	poldrack-single-stim	s546	False	0
79.386	1.022	80.408	-0.2519966343180621	end_round	1.022	columbia_card_task_fmri	15.0	0.8333333333333334	71.0	-80.0	0.1666666666666666	12.0	1.0	2.0	2.3310295714931755	1.022	0.0	stim	poldrack-single-stim	s546	False	1
81.162	1.5	80.411	n/a	-1.0	2.386	columbia_card_task_fmri	n/a	n/a	-1.0	n/a	n/a	n/a	n/a	n/a	n/a	n/a	n/a	ITI	poldrack-single-stim	s546	False	0
82.8	3.36	86.16	-1.218663300984729	draw_card	3.36	columbia_card_task_fmri	14.0	0.8	89.0	-65.0	0.2	15.0	1.0	3.0	-1.472805599391748	3.36	n/a	stim	poldrack-single-stim	s546	False	1
86.162	0.237	86.399	-2.347234729556157	draw_card	0.237	columbia_card_task_fmri	14.0	0.7857142857142857	89.0	-65.0	0.2142857142857142	15.0	2.0	3.0	-0.6571937701641062	0.237	n/a	stim	poldrack-single-stim	s546	False	1
86.401	0.227	86.628	-3.6494325317539618	draw_card	0.227	columbia_card_task_fmri	14.0	0.7692307692307692	89.0	-65.0	0.2307692307692307	15.0	3.0	3.0	0.2116023085241565	0.227	n/a	stim	poldrack-single-stim	s546	False	1
86.63	0.225	86.855	-5.16866330098473	draw_card	0.225	columbia_card_task_fmri	14.0	0.75	89.0	-65.0	0.25	15.0	4.0	3.0	1.1347902663958465	0.225	n/a	stim	poldrack-single-stim	s546	False	1
86.857	0.283	87.14	-6.964117846439275	draw_card	0.283	columbia_card_task_fmri	14.0	0.7272727272727273	89.0	-65.0	0.2727272727272727	15.0	5.0	3.0	2.1102298195688576	0.283	n/a	stim	poldrack-single-stim	s546	False	1
87.142	1.386	88.528	-9.11866330098473	end_round	1.386	columbia_card_task_fmri	14.0	0.7	71.0	-65.0	0.3	15.0	6.0	3.0	3.128862742336267	1.386	5.0	stim	poldrack-single-stim	s546	False	1
89.281	1.5	88.53	n/a	-1.0	2.726	columbia_card_task_fmri	n/a	n/a	-1.0	n/a	n/a	n/a	n/a	n/a	n/a	n/a	n/a	ITI	poldrack-single-stim	s546	False	0
91.26	1.281	92.541	-1.29366330098473	end_round	1.281	columbia_card_task_fmri	1.0	0.9375	71.0	-45.0	0.0625	16.0	1.0	1.0	-21.928160236273705	1.281	0.0	stim	poldrack-single-stim	s546	False	1
93.294	1.5	92.543	n/a	-1.0	2.454	columbia_card_task_fmri	n/a	n/a	-1.0	n/a	n/a	n/a	n/a	n/a	n/a	n/a	n/a	ITI	poldrack-single-stim	s546	False	0
95.0	2.378	97.378	-0.3561633009847299	draw_card	2.378	columbia_card_task_fmri	15.0	0.8125	89.0	-70.0	0.1875	16.0	1.0	3.0	0.1034922222745677	2.378	n/a	stim	poldrack-single-stim	s546	False	1
97.38	0.253	97.633	-1.41866330098473	draw_card	0.253	columbia_card_task_fmri	15.0	0.8	89.0	-70.0	0.2	16.0	2.0	3.0	0.9268170299727316	0.253	2.0	stim	poldrack-single-stim	s546	False	0
98.386	1.5	97.635	n/a	-1.0	2.318	columbia_card_task_fmri	n/a	n/a	-1.0	n/a	n/a	n/a	n/a	n/a	n/a	n/a	n/a	ITI	poldrack-single-stim	s546	False	0
99.956	3.223	103.179	6.58133669901527	draw_card	3.223	columbia_card_task_fmri	30.0	0.7	89.0	-50.0	0.3	10.0	1.0	3.0	3.587061978628753	3.223	n/a	stim	poldrack-single-stim	s546	False	1
103.181	0.241	103.422	3.914670032348609	draw_card	0.241	columbia_card_task_fmri	30.0	0.6666666666666667	89.0	-50.0	0.3333333333333333	10.0	2.0	3.0	4.63868956024838	0.241	2.0	stim	poldrack-single-stim	s546	False	0
104.176	1.5	103.425	n/a	-1.0	2.318	columbia_card_task_fmri	n/a	n/a	-1.0	n/a	n/a	n/a	n/a	n/a	n/a	n/a	n/a	ITI	poldrack-single-stim	s546	False	0
105.745	2.483	108.228	5.98133669901527	draw_card	2.483	columbia_card_task_fmri	17.0	0.8666666666666667	89.0	-70.0	0.1333333333333333	15.0	1.0	2.0	-3.498126254485129	2.483	n/a	stim	poldrack-single-stim	s546	False	1
108.23	0.258	108.488	5.152765270443843	draw_card	0.258	columbia_card_task_fmri	17.0	0.8571428571428572	89.0	-70.0	0.1428571428571428	15.0	2.0	2.0	-2.628944312830491	0.258	n/a	stim	poldrack-single-stim	s546	False	1
108.49	0.23	108.72	4.196721314399885	draw_card	0.23	columbia_card_task_fmri	17.0	0.8461538461538461	89.0	-70.0	0.1538461538461538	15.0	3.0	2.0	-1.683064314538349	0.23	n/a	stim	poldrack-single-stim	s546	False	1
108.722	0.292	109.014	3.081336699015272	draw_card	0.292	columbia_card_task_fmri	17.0	0.8333333333333334	89.0	-70.0	0.1666666666666666	15.0	4.0	2.0	-0.6499556226387142	0.292	n/a	stim	poldrack-single-stim	s546	False	1
109.017	0.919	109.936	1.7631548808334498	draw_card	0.919	columbia_card_task_fmri	17.0	0.8181818181818181	89.0	-70.0	0.1818181818181818	15.0	5.0	2.0	0.482313749416285	0.919	5.0	stim	poldrack-single-stim	s546	False	0
110.689	1.5	109.938	n/a	-1.0	2.59	columbia_card_task_fmri	n/a	n/a	-1.0	n/a	n/a	n/a	n/a	n/a	n/a	n/a	n/a	ITI	poldrack-single-stim	s546	False	0
112.532	1.971	114.503	1.20633669901527	end_round	1.971	columbia_card_task_fmri	7.0	0.9375	71.0	-95.0	0.0625	16.0	1.0	1.0	-8.381040773499489	1.971	0.0	stim	poldrack-single-stim	s546	False	1
115.256	1.5	114.505	n/a	-1.0	2.726	columbia_card_task_fmri	n/a	n/a	-1.0	n/a	n/a	n/a	n/a	n/a	n/a	n/a	n/a	ITI	poldrack-single-stim	s546	False	0
117.234	1.101	118.335	2.76883669901527	end_round	1.101	columbia_card_task_fmri	9.0	0.9375	71.0	-100.0	0.0625	16.0	1.0	1.0	-6.687049900828107	1.101	0.0	stim	poldrack-single-stim	s546	False	1
119.088	1.5	118.337	n/a	-1.0	2.522	columbia_card_task_fmri	n/a	n/a	-1.0	n/a	n/a	n/a	n/a	n/a	n/a	n/a	n/a	ITI	poldrack-single-stim	s546	False	0
120.863	1.996	122.859	3.70633669901527	draw_card	1.996	columbia_card_task_fmri	15.0	0.875	89.0	-80.0	0.125	16.0	1.0	2.0	-1.6544778627814123	1.996	n/a	stim	poldrack-single-stim	s546	False	1
122.861	0.284	123.145	2.914670032348604	draw_card	0.284	columbia_card_task_fmri	15.0	0.8666666666666667	89.0	-80.0	0.1333333333333333	16.0	2.0	2.0	-0.7791301989401376	0.284	n/a	stim	poldrack-single-stim	s546	False	1
123.147	0.428	123.575	2.009908127586701	draw_card	0.428	columbia_card_task_fmri	15.0	0.8571428571428572	89.0	-80.0	0.1428571428571428	16.0	3.0	2.0	0.1700052465927441	0.428	n/a	stim	poldrack-single-stim	s546	False	1
123.577	1.199	124.776	0.9659520836306532	end_round	1.199	columbia_card_task_fmri	15.0	0.8461538461538461	71.0	-80.0	0.1538461538461538	16.0	4.0	2.0	1.2028921711203608	1.199	3.0	stim	poldrack-single-stim	s546	False	1
125.53	1.5	124.779	n/a	-1.0	3.134	columbia_card_task_fmri	n/a	n/a	-1.0	n/a	n/a	n/a	n/a	n/a	n/a	n/a	n/a	ITI	poldrack-single-stim	s546	False	0
127.917	7.063	134.98	5.83133669901527	draw_card	7.063	columbia_card_task_fmri	16.0	0.875	89.0	-70.0	0.125	16.0	1.0	2.0	-4.63038540532623	7.063	n/a	stim	poldrack-single-stim	s546	False	1
134.982	0.237	135.219	5.114670032348603	draw_card	0.237	columbia_card_task_fmri	16.0	0.8666666666666667	89.0	-70.0	0.1333333333333333	16.0	2.0	2.0	-3.837994470836208	0.237	n/a	stim	poldrack-single-stim	s546	False	1
135.221	0.224	135.445	4.295622413300985	draw_card	0.224	columbia_card_task_fmri	16.0	0.8571428571428572	89.0	-70.0	0.1428571428571428	16.0	3.0	2.0	-2.978806896609772	0.224	n/a	stim	poldrack-single-stim	s546	False	1
135.447	0.283	135.73	3.3505674682460382	draw_card	0.283	columbia_card_task_fmri	16.0	0.8461538461538461	89.0	-70.0	0.1538461538461538	16.0	4.0	2.0	-2.043802948096296	0.283	n/a	stim	poldrack-single-stim	s546	False	1
135.732	0.677	136.409	2.248003365681938	end_round	0.677	columbia_card_task_fmri	16.0	0.8333333333333334	71.0	-70.0	0.1666666666666666	16.0	5.0	2.0	-1.0225730334703371	0.677	4.0	stim	poldrack-single-stim	s546	False	1
137.163	1.5	136.412	n/a	-1.0	2.386	columbia_card_task_fmri	n/a	n/a	-1.0	n/a	n/a	n/a	n/a	n/a	n/a	n/a	n/a	ITI	poldrack-single-stim	s546	False	0
138.803	14.076	152.879	7.14383669901527	draw_card	14.076	columbia_card_task_fmri	30.0	0.6875	89.0	-45.0	0.3125	16.0	1.0	5.0	1.6901383192627577	14.076	n/a	stim	poldrack-single-stim	s546	False	1
152.882	0.224	153.106	5.5813366990152735	draw_card	0.224	columbia_card_task_fmri	30.0	0.6666666666666667	89.0	-45.0	0.3333333333333333	16.0	2.0	5.0	2.281965609946809	0.224	n/a	stim	poldrack-single-stim	s546	False	1
153.109	0.229	153.338	3.7956224133009817	draw_card	0.229	columbia_card_task_fmri	30.0	0.6428571428571428	89.0	-45.0	0.3571428571428571	16.0	3.0	5.0	2.8633560157604663	0.229	n/a	stim	poldrack-single-stim	s546	False	1
153.34	0.224	153.564	1.7351828528614233	draw_card	0.224	columbia_card_task_fmri	30.0	0.6153846153846154	89.0	-45.0	0.3846153846153846	16.0	4.0	5.0	3.4142973973074646	0.224	n/a	stim	poldrack-single-stim	s546	False	1
153.567	0.285	153.852	-0.6686633009847335	draw_card	0.285	columbia_card_task_fmri	30.0	0.5833333333333333	89.0	-45.0	0.4166666666666667	16.0	5.0	5.0	3.901915817504985	0.285	n/a	stim	poldrack-single-stim	s546	False	1
153.854	0.33	154.184	-3.50957239189382	draw_card	0.33	columbia_card_task_fmri	30.0	0.5454545454545454	89.0	-45.0	0.4545454545454545	16.0	6.0	5.0	4.271091828968423	0.33	6.0	stim	poldrack-single-stim	s546	False	0
154.937	1.5	154.186	n/a	-1.0	2.386	columbia_card_task_fmri	n/a	n/a	-1.0	n/a	n/a	n/a	n/a	n/a	n/a	n/a	n/a	ITI	poldrack-single-stim	s546	False	0
156.576	3.609	160.185	-1.085329967651396	draw_card	3.609	columbia_card_task_fmri	13.0	0.8333333333333334	89.0	-75.0	0.1666666666666666	6.0	1.0	1.0	-0.277336835193914	3.609	n/a	stim	poldrack-single-stim	s546	False	1
160.187	0.22	160.407	-4.01866330098473	draw_card	0.22	columbia_card_task_fmri	13.0	0.8	89.0	-75.0	0.2	6.0	2.0	1.0	2.1266476378742	0.22	n/a	stim	poldrack-single-stim	s546	False	1
160.409	0.204	160.613	-8.41866330098473	draw_card	0.204	columbia_card_task_fmri	13.0	0.75	89.0	-75.0	0.25	6.0	3.0	1.0	5.031399488705532	0.204	3.0	stim	poldrack-single-stim	s546	False	0
161.367	1.5	160.616	n/a	-1.0	2.318	columbia_card_task_fmri	n/a	n/a	-1.0	n/a	n/a	n/a	n/a	n/a	n/a	n/a	n/a	ITI	poldrack-single-stim	s546	False	0
162.937	0.99	163.927	0.5813366990152719	draw_card	0.99	columbia_card_task_fmri	14.0	0.8333333333333334	89.0	-70.0	0.1666666666666666	6.0	1.0	1.0	-1.7678035287010836	0.99	n/a	stim	poldrack-single-stim	s546	False	1
163.928	0.293	164.221	-2.218663300984729	draw_card	0.293	columbia_card_task_fmri	14.0	0.8	89.0	-70.0	0.2	6.0	2.0	1.0	0.5268761821770624	0.293	n/a	stim	poldrack-single-stim	s546	False	1
164.224	0.632	164.856	-6.41866330098473	end_round	0.632	columbia_card_task_fmri	14.0	0.75	71.0	-70.0	0.25	6.0	3.0	1.0	3.299559807959419	0.632	2.0	stim	poldrack-single-stim	s546	False	1
165.609	1.5	164.858	n/a	-1.0	2.318	columbia_card_task_fmri	n/a	n/a	-1.0	n/a	n/a	n/a	n/a	n/a	n/a	n/a	n/a	ITI	poldrack-single-stim	s546	False	0
167.18	1.767	168.947	0.5813366990152719	draw_card	1.767	columbia_card_task_fmri	16.0	0.8333333333333334	89.0	-80.0	0.1666666666666666	6.0	1.0	1.0	2.703657861607752	1.767	n/a	stim	poldrack-single-stim	s546	False	1
168.948	0.288	169.236	-2.6186633009847293	draw_card	0.288	columbia_card_task_fmri	16.0	0.8	89.0	-80.0	0.2	6.0	2.0	1.0	5.32624767476014	0.288	n/a	stim	poldrack-single-stim	s546	False	1
169.24	0.783	170.023	-7.41866330098473	end_round	0.783	columbia_card_task_fmri	16.0	0.75	71.0	-80.0	0.25	6.0	3.0	1.0	8.495131623559757	0.783	2.0	stim	poldrack-single-stim	s546	False	1
170.775	1.5	170.024	n/a	-1.0	2.862	columbia_card_task_fmri	n/a	n/a	-1.0	n/a	n/a	n/a	n/a	n/a	n/a	n/a	n/a	ITI	poldrack-single-stim	s546	False	0
172.89	1.623	174.513	3.081336699015272	draw_card	1.623	columbia_card_task_fmri	17.0	0.8333333333333334	89.0	-70.0	0.1666666666666666	6.0	1.0	1.0	-0.6499556226387142	1.623	n/a	stim	poldrack-single-stim	s546	False	1
174.516	0.331	174.847	0.1813366990152715	draw_card	0.331	columbia_card_task_fmri	17.0	0.8	89.0	-70.0	0.2	6.0	2.0	1.0	1.7267028041559982	0.331	n/a	stim	poldrack-single-stim	s546	False	1
174.848	0.572	175.42	-4.16866330098473	end_round	0.572	columbia_card_task_fmri	17.0	0.75	71.0	-70.0	0.25	6.0	3.0	1.0	4.598437748787809	0.572	2.0	stim	poldrack-single-stim	s546	False	1
176.175	1.5	175.424	n/a	-1.0	2.726	columbia_card_task_fmri	n/a	n/a	-1.0	n/a	n/a	n/a	n/a	n/a	n/a	n/a	n/a	ITI	poldrack-single-stim	s546	False	0
178.154	1.515	179.669	3.08133669901527	draw_card	1.515	columbia_card_task_fmri	25.0	0.75	89.0	-65.0	0.25	8.0	1.0	2.0	5.897326365428242	1.515	n/a	stim	poldrack-single-stim	s546	False	1
179.671	0.251	179.922	-0.1329490152704416	draw_card	0.251	columbia_card_task_fmri	25.0	0.7142857142857143	89.0	-65.0	0.2857142857142857	8.0	2.0	2.0	7.583858976289825	0.251	2.0	stim	poldrack-single-stim	s546	False	0
180.676	1.5	179.925	n/a	-1.0	2.25	columbia_card_task_fmri	n/a	n/a	-1.0	n/a	n/a	n/a	n/a	n/a	n/a	n/a	n/a	ITI	poldrack-single-stim	s546	False	0
182.18	1.85	184.03	3.08133669901527	draw_card	1.85	columbia_card_task_fmri	30.0	0.75	89.0	-80.0	0.25	8.0	1.0	2.0	14.556792161302845	1.85	1.0	stim	poldrack-single-stim	s546	False	0
184.784	1.5	184.033	n/a	-1.0	2.318	columbia_card_task_fmri	n/a	n/a	-1.0	n/a	n/a	n/a	n/a	n/a	n/a	n/a	n/a	ITI	poldrack-single-stim	s546	False	0
186.356	2.528	188.884	2.781336699015271	draw_card	2.528	columbia_card_task_fmri	13.0	0.9	89.0	-95.0	0.1	10.0	1.0	1.0	-0.6729375999773524	2.528	n/a	stim	poldrack-single-stim	s546	False	1
188.888	0.342	189.23	1.58133669901527	draw_card	0.342	columbia_card_task_fmri	13.0	0.8888888888888888	89.0	-95.0	0.1111111111111111	10.0	2.0	1.0	0.8679511458342546	0.342	n/a	stim	poldrack-single-stim	s546	False	1
189.231	1.15	190.381	0.08133669901527	end_round	1.15	columbia_card_task_fmri	13.0	0.875	71.0	-95.0	0.125	10.0	3.0	1.0	2.644220779968414	1.15	2.0	stim	poldrack-single-stim	s546	False	1
191.135	1.5	190.384	n/a	-1.0	2.454	columbia_card_task_fmri	n/a	n/a	-1.0	n/a	n/a	n/a	n/a	n/a	n/a	n/a	n/a	ITI	poldrack-single-stim	s546	False	0
192.841	1.922	194.763	4.18133669901527	draw_card	1.922	columbia_card_task_fmri	14.0	0.9	89.0	-90.0	0.1	10.0	1.0	1.0	-1.872737061275956	1.922	n/a	stim	poldrack-single-stim	s546	False	1
194.767	0.335	195.102	3.025781143459713	draw_card	0.335	columbia_card_task_fmri	14.0	0.8888888888888888	89.0	-90.0	0.1111111111111111	10.0	2.0	1.0	-0.3889361389422916	0.335	n/a	stim	poldrack-single-stim	s546	False	1
195.104	0.749	195.853	1.58133669901527	end_round	0.749	columbia_card_task_fmri	14.0	0.875	71.0	-90.0	0.125	10.0	3.0	1.0	1.3215270441287077	0.749	2.0	stim	poldrack-single-stim	s546	False	1
196.606	1.5	195.855	n/a	-1.0	2.522	columbia_card_task_fmri	n/a	n/a	-1.0	n/a	n/a	n/a	n/a	n/a	n/a	n/a	n/a	ITI	poldrack-single-stim	s546	False	0
198.381	1.74	200.121	-0.6186633009847292	draw_card	1.74	columbia_card_task_fmri	16.0	0.8	89.0	-70.0	0.2	10.0	1.0	2.0	1.326759253102999	1.74	n/a	stim	poldrack-single-stim	s546	False	1
200.124	0.353	200.477	-2.5297744120958408	draw_card	0.353	columbia_card_task_fmri	16.0	0.7777777777777778	89.0	-70.0	0.2222222222222222	10.0	2.0	2.0	2.6801883508857003	0.353	n/a	stim	poldrack-single-stim	s546	False	1
200.48	0.522	201.002	-4.91866330098473	end_round	0.522	columbia_card_task_fmri	16.0	0.75	71.0	-70.0	0.25	10.0	3.0	2.0	4.165477193818191	0.522	2.0	stim	poldrack-single-stim	s546	False	1
201.755	1.5	201.004	n/a	-1.0	2.318	columbia_card_task_fmri	n/a	n/a	-1.0	n/a	n/a	n/a	n/a	n/a	n/a	n/a	n/a	ITI	poldrack-single-stim	s546	False	0
203.326	1.243	204.569	-1.335329967651396	end_round	1.243	columbia_card_task_fmri	7.0	0.9166666666666666	71.0	-100.0	0.0833333333333333	12.0	1.0	1.0	-3.4992015115990505	1.243	0.0	stim	poldrack-single-stim	s546	False	1
205.323	1.5	204.572	n/a	-1.0	2.522	columbia_card_task_fmri	n/a	n/a	-1.0	n/a	n/a	n/a	n/a	n/a	n/a	n/a	n/a	ITI	poldrack-single-stim	s546	False	0
207.099	1.778	208.877	-1.0853299676513943	end_round	1.778	columbia_card_task_fmri	14.0	0.8333333333333334	71.0	-80.0	0.1666666666666666	12.0	1.0	2.0	1.9584023387398588	1.778	0.0	stim	poldrack-single-stim	s546	False	1
209.631	1.5	208.88	n/a	-1.0	2.998	columbia_card_task_fmri	n/a	n/a	-1.0	n/a	n/a	n/a	n/a	n/a	n/a	n/a	n/a	ITI	poldrack-single-stim	s546	False	0
211.882	1.768	213.65	0.5813366990152701	draw_card	1.768	columbia_card_task_fmri	15.0	0.8333333333333334	89.0	-75.0	0.1666666666666666	12.0	1.0	2.0	0.467904686043326	1.768	n/a	stim	poldrack-single-stim	s546	False	1
213.654	0.268	213.922	-0.782299664621095	draw_card	0.268	columbia_card_task_fmri	15.0	0.8181818181818181	89.0	-75.0	0.1818181818181818	12.0	2.0	2.0	1.6392297519529464	0.268	n/a	stim	poldrack-single-stim	s546	False	1
213.925	0.737	214.662	-2.41866330098473	end_round	0.737	columbia_card_task_fmri	15.0	0.8	71.0	-75.0	0.2	12.0	3.0	2.0	2.926540982329904	0.737	2.0	stim	poldrack-single-stim	s546	False	1
215.417	1.5	214.666	n/a	-1.0	2.318	columbia_card_task_fmri	n/a	n/a	-1.0	n/a	n/a	n/a	n/a	n/a	n/a	n/a	n/a	ITI	poldrack-single-stim	s546	False	0
216.987	6.185	223.172	-0.4186633009847299	draw_card	6.185	columbia_card_task_fmri	15.0	0.8	89.0	-65.0	0.2	15.0	1.0	3.0	-1.0728724244840393	6.185	n/a	stim	poldrack-single-stim	s546	False	1
223.175	0.265	223.44	-1.5615204438418724	draw_card	0.265	columbia_card_task_fmri	15.0	0.7857142857142857	89.0	-65.0	0.2142857142857142	15.0	2.0	3.0	-0.2469330110816372	0.265	2.0	stim	poldrack-single-stim	s546	False	0
224.195	1.5	223.444	n/a	-1.0	2.25	columbia_card_task_fmri	n/a	n/a	-1.0	n/a	n/a	n/a	n/a	n/a	n/a	n/a	n/a	ITI	poldrack-single-stim	s546	False	0
225.698	3.059	228.757	-1.16866330098473	draw_card	3.059	columbia_card_task_fmri	14.0	0.8125	89.0	-70.0	0.1875	16.0	1.0	3.0	-0.2867595329281656	3.059	1.0	stim	poldrack-single-stim	s546	False	0
229.511	1.5	228.76	n/a	-1.0	2.454	columbia_card_task_fmri	n/a	n/a	-1.0	n/a	n/a	n/a	n/a	n/a	n/a	n/a	n/a	ITI	poldrack-single-stim	s546	False	0
231.218	1.373	232.591	-1.23116330098473	draw_card	1.373	columbia_card_task_fmri	11.0	0.6875	89.0	-30.0	0.3125	16.0	1.0	5.0	-14.065254343267767	1.373	n/a	stim	poldrack-single-stim	s546	False	1
232.594	0.346	232.94	-2.085329967651396	draw_card	0.346	columbia_card_task_fmri	11.0	0.6666666666666667	89.0	-30.0	0.3333333333333333	16.0	2.0	5.0	-13.741826372024946	0.346	n/a	stim	poldrack-single-stim	s546	False	1
232.943	0.337	233.28	-3.061520443841874	draw_card	0.337	columbia_card_task_fmri	11.0	0.6428571428571428	89.0	-30.0	0.3571428571428571	16.0	3.0	5.0	-13.424098716457127	0.337	n/a	stim	poldrack-single-stim	s546	False	1
233.284	1.724	235.008	-4.187894070215498	end_round	1.724	columbia_card_task_fmri	11.0	0.6153846153846154	71.0	-30.0	0.3846153846153846	16.0	4.0	5.0	-13.12300842475167	1.724	3.0	stim	poldrack-single-stim	s546	False	1
235.762	1.5	235.011	n/a	-1.0	2.318	columbia_card_task_fmri	n/a	n/a	-1.0	n/a	n/a	n/a	n/a	n/a	n/a	n/a	n/a	ITI	poldrack-single-stim	s546	False	0
237.334	1.97	239.304	3.58133669901527	draw_card	1.97	columbia_card_task_fmri	15.0	0.8666666666666667	89.0	-75.0	0.1333333333333333	15.0	1.0	2.0	-2.478512752175437	1.97	n/a	stim	poldrack-single-stim	s546	False	1
239.306	0.277	239.583	2.724193841872414	draw_card	0.277	columbia_card_task_fmri	15.0	0.8571428571428572	89.0	-75.0	0.1428571428571428	15.0	2.0	2.0	-1.5793479607720862	0.277	2.0	stim	poldrack-single-stim	s546	False	0
240.338	1.5	239.587	n/a	-1.0	2.318	columbia_card_task_fmri	n/a	n/a	-1.0	n/a	n/a	n/a	n/a	n/a	n/a	n/a	n/a	ITI	poldrack-single-stim	s546	False	0
241.91	1.134	243.044	5.314670032348604	draw_card	1.134	columbia_card_task_fmri	17.0	0.8666666666666667	89.0	-75.0	0.1333333333333333	15.0	1.0	2.0	-1.7987635205714128	1.134	n/a	stim	poldrack-single-stim	s546	False	1
243.048	0.259	243.307	4.438479556158129	draw_card	0.259	columbia_card_task_fmri	17.0	0.8571428571428572	89.0	-75.0	0.1428571428571428	15.0	2.0	2.0	-0.8796103594050919	0.259	n/a	stim	poldrack-single-stim	s546	False	1
243.309	0.319	243.628	3.4274905451691167	draw_card	0.319	columbia_card_task_fmri	17.0	0.8461538461538461	89.0	-75.0	0.1538461538461538	15.0	3.0	2.0	0.1206492544691357	0.319	n/a	stim	poldrack-single-stim	s546	False	1
243.631	0.588	244.219	2.248003365681938	end_round	0.588	columbia_card_task_fmri	17.0	0.8333333333333334	71.0	-75.0	0.1666666666666666	15.0	4.0	2.0	1.2131511831949808	0.588	3.0	stim	poldrack-single-stim	s546	False	1
244.973	1.5	244.222	n/a	-1.0	2.59	columbia_card_task_fmri	n/a	n/a	-1.0	n/a	n/a	n/a	n/a	n/a	n/a	n/a	n/a	ITI	poldrack-single-stim	s546	False	0
246.816	0.754	247.57	0.8938366990152701	end_round	0.754	columbia_card_task_fmri	2.0	0.9375	71.0	-25.0	0.0625	16.0	1.0	1.0	-26.516689539629155	0.754	0.0	stim	poldrack-single-stim	s546	False	1
248.323	1.5	247.572	n/a	-1.0	2.25	columbia_card_task_fmri	n/a	n/a	-1.0	n/a	n/a	n/a	n/a	n/a	n/a	n/a	n/a	ITI	poldrack-single-stim	s546	False	0
249.826	0.672	250.498	3.08133669901527	end_round	0.672	columbia_card_task_fmri	9.0	0.9375	71.0	-95.0	0.0625	16.0	1.0	1.0	-7.89704941382422	0.672	0.0	stim	poldrack-single-stim	s546	False	1
251.253	1.5	250.502	n/a	-1.0	2.25	columbia_card_task_fmri	n/a	n/a	-1.0	n/a	n/a	n/a	n/a	n/a	n/a	n/a	n/a	ITI	poldrack-single-stim	s546	False	0
252.755	3.763	256.518	4.64383669901527	end_round	3.763	columbia_card_task_fmri	11.0	0.9375	71.0	-100.0	0.0625	16.0	1.0	1.0	-6.203042334544307	3.763	0.0	stim	poldrack-single-stim	s546	False	1
257.273	1.5	256.522	n/a	-1.0	2.522	columbia_card_task_fmri	n/a	n/a	-1.0	n/a	n/a	n/a	n/a	n/a	n/a	n/a	n/a	ITI	poldrack-single-stim	s546	False	0
259.048	2.666	261.714	5.20633669901527	draw_card	2.666	columbia_card_task_fmri	16.0	0.875	89.0	-75.0	0.125	16.0	1.0	2.0	-2.977117174099316	2.666	n/a	stim	poldrack-single-stim	s546	False	1
261.717	0.351	262.068	4.448003365681937	draw_card	0.351	columbia_card_task_fmri	16.0	0.8666666666666667	89.0	-75.0	0.1333333333333333	16.0	2.0	2.0	-2.138638795742036	0.351	n/a	stim	poldrack-single-stim	s546	False	1
262.072	0.342	262.414	3.581336699015272	draw_card	0.342	columbia_card_task_fmri	16.0	0.8571428571428572	89.0	-75.0	0.1428571428571428	16.0	3.0	2.0	-1.2294798006474643	0.342	n/a	stim	poldrack-single-stim	s546	False	1
262.416	0.363	262.779	2.58133669901527	draw_card	0.363	columbia_card_task_fmri	16.0	0.8461538461538461	89.0	-75.0	0.1538461538461538	16.0	4.0	2.0	-0.2400960300831869	0.363	n/a	stim	poldrack-single-stim	s546	False	1
262.783	0.56	263.343	1.414670032348604	end_round	0.56	columbia_card_task_fmri	16.0	0.8333333333333334	71.0	-75.0	0.1666666666666666	16.0	5.0	2.0	0.8405273331289251	0.56	4.0	stim	poldrack-single-stim	s546	False	1
264.098	1.5	263.347	n/a	-1.0	2.454	columbia_card_task_fmri	n/a	n/a	-1.0	n/a	n/a	n/a	n/a	n/a	n/a	n/a	n/a	ITI	poldrack-single-stim	s546	False	0
265.805	5.61	271.415	5.45633669901527	draw_card	5.61	columbia_card_task_fmri	17.0	0.875	89.0	-80.0	0.125	16.0	1.0	2.0	-0.9931508993595272	5.61	n/a	stim	poldrack-single-stim	s546	False	1
271.417	0.321	271.738	4.648003365681938	draw_card	0.321	columbia_card_task_fmri	17.0	0.8666666666666667	89.0	-80.0	0.1333333333333333	16.0	2.0	2.0	-0.09936879069339	0.321	n/a	stim	poldrack-single-stim	s546	False	1
271.741	0.571	272.312	3.724193841872416	draw_card	0.571	columbia_card_task_fmri	17.0	0.8571428571428572	89.0	-80.0	0.1428571428571428	16.0	3.0	2.0	0.8697546772227724	0.571	n/a	stim	poldrack-single-stim	s546	False	1
272.316	0.428	272.744	2.6582597759383466	draw_card	0.428	columbia_card_task_fmri	17.0	0.8461538461538461	89.0	-80.0	0.1538461538461538	16.0	4.0	2.0	1.9243929707485063	0.428	n/a	stim	poldrack-single-stim	s546	False	1
272.747	0.409	273.156	1.4146700323486057	end_round	0.409	columbia_card_task_fmri	17.0	0.8333333333333334	71.0	-80.0	0.1666666666666666	16.0	5.0	2.0	3.076287176390288	0.409	4.0	stim	poldrack-single-stim	s546	False	1
273.912	1.5	273.161	n/a	-1.0	2.25	columbia_card_task_fmri	n/a	n/a	-1.0	n/a	n/a	n/a	n/a	n/a	n/a	n/a	n/a	ITI	poldrack-single-stim	s546	False	0
286.419	6.514	292.933	-0.2519966343180621	end_round	6.514	columbia_card_task_fmri	13.0	0.8333333333333334	71.0	-70.0	0.1666666666666666	6.0	1.0	1.0	-2.140416508884769	6.514	0.0	stim	poldrack-single-stim	s546	False	1
293.687	1.5	292.936	n/a	-1.0	2.454	columbia_card_task_fmri	n/a	n/a	-1.0	n/a	n/a	n/a	n/a	n/a	n/a	n/a	n/a	ITI	poldrack-single-stim	s546	False	0
295.394	1.72	297.114	-0.2519966343180621	end_round	1.72	columbia_card_task_fmri	15.0	0.8333333333333334	71.0	-80.0	0.1666666666666666	6.0	1.0	1.0	2.3310295714931755	1.72	0.0	stim	poldrack-single-stim	s546	False	1
297.869	1.5	297.118	n/a	-1.0	2.454	columbia_card_task_fmri	n/a	n/a	-1.0	n/a	n/a	n/a	n/a	n/a	n/a	n/a	n/a	ITI	poldrack-single-stim	s546	False	0
299.576	1.272	300.848	1.414670032348604	draw_card	1.272	columbia_card_task_fmri	16.0	0.8333333333333334	89.0	-75.0	0.1666666666666666	6.0	1.0	1.0	0.8405273331289251	1.272	n/a	stim	poldrack-single-stim	s546	False	1
300.851	0.355	301.206	-1.618663300984729	draw_card	0.355	columbia_card_task_fmri	16.0	0.8	89.0	-75.0	0.2	6.0	2.0	1.0	3.3264894122748743	0.355	2.0	stim	poldrack-single-stim	s546	False	0
301.961	1.5	301.21	n/a	-1.0	2.522	columbia_card_task_fmri	n/a	n/a	-1.0	n/a	n/a	n/a	n/a	n/a	n/a	n/a	n/a	ITI	poldrack-single-stim	s546	False	0
303.735	2.1	305.835	2.58133669901527	draw_card	2.1	columbia_card_task_fmri	21.0	0.75	89.0	-55.0	0.25	8.0	1.0	2.0	-0.1640528962999496	2.1	1.0	stim	poldrack-single-stim	s546	False	0
306.59	1.5	305.839	n/a	-1.0	2.454	columbia_card_task_fmri	n/a	n/a	-1.0	n/a	n/a	n/a	n/a	n/a	n/a	n/a	n/a	ITI	poldrack-single-stim	s546	False	0
308.297	1.349	309.646	3.83133669901527	draw_card	1.349	columbia_card_task_fmri	26.0	0.75	89.0	-65.0	0.25	8.0	1.0	2.0	6.330291427592989	1.349	n/a	stim	poldrack-single-stim	s546	False	1
309.65	0.378	310.028	0.5813366990152736	draw_card	0.378	columbia_card_task_fmri	26.0	0.7142857142857143	89.0	-65.0	0.2857142857142857	8.0	2.0	2.0	8.035567263761756	0.378	n/a	stim	poldrack-single-stim	s546	False	1
310.03	1.057	311.087	-3.751996634318058	end_round	1.057	columbia_card_task_fmri	26.0	0.6666666666666667	71.0	-65.0	0.3333333333333333	8.0	3.0	2.0	9.82359775631432	1.057	2.0	stim	poldrack-single-stim	s546	False	1
311.843	1.5	311.092	n/a	-1.0	2.658	columbia_card_task_fmri	n/a	n/a	-1.0	n/a	n/a	n/a	n/a	n/a	n/a	n/a	n/a	ITI	poldrack-single-stim	s546	False	0
313.754	4.727	318.481	-1.085329967651396	draw_card	4.727	columbia_card_task_fmri	15.0	0.7777777777777778	89.0	-60.0	0.2222222222222222	9.0	1.0	2.0	-1.892255448201688	4.727	n/a	stim	poldrack-single-stim	s546	False	1
318.491	0.398	318.889	-3.16866330098473	draw_card	0.398	columbia_card_task_fmri	15.0	0.75	89.0	-60.0	0.25	9.0	2.0	2.0	-0.5969971523604869	0.398	n/a	stim	poldrack-single-stim	s546	False	1
318.892	0.86	319.752	-5.847234729556157	draw_card	0.86	columbia_card_task_fmri	15.0	0.7142857142857143	89.0	-60.0	0.2857142857142857	9.0	3.0	2.0	0.8083807603754423	0.86	n/a	stim	poldrack-single-stim	s546	False	1
319.756	0.574	320.33	-9.418663300984727	end_round	0.574	columbia_card_task_fmri	15.0	0.6666666666666667	71.0	-60.0	0.3333333333333333	9.0	4.0	2.0	2.281965609946809	0.574	3.0	stim	poldrack-single-stim	s546	False	1
321.085	1.5	320.334	n/a	-1.0	2.386	columbia_card_task_fmri	n/a	n/a	-1.0	n/a	n/a	n/a	n/a	n/a	n/a	n/a	n/a	ITI	poldrack-single-stim	s546	False	0
322.725	1.523	324.248	3.281336699015271	end_round	1.523	columbia_card_task_fmri	13.0	0.9	71.0	-90.0	0.1	10.0	1.0	1.0	-2.172684493512321	1.523	0.0	stim	poldrack-single-stim	s546	False	1
325.002	1.5	324.251	n/a	-1.0	2.522	columbia_card_task_fmri	n/a	n/a	-1.0	n/a	n/a	n/a	n/a	n/a	n/a	n/a	n/a	ITI	poldrack-single-stim	s546	False	0
326.778	1.987	328.765	4.58133669901527	draw_card	1.987	columbia_card_task_fmri	15.0	0.9	89.0	-95.0	0.1	10.0	1.0	1.0	-0.0730324013956646	1.987	n/a	stim	poldrack-single-stim	s546	False	1
328.767	0.403	329.17	3.3591144767930468	draw_card	0.403	columbia_card_task_fmri	15.0	0.8888888888888888	89.0	-95.0	0.1111111111111111	10.0	2.0	1.0	1.4964000081055246	0.403	n/a	stim	poldrack-single-stim	s546	False	1
329.174	0.362	329.536	1.83133669901527	draw_card	0.362	columbia_card_task_fmri	15.0	0.875	89.0	-95.0	0.125	10.0	3.0	1.0	3.3055726083603147	0.362	n/a	stim	poldrack-single-stim	s546	False	1
329.539	0.897	330.436	-0.1329490152704434	end_round	0.897	columbia_card_task_fmri	15.0	0.8571428571428572	71.0	-95.0	0.1428571428571428	10.0	4.0	1.0	5.418218833482328	0.897	3.0	stim	poldrack-single-stim	s546	False	1
331.191	1.5	330.44	n/a	-1.0	2.59	columbia_card_task_fmri	n/a	n/a	-1.0	n/a	n/a	n/a	n/a	n/a	n/a	n/a	n/a	ITI	poldrack-single-stim	s546	False	0
333.035	1.876	334.911	0.3813366990152708	draw_card	1.876	columbia_card_task_fmri	16.0	0.8	89.0	-65.0	0.2	10.0	1.0	2.0	-0.6729375999773595	1.876	n/a	stim	poldrack-single-stim	s546	False	1
334.914	0.376	335.29	-1.4186633009847285	draw_card	0.376	columbia_card_task_fmri	16.0	0.7777777777777778	89.0	-65.0	0.2222222222222222	10.0	2.0	2.0	0.6017814775298973	0.376	n/a	stim	poldrack-single-stim	s546	False	1
335.294	0.32	335.614	-3.66866330098473	draw_card	0.32	columbia_card_task_fmri	16.0	0.75	89.0	-65.0	0.25	10.0	3.0	2.0	2.0006937288352877	0.32	3.0	stim	poldrack-single-stim	s546	False	0
336.369	1.5	335.618	n/a	-1.0	2.386	columbia_card_task_fmri	n/a	n/a	-1.0	n/a	n/a	n/a	n/a	n/a	n/a	n/a	n/a	ITI	poldrack-single-stim	s546	False	0
338.01	2.778	340.788	-0.91866330098473	end_round	2.778	columbia_card_task_fmri	7.0	0.9166666666666666	71.0	-95.0	0.0833333333333333	12.0	1.0	1.0	-4.880848503517839	2.778	0.0	stim	poldrack-single-stim	s546	False	1
341.542	1.5	340.791	n/a	-1.0	2.59	columbia_card_task_fmri	n/a	n/a	-1.0	n/a	n/a	n/a	n/a	n/a	n/a	n/a	n/a	ITI	poldrack-single-stim	s546	False	0
343.386	2.153	345.539	-0.2519966343180621	draw_card	2.153	columbia_card_task_fmri	14.0	0.8333333333333334	89.0	-75.0	0.1666666666666666	12.0	1.0	2.0	0.0952832824758616	2.153	n/a	stim	poldrack-single-stim	s546	False	1
345.543	0.399	345.942	-1.6004814828029137	draw_card	0.399	columbia_card_task_fmri	14.0	0.8181818181818181	89.0	-75.0	0.1818181818181818	12.0	2.0	2.0	1.2535898276243105	0.399	n/a	stim	poldrack-single-stim	s546	False	1
345.945	0.338	346.283	-3.218663300984729	draw_card	0.338	columbia_card_task_fmri	14.0	0.8	89.0	-75.0	0.2	12.0	3.0	2.0	2.5265937110334136	0.338	3.0	stim	poldrack-single-stim	s546	False	0
347.037	1.5	346.286	n/a	-1.0	2.318	columbia_card_task_fmri	n/a	n/a	-1.0	n/a	n/a	n/a	n/a	n/a	n/a	n/a	n/a	ITI	poldrack-single-stim	s546	False	0
348.608	5.492	354.1	1.414670032348604	draw_card	5.492	columbia_card_task_fmri	15.0	0.8333333333333334	89.0	-70.0	0.1666666666666666	12.0	1.0	2.0	-1.3951890191185117	5.492	n/a	stim	poldrack-single-stim	s546	False	1
354.104	0.307	354.411	0.1267912444698132	draw_card	0.307	columbia_card_task_fmri	15.0	0.8181818181818181	89.0	-70.0	0.1818181818181818	12.0	2.0	2.0	-0.2889570058946873	0.307	2.0	stim	poldrack-single-stim	s546	False	0
355.166	1.5	354.415	n/a	-1.0	2.25	columbia_card_task_fmri	n/a	n/a	-1.0	n/a	n/a	n/a	n/a	n/a	n/a	n/a	n/a	ITI	poldrack-single-stim	s546	False	0
356.669	6.11	362.779	-0.6186633009847292	draw_card	6.11	columbia_card_task_fmri	16.0	0.8	89.0	-70.0	0.2	15.0	1.0	3.0	1.326759253102999	6.11	n/a	stim	poldrack-single-stim	s546	False	1
362.783	0.329	363.112	-1.8472347295561589	draw_card	0.329	columbia_card_task_fmri	16.0	0.7857142857142857	89.0	-70.0	0.2142857142857142	15.0	2.0	3.0	2.214663351215748	0.329	2.0	stim	poldrack-single-stim	s546	False	0
363.866	1.5	363.115	n/a	-1.0	2.454	columbia_card_task_fmri	n/a	n/a	-1.0	n/a	n/a	n/a	n/a	n/a	n/a	n/a	n/a	ITI	poldrack-single-stim	s546	False	0
365.573	3.413	368.986	-0.2311633009847299	draw_card	3.413	columbia_card_task_fmri	14.0	0.8125	89.0	-65.0	0.1875	16.0	1.0	3.0	-2.237995294672565	3.413	n/a	stim	poldrack-single-stim	s546	False	1
368.991	0.43	369.421	-1.218663300984729	draw_card	0.43	columbia_card_task_fmri	14.0	0.8	89.0	-65.0	0.2	16.0	2.0	3.0	-1.472805599391748	0.43	n/a	stim	poldrack-single-stim	s546	False	1
369.424	0.375	369.799	-2.347234729556157	draw_card	0.375	columbia_card_task_fmri	14.0	0.7857142857142857	89.0	-65.0	0.2142857142857142	16.0	3.0	3.0	-0.6571937701641062	0.375	n/a	stim	poldrack-single-stim	s546	False	1
369.803	0.465	370.268	-3.6494325317539618	end_round	0.465	columbia_card_task_fmri	14.0	0.7692307692307692	71.0	-65.0	0.2307692307692307	16.0	4.0	3.0	0.2116023085241565	0.465	3.0	stim	poldrack-single-stim	s546	False	1
371.023	1.5	370.272	n/a	-1.0	3.27	columbia_card_task_fmri	n/a	n/a	-1.0	n/a	n/a	n/a	n/a	n/a	n/a	n/a	n/a	ITI	poldrack-single-stim	s546	False	0
373.546	11.349	384.895	-0.4811633009847299	draw_card	11.349	columbia_card_task_fmri	16.0	0.8125	89.0	-75.0	0.1875	16.0	1.0	3.0	2.4450307259046653	11.349	1.0	stim	poldrack-single-stim	s546	False	0
385.65	1.5	384.899	n/a	-1.0	2.25	columbia_card_task_fmri	n/a	n/a	-1.0	n/a	n/a	n/a	n/a	n/a	n/a	n/a	n/a	ITI	poldrack-single-stim	s546	False	0
387.154	4.151	391.305	3.781336699015271	end_round	4.151	columbia_card_task_fmri	16.0	0.8666666666666667	71.0	-80.0	0.1333333333333333	15.0	1.0	2.0	-0.4392500564551369	4.151	0.0	stim	poldrack-single-stim	s546	False	1
392.061	1.5	391.31	n/a	-1.0	2.25	columbia_card_task_fmri	n/a	n/a	-1.0	n/a	n/a	n/a	n/a	n/a	n/a	n/a	n/a	ITI	poldrack-single-stim	s546	False	0
393.564	0.907	394.471	4.648003365681938	end_round	0.907	columbia_card_task_fmri	17.0	0.8666666666666667	71.0	-80.0	0.1333333333333333	15.0	1.0	2.0	-0.09936879069339	0.907	0.0	stim	poldrack-single-stim	s546	False	1
395.226	1.5	394.475	n/a	-1.0	2.318	columbia_card_task_fmri	n/a	n/a	-1.0	n/a	n/a	n/a	n/a	n/a	n/a	n/a	n/a	ITI	poldrack-single-stim	s546	False	0
396.799	1.228	398.027	0.5813366990152701	end_round	1.228	columbia_card_task_fmri	1.0	0.9375	71.0	-15.0	0.0625	16.0	1.0	1.0	-29.161782701192347	1.228	0.0	stim	poldrack-single-stim	s546	False	1
398.782	1.5	398.031	n/a	-1.0	2.726	columbia_card_task_fmri	n/a	n/a	-1.0	n/a	n/a	n/a	n/a	n/a	n/a	n/a	n/a	ITI	poldrack-single-stim	s546	False	0
400.762	1.167	401.929	3.70633669901527	end_round	1.167	columbia_card_task_fmri	10.0	0.9375	71.0	-100.0	0.0625	16.0	1.0	1.0	-6.445046641826068	1.167	0.0	stim	poldrack-single-stim	s546	False	1
402.683	1.5	401.932	n/a	-1.0	2.386	columbia_card_task_fmri	n/a	n/a	-1.0	n/a	n/a	n/a	n/a	n/a	n/a	n/a	n/a	ITI	poldrack-single-stim	s546	False	0
404.322	1.315	405.637	4.33133669901527	draw_card	1.315	columbia_card_task_fmri	15.0	0.875	89.0	-75.0	0.125	16.0	1.0	2.0	-3.307773720289159	1.315	n/a	stim	poldrack-single-stim	s546	False	1
405.641	0.3	405.941	3.58133669901527	draw_card	0.3	columbia_card_task_fmri	15.0	0.8666666666666667	89.0	-75.0	0.1333333333333333	16.0	2.0	2.0	-2.478512752175437	0.3	2.0	stim	poldrack-single-stim	s546	False	0
406.696	1.5	405.945	n/a	-1.0	2.318	columbia_card_task_fmri	n/a	n/a	-1.0	n/a	n/a	n/a	n/a	n/a	n/a	n/a	n/a	ITI	poldrack-single-stim	s546	False	0
408.267	1.7	409.967	4.58133669901527	draw_card	1.7	columbia_card_task_fmri	16.0	0.875	89.0	-80.0	0.125	16.0	1.0	2.0	-1.3238149583437675	1.7	n/a	stim	poldrack-single-stim	s546	False	1
409.972	0.359	410.331	3.781336699015271	draw_card	0.359	columbia_card_task_fmri	16.0	0.8666666666666667	89.0	-80.0	0.1333333333333333	16.0	2.0	2.0	-0.4392500564551369	0.359	n/a	stim	poldrack-single-stim	s546	False	1
410.334	0.332	410.666	2.867050984729558	draw_card	0.332	columbia_card_task_fmri	16.0	0.8571428571428572	89.0	-80.0	0.1428571428571428	16.0	3.0	2.0	0.5198794162928451	0.332	n/a	stim	poldrack-single-stim	s546	False	1
410.67	0.336	411.006	1.8121059297845	end_round	0.336	columbia_card_task_fmri	16.0	0.8461538461538461	71.0	-80.0	0.1538461538461538	16.0	4.0	2.0	1.5636420417495742	0.336	3.0	stim	poldrack-single-stim	s546	False	1
411.762	1.5	411.011	n/a	-1.0	2.25	columbia_card_task_fmri	n/a	n/a	-1.0	n/a	n/a	n/a	n/a	n/a	n/a	n/a	n/a	ITI	poldrack-single-stim	s546	False	0
413.266	2.824	416.09	1.76883669901527	end_round	2.824	columbia_card_task_fmri	4.0	0.6875	71.0	-5.0	0.3125	16.0	1.0	5.0	-28.866229405463823	2.824	0.0	stim	poldrack-single-stim	s546	False	1
416.845	1.5	416.094	n/a	-1.0	2.25	columbia_card_task_fmri	n/a	n/a	-1.0	n/a	n/a	n/a	n/a	n/a	n/a	n/a	n/a	ITI	poldrack-single-stim	s546	False	0
418.349	4.07	422.419	-1.0853299676513943	draw_card	4.07	columbia_card_task_fmri	14.0	0.8333333333333334	89.0	-80.0	0.1666666666666666	6.0	1.0	1.0	1.9584023387398588	4.07	n/a	stim	poldrack-single-stim	s546	False	1
422.422	0.578	423.0	-4.218663300984729	draw_card	0.578	columbia_card_task_fmri	14.0	0.8	89.0	-80.0	0.2	6.0	2.0	1.0	4.526341284310597	0.578	n/a	stim	poldrack-single-stim	s546	False	1
423.005	0.51	423.515	-8.91866330098473	end_round	0.51	columbia_card_task_fmri	14.0	0.75	71.0	-80.0	0.25	6.0	3.0	1.0	7.629192694800302	0.51	2.0	stim	poldrack-single-stim	s546	False	1
424.27	1.5	423.519	n/a	-1.0	2.454	columbia_card_task_fmri	n/a	n/a	-1.0	n/a	n/a	n/a	n/a	n/a	n/a	n/a	n/a	ITI	poldrack-single-stim	s546	False	0
425.979	1.814	427.793	0.5813366990152701	draw_card	1.814	columbia_card_task_fmri	15.0	0.8333333333333334	89.0	-75.0	0.1666666666666666	6.0	1.0	1.0	0.467904686043326	1.814	n/a	stim	poldrack-single-stim	s546	False	1
427.797	0.383	428.18	-2.41866330098473	draw_card	0.383	columbia_card_task_fmri	15.0	0.8	89.0	-75.0	0.2	6.0	2.0	1.0	2.926540982329904	0.383	2.0	stim	poldrack-single-stim	s546	False	0
428.935	1.5	428.184	n/a	-1.0	2.454	columbia_card_task_fmri	n/a	n/a	-1.0	n/a	n/a	n/a	n/a	n/a	n/a	n/a	n/a	ITI	poldrack-single-stim	s546	False	0
430.643	1.542	432.185	2.248003365681938	draw_card	1.542	columbia_card_task_fmri	16.0	0.8333333333333334	89.0	-70.0	0.1666666666666666	6.0	1.0	1.0	-1.0225730334703371	1.542	n/a	stim	poldrack-single-stim	s546	False	1
432.19	0.315	432.505	-0.6186633009847292	draw_card	0.315	columbia_card_task_fmri	16.0	0.8	89.0	-70.0	0.2	6.0	2.0	1.0	1.326759253102999	0.315	2.0	stim	poldrack-single-stim	s546	False	0
433.261	1.5	432.51	n/a	-1.0	2.522	columbia_card_task_fmri	n/a	n/a	-1.0	n/a	n/a	n/a	n/a	n/a	n/a	n/a	n/a	ITI	poldrack-single-stim	s546	False	0
435.037	4.786	439.823	2.83133669901527	draw_card	4.786	columbia_card_task_fmri	23.0	0.75	89.0	-60.0	0.25	8.0	1.0	2.0	2.866603066784222	4.786	1.0	stim	poldrack-single-stim	s546	False	0
440.578	1.5	439.827	n/a	-1.0	2.386	columbia_card_task_fmri	n/a	n/a	-1.0	n/a	n/a	n/a	n/a	n/a	n/a	n/a	n/a	ITI	poldrack-single-stim	s546	False	0
442.218	1.8	444.018	3.33133669901527	draw_card	1.8	columbia_card_task_fmri	27.0	0.75	89.0	-70.0	0.25	8.0	1.0	2.0	8.92810242498733	1.8	1.0	stim	poldrack-single-stim	s546	False	0
444.774	1.5	444.023	n/a	-1.0	2.454	columbia_card_task_fmri	n/a	n/a	-1.0	n/a	n/a	n/a	n/a	n/a	n/a	n/a	n/a	ITI	poldrack-single-stim	s546	False	0
446.481	2.668	449.149	-1.4186633009847285	draw_card	2.668	columbia_card_task_fmri	16.0	0.7777777777777778	89.0	-65.0	0.2222222222222222	9.0	1.0	2.0	0.6017814775298973	2.668	n/a	stim	poldrack-single-stim	s546	False	1
449.152	1.273	450.425	-3.66866330098473	end_round	1.273	columbia_card_task_fmri	16.0	0.75	71.0	-65.0	0.25	9.0	2.0	2.0	2.0006937288352877	1.273	1.0	stim	poldrack-single-stim	s546	False	1
451.18	1.5	450.429	n/a	-1.0	2.522	columbia_card_task_fmri	n/a	n/a	-1.0	n/a	n/a	n/a	n/a	n/a	n/a	n/a	n/a	ITI	poldrack-single-stim	s546	False	0
452.956	1.003	453.959	3.781336699015271	end_round	1.003	columbia_card_task_fmri	13.0	0.9	71.0	-85.0	0.1	10.0	1.0	1.0	-3.672405567071774	1.003	0.0	stim	poldrack-single-stim	s546	False	1
454.714	1.5	453.963	n/a	-1.0	2.522	columbia_card_task_fmri	n/a	n/a	-1.0	n/a	n/a	n/a	n/a	n/a	n/a	n/a	n/a	ITI	poldrack-single-stim	s546	False	0
456.491	1.074	457.565	-1.218663300984729	draw_card	1.074	columbia_card_task_fmri	14.0	0.8	89.0	-65.0	0.2	10.0	1.0	2.0	-1.472805599391748	1.074	n/a	stim	poldrack-single-stim	s546	False	1
457.569	0.314	457.883	-2.974218856540284	draw_card	0.314	columbia_card_task_fmri	14.0	0.7777777777777778	89.0	-65.0	0.2222222222222222	10.0	2.0	2.0	-0.2295709363121503	0.314	n/a	stim	poldrack-single-stim	s546	False	1
457.888	0.437	458.325	-5.16866330098473	draw_card	0.437	columbia_card_task_fmri	14.0	0.75	89.0	-65.0	0.25	10.0	3.0	2.0	1.1347902663958465	0.437	3.0	stim	poldrack-single-stim	s546	False	0
459.081	1.5	458.33	n/a	-1.0	2.59	columbia_card_task_fmri	n/a	n/a	-1.0	n/a	n/a	n/a	n/a	n/a	n/a	n/a	n/a	ITI	poldrack-single-stim	s546	False	0
460.925	1.18	462.105	0.1813366990152715	end_round	1.18	columbia_card_task_fmri	17.0	0.8	71.0	-70.0	0.2	10.0	1.0	2.0	1.7267028041559982	1.18	0.0	stim	poldrack-single-stim	s546	False	1
462.861	1.5	462.11	n/a	-1.0	2.454	columbia_card_task_fmri	n/a	n/a	-1.0	n/a	n/a	n/a	n/a	n/a	n/a	n/a	n/a	ITI	poldrack-single-stim	s546	False	0
464.569	2.545	467.114	-1.085329967651396	draw_card	2.545	columbia_card_task_fmri	13.0	0.8333333333333334	89.0	-75.0	0.1666666666666666	12.0	1.0	2.0	-0.277336835193914	2.545	1.0	stim	poldrack-single-stim	s546	False	0
467.87	1.5	467.119	n/a	-1.0	2.318	columbia_card_task_fmri	n/a	n/a	-1.0	n/a	n/a	n/a	n/a	n/a	n/a	n/a	n/a	ITI	poldrack-single-stim	s546	False	0
469.443	3.637	473.08	0.5813366990152719	draw_card	3.637	columbia_card_task_fmri	14.0	0.8333333333333334	89.0	-70.0	0.1666666666666666	12.0	1.0	2.0	-1.7678035287010836	3.637	n/a	stim	poldrack-single-stim	s546	False	1
473.083	0.591	473.674	-0.6913905737120051	draw_card	0.591	columbia_card_task_fmri	14.0	0.8181818181818181	89.0	-70.0	0.1818181818181818	12.0	2.0	2.0	-0.674590268686373	0.591	n/a	stim	poldrack-single-stim	s546	False	1
473.678	0.378	474.056	-2.218663300984729	end_round	0.378	columbia_card_task_fmri	14.0	0.8	71.0	-70.0	0.2	12.0	3.0	2.0	0.5268761821770624	0.378	2.0	stim	poldrack-single-stim	s546	False	1
474.811	1.5	474.06	n/a	-1.0	2.25	columbia_card_task_fmri	n/a	n/a	-1.0	n/a	n/a	n/a	n/a	n/a	n/a	n/a	n/a	ITI	poldrack-single-stim	s546	False	0
476.316	3.819	480.135	0.5813366990152719	end_round	3.819	columbia_card_task_fmri	16.0	0.8333333333333334	71.0	-80.0	0.1666666666666666	12.0	1.0	2.0	2.703657861607752	3.819	0.0	stim	poldrack-single-stim	s546	False	1
480.89	1.5	480.139	n/a	-1.0	2.658	columbia_card_task_fmri	n/a	n/a	-1.0	n/a	n/a	n/a	n/a	n/a	n/a	n/a	n/a	ITI	poldrack-single-stim	s546	False	0
482.804	1.479	484.283	0.3813366990152708	draw_card	1.479	columbia_card_task_fmri	16.0	0.8	89.0	-65.0	0.2	15.0	1.0	3.0	-0.6729375999773595	1.479	n/a	stim	poldrack-single-stim	s546	False	1
484.288	0.424	484.712	-0.7758061581275858	draw_card	0.424	columbia_card_task_fmri	16.0	0.7857142857142857	89.0	-65.0	0.2142857142857142	15.0	2.0	3.0	0.1633293561270079	0.424	n/a	stim	poldrack-single-stim	s546	False	1
484.717	0.43	485.147	-2.1109709932924234	draw_card	0.43	columbia_card_task_fmri	16.0	0.7692307692307692	89.0	-65.0	0.2307692307692307	15.0	3.0	3.0	1.05412707445565	0.43	n/a	stim	poldrack-single-stim	s546	False	1
485.152	0.5	485.652	-3.66866330098473	end_round	0.5	columbia_card_task_fmri	16.0	0.75	71.0	-65.0	0.25	15.0	4.0	3.0	2.0006937288352877	0.5	3.0	stim	poldrack-single-stim	s546	False	1
486.408	1.5	485.657	n/a	-1.0	2.454	columbia_card_task_fmri	n/a	n/a	-1.0	n/a	n/a	n/a	n/a	n/a	n/a	n/a	n/a	ITI	poldrack-single-stim	s546	False	0
488.117	1.696	489.813	-1.29366330098473	draw_card	1.696	columbia_card_task_fmri	15.0	0.8125	89.0	-75.0	0.1875	16.0	1.0	3.0	2.0547712005244207	1.696	n/a	stim	poldrack-single-stim	s546	False	1
489.818	0.363	490.181	-2.41866330098473	draw_card	0.363	columbia_card_task_fmri	15.0	0.8	89.0	-75.0	0.2	16.0	2.0	3.0	2.926540982329904	0.363	n/a	stim	poldrack-single-stim	s546	False	1
490.186	0.308	490.494	-3.704377586699015	draw_card	0.308	columbia_card_task_fmri	15.0	0.7857142857142857	89.0	-75.0	0.2142857142857142	16.0	3.0	3.0	3.8557541843856384	0.308	n/a	stim	poldrack-single-stim	s546	False	1
490.499	0.445	490.944	-5.187894070215504	end_round	0.445	columbia_card_task_fmri	15.0	0.7692307692307692	71.0	-75.0	0.2307692307692307	16.0	4.0	3.0	4.845557435382084	0.445	3.0	stim	poldrack-single-stim	s546	False	1
491.7	1.5	490.949	n/a	-1.0	2.386	columbia_card_task_fmri	n/a	n/a	-1.0	n/a	n/a	n/a	n/a	n/a	n/a	n/a	n/a	ITI	poldrack-single-stim	s546	False	0
493.34	2.21	495.55	-0.7311633009847299	end_round	2.21	columbia_card_task_fmri	14.0	0.6875	71.0	-35.0	0.3125	16.0	1.0	5.0	-10.358605929715218	2.21	0.0	stim	poldrack-single-stim	s546	False	1
496.305	1.5	495.554	n/a	-1.0	2.59	columbia_card_task_fmri	n/a	n/a	-1.0	n/a	n/a	n/a	n/a	n/a	n/a	n/a	n/a	ITI	poldrack-single-stim	s546	False	0
498.15	2.673	500.823	4.448003365681937	draw_card	2.673	columbia_card_task_fmri	16.0	0.8666666666666667	89.0	-75.0	0.1333333333333333	15.0	1.0	2.0	-2.138638795742036	2.673	n/a	stim	poldrack-single-stim	s546	False	1
500.827	0.4	501.227	3.581336699015272	draw_card	0.4	columbia_card_task_fmri	16.0	0.8571428571428572	89.0	-75.0	0.1428571428571428	15.0	2.0	2.0	-1.2294798006474643	0.4	n/a	stim	poldrack-single-stim	s546	False	1
501.231	0.322	501.553	2.58133669901527	draw_card	0.322	columbia_card_task_fmri	16.0	0.8461538461538461	89.0	-75.0	0.1538461538461538	15.0	3.0	2.0	-0.2400960300831869	0.322	n/a	stim	poldrack-single-stim	s546	False	1
501.557	0.343	501.9	1.414670032348604	end_round	0.343	columbia_card_task_fmri	16.0	0.8333333333333334	71.0	-75.0	0.1666666666666666	15.0	4.0	2.0	0.8405273331289251	0.343	3.0	stim	poldrack-single-stim	s546	False	1
502.655	1.5	501.904	n/a	-1.0	2.318	columbia_card_task_fmri	n/a	n/a	-1.0	n/a	n/a	n/a	n/a	n/a	n/a	n/a	n/a	ITI	poldrack-single-stim	s546	False	0
504.228	5.69	509.918	5.114670032348603	draw_card	5.69	columbia_card_task_fmri	16.0	0.8666666666666667	89.0	-70.0	0.1333333333333333	15.0	1.0	2.0	-3.837994470836208	5.69	n/a	stim	poldrack-single-stim	s546	False	1
509.922	0.356	510.278	4.295622413300985	draw_card	0.356	columbia_card_task_fmri	16.0	0.8571428571428572	89.0	-70.0	0.1428571428571428	15.0	2.0	2.0	-2.978806896609772	0.356	n/a	stim	poldrack-single-stim	s546	False	1
510.283	0.301	510.584	3.3505674682460382	draw_card	0.301	columbia_card_task_fmri	16.0	0.8461538461538461	89.0	-70.0	0.1538461538461538	15.0	3.0	2.0	-2.043802948096296	0.301	n/a	stim	poldrack-single-stim	s546	False	1
510.589	0.427	511.016	2.248003365681938	end_round	0.427	columbia_card_task_fmri	16.0	0.8333333333333334	71.0	-70.0	0.1666666666666666	15.0	4.0	2.0	-1.0225730334703371	0.427	3.0	stim	poldrack-single-stim	s546	False	1
511.772	1.5	511.021	n/a	-1.0	2.59	columbia_card_task_fmri	n/a	n/a	-1.0	n/a	n/a	n/a	n/a	n/a	n/a	n/a	n/a	ITI	poldrack-single-stim	s546	False	0
513.616	1.158	514.774	2.45633669901527	end_round	1.158	columbia_card_task_fmri	8.0	0.9375	71.0	-90.0	0.0625	16.0	1.0	1.0	-9.349007390651357	1.158	0.0	stim	poldrack-single-stim	s546	False	1
515.53	1.5	514.779	n/a	-1.0	2.386	columbia_card_task_fmri	n/a	n/a	-1.0	n/a	n/a	n/a	n/a	n/a	n/a	n/a	n/a	ITI	poldrack-single-stim	s546	False	0
517.169	2.312	519.481	4.01883669901527	end_round	2.312	columbia_card_task_fmri	10.0	0.9375	71.0	-95.0	0.0625	16.0	1.0	1.0	-7.655051855324643	2.312	0.0	stim	poldrack-single-stim	s546	False	1
520.237	1.5	519.486	n/a	-1.0	2.318	columbia_card_task_fmri	n/a	n/a	-1.0	n/a	n/a	n/a	n/a	n/a	n/a	n/a	n/a	ITI	poldrack-single-stim	s546	False	0
521.811	1.117	522.928	4.95633669901527	draw_card	1.117	columbia_card_task_fmri	15.0	0.875	89.0	-70.0	0.125	16.0	1.0	2.0	-4.961034445883207	1.117	n/a	stim	poldrack-single-stim	s546	False	1
522.933	0.343	523.276	4.248003365681936	draw_card	0.343	columbia_card_task_fmri	15.0	0.8666666666666667	89.0	-70.0	0.1333333333333333	16.0	2.0	2.0	-4.177861124882234	0.343	n/a	stim	poldrack-single-stim	s546	False	1
523.281	0.358	523.639	3.438479556158128	draw_card	0.358	columbia_card_task_fmri	15.0	0.8571428571428572	89.0	-70.0	0.1428571428571428	16.0	3.0	2.0	-3.328667962646307	0.358	n/a	stim	poldrack-single-stim	s546	False	1
523.644	0.438	524.082	2.5044136220921915	end_round	0.438	columbia_card_task_fmri	15.0	0.8461538461538461	71.0	-70.0	0.1538461538461538	16.0	4.0	2.0	-2.4045401096055024	0.438	3.0	stim	poldrack-single-stim	s546	False	1
524.841	1.5	524.09	n/a	-1.0	2.318	columbia_card_task_fmri	n/a	n/a	-1.0	n/a	n/a	n/a	n/a	n/a	n/a	n/a	n/a	ITI	poldrack-single-stim	s546	False	0
526.413	1.115	527.528	3.95633669901527	end_round	1.115	columbia_card_task_fmri	16.0	0.875	71.0	-85.0	0.125	16.0	1.0	2.0	0.3295161963899957	1.115	0.0	stim	poldrack-single-stim	s546	False	1
528.284	1.5	527.533	n/a	-1.0	2.318	columbia_card_task_fmri	n/a	n/a	-1.0	n/a	n/a	n/a	n/a	n/a	n/a	n/a	n/a	ITI	poldrack-single-stim	s546	False	0
