onset	duration	movement_onset	block_duration	condition	correct	correct_response	experiment_exp_id	key_press	response_time	trial_id	trial_type	worker_id	junk
3.006	0.5	3.005	0.5	AX	n/a	n/a	dot_pattern_expectancy	-1.0	n/a	cue	AX	s546	False
5.51	0.5	5.925	2.18	AX	1.0	89.0	dot_pattern_expectancy	89.0	0.415	probe	AX	s546	False
7.693	0.5	7.692	0.5	AY	n/a	n/a	dot_pattern_expectancy	-1.0	n/a	cue	AY	s546	False
10.197	0.5	10.591	2.316	AY	1.0	71.0	dot_pattern_expectancy	71.0	0.394	probe	AY	s546	False
12.516	0.5	12.515	0.5	AY	n/a	n/a	dot_pattern_expectancy	-1.0	n/a	cue	AY	s546	False
15.02	0.5	16.109	1.636	AY	1.0	71.0	dot_pattern_expectancy	71.0	1.089	probe	AY	s546	False
16.658	0.5	16.657	0.5	BX	n/a	n/a	dot_pattern_expectancy	-1.0	n/a	cue	BX	s546	False
19.161	0.5	19.407	1.908	BX	1.0	71.0	dot_pattern_expectancy	71.0	0.246	probe	BX	s546	False
21.071	0.5	21.07	0.5	AX	n/a	n/a	dot_pattern_expectancy	-1.0	n/a	cue	AX	s546	False
23.575	0.5	23.974	3.54	AX	1.0	89.0	dot_pattern_expectancy	89.0	0.399	probe	AX	s546	False
27.119	0.5	27.118	0.5	BX	n/a	n/a	dot_pattern_expectancy	-1.0	n/a	cue	BX	s546	False
29.623	0.5	29.856	1.636	BX	1.0	71.0	dot_pattern_expectancy	71.0	0.233	probe	BX	s546	False
31.262	0.5	31.261	0.5	BY	n/a	n/a	dot_pattern_expectancy	-1.0	n/a	cue	BY	s546	False
33.765	0.5	34.166	1.5	BY	1.0	71.0	dot_pattern_expectancy	71.0	0.401	probe	BY	s546	False
35.268	0.5	35.267	0.5	AX	n/a	n/a	dot_pattern_expectancy	-1.0	n/a	cue	AX	s546	False
37.773	0.5	38.141	1.5	AX	1.0	89.0	dot_pattern_expectancy	89.0	0.368	probe	AX	s546	False
39.274	0.5	39.273	0.5	AX	n/a	n/a	dot_pattern_expectancy	-1.0	n/a	cue	AX	s546	False
41.778	0.5	42.222	1.772	AX	1.0	89.0	dot_pattern_expectancy	89.0	0.444	probe	AX	s546	False
43.552	0.5	43.551	0.5	BY	n/a	n/a	dot_pattern_expectancy	-1.0	n/a	cue	BY	s546	False
46.056	0.5	46.319	2.452	BY	1.0	71.0	dot_pattern_expectancy	71.0	0.263	probe	BY	s546	False
48.512	0.5	48.511	0.5	AX	n/a	n/a	dot_pattern_expectancy	-1.0	n/a	cue	AX	s546	False
51.016	0.5	51.503	1.908	AX	1.0	89.0	dot_pattern_expectancy	89.0	0.487	probe	AX	s546	False
52.926	0.5	52.925	0.5	BX	n/a	n/a	dot_pattern_expectancy	-1.0	n/a	cue	BX	s546	False
55.429	0.5	55.677	1.636	BX	1.0	71.0	dot_pattern_expectancy	71.0	0.248	probe	BX	s546	False
57.067	0.5	57.066	0.5	AX	n/a	n/a	dot_pattern_expectancy	-1.0	n/a	cue	AX	s546	False
59.571	0.5	59.909	1.5	AX	1.0	89.0	dot_pattern_expectancy	89.0	0.338	probe	AX	s546	False
61.073	0.5	61.072	0.5	AX	n/a	n/a	dot_pattern_expectancy	-1.0	n/a	cue	AX	s546	False
63.577	0.5	63.983	1.636	AX	1.0	89.0	dot_pattern_expectancy	89.0	0.406	probe	AX	s546	False
65.216	0.5	65.215	0.5	AX	n/a	n/a	dot_pattern_expectancy	-1.0	n/a	cue	AX	s546	False
67.72	0.5	68.176	1.636	AX	1.0	89.0	dot_pattern_expectancy	89.0	0.456	probe	AX	s546	False
69.358	0.5	69.357	0.5	BY	n/a	n/a	dot_pattern_expectancy	-1.0	n/a	cue	BY	s546	False
71.862	0.5	72.221	2.452	BY	1.0	71.0	dot_pattern_expectancy	71.0	0.359	probe	BY	s546	False
74.315	0.5	74.314	0.5	AX	n/a	n/a	dot_pattern_expectancy	-1.0	n/a	cue	AX	s546	False
76.819	0.5	77.222	1.5	AX	1.0	89.0	dot_pattern_expectancy	89.0	0.403	probe	AX	s546	False
78.32	0.5	78.319	0.5	BY	n/a	n/a	dot_pattern_expectancy	-1.0	n/a	cue	BY	s546	False
80.824	0.5	81.104	1.5	BY	1.0	71.0	dot_pattern_expectancy	71.0	0.28	probe	BY	s546	False
82.326	0.5	82.325	0.5	AX	n/a	n/a	dot_pattern_expectancy	-1.0	n/a	cue	AX	s546	False
84.83	0.5	85.25	1.636	AX	1.0	89.0	dot_pattern_expectancy	89.0	0.42	probe	AX	s546	False
86.469	0.5	86.468	0.5	AX	n/a	n/a	dot_pattern_expectancy	-1.0	n/a	cue	AX	s546	False
88.971	0.5	89.418	1.636	AX	1.0	89.0	dot_pattern_expectancy	89.0	0.447	probe	AX	s546	False
90.609	0.5	90.608	0.5	AY	n/a	n/a	dot_pattern_expectancy	-1.0	n/a	cue	AY	s546	False
93.113	0.5	93.771	1.636	AY	1.0	71.0	dot_pattern_expectancy	71.0	0.658	probe	AY	s546	False
94.752	0.5	94.751	0.5	AX	n/a	n/a	dot_pattern_expectancy	-1.0	n/a	cue	AX	s546	False
97.255	0.5	97.658	1.5	AX	1.0	89.0	dot_pattern_expectancy	89.0	0.403	probe	AX	s546	False
98.758	0.5	98.757	0.5	AX	n/a	n/a	dot_pattern_expectancy	-1.0	n/a	cue	AX	s546	False
101.264	0.5	101.734	1.5	AX	1.0	89.0	dot_pattern_expectancy	89.0	0.47	probe	AX	s546	False
102.766	0.5	102.765	0.5	AX	n/a	n/a	dot_pattern_expectancy	-1.0	n/a	cue	AX	s546	False
105.272	0.5	105.957	1.772	AX	1.0	89.0	dot_pattern_expectancy	89.0	0.685	probe	AX	s546	False
107.046	0.5	107.045	0.5	AX	n/a	n/a	dot_pattern_expectancy	-1.0	n/a	cue	AX	s546	False
109.55	0.5	109.99	2.18	AX	1.0	89.0	dot_pattern_expectancy	89.0	0.44	probe	AX	s546	False
111.733	0.5	111.732	0.5	BX	n/a	n/a	dot_pattern_expectancy	-1.0	n/a	cue	BX	s546	False
114.238	0.5	114.57	1.772	BX	1.0	71.0	dot_pattern_expectancy	71.0	0.332	probe	BX	s546	False
116.012	0.5	116.011	0.5	BY	n/a	n/a	dot_pattern_expectancy	-1.0	n/a	cue	BY	s546	False
118.516	0.5	119.241	1.5	BY	1.0	71.0	dot_pattern_expectancy	71.0	0.725	probe	BY	s546	False
120.019	0.5	120.018	0.5	AX	n/a	n/a	dot_pattern_expectancy	-1.0	n/a	cue	AX	s546	False
122.523	0.5	123.159	1.5	AX	1.0	89.0	dot_pattern_expectancy	89.0	0.636	probe	AX	s546	False
124.026	0.5	124.025	0.5	AX	n/a	n/a	dot_pattern_expectancy	-1.0	n/a	cue	AX	s546	False
126.53	0.5	126.909	1.636	AX	1.0	89.0	dot_pattern_expectancy	89.0	0.379	probe	AX	s546	False
128.167	0.5	128.166	0.5	AY	n/a	n/a	dot_pattern_expectancy	-1.0	n/a	cue	AY	s546	False
130.672	0.5	131.338	2.18	AY	1.0	71.0	dot_pattern_expectancy	71.0	0.666	probe	AY	s546	False
132.854	0.5	132.853	0.5	AY	n/a	n/a	dot_pattern_expectancy	-1.0	n/a	cue	AY	s546	False
135.358	0.5	136.003	2.316	AY	1.0	71.0	dot_pattern_expectancy	71.0	0.645	probe	AY	s546	False
137.677	0.5	137.676	0.5	BX	n/a	n/a	dot_pattern_expectancy	-1.0	n/a	cue	BX	s546	False
140.181	0.5	140.515	1.636	BX	1.0	71.0	dot_pattern_expectancy	71.0	0.334	probe	BX	s546	False
141.819	0.5	141.818	0.5	BX	n/a	n/a	dot_pattern_expectancy	-1.0	n/a	cue	BX	s546	False
144.323	0.5	144.604	2.18	BX	1.0	71.0	dot_pattern_expectancy	71.0	0.281	probe	BX	s546	False
146.504	0.5	146.503	0.5	AY	n/a	n/a	dot_pattern_expectancy	-1.0	n/a	cue	AY	s546	False
149.008	0.5	149.7	2.044	AY	1.0	71.0	dot_pattern_expectancy	71.0	0.692	probe	AY	s546	False
151.054	0.5	151.053	0.5	AX	n/a	n/a	dot_pattern_expectancy	-1.0	n/a	cue	AX	s546	False
153.557	0.5	154.115	1.772	AX	1.0	89.0	dot_pattern_expectancy	89.0	0.558	probe	AX	s546	False
155.331	0.5	155.33	0.5	AX	n/a	n/a	dot_pattern_expectancy	-1.0	n/a	cue	AX	s546	False
157.835	0.5	158.497	1.5	AX	1.0	89.0	dot_pattern_expectancy	89.0	0.662	probe	AX	s546	False
159.337	0.5	159.336	0.5	AX	n/a	n/a	dot_pattern_expectancy	-1.0	n/a	cue	AX	s546	False
161.84	0.5	162.437	2.18	AX	1.0	89.0	dot_pattern_expectancy	89.0	0.597	probe	AX	s546	False
164.022	0.5	164.021	0.5	AY	n/a	n/a	dot_pattern_expectancy	-1.0	n/a	cue	AY	s546	False
166.526	0.5	166.945	2.452	AY	0.0	71.0	dot_pattern_expectancy	89.0	0.419	probe	AY	s546	False
168.98	0.5	168.979	0.5	AX	n/a	n/a	dot_pattern_expectancy	-1.0	n/a	cue	AX	s546	False
171.484	0.5	171.873	1.636	AX	1.0	89.0	dot_pattern_expectancy	89.0	0.389	probe	AX	s546	False
173.122	0.5	173.121	0.5	AX	n/a	n/a	dot_pattern_expectancy	-1.0	n/a	cue	AX	s546	False
175.625	0.5	176.195	1.908	AX	1.0	89.0	dot_pattern_expectancy	89.0	0.57	probe	AX	s546	False
188.042	0.5	188.041	0.5	AX	n/a	n/a	dot_pattern_expectancy	-1.0	n/a	cue	AX	s546	False
190.545	0.5	191.013	1.772	AX	1.0	89.0	dot_pattern_expectancy	89.0	0.468	probe	AX	s546	False
192.319	0.5	192.318	0.5	AX	n/a	n/a	dot_pattern_expectancy	-1.0	n/a	cue	AX	s546	False
194.823	0.5	195.264	1.5	AX	1.0	89.0	dot_pattern_expectancy	89.0	0.441	probe	AX	s546	False
196.324	0.5	196.323	0.5	AY	n/a	n/a	dot_pattern_expectancy	-1.0	n/a	cue	AY	s546	False
198.827	0.5	199.322	2.452	AY	1.0	71.0	dot_pattern_expectancy	71.0	0.495	probe	AY	s546	False
201.283	0.5	201.282	0.5	AY	n/a	n/a	dot_pattern_expectancy	-1.0	n/a	cue	AY	s546	False
203.787	0.5	204.421	1.772	AY	1.0	71.0	dot_pattern_expectancy	71.0	0.634	probe	AY	s546	False
205.56	0.5	205.559	0.5	AX	n/a	n/a	dot_pattern_expectancy	-1.0	n/a	cue	AX	s546	False
208.063	0.5	208.711	1.908	AX	1.0	89.0	dot_pattern_expectancy	89.0	0.648	probe	AX	s546	False
209.973	0.5	209.972	0.5	AX	n/a	n/a	dot_pattern_expectancy	-1.0	n/a	cue	AX	s546	False
212.477	0.5	212.977	1.908	AX	1.0	89.0	dot_pattern_expectancy	89.0	0.5	probe	AX	s546	False
214.387	0.5	214.386	0.5	AX	n/a	n/a	dot_pattern_expectancy	-1.0	n/a	cue	AX	s546	False
216.891	0.5	217.408	2.588	AX	1.0	89.0	dot_pattern_expectancy	89.0	0.517	probe	AX	s546	False
219.482	0.5	219.481	0.5	AY	n/a	n/a	dot_pattern_expectancy	-1.0	n/a	cue	AY	s546	False
221.986	0.5	222.846	1.5	AY	1.0	71.0	dot_pattern_expectancy	71.0	0.86	probe	AY	s546	False
223.488	0.5	223.487	0.5	BY	n/a	n/a	dot_pattern_expectancy	-1.0	n/a	cue	BY	s546	False
225.992	0.5	226.272	1.5	BY	1.0	71.0	dot_pattern_expectancy	71.0	0.28	probe	BY	s546	False
227.494	0.5	227.493	0.5	BY	n/a	n/a	dot_pattern_expectancy	-1.0	n/a	cue	BY	s546	False
229.997	0.5	230.333	1.5	BY	1.0	71.0	dot_pattern_expectancy	71.0	0.336	probe	BY	s546	False
231.499	0.5	231.498	0.5	AX	n/a	n/a	dot_pattern_expectancy	-1.0	n/a	cue	AX	s546	False
234.004	0.5	234.56	1.636	AX	1.0	89.0	dot_pattern_expectancy	89.0	0.556	probe	AX	s546	False
235.642	0.5	235.641	0.5	BX	n/a	n/a	dot_pattern_expectancy	-1.0	n/a	cue	BX	s546	False
238.147	0.5	238.765	2.044	BX	1.0	71.0	dot_pattern_expectancy	71.0	0.618	probe	BX	s546	False
240.193	0.5	240.192	0.5	AX	n/a	n/a	dot_pattern_expectancy	-1.0	n/a	cue	AX	s546	False
242.697	0.5	243.075	1.772	AX	1.0	89.0	dot_pattern_expectancy	89.0	0.378	probe	AX	s546	False
244.47	0.5	244.469	0.5	BX	n/a	n/a	dot_pattern_expectancy	-1.0	n/a	cue	BX	s546	False
246.973	0.5	247.212	2.588	BX	1.0	71.0	dot_pattern_expectancy	71.0	0.239	probe	BX	s546	False
249.564	0.5	249.563	0.5	AY	n/a	n/a	dot_pattern_expectancy	-1.0	n/a	cue	AY	s546	False
252.067	0.5	252.743	1.5	AY	1.0	71.0	dot_pattern_expectancy	71.0	0.676	probe	AY	s546	False
253.569	0.5	253.568	0.5	AX	n/a	n/a	dot_pattern_expectancy	-1.0	n/a	cue	AX	s546	False
256.073	0.5	256.591	2.452	AX	1.0	89.0	dot_pattern_expectancy	89.0	0.518	probe	AX	s546	False
258.527	0.5	258.526	0.5	BY	n/a	n/a	dot_pattern_expectancy	-1.0	n/a	cue	BY	s546	False
261.03	0.5	261.342	1.636	BY	1.0	71.0	dot_pattern_expectancy	71.0	0.312	probe	BY	s546	False
262.668	0.5	262.667	0.5	AX	n/a	n/a	dot_pattern_expectancy	-1.0	n/a	cue	AX	s546	False
265.172	0.5	265.7	1.636	AX	1.0	89.0	dot_pattern_expectancy	89.0	0.528	probe	AX	s546	False
266.811	0.5	266.81	0.5	AX	n/a	n/a	dot_pattern_expectancy	-1.0	n/a	cue	AX	s546	False
269.315	0.5	269.727	1.5	AX	1.0	89.0	dot_pattern_expectancy	89.0	0.412	probe	AX	s546	False
270.817	0.5	270.816	0.5	BY	n/a	n/a	dot_pattern_expectancy	-1.0	n/a	cue	BY	s546	False
273.321	0.5	273.629	1.636	BY	1.0	71.0	dot_pattern_expectancy	71.0	0.308	probe	BY	s546	False
274.958	0.5	274.957	0.5	AX	n/a	n/a	dot_pattern_expectancy	-1.0	n/a	cue	AX	s546	False
277.462	0.5	277.945	1.5	AX	1.0	89.0	dot_pattern_expectancy	89.0	0.483	probe	AX	s546	False
278.964	0.5	278.963	0.5	AY	n/a	n/a	dot_pattern_expectancy	-1.0	n/a	cue	AY	s546	False
281.468	0.5	282.073	2.18	AY	1.0	71.0	dot_pattern_expectancy	71.0	0.605	probe	AY	s546	False
283.65	0.5	283.649	0.5	AX	n/a	n/a	dot_pattern_expectancy	-1.0	n/a	cue	AX	s546	False
286.154	0.5	286.541	1.5	AX	1.0	89.0	dot_pattern_expectancy	89.0	0.387	probe	AX	s546	False
287.655	0.5	287.654	0.5	AX	n/a	n/a	dot_pattern_expectancy	-1.0	n/a	cue	AX	s546	False
290.16	0.5	290.601	1.908	AX	1.0	89.0	dot_pattern_expectancy	89.0	0.441	probe	AX	s546	False
292.07	0.5	292.069	0.5	BY	n/a	n/a	dot_pattern_expectancy	-1.0	n/a	cue	BY	s546	False
294.573	0.5	294.818	1.636	BY	1.0	71.0	dot_pattern_expectancy	71.0	0.245	probe	BY	s546	False
296.21	0.5	296.209	0.5	BY	n/a	n/a	dot_pattern_expectancy	-1.0	n/a	cue	BY	s546	False
298.714	0.5	298.941	1.636	BY	1.0	71.0	dot_pattern_expectancy	71.0	0.227	probe	BY	s546	False
300.353	0.5	300.352	0.5	AX	n/a	n/a	dot_pattern_expectancy	-1.0	n/a	cue	AX	s546	False
302.856	0.5	303.208	1.636	AX	1.0	89.0	dot_pattern_expectancy	89.0	0.352	probe	AX	s546	False
304.493	0.5	304.492	0.5	AX	n/a	n/a	dot_pattern_expectancy	-1.0	n/a	cue	AX	s546	False
306.996	0.5	307.541	1.5	AX	1.0	89.0	dot_pattern_expectancy	89.0	0.545	probe	AX	s546	False
308.499	0.5	308.498	0.5	BY	n/a	n/a	dot_pattern_expectancy	-1.0	n/a	cue	BY	s546	False
311.002	0.5	311.305	2.044	BY	1.0	71.0	dot_pattern_expectancy	71.0	0.303	probe	BY	s546	False
313.048	0.5	313.047	0.5	AY	n/a	n/a	dot_pattern_expectancy	-1.0	n/a	cue	AY	s546	False
315.552	0.5	316.024	2.18	AY	1.0	71.0	dot_pattern_expectancy	71.0	0.472	probe	AY	s546	False
317.734	0.5	317.733	0.5	AY	n/a	n/a	dot_pattern_expectancy	-1.0	n/a	cue	AY	s546	False
320.238	0.5	320.801	1.636	AY	1.0	71.0	dot_pattern_expectancy	71.0	0.563	probe	AY	s546	False
321.875	0.5	321.874	0.5	AY	n/a	n/a	dot_pattern_expectancy	-1.0	n/a	cue	AY	s546	False
324.379	0.5	325.028	1.772	AY	1.0	71.0	dot_pattern_expectancy	71.0	0.649	probe	AY	s546	False
326.153	0.5	326.152	0.5	BY	n/a	n/a	dot_pattern_expectancy	-1.0	n/a	cue	BY	s546	False
328.657	0.5	328.959	1.5	BY	1.0	71.0	dot_pattern_expectancy	71.0	0.302	probe	BY	s546	False
330.158	0.5	330.157	0.5	BX	n/a	n/a	dot_pattern_expectancy	-1.0	n/a	cue	BX	s546	False
332.663	0.5	333.052	1.908	BX	1.0	71.0	dot_pattern_expectancy	71.0	0.389	probe	BX	s546	False
334.574	0.5	334.573	0.5	AX	n/a	n/a	dot_pattern_expectancy	-1.0	n/a	cue	AX	s546	False
337.078	0.5	337.456	2.044	AX	1.0	89.0	dot_pattern_expectancy	89.0	0.378	probe	AX	s546	False
339.124	0.5	339.123	0.5	AX	n/a	n/a	dot_pattern_expectancy	-1.0	n/a	cue	AX	s546	False
341.628	0.5	342.34	1.636	AX	1.0	89.0	dot_pattern_expectancy	89.0	0.712	probe	AX	s546	False
343.267	0.5	343.266	0.5	AX	n/a	n/a	dot_pattern_expectancy	-1.0	n/a	cue	AX	s546	False
345.772	0.5	346.422	1.772	AX	1.0	89.0	dot_pattern_expectancy	89.0	0.65	probe	AX	s546	False
347.545	0.5	347.544	0.5	AX	n/a	n/a	dot_pattern_expectancy	-1.0	n/a	cue	AX	s546	False
350.05	0.5	350.546	1.636	AX	1.0	89.0	dot_pattern_expectancy	89.0	0.496	probe	AX	s546	False
351.688	0.5	351.687	0.5	BX	n/a	n/a	dot_pattern_expectancy	-1.0	n/a	cue	BX	s546	False
354.192	0.5	354.428	1.772	BX	1.0	71.0	dot_pattern_expectancy	71.0	0.236	probe	BX	s546	False
355.967	0.5	355.966	0.5	AX	n/a	n/a	dot_pattern_expectancy	-1.0	n/a	cue	AX	s546	False
358.471	0.5	358.916	1.5	AX	1.0	89.0	dot_pattern_expectancy	89.0	0.445	probe	AX	s546	False
370.482	0.5	370.481	0.5	BY	n/a	n/a	dot_pattern_expectancy	-1.0	n/a	cue	BY	s546	False
372.986	0.5	373.29	1.636	BY	1.0	71.0	dot_pattern_expectancy	71.0	0.304	probe	BY	s546	False
374.623	0.5	374.622	0.5	AY	n/a	n/a	dot_pattern_expectancy	-1.0	n/a	cue	AY	s546	False
377.128	0.5	377.875	1.5	AY	1.0	71.0	dot_pattern_expectancy	71.0	0.747	probe	AY	s546	False
378.629	0.5	378.628	0.5	AX	n/a	n/a	dot_pattern_expectancy	-1.0	n/a	cue	AX	s546	False
381.133	0.5	381.766	2.044	AX	1.0	89.0	dot_pattern_expectancy	89.0	0.633	probe	AX	s546	False
383.178	0.5	383.177	0.5	BY	n/a	n/a	dot_pattern_expectancy	-1.0	n/a	cue	BY	s546	False
385.682	0.5	385.963	1.772	BY	1.0	71.0	dot_pattern_expectancy	71.0	0.281	probe	BY	s546	False
387.456	0.5	387.455	0.5	BX	n/a	n/a	dot_pattern_expectancy	-1.0	n/a	cue	BX	s546	False
389.96	0.5	390.549	1.636	BX	1.0	71.0	dot_pattern_expectancy	71.0	0.589	probe	BX	s546	False
391.599	0.5	391.598	0.5	AX	n/a	n/a	dot_pattern_expectancy	-1.0	n/a	cue	AX	s546	False
394.102	0.5	394.573	1.636	AX	1.0	89.0	dot_pattern_expectancy	89.0	0.471	probe	AX	s546	False
395.739	0.5	395.738	0.5	AX	n/a	n/a	dot_pattern_expectancy	-1.0	n/a	cue	AX	s546	False
398.243	0.5	398.999	1.5	AX	1.0	89.0	dot_pattern_expectancy	89.0	0.756	probe	AX	s546	False
399.744	0.5	399.743	0.5	AX	n/a	n/a	dot_pattern_expectancy	-1.0	n/a	cue	AX	s546	False
402.248	0.5	402.662	1.5	AX	1.0	89.0	dot_pattern_expectancy	89.0	0.414	probe	AX	s546	False
403.75	0.5	403.749	0.5	AY	n/a	n/a	dot_pattern_expectancy	-1.0	n/a	cue	AY	s546	False
406.254	0.5	406.864	2.044	AY	1.0	71.0	dot_pattern_expectancy	71.0	0.61	probe	AY	s546	False
408.299	0.5	408.298	0.5	AX	n/a	n/a	dot_pattern_expectancy	-1.0	n/a	cue	AX	s546	False
410.804	0.5	411.454	2.452	AX	1.0	89.0	dot_pattern_expectancy	89.0	0.65	probe	AX	s546	False
413.258	0.5	413.257	0.5	AX	n/a	n/a	dot_pattern_expectancy	-1.0	n/a	cue	AX	s546	False
415.763	0.5	416.802	1.908	AX	1.0	89.0	dot_pattern_expectancy	89.0	1.039	probe	AX	s546	False
417.673	0.5	417.672	0.5	AX	n/a	n/a	dot_pattern_expectancy	-1.0	n/a	cue	AX	s546	False
420.178	0.5	420.749	1.5	AX	1.0	89.0	dot_pattern_expectancy	89.0	0.571	probe	AX	s546	False
421.68	0.5	421.679	0.5	AX	n/a	n/a	dot_pattern_expectancy	-1.0	n/a	cue	AX	s546	False
424.186	0.5	424.185	1.908	AX	0.0	89.0	dot_pattern_expectancy	-1.0	n/a	probe	AX	s546	False
426.097	0.5	426.096	0.5	BX	n/a	n/a	dot_pattern_expectancy	-1.0	n/a	cue	BX	s546	False
428.601	0.5	428.96	2.18	BX	1.0	71.0	dot_pattern_expectancy	71.0	0.359	probe	BX	s546	False
430.783	0.5	430.782	0.5	AX	n/a	n/a	dot_pattern_expectancy	-1.0	n/a	cue	AX	s546	False
433.288	0.5	433.745	1.5	AX	1.0	89.0	dot_pattern_expectancy	89.0	0.457	probe	AX	s546	False
434.79	0.5	434.789	0.5	BY	n/a	n/a	dot_pattern_expectancy	-1.0	n/a	cue	BY	s546	False
437.295	0.5	437.533	1.908	BY	1.0	71.0	dot_pattern_expectancy	71.0	0.238	probe	BY	s546	False
439.205	0.5	439.204	0.5	BX	n/a	n/a	dot_pattern_expectancy	-1.0	n/a	cue	BX	s546	False
441.709	0.5	442.219	2.316	BX	1.0	71.0	dot_pattern_expectancy	71.0	0.51	probe	BX	s546	False
444.028	0.5	444.027	0.5	AY	n/a	n/a	dot_pattern_expectancy	-1.0	n/a	cue	AY	s546	False
446.533	0.5	447.227	2.316	AY	1.0	71.0	dot_pattern_expectancy	71.0	0.694	probe	AY	s546	False
448.85	0.5	448.849	0.5	BX	n/a	n/a	dot_pattern_expectancy	-1.0	n/a	cue	BX	s546	False
451.355	0.5	451.691	1.636	BX	1.0	71.0	dot_pattern_expectancy	71.0	0.336	probe	BX	s546	False
452.994	0.5	452.993	0.5	AY	n/a	n/a	dot_pattern_expectancy	-1.0	n/a	cue	AY	s546	False
455.498	0.5	456.004	1.5	AY	1.0	71.0	dot_pattern_expectancy	71.0	0.506	probe	AY	s546	False
457.0	0.5	456.999	0.5	BY	n/a	n/a	dot_pattern_expectancy	-1.0	n/a	cue	BY	s546	False
459.504	0.5	459.85	1.908	BY	1.0	71.0	dot_pattern_expectancy	71.0	0.346	probe	BY	s546	False
461.414	0.5	461.413	0.5	AX	n/a	n/a	dot_pattern_expectancy	-1.0	n/a	cue	AX	s546	False
463.918	0.5	464.433	1.5	AX	1.0	89.0	dot_pattern_expectancy	89.0	0.515	probe	AX	s546	False
465.421	0.5	465.42	0.5	AY	n/a	n/a	dot_pattern_expectancy	-1.0	n/a	cue	AY	s546	False
467.925	0.5	468.554	2.316	AY	1.0	71.0	dot_pattern_expectancy	71.0	0.629	probe	AY	s546	False
470.243	0.5	470.242	0.5	AX	n/a	n/a	dot_pattern_expectancy	-1.0	n/a	cue	AX	s546	False
472.747	0.5	473.108	1.5	AX	1.0	89.0	dot_pattern_expectancy	89.0	0.361	probe	AX	s546	False
474.248	0.5	474.247	0.5	AY	n/a	n/a	dot_pattern_expectancy	-1.0	n/a	cue	AY	s546	False
476.752	0.5	477.335	2.724	AY	1.0	71.0	dot_pattern_expectancy	71.0	0.583	probe	AY	s546	False
479.479	0.5	479.478	0.5	AX	n/a	n/a	dot_pattern_expectancy	-1.0	n/a	cue	AX	s546	False
481.982	0.5	482.406	1.5	AX	1.0	89.0	dot_pattern_expectancy	89.0	0.424	probe	AX	s546	False
483.484	0.5	483.483	0.5	AX	n/a	n/a	dot_pattern_expectancy	-1.0	n/a	cue	AX	s546	False
485.987	0.5	487.066	1.636	AX	1.0	89.0	dot_pattern_expectancy	89.0	1.079	probe	AX	s546	False
487.625	0.5	487.624	0.5	AX	n/a	n/a	dot_pattern_expectancy	-1.0	n/a	cue	AX	s546	False
490.129	0.5	490.509	1.636	AX	1.0	89.0	dot_pattern_expectancy	89.0	0.38	probe	AX	s546	False
491.767	0.5	491.766	0.5	AX	n/a	n/a	dot_pattern_expectancy	-1.0	n/a	cue	AX	s546	False
494.272	0.5	494.707	1.772	AX	1.0	89.0	dot_pattern_expectancy	89.0	0.435	probe	AX	s546	False
496.046	0.5	496.045	0.5	BY	n/a	n/a	dot_pattern_expectancy	-1.0	n/a	cue	BY	s546	False
498.55	0.5	498.818	1.772	BY	1.0	71.0	dot_pattern_expectancy	71.0	0.268	probe	BY	s546	False
500.324	0.5	500.323	0.5	AX	n/a	n/a	dot_pattern_expectancy	-1.0	n/a	cue	AX	s546	False
502.827	0.5	503.272	1.5	AX	1.0	89.0	dot_pattern_expectancy	89.0	0.445	probe	AX	s546	False
504.329	0.5	504.328	0.5	BY	n/a	n/a	dot_pattern_expectancy	-1.0	n/a	cue	BY	s546	False
506.833	0.5	506.922	2.452	BY	1.0	71.0	dot_pattern_expectancy	71.0	0.089	probe	BY	s546	False
509.287	0.5	509.286	0.5	AX	n/a	n/a	dot_pattern_expectancy	-1.0	n/a	cue	AX	s546	False
511.791	0.5	512.403	1.636	AX	1.0	89.0	dot_pattern_expectancy	89.0	0.612	probe	AX	s546	False
513.429	0.5	513.428	0.5	AX	n/a	n/a	dot_pattern_expectancy	-1.0	n/a	cue	AX	s546	False
515.934	0.5	516.311	1.636	AX	1.0	89.0	dot_pattern_expectancy	89.0	0.377	probe	AX	s546	False
517.572	0.5	517.571	0.5	BX	n/a	n/a	dot_pattern_expectancy	-1.0	n/a	cue	BX	s546	False
520.076	0.5	520.335	1.5	BX	1.0	71.0	dot_pattern_expectancy	71.0	0.259	probe	BX	s546	False
521.578	0.5	521.577	0.5	BX	n/a	n/a	dot_pattern_expectancy	-1.0	n/a	cue	BX	s546	False
524.082	0.5	524.362	1.5	BX	1.0	71.0	dot_pattern_expectancy	71.0	0.28	probe	BX	s546	False
525.583	0.5	525.582	0.5	AX	n/a	n/a	dot_pattern_expectancy	-1.0	n/a	cue	AX	s546	False
528.087	0.5	528.462	2.316	AX	1.0	89.0	dot_pattern_expectancy	89.0	0.375	probe	AX	s546	False
530.405	0.5	530.404	0.5	AY	n/a	n/a	dot_pattern_expectancy	-1.0	n/a	cue	AY	s546	False
532.909	0.5	533.71	2.044	AY	1.0	71.0	dot_pattern_expectancy	71.0	0.801	probe	AY	s546	False
534.954	0.5	534.953	0.5	AX	n/a	n/a	dot_pattern_expectancy	-1.0	n/a	cue	AX	s546	False
537.458	0.5	538.126	3.948	AX	0.0	89.0	dot_pattern_expectancy	71.0	0.668	probe	AX	s546	False
541.408	0.5	541.407	0.5	AX	n/a	n/a	dot_pattern_expectancy	-1.0	n/a	cue	AX	s546	False
543.912	0.5	544.328	1.636	AX	1.0	89.0	dot_pattern_expectancy	89.0	0.416	probe	AX	s546	False
556.057	0.5	556.056	0.5	AY	n/a	n/a	dot_pattern_expectancy	-1.0	n/a	cue	AY	s546	False
558.56	0.5	559.124	1.636	AY	1.0	71.0	dot_pattern_expectancy	71.0	0.564	probe	AY	s546	False
560.198	0.5	560.197	0.5	AX	n/a	n/a	dot_pattern_expectancy	-1.0	n/a	cue	AX	s546	False
562.703	0.5	563.167	1.636	AX	1.0	89.0	dot_pattern_expectancy	89.0	0.464	probe	AX	s546	False
564.341	0.5	564.34	0.5	AX	n/a	n/a	dot_pattern_expectancy	-1.0	n/a	cue	AX	s546	False
566.846	0.5	567.32	1.5	AX	1.0	89.0	dot_pattern_expectancy	89.0	0.474	probe	AX	s546	False
568.347	0.5	568.346	0.5	AX	n/a	n/a	dot_pattern_expectancy	-1.0	n/a	cue	AX	s546	False
570.851	0.5	571.236	1.5	AX	1.0	89.0	dot_pattern_expectancy	89.0	0.385	probe	AX	s546	False
572.353	0.5	572.352	0.5	AX	n/a	n/a	dot_pattern_expectancy	-1.0	n/a	cue	AX	s546	False
574.857	0.5	575.278	1.908	AX	1.0	89.0	dot_pattern_expectancy	89.0	0.421	probe	AX	s546	False
576.767	0.5	576.766	0.5	BX	n/a	n/a	dot_pattern_expectancy	-1.0	n/a	cue	BX	s546	False
579.27	0.5	579.414	1.636	BX	1.0	71.0	dot_pattern_expectancy	71.0	0.144	probe	BX	s546	False
580.908	0.5	580.907	0.5	AX	n/a	n/a	dot_pattern_expectancy	-1.0	n/a	cue	AX	s546	False
583.412	0.5	583.814	2.044	AX	1.0	89.0	dot_pattern_expectancy	89.0	0.402	probe	AX	s546	False
585.457	0.5	585.456	0.5	AX	n/a	n/a	dot_pattern_expectancy	-1.0	n/a	cue	AX	s546	False
587.961	0.5	588.502	1.772	AX	1.0	89.0	dot_pattern_expectancy	89.0	0.541	probe	AX	s546	False
589.735	0.5	589.734	0.5	AX	n/a	n/a	dot_pattern_expectancy	-1.0	n/a	cue	AX	s546	False
592.239	0.5	592.733	1.5	AX	1.0	89.0	dot_pattern_expectancy	89.0	0.494	probe	AX	s546	False
593.74	0.5	593.739	0.5	AX	n/a	n/a	dot_pattern_expectancy	-1.0	n/a	cue	AX	s546	False
596.244	0.5	596.622	2.18	AX	1.0	89.0	dot_pattern_expectancy	89.0	0.378	probe	AX	s546	False
598.426	0.5	598.425	0.5	AX	n/a	n/a	dot_pattern_expectancy	-1.0	n/a	cue	AX	s546	False
600.931	0.5	601.316	1.5	AX	1.0	89.0	dot_pattern_expectancy	89.0	0.385	probe	AX	s546	False
602.432	0.5	602.431	0.5	BX	n/a	n/a	dot_pattern_expectancy	-1.0	n/a	cue	BX	s546	False
604.936	0.5	605.295	3.676	BX	1.0	71.0	dot_pattern_expectancy	71.0	0.359	probe	BX	s546	False
608.615	0.5	608.614	0.5	BY	n/a	n/a	dot_pattern_expectancy	-1.0	n/a	cue	BY	s546	False
611.119	0.5	611.368	1.636	BY	1.0	71.0	dot_pattern_expectancy	71.0	0.249	probe	BY	s546	False
612.758	0.5	612.757	0.5	BY	n/a	n/a	dot_pattern_expectancy	-1.0	n/a	cue	BY	s546	False
615.261	0.5	615.434	1.636	BY	1.0	71.0	dot_pattern_expectancy	71.0	0.173	probe	BY	s546	False
616.898	0.5	616.897	0.5	BX	n/a	n/a	dot_pattern_expectancy	-1.0	n/a	cue	BX	s546	False
619.402	0.5	619.624	1.5	BX	1.0	71.0	dot_pattern_expectancy	71.0	0.222	probe	BX	s546	False
620.904	0.5	620.903	0.5	AX	n/a	n/a	dot_pattern_expectancy	-1.0	n/a	cue	AX	s546	False
623.408	0.5	623.841	1.908	AX	1.0	89.0	dot_pattern_expectancy	89.0	0.433	probe	AX	s546	False
625.318	0.5	625.317	0.5	AX	n/a	n/a	dot_pattern_expectancy	-1.0	n/a	cue	AX	s546	False
627.821	0.5	628.489	1.636	AX	1.0	89.0	dot_pattern_expectancy	89.0	0.668	probe	AX	s546	False
629.459	0.5	629.458	0.5	BX	n/a	n/a	dot_pattern_expectancy	-1.0	n/a	cue	BX	s546	False
631.963	0.5	632.257	1.5	BX	1.0	71.0	dot_pattern_expectancy	71.0	0.294	probe	BX	s546	False
633.464	0.5	633.463	0.5	AX	n/a	n/a	dot_pattern_expectancy	-1.0	n/a	cue	AX	s546	False
635.969	0.5	636.351	1.908	AX	1.0	89.0	dot_pattern_expectancy	89.0	0.382	probe	AX	s546	False
637.879	0.5	637.878	0.5	BY	n/a	n/a	dot_pattern_expectancy	-1.0	n/a	cue	BY	s546	False
640.382	0.5	640.466	2.18	BY	1.0	71.0	dot_pattern_expectancy	71.0	0.084	probe	BY	s546	False
642.563	0.5	642.562	0.5	AX	n/a	n/a	dot_pattern_expectancy	-1.0	n/a	cue	AX	s546	False
645.067	0.5	645.454	1.772	AX	1.0	89.0	dot_pattern_expectancy	89.0	0.387	probe	AX	s546	False
646.841	0.5	646.84	0.5	AX	n/a	n/a	dot_pattern_expectancy	-1.0	n/a	cue	AX	s546	False
649.345	0.5	649.782	1.5	AX	1.0	89.0	dot_pattern_expectancy	89.0	0.437	probe	AX	s546	False
650.846	0.5	650.845	0.5	AX	n/a	n/a	dot_pattern_expectancy	-1.0	n/a	cue	AX	s546	False
653.35	0.5	653.867	1.5	AX	1.0	89.0	dot_pattern_expectancy	89.0	0.517	probe	AX	s546	False
654.853	0.5	654.852	0.5	AX	n/a	n/a	dot_pattern_expectancy	-1.0	n/a	cue	AX	s546	False
657.358	0.5	658.797	2.044	AX	1.0	89.0	dot_pattern_expectancy	89.0	1.439	probe	AX	s546	False
659.405	0.5	659.404	0.5	AX	n/a	n/a	dot_pattern_expectancy	-1.0	n/a	cue	AX	s546	False
661.909	0.5	662.309	2.86	AX	1.0	89.0	dot_pattern_expectancy	89.0	0.4	probe	AX	s546	False
664.771	0.5	664.77	0.5	BX	n/a	n/a	dot_pattern_expectancy	-1.0	n/a	cue	BX	s546	False
667.276	0.5	667.275	1.5	BX	0.0	71.0	dot_pattern_expectancy	-1.0	n/a	probe	BX	s546	False
668.777	0.5	668.776	0.5	BY	n/a	n/a	dot_pattern_expectancy	-1.0	n/a	cue	BY	s546	False
671.281	0.5	671.583	1.772	BY	1.0	71.0	dot_pattern_expectancy	71.0	0.302	probe	BY	s546	False
673.055	0.5	673.054	0.5	AX	n/a	n/a	dot_pattern_expectancy	-1.0	n/a	cue	AX	s546	False
675.559	0.5	675.946	1.772	AX	1.0	89.0	dot_pattern_expectancy	89.0	0.387	probe	AX	s546	False
677.332	0.5	677.331	0.5	AX	n/a	n/a	dot_pattern_expectancy	-1.0	n/a	cue	AX	s546	False
679.836	0.5	680.234	2.86	AX	1.0	89.0	dot_pattern_expectancy	89.0	0.398	probe	AX	s546	False
682.698	0.5	682.697	0.5	AX	n/a	n/a	dot_pattern_expectancy	-1.0	n/a	cue	AX	s546	False
685.202	0.5	685.838	1.772	AX	1.0	89.0	dot_pattern_expectancy	89.0	0.636	probe	AX	s546	False
686.975	0.5	686.974	0.5	BX	n/a	n/a	dot_pattern_expectancy	-1.0	n/a	cue	BX	s546	False
689.48	0.5	689.703	1.636	BX	1.0	71.0	dot_pattern_expectancy	71.0	0.223	probe	BX	s546	False
691.118	0.5	691.117	0.5	BX	n/a	n/a	dot_pattern_expectancy	-1.0	n/a	cue	BX	s546	False
693.621	0.5	694.021	2.452	BX	1.0	71.0	dot_pattern_expectancy	71.0	0.4	probe	BX	s546	False
696.074	0.5	696.073	0.5	AX	n/a	n/a	dot_pattern_expectancy	-1.0	n/a	cue	AX	s546	False
698.578	0.5	699.101	1.636	AX	1.0	89.0	dot_pattern_expectancy	89.0	0.523	probe	AX	s546	False
700.216	0.5	700.215	0.5	BX	n/a	n/a	dot_pattern_expectancy	-1.0	n/a	cue	BX	s546	False
702.721	0.5	703.054	1.5	BX	1.0	71.0	dot_pattern_expectancy	71.0	0.333	probe	BX	s546	False
704.223	0.5	704.222	0.5	AX	n/a	n/a	dot_pattern_expectancy	-1.0	n/a	cue	AX	s546	False
706.727	0.5	707.233	1.636	AX	1.0	89.0	dot_pattern_expectancy	89.0	0.506	probe	AX	s546	False
708.366	0.5	708.365	0.5	AX	n/a	n/a	dot_pattern_expectancy	-1.0	n/a	cue	AX	s546	False
710.87	0.5	711.31	1.636	AX	1.0	89.0	dot_pattern_expectancy	89.0	0.44	probe	AX	s546	False
712.509	0.5	712.508	0.5	BY	n/a	n/a	dot_pattern_expectancy	-1.0	n/a	cue	BY	s546	False
715.013	0.5	715.283	2.18	BY	1.0	71.0	dot_pattern_expectancy	71.0	0.27	probe	BY	s546	False
717.195	0.5	717.194	0.5	AX	n/a	n/a	dot_pattern_expectancy	-1.0	n/a	cue	AX	s546	False
719.699	0.5	720.454	1.5	AX	1.0	89.0	dot_pattern_expectancy	89.0	0.755	probe	AX	s546	False
721.2	0.5	721.199	0.5	AY	n/a	n/a	dot_pattern_expectancy	-1.0	n/a	cue	AY	s546	False
723.706	0.5	724.333	1.636	AY	1.0	71.0	dot_pattern_expectancy	71.0	0.627	probe	AY	s546	False
725.344	0.5	725.343	0.5	AX	n/a	n/a	dot_pattern_expectancy	-1.0	n/a	cue	AX	s546	False
727.848	0.5	728.401	1.636	AX	1.0	89.0	dot_pattern_expectancy	89.0	0.553	probe	AX	s546	False
