duration	onset	block_duration	movement_onset	planning	condition	exp_stage	experiment_exp_id	key_press	problem_id	response_time	trial_id	trial_type	worker_id	junk
2.921	3.009	2.921	5.93	1	UA_with_intermediate	practice	ward_and_allport	71	0.0	2.921	to_hand	poldrack-single-stim	s548	False
0.1	5.932	2.547	8.479	0	UA_with_intermediate	practice	ward_and_allport	71	0.0	2.547	to_board	poldrack-single-stim	s548	False
0.1	8.482	0.949	9.431	0	UA_with_intermediate	practice	ward_and_allport	71	0.0	0.949	to_hand	poldrack-single-stim	s548	False
0.1	9.432	1.593	11.025	0	UA_with_intermediate	practice	ward_and_allport	82	0.0	1.593	to_board	poldrack-single-stim	s548	False
0.1	11.026	2.922	13.948	0	UA_with_intermediate	practice	ward_and_allport	71	0.0	2.922	to_hand	poldrack-single-stim	s548	False
0.1	13.949	1.608	15.557	0	UA_with_intermediate	practice	ward_and_allport	82	0.0	1.608	to_board	poldrack-single-stim	s548	False
0.1	15.558	0.594	16.152	0	UA_with_intermediate	practice	ward_and_allport	89	0.0	0.594	to_hand	poldrack-single-stim	s548	False
0.1	16.153	1.011	17.164	0	UA_with_intermediate	practice	ward_and_allport	71	0.0	1.011	to_board	poldrack-single-stim	s548	False
0.1	17.165	3.538	20.703	0	UA_with_intermediate	practice	ward_and_allport	82	0.0	3.538	to_hand	poldrack-single-stim	s548	False
0.1	20.705	1.003	21.708	0	UA_with_intermediate	practice	ward_and_allport	71	0.0	1.003	to_board	poldrack-single-stim	s548	False
0.1	21.71	0.889	22.599	0	UA_with_intermediate	practice	ward_and_allport	82	0.0	0.889	to_hand	poldrack-single-stim	s548	False
0.1	22.6	0.563	23.163	0	UA_with_intermediate	practice	ward_and_allport	71	0.0	0.563	to_board	poldrack-single-stim	s548	False
0.1	23.165	4.222	27.387	0	UA_with_intermediate	practice	ward_and_allport	71	0.0	4.222	to_hand	poldrack-single-stim	s548	False
0.1	27.387	2.465	29.852	0	UA_with_intermediate	practice	ward_and_allport	71	0.0	2.465	to_board	poldrack-single-stim	s548	False
0.1	29.854	1.249	31.103	0	UA_with_intermediate	practice	ward_and_allport	71	0.0	1.249	to_hand	poldrack-single-stim	s548	False
0.1	31.104	1.007	32.111	0	UA_with_intermediate	practice	ward_and_allport	82	0.0	1.007	to_board	poldrack-single-stim	s548	False
0.1	32.113	2.398	34.511	0	UA_with_intermediate	practice	ward_and_allport	71	0.0	2.398	to_hand	poldrack-single-stim	s548	False
0.1	34.512	0.337	34.849	0	UA_with_intermediate	practice	ward_and_allport	82	0.0	0.337	to_board	poldrack-single-stim	s548	False
0.1	34.851	0.539	35.39	0	UA_with_intermediate	practice	ward_and_allport	71	0.0	0.539	to_hand	poldrack-single-stim	s548	False
0.1	35.391	0.655	36.046	0	UA_with_intermediate	practice	ward_and_allport	89	0.0	0.655	to_board	poldrack-single-stim	s548	False
0.1	36.048	2.559	38.607	0	UA_with_intermediate	practice	ward_and_allport	82	0.0	2.559	to_hand	poldrack-single-stim	s548	False
0.1	38.607	0.658	39.265	0	UA_with_intermediate	practice	ward_and_allport	89	0.0	0.658	to_board	poldrack-single-stim	s548	False
0.1	39.269	0.587	39.856	0	UA_with_intermediate	practice	ward_and_allport	82	0.0	0.587	to_hand	poldrack-single-stim	s548	False
0.1	39.857	0.42	40.277	0	UA_with_intermediate	practice	ward_and_allport	89	0.0	0.42	to_board	poldrack-single-stim	s548	False
1.0	40.28	2.5	40.279	0	UA_with_intermediate	practice	ward_and_allport	-1	0.0	n/a	feedback	poldrack-single-stim	s548	False
3.762	42.782	3.762	46.544	1	UA_with_intermediate	practice	ward_and_allport	71	1.0	3.762	to_hand	poldrack-single-stim	s548	False
0.1	46.545	1.793	48.338	0	UA_with_intermediate	practice	ward_and_allport	71	1.0	1.793	to_board	poldrack-single-stim	s548	False
0.1	48.339	1.055	49.394	0	UA_with_intermediate	practice	ward_and_allport	89	1.0	1.055	to_hand	poldrack-single-stim	s548	False
0.1	49.396	1.428	50.824	0	UA_with_intermediate	practice	ward_and_allport	82	1.0	1.428	to_board	poldrack-single-stim	s548	False
0.1	50.825	2.51	53.335	0	UA_with_intermediate	practice	ward_and_allport	71	1.0	2.51	to_hand	poldrack-single-stim	s548	False
0.1	53.336	0.704	54.04	0	UA_with_intermediate	practice	ward_and_allport	89	1.0	0.704	to_board	poldrack-single-stim	s548	False
0.1	54.041	1.27	55.311	0	UA_with_intermediate	practice	ward_and_allport	82	1.0	1.27	to_hand	poldrack-single-stim	s548	False
0.1	55.313	0.312	55.625	0	UA_with_intermediate	practice	ward_and_allport	89	1.0	0.312	to_board	poldrack-single-stim	s548	False
1.0	55.628	2.1	55.627	0	UA_with_intermediate	practice	ward_and_allport	-1	1.0	n/a	feedback	poldrack-single-stim	s548	False
3.612	57.73	3.612	61.342	1	UA_without_intermediate	practice	ward_and_allport	71	2.0	3.612	to_hand	poldrack-single-stim	s548	False
0.1	61.343	0.382	61.725	0	UA_without_intermediate	practice	ward_and_allport	82	2.0	0.382	to_board	poldrack-single-stim	s548	False
0.1	61.727	0.792	62.519	0	UA_without_intermediate	practice	ward_and_allport	71	2.0	0.792	to_hand	poldrack-single-stim	s548	False
0.1	62.52	0.329	62.849	0	UA_without_intermediate	practice	ward_and_allport	89	2.0	0.329	to_board	poldrack-single-stim	s548	False
0.1	62.852	3.307	66.159	0	UA_without_intermediate	practice	ward_and_allport	89	2.0	3.307	to_hand	poldrack-single-stim	s548	False
0.1	66.16	1.328	67.488	0	UA_without_intermediate	practice	ward_and_allport	71	2.0	1.328	to_board	poldrack-single-stim	s548	False
0.1	67.492	2.196	69.688	0	UA_without_intermediate	practice	ward_and_allport	71	2.0	2.196	to_hand	poldrack-single-stim	s548	False
0.1	69.688	1.74	71.428	0	UA_without_intermediate	practice	ward_and_allport	71	2.0	1.74	to_board	poldrack-single-stim	s548	False
0.1	71.431	0.837	72.268	0	UA_without_intermediate	practice	ward_and_allport	82	2.0	0.837	to_hand	poldrack-single-stim	s548	False
0.1	72.268	0.619	72.887	0	UA_without_intermediate	practice	ward_and_allport	71	2.0	0.619	to_board	poldrack-single-stim	s548	False
0.1	72.89	1.145	74.035	0	UA_without_intermediate	practice	ward_and_allport	82	2.0	1.145	to_hand	poldrack-single-stim	s548	False
0.1	74.036	0.359	74.395	0	UA_without_intermediate	practice	ward_and_allport	89	2.0	0.359	to_board	poldrack-single-stim	s548	False
0.1	74.398	2.55	76.948	0	UA_without_intermediate	practice	ward_and_allport	71	2.0	2.55	to_hand	poldrack-single-stim	s548	False
0.1	76.949	0.588	77.537	0	UA_without_intermediate	practice	ward_and_allport	82	2.0	0.588	to_board	poldrack-single-stim	s548	False
0.1	77.539	0.509	78.048	0	UA_without_intermediate	practice	ward_and_allport	71	2.0	0.509	to_hand	poldrack-single-stim	s548	False
0.1	78.049	0.356	78.405	0	UA_without_intermediate	practice	ward_and_allport	89	2.0	0.356	to_board	poldrack-single-stim	s548	False
0.1	78.407	0.566	78.973	0	UA_without_intermediate	practice	ward_and_allport	82	2.0	0.566	to_hand	poldrack-single-stim	s548	False
0.1	78.975	0.29	79.265	0	UA_without_intermediate	practice	ward_and_allport	89	2.0	0.29	to_board	poldrack-single-stim	s548	False
0.1	79.267	4.448	83.715	0	UA_without_intermediate	practice	ward_and_allport	89	2.0	4.448	to_hand	poldrack-single-stim	s548	False
0.1	83.716	0.817	84.533	0	UA_without_intermediate	practice	ward_and_allport	82	2.0	0.817	to_board	poldrack-single-stim	s548	False
0.1	84.536	1.902	86.438	0	UA_without_intermediate	practice	ward_and_allport	89	2.0	1.902	to_hand	poldrack-single-stim	s548	False
0.1	86.438	1.25	87.688	0	UA_without_intermediate	practice	ward_and_allport	71	2.0	1.25	to_board	poldrack-single-stim	s548	False
0.1	87.69	1.539	89.229	0	UA_without_intermediate	practice	ward_and_allport	82	2.0	1.539	to_hand	poldrack-single-stim	s548	False
0.1	89.231	0.348	89.579	0	UA_without_intermediate	practice	ward_and_allport	89	2.0	0.348	to_board	poldrack-single-stim	s548	False
0.1	89.582	0.976	90.558	0	UA_without_intermediate	practice	ward_and_allport	71	2.0	0.976	to_hand	poldrack-single-stim	s548	False
0.1	90.559	0.189	90.748	0	UA_without_intermediate	practice	ward_and_allport	89	2.0	0.189	to_board	poldrack-single-stim	s548	False
1.0	90.751	2.2	90.75	0	UA_without_intermediate	practice	ward_and_allport	-1	2.0	n/a	feedback	poldrack-single-stim	s548	False
6.031	92.953	6.031	98.984	1	UA_without_intermediate	practice	ward_and_allport	71	3.0	6.031	to_hand	poldrack-single-stim	s548	False
0.1	98.985	0.304	99.289	0	UA_without_intermediate	practice	ward_and_allport	89	3.0	0.304	to_board	poldrack-single-stim	s548	False
0.1	99.291	1.843	101.134	0	UA_without_intermediate	practice	ward_and_allport	82	3.0	1.843	to_hand	poldrack-single-stim	s548	False
0.1	101.135	0.359	101.494	0	UA_without_intermediate	practice	ward_and_allport	89	3.0	0.359	to_board	poldrack-single-stim	s548	False
0.1	101.497	0.597	102.094	0	UA_without_intermediate	practice	ward_and_allport	71	3.0	0.597	to_hand	poldrack-single-stim	s548	False
0.1	102.095	0.319	102.414	0	UA_without_intermediate	practice	ward_and_allport	89	3.0	0.319	to_board	poldrack-single-stim	s548	False
1.0	102.418	2.0	102.417	0	UA_without_intermediate	practice	ward_and_allport	-1	3.0	n/a	feedback	poldrack-single-stim	s548	False
5.53	106.425	5.53	111.955	1	PA_with_intermediate	test	ward_and_allport	71	0.0	5.53	to_hand	poldrack-single-stim	s548	False
0.1	111.955	1.474	113.429	0	PA_with_intermediate	test	ward_and_allport	82	0.0	1.474	to_board	poldrack-single-stim	s548	False
0.1	113.432	0.824	114.256	0	PA_with_intermediate	test	ward_and_allport	71	0.0	0.824	to_hand	poldrack-single-stim	s548	False
0.1	114.257	0.271	114.528	0	PA_with_intermediate	test	ward_and_allport	89	0.0	0.271	to_board	poldrack-single-stim	s548	False
0.1	114.532	0.997	115.529	0	PA_with_intermediate	test	ward_and_allport	71	0.0	0.997	to_hand	poldrack-single-stim	s548	False
0.1	115.53	1.299	116.829	0	PA_with_intermediate	test	ward_and_allport	71	0.0	1.299	to_board	poldrack-single-stim	s548	False
0.1	116.832	0.454	117.286	0	PA_with_intermediate	test	ward_and_allport	82	0.0	0.454	to_hand	poldrack-single-stim	s548	False
0.1	117.287	0.273	117.56	0	PA_with_intermediate	test	ward_and_allport	89	0.0	0.273	to_board	poldrack-single-stim	s548	False
1.0	117.563	2.408	117.562	0	PA_with_intermediate	test	ward_and_allport	-1	0.0	n/a	feedback	poldrack-single-stim	s548	False
4.076	119.975	4.076	124.051	1	PA_without_intermediate	test	ward_and_allport	71	1.0	4.076	to_hand	poldrack-single-stim	s548	False
0.1	124.052	0.319	124.371	0	PA_without_intermediate	test	ward_and_allport	89	1.0	0.319	to_board	poldrack-single-stim	s548	False
0.1	124.374	2.255	126.629	0	PA_without_intermediate	test	ward_and_allport	71	1.0	2.255	to_hand	poldrack-single-stim	s548	False
0.1	126.63	0.315	126.945	0	PA_without_intermediate	test	ward_and_allport	82	1.0	0.315	to_board	poldrack-single-stim	s548	False
0.1	126.948	1.271	128.219	0	PA_without_intermediate	test	ward_and_allport	71	1.0	1.271	to_hand	poldrack-single-stim	s548	False
0.1	128.22	0.272	128.492	0	PA_without_intermediate	test	ward_and_allport	89	1.0	0.272	to_board	poldrack-single-stim	s548	False
1.0	128.496	2.68	128.495	0	PA_without_intermediate	test	ward_and_allport	-1	1.0	n/a	feedback	poldrack-single-stim	s548	False
4.409	131.18	4.409	135.589	1	PA_with_intermediate	test	ward_and_allport	89	2.0	4.409	to_hand	poldrack-single-stim	s548	False
0.1	135.59	0.598	136.188	0	PA_with_intermediate	test	ward_and_allport	82	2.0	0.598	to_board	poldrack-single-stim	s548	False
0.1	136.192	1.013	137.205	0	PA_with_intermediate	test	ward_and_allport	89	2.0	1.013	to_hand	poldrack-single-stim	s548	False
0.1	137.206	0.586	137.792	0	PA_with_intermediate	test	ward_and_allport	71	2.0	0.586	to_board	poldrack-single-stim	s548	False
0.1	137.796	1.325	139.121	0	PA_with_intermediate	test	ward_and_allport	82	2.0	1.325	to_hand	poldrack-single-stim	s548	False
0.1	139.121	0.61	139.731	0	PA_with_intermediate	test	ward_and_allport	71	2.0	0.61	to_board	poldrack-single-stim	s548	False
1.0	139.737	4.72	139.736	0	PA_with_intermediate	test	ward_and_allport	-1	2.0	n/a	feedback	poldrack-single-stim	s548	False
4.04	144.459	4.04	148.499	1	PA_without_intermediate	test	ward_and_allport	71	3.0	4.04	to_hand	poldrack-single-stim	s548	False
0.1	148.5	0.562	149.062	0	PA_without_intermediate	test	ward_and_allport	82	3.0	0.562	to_board	poldrack-single-stim	s548	False
0.1	149.065	0.711	149.776	0	PA_without_intermediate	test	ward_and_allport	71	3.0	0.711	to_hand	poldrack-single-stim	s548	False
0.1	149.777	0.341	150.118	0	PA_without_intermediate	test	ward_and_allport	89	3.0	0.341	to_board	poldrack-single-stim	s548	False
0.1	150.122	1.348	151.47	0	PA_without_intermediate	test	ward_and_allport	82	3.0	1.348	to_hand	poldrack-single-stim	s548	False
0.1	151.471	0.358	151.829	0	PA_without_intermediate	test	ward_and_allport	89	3.0	0.358	to_board	poldrack-single-stim	s548	False
0.1	151.833	1.24	153.073	0	PA_without_intermediate	test	ward_and_allport	71	3.0	1.24	to_hand	poldrack-single-stim	s548	False
0.1	153.074	0.377	153.451	0	PA_without_intermediate	test	ward_and_allport	82	3.0	0.377	to_board	poldrack-single-stim	s548	False
0.1	153.455	3.441	156.896	0	PA_without_intermediate	test	ward_and_allport	89	3.0	3.441	to_hand	poldrack-single-stim	s548	False
0.1	156.897	0.681	157.578	0	PA_without_intermediate	test	ward_and_allport	71	3.0	0.681	to_board	poldrack-single-stim	s548	False
0.1	157.582	1.02	158.602	0	PA_without_intermediate	test	ward_and_allport	82	3.0	1.02	to_hand	poldrack-single-stim	s548	False
0.1	158.604	1.066	159.67	0	PA_without_intermediate	test	ward_and_allport	82	3.0	1.066	to_board	poldrack-single-stim	s548	False
0.1	159.674	0.569	160.243	0	PA_without_intermediate	test	ward_and_allport	89	3.0	0.569	to_hand	poldrack-single-stim	s548	False
0.1	160.245	1.224	161.469	0	PA_without_intermediate	test	ward_and_allport	82	3.0	1.224	to_board	poldrack-single-stim	s548	False
0.1	161.473	0.729	162.202	0	PA_without_intermediate	test	ward_and_allport	71	3.0	0.729	to_hand	poldrack-single-stim	s548	False
0.1	162.204	0.384	162.588	0	PA_without_intermediate	test	ward_and_allport	89	3.0	0.384	to_board	poldrack-single-stim	s548	False
0.1	162.592	1.186	163.778	0	PA_without_intermediate	test	ward_and_allport	82	3.0	1.186	to_hand	poldrack-single-stim	s548	False
0.1	163.78	0.379	164.159	0	PA_without_intermediate	test	ward_and_allport	89	3.0	0.379	to_board	poldrack-single-stim	s548	False
1.0	164.163	3.224	164.162	0	PA_without_intermediate	test	ward_and_allport	-1	3.0	n/a	feedback	poldrack-single-stim	s548	False
5.595	167.392	5.595	172.987	1	PA_without_intermediate	test	ward_and_allport	71	4.0	5.595	to_hand	poldrack-single-stim	s548	False
0.1	172.988	1.467	174.455	0	PA_without_intermediate	test	ward_and_allport	82	4.0	1.467	to_board	poldrack-single-stim	s548	False
0.1	174.459	0.685	175.144	0	PA_without_intermediate	test	ward_and_allport	71	4.0	0.685	to_hand	poldrack-single-stim	s548	False
0.1	175.146	0.699	175.845	0	PA_without_intermediate	test	ward_and_allport	82	4.0	0.699	to_board	poldrack-single-stim	s548	False
0.1	175.849	0.959	176.808	0	PA_without_intermediate	test	ward_and_allport	71	4.0	0.959	to_hand	poldrack-single-stim	s548	False
0.1	176.809	0.377	177.186	0	PA_without_intermediate	test	ward_and_allport	89	4.0	0.377	to_board	poldrack-single-stim	s548	False
0.1	177.191	3.366	180.557	0	PA_without_intermediate	test	ward_and_allport	82	4.0	3.366	to_hand	poldrack-single-stim	s548	False
0.1	180.558	1.088	181.646	0	PA_without_intermediate	test	ward_and_allport	71	4.0	1.088	to_board	poldrack-single-stim	s548	False
0.1	181.65	1.574	183.224	0	PA_without_intermediate	test	ward_and_allport	82	4.0	1.574	to_hand	poldrack-single-stim	s548	False
0.1	183.224	1.906	185.13	0	PA_without_intermediate	test	ward_and_allport	82	4.0	1.906	to_board	poldrack-single-stim	s548	False
0.1	185.134	1.914	187.048	0	PA_without_intermediate	test	ward_and_allport	89	4.0	1.914	to_hand	poldrack-single-stim	s548	False
0.1	187.048	1.673	188.721	0	PA_without_intermediate	test	ward_and_allport	71	4.0	1.673	to_board	poldrack-single-stim	s548	False
0.1	188.725	0.926	189.651	0	PA_without_intermediate	test	ward_and_allport	82	4.0	0.926	to_hand	poldrack-single-stim	s548	False
0.1	189.652	0.366	190.018	0	PA_without_intermediate	test	ward_and_allport	89	4.0	0.366	to_board	poldrack-single-stim	s548	False
0.1	190.023	1.123	191.146	0	PA_without_intermediate	test	ward_and_allport	71	4.0	1.123	to_hand	poldrack-single-stim	s548	False
0.1	191.146	0.261	191.407	0	PA_without_intermediate	test	ward_and_allport	89	4.0	0.261	to_board	poldrack-single-stim	s548	False
0.1	191.411	1.68	193.091	0	PA_without_intermediate	test	ward_and_allport	71	4.0	1.68	to_hand	poldrack-single-stim	s548	False
0.1	193.092	0.327	193.419	0	PA_without_intermediate	test	ward_and_allport	82	4.0	0.327	to_board	poldrack-single-stim	s548	False
1.0	193.423	2.272	193.422	0	PA_without_intermediate	test	ward_and_allport	-1	4.0	n/a	feedback	poldrack-single-stim	s548	False
5.032	195.699	5.032	200.731	1	PA_with_intermediate	test	ward_and_allport	71	5.0	5.032	to_hand	poldrack-single-stim	s548	False
0.1	200.733	0.408	201.141	0	PA_with_intermediate	test	ward_and_allport	89	5.0	0.408	to_board	poldrack-single-stim	s548	False
0.1	201.145	0.582	201.727	0	PA_with_intermediate	test	ward_and_allport	71	5.0	0.582	to_hand	poldrack-single-stim	s548	False
0.1	201.727	0.439	202.166	0	PA_with_intermediate	test	ward_and_allport	82	5.0	0.439	to_board	poldrack-single-stim	s548	False
0.1	202.171	1.13	203.301	0	PA_with_intermediate	test	ward_and_allport	89	5.0	1.13	to_hand	poldrack-single-stim	s548	False
0.1	203.302	0.441	203.743	0	PA_with_intermediate	test	ward_and_allport	82	5.0	0.441	to_board	poldrack-single-stim	s548	False
1.0	203.748	3.632	203.747	0	PA_with_intermediate	test	ward_and_allport	-1	5.0	n/a	feedback	poldrack-single-stim	s548	False
6.973	207.385	6.973	214.358	1	PA_without_intermediate	test	ward_and_allport	82	6.0	6.973	to_hand	poldrack-single-stim	s548	False
0.1	214.358	0.458	214.816	0	PA_without_intermediate	test	ward_and_allport	71	6.0	0.458	to_board	poldrack-single-stim	s548	False
0.1	214.82	1.415	216.235	0	PA_without_intermediate	test	ward_and_allport	82	6.0	1.415	to_hand	poldrack-single-stim	s548	False
0.1	216.237	0.357	216.594	0	PA_without_intermediate	test	ward_and_allport	89	6.0	0.357	to_board	poldrack-single-stim	s548	False
0.1	216.599	3.894	220.493	0	PA_without_intermediate	test	ward_and_allport	89	6.0	3.894	to_hand	poldrack-single-stim	s548	False
0.1	220.495	0.465	220.96	0	PA_without_intermediate	test	ward_and_allport	82	6.0	0.465	to_board	poldrack-single-stim	s548	False
0.1	220.964	0.592	221.556	0	PA_without_intermediate	test	ward_and_allport	71	6.0	0.592	to_hand	poldrack-single-stim	s548	False
0.1	221.558	0.328	221.886	0	PA_without_intermediate	test	ward_and_allport	89	6.0	0.328	to_board	poldrack-single-stim	s548	False
0.1	221.891	0.947	222.838	0	PA_without_intermediate	test	ward_and_allport	89	6.0	0.947	to_hand	poldrack-single-stim	s548	False
0.1	222.838	1.055	223.893	0	PA_without_intermediate	test	ward_and_allport	89	6.0	1.055	to_board	poldrack-single-stim	s548	False
0.1	223.899	0.506	224.405	0	PA_without_intermediate	test	ward_and_allport	82	6.0	0.506	to_hand	poldrack-single-stim	s548	False
0.1	224.406	0.29	224.696	0	PA_without_intermediate	test	ward_and_allport	89	6.0	0.29	to_board	poldrack-single-stim	s548	False
0.1	224.702	1.399	226.101	0	PA_without_intermediate	test	ward_and_allport	82	6.0	1.399	to_hand	poldrack-single-stim	s548	False
0.1	226.102	0.333	226.435	0	PA_without_intermediate	test	ward_and_allport	89	6.0	0.333	to_board	poldrack-single-stim	s548	False
0.1	226.439	1.373	227.812	0	PA_without_intermediate	test	ward_and_allport	89	6.0	1.373	to_hand	poldrack-single-stim	s548	False
0.1	227.814	0.422	228.236	0	PA_without_intermediate	test	ward_and_allport	71	6.0	0.422	to_board	poldrack-single-stim	s548	False
1.0	228.242	2.408	228.241	0	PA_without_intermediate	test	ward_and_allport	-1	6.0	n/a	feedback	poldrack-single-stim	s548	False
5.523	230.654	5.523	236.177	1	PA_without_intermediate	test	ward_and_allport	89	7.0	5.523	to_hand	poldrack-single-stim	s548	False
0.1	236.178	0.372	236.55	0	PA_without_intermediate	test	ward_and_allport	82	7.0	0.372	to_board	poldrack-single-stim	s548	False
0.1	236.556	2.56	239.116	0	PA_without_intermediate	test	ward_and_allport	89	7.0	2.56	to_hand	poldrack-single-stim	s548	False
0.1	239.117	0.471	239.588	0	PA_without_intermediate	test	ward_and_allport	71	7.0	0.471	to_board	poldrack-single-stim	s548	False
0.1	239.593	0.738	240.331	0	PA_without_intermediate	test	ward_and_allport	89	7.0	0.738	to_hand	poldrack-single-stim	s548	False
0.1	240.332	0.32	240.652	0	PA_without_intermediate	test	ward_and_allport	82	7.0	0.32	to_board	poldrack-single-stim	s548	False
1.0	240.658	2.0	240.657	0	PA_without_intermediate	test	ward_and_allport	-1	7.0	n/a	feedback	poldrack-single-stim	s548	False
6.639	242.663	6.639	249.302	1	PA_with_intermediate	test	ward_and_allport	89	8.0	6.639	to_hand	poldrack-single-stim	s548	False
0.1	249.303	0.925	250.228	0	PA_with_intermediate	test	ward_and_allport	71	8.0	0.925	to_board	poldrack-single-stim	s548	False
0.1	250.234	3.657	253.891	0	PA_with_intermediate	test	ward_and_allport	71	8.0	3.657	to_hand	poldrack-single-stim	s548	False
0.1	253.891	0.397	254.288	0	PA_with_intermediate	test	ward_and_allport	82	8.0	0.397	to_board	poldrack-single-stim	s548	False
0.1	254.293	1.314	255.607	0	PA_with_intermediate	test	ward_and_allport	89	8.0	1.314	to_hand	poldrack-single-stim	s548	False
0.1	255.607	0.501	256.108	0	PA_with_intermediate	test	ward_and_allport	71	8.0	0.501	to_board	poldrack-single-stim	s548	False
0.1	256.113	0.535	256.648	0	PA_with_intermediate	test	ward_and_allport	89	8.0	0.535	to_hand	poldrack-single-stim	s548	False
0.1	256.649	1.474	258.123	0	PA_with_intermediate	test	ward_and_allport	89	8.0	1.474	to_board	poldrack-single-stim	s548	False
0.1	258.128	0.57	258.698	0	PA_with_intermediate	test	ward_and_allport	82	8.0	0.57	to_hand	poldrack-single-stim	s548	False
0.1	258.699	0.298	258.997	0	PA_with_intermediate	test	ward_and_allport	89	8.0	0.298	to_board	poldrack-single-stim	s548	False
1.0	259.003	2.0	259.002	0	PA_with_intermediate	test	ward_and_allport	-1	8.0	n/a	feedback	poldrack-single-stim	s548	False
6.439	261.009	6.439	267.448	1	PA_with_intermediate	test	ward_and_allport	82	9.0	6.439	to_hand	poldrack-single-stim	s548	False
0.1	267.449	0.455	267.904	0	PA_with_intermediate	test	ward_and_allport	71	9.0	0.455	to_board	poldrack-single-stim	s548	False
0.1	267.91	0.623	268.533	0	PA_with_intermediate	test	ward_and_allport	82	9.0	0.623	to_hand	poldrack-single-stim	s548	False
0.1	268.535	0.365	268.9	0	PA_with_intermediate	test	ward_and_allport	89	9.0	0.365	to_board	poldrack-single-stim	s548	False
0.1	268.905	0.76	269.665	0	PA_with_intermediate	test	ward_and_allport	71	9.0	0.76	to_hand	poldrack-single-stim	s548	False
0.1	269.667	0.379	270.046	0	PA_with_intermediate	test	ward_and_allport	89	9.0	0.379	to_board	poldrack-single-stim	s548	False
1.0	270.052	2.0	270.051	0	PA_with_intermediate	test	ward_and_allport	-1	9.0	n/a	feedback	poldrack-single-stim	s548	False
4.189	272.058	4.189	276.247	1	PA_with_intermediate	test	ward_and_allport	82	10.0	4.189	to_hand	poldrack-single-stim	s548	False
0.1	276.247	0.481	276.728	0	PA_with_intermediate	test	ward_and_allport	71	10.0	0.481	to_board	poldrack-single-stim	s548	False
0.1	276.734	3.009	279.743	0	PA_with_intermediate	test	ward_and_allport	71	10.0	3.009	to_hand	poldrack-single-stim	s548	False
0.1	279.745	0.539	280.284	0	PA_with_intermediate	test	ward_and_allport	89	10.0	0.539	to_board	poldrack-single-stim	s548	False
0.1	280.29	0.816	281.106	0	PA_with_intermediate	test	ward_and_allport	82	10.0	0.816	to_hand	poldrack-single-stim	s548	False
0.1	281.106	0.385	281.491	0	PA_with_intermediate	test	ward_and_allport	71	10.0	0.385	to_board	poldrack-single-stim	s548	False
0.1	281.497	1.461	282.958	0	PA_with_intermediate	test	ward_and_allport	89	10.0	1.461	to_hand	poldrack-single-stim	s548	False
0.1	282.959	0.521	283.48	0	PA_with_intermediate	test	ward_and_allport	71	10.0	0.521	to_board	poldrack-single-stim	s548	False
1.0	283.487	2.408	283.486	0	PA_with_intermediate	test	ward_and_allport	-1	10.0	n/a	feedback	poldrack-single-stim	s548	False
5.56	285.901	5.56	291.461	1	PA_without_intermediate	test	ward_and_allport	82	11.0	5.56	to_hand	poldrack-single-stim	s548	False
0.1	291.462	1.059	292.521	0	PA_without_intermediate	test	ward_and_allport	71	11.0	1.059	to_board	poldrack-single-stim	s548	False
0.1	292.528	1.797	294.325	0	PA_without_intermediate	test	ward_and_allport	82	11.0	1.797	to_hand	poldrack-single-stim	s548	False
0.1	294.326	0.336	294.662	0	PA_without_intermediate	test	ward_and_allport	71	11.0	0.336	to_board	poldrack-single-stim	s548	False
0.1	294.669	0.705	295.374	0	PA_without_intermediate	test	ward_and_allport	82	11.0	0.705	to_hand	poldrack-single-stim	s548	False
0.1	295.375	0.216	295.591	0	PA_without_intermediate	test	ward_and_allport	89	11.0	0.216	to_board	poldrack-single-stim	s548	False
1.0	295.599	2.816	295.598	0	PA_without_intermediate	test	ward_and_allport	-1	11.0	n/a	feedback	poldrack-single-stim	s548	False
6.003	298.422	6.003	304.425	1	PA_with_intermediate	test	ward_and_allport	89	12.0	6.003	to_hand	poldrack-single-stim	s548	False
0.1	304.426	0.385	304.811	0	PA_with_intermediate	test	ward_and_allport	71	12.0	0.385	to_board	poldrack-single-stim	s548	False
0.1	304.817	1.206	306.023	0	PA_with_intermediate	test	ward_and_allport	89	12.0	1.206	to_hand	poldrack-single-stim	s548	False
0.1	306.024	0.29	306.314	0	PA_with_intermediate	test	ward_and_allport	82	12.0	0.29	to_board	poldrack-single-stim	s548	False
0.1	306.32	0.801	307.121	0	PA_with_intermediate	test	ward_and_allport	71	12.0	0.801	to_hand	poldrack-single-stim	s548	False
0.1	307.122	0.337	307.459	0	PA_with_intermediate	test	ward_and_allport	89	12.0	0.337	to_board	poldrack-single-stim	s548	False
1.0	307.466	4.176	307.465	0	PA_with_intermediate	test	ward_and_allport	-1	12.0	n/a	feedback	poldrack-single-stim	s548	False
3.965	311.649	3.965	315.614	1	PA_with_intermediate	test	ward_and_allport	71	13.0	3.965	to_hand	poldrack-single-stim	s548	False
0.1	315.614	0.361	315.975	0	PA_with_intermediate	test	ward_and_allport	82	13.0	0.361	to_board	poldrack-single-stim	s548	False
0.1	315.981	0.553	316.534	0	PA_with_intermediate	test	ward_and_allport	71	13.0	0.553	to_hand	poldrack-single-stim	s548	False
0.1	316.535	0.375	316.91	0	PA_with_intermediate	test	ward_and_allport	89	13.0	0.375	to_board	poldrack-single-stim	s548	False
0.1	316.918	0.561	317.479	0	PA_with_intermediate	test	ward_and_allport	82	13.0	0.561	to_hand	poldrack-single-stim	s548	False
0.1	317.481	0.358	317.839	0	PA_with_intermediate	test	ward_and_allport	89	13.0	0.358	to_board	poldrack-single-stim	s548	False
1.0	317.847	3.36	317.846	0	PA_with_intermediate	test	ward_and_allport	-1	13.0	n/a	feedback	poldrack-single-stim	s548	False
4.385	321.213	4.385	325.598	1	PA_with_intermediate	test	ward_and_allport	71	14.0	4.385	to_hand	poldrack-single-stim	s548	False
0.1	325.599	0.367	325.966	0	PA_with_intermediate	test	ward_and_allport	82	14.0	0.367	to_board	poldrack-single-stim	s548	False
0.1	325.973	1.664	327.637	0	PA_with_intermediate	test	ward_and_allport	71	14.0	1.664	to_hand	poldrack-single-stim	s548	False
0.1	327.637	0.274	327.911	0	PA_with_intermediate	test	ward_and_allport	89	14.0	0.274	to_board	poldrack-single-stim	s548	False
0.1	327.919	0.724	328.643	0	PA_with_intermediate	test	ward_and_allport	82	14.0	0.724	to_hand	poldrack-single-stim	s548	False
0.1	328.644	0.308	328.952	0	PA_with_intermediate	test	ward_and_allport	89	14.0	0.308	to_board	poldrack-single-stim	s548	False
0.1	328.958	2.124	331.082	0	PA_with_intermediate	test	ward_and_allport	89	14.0	2.124	to_hand	poldrack-single-stim	s548	False
0.1	331.083	0.653	331.736	0	PA_with_intermediate	test	ward_and_allport	71	14.0	0.653	to_board	poldrack-single-stim	s548	False
1.0	331.745	2.0	331.744	0	PA_with_intermediate	test	ward_and_allport	-1	14.0	n/a	feedback	poldrack-single-stim	s548	False
4.0	338.756	4.0	342.756	1	PA_without_intermediate	test	ward_and_allport	89	15.0	4.0	to_hand	poldrack-single-stim	s548	False
0.1	342.756	0.789	343.545	0	PA_without_intermediate	test	ward_and_allport	71	15.0	0.789	to_board	poldrack-single-stim	s548	False
0.1	343.553	0.746	344.299	0	PA_without_intermediate	test	ward_and_allport	89	15.0	0.746	to_hand	poldrack-single-stim	s548	False
0.1	344.3	0.283	344.583	0	PA_without_intermediate	test	ward_and_allport	71	15.0	0.283	to_board	poldrack-single-stim	s548	False
0.1	344.59	0.762	345.352	0	PA_without_intermediate	test	ward_and_allport	89	15.0	0.762	to_hand	poldrack-single-stim	s548	False
0.1	345.353	0.292	345.645	0	PA_without_intermediate	test	ward_and_allport	82	15.0	0.292	to_board	poldrack-single-stim	s548	False
1.0	345.653	2.408	345.652	0	PA_without_intermediate	test	ward_and_allport	-1	15.0	n/a	feedback	poldrack-single-stim	s548	False
3.067	348.068	3.067	351.135	1	PA_with_intermediate	test	ward_and_allport	71	16.0	3.067	to_hand	poldrack-single-stim	s548	False
0.1	351.135	0.377	351.512	0	PA_with_intermediate	test	ward_and_allport	89	16.0	0.377	to_board	poldrack-single-stim	s548	False
0.1	351.519	0.777	352.296	0	PA_with_intermediate	test	ward_and_allport	71	16.0	0.777	to_hand	poldrack-single-stim	s548	False
0.1	352.297	0.339	352.636	0	PA_with_intermediate	test	ward_and_allport	82	16.0	0.339	to_board	poldrack-single-stim	s548	False
0.1	352.643	0.881	353.524	0	PA_with_intermediate	test	ward_and_allport	89	16.0	0.881	to_hand	poldrack-single-stim	s548	False
0.1	353.526	0.303	353.829	0	PA_with_intermediate	test	ward_and_allport	82	16.0	0.303	to_board	poldrack-single-stim	s548	False
1.0	353.837	2.816	353.836	0	PA_with_intermediate	test	ward_and_allport	-1	16.0	n/a	feedback	poldrack-single-stim	s548	False
3.305	356.661	3.305	359.966	1	PA_without_intermediate	test	ward_and_allport	71	17.0	3.305	to_hand	poldrack-single-stim	s548	False
0.1	359.967	0.28	360.247	0	PA_without_intermediate	test	ward_and_allport	82	17.0	0.28	to_board	poldrack-single-stim	s548	False
0.1	360.254	0.693	360.947	0	PA_without_intermediate	test	ward_and_allport	71	17.0	0.693	to_hand	poldrack-single-stim	s548	False
0.1	360.949	0.279	361.228	0	PA_without_intermediate	test	ward_and_allport	82	17.0	0.279	to_board	poldrack-single-stim	s548	False
0.1	361.235	0.936	362.171	0	PA_without_intermediate	test	ward_and_allport	71	17.0	0.936	to_hand	poldrack-single-stim	s548	False
0.1	362.171	0.35	362.521	0	PA_without_intermediate	test	ward_and_allport	89	17.0	0.35	to_board	poldrack-single-stim	s548	False
1.0	362.53	3.088	362.529	0	PA_without_intermediate	test	ward_and_allport	-1	17.0	n/a	feedback	poldrack-single-stim	s548	False
3.352	365.625	3.352	368.977	1	PA_without_intermediate	test	ward_and_allport	89	18.0	3.352	to_hand	poldrack-single-stim	s548	False
0.1	368.978	0.473	369.451	0	PA_without_intermediate	test	ward_and_allport	71	18.0	0.473	to_board	poldrack-single-stim	s548	False
0.1	369.46	1.835	371.295	0	PA_without_intermediate	test	ward_and_allport	89	18.0	1.835	to_hand	poldrack-single-stim	s548	False
0.1	371.296	0.524	371.82	0	PA_without_intermediate	test	ward_and_allport	82	18.0	0.524	to_board	poldrack-single-stim	s548	False
0.1	371.83	0.526	372.356	0	PA_without_intermediate	test	ward_and_allport	89	18.0	0.526	to_hand	poldrack-single-stim	s548	False
0.1	372.356	0.332	372.688	0	PA_without_intermediate	test	ward_and_allport	71	18.0	0.332	to_board	poldrack-single-stim	s548	False
1.0	372.699	2.136	372.698	0	PA_without_intermediate	test	ward_and_allport	-1	18.0	n/a	feedback	poldrack-single-stim	s548	False
2.865	374.841	2.865	377.706	1	PA_without_intermediate	test	ward_and_allport	89	19.0	2.865	to_hand	poldrack-single-stim	s548	False
0.1	377.707	0.331	378.038	0	PA_without_intermediate	test	ward_and_allport	82	19.0	0.331	to_board	poldrack-single-stim	s548	False
0.1	378.044	0.59	378.634	0	PA_without_intermediate	test	ward_and_allport	89	19.0	0.59	to_hand	poldrack-single-stim	s548	False
0.1	378.634	0.304	378.938	0	PA_without_intermediate	test	ward_and_allport	82	19.0	0.304	to_board	poldrack-single-stim	s548	False
0.1	378.946	0.852	379.798	0	PA_without_intermediate	test	ward_and_allport	89	19.0	0.852	to_hand	poldrack-single-stim	s548	False
0.1	379.8	0.277	380.077	0	PA_without_intermediate	test	ward_and_allport	71	19.0	0.277	to_board	poldrack-single-stim	s548	False
1.0	380.087	7.168	380.086	0	PA_without_intermediate	test	ward_and_allport	-1	19.0	n/a	feedback	poldrack-single-stim	s548	False
2.653	387.265	2.653	389.918	1	PA_without_intermediate	test	ward_and_allport	89	20.0	2.653	to_hand	poldrack-single-stim	s548	False
0.1	389.919	0.29	390.209	0	PA_without_intermediate	test	ward_and_allport	71	20.0	0.29	to_board	poldrack-single-stim	s548	False
0.1	390.218	1.122	391.34	0	PA_without_intermediate	test	ward_and_allport	89	20.0	1.122	to_hand	poldrack-single-stim	s548	False
0.1	391.341	0.282	391.623	0	PA_without_intermediate	test	ward_and_allport	82	20.0	0.282	to_board	poldrack-single-stim	s548	False
0.1	391.631	0.385	392.016	0	PA_without_intermediate	test	ward_and_allport	89	20.0	0.385	to_hand	poldrack-single-stim	s548	False
0.1	392.017	0.3	392.317	0	PA_without_intermediate	test	ward_and_allport	71	20.0	0.3	to_board	poldrack-single-stim	s548	False
1.0	392.329	2.816	392.328	0	PA_without_intermediate	test	ward_and_allport	-1	20.0	n/a	feedback	poldrack-single-stim	s548	False
5.722	395.151	5.722	400.873	1	PA_with_intermediate	test	ward_and_allport	82	21.0	5.722	to_hand	poldrack-single-stim	s548	False
0.1	400.875	0.245	401.12	0	PA_with_intermediate	test	ward_and_allport	89	21.0	0.245	to_board	poldrack-single-stim	s548	False
0.1	401.126	1.301	402.427	0	PA_with_intermediate	test	ward_and_allport	82	21.0	1.301	to_hand	poldrack-single-stim	s548	False
0.1	402.428	0.304	402.732	0	PA_with_intermediate	test	ward_and_allport	71	21.0	0.304	to_board	poldrack-single-stim	s548	False
0.1	402.739	0.442	403.181	0	PA_with_intermediate	test	ward_and_allport	89	21.0	0.442	to_hand	poldrack-single-stim	s548	False
0.1	403.182	0.473	403.655	0	PA_with_intermediate	test	ward_and_allport	82	21.0	0.473	to_board	poldrack-single-stim	s548	False
1.0	403.665	2.952	403.664	0	PA_with_intermediate	test	ward_and_allport	-1	21.0	n/a	feedback	poldrack-single-stim	s548	False
4.541	406.626	4.541	411.167	1	PA_with_intermediate	test	ward_and_allport	82	22.0	4.541	to_hand	poldrack-single-stim	s548	False
0.1	411.168	0.384	411.552	0	PA_with_intermediate	test	ward_and_allport	71	22.0	0.384	to_board	poldrack-single-stim	s548	False
0.1	411.559	0.786	412.345	0	PA_with_intermediate	test	ward_and_allport	82	22.0	0.786	to_hand	poldrack-single-stim	s548	False
0.1	412.346	0.278	412.624	0	PA_with_intermediate	test	ward_and_allport	89	22.0	0.278	to_board	poldrack-single-stim	s548	False
0.1	412.633	0.753	413.386	0	PA_with_intermediate	test	ward_and_allport	71	22.0	0.753	to_hand	poldrack-single-stim	s548	False
0.1	413.387	0.329	413.716	0	PA_with_intermediate	test	ward_and_allport	82	22.0	0.329	to_board	poldrack-single-stim	s548	False
1.0	413.726	2.136	413.725	0	PA_with_intermediate	test	ward_and_allport	-1	22.0	n/a	feedback	poldrack-single-stim	s548	False
4.9	415.872	4.9	420.772	1	PA_without_intermediate	test	ward_and_allport	82	23.0	4.9	to_hand	poldrack-single-stim	s548	False
0.1	420.773	0.246	421.019	0	PA_without_intermediate	test	ward_and_allport	89	23.0	0.246	to_board	poldrack-single-stim	s548	False
0.1	421.025	1.386	422.411	0	PA_without_intermediate	test	ward_and_allport	82	23.0	1.386	to_hand	poldrack-single-stim	s548	False
0.1	422.412	0.335	422.747	0	PA_without_intermediate	test	ward_and_allport	71	23.0	0.335	to_board	poldrack-single-stim	s548	False
0.1	422.756	0.573	423.329	0	PA_without_intermediate	test	ward_and_allport	82	23.0	0.573	to_hand	poldrack-single-stim	s548	False
0.1	423.331	0.253	423.584	0	PA_without_intermediate	test	ward_and_allport	89	23.0	0.253	to_board	poldrack-single-stim	s548	False
1.0	423.594	2.68	423.593	0	PA_without_intermediate	test	ward_and_allport	-1	23.0	n/a	feedback	poldrack-single-stim	s548	False
4.586	426.284	4.586	430.87	1	PA_without_intermediate	test	ward_and_allport	82	24.0	4.586	to_hand	poldrack-single-stim	s548	False
0.1	430.871	0.265	431.136	0	PA_without_intermediate	test	ward_and_allport	89	24.0	0.265	to_board	poldrack-single-stim	s548	False
0.1	431.145	0.824	431.969	0	PA_without_intermediate	test	ward_and_allport	82	24.0	0.824	to_hand	poldrack-single-stim	s548	False
0.1	431.97	1.357	433.327	0	PA_without_intermediate	test	ward_and_allport	82	24.0	1.357	to_board	poldrack-single-stim	s548	False
0.1	433.337	0.588	433.925	0	PA_without_intermediate	test	ward_and_allport	89	24.0	0.588	to_hand	poldrack-single-stim	s548	False
0.1	433.926	0.399	434.325	0	PA_without_intermediate	test	ward_and_allport	71	24.0	0.399	to_board	poldrack-single-stim	s548	False
0.1	434.333	1.492	435.825	0	PA_without_intermediate	test	ward_and_allport	82	24.0	1.492	to_hand	poldrack-single-stim	s548	False
0.1	435.826	0.34	436.166	0	PA_without_intermediate	test	ward_and_allport	89	24.0	0.34	to_board	poldrack-single-stim	s548	False
0.1	436.174	0.563	436.737	0	PA_without_intermediate	test	ward_and_allport	82	24.0	0.563	to_hand	poldrack-single-stim	s548	False
0.1	436.739	0.521	437.26	0	PA_without_intermediate	test	ward_and_allport	71	24.0	0.521	to_board	poldrack-single-stim	s548	False
1.0	437.267	3.088	437.266	0	PA_without_intermediate	test	ward_and_allport	-1	24.0	n/a	feedback	poldrack-single-stim	s548	False
3.629	440.364	3.629	443.993	1	PA_with_intermediate	test	ward_and_allport	89	25.0	3.629	to_hand	poldrack-single-stim	s548	False
0.1	443.995	0.413	444.408	0	PA_with_intermediate	test	ward_and_allport	82	25.0	0.413	to_board	poldrack-single-stim	s548	False
0.1	444.418	1.003	445.421	0	PA_with_intermediate	test	ward_and_allport	89	25.0	1.003	to_hand	poldrack-single-stim	s548	False
0.1	445.422	0.433	445.855	0	PA_with_intermediate	test	ward_and_allport	71	25.0	0.433	to_board	poldrack-single-stim	s548	False
0.1	445.864	0.773	446.637	0	PA_with_intermediate	test	ward_and_allport	82	25.0	0.773	to_hand	poldrack-single-stim	s548	False
0.1	446.638	0.345	446.983	0	PA_with_intermediate	test	ward_and_allport	89	25.0	0.345	to_board	poldrack-single-stim	s548	False
1.0	446.994	2.0	446.993	0	PA_with_intermediate	test	ward_and_allport	-1	25.0	n/a	feedback	poldrack-single-stim	s548	False
3.896	449.003	3.896	452.899	1	PA_without_intermediate	test	ward_and_allport	71	26.0	3.896	to_hand	poldrack-single-stim	s548	False
0.1	452.899	0.296	453.195	0	PA_without_intermediate	test	ward_and_allport	82	26.0	0.296	to_board	poldrack-single-stim	s548	False
0.1	453.204	0.602	453.806	0	PA_without_intermediate	test	ward_and_allport	71	26.0	0.602	to_hand	poldrack-single-stim	s548	False
0.1	453.807	0.238	454.045	0	PA_without_intermediate	test	ward_and_allport	82	26.0	0.238	to_board	poldrack-single-stim	s548	False
0.1	454.054	1.077	455.131	0	PA_without_intermediate	test	ward_and_allport	71	26.0	1.077	to_hand	poldrack-single-stim	s548	False
0.1	455.132	0.353	455.485	0	PA_without_intermediate	test	ward_and_allport	89	26.0	0.353	to_board	poldrack-single-stim	s548	False
1.0	455.496	2.0	455.495	0	PA_without_intermediate	test	ward_and_allport	-1	26.0	n/a	feedback	poldrack-single-stim	s548	False
3.59	457.506	3.59	461.096	1	PA_without_intermediate	test	ward_and_allport	89	27.0	3.59	to_hand	poldrack-single-stim	s548	False
0.1	461.097	0.464	461.561	0	PA_without_intermediate	test	ward_and_allport	71	27.0	0.464	to_board	poldrack-single-stim	s548	False
0.1	461.568	0.578	462.146	0	PA_without_intermediate	test	ward_and_allport	89	27.0	0.578	to_hand	poldrack-single-stim	s548	False
0.1	462.147	0.27	462.417	0	PA_without_intermediate	test	ward_and_allport	71	27.0	0.27	to_board	poldrack-single-stim	s548	False
0.1	462.426	0.54	462.966	0	PA_without_intermediate	test	ward_and_allport	89	27.0	0.54	to_hand	poldrack-single-stim	s548	False
0.1	462.968	0.606	463.574	0	PA_without_intermediate	test	ward_and_allport	82	27.0	0.606	to_board	poldrack-single-stim	s548	False
1.0	463.584	2.0	463.583	0	PA_without_intermediate	test	ward_and_allport	-1	27.0	n/a	feedback	poldrack-single-stim	s548	False
4.206	465.592	4.206	469.798	1	PA_with_intermediate	test	ward_and_allport	71	28.0	4.206	to_hand	poldrack-single-stim	s548	False
0.1	469.798	0.263	470.061	0	PA_with_intermediate	test	ward_and_allport	89	28.0	0.263	to_board	poldrack-single-stim	s548	False
0.1	470.073	0.449	470.522	0	PA_with_intermediate	test	ward_and_allport	71	28.0	0.449	to_hand	poldrack-single-stim	s548	False
0.1	470.523	0.289	470.812	0	PA_with_intermediate	test	ward_and_allport	82	28.0	0.289	to_board	poldrack-single-stim	s548	False
0.1	470.822	0.885	471.707	0	PA_with_intermediate	test	ward_and_allport	89	28.0	0.885	to_hand	poldrack-single-stim	s548	False
0.1	471.708	0.741	472.449	0	PA_with_intermediate	test	ward_and_allport	71	28.0	0.741	to_board	poldrack-single-stim	s548	False
1.0	472.459	2.544	472.458	0	PA_with_intermediate	test	ward_and_allport	-1	28.0	n/a	feedback	poldrack-single-stim	s548	False
3.781	475.01	3.781	478.791	1	PA_without_intermediate	test	ward_and_allport	82	29.0	3.781	to_hand	poldrack-single-stim	s548	False
0.1	478.792	0.292	479.084	0	PA_without_intermediate	test	ward_and_allport	89	29.0	0.292	to_board	poldrack-single-stim	s548	False
0.1	479.091	1.431	480.522	0	PA_without_intermediate	test	ward_and_allport	82	29.0	1.431	to_hand	poldrack-single-stim	s548	False
0.1	480.523	0.331	480.854	0	PA_without_intermediate	test	ward_and_allport	71	29.0	0.331	to_board	poldrack-single-stim	s548	False
0.1	480.864	0.404	481.268	0	PA_without_intermediate	test	ward_and_allport	82	29.0	0.404	to_hand	poldrack-single-stim	s548	False
0.1	481.269	0.306	481.575	0	PA_without_intermediate	test	ward_and_allport	89	29.0	0.306	to_board	poldrack-single-stim	s548	False
1.0	481.586	2.272	481.585	0	PA_without_intermediate	test	ward_and_allport	-1	29.0	n/a	feedback	poldrack-single-stim	s548	False
3.013	488.869	3.013	491.882	1	PA_with_intermediate	test	ward_and_allport	82	30.0	3.013	to_hand	poldrack-single-stim	s548	False
0.1	491.884	0.313	492.197	0	PA_with_intermediate	test	ward_and_allport	71	30.0	0.313	to_board	poldrack-single-stim	s548	False
0.1	492.208	3.914	496.122	0	PA_with_intermediate	test	ward_and_allport	82	30.0	3.914	to_hand	poldrack-single-stim	s548	False
0.1	496.123	0.568	496.691	0	PA_with_intermediate	test	ward_and_allport	89	30.0	0.568	to_board	poldrack-single-stim	s548	False
0.1	496.701	1.671	498.372	0	PA_with_intermediate	test	ward_and_allport	71	30.0	1.671	to_hand	poldrack-single-stim	s548	False
0.1	498.372	0.463	498.835	0	PA_with_intermediate	test	ward_and_allport	89	30.0	0.463	to_board	poldrack-single-stim	s548	False
1.0	498.848	4.04	498.847	0	PA_with_intermediate	test	ward_and_allport	-1	30.0	n/a	feedback	poldrack-single-stim	s548	False
3.144	502.899	3.144	506.043	1	PA_with_intermediate	test	ward_and_allport	71	31.0	3.144	to_hand	poldrack-single-stim	s548	False
0.1	506.044	0.293	506.337	0	PA_with_intermediate	test	ward_and_allport	89	31.0	0.293	to_board	poldrack-single-stim	s548	False
0.1	506.348	0.593	506.941	0	PA_with_intermediate	test	ward_and_allport	71	31.0	0.593	to_hand	poldrack-single-stim	s548	False
0.1	506.942	0.286	507.228	0	PA_with_intermediate	test	ward_and_allport	82	31.0	0.286	to_board	poldrack-single-stim	s548	False
0.1	507.239	0.762	508.001	0	PA_with_intermediate	test	ward_and_allport	89	31.0	0.762	to_hand	poldrack-single-stim	s548	False
0.1	508.002	0.544	508.546	0	PA_with_intermediate	test	ward_and_allport	71	31.0	0.544	to_board	poldrack-single-stim	s548	False
1.0	508.556	2.272	508.555	0	PA_with_intermediate	test	ward_and_allport	-1	31.0	n/a	feedback	poldrack-single-stim	s548	False
3.218	510.838	3.218	514.056	1	PA_with_intermediate	test	ward_and_allport	71	32.0	3.218	to_hand	poldrack-single-stim	s548	False
0.1	514.056	0.24	514.296	0	PA_with_intermediate	test	ward_and_allport	82	32.0	0.24	to_board	poldrack-single-stim	s548	False
0.1	514.303	0.557	514.86	0	PA_with_intermediate	test	ward_and_allport	71	32.0	0.557	to_hand	poldrack-single-stim	s548	False
0.1	514.861	0.275	515.136	0	PA_with_intermediate	test	ward_and_allport	89	32.0	0.275	to_board	poldrack-single-stim	s548	False
0.1	515.144	0.569	515.713	0	PA_with_intermediate	test	ward_and_allport	82	32.0	0.569	to_hand	poldrack-single-stim	s548	False
0.1	515.713	0.715	516.428	0	PA_with_intermediate	test	ward_and_allport	71	32.0	0.715	to_board	poldrack-single-stim	s548	False
1.0	516.436	2.136	516.435	0	PA_with_intermediate	test	ward_and_allport	-1	32.0	n/a	feedback	poldrack-single-stim	s548	False
4.371	518.579	4.371	522.95	1	PA_with_intermediate	test	ward_and_allport	89	33.0	4.371	to_hand	poldrack-single-stim	s548	False
0.1	522.952	0.399	523.351	0	PA_with_intermediate	test	ward_and_allport	71	33.0	0.399	to_board	poldrack-single-stim	s548	False
0.1	523.358	0.556	523.914	0	PA_with_intermediate	test	ward_and_allport	89	33.0	0.556	to_hand	poldrack-single-stim	s548	False
0.1	523.915	0.263	524.178	0	PA_with_intermediate	test	ward_and_allport	82	33.0	0.263	to_board	poldrack-single-stim	s548	False
0.1	524.184	0.479	524.663	0	PA_with_intermediate	test	ward_and_allport	71	33.0	0.479	to_hand	poldrack-single-stim	s548	False
0.1	524.664	0.274	524.938	0	PA_with_intermediate	test	ward_and_allport	82	33.0	0.274	to_board	poldrack-single-stim	s548	False
1.0	524.95	2.0	524.949	0	PA_with_intermediate	test	ward_and_allport	-1	33.0	n/a	feedback	poldrack-single-stim	s548	False
4.772	526.962	4.772	531.734	1	PA_with_intermediate	test	ward_and_allport	82	34.0	4.772	to_hand	poldrack-single-stim	s548	False
0.1	531.735	0.279	532.014	0	PA_with_intermediate	test	ward_and_allport	71	34.0	0.279	to_board	poldrack-single-stim	s548	False
0.1	532.024	0.595	532.619	0	PA_with_intermediate	test	ward_and_allport	82	34.0	0.595	to_hand	poldrack-single-stim	s548	False
0.1	532.621	0.296	532.917	0	PA_with_intermediate	test	ward_and_allport	89	34.0	0.296	to_board	poldrack-single-stim	s548	False
0.1	532.928	1.166	534.094	0	PA_with_intermediate	test	ward_and_allport	71	34.0	1.166	to_hand	poldrack-single-stim	s548	False
0.1	534.095	0.322	534.417	0	PA_with_intermediate	test	ward_and_allport	82	34.0	0.322	to_board	poldrack-single-stim	s548	False
1.0	534.428	2.0	534.427	0	PA_with_intermediate	test	ward_and_allport	-1	34.0	n/a	feedback	poldrack-single-stim	s548	False
2.509	536.437	2.509	538.946	1	PA_without_intermediate	test	ward_and_allport	82	35.0	2.509	to_hand	poldrack-single-stim	s548	False
0.1	538.948	0.239	539.187	0	PA_without_intermediate	test	ward_and_allport	71	35.0	0.239	to_board	poldrack-single-stim	s548	False
0.1	539.196	0.605	539.801	0	PA_without_intermediate	test	ward_and_allport	82	35.0	0.605	to_hand	poldrack-single-stim	s548	False
0.1	539.801	0.219	540.02	0	PA_without_intermediate	test	ward_and_allport	89	35.0	0.219	to_board	poldrack-single-stim	s548	False
0.1	540.028	2.97	542.998	0	PA_without_intermediate	test	ward_and_allport	89	35.0	2.97	to_hand	poldrack-single-stim	s548	False
0.1	543.0	0.198	543.198	0	PA_without_intermediate	test	ward_and_allport	82	35.0	0.198	to_board	poldrack-single-stim	s548	False
0.1	543.205	2.451	545.656	0	PA_without_intermediate	test	ward_and_allport	82	35.0	2.451	to_hand	poldrack-single-stim	s548	False
0.1	545.657	0.39	546.047	0	PA_without_intermediate	test	ward_and_allport	71	35.0	0.39	to_board	poldrack-single-stim	s548	False
0.1	546.058	0.557	546.615	0	PA_without_intermediate	test	ward_and_allport	82	35.0	0.557	to_hand	poldrack-single-stim	s548	False
0.1	546.616	0.214	546.83	0	PA_without_intermediate	test	ward_and_allport	89	35.0	0.214	to_board	poldrack-single-stim	s548	False
1.0	546.844	2.408	546.843	0	PA_without_intermediate	test	ward_and_allport	-1	35.0	n/a	feedback	poldrack-single-stim	s548	False
3.198	549.262	3.198	552.46	1	PA_with_intermediate	test	ward_and_allport	82	36.0	3.198	to_hand	poldrack-single-stim	s548	False
0.1	552.462	0.194	552.656	0	PA_with_intermediate	test	ward_and_allport	89	36.0	0.194	to_board	poldrack-single-stim	s548	False
0.1	552.665	1.061	553.726	0	PA_with_intermediate	test	ward_and_allport	82	36.0	1.061	to_hand	poldrack-single-stim	s548	False
0.1	553.726	0.294	554.02	0	PA_with_intermediate	test	ward_and_allport	71	36.0	0.294	to_board	poldrack-single-stim	s548	False
0.1	554.03	3.153	557.183	0	PA_with_intermediate	test	ward_and_allport	89	36.0	3.153	to_hand	poldrack-single-stim	s548	False
0.1	557.184	0.719	557.903	0	PA_with_intermediate	test	ward_and_allport	71	36.0	0.719	to_board	poldrack-single-stim	s548	False
1.0	557.914	3.768	557.913	0	PA_with_intermediate	test	ward_and_allport	-1	36.0	n/a	feedback	poldrack-single-stim	s548	False
