onset	duration	movement_onset	CTI	block_duration	correct	correct_response	cue	cue_switch	experiment_exp_id	key_press	response_time	stim_color	stim_number	switch_type	task	task_switch	trial_id	trial_type	worker_id	first_trial_of_block	junk
4.414	1.0	6.306	0.9	2.136	False	89.0	Color	n/a	twobytwo	71.0	0.992	blue	1.0	task_switch	color	switch	stim	poldrack-single-stim	s548	1	False
6.655	1.0	7.611	0.1	2.68	False	71.0	Color	stay	twobytwo	89.0	0.856	orange	9.0	cue_stay	color	stay	stim	poldrack-single-stim	s548	0	False
10.24	1.0	11.497	0.9	2.544	True	71.0	Orange-Blue	switch	twobytwo	71.0	0.357	orange	9.0	cue_switch	color	stay	stim	poldrack-single-stim	s548	0	False
13.689	1.0	14.955	0.9	2.272	False	71.0	Color	switch	twobytwo	89.0	0.366	orange	4.0	cue_switch	color	stay	stim	poldrack-single-stim	s548	0	False
16.067	1.0	16.982	0.1	2.272	True	71.0	Orange-Blue	switch	twobytwo	71.0	0.815	orange	9.0	cue_switch	color	stay	stim	poldrack-single-stim	s548	0	False
19.245	1.0	20.812	0.9	2.408	False	71.0	High-Low	n/a	twobytwo	89.0	0.667	blue	1.0	task_switch	magnitude	switch	stim	poldrack-single-stim	s548	0	False
21.757	1.0	22.884	0.1	2.136	True	89.0	High-Low	stay	twobytwo	89.0	1.027	orange	6.0	cue_stay	magnitude	stay	stim	poldrack-single-stim	s548	0	False
23.997	1.0	24.784	0.1	2.272	False	89.0	Color	n/a	twobytwo	71.0	0.687	blue	3.0	task_switch	color	switch	stim	poldrack-single-stim	s548	0	False
26.374	1.0	27.689	0.1	2.0	False	89.0	Orange-Blue	switch	twobytwo	71.0	1.215	blue	3.0	cue_switch	color	stay	stim	poldrack-single-stim	s548	0	False
28.478	1.0	29.528	0.1	2.136	True	89.0	Color	switch	twobytwo	89.0	0.95	blue	6.0	cue_switch	color	stay	stim	poldrack-single-stim	s548	0	False
30.718	1.0	31.555	0.1	2.272	True	71.0	Color	stay	twobytwo	71.0	0.737	orange	1.0	cue_stay	color	stay	stim	poldrack-single-stim	s548	0	False
33.894	1.0	35.657	0.9	2.0	False	71.0	High-Low	n/a	twobytwo	89.0	0.863	blue	3.0	task_switch	magnitude	switch	stim	poldrack-single-stim	s548	0	False
36.798	1.0	38.321	0.9	2.68	True	89.0	Color	n/a	twobytwo	89.0	0.623	blue	7.0	task_switch	color	switch	stim	poldrack-single-stim	s548	0	False
39.583	1.0	40.734	0.1	2.0	True	89.0	Orange-Blue	switch	twobytwo	89.0	1.051	blue	2.0	cue_switch	color	stay	stim	poldrack-single-stim	s548	0	False
42.489	1.0	44.055	0.9	2.0	True	89.0	High-Low	n/a	twobytwo	89.0	0.666	orange	7.0	task_switch	magnitude	switch	stim	poldrack-single-stim	s548	0	False
45.393	1.0	46.742	0.9	2.0	True	71.0	High-Low	stay	twobytwo	71.0	0.449	orange	2.0	cue_stay	magnitude	stay	stim	poldrack-single-stim	s548	0	False
48.297	1.0	50.151	0.9	2.272	True	89.0	Orange-Blue	n/a	twobytwo	89.0	0.954	blue	4.0	task_switch	color	switch	stim	poldrack-single-stim	s548	0	False
50.675	1.0	51.523	0.1	2.0	True	89.0	Magnitude	n/a	twobytwo	89.0	0.748	blue	8.0	task_switch	magnitude	switch	stim	poldrack-single-stim	s548	0	False
53.58	1.0	54.822	0.9	2.0	True	71.0	Orange-Blue	n/a	twobytwo	71.0	0.342	orange	4.0	task_switch	color	switch	stim	poldrack-single-stim	s548	0	False
55.684	1.0	57.033	0.1	2.0	False	89.0	Magnitude	n/a	twobytwo	71.0	1.249	orange	8.0	task_switch	magnitude	switch	stim	poldrack-single-stim	s548	0	False
58.588	1.0	59.994	0.9	2.68	True	89.0	Magnitude	stay	twobytwo	89.0	0.506	blue	7.0	cue_stay	magnitude	stay	stim	poldrack-single-stim	s548	0	False
61.372	1.0	62.555	0.1	2.0	False	71.0	Magnitude	stay	twobytwo	89.0	1.083	blue	2.0	cue_stay	magnitude	stay	stim	poldrack-single-stim	s548	0	False
64.277	1.0	65.907	0.9	2.136	False	89.0	Color	n/a	twobytwo	71.0	0.73	blue	1.0	task_switch	color	switch	stim	poldrack-single-stim	s548	0	False
67.318	1.0	68.913	0.9	2.408	True	89.0	Orange-Blue	switch	twobytwo	89.0	0.695	blue	6.0	cue_switch	color	stay	stim	poldrack-single-stim	s548	0	False
70.632	1.0	71.896	0.9	2.136	False	89.0	Orange-Blue	stay	twobytwo	71.0	0.364	blue	3.0	cue_stay	color	stay	stim	poldrack-single-stim	s548	0	False
73.673	1.0	75.164	0.9	2.0	True	89.0	Orange-Blue	stay	twobytwo	89.0	0.591	blue	8.0	cue_stay	color	stay	stim	poldrack-single-stim	s548	0	False
76.578	1.0	78.256	0.9	2.0	False	71.0	High-Low	n/a	twobytwo	89.0	0.778	blue	4.0	task_switch	magnitude	switch	stim	poldrack-single-stim	s548	0	False
79.482	1.0	80.74	0.9	2.544	False	89.0	Color	n/a	twobytwo	71.0	0.358	blue	2.0	task_switch	color	switch	stim	poldrack-single-stim	s548	0	False
82.932	1.0	84.605	0.9	2.136	False	71.0	Color	stay	twobytwo	89.0	0.773	orange	6.0	cue_stay	color	stay	stim	poldrack-single-stim	s548	0	False
85.172	1.0	86.278	0.1	2.544	True	71.0	Color	stay	twobytwo	71.0	1.006	orange	7.0	cue_stay	color	stay	stim	poldrack-single-stim	s548	0	False
88.621	1.0	89.856	0.9	2.68	False	71.0	Magnitude	n/a	twobytwo	89.0	0.335	blue	2.0	task_switch	magnitude	switch	stim	poldrack-single-stim	s548	0	False
91.407	1.0	92.221	0.1	2.0	True	71.0	High-Low	switch	twobytwo	71.0	0.714	orange	1.0	cue_switch	magnitude	stay	stim	poldrack-single-stim	s548	0	False
93.511	1.0	94.32	0.1	2.272	True	89.0	Color	n/a	twobytwo	89.0	0.709	blue	6.0	task_switch	color	switch	stim	poldrack-single-stim	s548	0	False
96.687	1.0	98.243	0.9	3.088	False	71.0	High-Low	n/a	twobytwo	89.0	0.656	blue	2.0	task_switch	magnitude	switch	stim	poldrack-single-stim	s548	0	False
99.881	1.0	101.188	0.1	2.0	True	89.0	Color	n/a	twobytwo	89.0	1.207	blue	2.0	task_switch	color	switch	stim	poldrack-single-stim	s548	0	False
101.988	1.0	103.01	0.1	2.136	True	89.0	Color	stay	twobytwo	89.0	0.922	blue	9.0	cue_stay	color	stay	stim	poldrack-single-stim	s548	0	False
105.029	1.0	106.244	0.9	2.136	True	71.0	Magnitude	n/a	twobytwo	71.0	0.315	orange	2.0	task_switch	magnitude	switch	stim	poldrack-single-stim	s548	0	False
107.27	1.0	108.064	0.1	2.0	True	71.0	Magnitude	stay	twobytwo	71.0	0.694	orange	2.0	cue_stay	magnitude	stay	stim	poldrack-single-stim	s548	0	False
109.375	1.0	110.105	0.1	2.272	True	89.0	High-Low	switch	twobytwo	89.0	0.63	blue	9.0	cue_switch	magnitude	stay	stim	poldrack-single-stim	s548	0	False
111.752	1.0	113.316	0.1	2.0	True	89.0	Color	n/a	twobytwo	89.0	1.464	blue	2.0	task_switch	color	switch	stim	poldrack-single-stim	s548	0	False
114.656	1.0	115.929	0.9	2.136	True	71.0	High-Low	n/a	twobytwo	71.0	0.373	orange	1.0	task_switch	magnitude	switch	stim	poldrack-single-stim	s548	0	False
117.696	1.0	119.133	0.9	2.136	False	89.0	Orange-Blue	n/a	twobytwo	71.0	0.537	blue	4.0	task_switch	color	switch	stim	poldrack-single-stim	s548	0	False
120.738	1.0	121.996	0.9	2.544	True	71.0	Orange-Blue	stay	twobytwo	71.0	0.358	orange	2.0	cue_stay	color	stay	stim	poldrack-single-stim	s548	0	False
124.188	1.0	125.587	0.9	2.0	True	89.0	High-Low	n/a	twobytwo	89.0	0.499	blue	6.0	task_switch	magnitude	switch	stim	poldrack-single-stim	s548	0	False
126.294	1.0	127.035	0.1	2.136	True	89.0	High-Low	stay	twobytwo	89.0	0.641	blue	6.0	cue_stay	magnitude	stay	stim	poldrack-single-stim	s548	0	False
128.535	1.0	129.403	0.1	2.136	False	89.0	Color	n/a	twobytwo	71.0	0.768	blue	1.0	task_switch	color	switch	stim	poldrack-single-stim	s548	0	False
131.577	1.0	133.192	0.9	2.136	True	89.0	High-Low	n/a	twobytwo	89.0	0.715	orange	6.0	task_switch	magnitude	switch	stim	poldrack-single-stim	s548	0	False
134.618	1.0	136.512	0.9	2.0	True	89.0	Orange-Blue	n/a	twobytwo	89.0	0.994	blue	1.0	task_switch	color	switch	stim	poldrack-single-stim	s548	0	False
136.724	1.0	137.515	0.1	2.136	True	71.0	Magnitude	n/a	twobytwo	71.0	0.691	orange	2.0	task_switch	magnitude	switch	stim	poldrack-single-stim	s548	0	False
138.964	1.0	139.995	0.1	2.0	True	89.0	Magnitude	stay	twobytwo	89.0	0.931	orange	6.0	cue_stay	magnitude	stay	stim	poldrack-single-stim	s548	0	False
141.068	1.0	141.97	0.1	2.136	False	71.0	High-Low	switch	twobytwo	89.0	0.802	blue	1.0	cue_switch	magnitude	stay	stim	poldrack-single-stim	s548	0	False
143.31	1.0	144.068	0.1	2.816	True	71.0	Color	n/a	twobytwo	71.0	0.658	orange	3.0	task_switch	color	switch	stim	poldrack-single-stim	s548	0	False
146.23	1.0	147.077	0.1	2.136	False	71.0	Color	stay	twobytwo	89.0	0.747	orange	7.0	cue_stay	color	stay	stim	poldrack-single-stim	s548	0	False
149.271	1.0	150.752	0.9	2.0	False	71.0	Color	stay	twobytwo	89.0	0.581	orange	7.0	cue_stay	color	stay	stim	poldrack-single-stim	s548	0	False
151.376	1.0	152.482	0.1	2.0	False	71.0	High-Low	n/a	twobytwo	89.0	1.006	orange	3.0	task_switch	magnitude	switch	stim	poldrack-single-stim	s548	0	False
153.481	1.0	154.746	0.1	2.272	False	71.0	High-Low	stay	twobytwo	89.0	1.165	blue	2.0	cue_stay	magnitude	stay	stim	poldrack-single-stim	s548	0	False
156.658	1.0	158.315	0.9	2.0	False	89.0	Orange-Blue	n/a	twobytwo	71.0	0.757	blue	2.0	task_switch	color	switch	stim	poldrack-single-stim	s548	0	False
158.763	1.0	159.902	0.1	2.0	True	89.0	Magnitude	n/a	twobytwo	89.0	1.039	blue	6.0	task_switch	magnitude	switch	stim	poldrack-single-stim	s548	0	False
161.668	1.0	162.987	0.9	2.0	True	71.0	Orange-Blue	n/a	twobytwo	71.0	0.419	orange	1.0	task_switch	color	switch	stim	poldrack-single-stim	s548	0	False
163.772	1.0	165.019	0.1	2.408	False	71.0	High-Low	n/a	twobytwo	89.0	1.147	orange	3.0	task_switch	magnitude	switch	stim	poldrack-single-stim	s548	0	False
167.085	1.0	168.574	0.9	2.272	False	89.0	High-Low	stay	twobytwo	71.0	0.589	orange	6.0	cue_stay	magnitude	stay	stim	poldrack-single-stim	s548	0	False
169.462	1.0	170.502	0.1	2.136	True	71.0	Orange-Blue	n/a	twobytwo	71.0	0.94	orange	9.0	task_switch	color	switch	stim	poldrack-single-stim	s548	0	False
171.704	1.0	172.878	0.1	2.0	True	89.0	Color	switch	twobytwo	89.0	1.074	blue	4.0	cue_switch	color	stay	stim	poldrack-single-stim	s548	0	False
174.609	1.0	175.987	0.9	2.0	False	71.0	High-Low	n/a	twobytwo	89.0	0.478	orange	3.0	task_switch	magnitude	switch	stim	poldrack-single-stim	s548	0	False
176.715	1.0	177.624	0.1	2.136	True	89.0	Color	n/a	twobytwo	89.0	0.809	blue	9.0	task_switch	color	switch	stim	poldrack-single-stim	s548	0	False
179.756	1.0	181.201	0.9	2.0	True	71.0	Magnitude	n/a	twobytwo	71.0	0.545	blue	3.0	task_switch	magnitude	switch	stim	poldrack-single-stim	s548	0	False
181.861	1.0	182.68	0.1	2.136	True	89.0	Color	n/a	twobytwo	89.0	0.719	blue	7.0	task_switch	color	switch	stim	poldrack-single-stim	s548	0	False
184.903	1.0	186.271	0.9	2.408	True	89.0	Color	stay	twobytwo	89.0	0.468	blue	7.0	cue_stay	color	stay	stim	poldrack-single-stim	s548	0	False
187.415	1.0	188.419	0.1	2.136	True	89.0	High-Low	n/a	twobytwo	89.0	0.904	orange	9.0	task_switch	magnitude	switch	stim	poldrack-single-stim	s548	0	False
190.455	1.0	191.766	0.9	2.0	True	71.0	Color	n/a	twobytwo	71.0	0.411	orange	3.0	task_switch	color	switch	stim	poldrack-single-stim	s548	0	False
193.36	1.0	194.95	0.9	2.136	True	89.0	Magnitude	n/a	twobytwo	89.0	0.69	orange	6.0	task_switch	magnitude	switch	stim	poldrack-single-stim	s548	0	False
196.401	1.0	197.992	0.9	2.272	False	71.0	Magnitude	stay	twobytwo	89.0	0.691	blue	1.0	cue_stay	magnitude	stay	stim	poldrack-single-stim	s548	0	False
199.578	1.0	201.091	0.9	2.0	False	71.0	Color	n/a	twobytwo	89.0	0.613	orange	7.0	task_switch	color	switch	stim	poldrack-single-stim	s548	0	False
201.682	1.0	202.88	0.1	2.408	True	71.0	High-Low	n/a	twobytwo	71.0	1.098	orange	3.0	task_switch	magnitude	switch	stim	poldrack-single-stim	s548	0	False
204.995	1.0	206.45	0.9	2.0	True	89.0	Magnitude	switch	twobytwo	89.0	0.555	blue	9.0	cue_switch	magnitude	stay	stim	poldrack-single-stim	s548	0	False
207.101	1.0	208.345	0.1	2.136	False	89.0	Orange-Blue	n/a	twobytwo	71.0	1.144	blue	6.0	task_switch	color	switch	stim	poldrack-single-stim	s548	0	False
209.341	1.0	210.124	0.1	2.408	True	71.0	Magnitude	n/a	twobytwo	71.0	0.683	orange	1.0	task_switch	magnitude	switch	stim	poldrack-single-stim	s548	0	False
211.853	1.0	212.623	0.1	2.136	False	89.0	Orange-Blue	n/a	twobytwo	71.0	0.67	blue	2.0	task_switch	color	switch	stim	poldrack-single-stim	s548	0	False
214.093	1.0	214.854	0.1	2.408	False	71.0	High-Low	n/a	twobytwo	89.0	0.661	blue	3.0	task_switch	magnitude	switch	stim	poldrack-single-stim	s548	0	False
217.405	1.0	218.932	0.9	2.136	False	71.0	Color	n/a	twobytwo	89.0	0.627	orange	9.0	task_switch	color	switch	stim	poldrack-single-stim	s548	0	False
233.956	1.0	235.805	0.9	2.0	False	89.0	Orange-Blue	n/a	twobytwo	71.0	0.949	blue	1.0	task_switch	color	switch	stim	poldrack-single-stim	s548	1	False
236.061	1.0	236.876	0.1	2.272	False	71.0	Orange-Blue	stay	twobytwo	89.0	0.715	orange	9.0	cue_stay	color	stay	stim	poldrack-single-stim	s548	0	False
239.238	1.0	240.668	0.9	2.0	False	71.0	Color	switch	twobytwo	89.0	0.53	orange	9.0	cue_switch	color	stay	stim	poldrack-single-stim	s548	0	False
242.144	1.0	243.485	0.9	2.272	True	71.0	Orange-Blue	switch	twobytwo	71.0	0.441	orange	4.0	cue_switch	color	stay	stim	poldrack-single-stim	s548	0	False
244.52	1.0	245.458	0.1	2.272	False	71.0	Color	switch	twobytwo	89.0	0.838	orange	9.0	cue_switch	color	stay	stim	poldrack-single-stim	s548	0	False
247.697	1.0	249.077	0.9	2.952	False	71.0	High-Low	n/a	twobytwo	89.0	0.48	blue	1.0	task_switch	magnitude	switch	stim	poldrack-single-stim	s548	0	False
250.755	1.0	251.678	0.1	2.68	True	89.0	High-Low	stay	twobytwo	89.0	0.823	orange	6.0	cue_stay	magnitude	stay	stim	poldrack-single-stim	s548	0	False
253.541	1.0	254.652	0.1	2.136	False	89.0	Color	n/a	twobytwo	71.0	1.011	blue	3.0	task_switch	color	switch	stim	poldrack-single-stim	s548	0	False
255.782	1.0	256.759	0.1	2.272	False	89.0	Orange-Blue	switch	twobytwo	71.0	0.877	blue	3.0	cue_switch	color	stay	stim	poldrack-single-stim	s548	0	False
258.16	1.0	258.912	0.1	2.272	True	89.0	Color	switch	twobytwo	89.0	0.652	blue	6.0	cue_switch	color	stay	stim	poldrack-single-stim	s548	0	False
260.536	1.0	261.38	0.1	2.136	True	71.0	Color	stay	twobytwo	71.0	0.744	orange	1.0	cue_stay	color	stay	stim	poldrack-single-stim	s548	0	False
263.577	1.0	265.109	0.9	2.408	False	71.0	High-Low	n/a	twobytwo	89.0	0.632	blue	3.0	task_switch	magnitude	switch	stim	poldrack-single-stim	s548	0	False
266.889	1.0	268.287	0.9	2.136	True	89.0	Color	n/a	twobytwo	89.0	0.498	blue	7.0	task_switch	color	switch	stim	poldrack-single-stim	s548	0	False
269.129	1.0	270.496	0.1	2.136	False	89.0	Orange-Blue	switch	twobytwo	71.0	1.267	blue	2.0	cue_switch	color	stay	stim	poldrack-single-stim	s548	0	False
272.17	1.0	273.632	0.9	2.0	True	89.0	Magnitude	n/a	twobytwo	89.0	0.562	orange	7.0	task_switch	magnitude	switch	stim	poldrack-single-stim	s548	0	False
275.075	1.0	276.554	0.9	2.0	True	71.0	Magnitude	stay	twobytwo	71.0	0.579	orange	2.0	cue_stay	magnitude	stay	stim	poldrack-single-stim	s548	0	False
277.979	1.0	279.91	0.9	2.0	True	89.0	Color	n/a	twobytwo	89.0	1.031	blue	4.0	task_switch	color	switch	stim	poldrack-single-stim	s548	0	False
280.085	1.0	281.545	0.1	2.0	True	89.0	Magnitude	n/a	twobytwo	89.0	1.36	blue	8.0	task_switch	magnitude	switch	stim	poldrack-single-stim	s548	0	False
282.99	1.0	284.351	0.9	2.0	True	71.0	Color	n/a	twobytwo	71.0	0.461	orange	4.0	task_switch	color	switch	stim	poldrack-single-stim	s548	0	False
285.094	1.0	286.05	0.1	2.272	True	89.0	High-Low	n/a	twobytwo	89.0	0.856	orange	8.0	task_switch	magnitude	switch	stim	poldrack-single-stim	s548	0	False
288.271	1.0	289.795	0.9	2.408	True	89.0	High-Low	stay	twobytwo	89.0	0.624	blue	7.0	cue_stay	magnitude	stay	stim	poldrack-single-stim	s548	0	False
290.784	1.0	291.512	0.1	2.0	False	71.0	High-Low	stay	twobytwo	89.0	0.628	blue	2.0	cue_stay	magnitude	stay	stim	poldrack-single-stim	s548	0	False
293.689	1.0	295.315	0.9	2.136	False	89.0	Color	n/a	twobytwo	71.0	0.726	blue	1.0	task_switch	color	switch	stim	poldrack-single-stim	s548	0	False
296.73	1.0	298.296	0.9	2.0	True	89.0	Orange-Blue	switch	twobytwo	89.0	0.666	blue	6.0	cue_switch	color	stay	stim	poldrack-single-stim	s548	0	False
299.636	1.0	301.256	0.9	2.136	False	89.0	Orange-Blue	stay	twobytwo	71.0	0.72	blue	3.0	cue_stay	color	stay	stim	poldrack-single-stim	s548	0	False
302.677	1.0	304.26	0.9	2.544	True	89.0	Orange-Blue	stay	twobytwo	89.0	0.683	blue	8.0	cue_stay	color	stay	stim	poldrack-single-stim	s548	0	False
306.126	1.0	307.543	0.9	2.68	False	71.0	Magnitude	n/a	twobytwo	89.0	0.517	blue	4.0	task_switch	magnitude	switch	stim	poldrack-single-stim	s548	0	False
309.71	1.0	311.252	0.9	3.088	False	89.0	Color	n/a	twobytwo	71.0	0.642	blue	2.0	task_switch	color	switch	stim	poldrack-single-stim	s548	0	False
313.703	1.0	315.023	0.9	2.136	True	71.0	Color	stay	twobytwo	71.0	0.42	orange	6.0	cue_stay	color	stay	stim	poldrack-single-stim	s548	0	False
315.943	1.0	317.857	0.1	2.544	False	71.0	Color	stay	twobytwo	89.0	1.814	orange	7.0	cue_stay	color	stay	stim	poldrack-single-stim	s548	0	False
319.392	1.0	320.865	0.9	2.0	False	71.0	Magnitude	n/a	twobytwo	89.0	0.573	blue	2.0	task_switch	magnitude	switch	stim	poldrack-single-stim	s548	0	False
321.498	1.0	322.306	0.1	2.136	True	71.0	High-Low	switch	twobytwo	71.0	0.708	orange	1.0	cue_switch	magnitude	stay	stim	poldrack-single-stim	s548	0	False
323.737	1.0	325.265	0.1	2.0	True	89.0	Orange-Blue	n/a	twobytwo	89.0	1.428	blue	6.0	task_switch	color	switch	stim	poldrack-single-stim	s548	0	False
326.642	1.0	328.189	0.9	2.408	False	71.0	High-Low	n/a	twobytwo	89.0	0.647	blue	2.0	task_switch	magnitude	switch	stim	poldrack-single-stim	s548	0	False
329.155	1.0	330.434	0.1	2.0	True	89.0	Color	n/a	twobytwo	89.0	1.179	blue	2.0	task_switch	color	switch	stim	poldrack-single-stim	s548	0	False
331.261	1.0	332.545	0.1	2.0	True	89.0	Color	stay	twobytwo	89.0	1.184	blue	9.0	cue_stay	color	stay	stim	poldrack-single-stim	s548	0	False
334.166	1.0	336.169	0.9	2.0	True	71.0	High-Low	n/a	twobytwo	71.0	1.103	orange	2.0	task_switch	magnitude	switch	stim	poldrack-single-stim	s548	0	False
336.27	1.0	337.696	0.1	2.68	True	71.0	High-Low	stay	twobytwo	71.0	1.326	orange	2.0	cue_stay	magnitude	stay	stim	poldrack-single-stim	s548	0	False
339.055	1.0	340.073	0.1	2.272	True	89.0	Magnitude	switch	twobytwo	89.0	0.918	blue	9.0	cue_switch	magnitude	stay	stim	poldrack-single-stim	s548	0	False
341.434	1.0	342.474	0.1	2.408	False	89.0	Orange-Blue	n/a	twobytwo	71.0	0.94	blue	2.0	task_switch	color	switch	stim	poldrack-single-stim	s548	0	False
344.746	1.0	346.615	0.9	3.224	False	71.0	High-Low	n/a	twobytwo	89.0	0.969	orange	1.0	task_switch	magnitude	switch	stim	poldrack-single-stim	s548	0	False
348.878	1.0	350.319	0.9	2.408	False	89.0	Orange-Blue	n/a	twobytwo	71.0	0.541	blue	4.0	task_switch	color	switch	stim	poldrack-single-stim	s548	0	False
352.191	1.0	353.714	0.9	2.816	True	71.0	Orange-Blue	stay	twobytwo	71.0	0.623	orange	2.0	cue_stay	color	stay	stim	poldrack-single-stim	s548	0	False
355.913	1.0	357.385	0.9	2.408	True	89.0	High-Low	n/a	twobytwo	89.0	0.572	blue	6.0	task_switch	magnitude	switch	stim	poldrack-single-stim	s548	0	False
358.426	1.0	359.15	0.1	2.136	True	89.0	High-Low	stay	twobytwo	89.0	0.624	blue	6.0	cue_stay	magnitude	stay	stim	poldrack-single-stim	s548	0	False
360.667	1.0	362.391	0.1	2.136	True	89.0	Color	n/a	twobytwo	89.0	1.624	blue	1.0	task_switch	color	switch	stim	poldrack-single-stim	s548	0	False
363.706	1.0	365.391	0.9	2.0	True	89.0	Magnitude	n/a	twobytwo	89.0	0.785	orange	6.0	task_switch	magnitude	switch	stim	poldrack-single-stim	s548	0	False
366.612	1.0	368.439	0.9	2.0	True	89.0	Color	n/a	twobytwo	89.0	0.927	blue	1.0	task_switch	color	switch	stim	poldrack-single-stim	s548	0	False
368.717	1.0	369.668	0.1	2.272	False	71.0	High-Low	n/a	twobytwo	89.0	0.851	orange	2.0	task_switch	magnitude	switch	stim	poldrack-single-stim	s548	0	False
371.093	1.0	371.971	0.1	2.408	True	89.0	High-Low	stay	twobytwo	89.0	0.778	orange	6.0	cue_stay	magnitude	stay	stim	poldrack-single-stim	s548	0	False
373.606	1.0	374.837	0.1	2.0	False	71.0	Magnitude	switch	twobytwo	89.0	1.131	blue	1.0	cue_switch	magnitude	stay	stim	poldrack-single-stim	s548	0	False
375.712	1.0	376.408	0.1	2.136	True	71.0	Orange-Blue	n/a	twobytwo	71.0	0.596	orange	3.0	task_switch	color	switch	stim	poldrack-single-stim	s548	0	False
377.952	1.0	378.871	0.1	2.0	False	71.0	Orange-Blue	stay	twobytwo	89.0	0.819	orange	7.0	cue_stay	color	stay	stim	poldrack-single-stim	s548	0	False
380.858	1.0	382.324	0.9	2.408	False	71.0	Orange-Blue	stay	twobytwo	89.0	0.566	orange	7.0	cue_stay	color	stay	stim	poldrack-single-stim	s548	0	False
383.371	1.0	384.477	0.1	2.272	False	71.0	High-Low	n/a	twobytwo	89.0	1.006	orange	3.0	task_switch	magnitude	switch	stim	poldrack-single-stim	s548	0	False
385.747	1.0	386.943	0.1	2.0	False	71.0	High-Low	stay	twobytwo	89.0	1.096	blue	2.0	cue_stay	magnitude	stay	stim	poldrack-single-stim	s548	0	False
388.653	1.0	390.306	0.9	2.272	False	89.0	Orange-Blue	n/a	twobytwo	71.0	0.753	blue	2.0	task_switch	color	switch	stim	poldrack-single-stim	s548	0	False
391.029	1.0	392.269	0.1	2.0	True	89.0	Magnitude	n/a	twobytwo	89.0	1.14	blue	6.0	task_switch	magnitude	switch	stim	poldrack-single-stim	s548	0	False
393.934	1.0	395.419	0.9	2.0	True	71.0	Orange-Blue	n/a	twobytwo	71.0	0.585	orange	1.0	task_switch	color	switch	stim	poldrack-single-stim	s548	0	False
396.04	1.0	397.375	0.1	2.272	True	71.0	Magnitude	n/a	twobytwo	71.0	1.235	orange	3.0	task_switch	magnitude	switch	stim	poldrack-single-stim	s548	0	False
399.217	1.0	400.77	0.9	2.136	True	89.0	Magnitude	stay	twobytwo	89.0	0.653	orange	6.0	cue_stay	magnitude	stay	stim	poldrack-single-stim	s548	0	False
401.457	1.0	402.566	0.1	2.0	False	71.0	Color	n/a	twobytwo	89.0	1.009	orange	9.0	task_switch	color	switch	stim	poldrack-single-stim	s548	0	False
403.562	1.0	404.268	0.1	2.0	False	89.0	Orange-Blue	switch	twobytwo	71.0	0.606	blue	4.0	cue_switch	color	stay	stim	poldrack-single-stim	s548	0	False
406.468	1.0	409.24	0.9	2.0	True	71.0	Magnitude	n/a	twobytwo	71.0	1.872	orange	3.0	task_switch	magnitude	switch	stim	poldrack-single-stim	s548	0	False
408.572	1.0	409.794	0.1	2.0	True	89.0	Color	n/a	twobytwo	89.0	1.122	blue	9.0	task_switch	color	switch	stim	poldrack-single-stim	s548	0	False
411.478	1.0	412.882	0.9	2.0	False	71.0	Magnitude	n/a	twobytwo	89.0	0.504	blue	3.0	task_switch	magnitude	switch	stim	poldrack-single-stim	s548	0	False
413.585	1.0	414.481	0.1	2.136	False	89.0	Orange-Blue	n/a	twobytwo	71.0	0.796	blue	7.0	task_switch	color	switch	stim	poldrack-single-stim	s548	0	False
416.625	1.0	418.122	0.9	2.0	True	89.0	Orange-Blue	stay	twobytwo	89.0	0.597	blue	7.0	cue_stay	color	stay	stim	poldrack-single-stim	s548	0	False
418.729	1.0	419.596	0.1	2.0	True	89.0	High-Low	n/a	twobytwo	89.0	0.767	orange	9.0	task_switch	magnitude	switch	stim	poldrack-single-stim	s548	0	False
421.634	1.0	423.207	0.9	2.136	True	71.0	Color	n/a	twobytwo	71.0	0.673	orange	3.0	task_switch	color	switch	stim	poldrack-single-stim	s548	0	False
424.675	1.0	426.22	0.9	2.0	True	89.0	Magnitude	n/a	twobytwo	89.0	0.645	orange	6.0	task_switch	magnitude	switch	stim	poldrack-single-stim	s548	0	False
427.58	1.0	429.385	0.9	2.136	True	71.0	Magnitude	stay	twobytwo	71.0	0.905	blue	1.0	cue_stay	magnitude	stay	stim	poldrack-single-stim	s548	0	False
430.62	1.0	432.156	0.9	2.68	False	71.0	Orange-Blue	n/a	twobytwo	89.0	0.636	orange	7.0	task_switch	color	switch	stim	poldrack-single-stim	s548	0	False
433.404	1.0	434.735	0.1	2.272	False	71.0	High-Low	n/a	twobytwo	89.0	1.231	orange	3.0	task_switch	magnitude	switch	stim	poldrack-single-stim	s548	0	False
436.581	1.0	438.129	0.9	2.136	False	89.0	Magnitude	switch	twobytwo	71.0	0.648	blue	9.0	cue_switch	magnitude	stay	stim	poldrack-single-stim	s548	0	False
438.822	1.0	440.04	0.1	2.0	True	89.0	Color	n/a	twobytwo	89.0	1.118	blue	6.0	task_switch	color	switch	stim	poldrack-single-stim	s548	0	False
440.928	1.0	442.089	0.1	2.136	False	71.0	High-Low	n/a	twobytwo	89.0	1.061	orange	1.0	task_switch	magnitude	switch	stim	poldrack-single-stim	s548	0	False
443.169	1.0	444.018	0.1	2.68	False	89.0	Color	n/a	twobytwo	71.0	0.749	blue	2.0	task_switch	color	switch	stim	poldrack-single-stim	s548	0	False
445.954	1.0	446.947	0.1	2.272	False	71.0	Magnitude	n/a	twobytwo	89.0	0.893	blue	3.0	task_switch	magnitude	switch	stim	poldrack-single-stim	s548	0	False
449.13	1.0	450.648	0.9	2.0	False	71.0	Orange-Blue	n/a	twobytwo	89.0	0.618	orange	9.0	task_switch	color	switch	stim	poldrack-single-stim	s548	0	False
465.543	1.0	467.048	0.9	2.0	False	71.0	Magnitude	n/a	twobytwo	89.0	0.605	blue	1.0	task_switch	magnitude	switch	stim	poldrack-single-stim	s548	1	False
467.649	1.0	468.639	0.1	2.136	False	89.0	Magnitude	stay	twobytwo	71.0	0.89	orange	9.0	cue_stay	magnitude	stay	stim	poldrack-single-stim	s548	0	False
470.69	1.0	472.115	0.9	2.0	True	89.0	High-Low	switch	twobytwo	89.0	0.525	orange	9.0	cue_switch	magnitude	stay	stim	poldrack-single-stim	s548	0	False
473.595	1.0	475.474	0.9	2.0	True	71.0	Magnitude	switch	twobytwo	71.0	0.979	orange	4.0	cue_switch	magnitude	stay	stim	poldrack-single-stim	s548	0	False
475.7	1.0	476.748	0.1	2.0	True	89.0	High-Low	switch	twobytwo	89.0	0.948	orange	9.0	cue_switch	magnitude	stay	stim	poldrack-single-stim	s548	0	False
478.605	1.0	480.127	0.9	2.272	False	89.0	Orange-Blue	n/a	twobytwo	71.0	0.622	blue	1.0	task_switch	color	switch	stim	poldrack-single-stim	s548	0	False
480.983	1.0	481.847	0.1	2.408	False	71.0	Orange-Blue	stay	twobytwo	89.0	0.764	orange	6.0	cue_stay	color	stay	stim	poldrack-single-stim	s548	0	False
483.497	1.0	484.662	0.1	2.0	False	71.0	High-Low	n/a	twobytwo	89.0	1.065	blue	3.0	task_switch	magnitude	switch	stim	poldrack-single-stim	s548	0	False
485.602	1.0	486.913	0.1	2.0	False	71.0	Magnitude	switch	twobytwo	89.0	1.211	blue	3.0	cue_switch	magnitude	stay	stim	poldrack-single-stim	s548	0	False
487.707	1.0	489.057	0.1	2.0	True	89.0	High-Low	switch	twobytwo	89.0	1.25	blue	6.0	cue_switch	magnitude	stay	stim	poldrack-single-stim	s548	0	False
489.812	1.0	490.704	0.1	2.272	True	71.0	High-Low	stay	twobytwo	71.0	0.792	orange	1.0	cue_stay	magnitude	stay	stim	poldrack-single-stim	s548	0	False
492.989	1.0	494.386	0.9	2.136	False	89.0	Orange-Blue	n/a	twobytwo	71.0	0.497	blue	3.0	task_switch	color	switch	stim	poldrack-single-stim	s548	0	False
496.03	1.0	497.607	0.9	2.0	True	89.0	Magnitude	n/a	twobytwo	89.0	0.677	blue	7.0	task_switch	magnitude	switch	stim	poldrack-single-stim	s548	0	False
498.134	1.0	499.298	0.1	2.544	True	71.0	High-Low	switch	twobytwo	71.0	1.064	blue	2.0	cue_switch	magnitude	stay	stim	poldrack-single-stim	s548	0	False
501.582	1.0	503.013	0.9	2.272	False	71.0	Color	n/a	twobytwo	89.0	0.531	orange	7.0	task_switch	color	switch	stim	poldrack-single-stim	s548	0	False
504.759	1.0	506.288	0.9	2.272	True	71.0	Color	stay	twobytwo	71.0	0.629	orange	2.0	cue_stay	color	stay	stim	poldrack-single-stim	s548	0	False
507.937	1.0	509.915	0.9	2.0	True	71.0	Magnitude	n/a	twobytwo	71.0	1.078	blue	4.0	task_switch	magnitude	switch	stim	poldrack-single-stim	s548	0	False
510.042	1.0	511.439	0.1	2.0	True	89.0	Color	n/a	twobytwo	89.0	1.297	blue	8.0	task_switch	color	switch	stim	poldrack-single-stim	s548	0	False
512.947	1.0	514.559	0.9	2.136	False	71.0	High-Low	n/a	twobytwo	89.0	0.712	orange	4.0	task_switch	magnitude	switch	stim	poldrack-single-stim	s548	0	False
515.187	1.0	516.132	0.1	2.0	False	71.0	Color	n/a	twobytwo	89.0	0.845	orange	8.0	task_switch	color	switch	stim	poldrack-single-stim	s548	0	False
518.094	1.0	519.742	0.9	2.136	True	89.0	Color	stay	twobytwo	89.0	0.748	blue	7.0	cue_stay	color	stay	stim	poldrack-single-stim	s548	0	False
520.334	1.0	521.431	0.1	2.272	False	89.0	Color	stay	twobytwo	71.0	0.997	blue	2.0	cue_stay	color	stay	stim	poldrack-single-stim	s548	0	False
523.511	1.0	525.053	0.9	2.136	False	71.0	High-Low	n/a	twobytwo	89.0	0.642	blue	1.0	task_switch	magnitude	switch	stim	poldrack-single-stim	s548	0	False
526.553	1.0	527.942	0.9	2.272	True	89.0	Magnitude	switch	twobytwo	89.0	0.489	blue	6.0	cue_switch	magnitude	stay	stim	poldrack-single-stim	s548	0	False
529.731	1.0	531.179	0.9	2.0	True	71.0	Magnitude	stay	twobytwo	71.0	0.548	blue	3.0	cue_stay	magnitude	stay	stim	poldrack-single-stim	s548	0	False
532.636	1.0	534.631	0.9	2.816	True	89.0	Magnitude	stay	twobytwo	89.0	1.095	blue	8.0	cue_stay	magnitude	stay	stim	poldrack-single-stim	s548	0	False
536.356	1.0	537.85	0.9	2.408	False	89.0	Orange-Blue	n/a	twobytwo	71.0	0.594	blue	4.0	task_switch	color	switch	stim	poldrack-single-stim	s548	0	False
539.669	1.0	541.429	0.9	2.0	True	71.0	Magnitude	n/a	twobytwo	71.0	0.86	blue	2.0	task_switch	magnitude	switch	stim	poldrack-single-stim	s548	0	False
542.574	1.0	544.226	0.9	2.544	True	89.0	Magnitude	stay	twobytwo	89.0	0.752	orange	6.0	cue_stay	magnitude	stay	stim	poldrack-single-stim	s548	0	False
545.224	1.0	545.963	0.1	2.136	True	89.0	Magnitude	stay	twobytwo	89.0	0.639	orange	7.0	cue_stay	magnitude	stay	stim	poldrack-single-stim	s548	0	False
548.265	1.0	549.676	0.9	2.0	False	89.0	Color	n/a	twobytwo	71.0	0.511	blue	2.0	task_switch	color	switch	stim	poldrack-single-stim	s548	0	False
550.37	1.0	551.503	0.1	2.0	False	71.0	Orange-Blue	switch	twobytwo	89.0	1.033	orange	1.0	cue_switch	color	stay	stim	poldrack-single-stim	s548	0	False
552.474	1.0	553.752	0.1	2.136	True	89.0	High-Low	n/a	twobytwo	89.0	1.178	blue	6.0	task_switch	magnitude	switch	stim	poldrack-single-stim	s548	0	False
555.514	1.0	556.872	0.9	2.136	False	89.0	Orange-Blue	n/a	twobytwo	71.0	0.458	blue	2.0	task_switch	color	switch	stim	poldrack-single-stim	s548	0	False
557.755	1.0	559.001	0.1	2.272	False	71.0	High-Low	n/a	twobytwo	89.0	1.146	blue	2.0	task_switch	magnitude	switch	stim	poldrack-single-stim	s548	0	False
560.132	1.0	561.06	0.1	3.224	True	89.0	High-Low	stay	twobytwo	89.0	0.828	blue	9.0	cue_stay	magnitude	stay	stim	poldrack-single-stim	s548	0	False
564.261	1.0	565.841	0.9	2.0	True	71.0	Color	n/a	twobytwo	71.0	0.68	orange	2.0	task_switch	color	switch	stim	poldrack-single-stim	s548	0	False
566.365	1.0	567.007	0.1	2.0	True	71.0	Color	stay	twobytwo	71.0	0.542	orange	2.0	cue_stay	color	stay	stim	poldrack-single-stim	s548	0	False
568.469	1.0	569.496	0.1	2.272	True	89.0	Orange-Blue	switch	twobytwo	89.0	0.927	blue	9.0	cue_switch	color	stay	stim	poldrack-single-stim	s548	0	False
570.847	1.0	571.799	0.1	2.136	False	71.0	High-Low	n/a	twobytwo	89.0	0.852	blue	2.0	task_switch	magnitude	switch	stim	poldrack-single-stim	s548	0	False
573.888	1.0	575.392	0.9	2.0	True	71.0	Orange-Blue	n/a	twobytwo	71.0	0.604	orange	1.0	task_switch	color	switch	stim	poldrack-single-stim	s548	0	False
576.792	1.0	578.344	0.9	2.0	True	71.0	High-Low	n/a	twobytwo	71.0	0.652	blue	4.0	task_switch	magnitude	switch	stim	poldrack-single-stim	s548	0	False
579.697	1.0	581.298	0.9	2.0	True	71.0	High-Low	stay	twobytwo	71.0	0.701	orange	2.0	cue_stay	magnitude	stay	stim	poldrack-single-stim	s548	0	False
582.602	1.0	583.914	0.9	2.68	False	89.0	Orange-Blue	n/a	twobytwo	71.0	0.412	blue	6.0	task_switch	color	switch	stim	poldrack-single-stim	s548	0	False
585.386	1.0	586.276	0.1	2.0	True	89.0	Orange-Blue	stay	twobytwo	89.0	0.79	blue	6.0	cue_stay	color	stay	stim	poldrack-single-stim	s548	0	False
587.49	1.0	588.418	0.1	2.272	False	71.0	High-Low	n/a	twobytwo	89.0	0.828	blue	1.0	task_switch	magnitude	switch	stim	poldrack-single-stim	s548	0	False
590.668	1.0	592.18	0.9	2.0	False	71.0	Color	n/a	twobytwo	89.0	0.612	orange	6.0	task_switch	color	switch	stim	poldrack-single-stim	s548	0	False
593.573	1.0	595.318	0.9	2.272	True	71.0	Magnitude	n/a	twobytwo	71.0	0.845	blue	1.0	task_switch	magnitude	switch	stim	poldrack-single-stim	s548	0	False
595.951	1.0	596.903	0.1	2.952	True	71.0	Orange-Blue	n/a	twobytwo	71.0	0.852	orange	2.0	task_switch	color	switch	stim	poldrack-single-stim	s548	0	False
599.006	1.0	599.953	0.1	2.0	False	71.0	Orange-Blue	stay	twobytwo	89.0	0.847	orange	6.0	cue_stay	color	stay	stim	poldrack-single-stim	s548	0	False
601.112	1.0	602.255	0.1	2.0	True	89.0	Color	switch	twobytwo	89.0	1.043	blue	1.0	cue_switch	color	stay	stim	poldrack-single-stim	s548	0	False
603.216	1.0	604.524	0.1	2.0	True	71.0	Magnitude	n/a	twobytwo	71.0	1.208	orange	3.0	task_switch	magnitude	switch	stim	poldrack-single-stim	s548	0	False
605.321	1.0	606.252	0.1	2.0	True	89.0	Magnitude	stay	twobytwo	89.0	0.831	orange	7.0	cue_stay	magnitude	stay	stim	poldrack-single-stim	s548	0	False
608.226	1.0	609.83	0.9	2.136	True	89.0	Magnitude	stay	twobytwo	89.0	0.704	orange	7.0	cue_stay	magnitude	stay	stim	poldrack-single-stim	s548	0	False
610.467	1.0	611.591	0.1	2.0	True	71.0	Color	n/a	twobytwo	71.0	1.024	orange	3.0	task_switch	color	switch	stim	poldrack-single-stim	s548	0	False
612.573	1.0	614.098	0.1	2.0	True	89.0	Color	stay	twobytwo	89.0	1.425	blue	2.0	cue_stay	color	stay	stim	poldrack-single-stim	s548	0	False
615.477	1.0	617.599	0.9	2.0	False	71.0	Magnitude	n/a	twobytwo	89.0	1.222	blue	2.0	task_switch	magnitude	switch	stim	poldrack-single-stim	s548	0	False
617.582	1.0	618.826	0.1	2.272	True	89.0	Orange-Blue	n/a	twobytwo	89.0	1.144	blue	6.0	task_switch	color	switch	stim	poldrack-single-stim	s548	0	False
620.758	1.0	622.537	0.9	2.136	True	71.0	Magnitude	n/a	twobytwo	71.0	0.879	orange	1.0	task_switch	magnitude	switch	stim	poldrack-single-stim	s548	0	False
622.999	1.0	623.86	0.1	2.0	True	71.0	Color	n/a	twobytwo	71.0	0.761	orange	3.0	task_switch	color	switch	stim	poldrack-single-stim	s548	0	False
625.904	1.0	627.411	0.9	2.136	False	71.0	Color	stay	twobytwo	89.0	0.607	orange	6.0	cue_stay	color	stay	stim	poldrack-single-stim	s548	0	False
628.144	1.0	629.542	0.1	2.816	False	89.0	High-Low	n/a	twobytwo	71.0	1.298	orange	9.0	task_switch	magnitude	switch	stim	poldrack-single-stim	s548	0	False
631.066	1.0	632.128	0.1	2.408	False	71.0	Magnitude	switch	twobytwo	89.0	0.962	blue	4.0	cue_switch	magnitude	stay	stim	poldrack-single-stim	s548	0	False
634.379	1.0	635.682	0.9	2.0	True	71.0	Orange-Blue	n/a	twobytwo	71.0	0.403	orange	3.0	task_switch	color	switch	stim	poldrack-single-stim	s548	0	False
636.484	1.0	637.415	0.1	2.136	True	89.0	High-Low	n/a	twobytwo	89.0	0.831	blue	9.0	task_switch	magnitude	switch	stim	poldrack-single-stim	s548	0	False
639.525	1.0	641.224	0.9	2.136	True	89.0	Color	n/a	twobytwo	89.0	0.799	blue	3.0	task_switch	color	switch	stim	poldrack-single-stim	s548	0	False
641.766	1.0	642.985	0.1	2.136	True	89.0	Magnitude	n/a	twobytwo	89.0	1.119	blue	7.0	task_switch	magnitude	switch	stim	poldrack-single-stim	s548	0	False
644.807	1.0	646.175	0.9	2.544	True	89.0	Magnitude	stay	twobytwo	89.0	0.468	blue	7.0	cue_stay	magnitude	stay	stim	poldrack-single-stim	s548	0	False
647.457	1.0	648.489	0.1	2.136	False	71.0	Color	n/a	twobytwo	89.0	0.932	orange	9.0	task_switch	color	switch	stim	poldrack-single-stim	s548	0	False
650.498	1.0	652.076	0.9	2.0	True	71.0	Magnitude	n/a	twobytwo	71.0	0.678	orange	3.0	task_switch	magnitude	switch	stim	poldrack-single-stim	s548	0	False
653.404	1.0	655.03	0.9	2.0	False	71.0	Color	n/a	twobytwo	89.0	0.726	orange	6.0	task_switch	color	switch	stim	poldrack-single-stim	s548	0	False
656.31	1.0	657.869	0.9	2.0	False	89.0	Color	stay	twobytwo	71.0	0.659	blue	1.0	cue_stay	color	stay	stim	poldrack-single-stim	s548	0	False
659.215	1.0	660.824	0.9	2.0	True	89.0	Magnitude	n/a	twobytwo	89.0	0.709	orange	7.0	task_switch	magnitude	switch	stim	poldrack-single-stim	s548	0	False
661.319	1.0	662.57	0.1	2.136	True	71.0	Color	n/a	twobytwo	71.0	1.151	orange	3.0	task_switch	color	switch	stim	poldrack-single-stim	s548	0	False
664.359	1.0	665.872	0.9	2.0	True	89.0	Orange-Blue	switch	twobytwo	89.0	0.613	blue	9.0	cue_switch	color	stay	stim	poldrack-single-stim	s548	0	False
666.465	1.0	667.467	0.1	2.0	True	89.0	Magnitude	n/a	twobytwo	89.0	0.902	blue	6.0	task_switch	magnitude	switch	stim	poldrack-single-stim	s548	0	False
668.57	1.0	669.366	0.1	2.0	True	71.0	Color	n/a	twobytwo	71.0	0.696	orange	1.0	task_switch	color	switch	stim	poldrack-single-stim	s548	0	False
670.674	1.0	671.902	0.1	2.136	True	71.0	Magnitude	n/a	twobytwo	71.0	1.128	blue	2.0	task_switch	magnitude	switch	stim	poldrack-single-stim	s548	0	False
672.914	1.0	673.691	0.1	2.136	False	89.0	Orange-Blue	n/a	twobytwo	71.0	0.677	blue	3.0	task_switch	color	switch	stim	poldrack-single-stim	s548	0	False
675.955	1.0	677.546	0.9	2.136	True	89.0	High-Low	n/a	twobytwo	89.0	0.691	orange	9.0	task_switch	magnitude	switch	stim	poldrack-single-stim	s548	0	False
