onset	duration	SS_delay	block_duration	correct	correct_response	experiment_exp_id	key_press	passed_check	response_time	stop_response	stopped	trial_id	trial_type	worker_id	junk
3.009	0.85	0.4	2.35	1.0	89.0	motor_selective_stop_signal	89.0	False	0.443	89.0	False	stim	crit_go	s548	False
5.362	0.85	0.4	2.25	1.0	71.0	motor_selective_stop_signal	71.0	False	0.572	89.0	False	stim	noncrit_nosignal	s548	False
7.614	0.85	0.4	2.45	1.0	71.0	motor_selective_stop_signal	71.0	False	0.414	89.0	False	stim	noncrit_signal	s548	False
10.066	0.85	0.4	2.35	1.0	71.0	motor_selective_stop_signal	71.0	False	0.512	89.0	False	stim	noncrit_nosignal	s548	False
12.418	0.85	0.4	2.65	1.0	71.0	motor_selective_stop_signal	71.0	False	0.523	89.0	False	stim	noncrit_signal	s548	False
15.07	0.85	0.4	2.25	1.0	89.0	motor_selective_stop_signal	89.0	False	0.692	89.0	False	stim	crit_go	s548	False
17.322	0.85	0.4	2.25	1.0	89.0	motor_selective_stop_signal	89.0	False	0.478	89.0	False	stim	crit_stop_failure	s548	False
19.575	0.85	0.35	2.45	1.0	89.0	motor_selective_stop_signal	89.0	False	0.821	89.0	False	stim	crit_go	s548	False
22.027	0.85	0.35	2.25	1.0	89.0	motor_selective_stop_signal	89.0	False	0.787	89.0	False	stim	crit_go	s548	False
24.28	0.85	0.35	2.55	1.0	89.0	motor_selective_stop_signal	-1.0	False	n/a	89.0	True	stim	crit_stop_success	s548	False
26.832	0.85	0.4	2.25	1.0	89.0	motor_selective_stop_signal	89.0	False	0.807	89.0	False	stim	crit_go	s548	False
29.085	0.85	0.4	2.35	1.0	71.0	motor_selective_stop_signal	71.0	False	0.627	89.0	False	stim	noncrit_signal	s548	False
31.437	0.85	0.4	2.25	1.0	89.0	motor_selective_stop_signal	-1.0	False	n/a	89.0	True	stim	crit_stop_success	s548	False
33.689	0.85	0.45	2.55	1.0	89.0	motor_selective_stop_signal	-1.0	False	n/a	89.0	True	stim	crit_stop_success	s548	False
36.242	0.85	0.5	2.55	1.0	71.0	motor_selective_stop_signal	71.0	False	0.678	89.0	False	stim	noncrit_nosignal	s548	False
38.794	0.85	0.5	2.35	1.0	71.0	motor_selective_stop_signal	71.0	False	0.359	89.0	False	stim	noncrit_nosignal	s548	False
41.146	0.85	0.5	2.35	1.0	71.0	motor_selective_stop_signal	71.0	False	0.458	89.0	False	stim	noncrit_nosignal	s548	False
43.499	0.85	0.5	2.25	1.0	71.0	motor_selective_stop_signal	71.0	False	0.494	89.0	False	stim	noncrit_nosignal	s548	False
45.752	0.85	0.5	2.45	1.0	71.0	motor_selective_stop_signal	71.0	False	0.386	89.0	False	stim	noncrit_signal	s548	False
48.204	0.85	0.5	2.25	1.0	71.0	motor_selective_stop_signal	71.0	False	0.523	89.0	False	stim	noncrit_nosignal	s548	False
50.455	0.85	0.5	2.45	1.0	71.0	motor_selective_stop_signal	71.0	False	0.39	89.0	False	stim	noncrit_signal	s548	False
52.908	0.85	0.5	2.65	1.0	89.0	motor_selective_stop_signal	-1.0	False	n/a	89.0	True	stim	crit_stop_success	s548	False
55.561	0.85	0.55	2.45	1.0	71.0	motor_selective_stop_signal	71.0	False	0.458	89.0	False	stim	noncrit_nosignal	s548	False
58.014	0.85	0.55	2.35	1.0	71.0	motor_selective_stop_signal	71.0	False	0.393	89.0	False	stim	noncrit_nosignal	s548	False
60.366	0.85	0.55	2.25	1.0	71.0	motor_selective_stop_signal	71.0	False	0.341	89.0	False	stim	noncrit_signal	s548	False
62.619	0.85	0.55	2.55	1.0	71.0	motor_selective_stop_signal	71.0	False	0.35	89.0	False	stim	noncrit_nosignal	s548	False
65.17	0.85	0.55	2.25	1.0	71.0	motor_selective_stop_signal	71.0	False	0.342	89.0	False	stim	noncrit_nosignal	s548	False
67.421	0.85	0.55	2.25	1.0	71.0	motor_selective_stop_signal	71.0	False	0.363	89.0	False	stim	noncrit_nosignal	s548	False
69.673	0.85	0.55	2.35	1.0	89.0	motor_selective_stop_signal	89.0	False	1.014	89.0	False	stim	crit_go	s548	False
72.025	0.85	0.55	2.25	1.0	71.0	motor_selective_stop_signal	71.0	False	0.672	89.0	False	stim	noncrit_nosignal	s548	False
74.277	0.85	0.55	2.65	1.0	71.0	motor_selective_stop_signal	71.0	False	0.387	89.0	False	stim	noncrit_signal	s548	False
76.93	0.85	0.55	2.35	1.0	71.0	motor_selective_stop_signal	71.0	False	0.424	89.0	False	stim	noncrit_signal	s548	False
79.283	0.85	0.55	2.45	1.0	89.0	motor_selective_stop_signal	89.0	False	0.889	89.0	False	stim	crit_go	s548	False
81.736	0.85	0.55	2.35	1.0	71.0	motor_selective_stop_signal	71.0	False	0.478	89.0	False	stim	noncrit_signal	s548	False
84.088	0.85	0.55	2.25	1.0	89.0	motor_selective_stop_signal	-1.0	False	n/a	89.0	True	stim	crit_stop_success	s548	False
86.34	0.85	0.6	2.25	1.0	89.0	motor_selective_stop_signal	89.0	False	0.865	89.0	False	stim	crit_go	s548	False
88.592	0.85	0.6	2.25	1.0	89.0	motor_selective_stop_signal	89.0	False	0.433	89.0	False	stim	crit_stop_failure	s548	False
90.845	0.85	0.55	2.25	1.0	71.0	motor_selective_stop_signal	71.0	False	0.542	89.0	False	stim	noncrit_nosignal	s548	False
93.097	0.85	0.55	2.35	1.0	89.0	motor_selective_stop_signal	-1.0	False	n/a	89.0	True	stim	crit_stop_success	s548	False
95.45	0.85	0.6	3.35	1.0	89.0	motor_selective_stop_signal	89.0	False	0.972	89.0	False	stim	crit_go	s548	False
98.802	0.85	0.6	2.55	1.0	71.0	motor_selective_stop_signal	71.0	False	0.498	89.0	False	stim	noncrit_nosignal	s548	False
101.354	0.85	0.6	2.75	1.0	89.0	motor_selective_stop_signal	-1.0	False	n/a	89.0	True	stim	crit_stop_success	s548	False
104.106	0.85	0.65	2.75	1.0	71.0	motor_selective_stop_signal	71.0	False	0.603	89.0	False	stim	noncrit_nosignal	s548	False
106.858	0.85	0.65	2.65	1.0	71.0	motor_selective_stop_signal	71.0	False	0.411	89.0	False	stim	noncrit_nosignal	s548	False
109.51	0.85	0.65	2.45	1.0	89.0	motor_selective_stop_signal	-1.0	False	n/a	89.0	True	stim	crit_stop_success	s548	False
111.962	0.85	0.7	2.25	1.0	89.0	motor_selective_stop_signal	89.0	False	0.944	89.0	False	stim	crit_go	s548	False
114.214	0.85	0.7	2.35	1.0	71.0	motor_selective_stop_signal	71.0	False	0.673	89.0	False	stim	noncrit_nosignal	s548	False
116.566	0.85	0.7	2.45	1.0	89.0	motor_selective_stop_signal	89.0	False	1.021	89.0	False	stim	crit_go	s548	False
119.018	0.85	0.7	3.05	1.0	89.0	motor_selective_stop_signal	89.0	False	1.164	89.0	False	stim	crit_go	s548	False
122.07	0.85	0.7	2.35	1.0	89.0	motor_selective_stop_signal	89.0	False	1.184	89.0	False	stim	crit_go	s548	False
134.93	0.85	0.7	2.25	1.0	71.0	motor_selective_stop_signal	71.0	False	0.586	89.0	False	stim	noncrit_signal	s548	False
137.182	0.85	0.7	2.35	1.0	89.0	motor_selective_stop_signal	89.0	False	0.921	89.0	False	stim	crit_go	s548	False
139.535	0.85	0.7	2.35	1.0	71.0	motor_selective_stop_signal	71.0	False	0.508	89.0	False	stim	noncrit_nosignal	s548	False
141.887	0.85	0.7	2.35	1.0	89.0	motor_selective_stop_signal	89.0	False	0.876	89.0	False	stim	crit_go	s548	False
144.239	0.85	0.7	2.35	1.0	71.0	motor_selective_stop_signal	71.0	False	0.533	89.0	False	stim	noncrit_signal	s548	False
146.59	0.85	0.7	2.35	1.0	71.0	motor_selective_stop_signal	71.0	False	0.546	89.0	False	stim	noncrit_nosignal	s548	False
148.943	0.85	0.7	2.25	1.0	89.0	motor_selective_stop_signal	89.0	False	0.91	89.0	False	stim	crit_go	s548	False
151.195	0.85	0.7	2.35	1.0	89.0	motor_selective_stop_signal	-1.0	False	n/a	89.0	True	stim	crit_stop_success	s548	False
153.548	0.85	0.75	2.45	1.0	89.0	motor_selective_stop_signal	89.0	False	1.16	89.0	False	stim	crit_go	s548	False
156.0	0.85	0.75	2.35	1.0	89.0	motor_selective_stop_signal	89.0	False	0.983	89.0	False	stim	crit_go	s548	False
158.353	0.85	0.75	2.85	1.0	89.0	motor_selective_stop_signal	89.0	False	1.152	89.0	False	stim	crit_go	s548	False
161.205	0.85	0.75	2.55	1.0	89.0	motor_selective_stop_signal	89.0	False	1.055	89.0	False	stim	crit_go	s548	False
163.757	0.85	0.75	2.75	1.0	71.0	motor_selective_stop_signal	71.0	False	0.615	89.0	False	stim	noncrit_nosignal	s548	False
166.51	0.85	0.75	2.25	1.0	71.0	motor_selective_stop_signal	71.0	False	0.393	89.0	False	stim	noncrit_signal	s548	False
168.762	0.85	0.75	2.25	1.0	89.0	motor_selective_stop_signal	89.0	False	0.93	89.0	False	stim	crit_go	s548	False
171.014	0.85	0.75	2.85	1.0	89.0	motor_selective_stop_signal	-1.0	False	n/a	89.0	True	stim	crit_stop_success	s548	False
173.867	0.85	0.8	2.35	1.0	89.0	motor_selective_stop_signal	89.0	False	1.106	89.0	False	stim	crit_go	s548	False
176.219	0.85	0.8	2.25	1.0	71.0	motor_selective_stop_signal	71.0	False	0.71	89.0	False	stim	noncrit_nosignal	s548	False
178.471	0.85	0.8	2.25	1.0	89.0	motor_selective_stop_signal	-1.0	False	n/a	89.0	True	stim	crit_stop_success	s548	False
180.724	0.85	0.85	2.25	1.0	71.0	motor_selective_stop_signal	71.0	False	0.589	89.0	False	stim	noncrit_nosignal	s548	False
182.977	0.85	0.85	2.35	1.0	89.0	motor_selective_stop_signal	89.0	False	1.149	89.0	False	stim	crit_go	s548	False
185.33	0.85	0.85	2.65	1.0	89.0	motor_selective_stop_signal	89.0	False	1.008	89.0	False	stim	crit_go	s548	False
187.982	0.85	0.85	2.75	1.0	89.0	motor_selective_stop_signal	-1.0	False	n/a	89.0	True	stim	crit_stop_success	s548	False
190.734	0.85	0.9	2.25	1.0	71.0	motor_selective_stop_signal	71.0	False	0.525	89.0	False	stim	noncrit_nosignal	s548	False
192.987	0.85	0.9	2.75	1.0	89.0	motor_selective_stop_signal	89.0	False	1.099	89.0	False	stim	crit_stop_failure	s548	False
195.739	0.85	0.85	2.25	1.0	71.0	motor_selective_stop_signal	71.0	False	0.666	89.0	False	stim	noncrit_signal	s548	False
197.991	0.85	0.85	2.35	1.0	89.0	motor_selective_stop_signal	89.0	False	1.223	89.0	False	stim	crit_go	s548	False
200.343	0.85	0.85	2.35	1.0	71.0	motor_selective_stop_signal	71.0	False	0.586	89.0	False	stim	noncrit_nosignal	s548	False
202.696	0.85	0.85	2.55	1.0	71.0	motor_selective_stop_signal	71.0	False	0.497	89.0	False	stim	noncrit_nosignal	s548	False
205.248	0.85	0.85	2.25	1.0	89.0	motor_selective_stop_signal	89.0	False	1.181	89.0	False	stim	crit_go	s548	False
207.5	0.85	0.85	2.25	1.0	71.0	motor_selective_stop_signal	71.0	False	0.573	89.0	False	stim	noncrit_signal	s548	False
209.752	0.85	0.85	2.25	1.0	71.0	motor_selective_stop_signal	71.0	False	0.582	89.0	False	stim	noncrit_nosignal	s548	False
212.004	0.85	0.85	2.35	1.0	89.0	motor_selective_stop_signal	89.0	False	1.084	89.0	False	stim	crit_go	s548	False
214.356	0.85	0.85	2.65	1.0	89.0	motor_selective_stop_signal	-1.0	False	n/a	89.0	True	stim	crit_stop_success	s548	False
217.008	0.85	0.9	2.35	1.0	89.0	motor_selective_stop_signal	89.0	False	1.154	89.0	False	stim	crit_go	s548	False
219.36	0.85	0.9	2.25	1.0	71.0	motor_selective_stop_signal	71.0	False	0.661	89.0	False	stim	noncrit_signal	s548	False
221.612	0.85	0.9	2.35	1.0	89.0	motor_selective_stop_signal	89.0	False	1.205	89.0	False	stim	crit_go	s548	False
223.964	0.85	0.9	2.35	1.0	89.0	motor_selective_stop_signal	89.0	False	1.148	89.0	False	stim	crit_stop_failure	s548	False
226.316	0.85	0.85	2.85	1.0	71.0	motor_selective_stop_signal	71.0	False	0.677	89.0	False	stim	noncrit_nosignal	s548	False
229.168	0.85	0.85	2.45	1.0	89.0	motor_selective_stop_signal	89.0	False	1.26	89.0	False	stim	crit_go	s548	False
231.62	0.85	0.85	2.35	1.0	71.0	motor_selective_stop_signal	71.0	False	0.628	89.0	False	stim	noncrit_nosignal	s548	False
233.973	0.85	0.85	2.65	1.0	89.0	motor_selective_stop_signal	89.0	False	1.305	89.0	False	stim	crit_go	s548	False
236.625	0.85	0.85	2.25	1.0	71.0	motor_selective_stop_signal	71.0	False	0.535	89.0	False	stim	noncrit_nosignal	s548	False
238.877	0.85	0.85	2.25	1.0	71.0	motor_selective_stop_signal	71.0	False	0.424	89.0	False	stim	noncrit_signal	s548	False
241.128	0.85	0.85	2.25	1.0	71.0	motor_selective_stop_signal	71.0	False	0.446	89.0	False	stim	noncrit_nosignal	s548	False
243.381	0.85	0.85	2.45	1.0	89.0	motor_selective_stop_signal	89.0	False	1.206	89.0	False	stim	crit_go	s548	False
245.832	0.85	0.85	2.35	1.0	89.0	motor_selective_stop_signal	89.0	False	1.322	89.0	False	stim	crit_go	s548	False
248.184	0.85	0.85	2.25	1.0	89.0	motor_selective_stop_signal	-1.0	False	n/a	89.0	True	stim	crit_stop_success	s548	False
250.436	0.85	0.9	2.35	1.0	89.0	motor_selective_stop_signal	-1.0	False	n/a	89.0	True	stim	crit_stop_success	s548	False
252.788	0.85	0.95	2.45	1.0	71.0	motor_selective_stop_signal	71.0	False	0.58	89.0	False	stim	noncrit_signal	s548	False
265.746	0.85	0.95	2.35	1.0	71.0	motor_selective_stop_signal	71.0	False	0.412	89.0	False	stim	noncrit_nosignal	s548	False
268.099	0.85	0.95	2.25	1.0	89.0	motor_selective_stop_signal	89.0	False	0.915	89.0	False	stim	crit_go	s548	False
270.351	0.85	0.95	2.25	1.0	89.0	motor_selective_stop_signal	89.0	False	1.265	89.0	False	stim	crit_go	s548	False
272.603	0.85	0.95	2.35	1.0	71.0	motor_selective_stop_signal	71.0	False	0.517	89.0	False	stim	noncrit_signal	s548	False
274.955	0.85	0.95	2.35	1.0	89.0	motor_selective_stop_signal	89.0	False	1.247	89.0	False	stim	crit_stop_failure	s548	False
277.307	0.85	0.9	2.35	1.0	89.0	motor_selective_stop_signal	89.0	False	1.296	89.0	False	stim	crit_go	s548	False
279.66	0.85	0.9	2.95	1.0	71.0	motor_selective_stop_signal	71.0	False	0.46	89.0	False	stim	noncrit_nosignal	s548	False
282.611	0.85	0.9	2.25	1.0	89.0	motor_selective_stop_signal	89.0	False	1.229	89.0	False	stim	crit_go	s548	False
284.863	0.85	0.9	2.35	1.0	89.0	motor_selective_stop_signal	89.0	False	1.334	89.0	False	stim	crit_go	s548	False
287.215	0.85	0.9	2.25	1.0	71.0	motor_selective_stop_signal	71.0	False	0.701	89.0	False	stim	noncrit_nosignal	s548	False
289.467	0.85	0.9	2.45	1.0	71.0	motor_selective_stop_signal	71.0	False	0.371	89.0	False	stim	noncrit_signal	s548	False
291.92	0.85	0.9	2.35	1.0	71.0	motor_selective_stop_signal	71.0	False	0.348	89.0	False	stim	noncrit_signal	s548	False
294.273	0.85	0.9	2.55	1.0	71.0	motor_selective_stop_signal	71.0	False	0.341	89.0	False	stim	noncrit_signal	s548	False
296.826	0.85	0.9	2.55	1.0	71.0	motor_selective_stop_signal	71.0	False	0.332	89.0	False	stim	noncrit_nosignal	s548	False
299.378	0.85	0.9	2.25	1.0	89.0	motor_selective_stop_signal	89.0	False	1.14	89.0	False	stim	crit_go	s548	False
301.63	0.85	0.9	2.25	1.0	89.0	motor_selective_stop_signal	89.0	False	1.186	89.0	False	stim	crit_go	s548	False
303.883	0.85	0.9	2.75	1.0	89.0	motor_selective_stop_signal	-1.0	False	n/a	89.0	True	stim	crit_stop_success	s548	False
306.635	0.85	0.95	2.35	1.0	89.0	motor_selective_stop_signal	89.0	False	1.202	89.0	False	stim	crit_stop_failure	s548	False
308.987	0.85	0.9	2.25	1.0	89.0	motor_selective_stop_signal	-1.0	False	n/a	89.0	True	stim	crit_stop_success	s548	False
311.239	0.85	0.95	2.45	1.0	89.0	motor_selective_stop_signal	89.0	False	1.381	89.0	False	stim	crit_go	s548	False
313.691	0.85	0.95	2.25	1.0	89.0	motor_selective_stop_signal	89.0	False	1.269	89.0	False	stim	crit_go	s548	False
315.943	0.85	0.95	2.35	1.0	71.0	motor_selective_stop_signal	71.0	False	0.633	89.0	False	stim	noncrit_nosignal	s548	False
318.295	0.85	0.95	2.25	1.0	89.0	motor_selective_stop_signal	89.0	False	1.33	89.0	False	stim	crit_go	s548	False
320.548	0.85	0.95	2.25	1.0	89.0	motor_selective_stop_signal	89.0	False	1.202	89.0	False	stim	crit_stop_failure	s548	False
322.799	0.85	0.9	2.25	1.0	89.0	motor_selective_stop_signal	-1.0	False	n/a	89.0	True	stim	crit_stop_success	s548	False
325.052	0.85	0.95	2.25	1.0	89.0	motor_selective_stop_signal	89.0	False	1.415	89.0	False	stim	crit_go	s548	False
327.304	0.85	0.95	2.25	1.0	89.0	motor_selective_stop_signal	89.0	False	1.303	89.0	False	stim	crit_go	s548	False
329.556	0.85	0.95	2.35	1.0	71.0	motor_selective_stop_signal	71.0	False	0.637	89.0	False	stim	noncrit_signal	s548	False
331.907	0.85	0.95	2.55	1.0	89.0	motor_selective_stop_signal	-1.0	False	n/a	89.0	True	stim	crit_stop_success	s548	False
334.46	0.85	1.0	2.95	1.0	71.0	motor_selective_stop_signal	71.0	False	0.635	89.0	False	stim	noncrit_nosignal	s548	False
337.412	0.85	1.0	2.25	1.0	89.0	motor_selective_stop_signal	89.0	False	1.192	89.0	False	stim	crit_stop_failure	s548	False
339.665	0.85	0.95	2.35	1.0	71.0	motor_selective_stop_signal	71.0	False	0.649	89.0	False	stim	noncrit_nosignal	s548	False
342.017	0.85	0.95	2.55	1.0	89.0	motor_selective_stop_signal	89.0	False	1.368	89.0	False	stim	crit_go	s548	False
344.569	0.85	0.95	2.25	1.0	71.0	motor_selective_stop_signal	71.0	False	0.555	89.0	False	stim	noncrit_signal	s548	False
346.821	0.85	0.95	2.35	1.0	71.0	motor_selective_stop_signal	71.0	False	0.39	89.0	False	stim	noncrit_signal	s548	False
349.173	0.85	0.95	2.55	1.0	71.0	motor_selective_stop_signal	71.0	False	0.386	89.0	False	stim	noncrit_signal	s548	False
351.725	0.85	0.95	2.45	1.0	71.0	motor_selective_stop_signal	71.0	False	0.448	89.0	False	stim	noncrit_signal	s548	False
354.177	0.85	0.95	2.35	1.0	89.0	motor_selective_stop_signal	89.0	False	1.237	89.0	False	stim	crit_go	s548	False
356.529	0.85	0.95	2.65	1.0	71.0	motor_selective_stop_signal	71.0	False	0.592	89.0	False	stim	noncrit_nosignal	s548	False
359.182	0.85	0.95	2.55	1.0	71.0	motor_selective_stop_signal	71.0	False	0.34	89.0	False	stim	noncrit_nosignal	s548	False
361.734	0.85	0.95	2.75	1.0	89.0	motor_selective_stop_signal	-1.0	False	n/a	89.0	True	stim	crit_stop_success	s548	False
364.487	0.85	1.0	2.55	1.0	89.0	motor_selective_stop_signal	-1.0	False	n/a	89.0	True	stim	crit_stop_success	s548	False
367.039	0.85	1.0	2.45	1.0	71.0	motor_selective_stop_signal	71.0	False	0.546	89.0	False	stim	noncrit_signal	s548	False
369.492	0.85	1.0	2.75	1.0	71.0	motor_selective_stop_signal	71.0	False	0.421	89.0	False	stim	noncrit_nosignal	s548	False
372.244	0.85	1.0	2.55	1.0	71.0	motor_selective_stop_signal	71.0	False	0.359	89.0	False	stim	noncrit_nosignal	s548	False
374.797	0.85	1.0	2.35	1.0	89.0	motor_selective_stop_signal	-1.0	False	n/a	89.0	True	stim	crit_stop_success	s548	False
377.149	0.85	1.0	2.25	1.0	71.0	motor_selective_stop_signal	71.0	False	0.44	89.0	False	stim	noncrit_nosignal	s548	False
379.401	0.85	1.0	2.65	1.0	71.0	motor_selective_stop_signal	71.0	False	0.521	89.0	False	stim	noncrit_nosignal	s548	False
382.052	0.85	1.0	2.25	1.0	89.0	motor_selective_stop_signal	-1.0	False	n/a	89.0	True	stim	crit_stop_success	s548	False
384.305	0.85	1.0	2.35	1.0	71.0	motor_selective_stop_signal	71.0	False	0.609	89.0	False	stim	noncrit_nosignal	s548	False
397.164	0.85	1.0	2.25	1.0	71.0	motor_selective_stop_signal	71.0	False	0.47	89.0	False	stim	noncrit_nosignal	s548	False
399.416	0.85	1.0	2.35	1.0	71.0	motor_selective_stop_signal	71.0	False	0.528	89.0	False	stim	noncrit_nosignal	s548	False
401.767	0.85	1.0	2.35	1.0	71.0	motor_selective_stop_signal	71.0	False	0.325	89.0	False	stim	noncrit_nosignal	s548	False
404.119	0.85	1.0	2.25	1.0	89.0	motor_selective_stop_signal	89.0	False	1.315	89.0	False	stim	crit_go	s548	False
406.371	0.85	1.0	2.85	1.0	71.0	motor_selective_stop_signal	71.0	False	0.619	89.0	False	stim	noncrit_signal	s548	False
409.224	0.85	1.0	2.35	1.0	89.0	motor_selective_stop_signal	89.0	False	1.324	89.0	False	stim	crit_go	s548	False
411.575	0.85	1.0	2.25	1.0	89.0	motor_selective_stop_signal	89.0	False	1.312	89.0	False	stim	crit_go	s548	False
413.826	0.85	1.0	2.35	1.0	71.0	motor_selective_stop_signal	71.0	False	0.5	89.0	False	stim	noncrit_nosignal	s548	False
416.179	0.85	1.0	2.45	1.0	71.0	motor_selective_stop_signal	71.0	False	0.394	89.0	False	stim	noncrit_nosignal	s548	False
418.631	0.85	1.0	2.25	1.0	89.0	motor_selective_stop_signal	89.0	False	1.25	89.0	False	stim	crit_stop_failure	s548	False
420.883	0.85	0.95	2.25	1.0	71.0	motor_selective_stop_signal	71.0	False	0.501	89.0	False	stim	noncrit_signal	s548	False
423.136	0.85	0.95	2.75	1.0	89.0	motor_selective_stop_signal	89.0	False	1.359	89.0	False	stim	crit_go	s548	False
425.888	0.85	0.95	2.35	1.0	71.0	motor_selective_stop_signal	71.0	False	0.596	89.0	False	stim	noncrit_signal	s548	False
428.24	0.85	0.95	2.75	1.0	71.0	motor_selective_stop_signal	71.0	False	0.401	89.0	False	stim	noncrit_nosignal	s548	False
430.992	0.85	0.95	2.45	1.0	89.0	motor_selective_stop_signal	89.0	False	1.382	89.0	False	stim	crit_go	s548	False
433.444	0.85	0.95	2.25	1.0	71.0	motor_selective_stop_signal	71.0	False	0.638	89.0	False	stim	noncrit_nosignal	s548	False
435.696	0.85	0.95	2.35	1.0	89.0	motor_selective_stop_signal	-1.0	False	n/a	89.0	True	stim	crit_stop_success	s548	False
438.05	0.85	1.0	2.65	1.0	89.0	motor_selective_stop_signal	89.0	False	1.373	89.0	False	stim	crit_go	s548	False
440.702	0.85	1.0	2.45	1.0	89.0	motor_selective_stop_signal	-1.0	False	n/a	89.0	True	stim	crit_stop_success	s548	False
443.154	0.85	1.0	2.25	1.0	89.0	motor_selective_stop_signal	89.0	False	1.45	89.0	False	stim	crit_go	s548	False
445.407	0.85	1.0	2.35	1.0	71.0	motor_selective_stop_signal	71.0	False	0.454	89.0	False	stim	noncrit_signal	s548	False
447.759	0.85	1.0	2.95	1.0	71.0	motor_selective_stop_signal	71.0	False	0.431	89.0	False	stim	noncrit_signal	s548	False
450.712	0.85	1.0	2.25	1.0	71.0	motor_selective_stop_signal	71.0	False	0.362	89.0	False	stim	noncrit_nosignal	s548	False
452.964	0.85	1.0	2.95	1.0	71.0	motor_selective_stop_signal	71.0	False	0.412	89.0	False	stim	noncrit_nosignal	s548	False
455.917	0.85	1.0	2.45	1.0	71.0	motor_selective_stop_signal	71.0	False	0.45	89.0	False	stim	noncrit_signal	s548	False
458.369	0.85	1.0	2.25	1.0	89.0	motor_selective_stop_signal	-1.0	False	n/a	89.0	True	stim	crit_stop_success	s548	False
460.622	0.85	1.0	2.35	1.0	71.0	motor_selective_stop_signal	71.0	False	0.668	89.0	False	stim	noncrit_nosignal	s548	False
462.975	0.85	1.0	2.45	1.0	89.0	motor_selective_stop_signal	89.0	False	1.36	89.0	False	stim	crit_go	s548	False
465.427	0.85	1.0	2.25	1.0	89.0	motor_selective_stop_signal	-1.0	False	n/a	89.0	True	stim	crit_stop_success	s548	False
467.679	0.85	1.0	2.45	1.0	71.0	motor_selective_stop_signal	71.0	False	0.55	89.0	False	stim	noncrit_signal	s548	False
470.131	0.85	1.0	2.75	1.0	89.0	motor_selective_stop_signal	89.0	False	1.322	89.0	False	stim	crit_go	s548	False
472.884	0.85	1.0	2.25	1.0	71.0	motor_selective_stop_signal	71.0	False	0.452	89.0	False	stim	noncrit_signal	s548	False
475.136	0.85	1.0	2.35	1.0	89.0	motor_selective_stop_signal	89.0	False	1.326	89.0	False	stim	crit_go	s548	False
477.488	0.85	1.0	2.45	1.0	71.0	motor_selective_stop_signal	71.0	False	0.574	89.0	False	stim	noncrit_signal	s548	False
479.94	0.85	1.0	2.35	1.0	89.0	motor_selective_stop_signal	89.0	False	1.287	89.0	False	stim	crit_go	s548	False
482.292	0.85	1.0	2.25	1.0	71.0	motor_selective_stop_signal	71.0	False	0.458	89.0	False	stim	noncrit_signal	s548	False
484.544	0.85	1.0	2.55	1.0	71.0	motor_selective_stop_signal	71.0	False	0.467	89.0	False	stim	noncrit_nosignal	s548	False
487.097	0.85	1.0	2.45	1.0	89.0	motor_selective_stop_signal	89.0	False	1.248	89.0	False	stim	crit_go	s548	False
489.549	0.85	1.0	2.65	1.0	71.0	motor_selective_stop_signal	71.0	False	0.539	89.0	False	stim	noncrit_nosignal	s548	False
492.202	0.85	1.0	2.25	1.0	89.0	motor_selective_stop_signal	-1.0	False	n/a	89.0	True	stim	crit_stop_success	s548	False
494.453	0.85	1.0	2.65	1.0	71.0	motor_selective_stop_signal	71.0	False	0.499	89.0	False	stim	noncrit_signal	s548	False
497.104	0.85	1.0	2.35	1.0	89.0	motor_selective_stop_signal	89.0	False	1.238	89.0	False	stim	crit_go	s548	False
499.457	0.85	1.0	2.25	1.0	89.0	motor_selective_stop_signal	89.0	False	1.288	89.0	False	stim	crit_go	s548	False
501.709	0.85	1.0	2.25	1.0	89.0	motor_selective_stop_signal	89.0	False	1.355	89.0	False	stim	crit_go	s548	False
503.962	0.85	1.0	2.25	1.0	89.0	motor_selective_stop_signal	89.0	False	1.547	89.0	False	stim	crit_go	s548	False
506.213	0.85	1.0	2.35	1.0	71.0	motor_selective_stop_signal	71.0	False	0.593	89.0	False	stim	noncrit_nosignal	s548	False
508.565	0.85	1.0	2.55	1.0	71.0	motor_selective_stop_signal	71.0	False	0.397	89.0	False	stim	noncrit_signal	s548	False
511.118	0.85	1.0	2.35	1.0	89.0	motor_selective_stop_signal	89.0	False	1.423	89.0	False	stim	crit_go	s548	False
513.47	0.85	1.0	2.45	1.0	89.0	motor_selective_stop_signal	89.0	False	1.253	89.0	False	stim	crit_stop_failure	s548	False
515.922	0.85	0.95	2.45	1.0	71.0	motor_selective_stop_signal	71.0	False	0.624	89.0	False	stim	noncrit_nosignal	s548	False
528.881	0.85	0.95	2.35	1.0	89.0	motor_selective_stop_signal	-1.0	False	n/a	89.0	True	stim	crit_stop_success	s548	False
531.232	0.85	1.0	2.25	1.0	71.0	motor_selective_stop_signal	71.0	False	0.594	89.0	False	stim	noncrit_signal	s548	False
533.484	0.85	1.0	2.55	1.0	71.0	motor_selective_stop_signal	71.0	False	0.392	89.0	False	stim	noncrit_nosignal	s548	False
536.036	0.85	1.0	2.55	1.0	71.0	motor_selective_stop_signal	71.0	False	0.403	89.0	False	stim	noncrit_nosignal	s548	False
538.588	0.85	1.0	2.25	1.0	71.0	motor_selective_stop_signal	71.0	False	0.393	89.0	False	stim	noncrit_signal	s548	False
540.841	0.85	1.0	2.25	1.0	71.0	motor_selective_stop_signal	71.0	False	0.347	89.0	False	stim	noncrit_nosignal	s548	False
543.093	0.85	1.0	2.45	1.0	89.0	motor_selective_stop_signal	-1.0	False	n/a	89.0	True	stim	crit_stop_success	s548	False
545.545	0.85	1.0	2.35	1.0	71.0	motor_selective_stop_signal	71.0	False	0.464	89.0	False	stim	noncrit_nosignal	s548	False
547.897	0.85	1.0	2.25	1.0	71.0	motor_selective_stop_signal	71.0	False	0.415	89.0	False	stim	noncrit_nosignal	s548	False
550.149	0.85	1.0	3.15	1.0	71.0	motor_selective_stop_signal	71.0	False	0.321	89.0	False	stim	noncrit_nosignal	s548	False
553.301	0.85	1.0	2.65	1.0	71.0	motor_selective_stop_signal	71.0	False	0.436	89.0	False	stim	noncrit_nosignal	s548	False
555.953	0.85	1.0	2.25	1.0	71.0	motor_selective_stop_signal	71.0	False	0.408	89.0	False	stim	noncrit_signal	s548	False
558.206	0.85	1.0	2.45	1.0	89.0	motor_selective_stop_signal	-1.0	False	n/a	89.0	True	stim	crit_stop_success	s548	False
560.658	0.85	1.0	2.85	1.0	71.0	motor_selective_stop_signal	71.0	False	0.365	89.0	False	stim	noncrit_signal	s548	False
563.511	0.85	1.0	2.45	1.0	89.0	motor_selective_stop_signal	89.0	False	1.354	89.0	False	stim	crit_go	s548	False
565.964	0.85	1.0	2.25	1.0	71.0	motor_selective_stop_signal	71.0	False	0.679	89.0	False	stim	noncrit_nosignal	s548	False
568.216	0.85	1.0	2.25	1.0	71.0	motor_selective_stop_signal	71.0	False	0.355	89.0	False	stim	noncrit_nosignal	s548	False
570.468	0.85	1.0	2.55	1.0	71.0	motor_selective_stop_signal	71.0	False	0.452	89.0	False	stim	noncrit_signal	s548	False
573.02	0.85	1.0	2.25	1.0	89.0	motor_selective_stop_signal	-1.0	False	n/a	89.0	True	stim	crit_stop_success	s548	False
575.272	0.85	1.0	2.35	1.0	71.0	motor_selective_stop_signal	71.0	False	0.45	89.0	False	stim	noncrit_nosignal	s548	False
577.624	0.85	1.0	2.35	1.0	89.0	motor_selective_stop_signal	-1.0	False	n/a	89.0	True	stim	crit_stop_success	s548	False
579.976	0.85	1.0	2.25	1.0	89.0	motor_selective_stop_signal	89.0	False	1.425	89.0	False	stim	crit_go	s548	False
582.229	0.85	1.0	2.35	1.0	71.0	motor_selective_stop_signal	71.0	False	0.516	89.0	False	stim	noncrit_signal	s548	False
584.581	0.85	1.0	2.25	1.0	89.0	motor_selective_stop_signal	89.0	False	1.403	89.0	False	stim	crit_go	s548	False
586.833	0.85	1.0	2.45	1.0	71.0	motor_selective_stop_signal	71.0	False	0.554	89.0	False	stim	noncrit_nosignal	s548	False
589.286	0.85	1.0	2.25	1.0	89.0	motor_selective_stop_signal	89.0	False	1.432	89.0	False	stim	crit_go	s548	False
591.538	0.85	1.0	2.35	1.0	71.0	motor_selective_stop_signal	71.0	False	0.473	89.0	False	stim	noncrit_nosignal	s548	False
593.891	0.85	1.0	2.45	1.0	71.0	motor_selective_stop_signal	71.0	False	0.396	89.0	False	stim	noncrit_signal	s548	False
596.343	0.85	1.0	2.25	1.0	89.0	motor_selective_stop_signal	-1.0	False	n/a	89.0	True	stim	crit_stop_success	s548	False
598.595	0.85	1.0	2.25	1.0	89.0	motor_selective_stop_signal	89.0	False	1.446	89.0	False	stim	crit_go	s548	False
600.847	0.85	1.0	2.85	1.0	71.0	motor_selective_stop_signal	71.0	False	0.437	89.0	False	stim	noncrit_nosignal	s548	False
603.7	0.85	1.0	2.25	1.0	89.0	motor_selective_stop_signal	89.0	False	1.38	89.0	False	stim	crit_go	s548	False
605.952	0.85	1.0	3.45	1.0	89.0	motor_selective_stop_signal	89.0	False	1.373	89.0	False	stim	crit_go	s548	False
609.404	0.85	1.0	2.35	1.0	71.0	motor_selective_stop_signal	71.0	False	0.523	89.0	False	stim	noncrit_signal	s548	False
611.757	0.85	1.0	2.35	1.0	71.0	motor_selective_stop_signal	71.0	False	0.417	89.0	False	stim	noncrit_signal	s548	False
614.109	0.85	1.0	2.35	1.0	89.0	motor_selective_stop_signal	89.0	False	1.455	89.0	False	stim	crit_go	s548	False
616.462	0.85	1.0	2.45	1.0	89.0	motor_selective_stop_signal	-1.0	False	n/a	89.0	True	stim	crit_stop_success	s548	False
618.913	0.85	1.0	2.55	1.0	71.0	motor_selective_stop_signal	71.0	False	0.649	89.0	False	stim	noncrit_signal	s548	False
621.465	0.85	1.0	2.35	1.0	89.0	motor_selective_stop_signal	89.0	False	1.316	89.0	False	stim	crit_go	s548	False
623.818	0.85	1.0	2.25	1.0	89.0	motor_selective_stop_signal	-1.0	False	n/a	89.0	True	stim	crit_stop_success	s548	False
626.069	0.85	1.0	2.25	1.0	71.0	motor_selective_stop_signal	71.0	False	0.52	89.0	False	stim	noncrit_nosignal	s548	False
628.322	0.85	1.0	3.05	1.0	71.0	motor_selective_stop_signal	71.0	False	0.478	89.0	False	stim	noncrit_nosignal	s548	False
631.374	0.85	1.0	2.45	1.0	71.0	motor_selective_stop_signal	71.0	False	0.368	89.0	False	stim	noncrit_nosignal	s548	False
633.826	0.85	1.0	2.35	1.0	71.0	motor_selective_stop_signal	71.0	False	0.433	89.0	False	stim	noncrit_nosignal	s548	False
636.179	0.85	1.0	2.25	1.0	89.0	motor_selective_stop_signal	-1.0	False	n/a	89.0	True	stim	crit_stop_success	s548	False
638.431	0.85	1.0	3.25	1.0	89.0	motor_selective_stop_signal	-1.0	False	n/a	89.0	True	stim	crit_stop_success	s548	False
641.684	0.85	1.0	2.95	1.0	89.0	motor_selective_stop_signal	89.0	False	1.263	89.0	False	stim	crit_go	s548	False
644.637	0.85	1.0	2.55	1.0	89.0	motor_selective_stop_signal	-1.0	False	n/a	89.0	True	stim	crit_stop_success	s548	False
647.189	0.85	1.0	2.35	1.0	89.0	motor_selective_stop_signal	89.0	False	1.238	89.0	False	stim	crit_go	s548	False
649.541	0.85	1.0	2.55	1.0	89.0	motor_selective_stop_signal	-1.0	False	n/a	89.0	True	stim	crit_stop_success	s548	False
