onset	duration	movement_onset	EV	action	block_duration	experiment_exp_id	gain_amount	gain_probability	key_press	loss_amount	loss_probability	num_cards	num_click_in_round	num_loss_cards	risk	response_time	total_cards	trial_id	trial_type	worker_id	junk	feedback
3.009	3.637	6.646	-0.7335897647038948	draw_card	3.637	columbia_card_task_fmri	12.0	0.8333333333333334	89.0	-70.0	0.1666666666666666	6.0	1.0	1.0	-1.258658731721038	3.637	n/a	stim	poldrack-single-stim	s548	False	1
6.648	2.875	9.523	-3.466923098037227	draw_card	2.875	columbia_card_task_fmri	12.0	0.8	89.0	-70.0	0.2	6.0	2.0	1.0	0.9807732169639464	2.875	2.0	stim	poldrack-single-stim	s548	False	0
10.276	1.5	9.525	n/a	-1.0	2.25	columbia_card_task_fmri	n/a	n/a	-1.0	n/a	n/a	n/a	n/a	n/a	n/a	n/a	n/a	ITI	poldrack-single-stim	s548	False	0
11.779	3.1	14.879	0.0997435686294391	draw_card	3.1	columbia_card_task_fmri	14.0	0.8333333333333334	89.0	-75.0	0.1666666666666666	6.0	1.0	1.0	1.3489675849742184	3.1	n/a	stim	poldrack-single-stim	s548	False	1
14.88	1.117	15.997	-2.866923098037228	draw_card	1.117	columbia_card_task_fmri	14.0	0.8	89.0	-75.0	0.2	6.0	2.0	1.0	3.779729949288957	1.117	n/a	stim	poldrack-single-stim	s548	False	1
15.998	2.825	18.823	-7.316923098037229	draw_card	2.825	columbia_card_task_fmri	14.0	0.75	89.0	-75.0	0.25	6.0	3.0	1.0	6.716928605811695	2.825	n/a	stim	poldrack-single-stim	s548	False	1
18.825	1.25	20.075	-14.733589764703895	draw_card	1.25	columbia_card_task_fmri	14.0	0.6666666666666667	89.0	-75.0	0.3333333333333333	6.0	4.0	1.0	10.132880920726116	1.25	4.0	stim	poldrack-single-stim	s548	False	0
20.828	1.5	20.077	n/a	-1.0	2.386	columbia_card_task_fmri	n/a	n/a	-1.0	n/a	n/a	n/a	n/a	n/a	n/a	n/a	n/a	ITI	poldrack-single-stim	s548	False	0
22.465	0.883	23.348	1.7664102352961053	draw_card	0.883	columbia_card_task_fmri	15.0	0.8333333333333334	89.0	-70.0	0.1666666666666666	6.0	1.0	1.0	-0.1411271626718004	0.883	n/a	stim	poldrack-single-stim	s548	False	1
23.35	0.377	23.727	-1.0669230980372286	draw_card	0.377	columbia_card_task_fmri	15.0	0.8	89.0	-70.0	0.2	6.0	2.0	1.0	2.1803050733972	0.377	n/a	stim	poldrack-single-stim	s548	False	1
23.728	0.473	24.201	-5.316923098037229	draw_card	0.473	columbia_card_task_fmri	15.0	0.75	89.0	-70.0	0.25	6.0	3.0	1.0	4.985409117178143	0.473	3.0	stim	poldrack-single-stim	s548	False	0
24.953	1.5	24.202	n/a	-1.0	2.59	columbia_card_task_fmri	n/a	n/a	-1.0	n/a	n/a	n/a	n/a	n/a	n/a	n/a	n/a	ITI	poldrack-single-stim	s548	False	0
26.794	6.991	33.785	2.5997435686294392	draw_card	6.991	columbia_card_task_fmri	17.0	0.8333333333333334	89.0	-75.0	0.1666666666666666	6.0	1.0	1.0	2.4665738481851847	6.991	n/a	stim	poldrack-single-stim	s548	False	1
33.786	2.109	35.895	-0.4669230980372273	draw_card	2.109	columbia_card_task_fmri	17.0	0.8	89.0	-75.0	0.2	6.0	2.0	1.0	4.97933140936334	2.109	n/a	stim	poldrack-single-stim	s548	False	1
35.897	2.629	38.526	-5.066923098037229	draw_card	2.629	columbia_card_task_fmri	17.0	0.75	89.0	-75.0	0.25	6.0	3.0	1.0	8.015598529166454	2.629	n/a	stim	poldrack-single-stim	s548	False	1
38.526	1.142	39.668	-12.733589764703895	end_round	1.142	columbia_card_task_fmri	17.0	0.6666666666666667	71.0	-75.0	0.3333333333333333	6.0	4.0	1.0	11.546756263567763	1.142	3.0	stim	poldrack-single-stim	s548	False	1
40.421	1.5	39.67	n/a	-1.0	2.658	columbia_card_task_fmri	n/a	n/a	-1.0	n/a	n/a	n/a	n/a	n/a	n/a	n/a	n/a	ITI	poldrack-single-stim	s548	False	0
42.33	1.674	44.004	3.9330769019627714	draw_card	1.674	columbia_card_task_fmri	24.0	0.75	89.0	-60.0	0.25	8.0	1.0	2.0	4.552537147739834	1.674	n/a	stim	poldrack-single-stim	s548	False	1
44.005	0.697	44.702	0.9330769019627712	draw_card	0.697	columbia_card_task_fmri	24.0	0.7142857142857143	89.0	-60.0	0.2857142857142857	8.0	2.0	2.0	6.126305843097768	0.697	n/a	stim	poldrack-single-stim	s548	False	1
44.705	2.884	47.589	-3.0669230980372286	draw_card	2.884	columbia_card_task_fmri	24.0	0.6666666666666667	89.0	-60.0	0.3333333333333333	8.0	3.0	2.0	7.776475680350124	2.884	3.0	stim	poldrack-single-stim	s548	False	0
48.343	1.5	47.592	n/a	-1.0	2.386	columbia_card_task_fmri	n/a	n/a	-1.0	n/a	n/a	n/a	n/a	n/a	n/a	n/a	n/a	ITI	poldrack-single-stim	s548	False	0
49.981	1.734	51.715	3.9330769019627714	draw_card	1.734	columbia_card_task_fmri	29.0	0.75	89.0	-75.0	0.25	8.0	1.0	2.0	13.2104905602883	1.734	n/a	stim	poldrack-single-stim	s548	False	1
51.716	0.635	52.351	0.2187911876770595	draw_card	0.635	columbia_card_task_fmri	29.0	0.7142857142857143	89.0	-75.0	0.2857142857142857	8.0	2.0	2.0	15.159179617020165	0.635	n/a	stim	poldrack-single-stim	s548	False	1
52.353	1.139	53.492	-4.733589764703893	draw_card	1.139	columbia_card_task_fmri	29.0	0.6666666666666667	89.0	-75.0	0.3333333333333333	8.0	3.0	2.0	17.202452703315927	1.139	n/a	stim	poldrack-single-stim	s548	False	1
53.494	1.642	55.136	-11.66692309803723	end_round	1.642	columbia_card_task_fmri	29.0	0.6	71.0	-75.0	0.4	8.0	4.0	2.0	19.12543408970639	1.642	3.0	stim	poldrack-single-stim	s548	False	1
55.888	1.5	55.137	n/a	-1.0	2.386	columbia_card_task_fmri	n/a	n/a	-1.0	n/a	n/a	n/a	n/a	n/a	n/a	n/a	n/a	ITI	poldrack-single-stim	s548	False	0
57.525	3.793	61.318	-0.2891453202594484	draw_card	3.793	columbia_card_task_fmri	17.0	0.7777777777777778	89.0	-65.0	0.2222222222222222	9.0	1.0	2.0	2.2709272354504435	3.793	n/a	stim	poldrack-single-stim	s548	False	1
61.32	1.905	63.225	-2.5669230980372286	draw_card	1.905	columbia_card_task_fmri	17.0	0.75	89.0	-65.0	0.25	9.0	2.0	2.0	3.6868035011348113	1.905	n/a	stim	poldrack-single-stim	s548	False	1
63.227	1.018	64.245	-5.495494526608656	draw_card	1.018	columbia_card_task_fmri	17.0	0.7142857142857143	89.0	-65.0	0.2857142857142857	9.0	3.0	2.0	5.223077605156036	1.018	3.0	stim	poldrack-single-stim	s548	False	0
64.998	1.5	64.247	n/a	-1.0	2.25	columbia_card_task_fmri	n/a	n/a	-1.0	n/a	n/a	n/a	n/a	n/a	n/a	n/a	n/a	ITI	poldrack-single-stim	s548	False	0
66.499	1.289	67.788	4.033076901962771	draw_card	1.289	columbia_card_task_fmri	14.0	0.9	89.0	-95.0	0.1	10.0	1.0	1.0	0.8808137789288111	1.289	1.0	stim	poldrack-single-stim	s548	False	0
68.541	1.5	67.79	n/a	-1.0	2.318	columbia_card_task_fmri	n/a	n/a	-1.0	n/a	n/a	n/a	n/a	n/a	n/a	n/a	n/a	ITI	poldrack-single-stim	s548	False	0
70.111	1.463	71.574	-0.0669230980372287	draw_card	1.463	columbia_card_task_fmri	15.0	0.8	89.0	-65.0	0.2	10.0	1.0	2.0	0.1811048065728115	1.463	n/a	stim	poldrack-single-stim	s548	False	1
71.576	1.453	73.029	-1.8447008758150052	draw_card	1.453	columbia_card_task_fmri	15.0	0.7777777777777778	89.0	-65.0	0.2222222222222222	10.0	2.0	2.0	1.4397668666863552	1.453	n/a	stim	poldrack-single-stim	s548	False	1
73.031	1.767	74.798	-4.066923098037229	draw_card	1.767	columbia_card_task_fmri	15.0	0.75	89.0	-65.0	0.25	10.0	3.0	2.0	2.82108443464638	1.767	n/a	stim	poldrack-single-stim	s548	False	1
74.801	1.231	76.032	-6.924065955180083	draw_card	1.231	columbia_card_task_fmri	15.0	0.7142857142857143	89.0	-65.0	0.2857142857142857	10.0	4.0	2.0	4.319863343643625	1.231	n/a	stim	poldrack-single-stim	s548	False	1
76.034	0.809	76.843	-10.733589764703892	end_round	0.809	columbia_card_task_fmri	15.0	0.6666666666666667	71.0	-65.0	0.3333333333333333	10.0	5.0	2.0	5.891407026539007	0.809	4.0	stim	poldrack-single-stim	s548	False	1
77.596	1.5	76.845	n/a	-1.0	2.25	columbia_card_task_fmri	n/a	n/a	-1.0	n/a	n/a	n/a	n/a	n/a	n/a	n/a	n/a	ITI	poldrack-single-stim	s548	False	0
79.097	2.902	81.999	1.5330769019627728	draw_card	2.902	columbia_card_task_fmri	17.0	0.8	89.0	-65.0	0.2	10.0	1.0	2.0	0.9807732169639464	2.902	n/a	stim	poldrack-single-stim	s548	False	1
82.001	1.798	83.799	-0.2891453202594484	draw_card	1.798	columbia_card_task_fmri	17.0	0.7777777777777778	89.0	-65.0	0.2222222222222222	10.0	2.0	2.0	2.2709272354504435	1.798	2.0	stim	poldrack-single-stim	s548	False	0
84.552	1.5	83.801	n/a	-1.0	2.25	columbia_card_task_fmri	n/a	n/a	-1.0	n/a	n/a	n/a	n/a	n/a	n/a	n/a	n/a	ITI	poldrack-single-stim	s548	False	0
86.054	1.745	87.799	0.0997435686294391	draw_card	1.745	columbia_card_task_fmri	13.0	0.8333333333333334	89.0	-70.0	0.1666666666666666	12.0	1.0	2.0	-0.8861522414628773	1.745	n/a	stim	poldrack-single-stim	s548	False	1
87.801	1.844	89.645	-1.157832188946322	draw_card	1.844	columbia_card_task_fmri	13.0	0.8181818181818181	89.0	-70.0	0.1818181818181818	12.0	2.0	2.0	0.1937518907472082	1.844	n/a	stim	poldrack-single-stim	s548	False	1
89.647	1.582	91.229	-2.6669230980372283	draw_card	1.582	columbia_card_task_fmri	13.0	0.8	89.0	-70.0	0.2	12.0	3.0	2.0	1.3806134111366148	1.582	n/a	stim	poldrack-single-stim	s548	False	1
91.23	2.652	93.882	-4.511367542481674	draw_card	2.652	columbia_card_task_fmri	13.0	0.7777777777777778	89.0	-70.0	0.2222222222222222	12.0	4.0	2.0	2.68651318259348	2.652	4.0	stim	poldrack-single-stim	s548	False	0
94.635	1.5	93.884	n/a	-1.0	2.386	columbia_card_task_fmri	n/a	n/a	-1.0	n/a	n/a	n/a	n/a	n/a	n/a	n/a	n/a	ITI	poldrack-single-stim	s548	False	0
96.272	1.66	97.932	0.0997435686294391	draw_card	1.66	columbia_card_task_fmri	15.0	0.8333333333333334	89.0	-80.0	0.1666666666666666	12.0	1.0	2.0	3.5842071111085403	1.66	n/a	stim	poldrack-single-stim	s548	False	1
97.933	0.787	98.72	-1.3396503707645038	draw_card	0.787	columbia_card_task_fmri	15.0	0.8181818181818181	89.0	-80.0	0.1818181818181818	12.0	2.0	2.0	4.820370472726005	0.787	n/a	stim	poldrack-single-stim	s548	False	1
98.722	0.924	99.646	-3.0669230980372286	end_round	0.924	columbia_card_task_fmri	15.0	0.8	71.0	-80.0	0.2	12.0	3.0	2.0	6.178958028625402	0.924	2.0	stim	poldrack-single-stim	s548	False	1
100.4	1.5	99.649	n/a	-1.0	2.386	columbia_card_task_fmri	n/a	n/a	-1.0	n/a	n/a	n/a	n/a	n/a	n/a	n/a	n/a	ITI	poldrack-single-stim	s548	False	0
102.037	3.896	105.933	-0.8669230980372277	draw_card	3.896	columbia_card_task_fmri	14.0	0.8	89.0	-65.0	0.2	15.0	1.0	3.0	-0.2187231066640578	3.896	1.0	stim	poldrack-single-stim	s548	False	0
106.687	1.5	105.936	n/a	-1.0	2.726	columbia_card_task_fmri	n/a	n/a	-1.0	n/a	n/a	n/a	n/a	n/a	n/a	n/a	n/a	ITI	poldrack-single-stim	s548	False	0
108.665	2.276	110.941	-0.9419230980372288	draw_card	2.276	columbia_card_task_fmri	1.0	0.9375	89.0	-45.0	0.0625	16.0	1.0	1.0	-20.658642191434737	2.276	n/a	stim	poldrack-single-stim	s548	False	1
110.944	3.119	114.063	-1.133589764703895	draw_card	3.119	columbia_card_task_fmri	1.0	0.9333333333333332	89.0	-45.0	0.0666666666666666	16.0	2.0	1.0	-20.320204473082804	3.119	n/a	stim	poldrack-single-stim	s548	False	1
114.064	1.901	115.965	-1.3526373837515142	draw_card	1.901	columbia_card_task_fmri	1.0	0.9285714285714286	89.0	-45.0	0.0714285714285714	16.0	3.0	1.0	-19.948995976794265	1.901	n/a	stim	poldrack-single-stim	s548	False	1
115.967	0.192	116.159	-1.605384636498767	draw_card	0.192	columbia_card_task_fmri	1.0	0.9230769230769232	89.0	-45.0	0.0769230769230769	16.0	4.0	1.0	-19.53944288905555	0.192	4.0	stim	poldrack-single-stim	s548	False	0
116.913	1.5	116.162	n/a	-1.0	2.454	columbia_card_task_fmri	n/a	n/a	-1.0	n/a	n/a	n/a	n/a	n/a	n/a	n/a	n/a	ITI	poldrack-single-stim	s548	False	0
118.619	1.266	119.885	-0.0044230980372287	draw_card	1.266	columbia_card_task_fmri	15.0	0.8125	89.0	-70.0	0.1875	16.0	1.0	3.0	1.3571745392375334	1.266	1.0	stim	poldrack-single-stim	s548	False	0
120.638	1.5	119.887	n/a	-1.0	2.318	columbia_card_task_fmri	n/a	n/a	-1.0	n/a	n/a	n/a	n/a	n/a	n/a	n/a	n/a	ITI	poldrack-single-stim	s548	False	0
122.209	0.614	122.823	6.933076901962771	draw_card	0.614	columbia_card_task_fmri	30.0	0.7	89.0	-50.0	0.3	10.0	1.0	3.0	4.839981925535902	0.614	n/a	stim	poldrack-single-stim	s548	False	1
122.825	1.159	123.984	4.26641023529611	end_round	1.159	columbia_card_task_fmri	30.0	0.6666666666666667	71.0	-50.0	0.3333333333333333	10.0	2.0	3.0	5.891407026539	1.159	1.0	stim	poldrack-single-stim	s548	False	1
124.736	1.5	123.985	n/a	-1.0	2.318	columbia_card_task_fmri	n/a	n/a	-1.0	n/a	n/a	n/a	n/a	n/a	n/a	n/a	n/a	ITI	poldrack-single-stim	s548	False	0
126.306	2.26	128.566	6.333076901962771	draw_card	2.26	columbia_card_task_fmri	17.0	0.8666666666666667	89.0	-70.0	0.1333333333333333	15.0	1.0	2.0	-2.243467014711168	2.26	n/a	stim	poldrack-single-stim	s548	False	1
128.568	1.366	129.934	5.504505473391344	draw_card	1.366	columbia_card_task_fmri	17.0	0.8571428571428572	89.0	-70.0	0.1428571428571428	15.0	2.0	2.0	-1.374541982467992	1.366	n/a	stim	poldrack-single-stim	s548	False	1
129.936	1.521	131.457	4.548461517347386	draw_card	1.521	columbia_card_task_fmri	17.0	0.8461538461538461	89.0	-70.0	0.1538461538461538	15.0	3.0	2.0	-0.4289254069611701	1.521	n/a	stim	poldrack-single-stim	s548	False	1
131.458	1.513	132.971	3.433076901962773	draw_card	1.513	columbia_card_task_fmri	17.0	0.8333333333333334	89.0	-70.0	0.1666666666666666	15.0	4.0	2.0	0.6039131208739832	1.513	n/a	stim	poldrack-single-stim	s548	False	1
132.974	0.625	133.599	2.1148950837809517	end_round	0.625	columbia_card_task_fmri	17.0	0.8181818181818181	71.0	-70.0	0.1818181818181818	15.0	5.0	2.0	1.7359054953105542	0.625	4.0	stim	poldrack-single-stim	s548	False	1
134.352	1.5	133.601	n/a	-1.0	2.59	columbia_card_task_fmri	n/a	n/a	-1.0	n/a	n/a	n/a	n/a	n/a	n/a	n/a	n/a	ITI	poldrack-single-stim	s548	False	0
136.193	3.367	139.56	1.5580769019627714	draw_card	3.367	columbia_card_task_fmri	7.0	0.9375	89.0	-95.0	0.0625	16.0	1.0	1.0	-7.1246023085601	3.367	n/a	stim	poldrack-single-stim	s548	False	1
139.561	2.987	142.548	1.1330769019627716	draw_card	2.987	columbia_card_task_fmri	7.0	0.9333333333333332	89.0	-95.0	0.0666666666666666	16.0	2.0	1.0	-6.372122166063271	2.987	n/a	stim	poldrack-single-stim	s548	False	1
142.551	1.632	144.183	0.6473626162484857	draw_card	1.632	columbia_card_task_fmri	7.0	0.9285714285714286	89.0	-95.0	0.0714285714285714	16.0	3.0	1.0	-5.546913252812715	1.632	n/a	stim	poldrack-single-stim	s548	False	1
144.184	1.39	145.574	0.0869230558089245	draw_card	1.39	columbia_card_task_fmri	7.0	0.9230769230769232	89.0	-95.0	0.0769230769230769	16.0	4.0	1.0	-4.636610316387362	1.39	n/a	stim	poldrack-single-stim	s548	False	1
145.576	0.756	146.332	-0.5669230980372287	draw_card	0.756	columbia_card_task_fmri	7.0	0.9166666666666666	89.0	-95.0	0.0833333333333333	16.0	5.0	1.0	-3.625747940088239	0.756	n/a	stim	poldrack-single-stim	s548	False	1
146.335	1.31	147.645	-1.339650370764502	draw_card	1.31	columbia_card_task_fmri	7.0	0.9090909090909092	89.0	-95.0	0.0909090909090909	16.0	6.0	1.0	-2.4947158010158645	1.31	n/a	stim	poldrack-single-stim	s548	False	1
147.647	0.829	148.476	-2.266923098037229	end_round	0.829	columbia_card_task_fmri	7.0	0.9	71.0	-95.0	0.1	16.0	7.0	1.0	-1.2182732199997872	0.829	6.0	stim	poldrack-single-stim	s548	False	1
149.23	1.5	148.479	n/a	-1.0	2.726	columbia_card_task_fmri	n/a	n/a	-1.0	n/a	n/a	n/a	n/a	n/a	n/a	n/a	n/a	ITI	poldrack-single-stim	s548	False	0
151.207	7.28	158.487	3.120576901962772	draw_card	7.28	columbia_card_task_fmri	9.0	0.9375	89.0	-100.0	0.0625	16.0	1.0	1.0	-5.431303230842172	7.28	n/a	stim	poldrack-single-stim	s548	False	1
158.489	0.474	158.963	2.6664102352961048	draw_card	0.474	columbia_card_task_fmri	9.0	0.9333333333333332	89.0	-100.0	0.0666666666666666	16.0	2.0	1.0	-4.627113109671349	0.474	n/a	stim	poldrack-single-stim	s548	False	1
158.966	2.113	161.079	2.1473626162484867	draw_card	2.113	columbia_card_task_fmri	9.0	0.9285714285714286	89.0	-100.0	0.0714285714285714	16.0	3.0	1.0	-3.745200895199893	2.113	n/a	stim	poldrack-single-stim	s548	False	1
161.081	3.072	164.153	1.5484615173473872	draw_card	3.072	columbia_card_task_fmri	9.0	0.9230769230769232	89.0	-100.0	0.0769230769230769	16.0	4.0	1.0	-2.7723525385558467	3.072	n/a	stim	poldrack-single-stim	s548	False	1
164.155	1.188	165.343	0.8497435686294391	draw_card	1.188	columbia_card_task_fmri	9.0	0.9166666666666666	89.0	-100.0	0.0833333333333333	16.0	5.0	1.0	-1.6920410390719525	1.188	n/a	stim	poldrack-single-stim	s548	False	1
165.345	1.57	166.915	0.0239859928718612	draw_card	1.57	columbia_card_task_fmri	9.0	0.9090909090909092	89.0	-100.0	0.0909090909090909	16.0	6.0	1.0	-0.4833099983852627	1.57	n/a	stim	poldrack-single-stim	s548	False	1
166.917	0.87	167.787	-0.9669230980372292	draw_card	0.87	columbia_card_task_fmri	9.0	0.9	89.0	-100.0	0.1	16.0	7.0	1.0	0.8808137789288111	0.87	n/a	stim	poldrack-single-stim	s548	False	1
167.79	0.833	168.623	-2.17803420914834	draw_card	0.833	columbia_card_task_fmri	9.0	0.8888888888888888	89.0	-100.0	0.1111111111111111	16.0	8.0	1.0	2.43560484694801	0.833	n/a	stim	poldrack-single-stim	s548	False	1
168.626	1.101	169.727	-3.6919230980372286	draw_card	1.101	columbia_card_task_fmri	9.0	0.875	89.0	-100.0	0.125	16.0	9.0	1.0	4.227939550899535	1.101	n/a	stim	poldrack-single-stim	s548	False	1
169.73	0.395	170.125	-5.638351669465799	draw_card	0.395	columbia_card_task_fmri	9.0	0.8571428571428572	89.0	-100.0	0.1428571428571428	16.0	10.0	1.0	6.320969948968404	0.395	n/a	stim	poldrack-single-stim	s548	False	1
170.127	1.052	171.179	-8.233589764703893	end_round	1.052	columbia_card_task_fmri	9.0	0.8333333333333334	71.0	-100.0	0.1666666666666666	16.0	11.0	1.0	8.80012053640693	1.052	10.0	stim	poldrack-single-stim	s548	False	1
171.933	1.5	171.182	n/a	-1.0	2.522	columbia_card_task_fmri	n/a	n/a	-1.0	n/a	n/a	n/a	n/a	n/a	n/a	n/a	n/a	ITI	poldrack-single-stim	s548	False	0
173.708	3.575	177.283	4.058076901962771	draw_card	3.575	columbia_card_task_fmri	15.0	0.875	89.0	-80.0	0.125	16.0	1.0	2.0	-0.400346669606197	3.575	n/a	stim	poldrack-single-stim	s548	False	1
177.285	0.658	177.943	3.2664102352961053	draw_card	0.658	columbia_card_task_fmri	15.0	0.8666666666666667	89.0	-80.0	0.1333333333333333	16.0	2.0	2.0	0.4747713794778931	0.658	n/a	stim	poldrack-single-stim	s548	False	1
177.946	0.788	178.734	2.361648330534202	draw_card	0.788	columbia_card_task_fmri	15.0	0.8571428571428572	89.0	-80.0	0.1428571428571428	16.0	3.0	2.0	1.4236715118761936	0.788	n/a	stim	poldrack-single-stim	s548	False	1
178.737	1.16	179.897	1.3176922865781546	draw_card	1.16	columbia_card_task_fmri	15.0	0.8461538461538461	89.0	-80.0	0.1538461538461538	16.0	4.0	2.0	2.4563171596842395	1.16	n/a	stim	poldrack-single-stim	s548	False	1
179.899	1.269	181.168	0.0997435686294391	draw_card	1.269	columbia_card_task_fmri	15.0	0.8333333333333334	89.0	-80.0	0.1666666666666666	16.0	5.0	2.0	3.5842071111085403	1.269	n/a	stim	poldrack-single-stim	s548	False	1
181.172	0.877	182.049	-1.3396503707645038	draw_card	0.877	columbia_card_task_fmri	15.0	0.8181818181818181	89.0	-80.0	0.1818181818181818	16.0	6.0	2.0	4.820370472726005	0.877	n/a	stim	poldrack-single-stim	s548	False	1
182.051	0.446	182.497	-3.0669230980372286	end_round	0.446	columbia_card_task_fmri	15.0	0.8	71.0	-80.0	0.2	16.0	7.0	2.0	6.178958028625402	0.446	6.0	stim	poldrack-single-stim	s548	False	1
183.251	1.5	182.5	n/a	-1.0	3.134	columbia_card_task_fmri	n/a	n/a	-1.0	n/a	n/a	n/a	n/a	n/a	n/a	n/a	n/a	ITI	poldrack-single-stim	s548	False	0
185.638	2.109	187.747	6.183076901962771	draw_card	2.109	columbia_card_task_fmri	16.0	0.875	89.0	-70.0	0.125	16.0	1.0	2.0	-3.375367962417154	2.109	n/a	stim	poldrack-single-stim	s548	False	1
187.749	0.651	188.4	5.466410235296104	draw_card	0.651	columbia_card_task_fmri	16.0	0.8666666666666667	89.0	-70.0	0.1333333333333333	16.0	2.0	2.0	-2.5832306222565222	0.651	n/a	stim	poldrack-single-stim	s548	False	1
188.402	0.819	189.221	4.647362616248486	draw_card	0.819	columbia_card_task_fmri	16.0	0.8571428571428572	89.0	-70.0	0.1428571428571428	16.0	3.0	2.0	-1.724302938643124	0.819	n/a	stim	poldrack-single-stim	s548	False	1
189.223	0.633	189.856	3.70230767119354	draw_card	0.633	columbia_card_task_fmri	16.0	0.8461538461538461	89.0	-70.0	0.1538461538461538	16.0	4.0	2.0	-0.7895654700606478	0.633	n/a	stim	poldrack-single-stim	s548	False	1
189.858	2.061	191.919	2.5997435686294392	draw_card	2.061	columbia_card_task_fmri	16.0	0.8333333333333334	89.0	-70.0	0.1666666666666666	16.0	5.0	2.0	0.2313911447498995	2.061	n/a	stim	poldrack-single-stim	s548	False	1
191.922	0.945	192.867	1.296713265599133	end_round	0.945	columbia_card_task_fmri	16.0	0.8181818181818181	71.0	-70.0	0.1818181818181818	16.0	6.0	2.0	1.3503616483541805	0.945	5.0	stim	poldrack-single-stim	s548	False	1
193.621	1.5	192.87	n/a	-1.0	2.386	columbia_card_task_fmri	n/a	n/a	-1.0	n/a	n/a	n/a	n/a	n/a	n/a	n/a	n/a	ITI	poldrack-single-stim	s548	False	0
195.26	1.934	197.194	7.495576901962771	draw_card	1.934	columbia_card_task_fmri	30.0	0.6875	89.0	-45.0	0.3125	16.0	1.0	5.0	2.943454464454156	1.934	n/a	stim	poldrack-single-stim	s548	False	1
197.198	2.792	199.99	5.933076901962775	end_round	2.792	columbia_card_task_fmri	30.0	0.6666666666666667	71.0	-45.0	0.3333333333333333	16.0	2.0	5.0	3.535153583085176	2.792	1.0	stim	poldrack-single-stim	s548	False	1
200.744	1.5	199.993	n/a	-1.0	2.386	columbia_card_task_fmri	n/a	n/a	-1.0	n/a	n/a	n/a	n/a	n/a	n/a	n/a	n/a	ITI	poldrack-single-stim	s548	False	0
202.384	3.663	206.047	-0.7335897647038948	draw_card	3.663	columbia_card_task_fmri	13.0	0.8333333333333334	89.0	-75.0	0.1666666666666666	6.0	1.0	1.0	0.9764386407339812	3.663	n/a	stim	poldrack-single-stim	s548	False	1
206.049	1.836	207.885	-3.666923098037228	draw_card	1.836	columbia_card_task_fmri	13.0	0.8	89.0	-75.0	0.2	6.0	2.0	1.0	3.3798688312922707	1.836	n/a	stim	poldrack-single-stim	s548	False	1
207.887	1.806	209.693	-8.066923098037229	draw_card	1.806	columbia_card_task_fmri	13.0	0.75	89.0	-75.0	0.25	6.0	3.0	1.0	6.284044207418525	1.806	n/a	stim	poldrack-single-stim	s548	False	1
209.695	0.409	210.104	-15.40025643137056	end_round	0.409	columbia_card_task_fmri	13.0	0.6666666666666667	71.0	-75.0	0.3333333333333333	6.0	4.0	1.0	9.661594262409118	0.409	3.0	stim	poldrack-single-stim	s548	False	1
210.858	1.5	210.107	n/a	-1.0	2.318	columbia_card_task_fmri	n/a	n/a	-1.0	n/a	n/a	n/a	n/a	n/a	n/a	n/a	n/a	ITI	poldrack-single-stim	s548	False	0
212.429	2.518	214.947	0.933076901962773	draw_card	2.518	columbia_card_task_fmri	14.0	0.8333333333333334	89.0	-70.0	0.1666666666666666	6.0	1.0	1.0	-0.5136416704803111	2.518	n/a	stim	poldrack-single-stim	s548	False	1
214.95	0.852	215.802	-1.866923098037228	draw_card	0.852	columbia_card_task_fmri	14.0	0.8	89.0	-70.0	0.2	6.0	2.0	1.0	1.7804574079841018	0.852	2.0	stim	poldrack-single-stim	s548	False	0
216.556	1.5	215.805	n/a	-1.0	2.318	columbia_card_task_fmri	n/a	n/a	-1.0	n/a	n/a	n/a	n/a	n/a	n/a	n/a	n/a	ITI	poldrack-single-stim	s548	False	0
218.127	0.967	219.094	0.933076901962773	draw_card	0.967	columbia_card_task_fmri	16.0	0.8333333333333334	89.0	-80.0	0.1666666666666666	6.0	1.0	1.0	3.956757094830977	0.967	n/a	stim	poldrack-single-stim	s548	False	1
219.097	0.449	219.546	-2.266923098037228	draw_card	0.449	columbia_card_task_fmri	16.0	0.8	89.0	-80.0	0.2	6.0	2.0	1.0	6.578838751886522	0.449	n/a	stim	poldrack-single-stim	s548	False	1
219.549	0.368	219.917	-7.066923098037229	draw_card	0.368	columbia_card_task_fmri	16.0	0.75	89.0	-80.0	0.25	6.0	3.0	1.0	9.747194208406114	0.368	3.0	stim	poldrack-single-stim	s548	False	0
220.67	1.5	219.919	n/a	-1.0	2.862	columbia_card_task_fmri	n/a	n/a	-1.0	n/a	n/a	n/a	n/a	n/a	n/a	n/a	n/a	ITI	poldrack-single-stim	s548	False	0
222.785	0.753	223.538	3.433076901962773	draw_card	0.753	columbia_card_task_fmri	17.0	0.8333333333333334	89.0	-70.0	0.1666666666666666	6.0	1.0	1.0	0.6039131208739832	0.753	n/a	stim	poldrack-single-stim	s548	False	1
223.541	0.354	223.895	0.5330769019627727	draw_card	0.354	columbia_card_task_fmri	17.0	0.8	89.0	-70.0	0.2	6.0	2.0	1.0	2.9800109042843985	0.354	n/a	stim	poldrack-single-stim	s548	False	1
223.898	0.874	224.772	-3.8169230980372286	draw_card	0.874	columbia_card_task_fmri	17.0	0.75	89.0	-70.0	0.25	6.0	3.0	1.0	5.851162757190046	0.874	3.0	stim	poldrack-single-stim	s548	False	0
225.525	1.5	224.774	n/a	-1.0	2.726	columbia_card_task_fmri	n/a	n/a	-1.0	n/a	n/a	n/a	n/a	n/a	n/a	n/a	n/a	ITI	poldrack-single-stim	s548	False	0
227.504	1.476	228.98	3.433076901962772	draw_card	1.476	columbia_card_task_fmri	25.0	0.75	89.0	-65.0	0.25	8.0	1.0	2.0	7.1498158541546815	1.476	n/a	stim	poldrack-single-stim	s548	False	1
228.982	1.431	230.413	0.2187911876770595	draw_card	1.431	columbia_card_task_fmri	25.0	0.7142857142857143	89.0	-65.0	0.2857142857142857	8.0	2.0	2.0	8.836065103144499	1.431	n/a	stim	poldrack-single-stim	s548	False	1
230.416	0.697	231.113	-4.0669230980372255	end_round	0.697	columbia_card_task_fmri	25.0	0.6666666666666667	71.0	-65.0	0.3333333333333333	8.0	3.0	2.0	10.604170197248727	0.697	2.0	stim	poldrack-single-stim	s548	False	1
231.868	1.5	231.117	n/a	-1.0	2.25	columbia_card_task_fmri	n/a	n/a	-1.0	n/a	n/a	n/a	n/a	n/a	n/a	n/a	n/a	ITI	poldrack-single-stim	s548	False	0
233.37	1.332	234.702	3.433076901962772	draw_card	1.332	columbia_card_task_fmri	30.0	0.75	89.0	-80.0	0.25	8.0	1.0	2.0	15.808039666623117	1.332	1.0	stim	poldrack-single-stim	s548	False	0
235.456	1.5	234.705	n/a	-1.0	2.318	columbia_card_task_fmri	n/a	n/a	-1.0	n/a	n/a	n/a	n/a	n/a	n/a	n/a	n/a	ITI	poldrack-single-stim	s548	False	0
237.027	0.876	237.903	3.1330769019627724	draw_card	0.876	columbia_card_task_fmri	13.0	0.9	89.0	-95.0	0.1	10.0	1.0	1.0	0.5809369661912882	0.876	n/a	stim	poldrack-single-stim	s548	False	1
237.905	0.702	238.607	1.9330769019627716	draw_card	0.702	columbia_card_task_fmri	13.0	0.8888888888888888	89.0	-95.0	0.1111111111111111	10.0	2.0	1.0	2.121452766689224	0.702	n/a	stim	poldrack-single-stim	s548	False	1
238.609	0.811	239.42	0.4330769019627712	draw_card	0.811	columbia_card_task_fmri	13.0	0.875	89.0	-95.0	0.125	10.0	3.0	1.0	3.897332394189952	0.811	n/a	stim	poldrack-single-stim	s548	False	1
239.422	0.444	239.866	-1.4954945266086557	draw_card	0.444	columbia_card_task_fmri	13.0	0.8571428571428572	89.0	-95.0	0.1428571428571428	10.0	4.0	1.0	5.9711484711735	0.444	n/a	stim	poldrack-single-stim	s548	False	1
239.869	0.871	240.74	-4.066923098037227	draw_card	0.871	columbia_card_task_fmri	13.0	0.8333333333333334	89.0	-95.0	0.1666666666666666	10.0	5.0	1.0	8.427541725492915	0.871	n/a	stim	poldrack-single-stim	s548	False	1
240.743	0.549	241.292	-7.666923098037229	end_round	0.549	columbia_card_task_fmri	13.0	0.8	71.0	-95.0	0.2	10.0	6.0	1.0	11.377579654130791	0.549	5.0	stim	poldrack-single-stim	s548	False	1
242.046	1.5	241.295	n/a	-1.0	2.454	columbia_card_task_fmri	n/a	n/a	-1.0	n/a	n/a	n/a	n/a	n/a	n/a	n/a	n/a	ITI	poldrack-single-stim	s548	False	0
243.755	1.927	245.682	4.533076901962771	draw_card	1.927	columbia_card_task_fmri	14.0	0.9	89.0	-90.0	0.1	10.0	1.0	1.0	-0.6185466103401502	1.927	n/a	stim	poldrack-single-stim	s548	False	1
245.685	3.576	249.261	3.3775213464072142	draw_card	3.576	columbia_card_task_fmri	14.0	0.8888888888888888	89.0	-90.0	0.1111111111111111	10.0	2.0	1.0	0.8648670476582154	3.576	n/a	stim	poldrack-single-stim	s548	False	1
249.264	1.11	250.374	1.9330769019627716	draw_card	1.11	columbia_card_task_fmri	14.0	0.875	89.0	-90.0	0.125	10.0	3.0	1.0	2.574925247588425	1.11	n/a	stim	poldrack-single-stim	s548	False	1
250.378	1.063	251.441	0.0759340448199153	draw_card	1.063	columbia_card_task_fmri	14.0	0.8571428571428572	89.0	-90.0	0.1428571428571428	10.0	4.0	1.0	4.571882863399225	1.063	n/a	stim	poldrack-single-stim	s548	False	1
251.444	1.008	252.452	-2.4002564313705608	draw_card	1.008	columbia_card_task_fmri	14.0	0.8333333333333334	89.0	-90.0	0.1666666666666666	10.0	5.0	1.0	6.937245547882185	1.008	5.0	stim	poldrack-single-stim	s548	False	0
253.206	1.5	252.455	n/a	-1.0	2.522	columbia_card_task_fmri	n/a	n/a	-1.0	n/a	n/a	n/a	n/a	n/a	n/a	n/a	n/a	ITI	poldrack-single-stim	s548	False	0
254.982	1.575	256.557	-0.266923098037228	draw_card	1.575	columbia_card_task_fmri	16.0	0.8	89.0	-70.0	0.2	10.0	1.0	2.0	2.580156279498432	1.575	n/a	stim	poldrack-single-stim	s548	False	1
256.56	0.386	256.946	-2.17803420914834	draw_card	0.386	columbia_card_task_fmri	16.0	0.7777777777777778	89.0	-70.0	0.2222222222222222	10.0	2.0	2.0	3.933292467992516	0.386	n/a	stim	poldrack-single-stim	s548	False	1
256.95	1.002	257.952	-4.566923098037229	draw_card	1.002	columbia_card_task_fmri	16.0	0.75	89.0	-70.0	0.25	10.0	3.0	2.0	5.418284357905776	1.002	n/a	stim	poldrack-single-stim	s548	False	1
257.955	1.031	258.986	-7.6383516694658	draw_card	1.031	columbia_card_task_fmri	16.0	0.7142857142857143	89.0	-70.0	0.2857142857142857	10.0	4.0	2.0	7.029547082951972	1.031	n/a	stim	poldrack-single-stim	s548	False	1
258.989	0.532	259.521	-11.733589764703892	end_round	0.532	columbia_card_task_fmri	16.0	0.6666666666666667	71.0	-70.0	0.3333333333333333	10.0	5.0	2.0	8.719029165534494	0.532	4.0	stim	poldrack-single-stim	s548	False	1
260.275	1.5	259.524	n/a	-1.0	2.318	columbia_card_task_fmri	n/a	n/a	-1.0	n/a	n/a	n/a	n/a	n/a	n/a	n/a	n/a	ITI	poldrack-single-stim	s548	False	0
261.846	3.723	265.569	-0.9835897647038948	draw_card	3.723	columbia_card_task_fmri	7.0	0.9166666666666666	89.0	-100.0	0.0833333333333333	12.0	1.0	1.0	-2.2445419446582555	3.723	n/a	stim	poldrack-single-stim	s548	False	1
265.572	0.606	266.178	-1.794195825309957	draw_card	0.606	columbia_card_task_fmri	7.0	0.9090909090909092	89.0	-100.0	0.0909090909090909	12.0	2.0	1.0	-1.0580100814434594	0.606	n/a	stim	poldrack-single-stim	s548	False	1
266.181	0.201	266.382	-2.766923098037229	draw_card	0.201	columbia_card_task_fmri	7.0	0.9	89.0	-100.0	0.1	12.0	3.0	1.0	0.2810624545748084	0.201	n/a	stim	poldrack-single-stim	s548	False	1
266.385	0.166	266.551	-3.955811986926118	draw_card	0.166	columbia_card_task_fmri	7.0	0.8888888888888888	89.0	-100.0	0.1111111111111111	12.0	4.0	1.0	1.807302883309504	0.166	n/a	stim	poldrack-single-stim	s548	False	1
266.555	0.561	267.116	-5.441923098037229	draw_card	0.561	columbia_card_task_fmri	7.0	0.875	89.0	-100.0	0.125	12.0	5.0	1.0	3.56672732532094	0.561	n/a	stim	poldrack-single-stim	s548	False	1
267.118	0.419	267.537	-7.352637383751514	end_round	0.419	columbia_card_task_fmri	7.0	0.8571428571428572	71.0	-100.0	0.1428571428571428	12.0	6.0	1.0	5.62132896682904	0.419	5.0	stim	poldrack-single-stim	s548	False	1
268.292	1.5	267.541	n/a	-1.0	2.522	columbia_card_task_fmri	n/a	n/a	-1.0	n/a	n/a	n/a	n/a	n/a	n/a	n/a	n/a	ITI	poldrack-single-stim	s548	False	0
270.066	1.125	271.191	-0.733589764703893	draw_card	1.125	columbia_card_task_fmri	14.0	0.8333333333333334	89.0	-80.0	0.1666666666666666	12.0	1.0	2.0	3.2116598496237856	1.125	n/a	stim	poldrack-single-stim	s548	False	1
271.195	0.367	271.562	-2.157832188946322	draw_card	0.367	columbia_card_task_fmri	14.0	0.8181818181818181	89.0	-80.0	0.1818181818181818	12.0	2.0	2.0	4.434802191880685	0.367	n/a	stim	poldrack-single-stim	s548	False	1
271.564	0.365	271.929	-3.866923098037228	draw_card	0.365	columbia_card_task_fmri	14.0	0.8	89.0	-80.0	0.2	12.0	3.0	2.0	5.779079842007988	0.365	n/a	stim	poldrack-single-stim	s548	False	1
271.933	0.379	272.312	-5.955811986926118	draw_card	0.379	columbia_card_task_fmri	14.0	0.7777777777777778	89.0	-80.0	0.2222222222222222	12.0	4.0	2.0	7.258174422130743	0.379	n/a	stim	poldrack-single-stim	s548	False	1
272.315	0.827	273.142	-8.566923098037229	draw_card	0.827	columbia_card_task_fmri	14.0	0.75	89.0	-80.0	0.25	12.0	5.0	2.0	8.8813915289035	0.827	n/a	stim	poldrack-single-stim	s548	False	1
273.146	0.459	273.605	-11.924065955180083	end_round	0.459	columbia_card_task_fmri	14.0	0.7142857142857143	71.0	-80.0	0.2857142857142857	12.0	6.0	2.0	10.642625472034474	0.459	5.0	stim	poldrack-single-stim	s548	False	1
274.358	1.5	273.607	n/a	-1.0	2.998	columbia_card_task_fmri	n/a	n/a	-1.0	n/a	n/a	n/a	n/a	n/a	n/a	n/a	n/a	ITI	poldrack-single-stim	s548	False	0
276.609	1.918	278.527	0.9330769019627712	draw_card	1.918	columbia_card_task_fmri	15.0	0.8333333333333334	89.0	-75.0	0.1666666666666666	12.0	1.0	2.0	1.7214998395384526	1.918	1.0	stim	poldrack-single-stim	s548	False	0
279.281	1.5	278.53	n/a	-1.0	2.318	columbia_card_task_fmri	n/a	n/a	-1.0	n/a	n/a	n/a	n/a	n/a	n/a	n/a	n/a	ITI	poldrack-single-stim	s548	False	0
280.853	1.526	282.379	-0.0669230980372287	draw_card	1.526	columbia_card_task_fmri	15.0	0.8	89.0	-65.0	0.2	15.0	1.0	3.0	0.1811048065728115	1.526	n/a	stim	poldrack-single-stim	s548	False	1
282.383	1.018	283.401	-1.209780240894371	draw_card	1.018	columbia_card_task_fmri	15.0	0.7857142857142857	89.0	-65.0	0.2142857142857142	15.0	2.0	3.0	1.006834948063677	1.018	n/a	stim	poldrack-single-stim	s548	False	1
283.403	0.976	284.379	-2.528461559575692	draw_card	0.976	columbia_card_task_fmri	15.0	0.7692307692307692	89.0	-65.0	0.2307692307692307	15.0	3.0	3.0	1.8864202248297417	0.976	n/a	stim	poldrack-single-stim	s548	False	1
284.384	1.013	285.397	-4.066923098037229	draw_card	1.013	columbia_card_task_fmri	15.0	0.75	89.0	-65.0	0.25	15.0	4.0	3.0	2.82108443464638	1.013	4.0	stim	poldrack-single-stim	s548	False	0
286.152	1.5	285.401	n/a	-1.0	2.25	columbia_card_task_fmri	n/a	n/a	-1.0	n/a	n/a	n/a	n/a	n/a	n/a	n/a	n/a	ITI	poldrack-single-stim	s548	False	0
287.655	1.209	288.864	-0.8169230980372287	draw_card	1.209	columbia_card_task_fmri	14.0	0.8125	89.0	-70.0	0.1875	16.0	1.0	3.0	0.9670182754156188	1.209	n/a	stim	poldrack-single-stim	s548	False	1
288.866	0.307	289.173	-1.866923098037228	draw_card	0.307	columbia_card_task_fmri	14.0	0.8	89.0	-70.0	0.2	16.0	2.0	3.0	1.7804574079841018	0.307	n/a	stim	poldrack-single-stim	s548	False	1
289.177	0.367	289.544	-3.0669230980372286	end_round	0.367	columbia_card_task_fmri	14.0	0.7857142857142857	71.0	-70.0	0.2142857142857142	16.0	3.0	3.0	2.6475074355898727	0.367	2.0	stim	poldrack-single-stim	s548	False	1
290.298	1.5	289.547	n/a	-1.0	2.454	columbia_card_task_fmri	n/a	n/a	-1.0	n/a	n/a	n/a	n/a	n/a	n/a	n/a	n/a	ITI	poldrack-single-stim	s548	False	0
292.006	1.409	293.415	-0.8794230980372287	draw_card	1.409	columbia_card_task_fmri	11.0	0.6875	89.0	-30.0	0.3125	16.0	1.0	5.0	-12.805594552566433	1.409	n/a	stim	poldrack-single-stim	s548	False	1
293.418	0.549	293.967	-1.7335897647038947	end_round	0.549	columbia_card_task_fmri	11.0	0.6666666666666667	71.0	-30.0	0.3333333333333333	16.0	2.0	5.0	-12.48240063751476	0.549	1.0	stim	poldrack-single-stim	s548	False	1
294.722	1.5	293.971	n/a	-1.0	2.318	columbia_card_task_fmri	n/a	n/a	-1.0	n/a	n/a	n/a	n/a	n/a	n/a	n/a	n/a	ITI	poldrack-single-stim	s548	False	0
296.293	1.186	297.479	3.9330769019627714	draw_card	1.186	columbia_card_task_fmri	15.0	0.8666666666666667	89.0	-75.0	0.1333333333333333	15.0	1.0	2.0	-1.2241534048392602	1.186	n/a	stim	poldrack-single-stim	s548	False	1
297.483	0.387	297.87	3.0759340448199155	draw_card	0.387	columbia_card_task_fmri	15.0	0.8571428571428572	89.0	-75.0	0.1428571428571428	15.0	2.0	2.0	-0.3252369755836319	0.387	n/a	stim	poldrack-single-stim	s548	False	1
297.873	0.349	298.222	2.0869230558089247	draw_card	0.349	columbia_card_task_fmri	15.0	0.8461538461538461	89.0	-75.0	0.1538461538461538	15.0	3.0	2.0	0.653016255242143	0.349	3.0	stim	poldrack-single-stim	s548	False	0
298.977	1.5	298.226	n/a	-1.0	2.318	columbia_card_task_fmri	n/a	n/a	-1.0	n/a	n/a	n/a	n/a	n/a	n/a	n/a	n/a	ITI	poldrack-single-stim	s548	False	0
300.549	1.128	301.677	5.666410235296105	draw_card	1.128	columbia_card_task_fmri	17.0	0.8666666666666667	89.0	-75.0	0.1333333333333333	15.0	1.0	2.0	-0.5445932461889917	1.128	n/a	stim	poldrack-single-stim	s548	False	1
301.681	0.587	302.268	4.79021975910563	draw_card	0.587	columbia_card_task_fmri	17.0	0.8571428571428572	89.0	-75.0	0.1428571428571428	15.0	2.0	2.0	0.3743169421809682	0.587	n/a	stim	poldrack-single-stim	s548	False	1
302.272	0.423	302.695	3.779230748116618	end_round	0.423	columbia_card_task_fmri	17.0	0.8461538461538461	71.0	-75.0	0.1538461538461538	15.0	3.0	2.0	1.3743274247485289	0.423	2.0	stim	poldrack-single-stim	s548	False	1
303.449	1.5	302.698	n/a	-1.0	2.59	columbia_card_task_fmri	n/a	n/a	-1.0	n/a	n/a	n/a	n/a	n/a	n/a	n/a	n/a	ITI	poldrack-single-stim	s548	False	0
305.292	1.096	306.388	1.2455769019627714	draw_card	1.096	columbia_card_task_fmri	2.0	0.9375	89.0	-25.0	0.0625	16.0	1.0	1.0	-25.230566198798	1.096	n/a	stim	poldrack-single-stim	s548	False	1
306.392	0.189	306.581	1.133076901962771	draw_card	0.189	columbia_card_task_fmri	2.0	0.9333333333333332	89.0	-25.0	0.0666666666666666	16.0	2.0	1.0	-25.03318475728849	0.189	n/a	stim	poldrack-single-stim	s548	False	1
306.584	0.14	306.724	1.004505473391343	draw_card	0.14	columbia_card_task_fmri	2.0	0.9285714285714286	89.0	-25.0	0.0714285714285714	16.0	3.0	1.0	-24.816608727579595	0.14	n/a	stim	poldrack-single-stim	s548	False	1
306.727	0.14	306.867	0.8561538250396944	draw_card	0.14	columbia_card_task_fmri	2.0	0.9230769230769232	89.0	-25.0	0.0769230769230769	16.0	4.0	1.0	-24.577570291004243	0.14	n/a	stim	poldrack-single-stim	s548	False	1
306.872	0.16	307.032	0.6830769019627715	draw_card	0.16	columbia_card_task_fmri	2.0	0.9166666666666666	89.0	-25.0	0.0833333333333333	16.0	5.0	1.0	-24.31198182425547	0.16	n/a	stim	poldrack-single-stim	s548	False	1
307.036	0.144	307.18	0.4785314474173164	draw_card	0.144	columbia_card_task_fmri	2.0	0.9090909090909092	89.0	-25.0	0.0909090909090909	16.0	6.0	1.0	-24.01465950964488	0.144	n/a	stim	poldrack-single-stim	s548	False	1
307.184	0.548	307.732	0.2330769019627713	draw_card	0.548	columbia_card_task_fmri	2.0	0.9	89.0	-25.0	0.1	16.0	7.0	1.0	-23.67893030463685	0.548	n/a	stim	poldrack-single-stim	s548	False	1
307.736	0.18	307.916	-0.0669230980372287	draw_card	0.18	columbia_card_task_fmri	2.0	0.8888888888888888	89.0	-25.0	0.1111111111111111	16.0	8.0	1.0	-23.296066207773748	0.18	n/a	stim	poldrack-single-stim	s548	False	1
307.921	0.33	308.251	-0.4419230980372287	draw_card	0.33	columbia_card_task_fmri	2.0	0.875	89.0	-25.0	0.125	16.0	9.0	1.0	-22.854466781171908	0.33	n/a	stim	poldrack-single-stim	s548	False	1
308.255	1.435	309.69	-0.9240659551800856	draw_card	1.435	columbia_card_task_fmri	2.0	0.8571428571428572	89.0	-25.0	0.1428571428571428	16.0	10.0	1.0	-22.33850106411439	1.435	10.0	stim	poldrack-single-stim	s548	False	0
310.444	1.5	309.693	n/a	-1.0	2.25	columbia_card_task_fmri	n/a	n/a	-1.0	n/a	n/a	n/a	n/a	n/a	n/a	n/a	n/a	ITI	poldrack-single-stim	s548	False	0
311.948	1.124	313.072	3.433076901962772	draw_card	1.124	columbia_card_task_fmri	9.0	0.9375	89.0	-95.0	0.0625	16.0	1.0	1.0	-6.640818093806093	1.124	n/a	stim	poldrack-single-stim	s548	False	1
313.077	0.19	313.267	2.9997435686294387	draw_card	0.19	columbia_card_task_fmri	9.0	0.9333333333333332	89.0	-95.0	0.0666666666666666	16.0	2.0	1.0	-5.873563214094116	0.19	n/a	stim	poldrack-single-stim	s548	False	1
313.271	0.165	313.436	2.5045054733913434	draw_card	0.165	columbia_card_task_fmri	9.0	0.9285714285714286	89.0	-95.0	0.0714285714285714	16.0	3.0	1.0	-5.03215288582771	0.165	n/a	stim	poldrack-single-stim	s548	False	1
313.439	0.137	313.576	1.9330769019627716	draw_card	0.137	columbia_card_task_fmri	9.0	0.9230769230769232	89.0	-95.0	0.0769230769230769	16.0	4.0	1.0	-4.103979341979429	0.137	n/a	stim	poldrack-single-stim	s548	False	1
313.579	0.38	313.959	1.2664102352961053	draw_card	0.38	columbia_card_task_fmri	9.0	0.9166666666666666	89.0	-95.0	0.0833333333333333	16.0	5.0	1.0	-3.0732738546033573	0.38	n/a	stim	poldrack-single-stim	s548	False	1
313.964	0.164	314.128	0.4785314474173162	draw_card	0.164	columbia_card_task_fmri	9.0	0.9090909090909092	89.0	-95.0	0.0909090909090909	16.0	6.0	1.0	-1.9200415060217215	0.164	n/a	stim	poldrack-single-stim	s548	False	1
314.132	0.174	314.306	-0.4669230980372291	draw_card	0.174	columbia_card_task_fmri	9.0	0.9	89.0	-95.0	0.1	16.0	7.0	1.0	-0.6185466103401502	0.174	n/a	stim	poldrack-single-stim	s548	False	1
314.309	0.537	314.846	-1.622478653592784	end_round	0.537	columbia_card_task_fmri	9.0	0.8888888888888888	71.0	-95.0	0.1111111111111111	16.0	8.0	1.0	0.8648670476582154	0.537	7.0	stim	poldrack-single-stim	s548	False	1
315.603	1.5	314.852	n/a	-1.0	2.25	columbia_card_task_fmri	n/a	n/a	-1.0	n/a	n/a	n/a	n/a	n/a	n/a	n/a	n/a	ITI	poldrack-single-stim	s548	False	0
317.106	1.21	318.316	4.995576901962771	draw_card	1.21	columbia_card_task_fmri	11.0	0.9375	89.0	-100.0	0.0625	16.0	1.0	1.0	-4.947477314937505	1.21	n/a	stim	poldrack-single-stim	s548	False	1
318.319	0.186	318.505	4.533076901962772	draw_card	0.186	columbia_card_task_fmri	11.0	0.9333333333333332	89.0	-100.0	0.0666666666666666	16.0	2.0	1.0	-4.128513686062103	0.186	n/a	stim	poldrack-single-stim	s548	False	1
318.508	0.151	318.659	4.004505473391344	draw_card	0.151	columbia_card_task_fmri	11.0	0.9285714285714286	89.0	-100.0	0.0714285714285714	16.0	3.0	1.0	-3.2304013242702467	0.151	n/a	stim	poldrack-single-stim	s548	False	1
318.662	0.15	318.812	3.394615363501234	draw_card	0.15	columbia_card_task_fmri	11.0	0.9230769230769232	89.0	-100.0	0.0769230769230769	16.0	4.0	1.0	-2.239683669668992	0.15	4.0	stim	poldrack-single-stim	s548	False	0
319.567	1.5	318.816	n/a	-1.0	2.522	columbia_card_task_fmri	n/a	n/a	-1.0	n/a	n/a	n/a	n/a	n/a	n/a	n/a	n/a	ITI	poldrack-single-stim	s548	False	0
321.343	0.966	322.309	5.558076901962771	draw_card	0.966	columbia_card_task_fmri	16.0	0.875	89.0	-75.0	0.125	16.0	1.0	2.0	-1.72261371263577	0.966	n/a	stim	poldrack-single-stim	s548	False	1
322.312	0.214	322.526	4.799743568629438	draw_card	0.214	columbia_card_task_fmri	16.0	0.8666666666666667	89.0	-75.0	0.1333333333333333	16.0	2.0	2.0	-0.8843750227617022	0.214	2.0	stim	poldrack-single-stim	s548	False	0
323.282	1.5	322.531	n/a	-1.0	2.454	columbia_card_task_fmri	n/a	n/a	-1.0	n/a	n/a	n/a	n/a	n/a	n/a	n/a	n/a	ITI	poldrack-single-stim	s548	False	0
324.99	0.595	325.585	5.808076901962771	draw_card	0.595	columbia_card_task_fmri	17.0	0.875	89.0	-80.0	0.125	16.0	1.0	2.0	0.2608056626959154	0.595	n/a	stim	poldrack-single-stim	s548	False	1
325.59	0.356	325.946	4.999743568629439	draw_card	0.356	columbia_card_task_fmri	17.0	0.8666666666666667	89.0	-80.0	0.1333333333333333	16.0	2.0	2.0	1.154362882733814	0.356	n/a	stim	poldrack-single-stim	s548	False	1
325.949	0.41	326.359	4.075934044819917	draw_card	0.41	columbia_card_task_fmri	17.0	0.8571428571428572	89.0	-80.0	0.1428571428571428	16.0	3.0	2.0	2.1232558813938027	0.41	n/a	stim	poldrack-single-stim	s548	False	1
326.363	0.378	326.741	3.009999978885848	draw_card	0.378	columbia_card_task_fmri	17.0	0.8461538461538461	89.0	-80.0	0.1538461538461538	16.0	4.0	2.0	3.1776578653079497	0.378	4.0	stim	poldrack-single-stim	s548	False	0
327.497	1.5	326.746	n/a	-1.0	2.25	columbia_card_task_fmri	n/a	n/a	-1.0	n/a	n/a	n/a	n/a	n/a	n/a	n/a	n/a	ITI	poldrack-single-stim	s548	False	0
340.003	1.144	341.147	0.0997435686294391	draw_card	1.144	columbia_card_task_fmri	13.0	0.8333333333333334	89.0	-70.0	0.1666666666666666	6.0	1.0	1.0	-0.8861522414628773	1.144	n/a	stim	poldrack-single-stim	s548	False	1
341.151	0.386	341.537	-2.6669230980372283	draw_card	0.386	columbia_card_task_fmri	13.0	0.8	89.0	-70.0	0.2	6.0	2.0	1.0	1.3806134111366148	0.386	2.0	stim	poldrack-single-stim	s548	False	0
342.292	1.5	341.541	n/a	-1.0	2.454	columbia_card_task_fmri	n/a	n/a	-1.0	n/a	n/a	n/a	n/a	n/a	n/a	n/a	n/a	ITI	poldrack-single-stim	s548	False	0
344.0	0.689	344.689	0.0997435686294391	draw_card	0.689	columbia_card_task_fmri	15.0	0.8333333333333334	89.0	-80.0	0.1666666666666666	6.0	1.0	1.0	3.5842071111085403	0.689	n/a	stim	poldrack-single-stim	s548	False	1
344.693	0.775	345.468	-3.0669230980372286	draw_card	0.775	columbia_card_task_fmri	15.0	0.8	89.0	-80.0	0.2	6.0	2.0	1.0	6.178958028625402	0.775	2.0	stim	poldrack-single-stim	s548	False	0
346.222	1.5	345.471	n/a	-1.0	2.454	columbia_card_task_fmri	n/a	n/a	-1.0	n/a	n/a	n/a	n/a	n/a	n/a	n/a	n/a	ITI	poldrack-single-stim	s548	False	0
347.931	0.757	348.688	1.7664102352961053	draw_card	0.757	columbia_card_task_fmri	16.0	0.8333333333333334	89.0	-75.0	0.1666666666666666	6.0	1.0	1.0	2.0940352953790797	0.757	n/a	stim	poldrack-single-stim	s548	False	1
348.694	0.272	348.966	-1.266923098037228	end_round	0.272	columbia_card_task_fmri	16.0	0.8	71.0	-75.0	0.2	6.0	2.0	1.0	4.579461337742401	0.272	1.0	stim	poldrack-single-stim	s548	False	1
349.721	1.5	348.97	n/a	-1.0	2.522	columbia_card_task_fmri	n/a	n/a	-1.0	n/a	n/a	n/a	n/a	n/a	n/a	n/a	n/a	ITI	poldrack-single-stim	s548	False	0
351.496	1.085	352.581	2.933076901962772	draw_card	1.085	columbia_card_task_fmri	21.0	0.75	89.0	-55.0	0.25	8.0	1.0	2.0	1.0896946427700414	1.085	n/a	stim	poldrack-single-stim	s548	False	1
352.585	0.395	352.98	0.2187911876770577	end_round	0.395	columbia_card_task_fmri	21.0	0.7142857142857143	71.0	-55.0	0.2857142857142857	8.0	2.0	2.0	2.5134811604363634	0.395	1.0	stim	poldrack-single-stim	s548	False	1
353.736	1.5	352.985	n/a	-1.0	2.454	columbia_card_task_fmri	n/a	n/a	-1.0	n/a	n/a	n/a	n/a	n/a	n/a	n/a	n/a	ITI	poldrack-single-stim	s548	False	0
355.444	2.115	357.559	4.183076901962771	draw_card	2.115	columbia_card_task_fmri	26.0	0.75	89.0	-65.0	0.25	8.0	1.0	2.0	7.582705858546618	2.115	1.0	stim	poldrack-single-stim	s548	False	0
358.314	1.5	357.563	n/a	-1.0	2.658	columbia_card_task_fmri	n/a	n/a	-1.0	n/a	n/a	n/a	n/a	n/a	n/a	n/a	n/a	ITI	poldrack-single-stim	s548	False	0
360.226	0.845	361.071	-0.7335897647038948	draw_card	0.845	columbia_card_task_fmri	15.0	0.7777777777777778	89.0	-60.0	0.2222222222222222	9.0	1.0	2.0	-0.6380596576011968	0.845	n/a	stim	poldrack-single-stim	s548	False	1
361.076	0.466	361.542	-2.8169230980372286	end_round	0.466	columbia_card_task_fmri	15.0	0.75	71.0	-60.0	0.25	9.0	2.0	2.0	0.6568582050852925	0.466	1.0	stim	poldrack-single-stim	s548	False	1
362.298	1.5	361.547	n/a	-1.0	2.386	columbia_card_task_fmri	n/a	n/a	-1.0	n/a	n/a	n/a	n/a	n/a	n/a	n/a	n/a	ITI	poldrack-single-stim	s548	False	0
363.938	1.169	365.107	3.633076901962773	draw_card	1.169	columbia_card_task_fmri	13.0	0.9	89.0	-90.0	0.1	10.0	1.0	1.0	-0.9184112414006442	1.169	1.0	stim	poldrack-single-stim	s548	False	0
365.863	1.5	365.112	n/a	-1.0	2.522	columbia_card_task_fmri	n/a	n/a	-1.0	n/a	n/a	n/a	n/a	n/a	n/a	n/a	n/a	ITI	poldrack-single-stim	s548	False	0
367.64	0.633	368.273	4.933076901962771	draw_card	0.633	columbia_card_task_fmri	15.0	0.9	89.0	-95.0	0.1	10.0	1.0	1.0	1.1806928300803603	0.633	n/a	stim	poldrack-single-stim	s548	False	1
368.277	0.927	369.204	3.710854679740548	draw_card	0.927	columbia_card_task_fmri	15.0	0.8888888888888888	89.0	-95.0	0.1111111111111111	10.0	2.0	1.0	2.749759064215212	0.927	2.0	stim	poldrack-single-stim	s548	False	0
369.96	1.5	369.209	n/a	-1.0	2.59	columbia_card_task_fmri	n/a	n/a	-1.0	n/a	n/a	n/a	n/a	n/a	n/a	n/a	n/a	ITI	poldrack-single-stim	s548	False	0
371.805	0.682	372.487	0.733076901962772	draw_card	0.682	columbia_card_task_fmri	16.0	0.8	89.0	-65.0	0.2	10.0	1.0	2.0	0.5809369661912882	0.682	n/a	stim	poldrack-single-stim	s548	False	1
372.492	0.34	372.832	-1.0669230980372268	end_round	0.34	columbia_card_task_fmri	16.0	0.7777777777777778	71.0	-65.0	0.2222222222222222	10.0	2.0	2.0	1.8553450827541056	0.34	1.0	stim	poldrack-single-stim	s548	False	1
373.586	1.5	372.835	n/a	-1.0	2.386	columbia_card_task_fmri	n/a	n/a	-1.0	n/a	n/a	n/a	n/a	n/a	n/a	n/a	n/a	ITI	poldrack-single-stim	s548	False	0
375.226	0.862	376.088	-0.5669230980372287	draw_card	0.862	columbia_card_task_fmri	7.0	0.9166666666666666	89.0	-95.0	0.0833333333333333	12.0	1.0	1.0	-3.625747940088239	0.862	n/a	stim	poldrack-single-stim	s548	False	1
376.094	0.21	376.304	-1.339650370764502	draw_card	0.21	columbia_card_task_fmri	7.0	0.9090909090909092	89.0	-95.0	0.0909090909090909	12.0	2.0	1.0	-2.4947158010158645	0.21	n/a	stim	poldrack-single-stim	s548	False	1
376.307	0.158	376.465	-2.266923098037229	draw_card	0.158	columbia_card_task_fmri	7.0	0.9	89.0	-95.0	0.1	12.0	3.0	1.0	-1.2182732199997872	0.158	n/a	stim	poldrack-single-stim	s548	False	1
376.469	0.434	376.903	-3.4002564313705625	end_round	0.434	columbia_card_task_fmri	7.0	0.8888888888888888	71.0	-95.0	0.1111111111111111	12.0	4.0	1.0	0.2365886792554405	0.434	3.0	stim	poldrack-single-stim	s548	False	1
377.659	1.5	376.908	n/a	-1.0	2.59	columbia_card_task_fmri	n/a	n/a	-1.0	n/a	n/a	n/a	n/a	n/a	n/a	n/a	n/a	ITI	poldrack-single-stim	s548	False	0
379.503	1.405	380.908	0.0997435686294391	draw_card	1.405	columbia_card_task_fmri	14.0	0.8333333333333334	89.0	-75.0	0.1666666666666666	12.0	1.0	2.0	1.3489675849742184	1.405	n/a	stim	poldrack-single-stim	s548	False	1
380.913	0.39	381.303	-1.248741279855412	end_round	0.39	columbia_card_task_fmri	14.0	0.8181818181818181	71.0	-75.0	0.1818181818181818	12.0	2.0	2.0	2.507003347146899	0.39	1.0	stim	poldrack-single-stim	s548	False	1
382.059	1.5	381.308	n/a	-1.0	2.318	columbia_card_task_fmri	n/a	n/a	-1.0	n/a	n/a	n/a	n/a	n/a	n/a	n/a	n/a	ITI	poldrack-single-stim	s548	False	0
383.632	1.083	384.715	1.7664102352961053	draw_card	1.083	columbia_card_task_fmri	15.0	0.8333333333333334	89.0	-70.0	0.1666666666666666	12.0	1.0	2.0	-0.1411271626718004	1.083	1.0	stim	poldrack-single-stim	s548	False	0
385.471	1.5	384.72	n/a	-1.0	2.25	columbia_card_task_fmri	n/a	n/a	-1.0	n/a	n/a	n/a	n/a	n/a	n/a	n/a	n/a	ITI	poldrack-single-stim	s548	False	0
386.976	1.448	388.424	-0.266923098037228	end_round	1.448	columbia_card_task_fmri	16.0	0.8	71.0	-70.0	0.2	15.0	1.0	3.0	2.580156279498432	1.448	0.0	stim	poldrack-single-stim	s548	False	1
389.18	1.5	388.429	n/a	-1.0	2.454	columbia_card_task_fmri	n/a	n/a	-1.0	n/a	n/a	n/a	n/a	n/a	n/a	n/a	n/a	ITI	poldrack-single-stim	s548	False	0
390.889	1.046	391.935	0.1205769019627712	draw_card	1.046	columbia_card_task_fmri	14.0	0.8125	89.0	-65.0	0.1875	16.0	1.0	3.0	-0.9837037999233827	1.046	n/a	stim	poldrack-single-stim	s548	False	1
391.94	0.469	392.409	-0.8669230980372277	end_round	0.469	columbia_card_task_fmri	14.0	0.8	71.0	-65.0	0.2	16.0	2.0	3.0	-0.2187231066640578	0.469	1.0	stim	poldrack-single-stim	s548	False	1
393.165	1.5	392.414	n/a	-1.0	3.27	columbia_card_task_fmri	n/a	n/a	-1.0	n/a	n/a	n/a	n/a	n/a	n/a	n/a	n/a	ITI	poldrack-single-stim	s548	False	0
395.69	0.89	396.58	-0.1294230980372287	draw_card	0.89	columbia_card_task_fmri	16.0	0.8125	89.0	-75.0	0.1875	16.0	1.0	3.0	3.698184134255413	0.89	n/a	stim	poldrack-single-stim	s548	False	1
396.584	0.84	397.424	-1.266923098037228	draw_card	0.84	columbia_card_task_fmri	16.0	0.8	89.0	-75.0	0.2	16.0	2.0	3.0	4.579461337742401	0.84	n/a	stim	poldrack-single-stim	s548	False	1
397.429	1.465	398.894	-2.566923098037227	draw_card	1.465	columbia_card_task_fmri	16.0	0.7857142857142857	89.0	-75.0	0.2142857142857142	16.0	3.0	3.0	5.518817729048493	1.465	n/a	stim	poldrack-single-stim	s548	False	1
398.899	0.552	399.451	-4.066923098037233	end_round	0.552	columbia_card_task_fmri	16.0	0.7692307692307692	71.0	-75.0	0.2307692307692307	16.0	4.0	3.0	6.519435338771999	0.552	3.0	stim	poldrack-single-stim	s548	False	1
400.207	1.5	399.456	n/a	-1.0	2.25	columbia_card_task_fmri	n/a	n/a	-1.0	n/a	n/a	n/a	n/a	n/a	n/a	n/a	n/a	ITI	poldrack-single-stim	s548	False	0
401.712	1.891	403.603	4.133076901962772	draw_card	1.891	columbia_card_task_fmri	16.0	0.8666666666666667	89.0	-80.0	0.1333333333333333	15.0	1.0	2.0	0.8145656852984118	1.891	1.0	stim	poldrack-single-stim	s548	False	0
404.359	1.5	403.608	n/a	-1.0	2.25	columbia_card_task_fmri	n/a	n/a	-1.0	n/a	n/a	n/a	n/a	n/a	n/a	n/a	n/a	ITI	poldrack-single-stim	s548	False	0
405.863	0.977	406.84	4.999743568629439	draw_card	0.977	columbia_card_task_fmri	17.0	0.8666666666666667	89.0	-80.0	0.1333333333333333	15.0	1.0	2.0	1.154362882733814	0.977	n/a	stim	poldrack-single-stim	s548	False	1
406.844	0.662	407.506	4.075934044819917	draw_card	0.662	columbia_card_task_fmri	17.0	0.8571428571428572	89.0	-80.0	0.1428571428571428	15.0	2.0	2.0	2.1232558813938027	0.662	n/a	stim	poldrack-single-stim	s548	False	1
407.51	0.578	408.088	3.009999978885848	end_round	0.578	columbia_card_task_fmri	17.0	0.8461538461538461	71.0	-80.0	0.1538461538461538	15.0	3.0	2.0	3.1776578653079497	0.578	2.0	stim	poldrack-single-stim	s548	False	1
408.844	1.5	408.093	n/a	-1.0	2.318	columbia_card_task_fmri	n/a	n/a	-1.0	n/a	n/a	n/a	n/a	n/a	n/a	n/a	n/a	ITI	poldrack-single-stim	s548	False	0
410.416	0.962	411.378	0.9330769019627712	draw_card	0.962	columbia_card_task_fmri	1.0	0.9375	89.0	-15.0	0.0625	16.0	1.0	1.0	-27.8486996930978	0.962	1.0	stim	poldrack-single-stim	s548	False	0
412.132	1.5	411.381	n/a	-1.0	2.726	columbia_card_task_fmri	n/a	n/a	-1.0	n/a	n/a	n/a	n/a	n/a	n/a	n/a	n/a	ITI	poldrack-single-stim	s548	False	0
414.113	0.838	414.951	4.058076901962771	draw_card	0.838	columbia_card_task_fmri	10.0	0.9375	89.0	-100.0	0.0625	16.0	1.0	1.0	-5.1893916216585865	0.838	n/a	stim	poldrack-single-stim	s548	False	1
414.955	0.2	415.155	3.5997435686294383	draw_card	0.2	columbia_card_task_fmri	10.0	0.9333333333333332	89.0	-100.0	0.0666666666666666	16.0	2.0	1.0	-4.3778147068587	0.2	n/a	stim	poldrack-single-stim	s548	False	1
415.159	0.385	415.544	3.0759340448199155	draw_card	0.385	columbia_card_task_fmri	10.0	0.9285714285714286	89.0	-100.0	0.0714285714285714	16.0	3.0	1.0	-3.487802377715852	0.385	n/a	stim	poldrack-single-stim	s548	False	1
415.549	0.388	415.937	2.4715384404243106	draw_card	0.388	columbia_card_task_fmri	10.0	0.9230769230769232	89.0	-100.0	0.0769230769230769	16.0	4.0	1.0	-2.506019329731661	0.388	n/a	stim	poldrack-single-stim	s548	False	1
415.941	0.349	416.29	1.7664102352961053	draw_card	0.349	columbia_card_task_fmri	10.0	0.9166666666666666	89.0	-100.0	0.0833333333333333	16.0	5.0	1.0	-1.4157869085522812	0.349	5.0	stim	poldrack-single-stim	s548	False	0
417.045	1.5	416.294	n/a	-1.0	2.386	columbia_card_task_fmri	n/a	n/a	-1.0	n/a	n/a	n/a	n/a	n/a	n/a	n/a	n/a	ITI	poldrack-single-stim	s548	False	0
418.686	1.251	419.937	4.683076901962771	draw_card	1.251	columbia_card_task_fmri	15.0	0.875	89.0	-75.0	0.125	16.0	1.0	2.0	-2.053172026534451	1.251	n/a	stim	poldrack-single-stim	s548	False	1
419.941	0.41	420.351	3.9330769019627714	draw_card	0.41	columbia_card_task_fmri	15.0	0.8666666666666667	89.0	-75.0	0.1333333333333333	16.0	2.0	2.0	-1.2241534048392602	0.41	n/a	stim	poldrack-single-stim	s548	False	1
420.355	0.378	420.733	3.0759340448199155	end_round	0.378	columbia_card_task_fmri	15.0	0.8571428571428572	71.0	-75.0	0.1428571428571428	16.0	3.0	2.0	-0.3252369755836319	0.378	2.0	stim	poldrack-single-stim	s548	False	1
421.489	1.5	420.738	n/a	-1.0	2.318	columbia_card_task_fmri	n/a	n/a	-1.0	n/a	n/a	n/a	n/a	n/a	n/a	n/a	n/a	ITI	poldrack-single-stim	s548	False	0
423.062	2.978	426.04	4.933076901962771	draw_card	2.978	columbia_card_task_fmri	16.0	0.875	89.0	-80.0	0.125	16.0	1.0	2.0	-0.0697719894481352	2.978	n/a	stim	poldrack-single-stim	s548	False	1
426.044	0.705	426.749	4.133076901962772	draw_card	0.705	columbia_card_task_fmri	16.0	0.8666666666666667	89.0	-80.0	0.1333333333333333	16.0	2.0	2.0	0.8145656852984118	0.705	n/a	stim	poldrack-single-stim	s548	False	1
426.753	0.951	427.704	3.21879118767706	draw_card	0.951	columbia_card_task_fmri	16.0	0.8571428571428572	89.0	-80.0	0.1428571428571428	16.0	3.0	2.0	1.7734622920169445	0.951	n/a	stim	poldrack-single-stim	s548	False	1
427.709	0.806	428.515	2.1638461327320013	draw_card	0.806	columbia_card_task_fmri	16.0	0.8461538461538461	89.0	-80.0	0.1538461538461538	16.0	4.0	2.0	2.8169861501179625	0.806	n/a	stim	poldrack-single-stim	s548	False	1
428.52	0.588	429.108	0.933076901962773	end_round	0.588	columbia_card_task_fmri	16.0	0.8333333333333334	71.0	-80.0	0.1666666666666666	16.0	5.0	2.0	3.956757094830977	0.588	4.0	stim	poldrack-single-stim	s548	False	1
429.863	1.5	429.112	n/a	-1.0	2.25	columbia_card_task_fmri	n/a	n/a	-1.0	n/a	n/a	n/a	n/a	n/a	n/a	n/a	n/a	ITI	poldrack-single-stim	s548	False	0
431.368	4.195	435.563	2.120576901962772	draw_card	4.195	columbia_card_task_fmri	4.0	0.6875	89.0	-5.0	0.3125	16.0	1.0	5.0	-27.557805741967144	4.195	n/a	stim	poldrack-single-stim	s548	False	1
435.568	0.425	435.993	1.933076901962772	end_round	0.425	columbia_card_task_fmri	4.0	0.6666666666666667	71.0	-5.0	0.3333333333333333	16.0	2.0	5.0	-27.488461808030884	0.425	1.0	stim	poldrack-single-stim	s548	False	1
436.749	1.5	435.998	n/a	-1.0	2.25	columbia_card_task_fmri	n/a	n/a	-1.0	n/a	n/a	n/a	n/a	n/a	n/a	n/a	n/a	ITI	poldrack-single-stim	s548	False	0
438.254	2.648	440.902	-0.733589764703893	draw_card	2.648	columbia_card_task_fmri	14.0	0.8333333333333334	89.0	-80.0	0.1666666666666666	6.0	1.0	1.0	3.2116598496237856	2.648	n/a	stim	poldrack-single-stim	s548	False	1
440.906	0.504	441.41	-3.866923098037228	end_round	0.504	columbia_card_task_fmri	14.0	0.8	71.0	-80.0	0.2	6.0	2.0	1.0	5.779079842007988	0.504	1.0	stim	poldrack-single-stim	s548	False	1
442.167	1.5	441.416	n/a	-1.0	2.454	columbia_card_task_fmri	n/a	n/a	-1.0	n/a	n/a	n/a	n/a	n/a	n/a	n/a	n/a	ITI	poldrack-single-stim	s548	False	0
443.875	6.4	450.275	0.9330769019627712	draw_card	6.4	columbia_card_task_fmri	15.0	0.8333333333333334	89.0	-75.0	0.1666666666666666	6.0	1.0	1.0	1.7214998395384526	6.4	1.0	stim	poldrack-single-stim	s548	False	0
451.03	1.5	450.279	n/a	-1.0	2.454	columbia_card_task_fmri	n/a	n/a	-1.0	n/a	n/a	n/a	n/a	n/a	n/a	n/a	n/a	ITI	poldrack-single-stim	s548	False	0
452.739	2.974	455.713	2.5997435686294392	draw_card	2.974	columbia_card_task_fmri	16.0	0.8333333333333334	89.0	-70.0	0.1666666666666666	6.0	1.0	1.0	0.2313911447498995	2.974	n/a	stim	poldrack-single-stim	s548	False	1
455.718	0.806	456.524	-0.266923098037228	end_round	0.806	columbia_card_task_fmri	16.0	0.8	71.0	-70.0	0.2	6.0	2.0	1.0	2.580156279498432	0.806	1.0	stim	poldrack-single-stim	s548	False	1
457.281	1.5	456.53	n/a	-1.0	2.522	columbia_card_task_fmri	n/a	n/a	-1.0	n/a	n/a	n/a	n/a	n/a	n/a	n/a	n/a	ITI	poldrack-single-stim	s548	False	0
459.059	2.619	461.678	3.183076901962772	draw_card	2.619	columbia_card_task_fmri	23.0	0.75	89.0	-60.0	0.25	8.0	1.0	2.0	4.11966856775198	2.619	1.0	stim	poldrack-single-stim	s548	False	0
462.434	1.5	461.683	n/a	-1.0	2.386	columbia_card_task_fmri	n/a	n/a	-1.0	n/a	n/a	n/a	n/a	n/a	n/a	n/a	n/a	ITI	poldrack-single-stim	s548	False	0
464.075	1.843	465.918	3.6830769019627714	end_round	1.843	columbia_card_task_fmri	27.0	0.75	71.0	-70.0	0.25	8.0	1.0	2.0	10.180098991055168	1.843	0.0	stim	poldrack-single-stim	s548	False	1
466.674	1.5	465.923	n/a	-1.0	2.454	columbia_card_task_fmri	n/a	n/a	-1.0	n/a	n/a	n/a	n/a	n/a	n/a	n/a	n/a	ITI	poldrack-single-stim	s548	False	0
468.383	1.317	469.7	-1.0669230980372268	draw_card	1.317	columbia_card_task_fmri	16.0	0.7777777777777778	89.0	-65.0	0.2222222222222222	9.0	1.0	2.0	1.8553450827541056	1.317	n/a	stim	poldrack-single-stim	s548	False	1
469.705	2.897	472.602	-3.3169230980372286	end_round	2.897	columbia_card_task_fmri	16.0	0.75	71.0	-65.0	0.25	9.0	2.0	2.0	3.253942077922794	2.897	1.0	stim	poldrack-single-stim	s548	False	1
473.357	1.5	472.606	n/a	-1.0	2.522	columbia_card_task_fmri	n/a	n/a	-1.0	n/a	n/a	n/a	n/a	n/a	n/a	n/a	n/a	ITI	poldrack-single-stim	s548	False	0
475.135	2.162	477.297	4.133076901962772	draw_card	2.162	columbia_card_task_fmri	13.0	0.9	89.0	-85.0	0.1	10.0	1.0	1.0	-2.41769298740169	2.162	n/a	stim	poldrack-single-stim	s548	False	1
477.302	0.961	478.263	3.044188013073882	draw_card	0.961	columbia_card_task_fmri	13.0	0.8888888888888888	89.0	-85.0	0.1111111111111111	10.0	2.0	1.0	-1.0199361205382935	0.961	n/a	stim	poldrack-single-stim	s548	False	1
478.268	2.44	480.708	1.6830769019627714	end_round	2.44	columbia_card_task_fmri	13.0	0.875	71.0	-85.0	0.125	10.0	3.0	1.0	0.5913861959233273	2.44	2.0	stim	poldrack-single-stim	s548	False	1
481.463	1.5	480.712	n/a	-1.0	2.522	columbia_card_task_fmri	n/a	n/a	-1.0	n/a	n/a	n/a	n/a	n/a	n/a	n/a	n/a	ITI	poldrack-single-stim	s548	False	0
483.239	1.442	484.681	-0.8669230980372277	draw_card	1.442	columbia_card_task_fmri	14.0	0.8	89.0	-65.0	0.2	10.0	1.0	2.0	-0.2187231066640578	1.442	n/a	stim	poldrack-single-stim	s548	False	1
484.686	0.569	485.255	-2.622478653592782	draw_card	0.569	columbia_card_task_fmri	14.0	0.7777777777777778	89.0	-65.0	0.2222222222222222	10.0	2.0	2.0	1.0241927366210817	0.569	n/a	stim	poldrack-single-stim	s548	False	1
485.26	0.649	485.909	-4.816923098037229	end_round	0.649	columbia_card_task_fmri	14.0	0.75	71.0	-65.0	0.25	10.0	3.0	2.0	2.388230714742676	0.649	2.0	stim	poldrack-single-stim	s548	False	1
486.664	1.5	485.913	n/a	-1.0	2.59	columbia_card_task_fmri	n/a	n/a	-1.0	n/a	n/a	n/a	n/a	n/a	n/a	n/a	n/a	ITI	poldrack-single-stim	s548	False	0
488.51	1.194	489.704	0.5330769019627727	draw_card	1.194	columbia_card_task_fmri	17.0	0.8	89.0	-70.0	0.2	10.0	1.0	2.0	2.9800109042843985	1.194	n/a	stim	poldrack-single-stim	s548	False	1
489.709	1.303	491.012	-1.4002564313705608	draw_card	1.303	columbia_card_task_fmri	17.0	0.7777777777777778	89.0	-70.0	0.2222222222222222	10.0	2.0	2.0	4.348892300592922	1.303	2.0	stim	poldrack-single-stim	s548	False	0
491.768	1.5	491.017	n/a	-1.0	2.454	columbia_card_task_fmri	n/a	n/a	-1.0	n/a	n/a	n/a	n/a	n/a	n/a	n/a	n/a	ITI	poldrack-single-stim	s548	False	0
493.477	3.142	496.619	-0.7335897647038948	draw_card	3.142	columbia_card_task_fmri	13.0	0.8333333333333334	89.0	-75.0	0.1666666666666666	12.0	1.0	2.0	0.9764386407339812	3.142	n/a	stim	poldrack-single-stim	s548	False	1
496.624	0.51	497.134	-2.0669230980372304	draw_card	0.51	columbia_card_task_fmri	13.0	0.8181818181818181	89.0	-75.0	0.1818181818181818	12.0	2.0	2.0	2.1214527666892167	0.51	n/a	stim	poldrack-single-stim	s548	False	1
497.138	0.862	498.0	-3.666923098037228	draw_card	0.862	columbia_card_task_fmri	13.0	0.8	89.0	-75.0	0.2	12.0	3.0	2.0	3.3798688312922707	0.862	n/a	stim	poldrack-single-stim	s548	False	1
498.006	0.493	498.499	-5.622478653592783	draw_card	0.493	columbia_card_task_fmri	13.0	0.7777777777777778	89.0	-75.0	0.2222222222222222	12.0	4.0	2.0	4.764495310649096	0.493	n/a	stim	poldrack-single-stim	s548	False	1
498.503	0.557	499.06	-8.066923098037229	end_round	0.557	columbia_card_task_fmri	13.0	0.75	71.0	-75.0	0.25	12.0	5.0	2.0	6.284044207418525	0.557	4.0	stim	poldrack-single-stim	s548	False	1
499.816	1.5	499.065	n/a	-1.0	2.318	columbia_card_task_fmri	n/a	n/a	-1.0	n/a	n/a	n/a	n/a	n/a	n/a	n/a	n/a	ITI	poldrack-single-stim	s548	False	0
501.389	1.865	503.254	0.933076901962773	draw_card	1.865	columbia_card_task_fmri	14.0	0.8333333333333334	89.0	-70.0	0.1666666666666666	12.0	1.0	2.0	-0.5136416704803111	1.865	1.0	stim	poldrack-single-stim	s548	False	0
504.011	1.5	503.26	n/a	-1.0	2.25	columbia_card_task_fmri	n/a	n/a	-1.0	n/a	n/a	n/a	n/a	n/a	n/a	n/a	n/a	ITI	poldrack-single-stim	s548	False	0
505.515	1.247	506.762	0.933076901962773	draw_card	1.247	columbia_card_task_fmri	16.0	0.8333333333333334	89.0	-80.0	0.1666666666666666	12.0	1.0	2.0	3.956757094830977	1.247	n/a	stim	poldrack-single-stim	s548	False	1
506.767	1.309	508.076	-0.5214685525826855	draw_card	1.309	columbia_card_task_fmri	16.0	0.8181818181818181	89.0	-80.0	0.1818181818181818	12.0	2.0	2.0	5.205941384119349	1.309	n/a	stim	poldrack-single-stim	s548	False	1
508.081	1.525	509.606	-2.266923098037228	end_round	1.525	columbia_card_task_fmri	16.0	0.8	71.0	-80.0	0.2	12.0	3.0	2.0	6.578838751886522	1.525	2.0	stim	poldrack-single-stim	s548	False	1
510.362	1.5	509.611	n/a	-1.0	2.658	columbia_card_task_fmri	n/a	n/a	-1.0	n/a	n/a	n/a	n/a	n/a	n/a	n/a	n/a	ITI	poldrack-single-stim	s548	False	0
512.275	1.534	513.809	0.733076901962772	draw_card	1.534	columbia_card_task_fmri	16.0	0.8	89.0	-65.0	0.2	15.0	1.0	3.0	0.5809369661912882	1.534	1.0	stim	poldrack-single-stim	s548	False	0
514.566	1.5	513.815	n/a	-1.0	2.454	columbia_card_task_fmri	n/a	n/a	-1.0	n/a	n/a	n/a	n/a	n/a	n/a	n/a	n/a	ITI	poldrack-single-stim	s548	False	0
516.275	1.603	517.878	-0.9419230980372288	end_round	1.603	columbia_card_task_fmri	15.0	0.8125	71.0	-75.0	0.1875	16.0	1.0	3.0	3.3080078666612067	1.603	0.0	stim	poldrack-single-stim	s548	False	1
518.634	1.5	517.883	n/a	-1.0	2.386	columbia_card_task_fmri	n/a	n/a	-1.0	n/a	n/a	n/a	n/a	n/a	n/a	n/a	n/a	ITI	poldrack-single-stim	s548	False	0
520.275	1.257	521.532	-0.3794230980372287	draw_card	1.257	columbia_card_task_fmri	14.0	0.6875	89.0	-35.0	0.3125	16.0	1.0	5.0	-9.101229445659158	1.257	n/a	stim	poldrack-single-stim	s548	False	1
521.536	0.217	521.753	-1.4002564313705608	draw_card	0.217	columbia_card_task_fmri	14.0	0.6666666666666667	89.0	-35.0	0.3333333333333333	16.0	2.0	5.0	-8.714836278057838	0.217	n/a	stim	poldrack-single-stim	s548	False	1
521.759	1.059	522.818	-2.5669230980372286	draw_card	1.059	columbia_card_task_fmri	14.0	0.6428571428571428	89.0	-35.0	0.3571428571428571	16.0	3.0	5.0	-8.335248597111782	1.059	n/a	stim	poldrack-single-stim	s548	False	1
522.823	1.697	524.52	-3.9130769441910735	end_round	1.697	columbia_card_task_fmri	14.0	0.6153846153846154	71.0	-35.0	0.3846153846153846	16.0	4.0	5.0	-7.975533510462096	1.697	3.0	stim	poldrack-single-stim	s548	False	1
525.276	1.5	524.525	n/a	-1.0	2.59	columbia_card_task_fmri	n/a	n/a	-1.0	n/a	n/a	n/a	n/a	n/a	n/a	n/a	n/a	ITI	poldrack-single-stim	s548	False	0
527.122	1.863	528.985	4.799743568629438	draw_card	1.863	columbia_card_task_fmri	16.0	0.8666666666666667	89.0	-75.0	0.1333333333333333	15.0	1.0	2.0	-0.8843750227617022	1.863	1.0	stim	poldrack-single-stim	s548	False	0
529.741	1.5	528.99	n/a	-1.0	2.318	columbia_card_task_fmri	n/a	n/a	-1.0	n/a	n/a	n/a	n/a	n/a	n/a	n/a	n/a	ITI	poldrack-single-stim	s548	False	0
531.314	1.601	532.915	5.466410235296104	draw_card	1.601	columbia_card_task_fmri	16.0	0.8666666666666667	89.0	-70.0	0.1333333333333333	15.0	1.0	2.0	-2.5832306222565222	1.601	n/a	stim	poldrack-single-stim	s548	False	1
532.919	0.668	533.587	4.647362616248486	end_round	0.668	columbia_card_task_fmri	16.0	0.8571428571428572	71.0	-70.0	0.1428571428571428	15.0	2.0	2.0	-1.724302938643124	0.668	1.0	stim	poldrack-single-stim	s548	False	1
534.344	1.5	533.593	n/a	-1.0	2.59	columbia_card_task_fmri	n/a	n/a	-1.0	n/a	n/a	n/a	n/a	n/a	n/a	n/a	n/a	ITI	poldrack-single-stim	s548	False	0
536.188	4.499	540.687	2.808076901962772	draw_card	4.499	columbia_card_task_fmri	8.0	0.9375	89.0	-90.0	0.0625	16.0	1.0	1.0	-8.092129310674078	4.499	n/a	stim	poldrack-single-stim	s548	False	1
540.692	1.3	541.992	2.399743568629438	end_round	1.3	columbia_card_task_fmri	8.0	0.9333333333333332	71.0	-90.0	0.0666666666666666	16.0	2.0	1.0	-7.369199863575332	1.3	1.0	stim	poldrack-single-stim	s548	False	1
542.749	1.5	541.998	n/a	-1.0	2.386	columbia_card_task_fmri	n/a	n/a	-1.0	n/a	n/a	n/a	n/a	n/a	n/a	n/a	n/a	ITI	poldrack-single-stim	s548	False	0
544.389	3.404	547.793	4.370576901962771	draw_card	3.404	columbia_card_task_fmri	10.0	0.9375	89.0	-95.0	0.0625	16.0	1.0	1.0	-6.398921152755655	3.404	n/a	stim	poldrack-single-stim	s548	False	1
547.799	0.996	548.795	3.933076901962772	draw_card	0.996	columbia_card_task_fmri	10.0	0.9333333333333332	89.0	-95.0	0.0666666666666666	16.0	2.0	1.0	-5.624279046923405	0.996	n/a	stim	poldrack-single-stim	s548	False	1
548.801	1.775	550.576	3.4330769019627723	draw_card	1.775	columbia_card_task_fmri	10.0	0.9285714285714286	89.0	-95.0	0.0714285714285714	16.0	3.0	1.0	-4.774768158064237	1.775	n/a	stim	poldrack-single-stim	s548	False	1
550.581	1.654	552.235	2.8561538250396947	draw_card	1.654	columbia_card_task_fmri	10.0	0.9230769230769232	89.0	-95.0	0.0769230769230769	16.0	4.0	1.0	-3.837659462263215	1.654	n/a	stim	poldrack-single-stim	s548	False	1
552.239	1.153	553.392	2.183076901962772	draw_card	1.153	columbia_card_task_fmri	10.0	0.9166666666666666	89.0	-95.0	0.0833333333333333	16.0	5.0	1.0	-2.797032576431082	1.153	n/a	stim	poldrack-single-stim	s548	False	1
553.398	0.86	554.258	1.3876223565082246	draw_card	0.86	columbia_card_task_fmri	10.0	0.9090909090909092	89.0	-95.0	0.0909090909090909	16.0	6.0	1.0	-1.6327002860580393	0.86	n/a	stim	poldrack-single-stim	s548	False	1
554.262	0.678	554.94	0.4330769019627712	draw_card	0.678	columbia_card_task_fmri	10.0	0.9	89.0	-95.0	0.1	16.0	7.0	1.0	-0.3186794025355048	0.678	n/a	stim	poldrack-single-stim	s548	False	1
554.946	1.705	556.651	-0.7335897647038948	draw_card	1.705	columbia_card_task_fmri	10.0	0.8888888888888888	89.0	-95.0	0.1111111111111111	16.0	8.0	1.0	1.1790099580628066	1.705	n/a	stim	poldrack-single-stim	s548	False	1
556.657	1.878	558.535	-2.1919230980372286	draw_card	1.878	columbia_card_task_fmri	10.0	0.875	89.0	-95.0	0.125	16.0	9.0	1.0	2.9055236895464205	1.878	n/a	stim	poldrack-single-stim	s548	False	1
558.54	2.236	560.776	-4.066923098037227	end_round	2.236	columbia_card_task_fmri	10.0	0.8571428571428572	71.0	-95.0	0.1428571428571428	16.0	10.0	1.0	4.9216961038862905	2.236	9.0	stim	poldrack-single-stim	s548	False	1
561.532	1.5	560.781	n/a	-1.0	2.318	columbia_card_task_fmri	n/a	n/a	-1.0	n/a	n/a	n/a	n/a	n/a	n/a	n/a	n/a	ITI	poldrack-single-stim	s548	False	0
563.106	5.041	568.147	5.308076901962771	draw_card	5.041	columbia_card_task_fmri	15.0	0.875	89.0	-70.0	0.125	16.0	1.0	2.0	-3.705906958577362	5.041	n/a	stim	poldrack-single-stim	s548	False	1
568.153	1.193	569.346	4.599743568629437	draw_card	1.193	columbia_card_task_fmri	15.0	0.8666666666666667	89.0	-70.0	0.1333333333333333	16.0	2.0	2.0	-2.9229902087524597	1.193	n/a	stim	poldrack-single-stim	s548	False	1
569.352	0.647	569.999	3.790219759105629	draw_card	0.647	columbia_card_task_fmri	15.0	0.8571428571428572	89.0	-70.0	0.1428571428571428	16.0	3.0	2.0	-2.0740599882576056	0.647	n/a	stim	poldrack-single-stim	s548	False	1
570.004	1.325	571.329	2.856153825039693	draw_card	1.325	columbia_card_task_fmri	15.0	0.8461538461538461	89.0	-70.0	0.1538461538461538	16.0	4.0	2.0	-1.150201744014268	1.325	n/a	stim	poldrack-single-stim	s548	False	1
571.333	0.586	571.919	1.7664102352961053	draw_card	0.586	columbia_card_task_fmri	15.0	0.8333333333333334	89.0	-70.0	0.1666666666666666	16.0	5.0	2.0	-0.1411271626718004	0.586	5.0	stim	poldrack-single-stim	s548	False	0
572.675	1.5	571.924	n/a	-1.0	2.318	columbia_card_task_fmri	n/a	n/a	-1.0	n/a	n/a	n/a	n/a	n/a	n/a	n/a	n/a	ITI	poldrack-single-stim	s548	False	0
574.249	1.936	576.185	4.308076901962771	draw_card	1.936	columbia_card_task_fmri	16.0	0.875	89.0	-85.0	0.125	16.0	1.0	2.0	1.5831442270262528	1.936	n/a	stim	poldrack-single-stim	s548	False	1
576.19	0.667	576.857	3.4664102352961046	draw_card	0.667	columbia_card_task_fmri	16.0	0.8666666666666667	89.0	-85.0	0.1333333333333333	16.0	2.0	2.0	2.513578872150518	0.667	2.0	stim	poldrack-single-stim	s548	False	0
577.614	1.5	576.863	n/a	-1.0	2.318	columbia_card_task_fmri	n/a	n/a	-1.0	n/a	n/a	n/a	n/a	n/a	n/a	n/a	n/a	ITI	poldrack-single-stim	s548	False	0
