onset	duration	movement_onset	block_duration	condition	correct	correct_response	experiment_exp_id	key_press	response_time	trial_id	trial_type	worker_id	junk
3.008	0.5	3.007	0.5	AX	n/a	n/a	dot_pattern_expectancy	-1.0	n/a	cue	AX	s548	False
5.511	0.5	5.865	2.18	AX	1.0	89.0	dot_pattern_expectancy	89.0	0.354	probe	AX	s548	False
7.693	0.5	7.692	0.5	AY	n/a	n/a	dot_pattern_expectancy	-1.0	n/a	cue	AY	s548	False
10.197	0.5	10.677	2.316	AY	1.0	71.0	dot_pattern_expectancy	71.0	0.48	probe	AY	s548	False
12.514	0.5	12.513	0.5	AY	n/a	n/a	dot_pattern_expectancy	-1.0	n/a	cue	AY	s548	False
15.018	0.5	15.3	1.636	AY	0.0	71.0	dot_pattern_expectancy	89.0	0.282	probe	AY	s548	False
16.657	0.5	16.656	0.5	BX	n/a	n/a	dot_pattern_expectancy	-1.0	n/a	cue	BX	s548	False
19.16	0.5	19.477	1.908	BX	1.0	71.0	dot_pattern_expectancy	71.0	0.317	probe	BX	s548	False
21.069	0.5	21.068	0.5	AX	n/a	n/a	dot_pattern_expectancy	-1.0	n/a	cue	AX	s548	False
23.574	0.5	24.053	3.54	AX	1.0	89.0	dot_pattern_expectancy	89.0	0.479	probe	AX	s548	False
27.117	0.5	27.116	0.5	BX	n/a	n/a	dot_pattern_expectancy	-1.0	n/a	cue	BX	s548	False
29.621	0.5	29.88	1.636	BX	1.0	71.0	dot_pattern_expectancy	71.0	0.259	probe	BX	s548	False
31.259	0.5	31.258	0.5	BY	n/a	n/a	dot_pattern_expectancy	-1.0	n/a	cue	BY	s548	False
33.763	0.5	34.047	1.5	BY	1.0	71.0	dot_pattern_expectancy	71.0	0.284	probe	BY	s548	False
35.265	0.5	35.264	0.5	AX	n/a	n/a	dot_pattern_expectancy	-1.0	n/a	cue	AX	s548	False
37.768	0.5	38.231	1.5	AX	1.0	89.0	dot_pattern_expectancy	89.0	0.463	probe	AX	s548	False
39.27	0.5	39.269	0.5	AX	n/a	n/a	dot_pattern_expectancy	-1.0	n/a	cue	AX	s548	False
41.776	0.5	42.126	1.772	AX	1.0	89.0	dot_pattern_expectancy	89.0	0.35	probe	AX	s548	False
43.55	0.5	43.549	0.5	BY	n/a	n/a	dot_pattern_expectancy	-1.0	n/a	cue	BY	s548	False
46.054	0.5	46.309	2.452	BY	1.0	71.0	dot_pattern_expectancy	71.0	0.255	probe	BY	s548	False
48.509	0.5	48.508	0.5	AX	n/a	n/a	dot_pattern_expectancy	-1.0	n/a	cue	AX	s548	False
51.013	0.5	51.43	1.908	AX	1.0	89.0	dot_pattern_expectancy	89.0	0.417	probe	AX	s548	False
52.924	0.5	52.923	0.5	BX	n/a	n/a	dot_pattern_expectancy	-1.0	n/a	cue	BX	s548	False
55.427	0.5	55.639	1.636	BX	1.0	71.0	dot_pattern_expectancy	71.0	0.212	probe	BX	s548	False
57.065	0.5	57.064	0.5	AX	n/a	n/a	dot_pattern_expectancy	-1.0	n/a	cue	AX	s548	False
59.569	0.5	59.947	1.5	AX	1.0	89.0	dot_pattern_expectancy	89.0	0.378	probe	AX	s548	False
61.071	0.5	61.07	0.5	AX	n/a	n/a	dot_pattern_expectancy	-1.0	n/a	cue	AX	s548	False
63.575	0.5	63.976	1.636	AX	1.0	89.0	dot_pattern_expectancy	89.0	0.401	probe	AX	s548	False
65.214	0.5	65.213	0.5	AX	n/a	n/a	dot_pattern_expectancy	-1.0	n/a	cue	AX	s548	False
67.718	0.5	68.128	1.636	AX	1.0	89.0	dot_pattern_expectancy	89.0	0.41	probe	AX	s548	False
69.357	0.5	69.356	0.5	BY	n/a	n/a	dot_pattern_expectancy	-1.0	n/a	cue	BY	s548	False
71.861	0.5	72.067	2.452	BY	1.0	71.0	dot_pattern_expectancy	71.0	0.206	probe	BY	s548	False
74.316	0.5	74.315	0.5	AX	n/a	n/a	dot_pattern_expectancy	-1.0	n/a	cue	AX	s548	False
76.821	0.5	77.227	1.5	AX	1.0	89.0	dot_pattern_expectancy	89.0	0.406	probe	AX	s548	False
78.324	0.5	78.323	0.5	BY	n/a	n/a	dot_pattern_expectancy	-1.0	n/a	cue	BY	s548	False
80.828	0.5	81.058	1.5	BY	1.0	71.0	dot_pattern_expectancy	71.0	0.23	probe	BY	s548	False
82.33	0.5	82.329	0.5	AX	n/a	n/a	dot_pattern_expectancy	-1.0	n/a	cue	AX	s548	False
84.834	0.5	85.223	1.636	AX	1.0	89.0	dot_pattern_expectancy	89.0	0.389	probe	AX	s548	False
86.472	0.5	86.471	0.5	AX	n/a	n/a	dot_pattern_expectancy	-1.0	n/a	cue	AX	s548	False
88.975	0.5	89.373	1.636	AX	1.0	89.0	dot_pattern_expectancy	89.0	0.398	probe	AX	s548	False
90.612	0.5	90.611	0.5	AY	n/a	n/a	dot_pattern_expectancy	-1.0	n/a	cue	AY	s548	False
93.117	0.5	94.195	1.636	AY	1.0	71.0	dot_pattern_expectancy	71.0	1.078	probe	AY	s548	False
94.755	0.5	94.754	0.5	AX	n/a	n/a	dot_pattern_expectancy	-1.0	n/a	cue	AX	s548	False
97.259	0.5	97.637	1.5	AX	1.0	89.0	dot_pattern_expectancy	89.0	0.378	probe	AX	s548	False
98.761	0.5	98.76	0.5	AX	n/a	n/a	dot_pattern_expectancy	-1.0	n/a	cue	AX	s548	False
101.266	0.5	101.729	1.5	AX	1.0	89.0	dot_pattern_expectancy	89.0	0.463	probe	AX	s548	False
102.768	0.5	102.767	0.5	AX	n/a	n/a	dot_pattern_expectancy	-1.0	n/a	cue	AX	s548	False
105.272	0.5	105.827	1.772	AX	1.0	89.0	dot_pattern_expectancy	89.0	0.555	probe	AX	s548	False
107.045	0.5	107.044	0.5	AX	n/a	n/a	dot_pattern_expectancy	-1.0	n/a	cue	AX	s548	False
109.55	0.5	109.933	2.18	AX	1.0	89.0	dot_pattern_expectancy	89.0	0.383	probe	AX	s548	False
111.733	0.5	111.732	0.5	BX	n/a	n/a	dot_pattern_expectancy	-1.0	n/a	cue	BX	s548	False
114.237	0.5	114.735	1.772	BX	1.0	71.0	dot_pattern_expectancy	71.0	0.498	probe	BX	s548	False
116.011	0.5	116.01	0.5	BY	n/a	n/a	dot_pattern_expectancy	-1.0	n/a	cue	BY	s548	False
118.514	0.5	118.757	1.5	BY	1.0	71.0	dot_pattern_expectancy	71.0	0.243	probe	BY	s548	False
120.017	0.5	120.016	0.5	AX	n/a	n/a	dot_pattern_expectancy	-1.0	n/a	cue	AX	s548	False
122.52	0.5	122.871	1.5	AX	1.0	89.0	dot_pattern_expectancy	89.0	0.351	probe	AX	s548	False
124.021	0.5	124.02	0.5	AX	n/a	n/a	dot_pattern_expectancy	-1.0	n/a	cue	AX	s548	False
126.525	0.5	126.856	1.636	AX	1.0	89.0	dot_pattern_expectancy	89.0	0.331	probe	AX	s548	False
128.164	0.5	128.163	0.5	AY	n/a	n/a	dot_pattern_expectancy	-1.0	n/a	cue	AY	s548	False
130.667	0.5	131.342	2.18	AY	1.0	71.0	dot_pattern_expectancy	71.0	0.675	probe	AY	s548	False
132.849	0.5	132.848	0.5	AY	n/a	n/a	dot_pattern_expectancy	-1.0	n/a	cue	AY	s548	False
135.352	0.5	135.873	2.316	AY	1.0	71.0	dot_pattern_expectancy	71.0	0.521	probe	AY	s548	False
137.67	0.5	137.669	0.5	BX	n/a	n/a	dot_pattern_expectancy	-1.0	n/a	cue	BX	s548	False
140.174	0.5	140.461	1.636	BX	1.0	71.0	dot_pattern_expectancy	71.0	0.287	probe	BX	s548	False
141.813	0.5	141.812	0.5	BX	n/a	n/a	dot_pattern_expectancy	-1.0	n/a	cue	BX	s548	False
144.315	0.5	144.55	2.18	BX	1.0	71.0	dot_pattern_expectancy	71.0	0.235	probe	BX	s548	False
146.497	0.5	146.496	0.5	AY	n/a	n/a	dot_pattern_expectancy	-1.0	n/a	cue	AY	s548	False
149.001	0.5	149.447	2.044	AY	1.0	71.0	dot_pattern_expectancy	71.0	0.446	probe	AY	s548	False
151.046	0.5	151.045	0.5	AX	n/a	n/a	dot_pattern_expectancy	-1.0	n/a	cue	AX	s548	False
153.55	0.5	153.927	1.772	AX	1.0	89.0	dot_pattern_expectancy	89.0	0.377	probe	AX	s548	False
155.324	0.5	155.323	0.5	AX	n/a	n/a	dot_pattern_expectancy	-1.0	n/a	cue	AX	s548	False
157.828	0.5	158.261	1.5	AX	1.0	89.0	dot_pattern_expectancy	89.0	0.433	probe	AX	s548	False
159.329	0.5	159.328	0.5	AX	n/a	n/a	dot_pattern_expectancy	-1.0	n/a	cue	AX	s548	False
161.834	0.5	162.198	2.18	AX	1.0	89.0	dot_pattern_expectancy	89.0	0.364	probe	AX	s548	False
164.016	0.5	164.015	0.5	AY	n/a	n/a	dot_pattern_expectancy	-1.0	n/a	cue	AY	s548	False
166.521	0.5	167.074	2.452	AY	1.0	71.0	dot_pattern_expectancy	71.0	0.553	probe	AY	s548	False
168.974	0.5	168.973	0.5	AX	n/a	n/a	dot_pattern_expectancy	-1.0	n/a	cue	AX	s548	False
171.479	0.5	171.84	1.636	AX	1.0	89.0	dot_pattern_expectancy	89.0	0.361	probe	AX	s548	False
173.116	0.5	173.115	0.5	AX	n/a	n/a	dot_pattern_expectancy	-1.0	n/a	cue	AX	s548	False
175.621	0.5	176.092	1.908	AX	1.0	89.0	dot_pattern_expectancy	89.0	0.471	probe	AX	s548	False
188.038	0.5	188.037	0.5	AX	n/a	n/a	dot_pattern_expectancy	-1.0	n/a	cue	AX	s548	False
190.542	0.5	190.972	1.772	AX	1.0	89.0	dot_pattern_expectancy	89.0	0.43	probe	AX	s548	False
192.316	0.5	192.315	0.5	AX	n/a	n/a	dot_pattern_expectancy	-1.0	n/a	cue	AX	s548	False
194.821	0.5	195.167	1.5	AX	1.0	89.0	dot_pattern_expectancy	89.0	0.346	probe	AX	s548	False
196.322	0.5	196.321	0.5	AY	n/a	n/a	dot_pattern_expectancy	-1.0	n/a	cue	AY	s548	False
198.825	0.5	199.377	2.452	AY	1.0	71.0	dot_pattern_expectancy	71.0	0.552	probe	AY	s548	False
201.28	0.5	201.279	0.5	AY	n/a	n/a	dot_pattern_expectancy	-1.0	n/a	cue	AY	s548	False
203.785	0.5	204.326	1.772	AY	1.0	71.0	dot_pattern_expectancy	71.0	0.541	probe	AY	s548	False
205.558	0.5	205.557	0.5	AX	n/a	n/a	dot_pattern_expectancy	-1.0	n/a	cue	AX	s548	False
208.061	0.5	208.418	1.908	AX	1.0	89.0	dot_pattern_expectancy	89.0	0.357	probe	AX	s548	False
209.971	0.5	209.97	0.5	AX	n/a	n/a	dot_pattern_expectancy	-1.0	n/a	cue	AX	s548	False
212.475	0.5	212.894	1.908	AX	1.0	89.0	dot_pattern_expectancy	89.0	0.419	probe	AX	s548	False
214.385	0.5	214.384	0.5	AX	n/a	n/a	dot_pattern_expectancy	-1.0	n/a	cue	AX	s548	False
216.889	0.5	217.271	2.588	AX	1.0	89.0	dot_pattern_expectancy	89.0	0.382	probe	AX	s548	False
219.48	0.5	219.479	0.5	AY	n/a	n/a	dot_pattern_expectancy	-1.0	n/a	cue	AY	s548	False
221.984	0.5	222.522	1.5	AY	1.0	71.0	dot_pattern_expectancy	71.0	0.538	probe	AY	s548	False
223.486	0.5	223.485	0.5	BY	n/a	n/a	dot_pattern_expectancy	-1.0	n/a	cue	BY	s548	False
225.99	0.5	226.26	1.5	BY	1.0	71.0	dot_pattern_expectancy	71.0	0.27	probe	BY	s548	False
227.491	0.5	227.49	0.5	BY	n/a	n/a	dot_pattern_expectancy	-1.0	n/a	cue	BY	s548	False
229.995	0.5	230.306	1.5	BY	1.0	71.0	dot_pattern_expectancy	71.0	0.311	probe	BY	s548	False
231.497	0.5	231.496	0.5	AX	n/a	n/a	dot_pattern_expectancy	-1.0	n/a	cue	AX	s548	False
234.001	0.5	234.391	1.636	AX	1.0	89.0	dot_pattern_expectancy	89.0	0.39	probe	AX	s548	False
235.639	0.5	235.638	0.5	BX	n/a	n/a	dot_pattern_expectancy	-1.0	n/a	cue	BX	s548	False
238.143	0.5	238.507	2.044	BX	1.0	71.0	dot_pattern_expectancy	71.0	0.364	probe	BX	s548	False
240.19	0.5	240.189	0.5	AX	n/a	n/a	dot_pattern_expectancy	-1.0	n/a	cue	AX	s548	False
242.694	0.5	243.202	1.772	AX	1.0	89.0	dot_pattern_expectancy	89.0	0.508	probe	AX	s548	False
244.468	0.5	244.467	0.5	BX	n/a	n/a	dot_pattern_expectancy	-1.0	n/a	cue	BX	s548	False
246.971	0.5	247.19	2.588	BX	1.0	71.0	dot_pattern_expectancy	71.0	0.219	probe	BX	s548	False
249.561	0.5	249.56	0.5	AY	n/a	n/a	dot_pattern_expectancy	-1.0	n/a	cue	AY	s548	False
252.065	0.5	252.565	1.5	AY	1.0	71.0	dot_pattern_expectancy	71.0	0.5	probe	AY	s548	False
253.567	0.5	253.566	0.5	AX	n/a	n/a	dot_pattern_expectancy	-1.0	n/a	cue	AX	s548	False
256.071	0.5	256.508	2.452	AX	1.0	89.0	dot_pattern_expectancy	89.0	0.437	probe	AX	s548	False
258.525	0.5	258.524	0.5	BY	n/a	n/a	dot_pattern_expectancy	-1.0	n/a	cue	BY	s548	False
261.028	0.5	261.229	1.636	BY	1.0	71.0	dot_pattern_expectancy	71.0	0.201	probe	BY	s548	False
262.666	0.5	262.665	0.5	AX	n/a	n/a	dot_pattern_expectancy	-1.0	n/a	cue	AX	s548	False
265.17	0.5	265.618	1.636	AX	1.0	89.0	dot_pattern_expectancy	89.0	0.448	probe	AX	s548	False
266.808	0.5	266.807	0.5	AX	n/a	n/a	dot_pattern_expectancy	-1.0	n/a	cue	AX	s548	False
269.312	0.5	269.702	1.5	AX	1.0	89.0	dot_pattern_expectancy	89.0	0.39	probe	AX	s548	False
270.814	0.5	270.813	0.5	BY	n/a	n/a	dot_pattern_expectancy	-1.0	n/a	cue	BY	s548	False
273.319	0.5	273.571	1.636	BY	1.0	71.0	dot_pattern_expectancy	71.0	0.252	probe	BY	s548	False
274.958	0.5	274.957	0.5	AX	n/a	n/a	dot_pattern_expectancy	-1.0	n/a	cue	AX	s548	False
277.462	0.5	277.805	1.5	AX	1.0	89.0	dot_pattern_expectancy	89.0	0.343	probe	AX	s548	False
278.964	0.5	278.963	0.5	AY	n/a	n/a	dot_pattern_expectancy	-1.0	n/a	cue	AY	s548	False
281.468	0.5	281.981	2.18	AY	1.0	71.0	dot_pattern_expectancy	71.0	0.513	probe	AY	s548	False
283.651	0.5	283.65	0.5	AX	n/a	n/a	dot_pattern_expectancy	-1.0	n/a	cue	AX	s548	False
286.155	0.5	286.571	1.5	AX	1.0	89.0	dot_pattern_expectancy	89.0	0.416	probe	AX	s548	False
287.658	0.5	287.657	0.5	AX	n/a	n/a	dot_pattern_expectancy	-1.0	n/a	cue	AX	s548	False
290.162	0.5	290.568	1.908	AX	1.0	89.0	dot_pattern_expectancy	89.0	0.406	probe	AX	s548	False
292.073	0.5	292.072	0.5	BY	n/a	n/a	dot_pattern_expectancy	-1.0	n/a	cue	BY	s548	False
294.576	0.5	294.863	1.636	BY	1.0	71.0	dot_pattern_expectancy	71.0	0.287	probe	BY	s548	False
296.213	0.5	296.212	0.5	BY	n/a	n/a	dot_pattern_expectancy	-1.0	n/a	cue	BY	s548	False
298.717	0.5	298.982	1.636	BY	1.0	71.0	dot_pattern_expectancy	71.0	0.265	probe	BY	s548	False
300.356	0.5	300.355	0.5	AX	n/a	n/a	dot_pattern_expectancy	-1.0	n/a	cue	AX	s548	False
302.859	0.5	303.195	1.636	AX	1.0	89.0	dot_pattern_expectancy	89.0	0.336	probe	AX	s548	False
304.496	0.5	304.495	0.5	AX	n/a	n/a	dot_pattern_expectancy	-1.0	n/a	cue	AX	s548	False
307.0	0.5	307.323	1.5	AX	1.0	89.0	dot_pattern_expectancy	89.0	0.323	probe	AX	s548	False
308.502	0.5	308.501	0.5	BY	n/a	n/a	dot_pattern_expectancy	-1.0	n/a	cue	BY	s548	False
311.006	0.5	311.29	2.044	BY	1.0	71.0	dot_pattern_expectancy	71.0	0.284	probe	BY	s548	False
313.051	0.5	313.05	0.5	AY	n/a	n/a	dot_pattern_expectancy	-1.0	n/a	cue	AY	s548	False
315.556	0.5	316.102	2.18	AY	1.0	71.0	dot_pattern_expectancy	71.0	0.546	probe	AY	s548	False
317.737	0.5	317.736	0.5	AY	n/a	n/a	dot_pattern_expectancy	-1.0	n/a	cue	AY	s548	False
320.241	0.5	320.736	1.636	AY	0.0	71.0	dot_pattern_expectancy	89.0	0.495	probe	AY	s548	False
321.878	0.5	321.877	0.5	AY	n/a	n/a	dot_pattern_expectancy	-1.0	n/a	cue	AY	s548	False
324.382	0.5	325.059	1.772	AY	1.0	71.0	dot_pattern_expectancy	71.0	0.677	probe	AY	s548	False
326.156	0.5	326.155	0.5	BY	n/a	n/a	dot_pattern_expectancy	-1.0	n/a	cue	BY	s548	False
328.659	0.5	328.993	1.5	BY	1.0	71.0	dot_pattern_expectancy	71.0	0.334	probe	BY	s548	False
330.161	0.5	330.16	0.5	BX	n/a	n/a	dot_pattern_expectancy	-1.0	n/a	cue	BX	s548	False
332.666	0.5	332.991	1.908	BX	1.0	71.0	dot_pattern_expectancy	71.0	0.325	probe	BX	s548	False
334.577	0.5	334.576	0.5	AX	n/a	n/a	dot_pattern_expectancy	-1.0	n/a	cue	AX	s548	False
337.081	0.5	337.573	2.044	AX	1.0	89.0	dot_pattern_expectancy	89.0	0.492	probe	AX	s548	False
339.127	0.5	339.126	0.5	AX	n/a	n/a	dot_pattern_expectancy	-1.0	n/a	cue	AX	s548	False
341.631	0.5	342.097	1.636	AX	1.0	89.0	dot_pattern_expectancy	89.0	0.466	probe	AX	s548	False
343.269	0.5	343.268	0.5	AX	n/a	n/a	dot_pattern_expectancy	-1.0	n/a	cue	AX	s548	False
345.773	0.5	346.231	1.772	AX	1.0	89.0	dot_pattern_expectancy	89.0	0.458	probe	AX	s548	False
347.548	0.5	347.547	0.5	AX	n/a	n/a	dot_pattern_expectancy	-1.0	n/a	cue	AX	s548	False
350.052	0.5	350.533	1.636	AX	1.0	89.0	dot_pattern_expectancy	89.0	0.481	probe	AX	s548	False
351.69	0.5	351.689	0.5	BX	n/a	n/a	dot_pattern_expectancy	-1.0	n/a	cue	BX	s548	False
354.194	0.5	354.454	1.772	BX	1.0	71.0	dot_pattern_expectancy	71.0	0.26	probe	BX	s548	False
355.969	0.5	355.968	0.5	AX	n/a	n/a	dot_pattern_expectancy	-1.0	n/a	cue	AX	s548	False
358.473	0.5	358.988	1.5	AX	1.0	89.0	dot_pattern_expectancy	89.0	0.515	probe	AX	s548	False
370.482	0.5	370.481	0.5	BY	n/a	n/a	dot_pattern_expectancy	-1.0	n/a	cue	BY	s548	False
372.986	0.5	373.244	1.636	BY	1.0	71.0	dot_pattern_expectancy	71.0	0.258	probe	BY	s548	False
374.624	0.5	374.623	0.5	AY	n/a	n/a	dot_pattern_expectancy	-1.0	n/a	cue	AY	s548	False
377.128	0.5	377.76	1.5	AY	1.0	71.0	dot_pattern_expectancy	71.0	0.632	probe	AY	s548	False
378.631	0.5	378.63	0.5	AX	n/a	n/a	dot_pattern_expectancy	-1.0	n/a	cue	AX	s548	False
381.136	0.5	381.701	2.044	AX	1.0	89.0	dot_pattern_expectancy	89.0	0.565	probe	AX	s548	False
383.181	0.5	383.18	0.5	BY	n/a	n/a	dot_pattern_expectancy	-1.0	n/a	cue	BY	s548	False
385.685	0.5	385.947	1.772	BY	1.0	71.0	dot_pattern_expectancy	71.0	0.262	probe	BY	s548	False
387.459	0.5	387.458	0.5	BX	n/a	n/a	dot_pattern_expectancy	-1.0	n/a	cue	BX	s548	False
389.963	0.5	390.213	1.636	BX	1.0	71.0	dot_pattern_expectancy	71.0	0.25	probe	BX	s548	False
391.601	0.5	391.6	0.5	AX	n/a	n/a	dot_pattern_expectancy	-1.0	n/a	cue	AX	s548	False
394.104	0.5	394.51	1.636	AX	1.0	89.0	dot_pattern_expectancy	89.0	0.406	probe	AX	s548	False
395.742	0.5	395.741	0.5	AX	n/a	n/a	dot_pattern_expectancy	-1.0	n/a	cue	AX	s548	False
398.246	0.5	398.618	1.5	AX	1.0	89.0	dot_pattern_expectancy	89.0	0.372	probe	AX	s548	False
399.747	0.5	399.746	0.5	AX	n/a	n/a	dot_pattern_expectancy	-1.0	n/a	cue	AX	s548	False
402.251	0.5	402.709	1.5	AX	1.0	89.0	dot_pattern_expectancy	89.0	0.458	probe	AX	s548	False
403.753	0.5	403.752	0.5	AY	n/a	n/a	dot_pattern_expectancy	-1.0	n/a	cue	AY	s548	False
406.257	0.5	406.83	2.044	AY	1.0	71.0	dot_pattern_expectancy	71.0	0.573	probe	AY	s548	False
408.302	0.5	408.301	0.5	AX	n/a	n/a	dot_pattern_expectancy	-1.0	n/a	cue	AX	s548	False
410.806	0.5	411.169	2.452	AX	1.0	89.0	dot_pattern_expectancy	89.0	0.363	probe	AX	s548	False
413.261	0.5	413.26	0.5	AX	n/a	n/a	dot_pattern_expectancy	-1.0	n/a	cue	AX	s548	False
415.764	0.5	416.187	1.908	AX	1.0	89.0	dot_pattern_expectancy	89.0	0.423	probe	AX	s548	False
417.673	0.5	417.672	0.5	AX	n/a	n/a	dot_pattern_expectancy	-1.0	n/a	cue	AX	s548	False
420.177	0.5	420.643	1.5	AX	1.0	89.0	dot_pattern_expectancy	89.0	0.466	probe	AX	s548	False
421.679	0.5	421.678	0.5	AX	n/a	n/a	dot_pattern_expectancy	-1.0	n/a	cue	AX	s548	False
424.183	0.5	424.656	1.908	AX	1.0	89.0	dot_pattern_expectancy	89.0	0.473	probe	AX	s548	False
426.093	0.5	426.092	0.5	BX	n/a	n/a	dot_pattern_expectancy	-1.0	n/a	cue	BX	s548	False
428.596	0.5	428.921	2.18	BX	1.0	71.0	dot_pattern_expectancy	71.0	0.325	probe	BX	s548	False
430.777	0.5	430.776	0.5	AX	n/a	n/a	dot_pattern_expectancy	-1.0	n/a	cue	AX	s548	False
433.281	0.5	433.629	1.5	AX	1.0	89.0	dot_pattern_expectancy	89.0	0.348	probe	AX	s548	False
434.783	0.5	434.782	0.5	BY	n/a	n/a	dot_pattern_expectancy	-1.0	n/a	cue	BY	s548	False
437.286	0.5	437.625	1.908	BY	1.0	71.0	dot_pattern_expectancy	71.0	0.339	probe	BY	s548	False
439.197	0.5	439.196	0.5	BX	n/a	n/a	dot_pattern_expectancy	-1.0	n/a	cue	BX	s548	False
441.701	0.5	441.937	2.316	BX	1.0	71.0	dot_pattern_expectancy	71.0	0.236	probe	BX	s548	False
444.02	0.5	444.019	0.5	AY	n/a	n/a	dot_pattern_expectancy	-1.0	n/a	cue	AY	s548	False
446.524	0.5	447.024	2.316	AY	1.0	71.0	dot_pattern_expectancy	71.0	0.5	probe	AY	s548	False
448.842	0.5	448.841	0.5	BX	n/a	n/a	dot_pattern_expectancy	-1.0	n/a	cue	BX	s548	False
451.346	0.5	451.597	1.636	BX	1.0	71.0	dot_pattern_expectancy	71.0	0.251	probe	BX	s548	False
452.985	0.5	452.984	0.5	AY	n/a	n/a	dot_pattern_expectancy	-1.0	n/a	cue	AY	s548	False
455.488	0.5	456.033	1.5	AY	1.0	71.0	dot_pattern_expectancy	71.0	0.545	probe	AY	s548	False
456.992	0.5	456.991	0.5	BY	n/a	n/a	dot_pattern_expectancy	-1.0	n/a	cue	BY	s548	False
459.496	0.5	459.787	1.908	BY	1.0	71.0	dot_pattern_expectancy	71.0	0.291	probe	BY	s548	False
461.407	0.5	461.406	0.5	AX	n/a	n/a	dot_pattern_expectancy	-1.0	n/a	cue	AX	s548	False
463.91	0.5	464.68	1.5	AX	1.0	89.0	dot_pattern_expectancy	89.0	0.77	probe	AX	s548	False
465.413	0.5	465.412	0.5	AY	n/a	n/a	dot_pattern_expectancy	-1.0	n/a	cue	AY	s548	False
467.917	0.5	468.378	2.316	AY	1.0	71.0	dot_pattern_expectancy	71.0	0.461	probe	AY	s548	False
470.235	0.5	470.234	0.5	AX	n/a	n/a	dot_pattern_expectancy	-1.0	n/a	cue	AX	s548	False
472.738	0.5	473.188	1.5	AX	1.0	89.0	dot_pattern_expectancy	89.0	0.45	probe	AX	s548	False
474.24	0.5	474.239	0.5	AY	n/a	n/a	dot_pattern_expectancy	-1.0	n/a	cue	AY	s548	False
476.744	0.5	477.326	2.724	AY	1.0	71.0	dot_pattern_expectancy	71.0	0.582	probe	AY	s548	False
479.47	0.5	479.469	0.5	AX	n/a	n/a	dot_pattern_expectancy	-1.0	n/a	cue	AX	s548	False
481.974	0.5	482.549	1.5	AX	1.0	89.0	dot_pattern_expectancy	89.0	0.575	probe	AX	s548	False
483.477	0.5	483.476	0.5	AX	n/a	n/a	dot_pattern_expectancy	-1.0	n/a	cue	AX	s548	False
485.981	0.5	486.535	1.636	AX	1.0	89.0	dot_pattern_expectancy	89.0	0.554	probe	AX	s548	False
487.62	0.5	487.619	0.5	AX	n/a	n/a	dot_pattern_expectancy	-1.0	n/a	cue	AX	s548	False
490.123	0.5	490.531	1.636	AX	1.0	89.0	dot_pattern_expectancy	89.0	0.408	probe	AX	s548	False
491.761	0.5	491.76	0.5	AX	n/a	n/a	dot_pattern_expectancy	-1.0	n/a	cue	AX	s548	False
494.265	0.5	494.632	1.772	AX	1.0	89.0	dot_pattern_expectancy	89.0	0.367	probe	AX	s548	False
496.038	0.5	496.037	0.5	BY	n/a	n/a	dot_pattern_expectancy	-1.0	n/a	cue	BY	s548	False
498.542	0.5	498.827	1.772	BY	1.0	71.0	dot_pattern_expectancy	71.0	0.285	probe	BY	s548	False
500.315	0.5	500.314	0.5	AX	n/a	n/a	dot_pattern_expectancy	-1.0	n/a	cue	AX	s548	False
502.819	0.5	503.26	1.5	AX	1.0	89.0	dot_pattern_expectancy	89.0	0.441	probe	AX	s548	False
504.321	0.5	504.32	0.5	BY	n/a	n/a	dot_pattern_expectancy	-1.0	n/a	cue	BY	s548	False
506.825	0.5	507.09	2.452	BY	1.0	71.0	dot_pattern_expectancy	71.0	0.265	probe	BY	s548	False
509.279	0.5	509.278	0.5	AX	n/a	n/a	dot_pattern_expectancy	-1.0	n/a	cue	AX	s548	False
511.782	0.5	512.157	1.636	AX	1.0	89.0	dot_pattern_expectancy	89.0	0.375	probe	AX	s548	False
513.42	0.5	513.419	0.5	AX	n/a	n/a	dot_pattern_expectancy	-1.0	n/a	cue	AX	s548	False
515.925	0.5	516.3	1.636	AX	1.0	89.0	dot_pattern_expectancy	89.0	0.375	probe	AX	s548	False
517.563	0.5	517.562	0.5	BX	n/a	n/a	dot_pattern_expectancy	-1.0	n/a	cue	BX	s548	False
520.067	0.5	520.357	1.5	BX	1.0	71.0	dot_pattern_expectancy	71.0	0.29	probe	BX	s548	False
521.57	0.5	521.569	0.5	BX	n/a	n/a	dot_pattern_expectancy	-1.0	n/a	cue	BX	s548	False
524.074	0.5	524.381	1.5	BX	1.0	71.0	dot_pattern_expectancy	71.0	0.307	probe	BX	s548	False
525.575	0.5	525.574	0.5	AX	n/a	n/a	dot_pattern_expectancy	-1.0	n/a	cue	AX	s548	False
528.079	0.5	528.619	2.316	AX	1.0	89.0	dot_pattern_expectancy	89.0	0.54	probe	AX	s548	False
530.396	0.5	530.395	0.5	AY	n/a	n/a	dot_pattern_expectancy	-1.0	n/a	cue	AY	s548	False
532.9	0.5	533.438	2.044	AY	1.0	71.0	dot_pattern_expectancy	71.0	0.538	probe	AY	s548	False
534.946	0.5	534.945	0.5	AX	n/a	n/a	dot_pattern_expectancy	-1.0	n/a	cue	AX	s548	False
537.45	0.5	537.949	3.948	AX	1.0	89.0	dot_pattern_expectancy	89.0	0.499	probe	AX	s548	False
541.401	0.5	541.4	0.5	AX	n/a	n/a	dot_pattern_expectancy	-1.0	n/a	cue	AX	s548	False
543.906	0.5	544.351	1.636	AX	1.0	89.0	dot_pattern_expectancy	89.0	0.445	probe	AX	s548	False
556.05	0.5	556.049	0.5	AY	n/a	n/a	dot_pattern_expectancy	-1.0	n/a	cue	AY	s548	False
558.554	0.5	559.114	1.636	AY	1.0	71.0	dot_pattern_expectancy	71.0	0.56	probe	AY	s548	False
560.193	0.5	560.192	0.5	AX	n/a	n/a	dot_pattern_expectancy	-1.0	n/a	cue	AX	s548	False
562.696	0.5	563.113	1.636	AX	1.0	89.0	dot_pattern_expectancy	89.0	0.417	probe	AX	s548	False
564.334	0.5	564.333	0.5	AX	n/a	n/a	dot_pattern_expectancy	-1.0	n/a	cue	AX	s548	False
566.837	0.5	567.369	1.5	AX	1.0	89.0	dot_pattern_expectancy	89.0	0.532	probe	AX	s548	False
568.339	0.5	568.338	0.5	AX	n/a	n/a	dot_pattern_expectancy	-1.0	n/a	cue	AX	s548	False
570.843	0.5	571.309	1.5	AX	1.0	89.0	dot_pattern_expectancy	89.0	0.466	probe	AX	s548	False
572.344	0.5	572.343	0.5	AX	n/a	n/a	dot_pattern_expectancy	-1.0	n/a	cue	AX	s548	False
574.848	0.5	575.328	1.908	AX	1.0	89.0	dot_pattern_expectancy	89.0	0.48	probe	AX	s548	False
576.759	0.5	576.758	0.5	BX	n/a	n/a	dot_pattern_expectancy	-1.0	n/a	cue	BX	s548	False
579.262	0.5	579.499	1.636	BX	1.0	71.0	dot_pattern_expectancy	71.0	0.237	probe	BX	s548	False
580.899	0.5	580.898	0.5	AX	n/a	n/a	dot_pattern_expectancy	-1.0	n/a	cue	AX	s548	False
583.403	0.5	583.777	2.044	AX	1.0	89.0	dot_pattern_expectancy	89.0	0.374	probe	AX	s548	False
585.449	0.5	585.448	0.5	AX	n/a	n/a	dot_pattern_expectancy	-1.0	n/a	cue	AX	s548	False
587.953	0.5	588.381	1.772	AX	1.0	89.0	dot_pattern_expectancy	89.0	0.428	probe	AX	s548	False
589.726	0.5	589.725	0.5	AX	n/a	n/a	dot_pattern_expectancy	-1.0	n/a	cue	AX	s548	False
592.23	0.5	592.667	1.5	AX	1.0	89.0	dot_pattern_expectancy	89.0	0.437	probe	AX	s548	False
593.732	0.5	593.731	0.5	AX	n/a	n/a	dot_pattern_expectancy	-1.0	n/a	cue	AX	s548	False
596.235	0.5	596.634	2.18	AX	1.0	89.0	dot_pattern_expectancy	89.0	0.399	probe	AX	s548	False
598.417	0.5	598.416	0.5	AX	n/a	n/a	dot_pattern_expectancy	-1.0	n/a	cue	AX	s548	False
600.921	0.5	601.353	1.5	AX	1.0	89.0	dot_pattern_expectancy	89.0	0.432	probe	AX	s548	False
602.423	0.5	602.422	0.5	BX	n/a	n/a	dot_pattern_expectancy	-1.0	n/a	cue	BX	s548	False
604.927	0.5	605.171	3.676	BX	1.0	71.0	dot_pattern_expectancy	71.0	0.244	probe	BX	s548	False
608.606	0.5	608.605	0.5	BY	n/a	n/a	dot_pattern_expectancy	-1.0	n/a	cue	BY	s548	False
611.108	0.5	611.363	1.636	BY	1.0	71.0	dot_pattern_expectancy	71.0	0.255	probe	BY	s548	False
612.746	0.5	612.745	0.5	BY	n/a	n/a	dot_pattern_expectancy	-1.0	n/a	cue	BY	s548	False
615.25	0.5	615.598	1.636	BY	1.0	71.0	dot_pattern_expectancy	71.0	0.348	probe	BY	s548	False
616.889	0.5	616.888	0.5	BX	n/a	n/a	dot_pattern_expectancy	-1.0	n/a	cue	BX	s548	False
619.392	0.5	619.688	1.5	BX	1.0	71.0	dot_pattern_expectancy	71.0	0.296	probe	BX	s548	False
620.895	0.5	620.894	0.5	AX	n/a	n/a	dot_pattern_expectancy	-1.0	n/a	cue	AX	s548	False
623.398	0.5	623.786	1.908	AX	1.0	89.0	dot_pattern_expectancy	89.0	0.388	probe	AX	s548	False
625.309	0.5	625.308	0.5	AX	n/a	n/a	dot_pattern_expectancy	-1.0	n/a	cue	AX	s548	False
627.813	0.5	628.276	1.636	AX	1.0	89.0	dot_pattern_expectancy	89.0	0.463	probe	AX	s548	False
629.45	0.5	629.449	0.5	BX	n/a	n/a	dot_pattern_expectancy	-1.0	n/a	cue	BX	s548	False
631.954	0.5	632.218	1.5	BX	1.0	71.0	dot_pattern_expectancy	71.0	0.264	probe	BX	s548	False
633.456	0.5	633.455	0.5	AX	n/a	n/a	dot_pattern_expectancy	-1.0	n/a	cue	AX	s548	False
635.96	0.5	636.44	1.908	AX	1.0	89.0	dot_pattern_expectancy	89.0	0.48	probe	AX	s548	False
637.87	0.5	637.869	0.5	BY	n/a	n/a	dot_pattern_expectancy	-1.0	n/a	cue	BY	s548	False
640.373	0.5	640.634	2.18	BY	1.0	71.0	dot_pattern_expectancy	71.0	0.261	probe	BY	s548	False
642.555	0.5	642.554	0.5	AX	n/a	n/a	dot_pattern_expectancy	-1.0	n/a	cue	AX	s548	False
645.059	0.5	645.483	1.772	AX	1.0	89.0	dot_pattern_expectancy	89.0	0.424	probe	AX	s548	False
646.832	0.5	646.831	0.5	AX	n/a	n/a	dot_pattern_expectancy	-1.0	n/a	cue	AX	s548	False
649.336	0.5	649.811	1.5	AX	1.0	89.0	dot_pattern_expectancy	89.0	0.475	probe	AX	s548	False
650.838	0.5	650.837	0.5	AX	n/a	n/a	dot_pattern_expectancy	-1.0	n/a	cue	AX	s548	False
653.341	0.5	653.801	1.5	AX	1.0	89.0	dot_pattern_expectancy	89.0	0.46	probe	AX	s548	False
654.843	0.5	654.842	0.5	AX	n/a	n/a	dot_pattern_expectancy	-1.0	n/a	cue	AX	s548	False
657.348	0.5	657.794	2.044	AX	1.0	89.0	dot_pattern_expectancy	89.0	0.446	probe	AX	s548	False
659.394	0.5	659.393	0.5	AX	n/a	n/a	dot_pattern_expectancy	-1.0	n/a	cue	AX	s548	False
661.898	0.5	662.285	2.86	AX	1.0	89.0	dot_pattern_expectancy	89.0	0.387	probe	AX	s548	False
664.76	0.5	664.759	0.5	BX	n/a	n/a	dot_pattern_expectancy	-1.0	n/a	cue	BX	s548	False
667.265	0.5	667.63	1.5	BX	1.0	71.0	dot_pattern_expectancy	71.0	0.365	probe	BX	s548	False
668.767	0.5	668.766	0.5	BY	n/a	n/a	dot_pattern_expectancy	-1.0	n/a	cue	BY	s548	False
671.271	0.5	671.602	1.772	BY	1.0	71.0	dot_pattern_expectancy	71.0	0.331	probe	BY	s548	False
673.045	0.5	673.044	0.5	AX	n/a	n/a	dot_pattern_expectancy	-1.0	n/a	cue	AX	s548	False
675.55	0.5	675.986	1.772	AX	1.0	89.0	dot_pattern_expectancy	89.0	0.436	probe	AX	s548	False
677.324	0.5	677.323	0.5	AX	n/a	n/a	dot_pattern_expectancy	-1.0	n/a	cue	AX	s548	False
679.828	0.5	680.27	2.86	AX	1.0	89.0	dot_pattern_expectancy	89.0	0.442	probe	AX	s548	False
682.689	0.5	682.688	0.5	AX	n/a	n/a	dot_pattern_expectancy	-1.0	n/a	cue	AX	s548	False
685.193	0.5	685.617	1.772	AX	1.0	89.0	dot_pattern_expectancy	89.0	0.424	probe	AX	s548	False
686.966	0.5	686.965	0.5	BX	n/a	n/a	dot_pattern_expectancy	-1.0	n/a	cue	BX	s548	False
689.471	0.5	689.77	1.636	BX	1.0	71.0	dot_pattern_expectancy	71.0	0.299	probe	BX	s548	False
691.11	0.5	691.109	0.5	BX	n/a	n/a	dot_pattern_expectancy	-1.0	n/a	cue	BX	s548	False
693.615	0.5	694.009	2.452	BX	1.0	71.0	dot_pattern_expectancy	71.0	0.394	probe	BX	s548	False
696.069	0.5	696.068	0.5	AX	n/a	n/a	dot_pattern_expectancy	-1.0	n/a	cue	AX	s548	False
698.572	0.5	698.994	1.636	AX	1.0	89.0	dot_pattern_expectancy	89.0	0.422	probe	AX	s548	False
700.21	0.5	700.209	0.5	BX	n/a	n/a	dot_pattern_expectancy	-1.0	n/a	cue	BX	s548	False
702.714	0.5	703.205	1.5	BX	1.0	71.0	dot_pattern_expectancy	71.0	0.491	probe	BX	s548	False
704.215	0.5	704.214	0.5	AX	n/a	n/a	dot_pattern_expectancy	-1.0	n/a	cue	AX	s548	False
706.719	0.5	707.139	1.636	AX	1.0	89.0	dot_pattern_expectancy	89.0	0.42	probe	AX	s548	False
708.357	0.5	708.356	0.5	AX	n/a	n/a	dot_pattern_expectancy	-1.0	n/a	cue	AX	s548	False
710.86	0.5	711.29	1.636	AX	1.0	89.0	dot_pattern_expectancy	89.0	0.43	probe	AX	s548	False
712.498	0.5	712.497	0.5	BY	n/a	n/a	dot_pattern_expectancy	-1.0	n/a	cue	BY	s548	False
715.002	0.5	715.242	2.18	BY	1.0	71.0	dot_pattern_expectancy	71.0	0.24	probe	BY	s548	False
717.185	0.5	717.184	0.5	AX	n/a	n/a	dot_pattern_expectancy	-1.0	n/a	cue	AX	s548	False
719.688	0.5	720.079	1.5	AX	1.0	89.0	dot_pattern_expectancy	89.0	0.391	probe	AX	s548	False
721.191	0.5	721.19	0.5	AY	n/a	n/a	dot_pattern_expectancy	-1.0	n/a	cue	AY	s548	False
723.695	0.5	724.126	1.636	AY	0.0	71.0	dot_pattern_expectancy	89.0	0.431	probe	AY	s548	False
725.333	0.5	725.332	0.5	AX	n/a	n/a	dot_pattern_expectancy	-1.0	n/a	cue	AX	s548	False
727.837	0.5	728.28	1.636	AX	1.0	89.0	dot_pattern_expectancy	89.0	0.443	probe	AX	s548	False
