duration	onset	block_duration	movement_onset	planning	condition	exp_stage	experiment_exp_id	key_press	problem_id	response_time	trial_id	trial_type	worker_id	junk
6.332	3.007	6.332	9.339	1	UA_with_intermediate	practice	ward_and_allport	71	0.0	6.332	to_hand	poldrack-single-stim	s549	False
0.1	9.34	1.377	10.717	0	UA_with_intermediate	practice	ward_and_allport	82	0.0	1.377	to_board	poldrack-single-stim	s549	False
0.1	10.72	0.773	11.493	0	UA_with_intermediate	practice	ward_and_allport	71	0.0	0.773	to_hand	poldrack-single-stim	s549	False
0.1	11.494	0.726	12.22	0	UA_with_intermediate	practice	ward_and_allport	89	0.0	0.726	to_board	poldrack-single-stim	s549	False
0.1	12.221	1.336	13.557	0	UA_with_intermediate	practice	ward_and_allport	82	0.0	1.336	to_hand	poldrack-single-stim	s549	False
0.1	13.559	0.798	14.357	0	UA_with_intermediate	practice	ward_and_allport	89	0.0	0.798	to_board	poldrack-single-stim	s549	False
1.0	14.36	2.5	14.359	0	UA_with_intermediate	practice	ward_and_allport	-1	0.0	n/a	feedback	poldrack-single-stim	s549	False
2.663	16.862	2.663	19.525	1	UA_with_intermediate	practice	ward_and_allport	89	1.0	2.663	to_hand	poldrack-single-stim	s549	False
0.1	19.526	0.743	20.269	0	UA_with_intermediate	practice	ward_and_allport	82	1.0	0.743	to_board	poldrack-single-stim	s549	False
0.1	20.271	0.653	20.924	0	UA_with_intermediate	practice	ward_and_allport	71	1.0	0.653	to_hand	poldrack-single-stim	s549	False
0.1	20.924	0.601	21.525	0	UA_with_intermediate	practice	ward_and_allport	89	1.0	0.601	to_board	poldrack-single-stim	s549	False
0.1	21.527	1.141	22.668	0	UA_with_intermediate	practice	ward_and_allport	82	1.0	1.141	to_hand	poldrack-single-stim	s549	False
0.1	22.669	1.007	23.676	0	UA_with_intermediate	practice	ward_and_allport	89	1.0	1.007	to_board	poldrack-single-stim	s549	False
1.0	23.679	2.1	23.678	0	UA_with_intermediate	practice	ward_and_allport	-1	1.0	n/a	feedback	poldrack-single-stim	s549	False
4.492	25.781	4.492	30.273	1	UA_without_intermediate	practice	ward_and_allport	71	2.0	4.492	to_hand	poldrack-single-stim	s549	False
0.1	30.273	1.342	31.615	0	UA_without_intermediate	practice	ward_and_allport	71	2.0	1.342	to_board	poldrack-single-stim	s549	False
0.1	31.616	1.047	32.663	0	UA_without_intermediate	practice	ward_and_allport	82	2.0	1.047	to_hand	poldrack-single-stim	s549	False
0.1	32.663	0.859	33.522	0	UA_without_intermediate	practice	ward_and_allport	89	2.0	0.859	to_board	poldrack-single-stim	s549	False
0.1	33.526	1.221	34.747	0	UA_without_intermediate	practice	ward_and_allport	71	2.0	1.221	to_hand	poldrack-single-stim	s549	False
0.1	34.747	0.626	35.373	0	UA_without_intermediate	practice	ward_and_allport	89	2.0	0.626	to_board	poldrack-single-stim	s549	False
0.1	35.376	0.976	36.352	0	UA_without_intermediate	practice	ward_and_allport	71	2.0	0.976	to_hand	poldrack-single-stim	s549	False
0.1	36.352	0.45	36.802	0	UA_without_intermediate	practice	ward_and_allport	89	2.0	0.45	to_board	poldrack-single-stim	s549	False
1.0	36.805	2.2	36.804	0	UA_without_intermediate	practice	ward_and_allport	-1	2.0	n/a	feedback	poldrack-single-stim	s549	False
2.886	39.006	2.886	41.892	1	UA_without_intermediate	practice	ward_and_allport	71	3.0	2.886	to_hand	poldrack-single-stim	s549	False
0.1	41.893	0.435	42.328	0	UA_without_intermediate	practice	ward_and_allport	89	3.0	0.435	to_board	poldrack-single-stim	s549	False
0.1	42.331	1.553	43.884	0	UA_without_intermediate	practice	ward_and_allport	82	3.0	1.553	to_hand	poldrack-single-stim	s549	False
0.1	43.884	0.993	44.877	0	UA_without_intermediate	practice	ward_and_allport	89	3.0	0.993	to_board	poldrack-single-stim	s549	False
0.1	44.879	0.581	45.46	0	UA_without_intermediate	practice	ward_and_allport	71	3.0	0.581	to_hand	poldrack-single-stim	s549	False
0.1	45.462	0.651	46.113	0	UA_without_intermediate	practice	ward_and_allport	89	3.0	0.651	to_board	poldrack-single-stim	s549	False
1.0	46.117	2.0	46.116	0	UA_without_intermediate	practice	ward_and_allport	-1	3.0	n/a	feedback	poldrack-single-stim	s549	False
2.936	50.121	2.936	53.057	1	PA_with_intermediate	test	ward_and_allport	89	0.0	2.936	to_hand	poldrack-single-stim	s549	False
0.1	53.058	4.3	57.358	0	PA_with_intermediate	test	ward_and_allport	71	0.0	4.3	to_board	poldrack-single-stim	s549	False
0.1	57.359	1.3	58.659	0	PA_with_intermediate	test	ward_and_allport	71	0.0	1.3	to_hand	poldrack-single-stim	s549	False
0.1	58.659	0.656	59.315	0	PA_with_intermediate	test	ward_and_allport	82	0.0	0.656	to_board	poldrack-single-stim	s549	False
0.1	59.316	0.663	59.979	0	PA_with_intermediate	test	ward_and_allport	89	0.0	0.663	to_hand	poldrack-single-stim	s549	False
0.1	59.98	0.47	60.45	0	PA_with_intermediate	test	ward_and_allport	71	0.0	0.47	to_board	poldrack-single-stim	s549	False
0.1	60.452	3.231	63.683	0	PA_with_intermediate	test	ward_and_allport	71	0.0	3.231	to_hand	poldrack-single-stim	s549	False
0.1	63.684	0.905	64.589	0	PA_with_intermediate	test	ward_and_allport	71	0.0	0.905	to_board	poldrack-single-stim	s549	False
0.1	64.59	0.654	65.244	0	PA_with_intermediate	test	ward_and_allport	82	0.0	0.654	to_hand	poldrack-single-stim	s549	False
0.1	65.245	0.484	65.729	0	PA_with_intermediate	test	ward_and_allport	71	0.0	0.484	to_board	poldrack-single-stim	s549	False
1.0	65.733	2.408	65.732	0	PA_with_intermediate	test	ward_and_allport	-1	0.0	n/a	feedback	poldrack-single-stim	s549	False
6.187	68.143	6.187	74.33	1	PA_without_intermediate	test	ward_and_allport	71	1.0	6.187	to_hand	poldrack-single-stim	s549	False
0.1	74.332	0.958	75.29	0	PA_without_intermediate	test	ward_and_allport	89	1.0	0.958	to_board	poldrack-single-stim	s549	False
0.1	75.291	0.759	76.05	0	PA_without_intermediate	test	ward_and_allport	71	1.0	0.759	to_hand	poldrack-single-stim	s549	False
0.1	76.051	0.83	76.881	0	PA_without_intermediate	test	ward_and_allport	82	1.0	0.83	to_board	poldrack-single-stim	s549	False
0.1	76.884	0.599	77.483	0	PA_without_intermediate	test	ward_and_allport	71	1.0	0.599	to_hand	poldrack-single-stim	s549	False
0.1	77.484	0.534	78.018	0	PA_without_intermediate	test	ward_and_allport	89	1.0	0.534	to_board	poldrack-single-stim	s549	False
1.0	78.022	2.68	78.021	0	PA_without_intermediate	test	ward_and_allport	-1	1.0	n/a	feedback	poldrack-single-stim	s549	False
6.264	80.705	6.264	86.969	1	PA_with_intermediate	test	ward_and_allport	82	2.0	6.264	to_hand	poldrack-single-stim	s549	False
0.1	86.97	1.648	88.618	0	PA_with_intermediate	test	ward_and_allport	89	2.0	1.648	to_board	poldrack-single-stim	s549	False
0.1	88.62	1.67	90.29	0	PA_with_intermediate	test	ward_and_allport	82	2.0	1.67	to_hand	poldrack-single-stim	s549	False
0.1	90.291	0.688	90.979	0	PA_with_intermediate	test	ward_and_allport	71	2.0	0.688	to_board	poldrack-single-stim	s549	False
0.1	90.981	1.575	92.556	0	PA_with_intermediate	test	ward_and_allport	89	2.0	1.575	to_hand	poldrack-single-stim	s549	False
0.1	92.557	0.996	93.553	0	PA_with_intermediate	test	ward_and_allport	82	2.0	0.996	to_board	poldrack-single-stim	s549	False
1.0	93.557	4.72	93.556	0	PA_with_intermediate	test	ward_and_allport	-1	2.0	n/a	feedback	poldrack-single-stim	s549	False
3.042	98.279	3.042	101.321	1	PA_without_intermediate	test	ward_and_allport	71	3.0	3.042	to_hand	poldrack-single-stim	s549	False
0.1	101.322	0.974	102.296	0	PA_without_intermediate	test	ward_and_allport	89	3.0	0.974	to_board	poldrack-single-stim	s549	False
0.1	102.298	0.528	102.826	0	PA_without_intermediate	test	ward_and_allport	71	3.0	0.528	to_hand	poldrack-single-stim	s549	False
0.1	102.827	0.674	103.501	0	PA_without_intermediate	test	ward_and_allport	89	3.0	0.674	to_board	poldrack-single-stim	s549	False
0.1	103.503	0.799	104.302	0	PA_without_intermediate	test	ward_and_allport	71	3.0	0.799	to_hand	poldrack-single-stim	s549	False
0.1	104.304	0.615	104.919	0	PA_without_intermediate	test	ward_and_allport	82	3.0	0.615	to_board	poldrack-single-stim	s549	False
1.0	104.922	3.224	104.921	0	PA_without_intermediate	test	ward_and_allport	-1	3.0	n/a	feedback	poldrack-single-stim	s549	False
4.279	108.149	4.279	112.428	1	PA_without_intermediate	test	ward_and_allport	71	4.0	4.279	to_hand	poldrack-single-stim	s549	False
0.1	112.429	0.497	112.926	0	PA_without_intermediate	test	ward_and_allport	82	4.0	0.497	to_board	poldrack-single-stim	s549	False
0.1	112.93	1.125	114.055	0	PA_without_intermediate	test	ward_and_allport	71	4.0	1.125	to_hand	poldrack-single-stim	s549	False
0.1	114.056	0.456	114.512	0	PA_without_intermediate	test	ward_and_allport	89	4.0	0.456	to_board	poldrack-single-stim	s549	False
0.1	114.516	0.415	114.931	0	PA_without_intermediate	test	ward_and_allport	71	4.0	0.415	to_hand	poldrack-single-stim	s549	False
0.1	114.932	0.5	115.432	0	PA_without_intermediate	test	ward_and_allport	82	4.0	0.5	to_board	poldrack-single-stim	s549	False
1.0	115.437	2.272	115.436	0	PA_without_intermediate	test	ward_and_allport	-1	4.0	n/a	feedback	poldrack-single-stim	s549	False
4.37	117.711	4.37	122.081	1	PA_with_intermediate	test	ward_and_allport	82	5.0	4.37	to_hand	poldrack-single-stim	s549	False
0.1	122.081	0.551	122.632	0	PA_with_intermediate	test	ward_and_allport	71	5.0	0.551	to_board	poldrack-single-stim	s549	False
0.1	122.635	1.419	124.054	0	PA_with_intermediate	test	ward_and_allport	82	5.0	1.419	to_hand	poldrack-single-stim	s549	False
0.1	124.055	0.693	124.748	0	PA_with_intermediate	test	ward_and_allport	89	5.0	0.693	to_board	poldrack-single-stim	s549	False
0.1	124.751	0.758	125.509	0	PA_with_intermediate	test	ward_and_allport	71	5.0	0.758	to_hand	poldrack-single-stim	s549	False
0.1	125.51	0.563	126.073	0	PA_with_intermediate	test	ward_and_allport	82	5.0	0.563	to_board	poldrack-single-stim	s549	False
1.0	126.077	3.632	126.076	0	PA_with_intermediate	test	ward_and_allport	-1	5.0	n/a	feedback	poldrack-single-stim	s549	False
3.186	129.711	3.186	132.897	1	PA_without_intermediate	test	ward_and_allport	89	6.0	3.186	to_hand	poldrack-single-stim	s549	False
0.1	132.898	0.717	133.615	0	PA_without_intermediate	test	ward_and_allport	82	6.0	0.717	to_board	poldrack-single-stim	s549	False
0.1	133.618	1.444	135.062	0	PA_without_intermediate	test	ward_and_allport	89	6.0	1.444	to_hand	poldrack-single-stim	s549	False
0.1	135.064	1.001	136.065	0	PA_without_intermediate	test	ward_and_allport	82	6.0	1.001	to_board	poldrack-single-stim	s549	False
0.1	136.067	1.024	137.091	0	PA_without_intermediate	test	ward_and_allport	89	6.0	1.024	to_hand	poldrack-single-stim	s549	False
0.1	137.091	0.621	137.712	0	PA_without_intermediate	test	ward_and_allport	71	6.0	0.621	to_board	poldrack-single-stim	s549	False
1.0	137.718	2.408	137.717	0	PA_without_intermediate	test	ward_and_allport	-1	6.0	n/a	feedback	poldrack-single-stim	s549	False
4.25	140.129	4.25	144.379	1	PA_without_intermediate	test	ward_and_allport	82	7.0	4.25	to_hand	poldrack-single-stim	s549	False
0.1	144.38	0.912	145.292	0	PA_without_intermediate	test	ward_and_allport	71	7.0	0.912	to_board	poldrack-single-stim	s549	False
0.1	145.295	1.375	146.67	0	PA_without_intermediate	test	ward_and_allport	82	7.0	1.375	to_hand	poldrack-single-stim	s549	False
0.1	146.671	1.214	147.885	0	PA_without_intermediate	test	ward_and_allport	89	7.0	1.214	to_board	poldrack-single-stim	s549	False
0.1	147.889	0.723	148.612	0	PA_without_intermediate	test	ward_and_allport	82	7.0	0.723	to_hand	poldrack-single-stim	s549	False
0.1	148.613	0.765	149.378	0	PA_without_intermediate	test	ward_and_allport	71	7.0	0.765	to_board	poldrack-single-stim	s549	False
1.0	149.383	2.0	149.382	0	PA_without_intermediate	test	ward_and_allport	-1	7.0	n/a	feedback	poldrack-single-stim	s549	False
3.218	151.386	3.218	154.604	1	PA_with_intermediate	test	ward_and_allport	71	8.0	3.218	to_hand	poldrack-single-stim	s549	False
0.1	154.605	0.498	155.103	0	PA_with_intermediate	test	ward_and_allport	82	8.0	0.498	to_board	poldrack-single-stim	s549	False
0.1	155.106	0.671	155.777	0	PA_with_intermediate	test	ward_and_allport	71	8.0	0.671	to_hand	poldrack-single-stim	s549	False
0.1	155.777	0.405	156.182	0	PA_with_intermediate	test	ward_and_allport	89	8.0	0.405	to_board	poldrack-single-stim	s549	False
0.1	156.185	0.935	157.12	0	PA_with_intermediate	test	ward_and_allport	82	8.0	0.935	to_hand	poldrack-single-stim	s549	False
0.1	157.121	0.539	157.66	0	PA_with_intermediate	test	ward_and_allport	71	8.0	0.539	to_board	poldrack-single-stim	s549	False
1.0	157.665	2.0	157.664	0	PA_with_intermediate	test	ward_and_allport	-1	8.0	n/a	feedback	poldrack-single-stim	s549	False
4.262	159.668	4.262	163.93	1	PA_with_intermediate	test	ward_and_allport	82	9.0	4.262	to_hand	poldrack-single-stim	s549	False
0.1	163.932	0.51	164.442	0	PA_with_intermediate	test	ward_and_allport	89	9.0	0.51	to_board	poldrack-single-stim	s549	False
0.1	164.445	1.13	165.575	0	PA_with_intermediate	test	ward_and_allport	82	9.0	1.13	to_hand	poldrack-single-stim	s549	False
0.1	165.577	0.713	166.29	0	PA_with_intermediate	test	ward_and_allport	71	9.0	0.713	to_board	poldrack-single-stim	s549	False
0.1	166.294	1.223	167.517	0	PA_with_intermediate	test	ward_and_allport	89	9.0	1.223	to_hand	poldrack-single-stim	s549	False
0.1	167.518	0.594	168.112	0	PA_with_intermediate	test	ward_and_allport	71	9.0	0.594	to_board	poldrack-single-stim	s549	False
1.0	168.116	2.0	168.115	0	PA_with_intermediate	test	ward_and_allport	-1	9.0	n/a	feedback	poldrack-single-stim	s549	False
5.253	170.121	5.253	175.374	1	PA_with_intermediate	test	ward_and_allport	82	10.0	5.253	to_hand	poldrack-single-stim	s549	False
0.1	175.375	0.564	175.939	0	PA_with_intermediate	test	ward_and_allport	89	10.0	0.564	to_board	poldrack-single-stim	s549	False
0.1	175.943	0.76	176.703	0	PA_with_intermediate	test	ward_and_allport	82	10.0	0.76	to_hand	poldrack-single-stim	s549	False
0.1	176.706	0.532	177.238	0	PA_with_intermediate	test	ward_and_allport	71	10.0	0.532	to_board	poldrack-single-stim	s549	False
0.1	177.242	0.831	178.073	0	PA_with_intermediate	test	ward_and_allport	89	10.0	0.831	to_hand	poldrack-single-stim	s549	False
0.1	178.075	0.485	178.56	0	PA_with_intermediate	test	ward_and_allport	71	10.0	0.485	to_board	poldrack-single-stim	s549	False
1.0	178.565	2.408	178.564	0	PA_with_intermediate	test	ward_and_allport	-1	10.0	n/a	feedback	poldrack-single-stim	s549	False
2.794	180.978	2.794	183.772	1	PA_without_intermediate	test	ward_and_allport	82	11.0	2.794	to_hand	poldrack-single-stim	s549	False
0.1	183.772	0.531	184.303	0	PA_without_intermediate	test	ward_and_allport	89	11.0	0.531	to_board	poldrack-single-stim	s549	False
0.1	184.306	1.285	185.591	0	PA_without_intermediate	test	ward_and_allport	82	11.0	1.285	to_hand	poldrack-single-stim	s549	False
0.1	185.591	0.467	186.058	0	PA_without_intermediate	test	ward_and_allport	71	11.0	0.467	to_board	poldrack-single-stim	s549	False
0.1	186.062	1.166	187.228	0	PA_without_intermediate	test	ward_and_allport	82	11.0	1.166	to_hand	poldrack-single-stim	s549	False
0.1	187.228	0.561	187.789	0	PA_without_intermediate	test	ward_and_allport	89	11.0	0.561	to_board	poldrack-single-stim	s549	False
1.0	187.795	2.816	187.794	0	PA_without_intermediate	test	ward_and_allport	-1	11.0	n/a	feedback	poldrack-single-stim	s549	False
5.481	190.615	5.481	196.096	1	PA_with_intermediate	test	ward_and_allport	71	12.0	5.481	to_hand	poldrack-single-stim	s549	False
0.1	196.098	0.578	196.676	0	PA_with_intermediate	test	ward_and_allport	82	12.0	0.578	to_board	poldrack-single-stim	s549	False
0.1	196.68	0.927	197.607	0	PA_with_intermediate	test	ward_and_allport	71	12.0	0.927	to_hand	poldrack-single-stim	s549	False
0.1	197.609	0.434	198.043	0	PA_with_intermediate	test	ward_and_allport	89	12.0	0.434	to_board	poldrack-single-stim	s549	False
0.1	198.048	0.476	198.524	0	PA_with_intermediate	test	ward_and_allport	82	12.0	0.476	to_hand	poldrack-single-stim	s549	False
0.1	198.524	0.688	199.212	0	PA_with_intermediate	test	ward_and_allport	89	12.0	0.688	to_board	poldrack-single-stim	s549	False
1.0	199.218	4.176	199.217	0	PA_with_intermediate	test	ward_and_allport	-1	12.0	n/a	feedback	poldrack-single-stim	s549	False
3.754	203.399	3.754	207.153	1	PA_with_intermediate	test	ward_and_allport	82	13.0	3.754	to_hand	poldrack-single-stim	s549	False
0.1	207.154	1.021	208.175	0	PA_with_intermediate	test	ward_and_allport	71	13.0	1.021	to_board	poldrack-single-stim	s549	False
0.1	208.178	0.418	208.596	0	PA_with_intermediate	test	ward_and_allport	82	13.0	0.418	to_hand	poldrack-single-stim	s549	False
0.1	208.597	0.646	209.243	0	PA_with_intermediate	test	ward_and_allport	89	13.0	0.646	to_board	poldrack-single-stim	s549	False
0.1	209.248	0.49	209.738	0	PA_with_intermediate	test	ward_and_allport	71	13.0	0.49	to_hand	poldrack-single-stim	s549	False
0.1	209.739	0.576	210.315	0	PA_with_intermediate	test	ward_and_allport	89	13.0	0.576	to_board	poldrack-single-stim	s549	False
1.0	210.32	3.36	210.319	0	PA_with_intermediate	test	ward_and_allport	-1	13.0	n/a	feedback	poldrack-single-stim	s549	False
6.41	213.683	6.41	220.093	1	PA_with_intermediate	test	ward_and_allport	89	14.0	6.41	to_hand	poldrack-single-stim	s549	False
0.1	220.094	2.014	222.108	0	PA_with_intermediate	test	ward_and_allport	71	14.0	2.014	to_board	poldrack-single-stim	s549	False
0.1	222.112	0.788	222.9	0	PA_with_intermediate	test	ward_and_allport	89	14.0	0.788	to_hand	poldrack-single-stim	s549	False
0.1	222.901	0.845	223.746	0	PA_with_intermediate	test	ward_and_allport	82	14.0	0.845	to_board	poldrack-single-stim	s549	False
0.1	223.75	0.556	224.306	0	PA_with_intermediate	test	ward_and_allport	71	14.0	0.556	to_hand	poldrack-single-stim	s549	False
0.1	224.306	0.45	224.756	0	PA_with_intermediate	test	ward_and_allport	82	14.0	0.45	to_board	poldrack-single-stim	s549	False
1.0	224.763	2.0	224.762	0	PA_with_intermediate	test	ward_and_allport	-1	14.0	n/a	feedback	poldrack-single-stim	s549	False
3.083	231.77	3.083	234.853	1	PA_without_intermediate	test	ward_and_allport	89	15.0	3.083	to_hand	poldrack-single-stim	s549	False
0.1	234.854	0.594	235.448	0	PA_without_intermediate	test	ward_and_allport	82	15.0	0.594	to_board	poldrack-single-stim	s549	False
0.1	235.453	0.921	236.374	0	PA_without_intermediate	test	ward_and_allport	89	15.0	0.921	to_hand	poldrack-single-stim	s549	False
0.1	236.375	0.688	237.063	0	PA_without_intermediate	test	ward_and_allport	82	15.0	0.688	to_board	poldrack-single-stim	s549	False
0.1	237.068	1.623	238.691	0	PA_without_intermediate	test	ward_and_allport	89	15.0	1.623	to_hand	poldrack-single-stim	s549	False
0.1	238.692	0.457	239.149	0	PA_without_intermediate	test	ward_and_allport	71	15.0	0.457	to_board	poldrack-single-stim	s549	False
1.0	239.155	2.408	239.154	0	PA_without_intermediate	test	ward_and_allport	-1	15.0	n/a	feedback	poldrack-single-stim	s549	False
3.987	241.568	3.987	245.555	1	PA_with_intermediate	test	ward_and_allport	89	16.0	3.987	to_hand	poldrack-single-stim	s549	False
0.1	245.555	0.576	246.131	0	PA_with_intermediate	test	ward_and_allport	71	16.0	0.576	to_board	poldrack-single-stim	s549	False
0.1	246.135	0.512	246.647	0	PA_with_intermediate	test	ward_and_allport	89	16.0	0.512	to_hand	poldrack-single-stim	s549	False
0.1	246.648	0.527	247.175	0	PA_with_intermediate	test	ward_and_allport	82	16.0	0.527	to_board	poldrack-single-stim	s549	False
0.1	247.18	1.488	248.668	0	PA_with_intermediate	test	ward_and_allport	71	16.0	1.488	to_hand	poldrack-single-stim	s549	False
0.1	248.669	0.453	249.122	0	PA_with_intermediate	test	ward_and_allport	89	16.0	0.453	to_board	poldrack-single-stim	s549	False
1.0	249.126	2.816	249.125	0	PA_with_intermediate	test	ward_and_allport	-1	16.0	n/a	feedback	poldrack-single-stim	s549	False
1.787	251.946	1.787	253.733	1	PA_without_intermediate	test	ward_and_allport	71	17.0	1.787	to_hand	poldrack-single-stim	s549	False
0.1	253.734	0.743	254.477	0	PA_without_intermediate	test	ward_and_allport	82	17.0	0.743	to_board	poldrack-single-stim	s549	False
0.1	254.481	0.865	255.346	0	PA_without_intermediate	test	ward_and_allport	71	17.0	0.865	to_hand	poldrack-single-stim	s549	False
0.1	255.348	0.441	255.789	0	PA_without_intermediate	test	ward_and_allport	89	17.0	0.441	to_board	poldrack-single-stim	s549	False
0.1	255.793	0.374	256.167	0	PA_without_intermediate	test	ward_and_allport	71	17.0	0.374	to_hand	poldrack-single-stim	s549	False
0.1	256.168	0.464	256.632	0	PA_without_intermediate	test	ward_and_allport	82	17.0	0.464	to_board	poldrack-single-stim	s549	False
1.0	256.638	3.088	256.637	0	PA_without_intermediate	test	ward_and_allport	-1	17.0	n/a	feedback	poldrack-single-stim	s549	False
2.529	259.731	2.529	262.26	1	PA_without_intermediate	test	ward_and_allport	89	18.0	2.529	to_hand	poldrack-single-stim	s549	False
0.1	262.261	0.592	262.853	0	PA_without_intermediate	test	ward_and_allport	71	18.0	0.592	to_board	poldrack-single-stim	s549	False
0.1	262.859	1.02	263.879	0	PA_without_intermediate	test	ward_and_allport	89	18.0	1.02	to_hand	poldrack-single-stim	s549	False
0.1	263.88	0.527	264.407	0	PA_without_intermediate	test	ward_and_allport	82	18.0	0.527	to_board	poldrack-single-stim	s549	False
0.1	264.412	0.667	265.079	0	PA_without_intermediate	test	ward_and_allport	89	18.0	0.667	to_hand	poldrack-single-stim	s549	False
0.1	265.08	0.378	265.458	0	PA_without_intermediate	test	ward_and_allport	71	18.0	0.378	to_board	poldrack-single-stim	s549	False
1.0	265.465	2.136	265.464	0	PA_without_intermediate	test	ward_and_allport	-1	18.0	n/a	feedback	poldrack-single-stim	s549	False
2.088	267.605	2.088	269.693	1	PA_without_intermediate	test	ward_and_allport	89	19.0	2.088	to_hand	poldrack-single-stim	s549	False
0.1	269.694	0.566	270.26	0	PA_without_intermediate	test	ward_and_allport	82	19.0	0.566	to_board	poldrack-single-stim	s549	False
0.1	270.265	1.612	271.877	0	PA_without_intermediate	test	ward_and_allport	89	19.0	1.612	to_hand	poldrack-single-stim	s549	False
0.1	271.878	0.349	272.227	0	PA_without_intermediate	test	ward_and_allport	71	19.0	0.349	to_board	poldrack-single-stim	s549	False
0.1	272.232	0.558	272.79	0	PA_without_intermediate	test	ward_and_allport	89	19.0	0.558	to_hand	poldrack-single-stim	s549	False
0.1	272.791	0.481	273.272	0	PA_without_intermediate	test	ward_and_allport	82	19.0	0.481	to_board	poldrack-single-stim	s549	False
1.0	273.278	7.168	273.277	0	PA_without_intermediate	test	ward_and_allport	-1	19.0	n/a	feedback	poldrack-single-stim	s549	False
2.775	280.451	2.775	283.226	1	PA_without_intermediate	test	ward_and_allport	82	20.0	2.775	to_hand	poldrack-single-stim	s549	False
0.1	283.226	0.476	283.702	0	PA_without_intermediate	test	ward_and_allport	89	20.0	0.476	to_board	poldrack-single-stim	s549	False
0.1	283.708	1.052	284.76	0	PA_without_intermediate	test	ward_and_allport	82	20.0	1.052	to_hand	poldrack-single-stim	s549	False
0.1	284.76	0.455	285.215	0	PA_without_intermediate	test	ward_and_allport	71	20.0	0.455	to_board	poldrack-single-stim	s549	False
0.1	285.22	0.507	285.727	0	PA_without_intermediate	test	ward_and_allport	82	20.0	0.507	to_hand	poldrack-single-stim	s549	False
0.1	285.728	0.536	286.264	0	PA_without_intermediate	test	ward_and_allport	89	20.0	0.536	to_board	poldrack-single-stim	s549	False
1.0	286.271	2.816	286.27	0	PA_without_intermediate	test	ward_and_allport	-1	20.0	n/a	feedback	poldrack-single-stim	s549	False
3.194	289.091	3.194	292.285	1	PA_with_intermediate	test	ward_and_allport	82	21.0	3.194	to_hand	poldrack-single-stim	s549	False
0.1	292.287	2.106	294.393	0	PA_with_intermediate	test	ward_and_allport	71	21.0	2.106	to_board	poldrack-single-stim	s549	False
0.1	294.397	0.465	294.862	0	PA_with_intermediate	test	ward_and_allport	82	21.0	0.465	to_hand	poldrack-single-stim	s549	False
0.1	294.863	0.427	295.29	0	PA_with_intermediate	test	ward_and_allport	89	21.0	0.427	to_board	poldrack-single-stim	s549	False
0.1	295.297	1.69	296.987	0	PA_with_intermediate	test	ward_and_allport	71	21.0	1.69	to_hand	poldrack-single-stim	s549	False
0.1	296.988	0.48	297.468	0	PA_with_intermediate	test	ward_and_allport	82	21.0	0.48	to_board	poldrack-single-stim	s549	False
1.0	297.475	2.952	297.474	0	PA_with_intermediate	test	ward_and_allport	-1	21.0	n/a	feedback	poldrack-single-stim	s549	False
2.59	300.432	2.59	303.022	1	PA_with_intermediate	test	ward_and_allport	71	22.0	2.59	to_hand	poldrack-single-stim	s549	False
0.1	303.023	0.298	303.321	0	PA_with_intermediate	test	ward_and_allport	89	22.0	0.298	to_board	poldrack-single-stim	s549	False
0.1	303.327	0.58	303.907	0	PA_with_intermediate	test	ward_and_allport	71	22.0	0.58	to_hand	poldrack-single-stim	s549	False
0.1	303.909	0.56	304.469	0	PA_with_intermediate	test	ward_and_allport	82	22.0	0.56	to_board	poldrack-single-stim	s549	False
0.1	304.476	1.182	305.658	0	PA_with_intermediate	test	ward_and_allport	89	22.0	1.182	to_hand	poldrack-single-stim	s549	False
0.1	305.658	0.638	306.296	0	PA_with_intermediate	test	ward_and_allport	82	22.0	0.638	to_board	poldrack-single-stim	s549	False
1.0	306.304	2.136	306.303	0	PA_with_intermediate	test	ward_and_allport	-1	22.0	n/a	feedback	poldrack-single-stim	s549	False
2.025	308.445	2.025	310.47	1	PA_without_intermediate	test	ward_and_allport	82	23.0	2.025	to_hand	poldrack-single-stim	s549	False
0.1	310.47	0.574	311.044	0	PA_without_intermediate	test	ward_and_allport	71	23.0	0.574	to_board	poldrack-single-stim	s549	False
0.1	311.05	0.576	311.626	0	PA_without_intermediate	test	ward_and_allport	82	23.0	0.576	to_hand	poldrack-single-stim	s549	False
0.1	311.627	0.459	312.086	0	PA_without_intermediate	test	ward_and_allport	71	23.0	0.459	to_board	poldrack-single-stim	s549	False
0.1	312.093	0.546	312.639	0	PA_without_intermediate	test	ward_and_allport	82	23.0	0.546	to_hand	poldrack-single-stim	s549	False
0.1	312.64	0.495	313.135	0	PA_without_intermediate	test	ward_and_allport	89	23.0	0.495	to_board	poldrack-single-stim	s549	False
1.0	313.142	2.68	313.141	0	PA_without_intermediate	test	ward_and_allport	-1	23.0	n/a	feedback	poldrack-single-stim	s549	False
2.985	315.829	2.985	318.814	1	PA_without_intermediate	test	ward_and_allport	71	24.0	2.985	to_hand	poldrack-single-stim	s549	False
0.1	318.815	0.391	319.206	0	PA_without_intermediate	test	ward_and_allport	89	24.0	0.391	to_board	poldrack-single-stim	s549	False
0.1	319.212	0.587	319.799	0	PA_without_intermediate	test	ward_and_allport	71	24.0	0.587	to_hand	poldrack-single-stim	s549	False
0.1	319.8	0.443	320.243	0	PA_without_intermediate	test	ward_and_allport	82	24.0	0.443	to_board	poldrack-single-stim	s549	False
0.1	320.249	0.504	320.753	0	PA_without_intermediate	test	ward_and_allport	71	24.0	0.504	to_hand	poldrack-single-stim	s549	False
0.1	320.754	0.506	321.26	0	PA_without_intermediate	test	ward_and_allport	89	24.0	0.506	to_board	poldrack-single-stim	s549	False
1.0	321.267	3.088	321.266	0	PA_without_intermediate	test	ward_and_allport	-1	24.0	n/a	feedback	poldrack-single-stim	s549	False
2.576	324.362	2.576	326.938	1	PA_with_intermediate	test	ward_and_allport	71	25.0	2.576	to_hand	poldrack-single-stim	s549	False
0.1	326.939	0.758	327.697	0	PA_with_intermediate	test	ward_and_allport	82	25.0	0.758	to_board	poldrack-single-stim	s549	False
0.1	327.704	0.38	328.084	0	PA_with_intermediate	test	ward_and_allport	71	25.0	0.38	to_hand	poldrack-single-stim	s549	False
0.1	328.084	0.6	328.684	0	PA_with_intermediate	test	ward_and_allport	89	25.0	0.6	to_board	poldrack-single-stim	s549	False
0.1	328.692	1.278	329.97	0	PA_with_intermediate	test	ward_and_allport	82	25.0	1.278	to_hand	poldrack-single-stim	s549	False
0.1	329.971	0.297	330.268	0	PA_with_intermediate	test	ward_and_allport	71	25.0	0.297	to_board	poldrack-single-stim	s549	False
1.0	330.276	2.0	330.275	0	PA_with_intermediate	test	ward_and_allport	-1	25.0	n/a	feedback	poldrack-single-stim	s549	False
5.331	332.282	5.331	337.613	1	PA_without_intermediate	test	ward_and_allport	82	26.0	5.331	to_hand	poldrack-single-stim	s549	False
0.1	337.614	0.479	338.093	0	PA_without_intermediate	test	ward_and_allport	89	26.0	0.479	to_board	poldrack-single-stim	s549	False
0.1	338.1	1.136	339.236	0	PA_without_intermediate	test	ward_and_allport	82	26.0	1.136	to_hand	poldrack-single-stim	s549	False
0.1	339.238	0.698	339.936	0	PA_without_intermediate	test	ward_and_allport	89	26.0	0.698	to_board	poldrack-single-stim	s549	False
0.1	339.942	1.075	341.017	0	PA_without_intermediate	test	ward_and_allport	82	26.0	1.075	to_hand	poldrack-single-stim	s549	False
0.1	341.018	0.391	341.409	0	PA_without_intermediate	test	ward_and_allport	71	26.0	0.391	to_board	poldrack-single-stim	s549	False
1.0	341.417	2.0	341.416	0	PA_without_intermediate	test	ward_and_allport	-1	26.0	n/a	feedback	poldrack-single-stim	s549	False
4.89	343.424	4.89	348.314	1	PA_without_intermediate	test	ward_and_allport	89	27.0	4.89	to_hand	poldrack-single-stim	s549	False
0.1	348.315	0.421	348.736	0	PA_without_intermediate	test	ward_and_allport	71	27.0	0.421	to_board	poldrack-single-stim	s549	False
0.1	348.743	0.754	349.497	0	PA_without_intermediate	test	ward_and_allport	89	27.0	0.754	to_hand	poldrack-single-stim	s549	False
0.1	349.498	0.392	349.89	0	PA_without_intermediate	test	ward_and_allport	82	27.0	0.392	to_board	poldrack-single-stim	s549	False
0.1	349.897	0.581	350.478	0	PA_without_intermediate	test	ward_and_allport	89	27.0	0.581	to_hand	poldrack-single-stim	s549	False
0.1	350.478	0.387	350.865	0	PA_without_intermediate	test	ward_and_allport	71	27.0	0.387	to_board	poldrack-single-stim	s549	False
1.0	350.874	2.0	350.873	0	PA_without_intermediate	test	ward_and_allport	-1	27.0	n/a	feedback	poldrack-single-stim	s549	False
2.882	352.88	2.882	355.762	1	PA_with_intermediate	test	ward_and_allport	89	28.0	2.882	to_hand	poldrack-single-stim	s549	False
0.1	355.763	0.52	356.283	0	PA_with_intermediate	test	ward_and_allport	71	28.0	0.52	to_board	poldrack-single-stim	s549	False
0.1	356.29	0.456	356.746	0	PA_with_intermediate	test	ward_and_allport	89	28.0	0.456	to_hand	poldrack-single-stim	s549	False
0.1	356.748	0.562	357.31	0	PA_with_intermediate	test	ward_and_allport	82	28.0	0.562	to_board	poldrack-single-stim	s549	False
0.1	357.318	0.563	357.881	0	PA_with_intermediate	test	ward_and_allport	71	28.0	0.563	to_hand	poldrack-single-stim	s549	False
0.1	357.882	0.5	358.382	0	PA_with_intermediate	test	ward_and_allport	82	28.0	0.5	to_board	poldrack-single-stim	s549	False
1.0	358.39	2.544	358.389	0	PA_with_intermediate	test	ward_and_allport	-1	28.0	n/a	feedback	poldrack-single-stim	s549	False
2.75	360.942	2.75	363.692	1	PA_without_intermediate	test	ward_and_allport	71	29.0	2.75	to_hand	poldrack-single-stim	s549	False
0.1	363.693	0.347	364.04	0	PA_without_intermediate	test	ward_and_allport	82	29.0	0.347	to_board	poldrack-single-stim	s549	False
0.1	364.047	0.684	364.731	0	PA_without_intermediate	test	ward_and_allport	71	29.0	0.684	to_hand	poldrack-single-stim	s549	False
0.1	364.732	0.448	365.18	0	PA_without_intermediate	test	ward_and_allport	82	29.0	0.448	to_board	poldrack-single-stim	s549	False
0.1	365.187	1.068	366.255	0	PA_without_intermediate	test	ward_and_allport	71	29.0	1.068	to_hand	poldrack-single-stim	s549	False
0.1	366.256	0.395	366.651	0	PA_without_intermediate	test	ward_and_allport	89	29.0	0.395	to_board	poldrack-single-stim	s549	False
1.0	366.659	2.272	366.658	0	PA_without_intermediate	test	ward_and_allport	-1	29.0	n/a	feedback	poldrack-single-stim	s549	False
1.745	373.941	1.745	375.686	1	PA_with_intermediate	test	ward_and_allport	71	30.0	1.745	to_hand	poldrack-single-stim	s549	False
0.1	375.686	0.269	375.955	0	PA_with_intermediate	test	ward_and_allport	89	30.0	0.269	to_board	poldrack-single-stim	s549	False
0.1	375.962	0.296	376.258	0	PA_with_intermediate	test	ward_and_allport	71	30.0	0.296	to_hand	poldrack-single-stim	s549	False
0.1	376.259	0.383	376.642	0	PA_with_intermediate	test	ward_and_allport	82	30.0	0.383	to_board	poldrack-single-stim	s549	False
0.1	376.649	0.899	377.548	0	PA_with_intermediate	test	ward_and_allport	89	30.0	0.899	to_hand	poldrack-single-stim	s549	False
0.1	377.55	0.472	378.022	0	PA_with_intermediate	test	ward_and_allport	82	30.0	0.472	to_board	poldrack-single-stim	s549	False
1.0	378.031	4.04	378.03	0	PA_with_intermediate	test	ward_and_allport	-1	30.0	n/a	feedback	poldrack-single-stim	s549	False
3.502	382.078	3.502	385.58	1	PA_with_intermediate	test	ward_and_allport	71	31.0	3.502	to_hand	poldrack-single-stim	s549	False
0.1	385.581	0.549	386.13	0	PA_with_intermediate	test	ward_and_allport	89	31.0	0.549	to_board	poldrack-single-stim	s549	False
0.1	386.139	0.257	386.396	0	PA_with_intermediate	test	ward_and_allport	71	31.0	0.257	to_hand	poldrack-single-stim	s549	False
0.1	386.396	0.439	386.835	0	PA_with_intermediate	test	ward_and_allport	82	31.0	0.439	to_board	poldrack-single-stim	s549	False
0.1	386.844	0.502	387.346	0	PA_with_intermediate	test	ward_and_allport	89	31.0	0.502	to_hand	poldrack-single-stim	s549	False
0.1	387.348	0.305	387.653	0	PA_with_intermediate	test	ward_and_allport	71	31.0	0.305	to_board	poldrack-single-stim	s549	False
1.0	387.664	2.272	387.663	0	PA_with_intermediate	test	ward_and_allport	-1	31.0	n/a	feedback	poldrack-single-stim	s549	False
1.739	389.944	1.739	391.683	1	PA_with_intermediate	test	ward_and_allport	71	32.0	1.739	to_hand	poldrack-single-stim	s549	False
0.1	391.684	0.403	392.087	0	PA_with_intermediate	test	ward_and_allport	89	32.0	0.403	to_board	poldrack-single-stim	s549	False
0.1	392.093	0.317	392.41	0	PA_with_intermediate	test	ward_and_allport	71	32.0	0.317	to_hand	poldrack-single-stim	s549	False
0.1	392.411	0.495	392.906	0	PA_with_intermediate	test	ward_and_allport	82	32.0	0.495	to_board	poldrack-single-stim	s549	False
0.1	392.912	1.057	393.969	0	PA_with_intermediate	test	ward_and_allport	89	32.0	1.057	to_hand	poldrack-single-stim	s549	False
0.1	393.97	0.273	394.243	0	PA_with_intermediate	test	ward_and_allport	71	32.0	0.273	to_board	poldrack-single-stim	s549	False
1.0	394.249	2.136	394.248	0	PA_with_intermediate	test	ward_and_allport	-1	32.0	n/a	feedback	poldrack-single-stim	s549	False
2.216	396.394	2.216	398.61	1	PA_with_intermediate	test	ward_and_allport	89	33.0	2.216	to_hand	poldrack-single-stim	s549	False
0.1	398.611	1.47	400.081	0	PA_with_intermediate	test	ward_and_allport	82	33.0	1.47	to_board	poldrack-single-stim	s549	False
0.1	400.089	0.674	400.763	0	PA_with_intermediate	test	ward_and_allport	89	33.0	0.674	to_hand	poldrack-single-stim	s549	False
0.1	400.765	0.339	401.104	0	PA_with_intermediate	test	ward_and_allport	71	33.0	0.339	to_board	poldrack-single-stim	s549	False
0.1	401.112	0.575	401.687	0	PA_with_intermediate	test	ward_and_allport	82	33.0	0.575	to_hand	poldrack-single-stim	s549	False
0.1	401.687	0.506	402.193	0	PA_with_intermediate	test	ward_and_allport	89	33.0	0.506	to_board	poldrack-single-stim	s549	False
1.0	402.201	2.0	402.2	0	PA_with_intermediate	test	ward_and_allport	-1	33.0	n/a	feedback	poldrack-single-stim	s549	False
6.225	404.207	6.225	410.432	1	PA_with_intermediate	test	ward_and_allport	82	34.0	6.225	to_hand	poldrack-single-stim	s549	False
0.1	410.433	0.327	410.76	0	PA_with_intermediate	test	ward_and_allport	71	34.0	0.327	to_board	poldrack-single-stim	s549	False
0.1	410.765	0.907	411.672	0	PA_with_intermediate	test	ward_and_allport	82	34.0	0.907	to_hand	poldrack-single-stim	s549	False
0.1	411.673	0.787	412.46	0	PA_with_intermediate	test	ward_and_allport	89	34.0	0.787	to_board	poldrack-single-stim	s549	False
0.1	412.467	0.564	413.031	0	PA_with_intermediate	test	ward_and_allport	71	34.0	0.564	to_hand	poldrack-single-stim	s549	False
0.1	413.033	0.435	413.468	0	PA_with_intermediate	test	ward_and_allport	89	34.0	0.435	to_board	poldrack-single-stim	s549	False
1.0	413.478	2.0	413.477	0	PA_with_intermediate	test	ward_and_allport	-1	34.0	n/a	feedback	poldrack-single-stim	s549	False
3.204	415.486	3.204	418.69	1	PA_without_intermediate	test	ward_and_allport	89	35.0	3.204	to_hand	poldrack-single-stim	s549	False
0.1	418.691	0.399	419.09	0	PA_without_intermediate	test	ward_and_allport	71	35.0	0.399	to_board	poldrack-single-stim	s549	False
0.1	419.1	0.688	419.788	0	PA_without_intermediate	test	ward_and_allport	89	35.0	0.688	to_hand	poldrack-single-stim	s549	False
0.1	419.788	0.305	420.093	0	PA_without_intermediate	test	ward_and_allport	71	35.0	0.305	to_board	poldrack-single-stim	s549	False
0.1	420.103	0.726	420.829	0	PA_without_intermediate	test	ward_and_allport	89	35.0	0.726	to_hand	poldrack-single-stim	s549	False
0.1	420.83	0.58	421.41	0	PA_without_intermediate	test	ward_and_allport	82	35.0	0.58	to_board	poldrack-single-stim	s549	False
1.0	421.419	2.408	421.418	0	PA_without_intermediate	test	ward_and_allport	-1	35.0	n/a	feedback	poldrack-single-stim	s549	False
4.025	423.833	4.025	427.858	1	PA_with_intermediate	test	ward_and_allport	82	36.0	4.025	to_hand	poldrack-single-stim	s549	False
0.1	427.86	0.375	428.235	0	PA_with_intermediate	test	ward_and_allport	71	36.0	0.375	to_board	poldrack-single-stim	s549	False
0.1	428.242	2.154	430.396	0	PA_with_intermediate	test	ward_and_allport	71	36.0	2.154	to_hand	poldrack-single-stim	s549	False
0.1	430.398	0.36	430.758	0	PA_with_intermediate	test	ward_and_allport	89	36.0	0.36	to_board	poldrack-single-stim	s549	False
0.1	430.766	0.403	431.169	0	PA_with_intermediate	test	ward_and_allport	82	36.0	0.403	to_hand	poldrack-single-stim	s549	False
0.1	431.171	0.441	431.612	0	PA_with_intermediate	test	ward_and_allport	71	36.0	0.441	to_board	poldrack-single-stim	s549	False
0.1	431.621	0.439	432.06	0	PA_with_intermediate	test	ward_and_allport	89	36.0	0.439	to_hand	poldrack-single-stim	s549	False
0.1	432.061	0.692	432.753	0	PA_with_intermediate	test	ward_and_allport	82	36.0	0.692	to_board	poldrack-single-stim	s549	False
1.0	432.763	3.768	432.762	0	PA_with_intermediate	test	ward_and_allport	-1	36.0	n/a	feedback	poldrack-single-stim	s549	False
2.491	436.539	2.491	439.03	1	PA_with_intermediate	test	ward_and_allport	89	37.0	2.491	to_hand	poldrack-single-stim	s549	False
0.1	439.031	0.495	439.526	0	PA_with_intermediate	test	ward_and_allport	82	37.0	0.495	to_board	poldrack-single-stim	s549	False
0.1	439.534	1.82	441.354	0	PA_with_intermediate	test	ward_and_allport	89	37.0	1.82	to_hand	poldrack-single-stim	s549	False
0.1	441.355	0.272	441.627	0	PA_with_intermediate	test	ward_and_allport	71	37.0	0.272	to_board	poldrack-single-stim	s549	False
0.1	441.636	0.393	442.029	0	PA_with_intermediate	test	ward_and_allport	82	37.0	0.393	to_hand	poldrack-single-stim	s549	False
0.1	442.03	0.273	442.303	0	PA_with_intermediate	test	ward_and_allport	71	37.0	0.273	to_board	poldrack-single-stim	s549	False
1.0	442.313	2.68	442.312	0	PA_with_intermediate	test	ward_and_allport	-1	37.0	n/a	feedback	poldrack-single-stim	s549	False
1.556	445.001	1.556	446.557	1	PA_without_intermediate	test	ward_and_allport	89	38.0	1.556	to_hand	poldrack-single-stim	s549	False
0.1	446.558	0.799	447.357	0	PA_without_intermediate	test	ward_and_allport	82	38.0	0.799	to_board	poldrack-single-stim	s549	False
0.1	447.362	1.154	448.516	0	PA_without_intermediate	test	ward_and_allport	89	38.0	1.154	to_hand	poldrack-single-stim	s549	False
0.1	448.517	0.362	448.879	0	PA_without_intermediate	test	ward_and_allport	71	38.0	0.362	to_board	poldrack-single-stim	s549	False
0.1	448.888	0.347	449.235	0	PA_without_intermediate	test	ward_and_allport	89	38.0	0.347	to_hand	poldrack-single-stim	s549	False
0.1	449.236	0.433	449.669	0	PA_without_intermediate	test	ward_and_allport	82	38.0	0.433	to_board	poldrack-single-stim	s549	False
1.0	449.679	3.224	449.678	0	PA_without_intermediate	test	ward_and_allport	-1	38.0	n/a	feedback	poldrack-single-stim	s549	False
2.19	452.912	2.19	455.102	1	PA_without_intermediate	test	ward_and_allport	71	39.0	2.19	to_hand	poldrack-single-stim	s549	False
0.1	455.103	0.3	455.403	0	PA_without_intermediate	test	ward_and_allport	89	39.0	0.3	to_board	poldrack-single-stim	s549	False
0.1	455.409	0.682	456.091	0	PA_without_intermediate	test	ward_and_allport	71	39.0	0.682	to_hand	poldrack-single-stim	s549	False
0.1	456.091	0.354	456.445	0	PA_without_intermediate	test	ward_and_allport	89	39.0	0.354	to_board	poldrack-single-stim	s549	False
0.1	456.454	0.357	456.811	0	PA_without_intermediate	test	ward_and_allport	71	39.0	0.357	to_hand	poldrack-single-stim	s549	False
0.1	456.811	0.546	457.357	0	PA_without_intermediate	test	ward_and_allport	82	39.0	0.546	to_board	poldrack-single-stim	s549	False
1.0	457.368	3.36	457.367	0	PA_without_intermediate	test	ward_and_allport	-1	39.0	n/a	feedback	poldrack-single-stim	s549	False
1.378	460.737	1.378	462.115	1	PA_without_intermediate	test	ward_and_allport	89	40.0	1.378	to_hand	poldrack-single-stim	s549	False
0.1	462.116	0.317	462.433	0	PA_without_intermediate	test	ward_and_allport	71	40.0	0.317	to_board	poldrack-single-stim	s549	False
0.1	462.442	0.342	462.784	0	PA_without_intermediate	test	ward_and_allport	89	40.0	0.342	to_hand	poldrack-single-stim	s549	False
0.1	462.785	0.265	463.05	0	PA_without_intermediate	test	ward_and_allport	71	40.0	0.265	to_board	poldrack-single-stim	s549	False
0.1	463.06	0.419	463.479	0	PA_without_intermediate	test	ward_and_allport	89	40.0	0.419	to_hand	poldrack-single-stim	s549	False
0.1	463.479	0.449	463.928	0	PA_without_intermediate	test	ward_and_allport	82	40.0	0.449	to_board	poldrack-single-stim	s549	False
1.0	463.938	2.0	463.937	0	PA_without_intermediate	test	ward_and_allport	-1	40.0	n/a	feedback	poldrack-single-stim	s549	False
1.637	465.946	1.637	467.583	1	PA_without_intermediate	test	ward_and_allport	82	41.0	1.637	to_hand	poldrack-single-stim	s549	False
0.1	467.583	0.946	468.529	0	PA_without_intermediate	test	ward_and_allport	71	41.0	0.946	to_board	poldrack-single-stim	s549	False
0.1	468.536	0.854	469.39	0	PA_without_intermediate	test	ward_and_allport	82	41.0	0.854	to_hand	poldrack-single-stim	s549	False
0.1	469.391	0.423	469.814	0	PA_without_intermediate	test	ward_and_allport	89	41.0	0.423	to_board	poldrack-single-stim	s549	False
0.1	469.82	0.514	470.334	0	PA_without_intermediate	test	ward_and_allport	82	41.0	0.514	to_hand	poldrack-single-stim	s549	False
0.1	470.335	0.371	470.706	0	PA_without_intermediate	test	ward_and_allport	71	41.0	0.371	to_board	poldrack-single-stim	s549	False
1.0	470.718	2.408	470.717	0	PA_without_intermediate	test	ward_and_allport	-1	41.0	n/a	feedback	poldrack-single-stim	s549	False
2.601	473.135	2.601	475.736	1	PA_with_intermediate	test	ward_and_allport	71	42.0	2.601	to_hand	poldrack-single-stim	s549	False
0.1	475.736	0.51	476.246	0	PA_with_intermediate	test	ward_and_allport	82	42.0	0.51	to_board	poldrack-single-stim	s549	False
0.1	476.253	0.518	476.771	0	PA_with_intermediate	test	ward_and_allport	71	42.0	0.518	to_hand	poldrack-single-stim	s549	False
0.1	476.771	0.312	477.083	0	PA_with_intermediate	test	ward_and_allport	89	42.0	0.312	to_board	poldrack-single-stim	s549	False
0.1	477.091	0.989	478.08	0	PA_with_intermediate	test	ward_and_allport	82	42.0	0.989	to_hand	poldrack-single-stim	s549	False
0.1	478.082	0.422	478.504	0	PA_with_intermediate	test	ward_and_allport	89	42.0	0.422	to_board	poldrack-single-stim	s549	False
1.0	478.512	2.136	478.511	0	PA_with_intermediate	test	ward_and_allport	-1	42.0	n/a	feedback	poldrack-single-stim	s549	False
2.716	480.656	2.716	483.372	1	PA_without_intermediate	test	ward_and_allport	82	43.0	2.716	to_hand	poldrack-single-stim	s549	False
0.1	483.373	0.369	483.742	0	PA_without_intermediate	test	ward_and_allport	71	43.0	0.369	to_board	poldrack-single-stim	s549	False
0.1	483.753	0.713	484.466	0	PA_without_intermediate	test	ward_and_allport	82	43.0	0.713	to_hand	poldrack-single-stim	s549	False
0.1	484.466	0.493	484.959	0	PA_without_intermediate	test	ward_and_allport	71	43.0	0.493	to_board	poldrack-single-stim	s549	False
0.1	484.969	0.496	485.465	0	PA_without_intermediate	test	ward_and_allport	82	43.0	0.496	to_hand	poldrack-single-stim	s549	False
0.1	485.466	0.387	485.853	0	PA_without_intermediate	test	ward_and_allport	89	43.0	0.387	to_board	poldrack-single-stim	s549	False
1.0	485.864	5.128	485.863	0	PA_without_intermediate	test	ward_and_allport	-1	43.0	n/a	feedback	poldrack-single-stim	s549	False
1.897	491.0	1.897	492.897	1	PA_without_intermediate	test	ward_and_allport	71	44.0	1.897	to_hand	poldrack-single-stim	s549	False
0.1	492.898	0.426	493.324	0	PA_without_intermediate	test	ward_and_allport	82	44.0	0.426	to_board	poldrack-single-stim	s549	False
0.1	493.333	1.11	494.443	0	PA_without_intermediate	test	ward_and_allport	71	44.0	1.11	to_hand	poldrack-single-stim	s549	False
0.1	494.443	0.46	494.903	0	PA_without_intermediate	test	ward_and_allport	82	44.0	0.46	to_board	poldrack-single-stim	s549	False
0.1	494.912	1.034	495.946	0	PA_without_intermediate	test	ward_and_allport	71	44.0	1.034	to_hand	poldrack-single-stim	s549	False
0.1	495.947	0.365	496.312	0	PA_without_intermediate	test	ward_and_allport	89	44.0	0.365	to_board	poldrack-single-stim	s549	False
1.0	496.325	2.136	496.324	0	PA_without_intermediate	test	ward_and_allport	-1	44.0	n/a	feedback	poldrack-single-stim	s549	False
2.428	503.474	2.428	505.902	1	PA_without_intermediate	test	ward_and_allport	82	45.0	2.428	to_hand	poldrack-single-stim	s549	False
0.1	505.903	1.225	507.128	0	PA_without_intermediate	test	ward_and_allport	89	45.0	1.225	to_board	poldrack-single-stim	s549	False
0.1	507.14	2.856	509.996	0	PA_without_intermediate	test	ward_and_allport	82	45.0	2.856	to_hand	poldrack-single-stim	s549	False
0.1	509.998	0.514	510.512	0	PA_without_intermediate	test	ward_and_allport	89	45.0	0.514	to_board	poldrack-single-stim	s549	False
0.1	510.523	1.011	511.534	0	PA_without_intermediate	test	ward_and_allport	82	45.0	1.011	to_hand	poldrack-single-stim	s549	False
0.1	511.535	0.338	511.873	0	PA_without_intermediate	test	ward_and_allport	71	45.0	0.338	to_board	poldrack-single-stim	s549	False
1.0	511.885	5.264	511.884	0	PA_without_intermediate	test	ward_and_allport	-1	45.0	n/a	feedback	poldrack-single-stim	s549	False
4.753	517.16	4.753	521.913	1	PA_with_intermediate	test	ward_and_allport	89	46.0	4.753	to_hand	poldrack-single-stim	s549	False
0.1	521.915	0.478	522.393	0	PA_with_intermediate	test	ward_and_allport	82	46.0	0.478	to_board	poldrack-single-stim	s549	False
0.1	522.405	1.07	523.475	0	PA_with_intermediate	test	ward_and_allport	89	46.0	1.07	to_hand	poldrack-single-stim	s549	False
0.1	523.476	0.366	523.842	0	PA_with_intermediate	test	ward_and_allport	71	46.0	0.366	to_board	poldrack-single-stim	s549	False
0.1	523.854	0.84	524.694	0	PA_with_intermediate	test	ward_and_allport	82	46.0	0.84	to_hand	poldrack-single-stim	s549	False
0.1	524.695	0.832	525.527	0	PA_with_intermediate	test	ward_and_allport	89	46.0	0.832	to_board	poldrack-single-stim	s549	False
1.0	525.537	4.04	525.536	0	PA_with_intermediate	test	ward_and_allport	-1	46.0	n/a	feedback	poldrack-single-stim	s549	False
3.236	529.586	3.236	532.822	1	PA_with_intermediate	test	ward_and_allport	89	47.0	3.236	to_hand	poldrack-single-stim	s549	False
0.1	532.823	0.597	533.42	0	PA_with_intermediate	test	ward_and_allport	71	47.0	0.597	to_board	poldrack-single-stim	s549	False
0.1	533.43	1.047	534.477	0	PA_with_intermediate	test	ward_and_allport	89	47.0	1.047	to_hand	poldrack-single-stim	s549	False
0.1	534.479	0.769	535.248	0	PA_with_intermediate	test	ward_and_allport	82	47.0	0.769	to_board	poldrack-single-stim	s549	False
0.1	535.259	0.643	535.902	0	PA_with_intermediate	test	ward_and_allport	71	47.0	0.643	to_hand	poldrack-single-stim	s549	False
0.1	535.903	0.472	536.375	0	PA_with_intermediate	test	ward_and_allport	89	47.0	0.472	to_board	poldrack-single-stim	s549	False
1.0	536.386	2.136	536.385	0	PA_with_intermediate	test	ward_and_allport	-1	47.0	n/a	feedback	poldrack-single-stim	s549	False
