onset	duration	movement_onset	CTI	block_duration	correct	correct_response	cue	cue_switch	experiment_exp_id	key_press	response_time	stim_color	stim_number	switch_type	task	task_switch	trial_id	trial_type	worker_id	first_trial_of_block	junk
3.612	1.0	4.404	0.1	2.136	True	71.0	High-Low	n/a	twobytwo	71.0	0.692	orange	1.0	task_switch	magnitude	switch	stim	poldrack-single-stim	s549	1	False
6.654	1.0	8.036	0.9	2.68	True	89.0	High-Low	stay	twobytwo	89.0	0.482	blue	7.0	cue_stay	magnitude	stay	stim	poldrack-single-stim	s549	0	False
9.44	1.0	10.275	0.1	2.544	True	71.0	Magnitude	switch	twobytwo	71.0	0.735	blue	4.0	cue_switch	magnitude	stay	stim	poldrack-single-stim	s549	0	False
12.889	1.0	14.305	0.9	2.272	True	71.0	High-Low	switch	twobytwo	71.0	0.516	orange	2.0	cue_switch	magnitude	stay	stim	poldrack-single-stim	s549	0	False
16.065	1.0	17.644	0.9	2.272	True	71.0	Magnitude	switch	twobytwo	71.0	0.679	blue	3.0	cue_switch	magnitude	stay	stim	poldrack-single-stim	s549	0	False
19.241	1.0	20.65	0.9	2.408	True	71.0	Color	n/a	twobytwo	71.0	0.509	orange	4.0	task_switch	color	switch	stim	poldrack-single-stim	s549	0	False
21.754	1.0	23.362	0.1	2.136	True	71.0	Color	stay	twobytwo	71.0	1.508	orange	6.0	cue_stay	color	stay	stim	poldrack-single-stim	s549	0	False
23.995	1.0	24.812	0.1	2.272	True	89.0	Magnitude	n/a	twobytwo	89.0	0.717	blue	9.0	task_switch	magnitude	switch	stim	poldrack-single-stim	s549	0	False
26.372	1.0	27.321	0.1	2.0	True	89.0	High-Low	switch	twobytwo	89.0	0.849	blue	8.0	cue_switch	magnitude	stay	stim	poldrack-single-stim	s549	0	False
28.477	1.0	29.113	0.1	2.136	True	89.0	Magnitude	switch	twobytwo	89.0	0.536	blue	8.0	cue_switch	magnitude	stay	stim	poldrack-single-stim	s549	0	False
31.517	1.0	33.337	0.9	2.272	True	89.0	Magnitude	stay	twobytwo	89.0	0.92	blue	6.0	cue_stay	magnitude	stay	stim	poldrack-single-stim	s549	0	False
33.894	1.0	34.693	0.1	2.0	True	71.0	Orange-Blue	n/a	twobytwo	71.0	0.699	orange	8.0	task_switch	color	switch	stim	poldrack-single-stim	s549	0	False
36.799	1.0	38.261	0.9	2.68	True	89.0	Magnitude	n/a	twobytwo	89.0	0.562	blue	7.0	task_switch	magnitude	switch	stim	poldrack-single-stim	s549	0	False
39.583	1.0	40.439	0.1	2.0	True	71.0	High-Low	switch	twobytwo	71.0	0.756	blue	1.0	cue_switch	magnitude	stay	stim	poldrack-single-stim	s549	0	False
42.487	1.0	43.755	0.9	2.0	True	71.0	Color	n/a	twobytwo	71.0	0.368	orange	3.0	task_switch	color	switch	stim	poldrack-single-stim	s549	0	False
44.591	1.0	45.635	0.1	2.0	True	89.0	Color	stay	twobytwo	89.0	0.944	blue	8.0	cue_stay	color	stay	stim	poldrack-single-stim	s549	0	False
47.494	1.0	49.279	0.9	2.272	True	89.0	Magnitude	n/a	twobytwo	89.0	0.885	orange	6.0	task_switch	magnitude	switch	stim	poldrack-single-stim	s549	0	False
50.671	1.0	52.102	0.9	2.0	True	89.0	Orange-Blue	n/a	twobytwo	89.0	0.531	blue	6.0	task_switch	color	switch	stim	poldrack-single-stim	s549	0	False
53.575	1.0	55.068	0.9	2.0	True	89.0	Magnitude	n/a	twobytwo	89.0	0.593	blue	8.0	task_switch	magnitude	switch	stim	poldrack-single-stim	s549	0	False
56.481	1.0	57.922	0.9	2.0	True	89.0	Color	n/a	twobytwo	89.0	0.541	blue	1.0	task_switch	color	switch	stim	poldrack-single-stim	s549	0	False
59.385	1.0	60.906	0.9	2.68	True	71.0	Color	stay	twobytwo	71.0	0.621	orange	3.0	cue_stay	color	stay	stim	poldrack-single-stim	s549	0	False
62.17	1.0	62.91	0.1	2.0	True	71.0	Color	stay	twobytwo	71.0	0.64	orange	7.0	cue_stay	color	stay	stim	poldrack-single-stim	s549	0	False
64.274	1.0	65.667	0.1	2.136	True	71.0	Magnitude	n/a	twobytwo	71.0	1.293	orange	2.0	task_switch	magnitude	switch	stim	poldrack-single-stim	s549	0	False
67.314	1.0	68.89	0.9	2.408	True	89.0	High-Low	switch	twobytwo	89.0	0.676	orange	8.0	cue_switch	magnitude	stay	stim	poldrack-single-stim	s549	0	False
69.826	1.0	70.847	0.1	2.136	True	89.0	High-Low	stay	twobytwo	89.0	0.921	blue	6.0	cue_stay	magnitude	stay	stim	poldrack-single-stim	s549	0	False
72.866	1.0	74.401	0.9	2.0	True	71.0	High-Low	stay	twobytwo	71.0	0.635	orange	3.0	cue_stay	magnitude	stay	stim	poldrack-single-stim	s549	0	False
74.97	1.0	75.743	0.1	2.0	True	71.0	Orange-Blue	n/a	twobytwo	71.0	0.673	orange	2.0	task_switch	color	switch	stim	poldrack-single-stim	s549	0	False
77.874	1.0	79.553	0.9	2.544	True	89.0	High-Low	n/a	twobytwo	89.0	0.779	orange	7.0	task_switch	magnitude	switch	stim	poldrack-single-stim	s549	0	False
80.522	1.0	81.511	0.1	2.136	True	89.0	High-Low	stay	twobytwo	89.0	0.889	blue	9.0	cue_stay	magnitude	stay	stim	poldrack-single-stim	s549	0	False
82.763	1.0	83.636	0.1	2.544	True	71.0	High-Low	stay	twobytwo	71.0	0.773	blue	4.0	cue_stay	magnitude	stay	stim	poldrack-single-stim	s549	0	False
85.411	1.0	86.272	0.1	2.68	False	71.0	Color	n/a	twobytwo	89.0	0.761	orange	9.0	task_switch	color	switch	stim	poldrack-single-stim	s549	0	False
88.194	1.0	89.227	0.1	2.0	True	89.0	Orange-Blue	switch	twobytwo	89.0	0.933	blue	4.0	cue_switch	color	stay	stim	poldrack-single-stim	s549	0	False
90.298	1.0	91.175	0.1	2.272	True	89.0	High-Low	n/a	twobytwo	89.0	0.777	blue	8.0	task_switch	magnitude	switch	stim	poldrack-single-stim	s549	0	False
92.675	1.0	93.742	0.1	3.088	True	71.0	Color	n/a	twobytwo	71.0	0.967	orange	8.0	task_switch	color	switch	stim	poldrack-single-stim	s549	0	False
96.667	1.0	98.273	0.9	2.0	True	89.0	High-Low	n/a	twobytwo	89.0	0.706	orange	9.0	task_switch	magnitude	switch	stim	poldrack-single-stim	s549	0	False
98.771	1.0	100.51	0.1	2.136	True	89.0	High-Low	stay	twobytwo	89.0	1.639	orange	6.0	cue_stay	magnitude	stay	stim	poldrack-single-stim	s549	0	False
101.811	1.0	103.395	0.9	2.136	True	89.0	Color	n/a	twobytwo	89.0	0.684	blue	8.0	task_switch	color	switch	stim	poldrack-single-stim	s549	0	False
104.851	1.0	106.738	0.9	2.0	True	89.0	Color	stay	twobytwo	89.0	0.987	blue	4.0	cue_stay	color	stay	stim	poldrack-single-stim	s549	0	False
107.755	1.0	110.261	0.9	2.272	True	71.0	Orange-Blue	switch	twobytwo	71.0	1.606	orange	9.0	cue_switch	color	stay	stim	poldrack-single-stim	s549	0	False
110.931	1.0	112.868	0.9	2.0	True	71.0	High-Low	n/a	twobytwo	71.0	1.037	orange	4.0	task_switch	magnitude	switch	stim	poldrack-single-stim	s549	0	False
113.834	1.0	115.376	0.9	2.136	True	89.0	Orange-Blue	n/a	twobytwo	89.0	0.642	blue	1.0	task_switch	color	switch	stim	poldrack-single-stim	s549	0	False
116.075	1.0	116.988	0.1	2.136	True	71.0	Magnitude	n/a	twobytwo	71.0	0.813	blue	4.0	task_switch	magnitude	switch	stim	poldrack-single-stim	s549	0	False
118.316	1.0	119.148	0.1	2.544	True	71.0	Magnitude	stay	twobytwo	71.0	0.732	orange	2.0	cue_stay	magnitude	stay	stim	poldrack-single-stim	s549	0	False
121.764	1.0	123.724	0.9	2.0	True	71.0	Color	n/a	twobytwo	71.0	1.06	orange	2.0	task_switch	color	switch	stim	poldrack-single-stim	s549	0	False
123.868	1.0	124.573	0.1	2.136	True	89.0	Color	stay	twobytwo	89.0	0.605	blue	7.0	cue_stay	color	stay	stim	poldrack-single-stim	s549	0	False
126.909	1.0	128.503	0.9	2.136	True	71.0	Magnitude	n/a	twobytwo	71.0	0.694	blue	1.0	task_switch	magnitude	switch	stim	poldrack-single-stim	s549	0	False
129.151	1.0	130.508	0.1	2.136	True	71.0	Color	n/a	twobytwo	71.0	1.257	orange	1.0	task_switch	color	switch	stim	poldrack-single-stim	s549	0	False
132.19	1.0	133.747	0.9	2.0	True	89.0	Magnitude	n/a	twobytwo	89.0	0.657	orange	6.0	task_switch	magnitude	switch	stim	poldrack-single-stim	s549	0	False
135.096	1.0	137.122	0.9	2.136	True	71.0	Color	n/a	twobytwo	71.0	1.126	orange	8.0	task_switch	color	switch	stim	poldrack-single-stim	s549	0	False
137.337	1.0	138.604	0.1	2.0	True	71.0	Color	stay	twobytwo	71.0	1.167	orange	2.0	cue_stay	color	stay	stim	poldrack-single-stim	s549	0	False
140.242	1.0	141.832	0.9	2.136	True	71.0	Orange-Blue	switch	twobytwo	71.0	0.69	orange	6.0	cue_switch	color	stay	stim	poldrack-single-stim	s549	0	False
142.482	1.0	143.482	0.1	2.816	True	71.0	Magnitude	n/a	twobytwo	71.0	0.9	orange	3.0	task_switch	magnitude	switch	stim	poldrack-single-stim	s549	0	False
146.202	1.0	147.667	0.9	2.136	True	71.0	Magnitude	stay	twobytwo	71.0	0.565	orange	2.0	cue_stay	magnitude	stay	stim	poldrack-single-stim	s549	0	False
149.241	1.0	150.571	0.9	2.0	True	89.0	Magnitude	stay	twobytwo	89.0	0.43	orange	9.0	cue_stay	magnitude	stay	stim	poldrack-single-stim	s549	0	False
151.346	1.0	152.856	0.1	2.0	True	89.0	Orange-Blue	n/a	twobytwo	89.0	1.41	blue	6.0	task_switch	color	switch	stim	poldrack-single-stim	s549	0	False
153.449	1.0	154.238	0.1	2.272	True	71.0	Orange-Blue	stay	twobytwo	71.0	0.689	orange	7.0	cue_stay	color	stay	stim	poldrack-single-stim	s549	0	False
155.826	1.0	156.696	0.1	2.0	True	89.0	High-Low	n/a	twobytwo	89.0	0.77	orange	8.0	task_switch	magnitude	switch	stim	poldrack-single-stim	s549	0	False
157.93	1.0	158.864	0.1	2.0	True	89.0	Orange-Blue	n/a	twobytwo	89.0	0.834	blue	2.0	task_switch	color	switch	stim	poldrack-single-stim	s549	0	False
160.836	1.0	162.271	0.9	2.0	True	89.0	Magnitude	n/a	twobytwo	89.0	0.535	orange	6.0	task_switch	magnitude	switch	stim	poldrack-single-stim	s549	0	False
162.94	1.0	163.682	0.1	2.408	True	89.0	Color	n/a	twobytwo	89.0	0.642	blue	1.0	task_switch	color	switch	stim	poldrack-single-stim	s549	0	False
165.452	1.0	166.525	0.1	2.272	True	71.0	Color	stay	twobytwo	71.0	0.973	orange	4.0	cue_stay	color	stay	stim	poldrack-single-stim	s549	0	False
167.829	1.0	169.269	0.1	2.136	True	89.0	Magnitude	n/a	twobytwo	89.0	1.34	blue	7.0	task_switch	magnitude	switch	stim	poldrack-single-stim	s549	0	False
170.869	1.0	172.291	0.9	2.0	True	71.0	High-Low	switch	twobytwo	71.0	0.522	orange	3.0	cue_switch	magnitude	stay	stim	poldrack-single-stim	s549	0	False
173.774	1.0	175.22	0.9	2.0	True	71.0	Color	n/a	twobytwo	71.0	0.546	orange	4.0	task_switch	color	switch	stim	poldrack-single-stim	s549	0	False
175.877	1.0	176.755	0.1	2.136	True	89.0	High-Low	n/a	twobytwo	89.0	0.778	blue	8.0	task_switch	magnitude	switch	stim	poldrack-single-stim	s549	0	False
178.916	1.0	180.629	0.9	2.0	True	71.0	Color	n/a	twobytwo	71.0	0.813	orange	2.0	task_switch	color	switch	stim	poldrack-single-stim	s549	0	False
181.02	1.0	182.124	0.1	2.136	True	71.0	Magnitude	n/a	twobytwo	71.0	1.004	blue	2.0	task_switch	magnitude	switch	stim	poldrack-single-stim	s549	0	False
184.061	1.0	185.789	0.9	2.408	True	89.0	Magnitude	stay	twobytwo	89.0	0.828	blue	8.0	cue_stay	magnitude	stay	stim	poldrack-single-stim	s549	0	False
186.573	1.0	187.456	0.1	2.136	True	89.0	Color	n/a	twobytwo	89.0	0.783	blue	2.0	task_switch	color	switch	stim	poldrack-single-stim	s549	0	False
188.814	1.0	189.629	0.1	2.0	True	89.0	High-Low	n/a	twobytwo	89.0	0.715	blue	7.0	task_switch	magnitude	switch	stim	poldrack-single-stim	s549	0	False
190.918	1.0	191.802	0.1	2.136	True	71.0	Color	n/a	twobytwo	71.0	0.784	orange	8.0	task_switch	color	switch	stim	poldrack-single-stim	s549	0	False
193.958	1.0	195.313	0.9	2.272	True	71.0	Color	stay	twobytwo	71.0	0.455	orange	4.0	cue_stay	color	stay	stim	poldrack-single-stim	s549	0	False
196.334	1.0	197.161	0.1	2.0	True	89.0	Magnitude	n/a	twobytwo	89.0	0.727	blue	8.0	task_switch	magnitude	switch	stim	poldrack-single-stim	s549	0	False
198.438	1.0	199.33	0.1	2.408	True	89.0	Color	n/a	twobytwo	89.0	0.792	blue	1.0	task_switch	color	switch	stim	poldrack-single-stim	s549	0	False
200.95	1.0	201.755	0.1	2.0	True	89.0	Orange-Blue	switch	twobytwo	89.0	0.705	blue	3.0	cue_switch	color	stay	stim	poldrack-single-stim	s549	0	False
203.053	1.0	204.165	0.1	2.136	True	71.0	High-Low	n/a	twobytwo	71.0	1.012	blue	3.0	task_switch	magnitude	switch	stim	poldrack-single-stim	s549	0	False
206.093	1.0	207.474	0.9	2.408	True	71.0	Color	n/a	twobytwo	71.0	0.481	orange	1.0	task_switch	color	switch	stim	poldrack-single-stim	s549	0	False
208.608	1.0	209.494	0.1	2.136	True	89.0	High-Low	n/a	twobytwo	89.0	0.786	orange	8.0	task_switch	magnitude	switch	stim	poldrack-single-stim	s549	0	False
210.849	1.0	211.765	0.1	2.408	True	89.0	Color	n/a	twobytwo	89.0	0.816	blue	7.0	task_switch	color	switch	stim	poldrack-single-stim	s549	0	False
214.16	1.0	215.492	0.9	2.136	True	89.0	High-Low	n/a	twobytwo	89.0	0.432	orange	9.0	task_switch	magnitude	switch	stim	poldrack-single-stim	s549	0	False
229.909	1.0	230.982	0.1	2.0	True	71.0	Color	n/a	twobytwo	71.0	0.973	orange	1.0	task_switch	color	switch	stim	poldrack-single-stim	s549	1	False
232.814	1.0	234.108	0.9	2.272	True	89.0	Color	stay	twobytwo	89.0	0.394	blue	7.0	cue_stay	color	stay	stim	poldrack-single-stim	s549	0	False
235.191	1.0	235.862	0.1	2.0	True	89.0	Orange-Blue	switch	twobytwo	89.0	0.571	blue	4.0	cue_switch	color	stay	stim	poldrack-single-stim	s549	0	False
238.095	1.0	239.473	0.9	2.272	True	71.0	Color	switch	twobytwo	71.0	0.478	orange	2.0	cue_switch	color	stay	stim	poldrack-single-stim	s549	0	False
241.271	1.0	242.687	0.9	2.272	True	89.0	Orange-Blue	switch	twobytwo	89.0	0.516	blue	3.0	cue_switch	color	stay	stim	poldrack-single-stim	s549	0	False
244.447	1.0	245.905	0.9	2.952	True	71.0	High-Low	n/a	twobytwo	71.0	0.558	orange	4.0	task_switch	magnitude	switch	stim	poldrack-single-stim	s549	0	False
247.504	1.0	248.74	0.1	2.68	False	89.0	High-Low	stay	twobytwo	71.0	1.136	orange	6.0	cue_stay	magnitude	stay	stim	poldrack-single-stim	s549	0	False
250.288	1.0	251.629	0.1	2.136	True	89.0	Orange-Blue	n/a	twobytwo	89.0	1.241	blue	9.0	task_switch	color	switch	stim	poldrack-single-stim	s549	0	False
252.529	1.0	253.169	0.1	2.272	True	89.0	Color	switch	twobytwo	89.0	0.54	blue	8.0	cue_switch	color	stay	stim	poldrack-single-stim	s549	0	False
254.906	1.0	255.905	0.1	2.272	True	89.0	Orange-Blue	switch	twobytwo	89.0	0.899	blue	8.0	cue_switch	color	stay	stim	poldrack-single-stim	s549	0	False
258.082	1.0	259.457	0.9	2.136	True	89.0	Orange-Blue	stay	twobytwo	89.0	0.475	blue	6.0	cue_stay	color	stay	stim	poldrack-single-stim	s549	0	False
260.322	1.0	261.111	0.1	2.408	True	89.0	High-Low	n/a	twobytwo	89.0	0.689	orange	8.0	task_switch	magnitude	switch	stim	poldrack-single-stim	s549	0	False
263.634	1.0	264.981	0.9	2.136	True	89.0	Color	n/a	twobytwo	89.0	0.447	blue	7.0	task_switch	color	switch	stim	poldrack-single-stim	s549	0	False
265.874	1.0	267.023	0.1	2.136	True	89.0	Orange-Blue	switch	twobytwo	89.0	1.049	blue	1.0	cue_switch	color	stay	stim	poldrack-single-stim	s549	0	False
268.914	1.0	270.375	0.9	2.0	True	71.0	Magnitude	n/a	twobytwo	71.0	0.561	orange	3.0	task_switch	magnitude	switch	stim	poldrack-single-stim	s549	0	False
271.019	1.0	272.465	0.1	2.0	True	89.0	Magnitude	stay	twobytwo	89.0	1.346	blue	8.0	cue_stay	magnitude	stay	stim	poldrack-single-stim	s549	0	False
273.922	1.0	275.678	0.9	2.0	True	71.0	Color	n/a	twobytwo	71.0	0.856	orange	6.0	task_switch	color	switch	stim	poldrack-single-stim	s549	0	False
276.827	1.0	278.493	0.9	2.0	True	89.0	High-Low	n/a	twobytwo	89.0	0.766	blue	6.0	task_switch	magnitude	switch	stim	poldrack-single-stim	s549	0	False
279.731	1.0	281.176	0.9	2.0	True	89.0	Color	n/a	twobytwo	89.0	0.545	blue	8.0	task_switch	color	switch	stim	poldrack-single-stim	s549	0	False
282.635	1.0	284.181	0.9	2.272	True	71.0	Magnitude	n/a	twobytwo	71.0	0.646	blue	1.0	task_switch	magnitude	switch	stim	poldrack-single-stim	s549	0	False
285.811	1.0	287.318	0.9	2.408	True	71.0	Magnitude	stay	twobytwo	71.0	0.607	orange	3.0	cue_stay	magnitude	stay	stim	poldrack-single-stim	s549	0	False
288.323	1.0	289.181	0.1	2.0	True	89.0	Magnitude	stay	twobytwo	89.0	0.758	orange	7.0	cue_stay	magnitude	stay	stim	poldrack-single-stim	s549	0	False
290.427	1.0	291.278	0.1	2.136	True	71.0	Color	n/a	twobytwo	71.0	0.751	orange	2.0	task_switch	color	switch	stim	poldrack-single-stim	s549	0	False
293.467	1.0	294.768	0.9	2.0	True	71.0	Orange-Blue	switch	twobytwo	71.0	0.401	orange	8.0	cue_switch	color	stay	stim	poldrack-single-stim	s549	0	False
295.571	1.0	296.284	0.1	2.136	True	89.0	Orange-Blue	stay	twobytwo	89.0	0.613	blue	6.0	cue_stay	color	stay	stim	poldrack-single-stim	s549	0	False
298.611	1.0	299.985	0.9	2.544	True	71.0	Orange-Blue	stay	twobytwo	71.0	0.474	orange	3.0	cue_stay	color	stay	stim	poldrack-single-stim	s549	0	False
301.26	1.0	301.999	0.1	2.68	True	71.0	Magnitude	n/a	twobytwo	71.0	0.639	orange	2.0	task_switch	magnitude	switch	stim	poldrack-single-stim	s549	0	False
304.844	1.0	306.126	0.9	3.088	True	71.0	Color	n/a	twobytwo	71.0	0.382	orange	7.0	task_switch	color	switch	stim	poldrack-single-stim	s549	0	False
308.036	1.0	308.688	0.1	2.136	True	89.0	Color	stay	twobytwo	89.0	0.552	blue	9.0	cue_stay	color	stay	stim	poldrack-single-stim	s549	0	False
310.274	1.0	311.225	0.1	2.544	True	89.0	Color	stay	twobytwo	89.0	0.851	blue	4.0	cue_stay	color	stay	stim	poldrack-single-stim	s549	0	False
312.923	1.0	314.306	0.1	2.0	True	89.0	High-Low	n/a	twobytwo	89.0	1.283	orange	9.0	task_switch	magnitude	switch	stim	poldrack-single-stim	s549	0	False
315.028	1.0	316.435	0.1	2.136	True	71.0	Magnitude	switch	twobytwo	71.0	1.307	blue	4.0	cue_switch	magnitude	stay	stim	poldrack-single-stim	s549	0	False
317.268	1.0	318.087	0.1	2.0	True	89.0	Color	n/a	twobytwo	89.0	0.719	blue	8.0	task_switch	color	switch	stim	poldrack-single-stim	s549	0	False
319.372	1.0	320.159	0.1	2.408	True	89.0	High-Low	n/a	twobytwo	89.0	0.687	orange	8.0	task_switch	magnitude	switch	stim	poldrack-single-stim	s549	0	False
322.686	1.0	324.032	0.9	2.0	True	71.0	Color	n/a	twobytwo	71.0	0.446	orange	9.0	task_switch	color	switch	stim	poldrack-single-stim	s549	0	False
324.791	1.0	325.913	0.1	2.0	True	71.0	Color	stay	twobytwo	71.0	1.022	orange	6.0	cue_stay	color	stay	stim	poldrack-single-stim	s549	0	False
327.697	1.0	329.072	0.9	2.0	True	89.0	High-Low	n/a	twobytwo	89.0	0.475	blue	8.0	task_switch	magnitude	switch	stim	poldrack-single-stim	s549	0	False
330.602	1.0	332.131	0.9	2.68	True	71.0	High-Low	stay	twobytwo	71.0	0.629	blue	4.0	cue_stay	magnitude	stay	stim	poldrack-single-stim	s549	0	False
334.186	1.0	335.481	0.9	2.272	True	89.0	Magnitude	switch	twobytwo	89.0	0.395	orange	9.0	cue_switch	magnitude	stay	stim	poldrack-single-stim	s549	0	False
337.363	1.0	338.654	0.9	2.408	True	71.0	Orange-Blue	n/a	twobytwo	71.0	0.391	orange	4.0	task_switch	color	switch	stim	poldrack-single-stim	s549	0	False
340.676	1.0	342.16	0.9	3.224	True	71.0	High-Low	n/a	twobytwo	71.0	0.584	blue	1.0	task_switch	magnitude	switch	stim	poldrack-single-stim	s549	0	False
344.005	1.0	345.063	0.1	2.408	False	89.0	Orange-Blue	n/a	twobytwo	71.0	0.958	blue	4.0	task_switch	color	switch	stim	poldrack-single-stim	s549	0	False
346.517	1.0	347.295	0.1	2.816	True	71.0	Orange-Blue	stay	twobytwo	71.0	0.678	orange	2.0	cue_stay	color	stay	stim	poldrack-single-stim	s549	0	False
350.239	1.0	352.244	0.9	2.408	True	71.0	Magnitude	n/a	twobytwo	71.0	1.105	orange	2.0	task_switch	magnitude	switch	stim	poldrack-single-stim	s549	0	False
352.752	1.0	353.837	0.1	2.136	True	89.0	Magnitude	stay	twobytwo	89.0	0.985	blue	7.0	cue_stay	magnitude	stay	stim	poldrack-single-stim	s549	0	False
355.792	1.0	357.373	0.9	2.136	True	89.0	Orange-Blue	n/a	twobytwo	89.0	0.681	blue	1.0	task_switch	color	switch	stim	poldrack-single-stim	s549	0	False
358.031	1.0	358.938	0.1	2.0	True	71.0	Magnitude	n/a	twobytwo	71.0	0.807	orange	1.0	task_switch	magnitude	switch	stim	poldrack-single-stim	s549	0	False
360.936	1.0	362.938	0.9	2.0	True	71.0	Color	n/a	twobytwo	71.0	1.102	orange	6.0	task_switch	color	switch	stim	poldrack-single-stim	s549	0	False
363.84	1.0	365.592	0.9	2.272	True	89.0	Magnitude	n/a	twobytwo	89.0	0.852	orange	8.0	task_switch	magnitude	switch	stim	poldrack-single-stim	s549	0	False
366.216	1.0	367.249	0.1	2.408	True	71.0	Magnitude	stay	twobytwo	71.0	0.933	orange	2.0	cue_stay	magnitude	stay	stim	poldrack-single-stim	s549	0	False
369.528	1.0	371.257	0.9	2.0	True	89.0	High-Low	switch	twobytwo	89.0	0.829	orange	6.0	cue_switch	magnitude	stay	stim	poldrack-single-stim	s549	0	False
371.632	1.0	372.612	0.1	2.136	True	71.0	Orange-Blue	n/a	twobytwo	71.0	0.88	orange	3.0	task_switch	color	switch	stim	poldrack-single-stim	s549	0	False
374.672	1.0	376.164	0.9	2.0	True	71.0	Orange-Blue	stay	twobytwo	71.0	0.592	orange	2.0	cue_stay	color	stay	stim	poldrack-single-stim	s549	0	False
377.578	1.0	378.988	0.9	2.408	True	71.0	Orange-Blue	stay	twobytwo	71.0	0.51	orange	9.0	cue_stay	color	stay	stim	poldrack-single-stim	s549	0	False
380.091	1.0	380.822	0.1	2.272	True	89.0	Magnitude	n/a	twobytwo	89.0	0.631	blue	6.0	task_switch	magnitude	switch	stim	poldrack-single-stim	s549	0	False
382.467	1.0	383.365	0.1	2.0	True	89.0	Magnitude	stay	twobytwo	89.0	0.798	orange	7.0	cue_stay	magnitude	stay	stim	poldrack-single-stim	s549	0	False
384.571	1.0	385.5	0.1	2.272	True	71.0	Orange-Blue	n/a	twobytwo	71.0	0.829	orange	8.0	task_switch	color	switch	stim	poldrack-single-stim	s549	0	False
386.947	1.0	388.078	0.1	2.0	True	71.0	High-Low	n/a	twobytwo	71.0	1.031	blue	2.0	task_switch	magnitude	switch	stim	poldrack-single-stim	s549	0	False
389.851	1.0	391.496	0.9	2.0	True	71.0	Orange-Blue	n/a	twobytwo	71.0	0.745	orange	6.0	task_switch	color	switch	stim	poldrack-single-stim	s549	0	False
391.956	1.0	393.013	0.1	2.272	False	71.0	Magnitude	n/a	twobytwo	89.0	0.957	blue	1.0	task_switch	magnitude	switch	stim	poldrack-single-stim	s549	0	False
394.332	1.0	396.277	0.1	2.136	True	71.0	Magnitude	stay	twobytwo	71.0	1.845	orange	4.0	cue_stay	magnitude	stay	stim	poldrack-single-stim	s549	0	False
396.571	1.0	397.565	0.1	2.0	True	89.0	Orange-Blue	n/a	twobytwo	89.0	0.894	blue	7.0	task_switch	color	switch	stim	poldrack-single-stim	s549	0	False
399.476	1.0	401.303	0.9	2.0	True	71.0	Color	switch	twobytwo	71.0	0.927	orange	3.0	cue_switch	color	stay	stim	poldrack-single-stim	s549	0	False
402.379	1.0	404.141	0.9	2.0	True	71.0	High-Low	n/a	twobytwo	71.0	0.862	orange	4.0	task_switch	magnitude	switch	stim	poldrack-single-stim	s549	0	False
404.484	1.0	405.353	0.1	2.0	True	89.0	Orange-Blue	n/a	twobytwo	89.0	0.769	blue	8.0	task_switch	color	switch	stim	poldrack-single-stim	s549	0	False
407.388	1.0	408.798	0.9	2.0	True	71.0	Magnitude	n/a	twobytwo	71.0	0.51	orange	2.0	task_switch	magnitude	switch	stim	poldrack-single-stim	s549	0	False
409.492	1.0	410.544	0.1	2.136	True	89.0	Color	n/a	twobytwo	89.0	0.952	blue	2.0	task_switch	color	switch	stim	poldrack-single-stim	s549	0	False
412.532	1.0	414.149	0.9	2.0	True	89.0	Color	stay	twobytwo	89.0	0.717	blue	8.0	cue_stay	color	stay	stim	poldrack-single-stim	s549	0	False
414.636	1.0	415.721	0.1	2.0	True	71.0	Magnitude	n/a	twobytwo	71.0	0.985	blue	2.0	task_switch	magnitude	switch	stim	poldrack-single-stim	s549	0	False
416.741	1.0	417.689	0.1	2.136	True	89.0	Color	n/a	twobytwo	89.0	0.848	blue	7.0	task_switch	color	switch	stim	poldrack-single-stim	s549	0	False
418.982	1.0	420.038	0.1	2.0	True	89.0	Magnitude	n/a	twobytwo	89.0	0.956	orange	8.0	task_switch	magnitude	switch	stim	poldrack-single-stim	s549	0	False
421.888	1.0	423.412	0.9	2.136	True	71.0	Magnitude	stay	twobytwo	71.0	0.624	orange	4.0	cue_stay	magnitude	stay	stim	poldrack-single-stim	s549	0	False
424.128	1.0	425.197	0.1	2.68	True	89.0	Color	n/a	twobytwo	89.0	0.969	blue	8.0	task_switch	color	switch	stim	poldrack-single-stim	s549	0	False
426.913	1.0	428.177	0.1	2.272	True	71.0	Magnitude	n/a	twobytwo	71.0	1.164	blue	1.0	task_switch	magnitude	switch	stim	poldrack-single-stim	s549	0	False
429.29	1.0	430.13	0.1	2.136	True	71.0	High-Low	switch	twobytwo	71.0	0.74	blue	3.0	cue_switch	magnitude	stay	stim	poldrack-single-stim	s549	0	False
431.53	1.0	432.508	0.1	2.0	True	89.0	Orange-Blue	n/a	twobytwo	89.0	0.878	blue	3.0	task_switch	color	switch	stim	poldrack-single-stim	s549	0	False
434.434	1.0	435.885	0.9	2.136	True	71.0	Magnitude	n/a	twobytwo	71.0	0.551	orange	1.0	task_switch	magnitude	switch	stim	poldrack-single-stim	s549	0	False
436.674	1.0	438.068	0.1	2.68	True	71.0	Orange-Blue	n/a	twobytwo	71.0	1.294	orange	8.0	task_switch	color	switch	stim	poldrack-single-stim	s549	0	False
439.458	1.0	440.369	0.1	2.272	True	89.0	High-Low	n/a	twobytwo	89.0	0.811	blue	7.0	task_switch	magnitude	switch	stim	poldrack-single-stim	s549	0	False
442.636	1.0	443.99	0.9	2.0	True	71.0	Color	n/a	twobytwo	71.0	0.454	orange	9.0	task_switch	color	switch	stim	poldrack-single-stim	s549	0	False
458.248	1.0	459.345	0.1	2.0	True	71.0	High-Low	n/a	twobytwo	71.0	0.997	orange	1.0	task_switch	magnitude	switch	stim	poldrack-single-stim	s549	1	False
461.153	1.0	462.748	0.9	2.136	True	89.0	High-Low	stay	twobytwo	89.0	0.695	blue	7.0	cue_stay	magnitude	stay	stim	poldrack-single-stim	s549	0	False
463.393	1.0	464.552	0.1	2.0	True	71.0	Magnitude	switch	twobytwo	71.0	1.059	blue	4.0	cue_switch	magnitude	stay	stim	poldrack-single-stim	s549	0	False
466.295	1.0	467.744	0.9	2.0	True	71.0	High-Low	switch	twobytwo	71.0	0.549	orange	2.0	cue_switch	magnitude	stay	stim	poldrack-single-stim	s549	0	False
469.198	1.0	470.684	0.9	2.0	True	71.0	Magnitude	switch	twobytwo	71.0	0.586	blue	3.0	cue_switch	magnitude	stay	stim	poldrack-single-stim	s549	0	False
472.102	1.0	473.675	0.9	2.272	True	71.0	Orange-Blue	n/a	twobytwo	71.0	0.673	orange	4.0	task_switch	color	switch	stim	poldrack-single-stim	s549	0	False
474.478	1.0	475.324	0.1	2.408	True	71.0	Orange-Blue	stay	twobytwo	71.0	0.746	orange	6.0	cue_stay	color	stay	stim	poldrack-single-stim	s549	0	False
476.99	1.0	477.772	0.1	2.0	True	89.0	Magnitude	n/a	twobytwo	89.0	0.682	blue	9.0	task_switch	magnitude	switch	stim	poldrack-single-stim	s549	0	False
479.094	1.0	479.876	0.1	2.0	True	89.0	High-Low	switch	twobytwo	89.0	0.682	blue	8.0	cue_switch	magnitude	stay	stim	poldrack-single-stim	s549	0	False
481.198	1.0	481.928	0.1	2.0	True	89.0	Magnitude	switch	twobytwo	89.0	0.63	blue	8.0	cue_switch	magnitude	stay	stim	poldrack-single-stim	s549	0	False
484.104	1.0	485.707	0.9	2.272	True	89.0	Magnitude	stay	twobytwo	89.0	0.703	blue	6.0	cue_stay	magnitude	stay	stim	poldrack-single-stim	s549	0	False
486.48	1.0	487.184	0.1	2.136	True	71.0	Color	n/a	twobytwo	71.0	0.604	orange	8.0	task_switch	color	switch	stim	poldrack-single-stim	s549	0	False
489.52	1.0	490.88	0.9	2.0	True	89.0	High-Low	n/a	twobytwo	89.0	0.46	blue	7.0	task_switch	magnitude	switch	stim	poldrack-single-stim	s549	0	False
491.625	1.0	492.561	0.1	2.544	True	71.0	Magnitude	switch	twobytwo	71.0	0.836	blue	1.0	cue_switch	magnitude	stay	stim	poldrack-single-stim	s549	0	False
495.073	1.0	496.586	0.9	2.272	True	71.0	Orange-Blue	n/a	twobytwo	71.0	0.613	orange	3.0	task_switch	color	switch	stim	poldrack-single-stim	s549	0	False
497.449	1.0	498.271	0.1	2.272	True	89.0	Orange-Blue	stay	twobytwo	89.0	0.722	blue	8.0	cue_stay	color	stay	stim	poldrack-single-stim	s549	0	False
500.626	1.0	502.397	0.9	2.0	False	89.0	High-Low	n/a	twobytwo	71.0	0.871	orange	6.0	task_switch	magnitude	switch	stim	poldrack-single-stim	s549	0	False
503.532	1.0	505.048	0.9	2.0	True	89.0	Orange-Blue	n/a	twobytwo	89.0	0.616	blue	6.0	task_switch	color	switch	stim	poldrack-single-stim	s549	0	False
506.436	1.0	507.961	0.9	2.136	True	89.0	Magnitude	n/a	twobytwo	89.0	0.625	blue	8.0	task_switch	magnitude	switch	stim	poldrack-single-stim	s549	0	False
509.476	1.0	511.228	0.9	2.0	False	89.0	Orange-Blue	n/a	twobytwo	71.0	0.852	blue	1.0	task_switch	color	switch	stim	poldrack-single-stim	s549	0	False
512.38	1.0	514.922	0.9	2.136	True	71.0	Orange-Blue	stay	twobytwo	71.0	1.642	orange	3.0	cue_stay	color	stay	stim	poldrack-single-stim	s549	0	False
514.621	1.0	515.303	0.1	2.272	True	71.0	Orange-Blue	stay	twobytwo	71.0	0.582	orange	7.0	cue_stay	color	stay	stim	poldrack-single-stim	s549	0	False
516.997	1.0	517.795	0.1	2.136	True	71.0	Magnitude	n/a	twobytwo	71.0	0.698	orange	2.0	task_switch	magnitude	switch	stim	poldrack-single-stim	s549	0	False
520.037	1.0	521.362	0.9	2.272	True	89.0	High-Low	switch	twobytwo	89.0	0.425	orange	8.0	cue_switch	magnitude	stay	stim	poldrack-single-stim	s549	0	False
522.413	1.0	523.399	0.1	2.0	True	89.0	High-Low	stay	twobytwo	89.0	0.886	blue	6.0	cue_stay	magnitude	stay	stim	poldrack-single-stim	s549	0	False
525.318	1.0	526.581	0.9	2.816	True	71.0	High-Low	stay	twobytwo	71.0	0.363	orange	3.0	cue_stay	magnitude	stay	stim	poldrack-single-stim	s549	0	False
528.239	1.0	529.005	0.1	2.408	True	71.0	Orange-Blue	n/a	twobytwo	71.0	0.666	orange	2.0	task_switch	color	switch	stim	poldrack-single-stim	s549	0	False
531.551	1.0	533.622	0.9	2.0	True	89.0	High-Low	n/a	twobytwo	89.0	1.171	orange	7.0	task_switch	magnitude	switch	stim	poldrack-single-stim	s549	0	False
533.655	1.0	534.423	0.1	2.544	True	89.0	High-Low	stay	twobytwo	89.0	0.668	blue	9.0	cue_stay	magnitude	stay	stim	poldrack-single-stim	s549	0	False
536.304	1.0	537.028	0.1	2.136	True	71.0	High-Low	stay	twobytwo	71.0	0.624	blue	4.0	cue_stay	magnitude	stay	stim	poldrack-single-stim	s549	0	False
538.544	1.0	539.674	0.1	2.0	True	71.0	Orange-Blue	n/a	twobytwo	71.0	1.03	orange	9.0	task_switch	color	switch	stim	poldrack-single-stim	s549	0	False
540.65	1.0	541.436	0.1	2.0	True	89.0	Color	switch	twobytwo	89.0	0.686	blue	4.0	cue_switch	color	stay	stim	poldrack-single-stim	s549	0	False
542.754	1.0	543.921	0.1	2.136	True	89.0	High-Low	n/a	twobytwo	89.0	1.067	blue	8.0	task_switch	magnitude	switch	stim	poldrack-single-stim	s549	0	False
544.995	1.0	545.775	0.1	2.136	True	71.0	Color	n/a	twobytwo	71.0	0.68	orange	8.0	task_switch	color	switch	stim	poldrack-single-stim	s549	0	False
548.035	1.0	549.413	0.9	2.272	True	89.0	Magnitude	n/a	twobytwo	89.0	0.478	orange	9.0	task_switch	magnitude	switch	stim	poldrack-single-stim	s549	0	False
550.411	1.0	551.194	0.1	3.224	True	89.0	Magnitude	stay	twobytwo	89.0	0.683	orange	6.0	cue_stay	magnitude	stay	stim	poldrack-single-stim	s549	0	False
554.539	1.0	555.924	0.9	2.0	True	89.0	Color	n/a	twobytwo	89.0	0.485	blue	8.0	task_switch	color	switch	stim	poldrack-single-stim	s549	0	False
557.445	1.0	558.958	0.9	2.0	True	89.0	Color	stay	twobytwo	89.0	0.613	blue	4.0	cue_stay	color	stay	stim	poldrack-single-stim	s549	0	False
560.35	1.0	562.178	0.9	2.272	True	71.0	Orange-Blue	switch	twobytwo	71.0	0.928	orange	9.0	cue_switch	color	stay	stim	poldrack-single-stim	s549	0	False
563.526	1.0	565.056	0.9	2.136	True	71.0	High-Low	n/a	twobytwo	71.0	0.63	orange	4.0	task_switch	magnitude	switch	stim	poldrack-single-stim	s549	0	False
566.567	1.0	568.309	0.9	2.0	True	89.0	Orange-Blue	n/a	twobytwo	89.0	0.842	blue	1.0	task_switch	color	switch	stim	poldrack-single-stim	s549	0	False
568.672	1.0	569.497	0.1	2.0	True	71.0	Magnitude	n/a	twobytwo	71.0	0.725	blue	4.0	task_switch	magnitude	switch	stim	poldrack-single-stim	s549	0	False
570.777	1.0	571.703	0.1	2.0	True	71.0	Magnitude	stay	twobytwo	71.0	0.826	orange	2.0	cue_stay	magnitude	stay	stim	poldrack-single-stim	s549	0	False
573.681	1.0	574.993	0.9	2.68	True	71.0	Orange-Blue	n/a	twobytwo	71.0	0.412	orange	2.0	task_switch	color	switch	stim	poldrack-single-stim	s549	0	False
576.465	1.0	577.276	0.1	2.0	True	89.0	Orange-Blue	stay	twobytwo	89.0	0.711	blue	7.0	cue_stay	color	stay	stim	poldrack-single-stim	s549	0	False
579.369	1.0	580.875	0.9	2.272	True	71.0	Magnitude	n/a	twobytwo	71.0	0.606	blue	1.0	task_switch	magnitude	switch	stim	poldrack-single-stim	s549	0	False
581.744	1.0	582.533	0.1	2.0	True	71.0	Orange-Blue	n/a	twobytwo	71.0	0.689	orange	1.0	task_switch	color	switch	stim	poldrack-single-stim	s549	0	False
584.649	1.0	585.991	0.9	2.272	True	89.0	High-Low	n/a	twobytwo	89.0	0.442	orange	6.0	task_switch	magnitude	switch	stim	poldrack-single-stim	s549	0	False
587.826	1.0	589.36	0.9	2.952	False	71.0	Orange-Blue	n/a	twobytwo	89.0	0.634	orange	8.0	task_switch	color	switch	stim	poldrack-single-stim	s549	0	False
590.881	1.0	591.655	0.1	2.0	True	71.0	Orange-Blue	stay	twobytwo	71.0	0.674	orange	2.0	cue_stay	color	stay	stim	poldrack-single-stim	s549	0	False
593.786	1.0	595.314	0.9	2.0	True	71.0	Color	switch	twobytwo	71.0	0.628	orange	6.0	cue_switch	color	stay	stim	poldrack-single-stim	s549	0	False
595.89	1.0	596.862	0.1	2.0	True	71.0	Magnitude	n/a	twobytwo	71.0	0.872	orange	3.0	task_switch	magnitude	switch	stim	poldrack-single-stim	s549	0	False
598.792	1.0	600.352	0.9	2.0	True	71.0	Magnitude	stay	twobytwo	71.0	0.66	orange	2.0	cue_stay	magnitude	stay	stim	poldrack-single-stim	s549	0	False
601.698	1.0	603.233	0.9	2.136	True	89.0	Magnitude	stay	twobytwo	89.0	0.635	orange	9.0	cue_stay	magnitude	stay	stim	poldrack-single-stim	s549	0	False
603.938	1.0	604.833	0.1	2.0	True	89.0	Orange-Blue	n/a	twobytwo	89.0	0.795	blue	6.0	task_switch	color	switch	stim	poldrack-single-stim	s549	0	False
606.042	1.0	607.161	0.1	2.0	True	71.0	Orange-Blue	stay	twobytwo	71.0	1.019	orange	7.0	cue_stay	color	stay	stim	poldrack-single-stim	s549	0	False
608.146	1.0	608.918	0.1	2.0	True	89.0	Magnitude	n/a	twobytwo	89.0	0.672	orange	8.0	task_switch	magnitude	switch	stim	poldrack-single-stim	s549	0	False
610.25	1.0	611.12	0.1	2.272	False	89.0	Color	n/a	twobytwo	71.0	0.77	blue	2.0	task_switch	color	switch	stim	poldrack-single-stim	s549	0	False
613.426	1.0	615.05	0.9	2.136	True	89.0	High-Low	n/a	twobytwo	89.0	0.724	orange	6.0	task_switch	magnitude	switch	stim	poldrack-single-stim	s549	0	False
615.666	1.0	617.164	0.1	2.0	True	89.0	Orange-Blue	n/a	twobytwo	89.0	1.398	blue	1.0	task_switch	color	switch	stim	poldrack-single-stim	s549	0	False
617.771	1.0	618.547	0.1	2.136	True	71.0	Orange-Blue	stay	twobytwo	71.0	0.676	orange	4.0	cue_stay	color	stay	stim	poldrack-single-stim	s549	0	False
620.011	1.0	620.835	0.1	2.816	True	89.0	Magnitude	n/a	twobytwo	89.0	0.724	blue	7.0	task_switch	magnitude	switch	stim	poldrack-single-stim	s549	0	False
623.73	1.0	625.24	0.9	2.408	True	71.0	High-Low	switch	twobytwo	71.0	0.61	orange	3.0	cue_switch	magnitude	stay	stim	poldrack-single-stim	s549	0	False
627.043	1.0	628.549	0.9	2.0	True	71.0	Color	n/a	twobytwo	71.0	0.606	orange	4.0	task_switch	color	switch	stim	poldrack-single-stim	s549	0	False
629.147	1.0	629.886	0.1	2.136	True	89.0	Magnitude	n/a	twobytwo	89.0	0.639	blue	8.0	task_switch	magnitude	switch	stim	poldrack-single-stim	s549	0	False
632.189	1.0	633.626	0.9	2.136	True	71.0	Color	n/a	twobytwo	71.0	0.537	orange	2.0	task_switch	color	switch	stim	poldrack-single-stim	s549	0	False
634.43	1.0	635.483	0.1	2.136	True	71.0	High-Low	n/a	twobytwo	71.0	0.953	blue	2.0	task_switch	magnitude	switch	stim	poldrack-single-stim	s549	0	False
637.471	1.0	638.962	0.9	2.544	True	89.0	High-Low	stay	twobytwo	89.0	0.591	blue	8.0	cue_stay	magnitude	stay	stim	poldrack-single-stim	s549	0	False
640.12	1.0	641.282	0.1	2.136	True	89.0	Orange-Blue	n/a	twobytwo	89.0	1.062	blue	2.0	task_switch	color	switch	stim	poldrack-single-stim	s549	0	False
642.36	1.0	643.279	0.1	2.0	True	89.0	High-Low	n/a	twobytwo	89.0	0.819	blue	7.0	task_switch	magnitude	switch	stim	poldrack-single-stim	s549	0	False
644.465	1.0	645.715	0.1	2.0	True	71.0	Orange-Blue	n/a	twobytwo	71.0	1.15	orange	8.0	task_switch	color	switch	stim	poldrack-single-stim	s549	0	False
647.368	1.0	648.659	0.9	2.0	True	71.0	Orange-Blue	stay	twobytwo	71.0	0.391	orange	4.0	cue_stay	color	stay	stim	poldrack-single-stim	s549	0	False
649.473	1.0	650.503	0.1	2.0	True	89.0	Magnitude	n/a	twobytwo	89.0	0.93	blue	8.0	task_switch	magnitude	switch	stim	poldrack-single-stim	s549	0	False
651.576	1.0	652.775	0.1	2.136	True	89.0	Color	n/a	twobytwo	89.0	1.099	blue	1.0	task_switch	color	switch	stim	poldrack-single-stim	s549	0	False
653.817	1.0	654.738	0.1	2.0	True	89.0	Orange-Blue	switch	twobytwo	89.0	0.821	blue	3.0	cue_switch	color	stay	stim	poldrack-single-stim	s549	0	False
655.921	1.0	656.905	0.1	2.0	True	71.0	High-Low	n/a	twobytwo	71.0	0.884	blue	3.0	task_switch	magnitude	switch	stim	poldrack-single-stim	s549	0	False
658.824	1.0	660.304	0.9	2.0	True	71.0	Color	n/a	twobytwo	71.0	0.58	orange	1.0	task_switch	color	switch	stim	poldrack-single-stim	s549	0	False
660.929	1.0	661.956	0.1	2.136	True	89.0	High-Low	n/a	twobytwo	89.0	0.927	orange	8.0	task_switch	magnitude	switch	stim	poldrack-single-stim	s549	0	False
663.171	1.0	664.038	0.1	2.136	True	89.0	Color	n/a	twobytwo	89.0	0.767	blue	7.0	task_switch	color	switch	stim	poldrack-single-stim	s549	0	False
666.212	1.0	667.807	0.9	2.136	True	89.0	High-Low	n/a	twobytwo	89.0	0.695	orange	9.0	task_switch	magnitude	switch	stim	poldrack-single-stim	s549	0	False
