onset	duration	block_duration	choice	experiment_exp_id	key_press	large_amount	later_delay	response_time	small_amount	trial_id	trial_type	worker_id	junk
3.009	4.0	4.568	larger_later	discount_fixed	89	74.0	121.0	1.82	20.0	n/a	larger_later	s549	False
7.579	4.0	4.772	larger_later	discount_fixed	89	45.0	107.0	1.508	20.0	n/a	larger_later	s549	False
12.354	4.0	4.636	larger_later	discount_fixed	89	77.0	24.0	0.745	20.0	n/a	larger_later	s549	False
16.993	4.0	4.568	larger_later	discount_fixed	89	39.0	161.0	0.765	20.0	n/a	larger_later	s549	False
21.563	4.0	5.452	larger_later	discount_fixed	89	62.0	180.0	0.878	20.0	n/a	larger_later	s549	False
27.016	4.0	5.384	smaller_sooner	discount_fixed	71	24.0	139.0	1.458	20.0	n/a	smaller_sooner	s549	False
32.403	4.0	4.568	larger_later	discount_fixed	89	58.0	72.0	1.653	20.0	n/a	larger_later	s549	False
36.973	4.0	6.268	larger_later	discount_fixed	89	56.0	93.0	1.116	20.0	n/a	larger_later	s549	False
43.243	4.0	5.52	larger_later	discount_fixed	89	45.0	26.0	1.465	20.0	n/a	larger_later	s549	False
48.766	4.0	4.568	smaller_sooner	discount_fixed	71	23.0	42.0	1.201	20.0	n/a	smaller_sooner	s549	False
53.336	4.0	4.636	larger_later	discount_fixed	89	50.0	41.0	0.692	20.0	n/a	larger_later	s549	False
57.975	4.0	4.636	smaller_sooner	discount_fixed	71	25.0	176.0	1.261	20.0	n/a	smaller_sooner	s549	False
62.612	4.0	5.112	larger_later	discount_fixed	89	54.0	22.0	0.897	20.0	n/a	larger_later	s549	False
67.726	4.0	5.316	larger_later	discount_fixed	89	29.0	44.0	2.278	20.0	n/a	larger_later	s549	False
73.044	4.0	4.568	smaller_sooner	discount_fixed	71	24.0	89.0	1.071	20.0	n/a	smaller_sooner	s549	False
77.615	4.0	4.568	smaller_sooner	discount_fixed	71	23.0	77.0	0.646	20.0	n/a	smaller_sooner	s549	False
82.185	4.0	4.568	smaller_sooner	discount_fixed	71	27.0	130.0	0.988	20.0	n/a	smaller_sooner	s549	False
86.755	4.0	4.84	smaller_sooner	discount_fixed	71	23.0	134.0	0.947	20.0	n/a	smaller_sooner	s549	False
91.598	4.0	4.5	larger_later	discount_fixed	89	55.0	107.0	0.989	20.0	n/a	larger_later	s549	False
96.099	4.0	5.656	larger_later	discount_fixed	89	44.0	143.0	1.017	20.0	n/a	larger_later	s549	False
101.756	4.0	4.908	smaller_sooner	discount_fixed	71	23.0	110.0	1.677	20.0	n/a	smaller_sooner	s549	False
106.667	4.0	4.636	larger_later	discount_fixed	89	65.0	156.0	1.092	20.0	n/a	larger_later	s549	False
111.305	4.0	4.5	smaller_sooner	discount_fixed	71	22.0	27.0	0.789	20.0	n/a	smaller_sooner	s549	False
115.807	4.0	4.5	larger_later	discount_fixed	89	50.0	59.0	1.026	20.0	n/a	larger_later	s549	False
120.31	4.0	5.112	larger_later	discount_fixed	89	85.0	129.0	0.597	20.0	n/a	larger_later	s549	False
125.424	4.0	6.132	larger_later	discount_fixed	89	66.0	58.0	0.589	20.0	n/a	larger_later	s549	False
131.558	4.0	4.84	larger_later	discount_fixed	89	49.0	172.0	0.541	20.0	n/a	larger_later	s549	False
136.402	4.0	4.568	larger_later	discount_fixed	89	73.0	44.0	0.854	20.0	n/a	larger_later	s549	False
140.972	4.0	4.704	larger_later	discount_fixed	89	58.0	73.0	0.626	20.0	n/a	larger_later	s549	False
145.678	4.0	5.86	larger_later	discount_fixed	89	71.0	76.0	2.01	20.0	n/a	larger_later	s549	False
151.54	4.0	4.636	larger_later	discount_fixed	89	67.0	74.0	0.639	20.0	n/a	larger_later	s549	False
156.177	4.0	5.316	smaller_sooner	discount_fixed	71	29.0	58.0	1.803	20.0	n/a	smaller_sooner	s549	False
161.495	4.0	4.976	larger_later	discount_fixed	89	39.0	104.0	0.741	20.0	n/a	larger_later	s549	False
166.473	4.0	4.568	larger_later	discount_fixed	89	33.0	103.0	2.044	20.0	n/a	larger_later	s549	False
171.044	4.0	5.52	larger_later	discount_fixed	89	33.0	78.0	0.815	20.0	n/a	larger_later	s549	False
176.566	4.0	5.588	larger_later	discount_fixed	89	74.0	52.0	0.716	20.0	n/a	larger_later	s549	False
182.157	4.0	5.792	smaller_sooner	discount_fixed	71	28.0	132.0	1.253	20.0	n/a	smaller_sooner	s549	False
187.95	4.0	4.568	smaller_sooner	discount_fixed	71	28.0	59.0	0.98	20.0	n/a	smaller_sooner	s549	False
192.519	4.0	5.112	smaller_sooner	discount_fixed	71	28.0	163.0	0.947	20.0	n/a	smaller_sooner	s549	False
197.634	4.0	4.5	larger_later	discount_fixed	89	32.0	74.0	0.883	20.0	n/a	larger_later	s549	False
202.137	4.0	4.84	larger_later	discount_fixed	89	57.0	89.0	0.781	20.0	n/a	larger_later	s549	False
206.979	4.0	4.568	larger_later	discount_fixed	89	70.0	108.0	0.597	20.0	n/a	larger_later	s549	False
211.549	4.0	5.384	larger_later	discount_fixed	89	72.0	95.0	0.523	20.0	n/a	larger_later	s549	False
216.937	4.0	5.044	larger_later	discount_fixed	89	30.0	36.0	0.737	20.0	n/a	larger_later	s549	False
221.983	4.0	4.704	larger_later	discount_fixed	89	41.0	129.0	0.797	20.0	n/a	larger_later	s549	False
226.689	4.0	4.908	larger_later	discount_fixed	89	78.0	129.0	1.534	20.0	n/a	larger_later	s549	False
231.598	4.0	4.908	larger_later	discount_fixed	89	71.0	88.0	2.047	20.0	n/a	larger_later	s549	False
236.508	4.0	4.84	larger_later	discount_fixed	89	65.0	159.0	0.505	20.0	n/a	larger_later	s549	False
241.351	4.0	5.112	smaller_sooner	discount_fixed	71	24.0	125.0	1.139	20.0	n/a	smaller_sooner	s549	False
246.465	4.0	5.112	larger_later	discount_fixed	89	58.0	36.0	0.629	20.0	n/a	larger_later	s549	False
251.579	4.0	4.704	larger_later	discount_fixed	89	63.0	37.0	0.571	20.0	n/a	larger_later	s549	False
256.284	4.0	4.84	larger_later	discount_fixed	89	75.0	41.0	0.869	20.0	n/a	larger_later	s549	False
261.126	4.0	4.84	larger_later	discount_fixed	89	45.0	72.0	0.656	20.0	n/a	larger_later	s549	False
265.969	4.0	6.88	smaller_sooner	discount_fixed	71	25.0	74.0	0.878	20.0	n/a	smaller_sooner	s549	False
272.851	4.0	4.568	larger_later	discount_fixed	89	65.0	137.0	0.608	20.0	n/a	larger_later	s549	False
277.421	4.0	4.772	larger_later	discount_fixed	89	49.0	140.0	0.664	20.0	n/a	larger_later	s549	False
282.195	4.0	7.016	larger_later	discount_fixed	89	67.0	103.0	0.465	20.0	n/a	larger_later	s549	False
289.214	4.0	4.704	larger_later	discount_fixed	89	69.0	172.0	0.606	20.0	n/a	larger_later	s549	False
293.92	4.0	5.18	larger_later	discount_fixed	89	66.0	71.0	0.525	20.0	n/a	larger_later	s549	False
299.102	4.0	5.044	larger_later	discount_fixed	89	71.0	176.0	0.852	20.0	n/a	larger_later	s549	False
304.149	4.0	5.316	larger_later	discount_fixed	89	31.0	76.0	1.687	20.0	n/a	larger_later	s549	False
317.97	4.0	4.568	larger_later	discount_fixed	89	43.0	19.0	0.885	20.0	n/a	larger_later	s549	False
322.541	4.0	4.636	larger_later	discount_fixed	89	60.0	124.0	1.164	20.0	n/a	larger_later	s549	False
327.178	4.0	4.908	larger_later	discount_fixed	89	27.0	142.0	1.567	20.0	n/a	larger_later	s549	False
332.088	4.0	4.5	smaller_sooner	discount_fixed	71	25.0	70.0	1.269	20.0	n/a	smaller_sooner	s549	False
336.59	4.0	4.976	larger_later	discount_fixed	89	44.0	92.0	0.876	20.0	n/a	larger_later	s549	False
341.568	4.0	4.908	larger_later	discount_fixed	89	41.0	27.0	0.648	20.0	n/a	larger_later	s549	False
346.479	4.0	4.568	larger_later	discount_fixed	89	64.0	89.0	0.711	20.0	n/a	larger_later	s549	False
351.048	4.0	4.5	larger_later	discount_fixed	89	78.0	108.0	0.652	20.0	n/a	larger_later	s549	False
355.551	4.0	6.2	larger_later	discount_fixed	89	80.0	145.0	0.724	20.0	n/a	larger_later	s549	False
361.753	4.0	4.704	larger_later	discount_fixed	89	41.0	174.0	0.68	20.0	n/a	larger_later	s549	False
366.459	4.0	5.044	larger_later	discount_fixed	89	42.0	145.0	0.559	20.0	n/a	larger_later	s549	False
371.506	4.0	5.044	larger_later	discount_fixed	89	36.0	114.0	1.241	20.0	n/a	larger_later	s549	False
376.552	4.0	5.18	larger_later	discount_fixed	89	58.0	55.0	0.579	20.0	n/a	larger_later	s549	False
381.734	4.0	4.976	larger_later	discount_fixed	89	81.0	58.0	0.507	20.0	n/a	larger_later	s549	False
386.713	4.0	4.772	larger_later	discount_fixed	89	32.0	111.0	1.069	20.0	n/a	larger_later	s549	False
391.487	4.0	4.772	larger_later	discount_fixed	89	25.0	141.0	2.797	20.0	n/a	larger_later	s549	False
396.261	4.0	5.18	larger_later	discount_fixed	89	67.0	23.0	0.513	20.0	n/a	larger_later	s549	False
401.444	4.0	5.18	larger_later	discount_fixed	89	77.0	161.0	0.571	20.0	n/a	larger_later	s549	False
406.626	4.0	5.248	larger_later	discount_fixed	89	55.0	163.0	0.709	20.0	n/a	larger_later	s549	False
411.876	4.0	4.568	larger_later	discount_fixed	89	40.0	159.0	0.421	20.0	n/a	larger_later	s549	False
416.446	4.0	4.5	larger_later	discount_fixed	89	76.0	161.0	0.568	20.0	n/a	larger_later	s549	False
420.948	4.0	4.908	larger_later	discount_fixed	89	48.0	128.0	0.679	20.0	n/a	larger_later	s549	False
425.858	4.0	4.568	larger_later	discount_fixed	89	39.0	95.0	0.928	20.0	n/a	larger_later	s549	False
430.427	4.0	6.2	larger_later	discount_fixed	89	83.0	105.0	0.66	20.0	n/a	larger_later	s549	False
436.63	4.0	4.908	larger_later	discount_fixed	89	67.0	41.0	0.576	20.0	n/a	larger_later	s549	False
441.54	4.0	5.248	larger_later	discount_fixed	89	56.0	172.0	0.761	20.0	n/a	larger_later	s549	False
446.79	4.0	5.044	larger_later	discount_fixed	89	28.0	123.0	1.236	20.0	n/a	larger_later	s549	False
451.837	4.0	4.636	larger_later	discount_fixed	89	50.0	129.0	0.515	20.0	n/a	larger_later	s549	False
456.475	4.0	4.704	smaller_sooner	discount_fixed	71	23.0	61.0	2.249	20.0	n/a	smaller_sooner	s549	False
461.181	4.0	4.636	larger_later	discount_fixed	89	79.0	92.0	0.763	20.0	n/a	larger_later	s549	False
465.82	4.0	4.568	larger_later	discount_fixed	89	61.0	141.0	0.758	20.0	n/a	larger_later	s549	False
470.39	4.0	4.568	larger_later	discount_fixed	89	43.0	38.0	0.946	20.0	n/a	larger_later	s549	False
474.959	4.0	4.908	larger_later	discount_fixed	89	66.0	145.0	0.831	20.0	n/a	larger_later	s549	False
479.87	4.0	4.84	larger_later	discount_fixed	89	30.0	23.0	1.095	20.0	n/a	larger_later	s549	False
484.712	4.0	5.248	larger_later	discount_fixed	89	32.0	57.0	0.619	20.0	n/a	larger_later	s549	False
489.962	4.0	4.772	larger_later	discount_fixed	89	27.0	91.0	1.103	20.0	n/a	larger_later	s549	False
494.736	4.0	5.996	larger_later	discount_fixed	89	43.0	120.0	1.292	20.0	n/a	larger_later	s549	False
500.734	4.0	5.588	larger_later	discount_fixed	89	75.0	60.0	0.843	20.0	n/a	larger_later	s549	False
506.324	4.0	4.568	larger_later	discount_fixed	89	34.0	176.0	0.81	20.0	n/a	larger_later	s549	False
510.894	4.0	5.112	smaller_sooner	discount_fixed	71	24.0	38.0	1.242	20.0	n/a	smaller_sooner	s549	False
516.008	4.0	5.656	larger_later	discount_fixed	89	82.0	74.0	0.492	20.0	n/a	larger_later	s549	False
521.666	4.0	4.568	larger_later	discount_fixed	89	58.0	53.0	0.62	20.0	n/a	larger_later	s549	False
526.237	4.0	4.772	larger_later	discount_fixed	89	54.0	23.0	0.559	20.0	n/a	larger_later	s549	False
531.011	4.0	5.044	larger_later	discount_fixed	89	41.0	55.0	0.598	20.0	n/a	larger_later	s549	False
536.059	4.0	4.84	larger_later	discount_fixed	89	77.0	142.0	0.546	20.0	n/a	larger_later	s549	False
540.901	4.0	5.18	smaller_sooner	discount_fixed	71	25.0	108.0	1.936	20.0	n/a	smaller_sooner	s549	False
546.086	4.0	5.044	larger_later	discount_fixed	89	33.0	163.0	1.148	20.0	n/a	larger_later	s549	False
551.132	4.0	4.976	larger_later	discount_fixed	89	29.0	75.0	0.976	20.0	n/a	larger_later	s549	False
556.11	4.0	4.976	larger_later	discount_fixed	89	45.0	157.0	0.699	20.0	n/a	larger_later	s549	False
561.088	4.0	5.316	larger_later	discount_fixed	89	31.0	74.0	0.756	20.0	n/a	larger_later	s549	False
566.405	4.0	4.5	larger_later	discount_fixed	89	80.0	39.0	0.819	20.0	n/a	larger_later	s549	False
570.907	4.0	5.044	smaller_sooner	discount_fixed	71	22.0	21.0	0.972	20.0	n/a	smaller_sooner	s549	False
575.953	4.0	4.704	larger_later	discount_fixed	89	52.0	139.0	1.046	20.0	n/a	larger_later	s549	False
580.659	4.0	4.84	larger_later	discount_fixed	89	54.0	126.0	0.724	20.0	n/a	larger_later	s549	False
585.501	4.0	6.744	smaller_sooner	discount_fixed	71	23.0	176.0	0.938	20.0	n/a	smaller_sooner	s549	False
592.246	4.0	4.5	smaller_sooner	discount_fixed	71	24.0	87.0	1.584	20.0	n/a	smaller_sooner	s549	False
596.749	4.0	4.568	larger_later	discount_fixed	89	36.0	140.0	0.487	20.0	n/a	larger_later	s549	False
601.319	4.0	4.704	larger_later	discount_fixed	89	35.0	171.0	0.509	20.0	n/a	larger_later	s549	False
606.025	4.0	4.908	larger_later	discount_fixed	89	34.0	43.0	0.599	20.0	n/a	larger_later	s549	False
