onset	duration	movement_onset	CTI	block_duration	correct	correct_response	cue	cue_switch	experiment_exp_id	key_press	response_time	stim_color	stim_number	switch_type	task	task_switch	trial_id	trial_type	worker_id	first_trial_of_block	junk
3.626	1.0	4.618	0.1	2.136	True	71.0	Color	switch	twobytwo	71.0	0.892	blue	6.0	cue_switch	color	stay	stim	poldrack-single-stim	s553	1	False
6.674	1.0	8.385	0.9	2.272	True	89.0	Magnitude	n/a	twobytwo	89.0	0.811	orange	1.0	task_switch	magnitude	switch	stim	poldrack-single-stim	s553	0	False
9.856	1.0	11.326	0.9	2.136	True	89.0	Orange-Blue	n/a	twobytwo	89.0	0.57	orange	7.0	task_switch	color	switch	stim	poldrack-single-stim	s553	0	False
12.904	1.0	14.455	0.9	2.272	True	89.0	Orange-Blue	stay	twobytwo	89.0	0.651	orange	1.0	cue_stay	color	stay	stim	poldrack-single-stim	s553	0	False
16.084	1.0	17.566	0.9	2.0	True	89.0	Magnitude	n/a	twobytwo	89.0	0.582	blue	2.0	task_switch	magnitude	switch	stim	poldrack-single-stim	s553	0	False
18.995	1.0	21.097	0.9	2.816	True	71.0	Magnitude	stay	twobytwo	71.0	1.202	orange	6.0	cue_stay	magnitude	stay	stim	poldrack-single-stim	s553	0	False
21.92	1.0	21.919	0.1	2.408	False	71.0	High-Low	switch	twobytwo	-1.0	n/a	blue	9.0	cue_switch	magnitude	stay	stim	poldrack-single-stim	s553	0	False
24.435	1.0	25.657	0.1	2.0	True	71.0	High-Low	stay	twobytwo	71.0	1.122	blue	9.0	cue_stay	magnitude	stay	stim	poldrack-single-stim	s553	0	False
27.346	1.0	29.117	0.9	2.544	True	89.0	High-Low	stay	twobytwo	89.0	0.871	orange	3.0	cue_stay	magnitude	stay	stim	poldrack-single-stim	s553	0	False
30.0	1.0	31.398	0.1	2.136	True	71.0	Color	n/a	twobytwo	71.0	1.298	blue	6.0	task_switch	color	switch	stim	poldrack-single-stim	s553	0	False
33.043	1.0	34.823	0.9	2.0	True	89.0	Magnitude	n/a	twobytwo	89.0	0.88	blue	3.0	task_switch	magnitude	switch	stim	poldrack-single-stim	s553	0	False
35.95	1.0	35.949	0.9	2.0	False	71.0	Magnitude	stay	twobytwo	-1.0	n/a	orange	8.0	cue_stay	magnitude	stay	stim	poldrack-single-stim	s553	0	False
38.056	1.0	39.717	0.1	2.136	True	71.0	High-Low	switch	twobytwo	71.0	1.561	blue	8.0	cue_switch	magnitude	stay	stim	poldrack-single-stim	s553	0	False
41.1	1.0	43.329	0.9	2.136	False	89.0	High-Low	stay	twobytwo	71.0	1.329	blue	3.0	cue_stay	magnitude	stay	stim	poldrack-single-stim	s553	0	False
43.348	1.0	44.315	0.1	2.272	True	71.0	Color	n/a	twobytwo	71.0	0.867	blue	7.0	task_switch	color	switch	stim	poldrack-single-stim	s553	0	False
45.725	1.0	47.061	0.1	3.224	True	89.0	Orange-Blue	switch	twobytwo	89.0	1.236	orange	6.0	cue_switch	color	stay	stim	poldrack-single-stim	s553	0	False
49.853	1.0	51.332	0.9	2.0	True	71.0	Color	switch	twobytwo	71.0	0.579	blue	7.0	cue_switch	color	stay	stim	poldrack-single-stim	s553	0	False
52.761	1.0	54.511	0.9	2.0	True	89.0	Magnitude	n/a	twobytwo	89.0	0.85	orange	1.0	task_switch	magnitude	switch	stim	poldrack-single-stim	s553	0	False
54.868	1.0	55.691	0.1	2.272	True	71.0	Color	n/a	twobytwo	71.0	0.723	blue	1.0	task_switch	color	switch	stim	poldrack-single-stim	s553	0	False
58.054	1.0	59.778	0.9	2.136	True	71.0	High-Low	n/a	twobytwo	71.0	0.824	orange	7.0	task_switch	magnitude	switch	stim	poldrack-single-stim	s553	0	False
61.098	1.0	63.26	0.9	2.0	True	89.0	Magnitude	switch	twobytwo	89.0	1.262	blue	2.0	cue_switch	magnitude	stay	stim	poldrack-single-stim	s553	0	False
64.01	1.0	66.16	0.9	2.0	False	71.0	Magnitude	stay	twobytwo	89.0	1.25	orange	9.0	cue_stay	magnitude	stay	stim	poldrack-single-stim	s553	0	False
66.922	1.0	69.179	0.9	2.0	True	71.0	Magnitude	stay	twobytwo	71.0	1.357	orange	7.0	cue_stay	magnitude	stay	stim	poldrack-single-stim	s553	0	False
69.031	1.0	70.176	0.1	2.68	True	89.0	Magnitude	stay	twobytwo	89.0	1.045	orange	2.0	cue_stay	magnitude	stay	stim	poldrack-single-stim	s553	0	False
71.823	1.0	73.095	0.1	2.0	True	71.0	Color	n/a	twobytwo	71.0	1.172	blue	3.0	task_switch	color	switch	stim	poldrack-single-stim	s553	0	False
73.932	1.0	75.554	0.1	2.272	False	71.0	Magnitude	n/a	twobytwo	89.0	1.522	orange	7.0	task_switch	magnitude	switch	stim	poldrack-single-stim	s553	0	False
77.114	1.0	79.045	0.9	2.0	True	71.0	Color	n/a	twobytwo	71.0	1.031	blue	7.0	task_switch	color	switch	stim	poldrack-single-stim	s553	0	False
80.026	1.0	81.502	0.9	2.272	True	89.0	Orange-Blue	switch	twobytwo	89.0	0.576	orange	9.0	cue_switch	color	stay	stim	poldrack-single-stim	s553	0	False
82.408	1.0	83.178	0.1	2.952	True	71.0	Color	switch	twobytwo	71.0	0.67	blue	9.0	cue_switch	color	stay	stim	poldrack-single-stim	s553	0	False
85.472	1.0	86.249	0.1	2.0	False	71.0	Magnitude	n/a	twobytwo	89.0	0.677	orange	9.0	task_switch	magnitude	switch	stim	poldrack-single-stim	s553	0	False
88.378	1.0	89.952	0.9	2.0	False	71.0	High-Low	switch	twobytwo	89.0	0.674	orange	8.0	cue_switch	magnitude	stay	stim	poldrack-single-stim	s553	0	False
91.289	1.0	93.15	0.9	2.0	True	71.0	Orange-Blue	n/a	twobytwo	71.0	0.961	blue	3.0	task_switch	color	switch	stim	poldrack-single-stim	s553	0	False
93.397	1.0	93.396	0.1	2.0	False	89.0	Orange-Blue	stay	twobytwo	-1.0	n/a	orange	4.0	cue_stay	color	stay	stim	poldrack-single-stim	s553	0	False
96.307	1.0	98.366	0.9	2.136	True	71.0	Color	switch	twobytwo	71.0	1.159	blue	1.0	cue_switch	color	stay	stim	poldrack-single-stim	s553	0	False
99.354	1.0	100.897	0.9	2.0	False	71.0	Magnitude	n/a	twobytwo	89.0	0.643	orange	8.0	task_switch	magnitude	switch	stim	poldrack-single-stim	s553	0	False
101.462	1.0	102.695	0.1	2.0	True	89.0	Color	n/a	twobytwo	89.0	1.133	orange	7.0	task_switch	color	switch	stim	poldrack-single-stim	s553	0	False
103.574	1.0	104.784	0.1	2.0	True	89.0	Orange-Blue	switch	twobytwo	89.0	1.11	orange	4.0	cue_switch	color	stay	stim	poldrack-single-stim	s553	0	False
105.682	1.0	106.957	0.1	2.272	True	89.0	High-Low	n/a	twobytwo	89.0	1.175	blue	3.0	task_switch	magnitude	switch	stim	poldrack-single-stim	s553	0	False
108.061	1.0	109.272	0.1	2.136	True	89.0	Orange-Blue	n/a	twobytwo	89.0	1.111	orange	3.0	task_switch	color	switch	stim	poldrack-single-stim	s553	0	False
110.302	1.0	111.277	0.1	2.0	True	89.0	High-Low	n/a	twobytwo	89.0	0.875	orange	2.0	task_switch	magnitude	switch	stim	poldrack-single-stim	s553	0	False
112.414	1.0	112.413	0.1	2.136	False	71.0	Orange-Blue	n/a	twobytwo	-1.0	n/a	blue	9.0	task_switch	color	switch	stim	poldrack-single-stim	s553	0	False
115.457	1.0	117.225	0.9	2.816	False	71.0	Magnitude	n/a	twobytwo	89.0	0.868	orange	8.0	task_switch	magnitude	switch	stim	poldrack-single-stim	s553	0	False
119.182	1.0	121.368	0.9	2.408	True	89.0	High-Low	switch	twobytwo	89.0	1.286	blue	1.0	cue_switch	magnitude	stay	stim	poldrack-single-stim	s553	0	False
121.699	1.0	123.146	0.1	2.0	True	71.0	Orange-Blue	n/a	twobytwo	71.0	1.347	blue	4.0	task_switch	color	switch	stim	poldrack-single-stim	s553	0	False
124.606	1.0	126.151	0.9	2.136	True	89.0	High-Low	n/a	twobytwo	89.0	0.645	orange	4.0	task_switch	magnitude	switch	stim	poldrack-single-stim	s553	0	False
127.652	1.0	129.165	0.9	2.136	True	71.0	High-Low	stay	twobytwo	71.0	0.613	blue	7.0	cue_stay	magnitude	stay	stim	poldrack-single-stim	s553	0	False
129.897	1.0	131.235	0.1	2.136	True	71.0	Magnitude	switch	twobytwo	71.0	1.238	blue	6.0	cue_switch	magnitude	stay	stim	poldrack-single-stim	s553	0	False
132.945	1.0	134.453	0.9	2.544	False	71.0	Color	n/a	twobytwo	89.0	0.608	blue	1.0	task_switch	color	switch	stim	poldrack-single-stim	s553	0	False
135.599	1.0	136.69	0.1	2.136	False	89.0	Magnitude	n/a	twobytwo	71.0	0.991	blue	1.0	task_switch	magnitude	switch	stim	poldrack-single-stim	s553	0	False
138.647	1.0	140.101	0.9	2.0	True	89.0	Orange-Blue	n/a	twobytwo	89.0	0.554	orange	4.0	task_switch	color	switch	stim	poldrack-single-stim	s553	0	False
140.754	1.0	142.056	0.1	2.0	True	89.0	High-Low	n/a	twobytwo	89.0	1.202	orange	4.0	task_switch	magnitude	switch	stim	poldrack-single-stim	s553	0	False
142.862	1.0	144.011	0.1	2.0	True	71.0	High-Low	stay	twobytwo	71.0	1.049	blue	6.0	cue_stay	magnitude	stay	stim	poldrack-single-stim	s553	0	False
145.772	1.0	147.471	0.9	2.0	False	89.0	Orange-Blue	n/a	twobytwo	71.0	0.799	orange	7.0	task_switch	color	switch	stim	poldrack-single-stim	s553	0	False
148.681	1.0	150.034	0.9	2.136	True	89.0	Magnitude	n/a	twobytwo	89.0	0.453	blue	4.0	task_switch	magnitude	switch	stim	poldrack-single-stim	s553	0	False
150.925	1.0	152.247	0.1	2.0	True	89.0	High-Low	switch	twobytwo	89.0	1.222	blue	2.0	cue_switch	magnitude	stay	stim	poldrack-single-stim	s553	0	False
153.031	1.0	154.077	0.1	2.0	True	89.0	Magnitude	switch	twobytwo	89.0	0.946	blue	4.0	cue_switch	magnitude	stay	stim	poldrack-single-stim	s553	0	False
155.943	1.0	157.315	0.9	2.0	True	89.0	Magnitude	stay	twobytwo	89.0	0.472	blue	2.0	cue_stay	magnitude	stay	stim	poldrack-single-stim	s553	0	False
158.853	1.0	160.652	0.9	2.136	True	71.0	Color	n/a	twobytwo	71.0	0.899	blue	6.0	task_switch	color	switch	stim	poldrack-single-stim	s553	0	False
161.098	1.0	162.461	0.1	2.136	False	89.0	Magnitude	n/a	twobytwo	71.0	1.263	blue	2.0	task_switch	magnitude	switch	stim	poldrack-single-stim	s553	0	False
164.144	1.0	165.659	0.9	2.136	False	71.0	Magnitude	stay	twobytwo	89.0	0.615	orange	7.0	cue_stay	magnitude	stay	stim	poldrack-single-stim	s553	0	False
167.189	1.0	168.914	0.9	2.136	True	71.0	Orange-Blue	n/a	twobytwo	71.0	0.825	blue	3.0	task_switch	color	switch	stim	poldrack-single-stim	s553	0	False
170.229	1.0	172.119	0.9	2.68	True	71.0	Orange-Blue	stay	twobytwo	71.0	0.99	blue	3.0	cue_stay	color	stay	stim	poldrack-single-stim	s553	0	False
173.013	1.0	173.827	0.1	2.544	True	89.0	Color	switch	twobytwo	89.0	0.714	orange	9.0	cue_switch	color	stay	stim	poldrack-single-stim	s553	0	False
175.664	1.0	177.105	0.1	2.272	True	71.0	Orange-Blue	switch	twobytwo	71.0	1.341	blue	1.0	cue_switch	color	stay	stim	poldrack-single-stim	s553	0	False
178.046	1.0	179.027	0.1	2.272	True	89.0	Color	switch	twobytwo	89.0	0.881	orange	4.0	cue_switch	color	stay	stim	poldrack-single-stim	s553	0	False
181.227	1.0	182.867	0.9	2.408	True	71.0	High-Low	n/a	twobytwo	71.0	0.74	blue	9.0	task_switch	magnitude	switch	stim	poldrack-single-stim	s553	0	False
183.744	1.0	185.186	0.1	2.136	True	71.0	High-Low	stay	twobytwo	71.0	1.342	orange	8.0	cue_stay	magnitude	stay	stim	poldrack-single-stim	s553	0	False
185.992	1.0	187.279	0.1	2.272	True	71.0	Orange-Blue	n/a	twobytwo	71.0	1.187	blue	9.0	task_switch	color	switch	stim	poldrack-single-stim	s553	0	False
189.171	1.0	190.7	0.9	2.0	True	89.0	Color	switch	twobytwo	89.0	0.629	orange	2.0	cue_switch	color	stay	stim	poldrack-single-stim	s553	0	False
191.281	1.0	192.993	0.1	2.136	True	71.0	Orange-Blue	switch	twobytwo	71.0	1.612	blue	3.0	cue_switch	color	stay	stim	poldrack-single-stim	s553	0	False
194.329	1.0	195.848	0.9	2.272	True	89.0	Orange-Blue	stay	twobytwo	89.0	0.619	orange	7.0	cue_stay	color	stay	stim	poldrack-single-stim	s553	0	False
197.513	1.0	199.048	0.9	2.0	True	71.0	Magnitude	n/a	twobytwo	71.0	0.635	blue	6.0	task_switch	magnitude	switch	stim	poldrack-single-stim	s553	0	False
200.422	1.0	202.022	0.9	2.68	True	89.0	Color	n/a	twobytwo	89.0	0.7	orange	3.0	task_switch	color	switch	stim	poldrack-single-stim	s553	0	False
203.214	1.0	204.609	0.1	2.0	True	89.0	Orange-Blue	switch	twobytwo	89.0	1.295	orange	7.0	cue_switch	color	stay	stim	poldrack-single-stim	s553	0	False
205.321	1.0	206.607	0.1	2.0	True	71.0	High-Low	n/a	twobytwo	71.0	1.186	orange	8.0	task_switch	magnitude	switch	stim	poldrack-single-stim	s553	0	False
207.428	1.0	208.306	0.1	2.0	True	89.0	High-Low	stay	twobytwo	89.0	0.778	orange	1.0	cue_stay	magnitude	stay	stim	poldrack-single-stim	s553	0	False
210.34	1.0	211.852	0.9	2.272	True	89.0	Color	n/a	twobytwo	89.0	0.612	orange	4.0	task_switch	color	switch	stim	poldrack-single-stim	s553	0	False
212.724	1.0	214.113	0.1	2.0	False	89.0	Magnitude	n/a	twobytwo	71.0	1.289	blue	3.0	task_switch	magnitude	switch	stim	poldrack-single-stim	s553	0	False
215.631	1.0	218.148	0.9	2.0	True	89.0	Color	n/a	twobytwo	89.0	1.617	orange	3.0	task_switch	color	switch	stim	poldrack-single-stim	s553	0	False
218.537	1.0	220.419	0.9	2.0	True	89.0	High-Low	n/a	twobytwo	89.0	0.982	blue	1.0	task_switch	magnitude	switch	stim	poldrack-single-stim	s553	0	False
234.162	1.0	235.459	0.1	2.68	True	71.0	Magnitude	switch	twobytwo	71.0	1.197	blue	6.0	cue_switch	magnitude	stay	stim	poldrack-single-stim	s553	1	False
237.754	1.0	239.155	0.9	2.0	True	89.0	Color	n/a	twobytwo	89.0	0.501	orange	1.0	task_switch	color	switch	stim	poldrack-single-stim	s553	0	False
240.664	1.0	242.18	0.9	2.136	False	71.0	Magnitude	n/a	twobytwo	89.0	0.616	orange	7.0	task_switch	magnitude	switch	stim	poldrack-single-stim	s553	0	False
243.709	1.0	245.012	0.9	2.408	True	89.0	Magnitude	stay	twobytwo	89.0	0.403	orange	1.0	cue_stay	magnitude	stay	stim	poldrack-single-stim	s553	0	False
247.026	1.0	248.473	0.9	2.136	True	71.0	Orange-Blue	n/a	twobytwo	71.0	0.547	blue	2.0	task_switch	color	switch	stim	poldrack-single-stim	s553	0	False
250.069	1.0	251.692	0.9	2.0	True	89.0	Orange-Blue	stay	twobytwo	89.0	0.723	orange	6.0	cue_stay	color	stay	stim	poldrack-single-stim	s553	0	False
252.176	1.0	252.778	0.1	2.0	True	71.0	Color	switch	twobytwo	71.0	0.502	blue	9.0	cue_switch	color	stay	stim	poldrack-single-stim	s553	0	False
254.288	1.0	255.176	0.1	2.544	True	71.0	Color	stay	twobytwo	71.0	0.788	blue	9.0	cue_stay	color	stay	stim	poldrack-single-stim	s553	0	False
257.741	1.0	259.064	0.9	2.136	True	89.0	Color	stay	twobytwo	89.0	0.423	orange	3.0	cue_stay	color	stay	stim	poldrack-single-stim	s553	0	False
259.99	1.0	261.492	0.1	2.544	True	71.0	High-Low	n/a	twobytwo	71.0	1.402	blue	6.0	task_switch	magnitude	switch	stim	poldrack-single-stim	s553	0	False
263.443	1.0	265.385	0.9	2.68	True	71.0	Color	n/a	twobytwo	71.0	1.042	blue	3.0	task_switch	color	switch	stim	poldrack-single-stim	s553	0	False
267.035	1.0	268.34	0.9	2.0	True	89.0	Color	stay	twobytwo	89.0	0.405	orange	8.0	cue_stay	color	stay	stim	poldrack-single-stim	s553	0	False
269.143	1.0	269.966	0.1	2.272	True	71.0	Orange-Blue	switch	twobytwo	71.0	0.723	blue	8.0	cue_switch	color	stay	stim	poldrack-single-stim	s553	0	False
272.325	1.0	273.863	0.9	3.088	True	71.0	Orange-Blue	stay	twobytwo	71.0	0.638	blue	3.0	cue_stay	color	stay	stim	poldrack-single-stim	s553	0	False
275.521	1.0	276.511	0.1	2.0	True	71.0	Magnitude	n/a	twobytwo	71.0	0.89	blue	7.0	task_switch	magnitude	switch	stim	poldrack-single-stim	s553	0	False
277.63	1.0	279.016	0.1	2.136	True	71.0	High-Low	switch	twobytwo	71.0	1.286	orange	6.0	cue_switch	magnitude	stay	stim	poldrack-single-stim	s553	0	False
280.676	1.0	282.351	0.9	2.136	True	71.0	Magnitude	switch	twobytwo	71.0	0.775	blue	7.0	cue_switch	magnitude	stay	stim	poldrack-single-stim	s553	0	False
283.718	1.0	285.452	0.9	2.0	True	89.0	Orange-Blue	n/a	twobytwo	89.0	0.834	orange	1.0	task_switch	color	switch	stim	poldrack-single-stim	s553	0	False
285.825	1.0	287.133	0.1	2.272	True	89.0	High-Low	n/a	twobytwo	89.0	1.208	blue	1.0	task_switch	magnitude	switch	stim	poldrack-single-stim	s553	0	False
289.004	1.0	291.349	0.9	2.0	True	89.0	Orange-Blue	n/a	twobytwo	89.0	1.445	orange	7.0	task_switch	color	switch	stim	poldrack-single-stim	s553	0	False
291.908	1.0	293.637	0.9	2.136	False	71.0	Color	switch	twobytwo	89.0	0.829	blue	2.0	cue_switch	color	stay	stim	poldrack-single-stim	s553	0	False
294.953	1.0	297.089	0.9	2.136	True	89.0	Color	stay	twobytwo	89.0	1.236	orange	9.0	cue_stay	color	stay	stim	poldrack-single-stim	s553	0	False
297.996	1.0	299.415	0.9	2.544	True	89.0	Color	stay	twobytwo	89.0	0.519	orange	7.0	cue_stay	color	stay	stim	poldrack-single-stim	s553	0	False
300.652	1.0	301.471	0.1	2.0	True	89.0	Color	stay	twobytwo	89.0	0.719	orange	2.0	cue_stay	color	stay	stim	poldrack-single-stim	s553	0	False
302.762	1.0	303.532	0.1	2.136	False	89.0	High-Low	n/a	twobytwo	71.0	0.67	blue	3.0	task_switch	magnitude	switch	stim	poldrack-single-stim	s553	0	False
305.007	1.0	306.33	0.1	2.136	True	89.0	Color	n/a	twobytwo	89.0	1.223	orange	7.0	task_switch	color	switch	stim	poldrack-single-stim	s553	0	False
308.047	1.0	309.759	0.9	2.136	False	71.0	Magnitude	n/a	twobytwo	89.0	0.812	blue	7.0	task_switch	magnitude	switch	stim	poldrack-single-stim	s553	0	False
311.093	1.0	313.018	0.9	2.0	True	71.0	High-Low	switch	twobytwo	71.0	1.025	orange	9.0	cue_switch	magnitude	stay	stim	poldrack-single-stim	s553	0	False
313.199	1.0	313.198	0.1	2.136	False	71.0	Magnitude	switch	twobytwo	-1.0	n/a	blue	9.0	cue_switch	magnitude	stay	stim	poldrack-single-stim	s553	0	False
315.447	1.0	316.774	0.1	2.0	True	89.0	Orange-Blue	n/a	twobytwo	89.0	1.227	orange	9.0	task_switch	color	switch	stim	poldrack-single-stim	s553	0	False
318.357	1.0	320.035	0.9	2.136	True	89.0	Color	switch	twobytwo	89.0	0.778	orange	8.0	cue_switch	color	stay	stim	poldrack-single-stim	s553	0	False
321.404	1.0	323.475	0.9	2.816	False	89.0	Magnitude	n/a	twobytwo	71.0	1.171	blue	3.0	task_switch	magnitude	switch	stim	poldrack-single-stim	s553	0	False
324.325	1.0	325.333	0.1	2.136	False	89.0	Magnitude	stay	twobytwo	71.0	0.908	orange	4.0	cue_stay	magnitude	stay	stim	poldrack-single-stim	s553	0	False
327.368	1.0	329.696	0.9	2.0	True	89.0	High-Low	switch	twobytwo	89.0	1.428	blue	1.0	cue_switch	magnitude	stay	stim	poldrack-single-stim	s553	0	False
330.28	1.0	332.467	0.9	2.0	True	89.0	Orange-Blue	n/a	twobytwo	89.0	1.287	orange	8.0	task_switch	color	switch	stim	poldrack-single-stim	s553	0	False
332.387	1.0	334.096	0.1	2.272	True	71.0	High-Low	n/a	twobytwo	71.0	1.609	orange	7.0	task_switch	magnitude	switch	stim	poldrack-single-stim	s553	0	False
334.771	1.0	336.652	0.1	2.0	False	89.0	Magnitude	switch	twobytwo	71.0	1.781	orange	4.0	cue_switch	magnitude	stay	stim	poldrack-single-stim	s553	0	False
336.883	1.0	338.219	0.1	2.0	True	71.0	Color	n/a	twobytwo	71.0	1.236	blue	3.0	task_switch	color	switch	stim	poldrack-single-stim	s553	0	False
338.992	1.0	340.188	0.1	2.0	True	89.0	High-Low	n/a	twobytwo	89.0	1.096	orange	3.0	task_switch	magnitude	switch	stim	poldrack-single-stim	s553	0	False
341.104	1.0	342.296	0.1	2.408	True	89.0	Color	n/a	twobytwo	89.0	1.092	orange	2.0	task_switch	color	switch	stim	poldrack-single-stim	s553	0	False
343.619	1.0	344.991	0.1	2.272	True	71.0	Magnitude	n/a	twobytwo	71.0	1.272	blue	9.0	task_switch	magnitude	switch	stim	poldrack-single-stim	s553	0	False
346.795	1.0	348.485	0.9	2.136	True	89.0	Color	n/a	twobytwo	89.0	0.79	orange	8.0	task_switch	color	switch	stim	poldrack-single-stim	s553	0	False
349.843	1.0	351.991	0.9	2.0	True	71.0	Orange-Blue	switch	twobytwo	71.0	1.248	blue	1.0	cue_switch	color	stay	stim	poldrack-single-stim	s553	0	False
351.955	1.0	353.269	0.1	2.0	False	89.0	Magnitude	n/a	twobytwo	71.0	1.214	blue	4.0	task_switch	magnitude	switch	stim	poldrack-single-stim	s553	0	False
354.859	1.0	356.7	0.9	2.136	True	89.0	Color	n/a	twobytwo	89.0	0.941	orange	4.0	task_switch	color	switch	stim	poldrack-single-stim	s553	0	False
357.908	1.0	360.076	0.9	2.0	False	71.0	Color	stay	twobytwo	89.0	1.268	blue	7.0	cue_stay	color	stay	stim	poldrack-single-stim	s553	0	False
360.017	1.0	360.925	0.1	2.136	True	71.0	Orange-Blue	switch	twobytwo	71.0	0.808	blue	6.0	cue_switch	color	stay	stim	poldrack-single-stim	s553	0	False
363.062	1.0	364.386	0.9	2.408	False	89.0	Magnitude	n/a	twobytwo	71.0	0.424	blue	1.0	task_switch	magnitude	switch	stim	poldrack-single-stim	s553	0	False
365.58	1.0	366.135	0.1	2.136	True	71.0	Orange-Blue	n/a	twobytwo	71.0	0.455	blue	1.0	task_switch	color	switch	stim	poldrack-single-stim	s553	0	False
368.625	1.0	370.674	0.9	2.0	True	89.0	High-Low	n/a	twobytwo	89.0	1.149	orange	4.0	task_switch	magnitude	switch	stim	poldrack-single-stim	s553	0	False
370.732	1.0	372.559	0.1	2.136	True	89.0	Orange-Blue	n/a	twobytwo	89.0	1.727	orange	4.0	task_switch	color	switch	stim	poldrack-single-stim	s553	0	False
372.979	1.0	373.961	0.1	2.272	True	71.0	Orange-Blue	stay	twobytwo	71.0	0.882	blue	6.0	cue_stay	color	stay	stim	poldrack-single-stim	s553	0	False
376.159	1.0	378.776	0.9	2.0	True	71.0	High-Low	n/a	twobytwo	71.0	1.717	orange	7.0	task_switch	magnitude	switch	stim	poldrack-single-stim	s553	0	False
379.068	1.0	380.893	0.9	2.408	True	71.0	Color	n/a	twobytwo	71.0	0.925	blue	4.0	task_switch	color	switch	stim	poldrack-single-stim	s553	0	False
381.588	1.0	382.748	0.1	2.0	True	71.0	Orange-Blue	switch	twobytwo	71.0	1.06	blue	2.0	cue_switch	color	stay	stim	poldrack-single-stim	s553	0	False
383.696	1.0	384.53	0.1	2.136	True	71.0	Color	switch	twobytwo	71.0	0.734	blue	4.0	cue_switch	color	stay	stim	poldrack-single-stim	s553	0	False
386.738	1.0	388.086	0.9	2.408	True	71.0	Color	stay	twobytwo	71.0	0.448	blue	2.0	cue_stay	color	stay	stim	poldrack-single-stim	s553	0	False
390.055	1.0	391.488	0.9	2.136	True	71.0	Magnitude	n/a	twobytwo	71.0	0.533	blue	6.0	task_switch	magnitude	switch	stim	poldrack-single-stim	s553	0	False
392.3	1.0	393.949	0.1	2.408	True	71.0	Orange-Blue	n/a	twobytwo	71.0	1.549	blue	2.0	task_switch	color	switch	stim	poldrack-single-stim	s553	0	False
395.613	1.0	397.135	0.9	2.136	True	89.0	Orange-Blue	stay	twobytwo	89.0	0.622	orange	7.0	cue_stay	color	stay	stim	poldrack-single-stim	s553	0	False
398.661	1.0	400.419	0.9	2.0	True	89.0	High-Low	n/a	twobytwo	89.0	0.858	blue	3.0	task_switch	magnitude	switch	stim	poldrack-single-stim	s553	0	False
401.568	1.0	403.236	0.9	2.272	True	89.0	High-Low	stay	twobytwo	89.0	0.768	blue	3.0	cue_stay	magnitude	stay	stim	poldrack-single-stim	s553	0	False
403.946	1.0	405.336	0.1	2.0	True	71.0	Magnitude	switch	twobytwo	71.0	1.29	orange	9.0	cue_switch	magnitude	stay	stim	poldrack-single-stim	s553	0	False
406.053	1.0	407.26	0.1	2.272	True	89.0	High-Low	switch	twobytwo	89.0	1.107	blue	1.0	cue_switch	magnitude	stay	stim	poldrack-single-stim	s553	0	False
408.434	1.0	409.814	0.1	2.272	True	89.0	Magnitude	switch	twobytwo	89.0	1.28	orange	4.0	cue_switch	magnitude	stay	stim	poldrack-single-stim	s553	0	False
411.613	1.0	413.366	0.9	2.952	True	71.0	Orange-Blue	n/a	twobytwo	71.0	0.853	blue	9.0	task_switch	color	switch	stim	poldrack-single-stim	s553	0	False
414.675	1.0	416.296	0.1	2.68	True	89.0	Orange-Blue	stay	twobytwo	89.0	1.521	orange	8.0	cue_stay	color	stay	stim	poldrack-single-stim	s553	0	False
417.464	1.0	418.749	0.1	2.136	True	71.0	Magnitude	n/a	twobytwo	71.0	1.185	blue	9.0	task_switch	magnitude	switch	stim	poldrack-single-stim	s553	0	False
420.512	1.0	422.228	0.9	2.272	True	89.0	High-Low	switch	twobytwo	89.0	0.816	orange	2.0	cue_switch	magnitude	stay	stim	poldrack-single-stim	s553	0	False
422.896	1.0	424.105	0.1	2.272	True	89.0	Magnitude	switch	twobytwo	89.0	1.109	blue	3.0	cue_switch	magnitude	stay	stim	poldrack-single-stim	s553	0	False
426.081	1.0	427.853	0.9	2.136	True	71.0	Magnitude	stay	twobytwo	71.0	0.872	orange	7.0	cue_stay	magnitude	stay	stim	poldrack-single-stim	s553	0	False
429.123	1.0	431.618	0.9	2.408	True	71.0	Orange-Blue	n/a	twobytwo	71.0	1.595	blue	6.0	task_switch	color	switch	stim	poldrack-single-stim	s553	0	False
432.441	1.0	434.463	0.9	2.136	True	89.0	High-Low	n/a	twobytwo	89.0	1.122	orange	3.0	task_switch	magnitude	switch	stim	poldrack-single-stim	s553	0	False
434.686	1.0	436.346	0.1	2.136	True	71.0	Magnitude	switch	twobytwo	71.0	1.56	orange	7.0	cue_switch	magnitude	stay	stim	poldrack-single-stim	s553	0	False
436.928	1.0	438.177	0.1	2.0	False	89.0	Color	n/a	twobytwo	71.0	1.149	orange	8.0	task_switch	color	switch	stim	poldrack-single-stim	s553	0	False
439.036	1.0	439.85	0.1	2.0	True	89.0	Color	stay	twobytwo	89.0	0.714	orange	1.0	cue_stay	color	stay	stim	poldrack-single-stim	s553	0	False
441.948	1.0	443.38	0.9	2.0	True	89.0	Magnitude	n/a	twobytwo	89.0	0.532	orange	4.0	task_switch	magnitude	switch	stim	poldrack-single-stim	s553	0	False
444.054	1.0	445.415	0.1	2.0	True	71.0	Color	n/a	twobytwo	71.0	1.261	blue	3.0	task_switch	color	switch	stim	poldrack-single-stim	s553	0	False
446.966	1.0	449.001	0.9	2.0	True	89.0	High-Low	n/a	twobytwo	89.0	1.135	orange	3.0	task_switch	magnitude	switch	stim	poldrack-single-stim	s553	0	False
449.873	1.0	451.762	0.9	2.272	True	71.0	Color	n/a	twobytwo	71.0	0.989	blue	1.0	task_switch	color	switch	stim	poldrack-single-stim	s553	0	False
465.77	1.0	467.092	0.1	2.408	True	71.0	Orange-Blue	switch	twobytwo	71.0	1.222	blue	6.0	cue_switch	color	stay	stim	poldrack-single-stim	s553	1	False
469.083	1.0	470.633	0.9	2.0	True	89.0	Magnitude	n/a	twobytwo	89.0	0.65	orange	1.0	task_switch	magnitude	switch	stim	poldrack-single-stim	s553	0	False
471.989	1.0	473.747	0.9	2.136	True	89.0	Orange-Blue	n/a	twobytwo	89.0	0.858	orange	7.0	task_switch	color	switch	stim	poldrack-single-stim	s553	0	False
475.037	1.0	476.506	0.9	2.0	True	89.0	Orange-Blue	stay	twobytwo	89.0	0.569	orange	1.0	cue_stay	color	stay	stim	poldrack-single-stim	s553	0	False
477.945	1.0	479.573	0.9	2.136	False	89.0	Magnitude	n/a	twobytwo	71.0	0.728	blue	2.0	task_switch	magnitude	switch	stim	poldrack-single-stim	s553	0	False
480.989	1.0	482.486	0.9	2.544	False	71.0	Magnitude	stay	twobytwo	89.0	0.597	orange	6.0	cue_stay	magnitude	stay	stim	poldrack-single-stim	s553	0	False
483.642	1.0	484.674	0.1	2.68	True	71.0	High-Low	switch	twobytwo	71.0	0.932	blue	9.0	cue_switch	magnitude	stay	stim	poldrack-single-stim	s553	0	False
486.434	1.0	487.535	0.1	3.088	True	71.0	High-Low	stay	twobytwo	71.0	1.001	blue	9.0	cue_stay	magnitude	stay	stim	poldrack-single-stim	s553	0	False
490.431	1.0	492.173	0.9	2.136	True	89.0	High-Low	stay	twobytwo	89.0	0.842	orange	3.0	cue_stay	magnitude	stay	stim	poldrack-single-stim	s553	0	False
492.679	1.0	493.907	0.1	2.544	True	71.0	Orange-Blue	n/a	twobytwo	71.0	1.128	blue	6.0	task_switch	color	switch	stim	poldrack-single-stim	s553	0	False
496.128	1.0	497.861	0.9	2.0	False	89.0	Magnitude	n/a	twobytwo	71.0	0.833	blue	3.0	task_switch	magnitude	switch	stim	poldrack-single-stim	s553	0	False
499.035	1.0	500.773	0.9	2.136	False	71.0	Magnitude	stay	twobytwo	89.0	0.838	orange	8.0	cue_stay	magnitude	stay	stim	poldrack-single-stim	s553	0	False
501.283	1.0	502.068	0.1	2.0	True	71.0	High-Low	switch	twobytwo	71.0	0.685	blue	8.0	cue_switch	magnitude	stay	stim	poldrack-single-stim	s553	0	False
504.192	1.0	505.922	0.9	2.408	False	89.0	High-Low	stay	twobytwo	71.0	0.83	blue	3.0	cue_stay	magnitude	stay	stim	poldrack-single-stim	s553	0	False
506.707	1.0	507.999	0.1	2.0	True	71.0	Color	n/a	twobytwo	71.0	1.192	blue	7.0	task_switch	color	switch	stim	poldrack-single-stim	s553	0	False
508.814	1.0	508.813	0.1	2.0	False	89.0	Orange-Blue	switch	twobytwo	-1.0	n/a	orange	6.0	cue_switch	color	stay	stim	poldrack-single-stim	s553	0	False
511.726	1.0	513.494	0.9	2.0	True	71.0	Color	switch	twobytwo	71.0	0.868	blue	7.0	cue_switch	color	stay	stim	poldrack-single-stim	s553	0	False
514.635	1.0	516.401	0.9	2.68	True	89.0	High-Low	n/a	twobytwo	89.0	0.866	orange	1.0	task_switch	magnitude	switch	stim	poldrack-single-stim	s553	0	False
517.427	1.0	519.596	0.1	2.272	True	71.0	Color	n/a	twobytwo	71.0	2.069	blue	1.0	task_switch	color	switch	stim	poldrack-single-stim	s553	0	False
520.609	1.0	522.835	0.9	2.408	False	71.0	Magnitude	n/a	twobytwo	89.0	1.326	orange	7.0	task_switch	magnitude	switch	stim	poldrack-single-stim	s553	0	False
523.925	1.0	525.848	0.9	3.224	True	89.0	High-Low	switch	twobytwo	89.0	1.023	blue	2.0	cue_switch	magnitude	stay	stim	poldrack-single-stim	s553	0	False
528.06	1.0	531.041	0.9	2.408	True	71.0	High-Low	stay	twobytwo	71.0	2.081	orange	9.0	cue_stay	magnitude	stay	stim	poldrack-single-stim	s553	0	False
531.38	1.0	534.661	0.9	2.816	False	71.0	High-Low	stay	twobytwo	89.0	2.381	orange	7.0	cue_stay	magnitude	stay	stim	poldrack-single-stim	s553	0	False
534.306	1.0	535.362	0.1	2.408	True	89.0	High-Low	stay	twobytwo	89.0	0.956	orange	2.0	cue_stay	magnitude	stay	stim	poldrack-single-stim	s553	0	False
536.823	1.0	538.15	0.1	2.136	True	71.0	Orange-Blue	n/a	twobytwo	71.0	1.227	blue	3.0	task_switch	color	switch	stim	poldrack-single-stim	s553	0	False
539.068	1.0	540.921	0.1	2.136	False	71.0	Magnitude	n/a	twobytwo	89.0	1.753	orange	7.0	task_switch	magnitude	switch	stim	poldrack-single-stim	s553	0	False
542.116	1.0	543.896	0.9	2.0	True	71.0	Color	n/a	twobytwo	71.0	0.88	blue	7.0	task_switch	color	switch	stim	poldrack-single-stim	s553	0	False
545.023	1.0	547.17	0.9	2.0	True	89.0	Orange-Blue	switch	twobytwo	89.0	1.247	orange	9.0	cue_switch	color	stay	stim	poldrack-single-stim	s553	0	False
547.13	1.0	548.909	0.1	2.272	True	71.0	Color	switch	twobytwo	71.0	1.679	blue	9.0	cue_switch	color	stay	stim	poldrack-single-stim	s553	0	False
549.511	1.0	551.399	0.1	2.408	True	71.0	High-Low	n/a	twobytwo	71.0	1.788	orange	9.0	task_switch	magnitude	switch	stim	poldrack-single-stim	s553	0	False
552.831	1.0	554.8	0.9	2.0	True	71.0	Magnitude	switch	twobytwo	71.0	1.069	orange	8.0	cue_switch	magnitude	stay	stim	poldrack-single-stim	s553	0	False
555.736	1.0	558.091	0.9	2.136	True	71.0	Orange-Blue	n/a	twobytwo	71.0	1.455	blue	3.0	task_switch	color	switch	stim	poldrack-single-stim	s553	0	False
557.978	1.0	559.405	0.1	2.0	True	89.0	Orange-Blue	stay	twobytwo	89.0	1.327	orange	4.0	cue_stay	color	stay	stim	poldrack-single-stim	s553	0	False
560.888	1.0	562.949	0.9	2.408	True	71.0	Color	switch	twobytwo	71.0	1.161	blue	1.0	cue_switch	color	stay	stim	poldrack-single-stim	s553	0	False
564.208	1.0	566.055	0.9	2.272	False	71.0	Magnitude	n/a	twobytwo	89.0	0.947	orange	8.0	task_switch	magnitude	switch	stim	poldrack-single-stim	s553	0	False
566.585	1.0	567.911	0.1	2.0	True	89.0	Color	n/a	twobytwo	89.0	1.226	orange	7.0	task_switch	color	switch	stim	poldrack-single-stim	s553	0	False
568.693	1.0	570.02	0.1	2.272	True	89.0	Orange-Blue	switch	twobytwo	89.0	1.227	orange	4.0	cue_switch	color	stay	stim	poldrack-single-stim	s553	0	False
571.072	1.0	572.565	0.1	2.0	False	89.0	Magnitude	n/a	twobytwo	71.0	1.393	blue	3.0	task_switch	magnitude	switch	stim	poldrack-single-stim	s553	0	False
573.179	1.0	574.251	0.1	2.0	True	89.0	Orange-Blue	n/a	twobytwo	89.0	0.972	orange	3.0	task_switch	color	switch	stim	poldrack-single-stim	s553	0	False
575.286	1.0	576.309	0.1	2.272	True	89.0	Magnitude	n/a	twobytwo	89.0	0.923	orange	2.0	task_switch	magnitude	switch	stim	poldrack-single-stim	s553	0	False
577.667	1.0	578.892	0.1	2.136	True	71.0	Orange-Blue	n/a	twobytwo	71.0	1.125	blue	9.0	task_switch	color	switch	stim	poldrack-single-stim	s553	0	False
580.712	1.0	582.812	0.9	2.0	False	71.0	High-Low	n/a	twobytwo	89.0	1.2	orange	8.0	task_switch	magnitude	switch	stim	poldrack-single-stim	s553	0	False
583.622	1.0	585.339	0.9	2.0	True	89.0	Magnitude	switch	twobytwo	89.0	0.817	blue	1.0	cue_switch	magnitude	stay	stim	poldrack-single-stim	s553	0	False
585.733	1.0	587.782	0.1	2.0	False	71.0	Color	n/a	twobytwo	89.0	1.949	blue	4.0	task_switch	color	switch	stim	poldrack-single-stim	s553	0	False
588.639	1.0	588.638	0.9	2.0	False	89.0	Magnitude	n/a	twobytwo	-1.0	n/a	orange	4.0	task_switch	magnitude	switch	stim	poldrack-single-stim	s553	0	False
591.547	1.0	594.016	0.9	2.0	True	71.0	Magnitude	stay	twobytwo	71.0	1.569	blue	7.0	cue_stay	magnitude	stay	stim	poldrack-single-stim	s553	0	False
593.657	1.0	595.218	0.1	2.136	True	71.0	High-Low	switch	twobytwo	71.0	1.461	blue	6.0	cue_switch	magnitude	stay	stim	poldrack-single-stim	s553	0	False
596.705	1.0	598.485	0.9	2.0	True	71.0	Color	n/a	twobytwo	71.0	0.88	blue	1.0	task_switch	color	switch	stim	poldrack-single-stim	s553	0	False
598.812	1.0	599.522	0.1	2.0	False	89.0	High-Low	n/a	twobytwo	71.0	0.61	blue	1.0	task_switch	magnitude	switch	stim	poldrack-single-stim	s553	0	False
601.721	1.0	603.838	0.9	2.136	True	89.0	Color	n/a	twobytwo	89.0	1.217	orange	4.0	task_switch	color	switch	stim	poldrack-single-stim	s553	0	False
603.969	1.0	604.965	0.1	2.0	True	89.0	High-Low	n/a	twobytwo	89.0	0.896	orange	4.0	task_switch	magnitude	switch	stim	poldrack-single-stim	s553	0	False
606.076	1.0	607.804	0.1	2.136	True	71.0	High-Low	stay	twobytwo	71.0	1.628	blue	6.0	cue_stay	magnitude	stay	stim	poldrack-single-stim	s553	0	False
609.119	1.0	611.476	0.9	2.68	True	89.0	Color	n/a	twobytwo	89.0	1.457	orange	7.0	task_switch	color	switch	stim	poldrack-single-stim	s553	0	False
612.705	1.0	614.792	0.9	2.272	False	89.0	Magnitude	n/a	twobytwo	71.0	1.187	blue	4.0	task_switch	magnitude	switch	stim	poldrack-single-stim	s553	0	False
615.087	1.0	616.398	0.1	2.136	True	89.0	High-Low	switch	twobytwo	89.0	1.211	blue	2.0	cue_switch	magnitude	stay	stim	poldrack-single-stim	s553	0	False
617.33	1.0	618.71	0.1	2.0	True	89.0	Magnitude	switch	twobytwo	89.0	1.28	blue	4.0	cue_switch	magnitude	stay	stim	poldrack-single-stim	s553	0	False
620.239	1.0	622.14	0.9	2.136	True	89.0	Magnitude	stay	twobytwo	89.0	1.001	blue	2.0	cue_stay	magnitude	stay	stim	poldrack-single-stim	s553	0	False
623.284	1.0	625.706	0.9	2.68	True	71.0	Color	n/a	twobytwo	71.0	1.522	blue	6.0	task_switch	color	switch	stim	poldrack-single-stim	s553	0	False
626.074	1.0	627.448	0.1	2.272	True	89.0	High-Low	n/a	twobytwo	89.0	1.274	blue	2.0	task_switch	magnitude	switch	stim	poldrack-single-stim	s553	0	False
629.255	1.0	631.405	0.9	2.0	True	71.0	High-Low	stay	twobytwo	71.0	1.25	orange	7.0	cue_stay	magnitude	stay	stim	poldrack-single-stim	s553	0	False
632.161	1.0	632.16	0.9	2.0	False	71.0	Orange-Blue	n/a	twobytwo	-1.0	n/a	blue	3.0	task_switch	color	switch	stim	poldrack-single-stim	s553	0	False
635.066	1.0	636.805	0.9	2.136	True	71.0	Orange-Blue	stay	twobytwo	71.0	0.839	blue	3.0	cue_stay	color	stay	stim	poldrack-single-stim	s553	0	False
637.314	1.0	638.532	0.1	2.0	True	89.0	Color	switch	twobytwo	89.0	1.118	orange	9.0	cue_switch	color	stay	stim	poldrack-single-stim	s553	0	False
639.421	1.0	641.087	0.1	2.0	True	71.0	Orange-Blue	switch	twobytwo	71.0	1.566	blue	1.0	cue_switch	color	stay	stim	poldrack-single-stim	s553	0	False
641.528	1.0	642.464	0.1	2.0	True	89.0	Color	switch	twobytwo	89.0	0.836	orange	4.0	cue_switch	color	stay	stim	poldrack-single-stim	s553	0	False
644.438	1.0	646.768	0.9	2.272	True	71.0	Magnitude	n/a	twobytwo	71.0	1.43	blue	9.0	task_switch	magnitude	switch	stim	poldrack-single-stim	s553	0	False
646.816	1.0	647.61	0.1	2.408	False	71.0	Magnitude	stay	twobytwo	89.0	0.694	orange	8.0	cue_stay	magnitude	stay	stim	poldrack-single-stim	s553	0	False
649.336	1.0	650.657	0.1	2.0	True	71.0	Orange-Blue	n/a	twobytwo	71.0	1.221	blue	9.0	task_switch	color	switch	stim	poldrack-single-stim	s553	0	False
652.243	1.0	653.872	0.9	2.0	True	89.0	Color	switch	twobytwo	89.0	0.729	orange	2.0	cue_switch	color	stay	stim	poldrack-single-stim	s553	0	False
654.355	1.0	655.72	0.1	2.0	True	71.0	Orange-Blue	switch	twobytwo	71.0	1.265	blue	3.0	cue_switch	color	stay	stim	poldrack-single-stim	s553	0	False
657.262	1.0	658.949	0.9	2.272	True	89.0	Orange-Blue	stay	twobytwo	89.0	0.787	orange	7.0	cue_stay	color	stay	stim	poldrack-single-stim	s553	0	False
660.443	1.0	662.524	0.9	2.136	True	71.0	Magnitude	n/a	twobytwo	71.0	1.181	blue	6.0	task_switch	magnitude	switch	stim	poldrack-single-stim	s553	0	False
663.486	1.0	665.089	0.9	2.0	True	89.0	Orange-Blue	n/a	twobytwo	89.0	0.703	orange	3.0	task_switch	color	switch	stim	poldrack-single-stim	s553	0	False
665.598	1.0	666.386	0.1	2.544	True	89.0	Color	switch	twobytwo	89.0	0.688	orange	7.0	cue_switch	color	stay	stim	poldrack-single-stim	s553	0	False
668.254	1.0	669.761	0.1	2.272	False	71.0	High-Low	n/a	twobytwo	89.0	1.407	orange	8.0	task_switch	magnitude	switch	stim	poldrack-single-stim	s553	0	False
670.638	1.0	671.432	0.1	2.272	True	89.0	High-Low	stay	twobytwo	89.0	0.694	orange	1.0	cue_stay	magnitude	stay	stim	poldrack-single-stim	s553	0	False
673.817	1.0	675.698	0.9	2.0	True	89.0	Orange-Blue	n/a	twobytwo	89.0	0.981	orange	4.0	task_switch	color	switch	stim	poldrack-single-stim	s553	0	False
675.923	1.0	677.264	0.1	2.0	True	89.0	High-Low	n/a	twobytwo	89.0	1.241	blue	3.0	task_switch	magnitude	switch	stim	poldrack-single-stim	s553	0	False
678.833	1.0	681.331	0.9	2.136	True	89.0	Color	n/a	twobytwo	89.0	1.598	orange	3.0	task_switch	color	switch	stim	poldrack-single-stim	s553	0	False
681.881	1.0	681.88	0.9	2.0	False	89.0	High-Low	n/a	twobytwo	-1.0	n/a	blue	1.0	task_switch	magnitude	switch	stim	poldrack-single-stim	s553	0	False
