onset	duration	movement_onset	block_duration	condition	correct	correct_response	experiment_exp_id	key_press	response_time	trial_id	trial_type	worker_id	junk
3.009	0.5	3.008	0.5	AY	n/a	n/a	dot_pattern_expectancy	-1.0	n/a	cue	AY	s553	False
5.513	0.5	6.248	1.636	AY	1.0	71.0	dot_pattern_expectancy	71.0	0.735	probe	AY	s553	False
7.152	0.5	7.151	0.5	AX	n/a	n/a	dot_pattern_expectancy	-1.0	n/a	cue	AX	s553	False
9.655	0.5	10.935	1.636	AX	1.0	89.0	dot_pattern_expectancy	89.0	1.28	probe	AX	s553	False
11.292	0.5	11.291	0.5	AX	n/a	n/a	dot_pattern_expectancy	-1.0	n/a	cue	AX	s553	False
13.796	0.5	13.795	1.5	AX	0.0	89.0	dot_pattern_expectancy	-1.0	n/a	probe	AX	s553	False
15.298	0.5	15.297	0.5	AX	n/a	n/a	dot_pattern_expectancy	-1.0	n/a	cue	AX	s553	False
17.802	0.5	18.582	1.5	AX	1.0	89.0	dot_pattern_expectancy	89.0	0.78	probe	AX	s553	False
19.303	0.5	19.302	0.5	AX	n/a	n/a	dot_pattern_expectancy	-1.0	n/a	cue	AX	s553	False
21.808	0.5	22.512	1.908	AX	1.0	89.0	dot_pattern_expectancy	89.0	0.704	probe	AX	s553	False
23.718	0.5	23.717	0.5	BX	n/a	n/a	dot_pattern_expectancy	-1.0	n/a	cue	BX	s553	False
26.221	0.5	26.785	1.636	BX	1.0	71.0	dot_pattern_expectancy	71.0	0.564	probe	BX	s553	False
27.858	0.5	27.857	0.5	AX	n/a	n/a	dot_pattern_expectancy	-1.0	n/a	cue	AX	s553	False
30.362	0.5	31.033	2.044	AX	1.0	89.0	dot_pattern_expectancy	89.0	0.671	probe	AX	s553	False
32.408	0.5	32.407	0.5	AX	n/a	n/a	dot_pattern_expectancy	-1.0	n/a	cue	AX	s553	False
34.912	0.5	35.372	1.772	AX	1.0	89.0	dot_pattern_expectancy	89.0	0.46	probe	AX	s553	False
36.687	0.5	36.686	0.5	AX	n/a	n/a	dot_pattern_expectancy	-1.0	n/a	cue	AX	s553	False
39.191	0.5	39.986	1.5	AX	1.0	89.0	dot_pattern_expectancy	89.0	0.795	probe	AX	s553	False
40.693	0.5	40.692	0.5	AX	n/a	n/a	dot_pattern_expectancy	-1.0	n/a	cue	AX	s553	False
43.197	0.5	43.918	2.18	AX	1.0	89.0	dot_pattern_expectancy	89.0	0.721	probe	AX	s553	False
45.379	0.5	45.378	0.5	AX	n/a	n/a	dot_pattern_expectancy	-1.0	n/a	cue	AX	s553	False
47.884	0.5	48.363	1.5	AX	1.0	89.0	dot_pattern_expectancy	89.0	0.479	probe	AX	s553	False
49.387	0.5	49.386	0.5	BX	n/a	n/a	dot_pattern_expectancy	-1.0	n/a	cue	BX	s553	False
51.892	0.5	52.747	3.676	BX	1.0	71.0	dot_pattern_expectancy	71.0	0.855	probe	BX	s553	False
55.571	0.5	55.57	0.5	BY	n/a	n/a	dot_pattern_expectancy	-1.0	n/a	cue	BY	s553	False
58.076	0.5	58.535	1.636	BY	1.0	71.0	dot_pattern_expectancy	71.0	0.459	probe	BY	s553	False
59.715	0.5	59.714	0.5	BY	n/a	n/a	dot_pattern_expectancy	-1.0	n/a	cue	BY	s553	False
62.219	0.5	62.562	1.636	BY	1.0	71.0	dot_pattern_expectancy	71.0	0.343	probe	BY	s553	False
63.858	0.5	63.857	0.5	BX	n/a	n/a	dot_pattern_expectancy	-1.0	n/a	cue	BX	s553	False
66.362	0.5	66.739	1.5	BX	1.0	71.0	dot_pattern_expectancy	71.0	0.377	probe	BX	s553	False
67.864	0.5	67.863	0.5	AX	n/a	n/a	dot_pattern_expectancy	-1.0	n/a	cue	AX	s553	False
70.368	0.5	70.789	1.908	AX	1.0	89.0	dot_pattern_expectancy	89.0	0.421	probe	AX	s553	False
72.278	0.5	72.277	0.5	AX	n/a	n/a	dot_pattern_expectancy	-1.0	n/a	cue	AX	s553	False
74.783	0.5	75.612	1.636	AX	1.0	89.0	dot_pattern_expectancy	89.0	0.829	probe	AX	s553	False
76.42	0.5	76.419	0.5	BX	n/a	n/a	dot_pattern_expectancy	-1.0	n/a	cue	BX	s553	False
78.924	0.5	79.409	1.5	BX	1.0	71.0	dot_pattern_expectancy	71.0	0.485	probe	BX	s553	False
80.426	0.5	80.425	0.5	AX	n/a	n/a	dot_pattern_expectancy	-1.0	n/a	cue	AX	s553	False
82.929	0.5	83.563	1.908	AX	1.0	89.0	dot_pattern_expectancy	89.0	0.634	probe	AX	s553	False
84.84	0.5	84.839	0.5	BY	n/a	n/a	dot_pattern_expectancy	-1.0	n/a	cue	BY	s553	False
87.343	0.5	87.623	2.18	BY	1.0	71.0	dot_pattern_expectancy	71.0	0.28	probe	BY	s553	False
89.526	0.5	89.525	0.5	AX	n/a	n/a	dot_pattern_expectancy	-1.0	n/a	cue	AX	s553	False
92.03	0.5	92.603	1.772	AX	1.0	89.0	dot_pattern_expectancy	89.0	0.573	probe	AX	s553	False
93.805	0.5	93.804	0.5	AX	n/a	n/a	dot_pattern_expectancy	-1.0	n/a	cue	AX	s553	False
96.309	0.5	96.802	1.5	AX	1.0	89.0	dot_pattern_expectancy	89.0	0.493	probe	AX	s553	False
97.812	0.5	97.811	0.5	AX	n/a	n/a	dot_pattern_expectancy	-1.0	n/a	cue	AX	s553	False
100.317	0.5	100.746	1.5	AX	1.0	89.0	dot_pattern_expectancy	89.0	0.429	probe	AX	s553	False
101.818	0.5	101.817	0.5	AX	n/a	n/a	dot_pattern_expectancy	-1.0	n/a	cue	AX	s553	False
104.321	0.5	104.769	2.044	AX	1.0	89.0	dot_pattern_expectancy	89.0	0.448	probe	AX	s553	False
106.367	0.5	106.366	0.5	AX	n/a	n/a	dot_pattern_expectancy	-1.0	n/a	cue	AX	s553	False
108.87	0.5	109.317	2.86	AX	1.0	89.0	dot_pattern_expectancy	89.0	0.447	probe	AX	s553	False
111.733	0.5	111.732	0.5	BX	n/a	n/a	dot_pattern_expectancy	-1.0	n/a	cue	BX	s553	False
114.237	0.5	114.774	1.5	BX	1.0	71.0	dot_pattern_expectancy	71.0	0.537	probe	BX	s553	False
115.739	0.5	115.738	0.5	BY	n/a	n/a	dot_pattern_expectancy	-1.0	n/a	cue	BY	s553	False
118.243	0.5	118.478	1.772	BY	1.0	71.0	dot_pattern_expectancy	71.0	0.235	probe	BY	s553	False
120.016	0.5	120.015	0.5	AX	n/a	n/a	dot_pattern_expectancy	-1.0	n/a	cue	AX	s553	False
122.52	0.5	122.951	1.772	AX	1.0	89.0	dot_pattern_expectancy	89.0	0.431	probe	AX	s553	False
124.294	0.5	124.293	0.5	AX	n/a	n/a	dot_pattern_expectancy	-1.0	n/a	cue	AX	s553	False
126.798	0.5	127.207	2.86	AX	0.0	89.0	dot_pattern_expectancy	71.0	0.409	probe	AX	s553	False
129.659	0.5	129.658	0.5	AX	n/a	n/a	dot_pattern_expectancy	-1.0	n/a	cue	AX	s553	False
132.163	0.5	132.736	1.772	AX	1.0	89.0	dot_pattern_expectancy	89.0	0.573	probe	AX	s553	False
133.937	0.5	133.936	0.5	BX	n/a	n/a	dot_pattern_expectancy	-1.0	n/a	cue	BX	s553	False
136.44	0.5	136.843	1.636	BX	1.0	71.0	dot_pattern_expectancy	71.0	0.403	probe	BX	s553	False
138.079	0.5	138.078	0.5	BX	n/a	n/a	dot_pattern_expectancy	-1.0	n/a	cue	BX	s553	False
140.582	0.5	140.976	2.452	BX	1.0	71.0	dot_pattern_expectancy	71.0	0.394	probe	BX	s553	False
143.036	0.5	143.035	0.5	AX	n/a	n/a	dot_pattern_expectancy	-1.0	n/a	cue	AX	s553	False
145.54	0.5	145.997	1.636	AX	1.0	89.0	dot_pattern_expectancy	89.0	0.457	probe	AX	s553	False
147.179	0.5	147.178	0.5	BX	n/a	n/a	dot_pattern_expectancy	-1.0	n/a	cue	BX	s553	False
149.684	0.5	150.028	1.5	BX	1.0	71.0	dot_pattern_expectancy	71.0	0.344	probe	BX	s553	False
151.185	0.5	151.184	0.5	AX	n/a	n/a	dot_pattern_expectancy	-1.0	n/a	cue	AX	s553	False
153.689	0.5	154.781	1.636	AX	1.0	89.0	dot_pattern_expectancy	89.0	1.092	probe	AX	s553	False
155.328	0.5	155.327	0.5	AX	n/a	n/a	dot_pattern_expectancy	-1.0	n/a	cue	AX	s553	False
157.831	0.5	158.246	1.636	AX	1.0	89.0	dot_pattern_expectancy	89.0	0.415	probe	AX	s553	False
159.468	0.5	159.467	0.5	BY	n/a	n/a	dot_pattern_expectancy	-1.0	n/a	cue	BY	s553	False
161.972	0.5	162.283	2.18	BY	1.0	71.0	dot_pattern_expectancy	71.0	0.311	probe	BY	s553	False
164.154	0.5	164.153	0.5	AX	n/a	n/a	dot_pattern_expectancy	-1.0	n/a	cue	AX	s553	False
166.658	0.5	167.092	1.5	AX	1.0	89.0	dot_pattern_expectancy	89.0	0.434	probe	AX	s553	False
168.159	0.5	168.158	0.5	AY	n/a	n/a	dot_pattern_expectancy	-1.0	n/a	cue	AY	s553	False
170.663	0.5	170.662	1.636	AY	0.0	71.0	dot_pattern_expectancy	-1.0	n/a	probe	AY	s553	False
172.301	0.5	172.3	0.5	AX	n/a	n/a	dot_pattern_expectancy	-1.0	n/a	cue	AX	s553	False
174.805	0.5	175.623	1.636	AX	1.0	89.0	dot_pattern_expectancy	89.0	0.818	probe	AX	s553	False
186.951	0.5	186.95	0.5	AX	n/a	n/a	dot_pattern_expectancy	-1.0	n/a	cue	AX	s553	False
189.457	0.5	190.19	2.18	AX	1.0	89.0	dot_pattern_expectancy	89.0	0.733	probe	AX	s553	False
191.639	0.5	191.638	0.5	AY	n/a	n/a	dot_pattern_expectancy	-1.0	n/a	cue	AY	s553	False
194.143	0.5	194.875	2.316	AY	1.0	71.0	dot_pattern_expectancy	71.0	0.732	probe	AY	s553	False
196.462	0.5	196.461	0.5	AY	n/a	n/a	dot_pattern_expectancy	-1.0	n/a	cue	AY	s553	False
198.965	0.5	199.598	1.636	AY	1.0	71.0	dot_pattern_expectancy	71.0	0.633	probe	AY	s553	False
200.603	0.5	200.602	0.5	BX	n/a	n/a	dot_pattern_expectancy	-1.0	n/a	cue	BX	s553	False
203.107	0.5	203.484	1.908	BX	1.0	71.0	dot_pattern_expectancy	71.0	0.377	probe	BX	s553	False
205.017	0.5	205.016	0.5	AX	n/a	n/a	dot_pattern_expectancy	-1.0	n/a	cue	AX	s553	False
207.521	0.5	208.01	3.54	AX	1.0	89.0	dot_pattern_expectancy	89.0	0.489	probe	AX	s553	False
211.064	0.5	211.063	0.5	BX	n/a	n/a	dot_pattern_expectancy	-1.0	n/a	cue	BX	s553	False
213.566	0.5	213.868	1.636	BX	1.0	71.0	dot_pattern_expectancy	71.0	0.302	probe	BX	s553	False
215.204	0.5	215.203	0.5	BY	n/a	n/a	dot_pattern_expectancy	-1.0	n/a	cue	BY	s553	False
217.708	0.5	217.989	1.5	BY	1.0	71.0	dot_pattern_expectancy	71.0	0.281	probe	BY	s553	False
219.209	0.5	219.208	0.5	AX	n/a	n/a	dot_pattern_expectancy	-1.0	n/a	cue	AX	s553	False
221.713	0.5	222.747	1.5	AX	1.0	89.0	dot_pattern_expectancy	89.0	1.034	probe	AX	s553	False
223.215	0.5	223.214	0.5	AX	n/a	n/a	dot_pattern_expectancy	-1.0	n/a	cue	AX	s553	False
225.719	0.5	226.213	1.772	AX	1.0	89.0	dot_pattern_expectancy	89.0	0.494	probe	AX	s553	False
227.492	0.5	227.491	0.5	BY	n/a	n/a	dot_pattern_expectancy	-1.0	n/a	cue	BY	s553	False
229.996	0.5	229.995	2.452	BY	0.0	71.0	dot_pattern_expectancy	-1.0	n/a	probe	BY	s553	False
232.451	0.5	232.45	0.5	AX	n/a	n/a	dot_pattern_expectancy	-1.0	n/a	cue	AX	s553	False
234.954	0.5	236.54	1.908	AX	1.0	89.0	dot_pattern_expectancy	89.0	1.586	probe	AX	s553	False
236.863	0.5	236.862	0.5	BX	n/a	n/a	dot_pattern_expectancy	-1.0	n/a	cue	BX	s553	False
239.367	0.5	239.8	1.636	BX	1.0	71.0	dot_pattern_expectancy	71.0	0.433	probe	BX	s553	False
241.005	0.5	241.004	0.5	AX	n/a	n/a	dot_pattern_expectancy	-1.0	n/a	cue	AX	s553	False
243.509	0.5	243.994	1.5	AX	1.0	89.0	dot_pattern_expectancy	89.0	0.485	probe	AX	s553	False
245.012	0.5	245.011	0.5	AX	n/a	n/a	dot_pattern_expectancy	-1.0	n/a	cue	AX	s553	False
247.514	0.5	248.342	1.636	AX	1.0	89.0	dot_pattern_expectancy	89.0	0.828	probe	AX	s553	False
249.151	0.5	249.15	0.5	AX	n/a	n/a	dot_pattern_expectancy	-1.0	n/a	cue	AX	s553	False
251.656	0.5	252.141	1.636	AX	1.0	89.0	dot_pattern_expectancy	89.0	0.485	probe	AX	s553	False
253.294	0.5	253.293	0.5	BY	n/a	n/a	dot_pattern_expectancy	-1.0	n/a	cue	BY	s553	False
255.797	0.5	256.172	2.452	BY	1.0	71.0	dot_pattern_expectancy	71.0	0.375	probe	BY	s553	False
258.251	0.5	258.25	0.5	AX	n/a	n/a	dot_pattern_expectancy	-1.0	n/a	cue	AX	s553	False
260.755	0.5	261.565	1.5	AX	1.0	89.0	dot_pattern_expectancy	89.0	0.81	probe	AX	s553	False
262.256	0.5	262.255	0.5	BY	n/a	n/a	dot_pattern_expectancy	-1.0	n/a	cue	BY	s553	False
264.761	0.5	264.76	1.5	BY	0.0	71.0	dot_pattern_expectancy	-1.0	n/a	probe	BY	s553	False
266.264	0.5	266.263	0.5	AX	n/a	n/a	dot_pattern_expectancy	-1.0	n/a	cue	AX	s553	False
268.768	0.5	269.34	1.636	AX	1.0	89.0	dot_pattern_expectancy	89.0	0.572	probe	AX	s553	False
270.406	0.5	270.405	0.5	AX	n/a	n/a	dot_pattern_expectancy	-1.0	n/a	cue	AX	s553	False
272.91	0.5	274.254	1.636	AX	1.0	89.0	dot_pattern_expectancy	89.0	1.344	probe	AX	s553	False
274.549	0.5	274.548	0.5	AY	n/a	n/a	dot_pattern_expectancy	-1.0	n/a	cue	AY	s553	False
277.051	0.5	277.777	1.636	AY	1.0	71.0	dot_pattern_expectancy	71.0	0.726	probe	AY	s553	False
278.689	0.5	278.688	0.5	AX	n/a	n/a	dot_pattern_expectancy	-1.0	n/a	cue	AX	s553	False
281.193	0.5	281.798	1.5	AX	1.0	89.0	dot_pattern_expectancy	89.0	0.605	probe	AX	s553	False
282.695	0.5	282.694	0.5	AX	n/a	n/a	dot_pattern_expectancy	-1.0	n/a	cue	AX	s553	False
285.2	0.5	286.227	1.5	AX	1.0	89.0	dot_pattern_expectancy	89.0	1.027	probe	AX	s553	False
286.702	0.5	286.701	0.5	AX	n/a	n/a	dot_pattern_expectancy	-1.0	n/a	cue	AX	s553	False
289.207	0.5	289.724	1.772	AX	1.0	89.0	dot_pattern_expectancy	89.0	0.517	probe	AX	s553	False
290.981	0.5	290.98	0.5	AX	n/a	n/a	dot_pattern_expectancy	-1.0	n/a	cue	AX	s553	False
293.485	0.5	293.982	2.18	AX	1.0	89.0	dot_pattern_expectancy	89.0	0.497	probe	AX	s553	False
295.668	0.5	295.667	0.5	BX	n/a	n/a	dot_pattern_expectancy	-1.0	n/a	cue	BX	s553	False
298.171	0.5	298.39	1.772	BX	1.0	71.0	dot_pattern_expectancy	71.0	0.219	probe	BX	s553	False
299.945	0.5	299.944	0.5	BY	n/a	n/a	dot_pattern_expectancy	-1.0	n/a	cue	BY	s553	False
302.451	0.5	302.789	1.5	BY	1.0	71.0	dot_pattern_expectancy	71.0	0.338	probe	BY	s553	False
303.953	0.5	303.952	0.5	AX	n/a	n/a	dot_pattern_expectancy	-1.0	n/a	cue	AX	s553	False
306.458	0.5	306.904	1.5	AX	1.0	89.0	dot_pattern_expectancy	89.0	0.446	probe	AX	s553	False
307.959	0.5	307.958	0.5	AX	n/a	n/a	dot_pattern_expectancy	-1.0	n/a	cue	AX	s553	False
310.463	0.5	311.168	1.636	AX	1.0	89.0	dot_pattern_expectancy	89.0	0.705	probe	AX	s553	False
312.102	0.5	312.101	0.5	AY	n/a	n/a	dot_pattern_expectancy	-1.0	n/a	cue	AY	s553	False
314.605	0.5	315.293	2.18	AY	0.0	71.0	dot_pattern_expectancy	89.0	0.688	probe	AY	s553	False
316.786	0.5	316.785	0.5	AY	n/a	n/a	dot_pattern_expectancy	-1.0	n/a	cue	AY	s553	False
319.29	0.5	320.163	2.316	AY	1.0	71.0	dot_pattern_expectancy	71.0	0.873	probe	AY	s553	False
321.608	0.5	321.607	0.5	BX	n/a	n/a	dot_pattern_expectancy	-1.0	n/a	cue	BX	s553	False
324.112	0.5	324.43	1.636	BX	1.0	71.0	dot_pattern_expectancy	71.0	0.318	probe	BX	s553	False
325.75	0.5	325.749	0.5	BX	n/a	n/a	dot_pattern_expectancy	-1.0	n/a	cue	BX	s553	False
328.253	0.5	328.563	2.18	BX	1.0	71.0	dot_pattern_expectancy	71.0	0.31	probe	BX	s553	False
330.435	0.5	330.434	0.5	AY	n/a	n/a	dot_pattern_expectancy	-1.0	n/a	cue	AY	s553	False
332.939	0.5	333.889	2.044	AY	1.0	71.0	dot_pattern_expectancy	71.0	0.95	probe	AY	s553	False
334.984	0.5	334.983	0.5	AX	n/a	n/a	dot_pattern_expectancy	-1.0	n/a	cue	AX	s553	False
337.488	0.5	338.5	1.772	AX	1.0	89.0	dot_pattern_expectancy	89.0	1.012	probe	AX	s553	False
339.262	0.5	339.261	0.5	AX	n/a	n/a	dot_pattern_expectancy	-1.0	n/a	cue	AX	s553	False
341.766	0.5	342.735	1.5	AX	1.0	89.0	dot_pattern_expectancy	89.0	0.969	probe	AX	s553	False
343.267	0.5	343.266	0.5	AX	n/a	n/a	dot_pattern_expectancy	-1.0	n/a	cue	AX	s553	False
345.771	0.5	346.944	2.18	AX	1.0	89.0	dot_pattern_expectancy	89.0	1.173	probe	AX	s553	False
347.953	0.5	347.952	0.5	AY	n/a	n/a	dot_pattern_expectancy	-1.0	n/a	cue	AY	s553	False
350.456	0.5	351.288	2.452	AY	1.0	71.0	dot_pattern_expectancy	71.0	0.832	probe	AY	s553	False
352.91	0.5	352.909	0.5	AX	n/a	n/a	dot_pattern_expectancy	-1.0	n/a	cue	AX	s553	False
355.415	0.5	355.935	1.636	AX	1.0	89.0	dot_pattern_expectancy	89.0	0.52	probe	AX	s553	False
357.053	0.5	357.052	0.5	AX	n/a	n/a	dot_pattern_expectancy	-1.0	n/a	cue	AX	s553	False
359.558	0.5	360.346	1.908	AX	1.0	89.0	dot_pattern_expectancy	89.0	0.788	probe	AX	s553	False
371.976	0.5	371.975	0.5	AX	n/a	n/a	dot_pattern_expectancy	-1.0	n/a	cue	AX	s553	False
374.48	0.5	375.538	1.772	AX	1.0	89.0	dot_pattern_expectancy	89.0	1.058	probe	AX	s553	False
376.254	0.5	376.253	0.5	AX	n/a	n/a	dot_pattern_expectancy	-1.0	n/a	cue	AX	s553	False
378.759	0.5	379.433	1.5	AX	1.0	89.0	dot_pattern_expectancy	89.0	0.674	probe	AX	s553	False
380.26	0.5	380.259	0.5	AY	n/a	n/a	dot_pattern_expectancy	-1.0	n/a	cue	AY	s553	False
382.764	0.5	383.304	2.452	AY	1.0	71.0	dot_pattern_expectancy	71.0	0.54	probe	AY	s553	False
385.219	0.5	385.218	0.5	AY	n/a	n/a	dot_pattern_expectancy	-1.0	n/a	cue	AY	s553	False
387.723	0.5	388.491	1.772	AY	1.0	71.0	dot_pattern_expectancy	71.0	0.768	probe	AY	s553	False
389.497	0.5	389.496	0.5	AX	n/a	n/a	dot_pattern_expectancy	-1.0	n/a	cue	AX	s553	False
392.001	0.5	392.998	1.908	AX	1.0	89.0	dot_pattern_expectancy	89.0	0.997	probe	AX	s553	False
393.911	0.5	393.91	0.5	AX	n/a	n/a	dot_pattern_expectancy	-1.0	n/a	cue	AX	s553	False
396.415	0.5	397.087	1.908	AX	1.0	89.0	dot_pattern_expectancy	89.0	0.672	probe	AX	s553	False
398.325	0.5	398.324	0.5	AX	n/a	n/a	dot_pattern_expectancy	-1.0	n/a	cue	AX	s553	False
400.829	0.5	401.633	2.588	AX	1.0	89.0	dot_pattern_expectancy	89.0	0.804	probe	AX	s553	False
403.419	0.5	403.418	0.5	AY	n/a	n/a	dot_pattern_expectancy	-1.0	n/a	cue	AY	s553	False
405.923	0.5	407.221	1.5	AY	1.0	71.0	dot_pattern_expectancy	71.0	1.298	probe	AY	s553	False
407.424	0.5	407.423	0.5	BY	n/a	n/a	dot_pattern_expectancy	-1.0	n/a	cue	BY	s553	False
409.928	0.5	410.252	1.5	BY	1.0	71.0	dot_pattern_expectancy	71.0	0.324	probe	BY	s553	False
411.429	0.5	411.428	0.5	BY	n/a	n/a	dot_pattern_expectancy	-1.0	n/a	cue	BY	s553	False
413.934	0.5	414.491	1.5	BY	1.0	71.0	dot_pattern_expectancy	71.0	0.557	probe	BY	s553	False
415.435	0.5	415.434	0.5	AX	n/a	n/a	dot_pattern_expectancy	-1.0	n/a	cue	AX	s553	False
417.939	0.5	418.742	1.636	AX	0.0	89.0	dot_pattern_expectancy	71.0	0.803	probe	AX	s553	False
419.578	0.5	419.577	0.5	BX	n/a	n/a	dot_pattern_expectancy	-1.0	n/a	cue	BX	s553	False
422.081	0.5	422.594	2.044	BX	1.0	71.0	dot_pattern_expectancy	71.0	0.513	probe	BX	s553	False
424.128	0.5	424.127	0.5	AX	n/a	n/a	dot_pattern_expectancy	-1.0	n/a	cue	AX	s553	False
426.631	0.5	427.887	1.772	AX	1.0	89.0	dot_pattern_expectancy	89.0	1.256	probe	AX	s553	False
428.406	0.5	428.405	0.5	BX	n/a	n/a	dot_pattern_expectancy	-1.0	n/a	cue	BX	s553	False
430.91	0.5	431.223	2.588	BX	1.0	71.0	dot_pattern_expectancy	71.0	0.313	probe	BX	s553	False
433.499	0.5	433.498	0.5	AY	n/a	n/a	dot_pattern_expectancy	-1.0	n/a	cue	AY	s553	False
436.004	0.5	436.003	1.5	AY	0.0	71.0	dot_pattern_expectancy	-1.0	n/a	probe	AY	s553	False
437.505	0.5	437.504	0.5	AX	n/a	n/a	dot_pattern_expectancy	-1.0	n/a	cue	AX	s553	False
440.01	0.5	440.67	2.452	AX	1.0	89.0	dot_pattern_expectancy	89.0	0.66	probe	AX	s553	False
442.464	0.5	442.463	0.5	BY	n/a	n/a	dot_pattern_expectancy	-1.0	n/a	cue	BY	s553	False
444.967	0.5	445.301	1.636	BY	1.0	71.0	dot_pattern_expectancy	71.0	0.334	probe	BY	s553	False
446.604	0.5	446.603	0.5	AX	n/a	n/a	dot_pattern_expectancy	-1.0	n/a	cue	AX	s553	False
449.107	0.5	449.705	1.636	AX	1.0	89.0	dot_pattern_expectancy	89.0	0.598	probe	AX	s553	False
450.746	0.5	450.745	0.5	AX	n/a	n/a	dot_pattern_expectancy	-1.0	n/a	cue	AX	s553	False
453.25	0.5	454.261	1.5	AX	1.0	89.0	dot_pattern_expectancy	89.0	1.011	probe	AX	s553	False
454.752	0.5	454.751	0.5	BY	n/a	n/a	dot_pattern_expectancy	-1.0	n/a	cue	BY	s553	False
457.255	0.5	457.552	1.636	BY	1.0	71.0	dot_pattern_expectancy	71.0	0.297	probe	BY	s553	False
458.893	0.5	458.892	0.5	AX	n/a	n/a	dot_pattern_expectancy	-1.0	n/a	cue	AX	s553	False
461.396	0.5	462.143	1.5	AX	1.0	89.0	dot_pattern_expectancy	89.0	0.747	probe	AX	s553	False
462.898	0.5	462.897	0.5	AY	n/a	n/a	dot_pattern_expectancy	-1.0	n/a	cue	AY	s553	False
465.402	0.5	466.753	2.18	AY	1.0	71.0	dot_pattern_expectancy	71.0	1.351	probe	AY	s553	False
467.585	0.5	467.584	0.5	AX	n/a	n/a	dot_pattern_expectancy	-1.0	n/a	cue	AX	s553	False
470.088	0.5	470.799	1.5	AX	1.0	89.0	dot_pattern_expectancy	89.0	0.711	probe	AX	s553	False
471.591	0.5	471.59	0.5	AX	n/a	n/a	dot_pattern_expectancy	-1.0	n/a	cue	AX	s553	False
474.094	0.5	474.927	1.908	AX	1.0	89.0	dot_pattern_expectancy	89.0	0.833	probe	AX	s553	False
476.005	0.5	476.004	0.5	BY	n/a	n/a	dot_pattern_expectancy	-1.0	n/a	cue	BY	s553	False
478.509	0.5	478.862	1.636	BY	1.0	71.0	dot_pattern_expectancy	71.0	0.353	probe	BY	s553	False
480.147	0.5	480.146	0.5	BY	n/a	n/a	dot_pattern_expectancy	-1.0	n/a	cue	BY	s553	False
482.651	0.5	483.056	1.636	BY	1.0	71.0	dot_pattern_expectancy	71.0	0.405	probe	BY	s553	False
484.29	0.5	484.289	0.5	AX	n/a	n/a	dot_pattern_expectancy	-1.0	n/a	cue	AX	s553	False
486.794	0.5	487.736	1.636	AX	1.0	89.0	dot_pattern_expectancy	89.0	0.942	probe	AX	s553	False
488.432	0.5	488.431	0.5	AX	n/a	n/a	dot_pattern_expectancy	-1.0	n/a	cue	AX	s553	False
490.936	0.5	491.908	1.5	AX	1.0	89.0	dot_pattern_expectancy	89.0	0.972	probe	AX	s553	False
492.438	0.5	492.437	0.5	BY	n/a	n/a	dot_pattern_expectancy	-1.0	n/a	cue	BY	s553	False
494.943	0.5	496.289	2.044	BY	1.0	71.0	dot_pattern_expectancy	71.0	1.346	probe	BY	s553	False
496.989	0.5	496.988	0.5	AY	n/a	n/a	dot_pattern_expectancy	-1.0	n/a	cue	AY	s553	False
499.491	0.5	501.139	2.18	AY	1.0	71.0	dot_pattern_expectancy	71.0	1.648	probe	AY	s553	False
501.673	0.5	501.672	0.5	AY	n/a	n/a	dot_pattern_expectancy	-1.0	n/a	cue	AY	s553	False
504.176	0.5	505.103	1.636	AY	1.0	71.0	dot_pattern_expectancy	71.0	0.927	probe	AY	s553	False
505.814	0.5	505.813	0.5	AY	n/a	n/a	dot_pattern_expectancy	-1.0	n/a	cue	AY	s553	False
508.319	0.5	509.302	1.772	AY	1.0	71.0	dot_pattern_expectancy	71.0	0.983	probe	AY	s553	False
510.093	0.5	510.092	0.5	BY	n/a	n/a	dot_pattern_expectancy	-1.0	n/a	cue	BY	s553	False
512.597	0.5	513.139	1.5	BY	1.0	71.0	dot_pattern_expectancy	71.0	0.542	probe	BY	s553	False
514.099	0.5	514.098	0.5	BX	n/a	n/a	dot_pattern_expectancy	-1.0	n/a	cue	BX	s553	False
516.604	0.5	517.773	1.908	BX	1.0	71.0	dot_pattern_expectancy	71.0	1.169	probe	BX	s553	False
518.514	0.5	518.513	0.5	AX	n/a	n/a	dot_pattern_expectancy	-1.0	n/a	cue	AX	s553	False
521.018	0.5	521.621	2.044	AX	1.0	89.0	dot_pattern_expectancy	89.0	0.603	probe	AX	s553	False
523.064	0.5	523.063	0.5	AX	n/a	n/a	dot_pattern_expectancy	-1.0	n/a	cue	AX	s553	False
525.567	0.5	526.31	1.636	AX	1.0	89.0	dot_pattern_expectancy	89.0	0.743	probe	AX	s553	False
527.204	0.5	527.203	0.5	AX	n/a	n/a	dot_pattern_expectancy	-1.0	n/a	cue	AX	s553	False
529.708	0.5	530.405	1.772	AX	1.0	89.0	dot_pattern_expectancy	89.0	0.697	probe	AX	s553	False
531.482	0.5	531.481	0.5	AX	n/a	n/a	dot_pattern_expectancy	-1.0	n/a	cue	AX	s553	False
533.986	0.5	534.707	1.636	AX	1.0	89.0	dot_pattern_expectancy	89.0	0.721	probe	AX	s553	False
535.624	0.5	535.623	0.5	BX	n/a	n/a	dot_pattern_expectancy	-1.0	n/a	cue	BX	s553	False
538.128	0.5	538.485	1.772	BX	1.0	71.0	dot_pattern_expectancy	71.0	0.357	probe	BX	s553	False
539.902	0.5	539.901	0.5	AX	n/a	n/a	dot_pattern_expectancy	-1.0	n/a	cue	AX	s553	False
542.407	0.5	542.882	1.5	AX	1.0	89.0	dot_pattern_expectancy	89.0	0.475	probe	AX	s553	False
554.416	0.5	554.415	0.5	BY	n/a	n/a	dot_pattern_expectancy	-1.0	n/a	cue	BY	s553	False
556.919	0.5	558.139	1.636	BY	1.0	71.0	dot_pattern_expectancy	71.0	1.22	probe	BY	s553	False
558.557	0.5	558.556	0.5	AY	n/a	n/a	dot_pattern_expectancy	-1.0	n/a	cue	AY	s553	False
561.062	0.5	561.607	1.5	AY	1.0	71.0	dot_pattern_expectancy	71.0	0.545	probe	AY	s553	False
562.563	0.5	562.562	0.5	AX	n/a	n/a	dot_pattern_expectancy	-1.0	n/a	cue	AX	s553	False
565.068	0.5	565.722	2.044	AX	1.0	89.0	dot_pattern_expectancy	89.0	0.654	probe	AX	s553	False
567.115	0.5	567.114	0.5	BY	n/a	n/a	dot_pattern_expectancy	-1.0	n/a	cue	BY	s553	False
569.619	0.5	569.949	1.772	BY	1.0	71.0	dot_pattern_expectancy	71.0	0.33	probe	BY	s553	False
571.393	0.5	571.392	0.5	BX	n/a	n/a	dot_pattern_expectancy	-1.0	n/a	cue	BX	s553	False
573.896	0.5	574.246	1.636	BX	1.0	71.0	dot_pattern_expectancy	71.0	0.35	probe	BX	s553	False
575.535	0.5	575.534	0.5	AX	n/a	n/a	dot_pattern_expectancy	-1.0	n/a	cue	AX	s553	False
578.038	0.5	578.958	1.636	AX	1.0	89.0	dot_pattern_expectancy	89.0	0.92	probe	AX	s553	False
579.676	0.5	579.675	0.5	AX	n/a	n/a	dot_pattern_expectancy	-1.0	n/a	cue	AX	s553	False
582.18	0.5	582.807	1.5	AX	1.0	89.0	dot_pattern_expectancy	89.0	0.627	probe	AX	s553	False
583.681	0.5	583.68	0.5	AX	n/a	n/a	dot_pattern_expectancy	-1.0	n/a	cue	AX	s553	False
586.184	0.5	586.749	1.5	AX	1.0	89.0	dot_pattern_expectancy	89.0	0.565	probe	AX	s553	False
587.687	0.5	587.686	0.5	AY	n/a	n/a	dot_pattern_expectancy	-1.0	n/a	cue	AY	s553	False
590.19	0.5	590.743	2.044	AY	1.0	71.0	dot_pattern_expectancy	71.0	0.553	probe	AY	s553	False
592.236	0.5	592.235	0.5	AX	n/a	n/a	dot_pattern_expectancy	-1.0	n/a	cue	AX	s553	False
594.74	0.5	595.661	2.452	AX	1.0	89.0	dot_pattern_expectancy	89.0	0.921	probe	AX	s553	False
597.195	0.5	597.194	0.5	AX	n/a	n/a	dot_pattern_expectancy	-1.0	n/a	cue	AX	s553	False
599.697	0.5	600.834	1.908	AX	1.0	89.0	dot_pattern_expectancy	89.0	1.137	probe	AX	s553	False
601.607	0.5	601.606	0.5	AX	n/a	n/a	dot_pattern_expectancy	-1.0	n/a	cue	AX	s553	False
604.111	0.5	604.873	1.5	AX	1.0	89.0	dot_pattern_expectancy	89.0	0.762	probe	AX	s553	False
605.613	0.5	605.612	0.5	AX	n/a	n/a	dot_pattern_expectancy	-1.0	n/a	cue	AX	s553	False
608.117	0.5	609.839	1.908	AX	1.0	89.0	dot_pattern_expectancy	89.0	1.722	probe	AX	s553	False
610.026	0.5	610.025	0.5	BX	n/a	n/a	dot_pattern_expectancy	-1.0	n/a	cue	BX	s553	False
612.53	0.5	613.054	2.18	BX	1.0	71.0	dot_pattern_expectancy	71.0	0.524	probe	BX	s553	False
614.711	0.5	614.71	0.5	AX	n/a	n/a	dot_pattern_expectancy	-1.0	n/a	cue	AX	s553	False
617.215	0.5	618.294	1.5	AX	1.0	89.0	dot_pattern_expectancy	89.0	1.079	probe	AX	s553	False
618.717	0.5	618.716	0.5	BY	n/a	n/a	dot_pattern_expectancy	-1.0	n/a	cue	BY	s553	False
621.221	0.5	621.22	1.908	BY	0.0	71.0	dot_pattern_expectancy	-1.0	n/a	probe	BY	s553	False
623.132	0.5	623.131	0.5	BX	n/a	n/a	dot_pattern_expectancy	-1.0	n/a	cue	BX	s553	False
625.635	0.5	625.634	2.316	BX	0.0	71.0	dot_pattern_expectancy	-1.0	n/a	probe	BX	s553	False
627.954	0.5	627.953	0.5	AY	n/a	n/a	dot_pattern_expectancy	-1.0	n/a	cue	AY	s553	False
630.458	0.5	631.222	2.316	AY	1.0	71.0	dot_pattern_expectancy	71.0	0.764	probe	AY	s553	False
632.776	0.5	632.775	0.5	BX	n/a	n/a	dot_pattern_expectancy	-1.0	n/a	cue	BX	s553	False
635.281	0.5	635.838	1.636	BX	1.0	71.0	dot_pattern_expectancy	71.0	0.557	probe	BX	s553	False
636.92	0.5	636.919	0.5	AY	n/a	n/a	dot_pattern_expectancy	-1.0	n/a	cue	AY	s553	False
639.424	0.5	639.423	1.5	AY	0.0	71.0	dot_pattern_expectancy	-1.0	n/a	probe	AY	s553	False
640.926	0.5	640.925	0.5	BY	n/a	n/a	dot_pattern_expectancy	-1.0	n/a	cue	BY	s553	False
643.43	0.5	643.429	1.908	BY	0.0	71.0	dot_pattern_expectancy	-1.0	n/a	probe	BY	s553	False
645.34	0.5	645.339	0.5	AX	n/a	n/a	dot_pattern_expectancy	-1.0	n/a	cue	AX	s553	False
647.844	0.5	648.821	1.5	AX	1.0	89.0	dot_pattern_expectancy	89.0	0.977	probe	AX	s553	False
649.347	0.5	649.346	0.5	AY	n/a	n/a	dot_pattern_expectancy	-1.0	n/a	cue	AY	s553	False
651.851	0.5	653.005	2.316	AY	1.0	71.0	dot_pattern_expectancy	71.0	1.154	probe	AY	s553	False
654.169	0.5	654.168	0.5	AX	n/a	n/a	dot_pattern_expectancy	-1.0	n/a	cue	AX	s553	False
656.673	0.5	657.616	1.5	AX	0.0	89.0	dot_pattern_expectancy	71.0	0.943	probe	AX	s553	False
658.174	0.5	658.173	0.5	AY	n/a	n/a	dot_pattern_expectancy	-1.0	n/a	cue	AY	s553	False
660.678	0.5	662.559	2.724	AY	1.0	71.0	dot_pattern_expectancy	71.0	1.881	probe	AY	s553	False
663.405	0.5	663.404	0.5	AX	n/a	n/a	dot_pattern_expectancy	-1.0	n/a	cue	AX	s553	False
665.909	0.5	666.863	1.5	AX	1.0	89.0	dot_pattern_expectancy	89.0	0.954	probe	AX	s553	False
667.411	0.5	667.41	0.5	AX	n/a	n/a	dot_pattern_expectancy	-1.0	n/a	cue	AX	s553	False
669.916	0.5	670.9	1.636	AX	1.0	89.0	dot_pattern_expectancy	89.0	0.984	probe	AX	s553	False
671.554	0.5	671.553	0.5	AX	n/a	n/a	dot_pattern_expectancy	-1.0	n/a	cue	AX	s553	False
674.058	0.5	675.026	1.636	AX	1.0	89.0	dot_pattern_expectancy	89.0	0.968	probe	AX	s553	False
675.695	0.5	675.694	0.5	AX	n/a	n/a	dot_pattern_expectancy	-1.0	n/a	cue	AX	s553	False
678.199	0.5	679.023	1.772	AX	1.0	89.0	dot_pattern_expectancy	89.0	0.824	probe	AX	s553	False
679.973	0.5	679.972	0.5	BY	n/a	n/a	dot_pattern_expectancy	-1.0	n/a	cue	BY	s553	False
682.477	0.5	683.138	1.772	BY	1.0	71.0	dot_pattern_expectancy	71.0	0.661	probe	BY	s553	False
684.25	0.5	684.249	0.5	AX	n/a	n/a	dot_pattern_expectancy	-1.0	n/a	cue	AX	s553	False
686.754	0.5	687.692	1.5	AX	0.0	89.0	dot_pattern_expectancy	71.0	0.938	probe	AX	s553	False
688.255	0.5	688.254	0.5	BY	n/a	n/a	dot_pattern_expectancy	-1.0	n/a	cue	BY	s553	False
690.76	0.5	691.312	2.452	BY	1.0	71.0	dot_pattern_expectancy	71.0	0.552	probe	BY	s553	False
693.214	0.5	693.213	0.5	AX	n/a	n/a	dot_pattern_expectancy	-1.0	n/a	cue	AX	s553	False
695.717	0.5	695.716	1.636	AX	0.0	89.0	dot_pattern_expectancy	-1.0	n/a	probe	AX	s553	False
697.354	0.5	697.353	0.5	AX	n/a	n/a	dot_pattern_expectancy	-1.0	n/a	cue	AX	s553	False
699.859	0.5	700.645	1.636	AX	1.0	89.0	dot_pattern_expectancy	89.0	0.786	probe	AX	s553	False
701.497	0.5	701.496	0.5	BX	n/a	n/a	dot_pattern_expectancy	-1.0	n/a	cue	BX	s553	False
704.001	0.5	704.43	1.5	BX	1.0	71.0	dot_pattern_expectancy	71.0	0.429	probe	BX	s553	False
705.504	0.5	705.503	0.5	BX	n/a	n/a	dot_pattern_expectancy	-1.0	n/a	cue	BX	s553	False
708.008	0.5	708.603	1.5	BX	1.0	71.0	dot_pattern_expectancy	71.0	0.595	probe	BX	s553	False
709.51	0.5	709.509	0.5	AX	n/a	n/a	dot_pattern_expectancy	-1.0	n/a	cue	AX	s553	False
712.015	0.5	713.108	2.316	AX	0.0	89.0	dot_pattern_expectancy	71.0	1.093	probe	AX	s553	False
714.333	0.5	714.332	0.5	AY	n/a	n/a	dot_pattern_expectancy	-1.0	n/a	cue	AY	s553	False
716.837	0.5	718.15	2.044	AY	1.0	71.0	dot_pattern_expectancy	71.0	1.313	probe	AY	s553	False
718.883	0.5	718.882	0.5	AX	n/a	n/a	dot_pattern_expectancy	-1.0	n/a	cue	AX	s553	False
721.388	0.5	722.263	3.948	AX	1.0	89.0	dot_pattern_expectancy	89.0	0.875	probe	AX	s553	False
725.339	0.5	725.338	0.5	AX	n/a	n/a	dot_pattern_expectancy	-1.0	n/a	cue	AX	s553	False
727.843	0.5	728.683	1.636	AX	1.0	89.0	dot_pattern_expectancy	89.0	0.84	probe	AX	s553	False
