duration	onset	block_duration	movement_onset	planning	condition	exp_stage	experiment_exp_id	key_press	problem_id	response_time	trial_id	trial_type	worker_id	junk
6.099	3.013	6.099	9.112	1	UA_with_intermediate	practice	ward_and_allport	71	0.0	6.099	to_hand	poldrack-single-stim	s553	False
0.1	9.113	1.435	10.548	0	UA_with_intermediate	practice	ward_and_allport	89	0.0	1.435	to_board	poldrack-single-stim	s553	False
0.1	10.551	1.635	12.186	0	UA_with_intermediate	practice	ward_and_allport	89	0.0	1.635	to_hand	poldrack-single-stim	s553	False
0.1	12.187	1.594	13.781	0	UA_with_intermediate	practice	ward_and_allport	82	0.0	1.594	to_board	poldrack-single-stim	s553	False
0.1	13.783	1.543	15.326	0	UA_with_intermediate	practice	ward_and_allport	71	0.0	1.543	to_hand	poldrack-single-stim	s553	False
0.1	15.326	0.849	16.175	0	UA_with_intermediate	practice	ward_and_allport	89	0.0	0.849	to_board	poldrack-single-stim	s553	False
0.1	16.177	2.105	18.282	0	UA_with_intermediate	practice	ward_and_allport	82	0.0	2.105	to_hand	poldrack-single-stim	s553	False
0.1	18.282	1.029	19.311	0	UA_with_intermediate	practice	ward_and_allport	89	0.0	1.029	to_board	poldrack-single-stim	s553	False
1.0	19.317	2.5	19.316	0	UA_with_intermediate	practice	ward_and_allport	-1	0.0	n/a	feedback	poldrack-single-stim	s553	False
3.821	21.82	3.821	25.641	1	UA_with_intermediate	practice	ward_and_allport	89	1.0	3.821	to_hand	poldrack-single-stim	s553	False
0.1	25.641	1.1	26.741	0	UA_with_intermediate	practice	ward_and_allport	82	1.0	1.1	to_board	poldrack-single-stim	s553	False
0.1	26.742	1.013	27.755	0	UA_with_intermediate	practice	ward_and_allport	71	1.0	1.013	to_hand	poldrack-single-stim	s553	False
0.1	27.756	0.512	28.268	0	UA_with_intermediate	practice	ward_and_allport	89	1.0	0.512	to_board	poldrack-single-stim	s553	False
0.1	28.27	1.001	29.271	0	UA_with_intermediate	practice	ward_and_allport	82	1.0	1.001	to_hand	poldrack-single-stim	s553	False
0.1	29.272	0.503	29.775	0	UA_with_intermediate	practice	ward_and_allport	89	1.0	0.503	to_board	poldrack-single-stim	s553	False
1.0	29.781	2.1	29.78	0	UA_with_intermediate	practice	ward_and_allport	-1	1.0	n/a	feedback	poldrack-single-stim	s553	False
2.494	31.883	2.494	34.377	1	UA_without_intermediate	practice	ward_and_allport	82	2.0	2.494	to_hand	poldrack-single-stim	s553	False
0.1	34.379	1.641	36.02	0	UA_without_intermediate	practice	ward_and_allport	89	2.0	1.641	to_board	poldrack-single-stim	s553	False
0.1	36.023	1.124	37.147	0	UA_without_intermediate	practice	ward_and_allport	71	2.0	1.124	to_hand	poldrack-single-stim	s553	False
0.1	37.147	0.905	38.052	0	UA_without_intermediate	practice	ward_and_allport	89	2.0	0.905	to_board	poldrack-single-stim	s553	False
0.1	38.055	0.57	38.625	0	UA_without_intermediate	practice	ward_and_allport	71	2.0	0.57	to_hand	poldrack-single-stim	s553	False
0.1	38.626	0.463	39.089	0	UA_without_intermediate	practice	ward_and_allport	89	2.0	0.463	to_board	poldrack-single-stim	s553	False
1.0	39.095	2.2	39.094	0	UA_without_intermediate	practice	ward_and_allport	-1	2.0	n/a	feedback	poldrack-single-stim	s553	False
2.138	41.297	2.138	43.435	1	UA_without_intermediate	practice	ward_and_allport	71	3.0	2.138	to_hand	poldrack-single-stim	s553	False
0.1	43.437	0.87	44.307	0	UA_without_intermediate	practice	ward_and_allport	89	3.0	0.87	to_board	poldrack-single-stim	s553	False
0.1	44.31	1.33	45.64	0	UA_without_intermediate	practice	ward_and_allport	71	3.0	1.33	to_hand	poldrack-single-stim	s553	False
0.1	45.641	3.501	49.142	0	UA_without_intermediate	practice	ward_and_allport	71	3.0	3.501	to_board	poldrack-single-stim	s553	False
0.1	49.144	0.584	49.728	0	UA_without_intermediate	practice	ward_and_allport	82	3.0	0.584	to_hand	poldrack-single-stim	s553	False
0.1	49.728	0.553	50.281	0	UA_without_intermediate	practice	ward_and_allport	89	3.0	0.553	to_board	poldrack-single-stim	s553	False
0.1	50.283	0.6	50.883	0	UA_without_intermediate	practice	ward_and_allport	71	3.0	0.6	to_hand	poldrack-single-stim	s553	False
0.1	50.885	0.415	51.3	0	UA_without_intermediate	practice	ward_and_allport	89	3.0	0.415	to_board	poldrack-single-stim	s553	False
1.0	51.306	2.0	51.305	0	UA_without_intermediate	practice	ward_and_allport	-1	3.0	n/a	feedback	poldrack-single-stim	s553	False
6.754	55.312	6.754	62.066	1	PA_with_intermediate	test	ward_and_allport	82	0.0	6.754	to_hand	poldrack-single-stim	s553	False
0.1	62.067	1.183	63.25	0	PA_with_intermediate	test	ward_and_allport	71	0.0	1.183	to_board	poldrack-single-stim	s553	False
0.1	63.252	2.83	66.082	0	PA_with_intermediate	test	ward_and_allport	82	0.0	2.83	to_hand	poldrack-single-stim	s553	False
0.1	66.083	1.132	67.215	0	PA_with_intermediate	test	ward_and_allport	89	0.0	1.132	to_board	poldrack-single-stim	s553	False
0.1	67.218	0.93	68.148	0	PA_with_intermediate	test	ward_and_allport	71	0.0	0.93	to_hand	poldrack-single-stim	s553	False
0.1	68.149	1.707	69.856	0	PA_with_intermediate	test	ward_and_allport	89	0.0	1.707	to_board	poldrack-single-stim	s553	False
1.0	69.859	3.768	69.858	0	PA_with_intermediate	test	ward_and_allport	-1	0.0	n/a	feedback	poldrack-single-stim	s553	False
3.964	73.629	3.964	77.593	1	PA_with_intermediate	test	ward_and_allport	89	1.0	3.964	to_hand	poldrack-single-stim	s553	False
0.1	77.594	1.074	78.668	0	PA_with_intermediate	test	ward_and_allport	71	1.0	1.074	to_board	poldrack-single-stim	s553	False
0.1	78.67	0.834	79.504	0	PA_with_intermediate	test	ward_and_allport	89	1.0	0.834	to_hand	poldrack-single-stim	s553	False
0.1	79.505	1.569	81.074	0	PA_with_intermediate	test	ward_and_allport	82	1.0	1.569	to_board	poldrack-single-stim	s553	False
0.1	81.077	0.864	81.941	0	PA_with_intermediate	test	ward_and_allport	71	1.0	0.864	to_hand	poldrack-single-stim	s553	False
0.1	81.942	0.598	82.54	0	PA_with_intermediate	test	ward_and_allport	82	1.0	0.598	to_board	poldrack-single-stim	s553	False
1.0	82.547	2.68	82.546	0	PA_with_intermediate	test	ward_and_allport	-1	1.0	n/a	feedback	poldrack-single-stim	s553	False
2.441	85.23	2.441	87.671	1	PA_without_intermediate	test	ward_and_allport	71	2.0	2.441	to_hand	poldrack-single-stim	s553	False
0.1	87.671	1.345	89.016	0	PA_without_intermediate	test	ward_and_allport	82	2.0	1.345	to_board	poldrack-single-stim	s553	False
0.1	89.018	1.124	90.142	0	PA_without_intermediate	test	ward_and_allport	71	2.0	1.124	to_hand	poldrack-single-stim	s553	False
0.1	90.143	1.197	91.34	0	PA_without_intermediate	test	ward_and_allport	89	2.0	1.197	to_board	poldrack-single-stim	s553	False
0.1	91.342	0.655	91.997	0	PA_without_intermediate	test	ward_and_allport	71	2.0	0.655	to_hand	poldrack-single-stim	s553	False
0.1	91.999	0.591	92.59	0	PA_without_intermediate	test	ward_and_allport	82	2.0	0.591	to_board	poldrack-single-stim	s553	False
1.0	92.595	3.224	92.594	0	PA_without_intermediate	test	ward_and_allport	-1	2.0	n/a	feedback	poldrack-single-stim	s553	False
3.48	95.822	3.48	99.302	1	PA_without_intermediate	test	ward_and_allport	89	3.0	3.48	to_hand	poldrack-single-stim	s553	False
0.1	99.303	0.593	99.896	0	PA_without_intermediate	test	ward_and_allport	71	3.0	0.593	to_board	poldrack-single-stim	s553	False
0.1	99.898	1.405	101.303	0	PA_without_intermediate	test	ward_and_allport	89	3.0	1.405	to_hand	poldrack-single-stim	s553	False
0.1	101.303	1.003	102.306	0	PA_without_intermediate	test	ward_and_allport	71	3.0	1.003	to_board	poldrack-single-stim	s553	False
0.1	102.308	0.961	103.269	0	PA_without_intermediate	test	ward_and_allport	89	3.0	0.961	to_hand	poldrack-single-stim	s553	False
0.1	103.27	0.935	104.205	0	PA_without_intermediate	test	ward_and_allport	82	3.0	0.935	to_board	poldrack-single-stim	s553	False
1.0	104.209	3.36	104.208	0	PA_without_intermediate	test	ward_and_allport	-1	3.0	n/a	feedback	poldrack-single-stim	s553	False
2.418	107.572	2.418	109.99	1	PA_without_intermediate	test	ward_and_allport	71	4.0	2.418	to_hand	poldrack-single-stim	s553	False
0.1	109.991	0.527	110.518	0	PA_without_intermediate	test	ward_and_allport	89	4.0	0.527	to_board	poldrack-single-stim	s553	False
0.1	110.52	0.795	111.315	0	PA_without_intermediate	test	ward_and_allport	71	4.0	0.795	to_hand	poldrack-single-stim	s553	False
0.1	111.317	0.524	111.841	0	PA_without_intermediate	test	ward_and_allport	89	4.0	0.524	to_board	poldrack-single-stim	s553	False
0.1	111.844	1.183	113.027	0	PA_without_intermediate	test	ward_and_allport	71	4.0	1.183	to_hand	poldrack-single-stim	s553	False
0.1	113.028	1.027	114.055	0	PA_without_intermediate	test	ward_and_allport	82	4.0	1.027	to_board	poldrack-single-stim	s553	False
1.0	114.06	2.0	114.059	0	PA_without_intermediate	test	ward_and_allport	-1	4.0	n/a	feedback	poldrack-single-stim	s553	False
1.769	116.064	1.769	117.833	1	PA_without_intermediate	test	ward_and_allport	71	5.0	1.769	to_hand	poldrack-single-stim	s553	False
0.1	117.833	0.795	118.628	0	PA_without_intermediate	test	ward_and_allport	89	5.0	0.795	to_board	poldrack-single-stim	s553	False
0.1	118.632	0.7	119.332	0	PA_without_intermediate	test	ward_and_allport	71	5.0	0.7	to_hand	poldrack-single-stim	s553	False
0.1	119.333	0.789	120.122	0	PA_without_intermediate	test	ward_and_allport	89	5.0	0.789	to_board	poldrack-single-stim	s553	False
0.1	120.125	0.655	120.78	0	PA_without_intermediate	test	ward_and_allport	71	5.0	0.655	to_hand	poldrack-single-stim	s553	False
0.1	120.781	0.779	121.56	0	PA_without_intermediate	test	ward_and_allport	82	5.0	0.779	to_board	poldrack-single-stim	s553	False
1.0	121.567	2.408	121.566	0	PA_without_intermediate	test	ward_and_allport	-1	5.0	n/a	feedback	poldrack-single-stim	s553	False
2.599	123.978	2.599	126.577	1	PA_with_intermediate	test	ward_and_allport	89	6.0	2.599	to_hand	poldrack-single-stim	s553	False
0.1	126.578	0.768	127.346	0	PA_with_intermediate	test	ward_and_allport	71	6.0	0.768	to_board	poldrack-single-stim	s553	False
0.1	127.349	0.603	127.952	0	PA_with_intermediate	test	ward_and_allport	89	6.0	0.603	to_hand	poldrack-single-stim	s553	False
0.1	127.952	0.797	128.749	0	PA_with_intermediate	test	ward_and_allport	82	6.0	0.797	to_board	poldrack-single-stim	s553	False
0.1	128.753	0.551	129.304	0	PA_with_intermediate	test	ward_and_allport	71	6.0	0.551	to_hand	poldrack-single-stim	s553	False
0.1	129.305	0.594	129.899	0	PA_with_intermediate	test	ward_and_allport	82	6.0	0.594	to_board	poldrack-single-stim	s553	False
1.0	129.903	2.136	129.902	0	PA_with_intermediate	test	ward_and_allport	-1	6.0	n/a	feedback	poldrack-single-stim	s553	False
3.344	132.042	3.344	135.386	1	PA_without_intermediate	test	ward_and_allport	82	7.0	3.344	to_hand	poldrack-single-stim	s553	False
0.1	135.387	0.739	136.126	0	PA_without_intermediate	test	ward_and_allport	71	7.0	0.739	to_board	poldrack-single-stim	s553	False
0.1	136.129	1.626	137.755	0	PA_without_intermediate	test	ward_and_allport	82	7.0	1.626	to_hand	poldrack-single-stim	s553	False
0.1	137.756	0.865	138.621	0	PA_without_intermediate	test	ward_and_allport	71	7.0	0.865	to_board	poldrack-single-stim	s553	False
0.1	138.624	0.843	139.467	0	PA_without_intermediate	test	ward_and_allport	82	7.0	0.843	to_hand	poldrack-single-stim	s553	False
0.1	139.468	0.478	139.946	0	PA_without_intermediate	test	ward_and_allport	89	7.0	0.478	to_board	poldrack-single-stim	s553	False
1.0	139.952	5.128	139.951	0	PA_without_intermediate	test	ward_and_allport	-1	7.0	n/a	feedback	poldrack-single-stim	s553	False
5.661	145.083	5.661	150.744	1	PA_without_intermediate	test	ward_and_allport	82	8.0	5.661	to_hand	poldrack-single-stim	s553	False
0.1	150.745	1.433	152.178	0	PA_without_intermediate	test	ward_and_allport	71	8.0	1.433	to_board	poldrack-single-stim	s553	False
0.1	152.182	0.862	153.044	0	PA_without_intermediate	test	ward_and_allport	82	8.0	0.862	to_hand	poldrack-single-stim	s553	False
0.1	153.045	0.63	153.675	0	PA_without_intermediate	test	ward_and_allport	89	8.0	0.63	to_board	poldrack-single-stim	s553	False
0.1	153.677	0.874	154.551	0	PA_without_intermediate	test	ward_and_allport	82	8.0	0.874	to_hand	poldrack-single-stim	s553	False
0.1	154.553	0.598	155.151	0	PA_without_intermediate	test	ward_and_allport	71	8.0	0.598	to_board	poldrack-single-stim	s553	False
1.0	155.156	2.136	155.155	0	PA_without_intermediate	test	ward_and_allport	-1	8.0	n/a	feedback	poldrack-single-stim	s553	False
3.032	157.295	3.032	160.327	1	PA_without_intermediate	test	ward_and_allport	82	9.0	3.032	to_hand	poldrack-single-stim	s553	False
0.1	160.329	0.815	161.144	0	PA_without_intermediate	test	ward_and_allport	89	9.0	0.815	to_board	poldrack-single-stim	s553	False
0.1	161.146	0.61	161.756	0	PA_without_intermediate	test	ward_and_allport	82	9.0	0.61	to_hand	poldrack-single-stim	s553	False
0.1	161.758	0.54	162.298	0	PA_without_intermediate	test	ward_and_allport	89	9.0	0.54	to_board	poldrack-single-stim	s553	False
0.1	162.301	1.696	163.997	0	PA_without_intermediate	test	ward_and_allport	82	9.0	1.696	to_hand	poldrack-single-stim	s553	False
0.1	163.998	0.558	164.556	0	PA_without_intermediate	test	ward_and_allport	71	9.0	0.558	to_board	poldrack-single-stim	s553	False
1.0	164.564	5.264	164.563	0	PA_without_intermediate	test	ward_and_allport	-1	9.0	n/a	feedback	poldrack-single-stim	s553	False
5.056	169.833	5.056	174.889	1	PA_with_intermediate	test	ward_and_allport	71	10.0	5.056	to_hand	poldrack-single-stim	s553	False
0.1	174.89	0.512	175.402	0	PA_with_intermediate	test	ward_and_allport	89	10.0	0.512	to_board	poldrack-single-stim	s553	False
0.1	175.405	1.812	177.217	0	PA_with_intermediate	test	ward_and_allport	71	10.0	1.812	to_hand	poldrack-single-stim	s553	False
0.1	177.219	0.616	177.835	0	PA_with_intermediate	test	ward_and_allport	82	10.0	0.616	to_board	poldrack-single-stim	s553	False
0.1	177.841	0.92	178.761	0	PA_with_intermediate	test	ward_and_allport	89	10.0	0.92	to_hand	poldrack-single-stim	s553	False
0.1	178.763	0.725	179.488	0	PA_with_intermediate	test	ward_and_allport	82	10.0	0.725	to_board	poldrack-single-stim	s553	False
1.0	179.494	4.04	179.493	0	PA_with_intermediate	test	ward_and_allport	-1	10.0	n/a	feedback	poldrack-single-stim	s553	False
3.074	183.539	3.074	186.613	1	PA_with_intermediate	test	ward_and_allport	71	11.0	3.074	to_hand	poldrack-single-stim	s553	False
0.1	186.615	0.527	187.142	0	PA_with_intermediate	test	ward_and_allport	82	11.0	0.527	to_board	poldrack-single-stim	s553	False
0.1	187.147	0.995	188.142	0	PA_with_intermediate	test	ward_and_allport	71	11.0	0.995	to_hand	poldrack-single-stim	s553	False
0.1	188.143	0.382	188.525	0	PA_with_intermediate	test	ward_and_allport	89	11.0	0.382	to_board	poldrack-single-stim	s553	False
0.1	188.53	0.906	189.436	0	PA_with_intermediate	test	ward_and_allport	82	11.0	0.906	to_hand	poldrack-single-stim	s553	False
0.1	189.437	0.507	189.944	0	PA_with_intermediate	test	ward_and_allport	89	11.0	0.507	to_board	poldrack-single-stim	s553	False
1.0	189.952	2.136	189.951	0	PA_with_intermediate	test	ward_and_allport	-1	11.0	n/a	feedback	poldrack-single-stim	s553	False
5.28	192.093	5.28	197.373	1	PA_with_intermediate	test	ward_and_allport	82	12.0	5.28	to_hand	poldrack-single-stim	s553	False
0.1	197.374	2.621	199.995	0	PA_with_intermediate	test	ward_and_allport	71	12.0	2.621	to_board	poldrack-single-stim	s553	False
0.1	199.999	0.658	200.657	0	PA_with_intermediate	test	ward_and_allport	82	12.0	0.658	to_hand	poldrack-single-stim	s553	False
0.1	200.658	1.641	202.299	0	PA_with_intermediate	test	ward_and_allport	89	12.0	1.641	to_board	poldrack-single-stim	s553	False
0.1	202.303	0.658	202.961	0	PA_with_intermediate	test	ward_and_allport	71	12.0	0.658	to_hand	poldrack-single-stim	s553	False
0.1	202.963	0.552	203.515	0	PA_with_intermediate	test	ward_and_allport	82	12.0	0.552	to_board	poldrack-single-stim	s553	False
0.1	203.52	1.211	204.731	0	PA_with_intermediate	test	ward_and_allport	89	12.0	1.211	to_hand	poldrack-single-stim	s553	False
0.1	204.732	0.941	205.673	0	PA_with_intermediate	test	ward_and_allport	71	12.0	0.941	to_board	poldrack-single-stim	s553	False
1.0	205.682	2.408	205.681	0	PA_with_intermediate	test	ward_and_allport	-1	12.0	n/a	feedback	poldrack-single-stim	s553	False
4.02	208.094	4.02	212.114	1	PA_without_intermediate	test	ward_and_allport	82	13.0	4.02	to_hand	poldrack-single-stim	s553	False
0.1	212.115	1.634	213.749	0	PA_without_intermediate	test	ward_and_allport	89	13.0	1.634	to_board	poldrack-single-stim	s553	False
0.1	213.753	0.824	214.577	0	PA_without_intermediate	test	ward_and_allport	82	13.0	0.824	to_hand	poldrack-single-stim	s553	False
0.1	214.577	0.591	215.168	0	PA_without_intermediate	test	ward_and_allport	89	13.0	0.591	to_board	poldrack-single-stim	s553	False
0.1	215.172	1.746	216.918	0	PA_without_intermediate	test	ward_and_allport	82	13.0	1.746	to_hand	poldrack-single-stim	s553	False
0.1	216.919	0.857	217.776	0	PA_without_intermediate	test	ward_and_allport	71	13.0	0.857	to_board	poldrack-single-stim	s553	False
1.0	217.784	2.68	217.783	0	PA_without_intermediate	test	ward_and_allport	-1	13.0	n/a	feedback	poldrack-single-stim	s553	False
4.78	220.468	4.78	225.248	1	PA_with_intermediate	test	ward_and_allport	71	14.0	4.78	to_hand	poldrack-single-stim	s553	False
0.1	225.248	1.635	226.883	0	PA_with_intermediate	test	ward_and_allport	82	14.0	1.635	to_board	poldrack-single-stim	s553	False
0.1	226.888	0.618	227.506	0	PA_with_intermediate	test	ward_and_allport	71	14.0	0.618	to_hand	poldrack-single-stim	s553	False
0.1	227.506	0.458	227.964	0	PA_with_intermediate	test	ward_and_allport	89	14.0	0.458	to_board	poldrack-single-stim	s553	False
0.1	227.968	0.534	228.502	0	PA_with_intermediate	test	ward_and_allport	82	14.0	0.534	to_hand	poldrack-single-stim	s553	False
0.1	228.503	0.65	229.153	0	PA_with_intermediate	test	ward_and_allport	89	14.0	0.65	to_board	poldrack-single-stim	s553	False
1.0	229.163	4.72	229.162	0	PA_with_intermediate	test	ward_and_allport	-1	14.0	n/a	feedback	poldrack-single-stim	s553	False
4.8	238.89	4.8	243.69	1	PA_without_intermediate	test	ward_and_allport	89	15.0	4.8	to_hand	poldrack-single-stim	s553	False
0.1	243.691	0.558	244.249	0	PA_without_intermediate	test	ward_and_allport	71	15.0	0.558	to_board	poldrack-single-stim	s553	False
0.1	244.254	1.308	245.562	0	PA_without_intermediate	test	ward_and_allport	89	15.0	1.308	to_hand	poldrack-single-stim	s553	False
0.1	245.562	2.221	247.783	0	PA_without_intermediate	test	ward_and_allport	82	15.0	2.221	to_board	poldrack-single-stim	s553	False
0.1	247.786	0.525	248.311	0	PA_without_intermediate	test	ward_and_allport	89	15.0	0.525	to_hand	poldrack-single-stim	s553	False
0.1	248.312	0.561	248.873	0	PA_without_intermediate	test	ward_and_allport	71	15.0	0.561	to_board	poldrack-single-stim	s553	False
1.0	248.878	3.224	248.877	0	PA_without_intermediate	test	ward_and_allport	-1	15.0	n/a	feedback	poldrack-single-stim	s553	False
3.594	252.107	3.594	255.701	1	PA_without_intermediate	test	ward_and_allport	82	16.0	3.594	to_hand	poldrack-single-stim	s553	False
0.1	255.701	0.912	256.613	0	PA_without_intermediate	test	ward_and_allport	71	16.0	0.912	to_board	poldrack-single-stim	s553	False
0.1	256.617	0.724	257.341	0	PA_without_intermediate	test	ward_and_allport	82	16.0	0.724	to_hand	poldrack-single-stim	s553	False
0.1	257.343	0.573	257.916	0	PA_without_intermediate	test	ward_and_allport	89	16.0	0.573	to_board	poldrack-single-stim	s553	False
0.1	257.919	0.831	258.75	0	PA_without_intermediate	test	ward_and_allport	82	16.0	0.831	to_hand	poldrack-single-stim	s553	False
0.1	258.751	0.802	259.553	0	PA_without_intermediate	test	ward_and_allport	71	16.0	0.802	to_board	poldrack-single-stim	s553	False
1.0	259.559	2.272	259.558	0	PA_without_intermediate	test	ward_and_allport	-1	16.0	n/a	feedback	poldrack-single-stim	s553	False
2.912	261.835	2.912	264.747	1	PA_with_intermediate	test	ward_and_allport	82	17.0	2.912	to_hand	poldrack-single-stim	s553	False
0.1	264.748	0.651	265.399	0	PA_with_intermediate	test	ward_and_allport	71	17.0	0.651	to_board	poldrack-single-stim	s553	False
0.1	265.404	0.626	266.03	0	PA_with_intermediate	test	ward_and_allport	82	17.0	0.626	to_hand	poldrack-single-stim	s553	False
0.1	266.031	0.967	266.998	0	PA_with_intermediate	test	ward_and_allport	89	17.0	0.967	to_board	poldrack-single-stim	s553	False
0.1	267.003	4.783	271.786	0	PA_with_intermediate	test	ward_and_allport	71	17.0	4.783	to_hand	poldrack-single-stim	s553	False
0.1	271.787	0.557	272.344	0	PA_with_intermediate	test	ward_and_allport	82	17.0	0.557	to_board	poldrack-single-stim	s553	False
0.1	272.349	0.509	272.858	0	PA_with_intermediate	test	ward_and_allport	89	17.0	0.509	to_hand	poldrack-single-stim	s553	False
0.1	272.859	0.837	273.696	0	PA_with_intermediate	test	ward_and_allport	71	17.0	0.837	to_board	poldrack-single-stim	s553	False
0.1	273.7	0.712	274.412	0	PA_with_intermediate	test	ward_and_allport	82	17.0	0.712	to_hand	poldrack-single-stim	s553	False
0.1	274.414	1.255	275.669	0	PA_with_intermediate	test	ward_and_allport	71	17.0	1.255	to_board	poldrack-single-stim	s553	False
1.0	275.676	3.632	275.675	0	PA_with_intermediate	test	ward_and_allport	-1	17.0	n/a	feedback	poldrack-single-stim	s553	False
2.668	279.313	2.668	281.981	1	PA_without_intermediate	test	ward_and_allport	71	18.0	2.668	to_hand	poldrack-single-stim	s553	False
0.1	281.983	0.634	282.617	0	PA_without_intermediate	test	ward_and_allport	82	18.0	0.634	to_board	poldrack-single-stim	s553	False
0.1	282.621	0.617	283.238	0	PA_without_intermediate	test	ward_and_allport	71	18.0	0.617	to_hand	poldrack-single-stim	s553	False
0.1	283.239	0.754	283.993	0	PA_without_intermediate	test	ward_and_allport	82	18.0	0.754	to_board	poldrack-single-stim	s553	False
0.1	283.997	0.534	284.531	0	PA_without_intermediate	test	ward_and_allport	71	18.0	0.534	to_hand	poldrack-single-stim	s553	False
0.1	284.532	0.441	284.973	0	PA_without_intermediate	test	ward_and_allport	89	18.0	0.441	to_board	poldrack-single-stim	s553	False
1.0	284.98	2.408	284.979	0	PA_without_intermediate	test	ward_and_allport	-1	18.0	n/a	feedback	poldrack-single-stim	s553	False
2.3	287.392	2.3	289.692	1	PA_without_intermediate	test	ward_and_allport	89	19.0	2.3	to_hand	poldrack-single-stim	s553	False
0.1	289.693	0.669	290.362	0	PA_without_intermediate	test	ward_and_allport	82	19.0	0.669	to_board	poldrack-single-stim	s553	False
0.1	290.368	1.033	291.401	0	PA_without_intermediate	test	ward_and_allport	89	19.0	1.033	to_hand	poldrack-single-stim	s553	False
0.1	291.402	0.671	292.073	0	PA_without_intermediate	test	ward_and_allport	71	19.0	0.671	to_board	poldrack-single-stim	s553	False
0.1	292.077	0.817	292.894	0	PA_without_intermediate	test	ward_and_allport	89	19.0	0.817	to_hand	poldrack-single-stim	s553	False
0.1	292.896	0.49	293.386	0	PA_without_intermediate	test	ward_and_allport	82	19.0	0.49	to_board	poldrack-single-stim	s553	False
1.0	293.394	2.0	293.393	0	PA_without_intermediate	test	ward_and_allport	-1	19.0	n/a	feedback	poldrack-single-stim	s553	False
2.502	295.4	2.502	297.902	1	PA_with_intermediate	test	ward_and_allport	89	20.0	2.502	to_hand	poldrack-single-stim	s553	False
0.1	297.903	0.59	298.493	0	PA_with_intermediate	test	ward_and_allport	82	20.0	0.59	to_board	poldrack-single-stim	s553	False
0.1	298.498	0.508	299.006	0	PA_with_intermediate	test	ward_and_allport	89	20.0	0.508	to_hand	poldrack-single-stim	s553	False
0.1	299.006	0.554	299.56	0	PA_with_intermediate	test	ward_and_allport	71	20.0	0.554	to_board	poldrack-single-stim	s553	False
0.1	299.566	0.521	300.087	0	PA_with_intermediate	test	ward_and_allport	82	20.0	0.521	to_hand	poldrack-single-stim	s553	False
0.1	300.089	1.038	301.127	0	PA_with_intermediate	test	ward_and_allport	71	20.0	1.038	to_board	poldrack-single-stim	s553	False
1.0	301.139	2.0	301.138	0	PA_with_intermediate	test	ward_and_allport	-1	20.0	n/a	feedback	poldrack-single-stim	s553	False
2.941	303.144	2.941	306.085	1	PA_with_intermediate	test	ward_and_allport	71	21.0	2.941	to_hand	poldrack-single-stim	s553	False
0.1	306.085	0.472	306.557	0	PA_with_intermediate	test	ward_and_allport	89	21.0	0.472	to_board	poldrack-single-stim	s553	False
0.1	306.564	0.417	306.981	0	PA_with_intermediate	test	ward_and_allport	71	21.0	0.417	to_hand	poldrack-single-stim	s553	False
0.1	306.981	0.559	307.54	0	PA_with_intermediate	test	ward_and_allport	82	21.0	0.559	to_board	poldrack-single-stim	s553	False
0.1	307.545	0.426	307.971	0	PA_with_intermediate	test	ward_and_allport	89	21.0	0.426	to_hand	poldrack-single-stim	s553	False
0.1	307.973	0.705	308.678	0	PA_with_intermediate	test	ward_and_allport	82	21.0	0.705	to_board	poldrack-single-stim	s553	False
1.0	308.686	2.0	308.685	0	PA_with_intermediate	test	ward_and_allport	-1	21.0	n/a	feedback	poldrack-single-stim	s553	False
3.327	310.691	3.327	314.018	1	PA_with_intermediate	test	ward_and_allport	71	22.0	3.327	to_hand	poldrack-single-stim	s553	False
0.1	314.02	2.218	316.238	0	PA_with_intermediate	test	ward_and_allport	89	22.0	2.218	to_board	poldrack-single-stim	s553	False
0.1	316.243	0.921	317.164	0	PA_with_intermediate	test	ward_and_allport	71	22.0	0.921	to_hand	poldrack-single-stim	s553	False
0.1	317.165	0.589	317.754	0	PA_with_intermediate	test	ward_and_allport	82	22.0	0.589	to_board	poldrack-single-stim	s553	False
0.1	317.76	1.025	318.785	0	PA_with_intermediate	test	ward_and_allport	89	22.0	1.025	to_hand	poldrack-single-stim	s553	False
0.1	318.787	1.303	320.09	0	PA_with_intermediate	test	ward_and_allport	82	22.0	1.303	to_board	poldrack-single-stim	s553	False
0.1	320.095	1.715	321.81	0	PA_with_intermediate	test	ward_and_allport	71	22.0	1.715	to_hand	poldrack-single-stim	s553	False
0.1	321.812	0.435	322.247	0	PA_with_intermediate	test	ward_and_allport	89	22.0	0.435	to_board	poldrack-single-stim	s553	False
0.1	322.252	0.734	322.986	0	PA_with_intermediate	test	ward_and_allport	82	22.0	0.734	to_hand	poldrack-single-stim	s553	False
0.1	322.987	0.845	323.832	0	PA_with_intermediate	test	ward_and_allport	89	22.0	0.845	to_board	poldrack-single-stim	s553	False
0.1	323.839	2.32	326.159	0	PA_with_intermediate	test	ward_and_allport	89	22.0	2.32	to_hand	poldrack-single-stim	s553	False
0.1	326.16	0.84	327.0	0	PA_with_intermediate	test	ward_and_allport	82	22.0	0.84	to_board	poldrack-single-stim	s553	False
0.1	327.006	0.504	327.51	0	PA_with_intermediate	test	ward_and_allport	89	22.0	0.504	to_hand	poldrack-single-stim	s553	False
0.1	327.511	0.719	328.23	0	PA_with_intermediate	test	ward_and_allport	71	22.0	0.719	to_board	poldrack-single-stim	s553	False
0.1	328.236	0.678	328.914	0	PA_with_intermediate	test	ward_and_allport	82	22.0	0.678	to_hand	poldrack-single-stim	s553	False
0.1	328.915	0.684	329.599	0	PA_with_intermediate	test	ward_and_allport	71	22.0	0.684	to_board	poldrack-single-stim	s553	False
1.0	329.606	2.408	329.605	0	PA_with_intermediate	test	ward_and_allport	-1	22.0	n/a	feedback	poldrack-single-stim	s553	False
4.093	332.021	4.093	336.114	1	PA_without_intermediate	test	ward_and_allport	82	23.0	4.093	to_hand	poldrack-single-stim	s553	False
0.1	336.115	1.533	337.648	0	PA_without_intermediate	test	ward_and_allport	71	23.0	1.533	to_board	poldrack-single-stim	s553	False
0.1	337.654	0.702	338.356	0	PA_without_intermediate	test	ward_and_allport	82	23.0	0.702	to_hand	poldrack-single-stim	s553	False
0.1	338.358	4.874	343.232	0	PA_without_intermediate	test	ward_and_allport	71	23.0	4.874	to_board	poldrack-single-stim	s553	False
0.1	343.238	1.099	344.337	0	PA_without_intermediate	test	ward_and_allport	82	23.0	1.099	to_hand	poldrack-single-stim	s553	False
0.1	344.339	1.038	345.377	0	PA_without_intermediate	test	ward_and_allport	89	23.0	1.038	to_board	poldrack-single-stim	s553	False
1.0	345.385	2.816	345.384	0	PA_without_intermediate	test	ward_and_allport	-1	23.0	n/a	feedback	poldrack-single-stim	s553	False
3.609	348.207	3.609	351.816	1	PA_with_intermediate	test	ward_and_allport	89	24.0	3.609	to_hand	poldrack-single-stim	s553	False
0.1	351.818	0.463	352.281	0	PA_with_intermediate	test	ward_and_allport	71	24.0	0.463	to_board	poldrack-single-stim	s553	False
0.1	352.287	0.661	352.948	0	PA_with_intermediate	test	ward_and_allport	89	24.0	0.661	to_hand	poldrack-single-stim	s553	False
0.1	352.949	1.967	354.916	0	PA_with_intermediate	test	ward_and_allport	82	24.0	1.967	to_board	poldrack-single-stim	s553	False
0.1	354.924	0.646	355.57	0	PA_with_intermediate	test	ward_and_allport	71	24.0	0.646	to_hand	poldrack-single-stim	s553	False
0.1	355.571	0.927	356.498	0	PA_with_intermediate	test	ward_and_allport	89	24.0	0.927	to_board	poldrack-single-stim	s553	False
1.0	356.506	4.176	356.505	0	PA_with_intermediate	test	ward_and_allport	-1	24.0	n/a	feedback	poldrack-single-stim	s553	False
3.187	360.689	3.187	363.876	1	PA_with_intermediate	test	ward_and_allport	89	25.0	3.187	to_hand	poldrack-single-stim	s553	False
0.1	363.878	0.665	364.543	0	PA_with_intermediate	test	ward_and_allport	71	25.0	0.665	to_board	poldrack-single-stim	s553	False
0.1	364.549	0.63	365.179	0	PA_with_intermediate	test	ward_and_allport	89	25.0	0.63	to_hand	poldrack-single-stim	s553	False
0.1	365.181	1.279	366.46	0	PA_with_intermediate	test	ward_and_allport	82	25.0	1.279	to_board	poldrack-single-stim	s553	False
0.1	366.467	1.7	368.167	0	PA_with_intermediate	test	ward_and_allport	71	25.0	1.7	to_hand	poldrack-single-stim	s553	False
0.1	368.167	0.44	368.607	0	PA_with_intermediate	test	ward_and_allport	89	25.0	0.44	to_board	poldrack-single-stim	s553	False
1.0	368.617	3.36	368.616	0	PA_with_intermediate	test	ward_and_allport	-1	25.0	n/a	feedback	poldrack-single-stim	s553	False
3.186	371.984	3.186	375.17	1	PA_with_intermediate	test	ward_and_allport	82	26.0	3.186	to_hand	poldrack-single-stim	s553	False
0.1	375.171	0.504	375.675	0	PA_with_intermediate	test	ward_and_allport	71	26.0	0.504	to_board	poldrack-single-stim	s553	False
0.1	375.682	0.785	376.467	0	PA_with_intermediate	test	ward_and_allport	82	26.0	0.785	to_hand	poldrack-single-stim	s553	False
0.1	376.468	1.117	377.585	0	PA_with_intermediate	test	ward_and_allport	89	26.0	1.117	to_board	poldrack-single-stim	s553	False
0.1	377.592	0.545	378.137	0	PA_with_intermediate	test	ward_and_allport	71	26.0	0.545	to_hand	poldrack-single-stim	s553	False
0.1	378.138	0.568	378.706	0	PA_with_intermediate	test	ward_and_allport	82	26.0	0.568	to_board	poldrack-single-stim	s553	False
1.0	378.714	2.0	378.713	0	PA_with_intermediate	test	ward_and_allport	-1	26.0	n/a	feedback	poldrack-single-stim	s553	False
1.657	380.721	1.657	382.378	1	PA_without_intermediate	test	ward_and_allport	89	27.0	1.657	to_hand	poldrack-single-stim	s553	False
0.1	382.379	0.79	383.169	0	PA_without_intermediate	test	ward_and_allport	82	27.0	0.79	to_board	poldrack-single-stim	s553	False
0.1	383.177	1.396	384.573	0	PA_without_intermediate	test	ward_and_allport	89	27.0	1.396	to_hand	poldrack-single-stim	s553	False
0.1	384.573	0.91	385.483	0	PA_without_intermediate	test	ward_and_allport	71	27.0	0.91	to_board	poldrack-single-stim	s553	False
0.1	385.491	0.392	385.883	0	PA_without_intermediate	test	ward_and_allport	89	27.0	0.392	to_hand	poldrack-single-stim	s553	False
0.1	385.884	0.617	386.501	0	PA_without_intermediate	test	ward_and_allport	82	27.0	0.617	to_board	poldrack-single-stim	s553	False
1.0	386.509	2.408	386.508	0	PA_without_intermediate	test	ward_and_allport	-1	27.0	n/a	feedback	poldrack-single-stim	s553	False
7.266	388.926	7.266	396.192	1	PA_with_intermediate	test	ward_and_allport	71	28.0	7.266	to_hand	poldrack-single-stim	s553	False
0.1	396.192	1.328	397.52	0	PA_with_intermediate	test	ward_and_allport	82	28.0	1.328	to_board	poldrack-single-stim	s553	False
0.1	397.527	1.637	399.164	0	PA_with_intermediate	test	ward_and_allport	71	28.0	1.637	to_hand	poldrack-single-stim	s553	False
0.1	399.165	0.527	399.692	0	PA_with_intermediate	test	ward_and_allport	89	28.0	0.527	to_board	poldrack-single-stim	s553	False
0.1	399.699	1.254	400.953	0	PA_with_intermediate	test	ward_and_allport	82	28.0	1.254	to_hand	poldrack-single-stim	s553	False
0.1	400.954	0.61	401.564	0	PA_with_intermediate	test	ward_and_allport	71	28.0	0.61	to_board	poldrack-single-stim	s553	False
1.0	401.574	2.816	401.573	0	PA_with_intermediate	test	ward_and_allport	-1	28.0	n/a	feedback	poldrack-single-stim	s553	False
2.049	404.398	2.049	406.447	1	PA_without_intermediate	test	ward_and_allport	89	29.0	2.049	to_hand	poldrack-single-stim	s553	False
0.1	406.447	1.574	408.021	0	PA_without_intermediate	test	ward_and_allport	82	29.0	1.574	to_board	poldrack-single-stim	s553	False
0.1	408.029	0.837	408.866	0	PA_without_intermediate	test	ward_and_allport	89	29.0	0.837	to_hand	poldrack-single-stim	s553	False
0.1	408.867	1.36	410.227	0	PA_without_intermediate	test	ward_and_allport	82	29.0	1.36	to_board	poldrack-single-stim	s553	False
0.1	410.236	0.559	410.795	0	PA_without_intermediate	test	ward_and_allport	89	29.0	0.559	to_hand	poldrack-single-stim	s553	False
0.1	410.796	0.679	411.475	0	PA_without_intermediate	test	ward_and_allport	71	29.0	0.679	to_board	poldrack-single-stim	s553	False
1.0	411.488	3.088	411.487	0	PA_without_intermediate	test	ward_and_allport	-1	29.0	n/a	feedback	poldrack-single-stim	s553	False
2.942	419.589	2.942	422.531	1	PA_without_intermediate	test	ward_and_allport	82	30.0	2.942	to_hand	poldrack-single-stim	s553	False
0.1	422.532	0.683	423.215	0	PA_without_intermediate	test	ward_and_allport	89	30.0	0.683	to_board	poldrack-single-stim	s553	False
0.1	423.224	2.828	426.052	0	PA_without_intermediate	test	ward_and_allport	82	30.0	2.828	to_hand	poldrack-single-stim	s553	False
0.1	426.052	0.901	426.953	0	PA_without_intermediate	test	ward_and_allport	71	30.0	0.901	to_board	poldrack-single-stim	s553	False
0.1	426.96	1.544	428.504	0	PA_without_intermediate	test	ward_and_allport	82	30.0	1.544	to_hand	poldrack-single-stim	s553	False
0.1	428.506	0.512	429.018	0	PA_without_intermediate	test	ward_and_allport	89	30.0	0.512	to_board	poldrack-single-stim	s553	False
1.0	429.028	2.136	429.027	0	PA_without_intermediate	test	ward_and_allport	-1	30.0	n/a	feedback	poldrack-single-stim	s553	False
2.047	431.172	2.047	433.219	1	PA_without_intermediate	test	ward_and_allport	89	31.0	2.047	to_hand	poldrack-single-stim	s553	False
0.1	433.221	0.994	434.215	0	PA_without_intermediate	test	ward_and_allport	71	31.0	0.994	to_board	poldrack-single-stim	s553	False
0.1	434.223	1.061	435.284	0	PA_without_intermediate	test	ward_and_allport	89	31.0	1.061	to_hand	poldrack-single-stim	s553	False
0.1	435.284	0.805	436.089	0	PA_without_intermediate	test	ward_and_allport	82	31.0	0.805	to_board	poldrack-single-stim	s553	False
0.1	436.098	0.588	436.686	0	PA_without_intermediate	test	ward_and_allport	89	31.0	0.588	to_hand	poldrack-single-stim	s553	False
0.1	436.688	0.738	437.426	0	PA_without_intermediate	test	ward_and_allport	71	31.0	0.738	to_board	poldrack-single-stim	s553	False
1.0	437.437	7.168	437.436	0	PA_without_intermediate	test	ward_and_allport	-1	31.0	n/a	feedback	poldrack-single-stim	s553	False
2.565	444.614	2.565	447.179	1	PA_without_intermediate	test	ward_and_allport	71	32.0	2.565	to_hand	poldrack-single-stim	s553	False
0.1	447.181	0.684	447.865	0	PA_without_intermediate	test	ward_and_allport	82	32.0	0.684	to_board	poldrack-single-stim	s553	False
0.1	447.875	1.324	449.199	0	PA_without_intermediate	test	ward_and_allport	71	32.0	1.324	to_hand	poldrack-single-stim	s553	False
0.1	449.2	0.548	449.748	0	PA_without_intermediate	test	ward_and_allport	82	32.0	0.548	to_board	poldrack-single-stim	s553	False
0.1	449.757	0.706	450.463	0	PA_without_intermediate	test	ward_and_allport	71	32.0	0.706	to_hand	poldrack-single-stim	s553	False
0.1	450.464	0.417	450.881	0	PA_without_intermediate	test	ward_and_allport	89	32.0	0.417	to_board	poldrack-single-stim	s553	False
1.0	450.893	2.816	450.892	0	PA_without_intermediate	test	ward_and_allport	-1	32.0	n/a	feedback	poldrack-single-stim	s553	False
4.597	453.716	4.597	458.313	1	PA_with_intermediate	test	ward_and_allport	89	33.0	4.597	to_hand	poldrack-single-stim	s553	False
0.1	458.313	0.53	458.843	0	PA_with_intermediate	test	ward_and_allport	82	33.0	0.53	to_board	poldrack-single-stim	s553	False
0.1	458.849	1.554	460.403	0	PA_with_intermediate	test	ward_and_allport	89	33.0	1.554	to_hand	poldrack-single-stim	s553	False
0.1	460.405	0.648	461.053	0	PA_with_intermediate	test	ward_and_allport	71	33.0	0.648	to_board	poldrack-single-stim	s553	False
0.1	461.061	2.23	463.291	0	PA_with_intermediate	test	ward_and_allport	82	33.0	2.23	to_hand	poldrack-single-stim	s553	False
0.1	463.292	0.604	463.896	0	PA_with_intermediate	test	ward_and_allport	89	33.0	0.604	to_board	poldrack-single-stim	s553	False
1.0	463.909	2.952	463.908	0	PA_with_intermediate	test	ward_and_allport	-1	33.0	n/a	feedback	poldrack-single-stim	s553	False
2.898	466.871	2.898	469.769	1	PA_with_intermediate	test	ward_and_allport	89	34.0	2.898	to_hand	poldrack-single-stim	s553	False
0.1	469.769	0.78	470.549	0	PA_with_intermediate	test	ward_and_allport	82	34.0	0.78	to_board	poldrack-single-stim	s553	False
0.1	470.558	1.438	471.996	0	PA_with_intermediate	test	ward_and_allport	89	34.0	1.438	to_hand	poldrack-single-stim	s553	False
0.1	471.997	1.765	473.762	0	PA_with_intermediate	test	ward_and_allport	71	34.0	1.765	to_board	poldrack-single-stim	s553	False
0.1	473.771	0.555	474.326	0	PA_with_intermediate	test	ward_and_allport	82	34.0	0.555	to_hand	poldrack-single-stim	s553	False
0.1	474.328	0.495	474.823	0	PA_with_intermediate	test	ward_and_allport	89	34.0	0.495	to_board	poldrack-single-stim	s553	False
1.0	474.838	2.136	474.837	0	PA_with_intermediate	test	ward_and_allport	-1	34.0	n/a	feedback	poldrack-single-stim	s553	False
3.405	476.982	3.405	480.387	1	PA_without_intermediate	test	ward_and_allport	71	35.0	3.405	to_hand	poldrack-single-stim	s553	False
0.1	480.389	0.521	480.91	0	PA_without_intermediate	test	ward_and_allport	89	35.0	0.521	to_board	poldrack-single-stim	s553	False
0.1	480.918	1.149	482.067	0	PA_without_intermediate	test	ward_and_allport	71	35.0	1.149	to_hand	poldrack-single-stim	s553	False
0.1	482.067	0.538	482.605	0	PA_without_intermediate	test	ward_and_allport	82	35.0	0.538	to_board	poldrack-single-stim	s553	False
0.1	482.614	0.805	483.419	0	PA_without_intermediate	test	ward_and_allport	71	35.0	0.805	to_hand	poldrack-single-stim	s553	False
0.1	483.42	0.437	483.857	0	PA_without_intermediate	test	ward_and_allport	89	35.0	0.437	to_board	poldrack-single-stim	s553	False
1.0	483.867	2.68	483.866	0	PA_without_intermediate	test	ward_and_allport	-1	35.0	n/a	feedback	poldrack-single-stim	s553	False
1.95	486.556	1.95	488.506	1	PA_without_intermediate	test	ward_and_allport	89	36.0	1.95	to_hand	poldrack-single-stim	s553	False
0.1	488.506	0.628	489.134	0	PA_without_intermediate	test	ward_and_allport	82	36.0	0.628	to_board	poldrack-single-stim	s553	False
0.1	489.141	1.802	490.943	0	PA_without_intermediate	test	ward_and_allport	89	36.0	1.802	to_hand	poldrack-single-stim	s553	False
0.1	490.944	0.663	491.607	0	PA_without_intermediate	test	ward_and_allport	82	36.0	0.663	to_board	poldrack-single-stim	s553	False
0.1	491.615	0.897	492.512	0	PA_without_intermediate	test	ward_and_allport	89	36.0	0.897	to_hand	poldrack-single-stim	s553	False
0.1	492.512	0.655	493.167	0	PA_without_intermediate	test	ward_and_allport	71	36.0	0.655	to_board	poldrack-single-stim	s553	False
1.0	493.177	3.088	493.176	0	PA_without_intermediate	test	ward_and_allport	-1	36.0	n/a	feedback	poldrack-single-stim	s553	False
2.741	496.274	2.741	499.015	1	PA_with_intermediate	test	ward_and_allport	89	37.0	2.741	to_hand	poldrack-single-stim	s553	False
0.1	499.017	0.645	499.662	0	PA_with_intermediate	test	ward_and_allport	71	37.0	0.645	to_board	poldrack-single-stim	s553	False
0.1	499.671	0.437	500.108	0	PA_with_intermediate	test	ward_and_allport	89	37.0	0.437	to_hand	poldrack-single-stim	s553	False
0.1	500.109	1.995	502.104	0	PA_with_intermediate	test	ward_and_allport	82	37.0	1.995	to_board	poldrack-single-stim	s553	False
0.1	502.114	0.713	502.827	0	PA_with_intermediate	test	ward_and_allport	71	37.0	0.713	to_hand	poldrack-single-stim	s553	False
0.1	502.828	0.836	503.664	0	PA_with_intermediate	test	ward_and_allport	89	37.0	0.836	to_board	poldrack-single-stim	s553	False
0.1	503.672	0.589	504.261	0	PA_with_intermediate	test	ward_and_allport	82	37.0	0.589	to_hand	poldrack-single-stim	s553	False
0.1	504.263	0.853	505.116	0	PA_with_intermediate	test	ward_and_allport	71	37.0	0.853	to_board	poldrack-single-stim	s553	False
0.1	505.123	0.77	505.893	0	PA_with_intermediate	test	ward_and_allport	89	37.0	0.77	to_hand	poldrack-single-stim	s553	False
0.1	505.894	0.641	506.535	0	PA_with_intermediate	test	ward_and_allport	71	37.0	0.641	to_board	poldrack-single-stim	s553	False
1.0	506.543	2.0	506.542	0	PA_with_intermediate	test	ward_and_allport	-1	37.0	n/a	feedback	poldrack-single-stim	s553	False
3.046	508.55	3.046	511.596	1	PA_without_intermediate	test	ward_and_allport	71	38.0	3.046	to_hand	poldrack-single-stim	s553	False
0.1	511.596	0.484	512.08	0	PA_without_intermediate	test	ward_and_allport	89	38.0	0.484	to_board	poldrack-single-stim	s553	False
0.1	512.086	1.565	513.651	0	PA_without_intermediate	test	ward_and_allport	71	38.0	1.565	to_hand	poldrack-single-stim	s553	False
0.1	513.653	0.863	514.516	0	PA_without_intermediate	test	ward_and_allport	82	38.0	0.863	to_board	poldrack-single-stim	s553	False
0.1	514.524	0.579	515.103	0	PA_without_intermediate	test	ward_and_allport	71	38.0	0.579	to_hand	poldrack-single-stim	s553	False
0.1	515.104	0.747	515.851	0	PA_without_intermediate	test	ward_and_allport	89	38.0	0.747	to_board	poldrack-single-stim	s553	False
1.0	515.866	2.0	515.865	0	PA_without_intermediate	test	ward_and_allport	-1	38.0	n/a	feedback	poldrack-single-stim	s553	False
1.914	517.877	1.914	519.791	1	PA_without_intermediate	test	ward_and_allport	71	39.0	1.914	to_hand	poldrack-single-stim	s553	False
0.1	519.793	0.549	520.342	0	PA_without_intermediate	test	ward_and_allport	82	39.0	0.549	to_board	poldrack-single-stim	s553	False
0.1	520.349	0.471	520.82	0	PA_without_intermediate	test	ward_and_allport	71	39.0	0.471	to_hand	poldrack-single-stim	s553	False
0.1	520.821	0.686	521.507	0	PA_without_intermediate	test	ward_and_allport	89	39.0	0.686	to_board	poldrack-single-stim	s553	False
0.1	521.514	0.598	522.112	0	PA_without_intermediate	test	ward_and_allport	71	39.0	0.598	to_hand	poldrack-single-stim	s553	False
0.1	522.113	0.543	522.656	0	PA_without_intermediate	test	ward_and_allport	82	39.0	0.543	to_board	poldrack-single-stim	s553	False
1.0	522.666	2.0	522.665	0	PA_without_intermediate	test	ward_and_allport	-1	39.0	n/a	feedback	poldrack-single-stim	s553	False
2.283	524.673	2.283	526.956	1	PA_with_intermediate	test	ward_and_allport	71	40.0	2.283	to_hand	poldrack-single-stim	s553	False
0.1	526.958	0.454	527.412	0	PA_with_intermediate	test	ward_and_allport	82	40.0	0.454	to_board	poldrack-single-stim	s553	False
0.1	527.42	0.778	528.198	0	PA_with_intermediate	test	ward_and_allport	71	40.0	0.778	to_hand	poldrack-single-stim	s553	False
0.1	528.198	0.39	528.588	0	PA_with_intermediate	test	ward_and_allport	89	40.0	0.39	to_board	poldrack-single-stim	s553	False
0.1	528.598	1.705	530.303	0	PA_with_intermediate	test	ward_and_allport	82	40.0	1.705	to_hand	poldrack-single-stim	s553	False
0.1	530.304	0.459	530.763	0	PA_with_intermediate	test	ward_and_allport	71	40.0	0.459	to_board	poldrack-single-stim	s553	False
1.0	530.773	2.544	530.772	0	PA_with_intermediate	test	ward_and_allport	-1	40.0	n/a	feedback	poldrack-single-stim	s553	False
2.896	533.323	2.896	536.219	1	PA_without_intermediate	test	ward_and_allport	82	41.0	2.896	to_hand	poldrack-single-stim	s553	False
0.1	536.22	0.336	536.556	0	PA_without_intermediate	test	ward_and_allport	89	41.0	0.336	to_board	poldrack-single-stim	s553	False
0.1	536.562	1.154	537.716	0	PA_without_intermediate	test	ward_and_allport	82	41.0	1.154	to_hand	poldrack-single-stim	s553	False
0.1	537.718	0.84	538.558	0	PA_without_intermediate	test	ward_and_allport	71	41.0	0.84	to_board	poldrack-single-stim	s553	False
0.1	538.567	0.544	539.111	0	PA_without_intermediate	test	ward_and_allport	82	41.0	0.544	to_hand	poldrack-single-stim	s553	False
0.1	539.113	0.837	539.95	0	PA_without_intermediate	test	ward_and_allport	89	41.0	0.837	to_board	poldrack-single-stim	s553	False
1.0	539.96	2.272	539.959	0	PA_without_intermediate	test	ward_and_allport	-1	41.0	n/a	feedback	poldrack-single-stim	s553	False
4.205	542.243	4.205	546.448	1	PA_with_intermediate	test	ward_and_allport	82	42.0	4.205	to_hand	poldrack-single-stim	s553	False
0.1	546.448	1.749	548.197	0	PA_with_intermediate	test	ward_and_allport	89	42.0	1.749	to_board	poldrack-single-stim	s553	False
0.1	548.206	0.785	548.991	0	PA_with_intermediate	test	ward_and_allport	82	42.0	0.785	to_hand	poldrack-single-stim	s553	False
0.1	548.993	0.868	549.861	0	PA_with_intermediate	test	ward_and_allport	71	42.0	0.868	to_board	poldrack-single-stim	s553	False
0.1	549.87	0.711	550.581	0	PA_with_intermediate	test	ward_and_allport	89	42.0	0.711	to_hand	poldrack-single-stim	s553	False
0.1	550.583	0.607	551.19	0	PA_with_intermediate	test	ward_and_allport	82	42.0	0.607	to_board	poldrack-single-stim	s553	False
1.0	551.203	4.04	551.202	0	PA_with_intermediate	test	ward_and_allport	-1	42.0	n/a	feedback	poldrack-single-stim	s553	False
3.976	555.253	3.976	559.229	1	PA_with_intermediate	test	ward_and_allport	82	43.0	3.976	to_hand	poldrack-single-stim	s553	False
0.1	559.23	0.984	560.214	0	PA_with_intermediate	test	ward_and_allport	89	43.0	0.984	to_board	poldrack-single-stim	s553	False
0.1	560.226	0.531	560.757	0	PA_with_intermediate	test	ward_and_allport	82	43.0	0.531	to_hand	poldrack-single-stim	s553	False
0.1	560.758	0.968	561.726	0	PA_with_intermediate	test	ward_and_allport	71	43.0	0.968	to_board	poldrack-single-stim	s553	False
0.1	561.736	0.976	562.712	0	PA_with_intermediate	test	ward_and_allport	89	43.0	0.976	to_hand	poldrack-single-stim	s553	False
0.1	562.713	0.62	563.333	0	PA_with_intermediate	test	ward_and_allport	71	43.0	0.62	to_board	poldrack-single-stim	s553	False
1.0	563.345	2.272	563.344	0	PA_with_intermediate	test	ward_and_allport	-1	43.0	n/a	feedback	poldrack-single-stim	s553	False
