onset	duration	movement_onset	EV	action	block_duration	experiment_exp_id	gain_amount	gain_probability	key_press	loss_amount	loss_probability	num_cards	num_click_in_round	num_loss_cards	risk	response_time	total_cards	trial_id	trial_type	worker_id	junk	feedback
3.011	9.793	12.804	-1.523255430755431	draw_card	9.793	columbia_card_task_fmri	12.0	0.8333333333333334	89.0	-70.0	0.1666666666666666	6.0	1.0	1.0	-1.4354748536921988	9.793	1.0	stim	poldrack-single-stim	s553	False	0
13.557	1.5	12.806	n/a	-1.0	2.454	columbia_card_task_fmri	n/a	n/a	-1.0	n/a	n/a	n/a	n/a	n/a	n/a	n/a	n/a	ITI	poldrack-single-stim	s553	False	0
15.264	5.091	20.355	-0.6899220974220968	draw_card	5.091	columbia_card_task_fmri	14.0	0.8333333333333334	89.0	-75.0	0.1666666666666666	6.0	1.0	1.0	1.173244653944284	5.091	1.0	stim	poldrack-single-stim	s553	False	0
21.11	1.5	20.359	n/a	-1.0	2.454	columbia_card_task_fmri	n/a	n/a	-1.0	n/a	n/a	n/a	n/a	n/a	n/a	n/a	n/a	ITI	poldrack-single-stim	s553	False	0
22.814	6.513	29.327	0.9767445692445692	end_round	6.513	columbia_card_task_fmri	15.0	0.8333333333333334	71.0	-70.0	0.1666666666666666	6.0	1.0	1.0	-0.3174527413244448	6.513	0.0	stim	poldrack-single-stim	s553	False	1
30.082	1.5	29.331	n/a	-1.0	2.522	columbia_card_task_fmri	n/a	n/a	-1.0	n/a	n/a	n/a	n/a	n/a	n/a	n/a	n/a	ITI	poldrack-single-stim	s553	False	0
31.856	6.16	38.016	1.8100779025779032	draw_card	6.16	columbia_card_task_fmri	17.0	0.8333333333333334	89.0	-75.0	0.1666666666666666	6.0	1.0	1.0	2.291268532950664	6.16	n/a	stim	poldrack-single-stim	s553	False	1
38.019	3.373	41.392	-1.2565887640887632	end_round	3.373	columbia_card_task_fmri	17.0	0.8	71.0	-75.0	0.2	6.0	2.0	1.0	4.804872391725066	3.373	1.0	stim	poldrack-single-stim	s553	False	1
42.148	1.5	41.397	n/a	-1.0	2.386	columbia_card_task_fmri	n/a	n/a	-1.0	n/a	n/a	n/a	n/a	n/a	n/a	n/a	n/a	ITI	poldrack-single-stim	s553	False	0
43.786	4.46	48.246	3.1434112359112354	draw_card	4.46	columbia_card_task_fmri	24.0	0.75	89.0	-60.0	0.25	8.0	1.0	2.0	4.377942630592482	4.46	n/a	stim	poldrack-single-stim	s553	False	1
48.247	3.174	51.421	0.1434112359112353	draw_card	3.174	columbia_card_task_fmri	24.0	0.7142857142857143	89.0	-60.0	0.2857142857142857	8.0	2.0	2.0	5.952195865012822	3.174	2.0	stim	poldrack-single-stim	s553	False	0
52.177	1.5	51.426	n/a	-1.0	2.454	columbia_card_task_fmri	n/a	n/a	-1.0	n/a	n/a	n/a	n/a	n/a	n/a	n/a	n/a	ITI	poldrack-single-stim	s553	False	0
53.882	3.686	57.568	3.1434112359112354	draw_card	3.686	columbia_card_task_fmri	29.0	0.75	89.0	-75.0	0.25	8.0	1.0	2.0	13.03814229973752	3.686	1.0	stim	poldrack-single-stim	s553	False	0
58.322	1.5	57.571	n/a	-1.0	2.522	columbia_card_task_fmri	n/a	n/a	-1.0	n/a	n/a	n/a	n/a	n/a	n/a	n/a	n/a	ITI	poldrack-single-stim	s553	False	0
60.095	3.316	63.411	-1.0788109863109845	draw_card	3.316	columbia_card_task_fmri	17.0	0.7777777777777778	89.0	-65.0	0.2222222222222222	9.0	1.0	2.0	2.0955507904600488	3.316	n/a	stim	poldrack-single-stim	s553	False	1
63.412	3.09	66.502	-3.3565887640887646	draw_card	3.09	columbia_card_task_fmri	17.0	0.75	89.0	-65.0	0.25	9.0	2.0	2.0	3.511924122333955	3.09	n/a	stim	poldrack-single-stim	s553	False	1
66.503	1.029	67.532	-6.285160192660192	end_round	1.029	columbia_card_task_fmri	17.0	0.7142857142857143	71.0	-65.0	0.2857142857142857	9.0	3.0	2.0	5.0486945715753855	1.029	2.0	stim	poldrack-single-stim	s553	False	1
68.286	1.5	67.535	n/a	-1.0	2.522	columbia_card_task_fmri	n/a	n/a	-1.0	n/a	n/a	n/a	n/a	n/a	n/a	n/a	n/a	ITI	poldrack-single-stim	s553	False	0
70.061	2.982	73.043	3.243411235911235	end_round	2.982	columbia_card_task_fmri	14.0	0.9	71.0	-95.0	0.1	10.0	1.0	1.0	0.7049074280910297	2.982	0.0	stim	poldrack-single-stim	s553	False	1
73.797	1.5	73.046	n/a	-1.0	2.59	columbia_card_task_fmri	n/a	n/a	-1.0	n/a	n/a	n/a	n/a	n/a	n/a	n/a	n/a	ITI	poldrack-single-stim	s553	False	0
75.638	3.667	79.305	-0.8565887640887646	draw_card	3.667	columbia_card_task_fmri	15.0	0.8	89.0	-65.0	0.2	10.0	1.0	2.0	0.0049143071695603	3.667	n/a	stim	poldrack-single-stim	s553	False	1
79.307	1.386	80.693	-2.6343665418665414	draw_card	1.386	columbia_card_task_fmri	15.0	0.7777777777777778	89.0	-65.0	0.2222222222222222	10.0	2.0	2.0	1.2640789122839031	1.386	n/a	stim	poldrack-single-stim	s553	False	1
80.694	1.616	82.31	-4.856588764088765	end_round	1.616	columbia_card_task_fmri	15.0	0.75	71.0	-65.0	0.25	10.0	3.0	2.0	2.645905958847397	1.616	2.0	stim	poldrack-single-stim	s553	False	1
83.064	1.5	82.313	n/a	-1.0	2.454	columbia_card_task_fmri	n/a	n/a	-1.0	n/a	n/a	n/a	n/a	n/a	n/a	n/a	n/a	ITI	poldrack-single-stim	s553	False	0
84.77	3.027	87.797	0.7434112359112368	draw_card	3.027	columbia_card_task_fmri	17.0	0.8	89.0	-65.0	0.2	10.0	1.0	2.0	0.8049064693340959	3.027	n/a	stim	poldrack-single-stim	s553	False	1
87.798	1.22	89.018	-1.0788109863109845	draw_card	1.22	columbia_card_task_fmri	17.0	0.7777777777777778	89.0	-65.0	0.2222222222222222	10.0	2.0	2.0	2.0955507904600488	1.22	n/a	stim	poldrack-single-stim	s553	False	1
89.019	1.885	90.904	-3.3565887640887646	end_round	1.885	columbia_card_task_fmri	17.0	0.75	71.0	-65.0	0.25	10.0	3.0	2.0	3.511924122333955	1.885	2.0	stim	poldrack-single-stim	s553	False	1
91.659	1.5	90.908	n/a	-1.0	2.318	columbia_card_task_fmri	n/a	n/a	-1.0	n/a	n/a	n/a	n/a	n/a	n/a	n/a	n/a	ITI	poldrack-single-stim	s553	False	0
93.229	2.501	95.73	-0.6899220974220968	draw_card	2.501	columbia_card_task_fmri	13.0	0.8333333333333334	89.0	-70.0	0.1666666666666666	12.0	1.0	2.0	-1.062800911627377	2.501	1.0	stim	poldrack-single-stim	s553	False	0
96.485	1.5	95.734	n/a	-1.0	2.25	columbia_card_task_fmri	n/a	n/a	-1.0	n/a	n/a	n/a	n/a	n/a	n/a	n/a	n/a	ITI	poldrack-single-stim	s553	False	0
97.987	2.98	100.967	-0.6899220974220968	draw_card	2.98	columbia_card_task_fmri	15.0	0.8333333333333334	89.0	-80.0	0.1666666666666666	12.0	1.0	2.0	3.409293050459045	2.98	n/a	stim	poldrack-single-stim	s553	False	1
100.968	1.754	102.722	-2.12931603681604	draw_card	1.754	columbia_card_task_fmri	15.0	0.8181818181818181	89.0	-80.0	0.1818181818181818	12.0	2.0	2.0	4.645861356801024	1.754	n/a	stim	poldrack-single-stim	s553	False	1
102.724	0.99	103.714	-3.8565887640887646	end_round	0.99	columbia_card_task_fmri	15.0	0.8	71.0	-80.0	0.2	12.0	3.0	2.0	6.004863567401987	0.99	2.0	stim	poldrack-single-stim	s553	False	1
104.466	1.5	103.715	n/a	-1.0	2.658	columbia_card_task_fmri	n/a	n/a	-1.0	n/a	n/a	n/a	n/a	n/a	n/a	n/a	n/a	ITI	poldrack-single-stim	s553	False	0
106.376	3.07	109.446	-1.6565887640887635	draw_card	3.07	columbia_card_task_fmri	14.0	0.8	89.0	-65.0	0.2	15.0	1.0	3.0	-0.3950816250953011	3.07	n/a	stim	poldrack-single-stim	s553	False	1
109.448	0.942	110.39	-2.785160192660192	draw_card	0.942	columbia_card_task_fmri	14.0	0.7857142857142857	89.0	-65.0	0.2142857142857142	15.0	2.0	3.0	0.4206565483049793	0.942	n/a	stim	poldrack-single-stim	s553	False	1
110.392	1.066	111.458	-4.087357994857997	draw_card	1.066	columbia_card_task_fmri	14.0	0.7692307692307692	89.0	-65.0	0.2307692307692307	15.0	3.0	3.0	1.2895803986161916	1.066	n/a	stim	poldrack-single-stim	s553	False	1
111.46	2.437	113.897	-5.606588764088765	end_round	2.437	columbia_card_task_fmri	14.0	0.75	71.0	-65.0	0.25	15.0	4.0	3.0	2.2128970145763454	2.437	3.0	stim	poldrack-single-stim	s553	False	1
114.653	1.5	113.902	n/a	-1.0	2.454	columbia_card_task_fmri	n/a	n/a	-1.0	n/a	n/a	n/a	n/a	n/a	n/a	n/a	n/a	ITI	poldrack-single-stim	s553	False	0
116.36	3.313	119.673	-1.7315887640887646	end_round	3.313	columbia_card_task_fmri	1.0	0.9375	71.0	-45.0	0.0625	16.0	1.0	1.0	-20.859656431156992	3.313	0.0	stim	poldrack-single-stim	s553	False	1
120.428	1.5	119.677	n/a	-1.0	2.386	columbia_card_task_fmri	n/a	n/a	-1.0	n/a	n/a	n/a	n/a	n/a	n/a	n/a	n/a	ITI	poldrack-single-stim	s553	False	0
122.065	3.348	125.413	-0.7940887640887646	draw_card	3.348	columbia_card_task_fmri	15.0	0.8125	89.0	-70.0	0.1875	16.0	1.0	3.0	1.1814547774652873	3.348	1.0	stim	poldrack-single-stim	s553	False	0
126.167	1.5	125.416	n/a	-1.0	2.59	columbia_card_task_fmri	n/a	n/a	-1.0	n/a	n/a	n/a	n/a	n/a	n/a	n/a	n/a	ITI	poldrack-single-stim	s553	False	0
128.008	1.373	129.381	6.143411235911235	draw_card	1.373	columbia_card_task_fmri	30.0	0.7	89.0	-50.0	0.3	10.0	1.0	3.0	4.6654790138729005	1.373	n/a	stim	poldrack-single-stim	s553	False	1
129.384	3.603	132.987	3.476744569244574	end_round	3.603	columbia_card_task_fmri	30.0	0.6666666666666667	71.0	-50.0	0.3333333333333333	10.0	2.0	3.0	5.7172272946913445	3.603	1.0	stim	poldrack-single-stim	s553	False	1
133.739	1.5	132.988	n/a	-1.0	2.318	columbia_card_task_fmri	n/a	n/a	-1.0	n/a	n/a	n/a	n/a	n/a	n/a	n/a	n/a	ITI	poldrack-single-stim	s553	False	0
135.31	2.794	138.104	5.543411235911235	draw_card	2.794	columbia_card_task_fmri	17.0	0.8666666666666667	89.0	-70.0	0.1333333333333333	15.0	1.0	2.0	-2.420746156787491	2.794	n/a	stim	poldrack-single-stim	s553	False	1
138.106	1.29	139.396	4.714839807339808	draw_card	1.29	columbia_card_task_fmri	17.0	0.8571428571428572	89.0	-70.0	0.1428571428571428	15.0	2.0	2.0	-1.5514110329853636	1.29	n/a	stim	poldrack-single-stim	s553	False	1
139.398	1.057	140.455	3.7587958512958495	draw_card	1.057	columbia_card_task_fmri	17.0	0.8461538461538461	89.0	-70.0	0.1538461538461538	15.0	3.0	2.0	-0.605373975373368	1.057	n/a	stim	poldrack-single-stim	s553	False	1
140.457	1.068	141.525	2.643411235911237	draw_card	1.068	columbia_card_task_fmri	17.0	0.8333333333333334	89.0	-70.0	0.1666666666666666	15.0	4.0	2.0	0.4278957886143182	1.068	n/a	stim	poldrack-single-stim	s553	False	1
141.528	1.085	142.613	1.3252294177294153	end_round	1.085	columbia_card_task_fmri	17.0	0.8181818181818181	71.0	-70.0	0.1818181818181818	15.0	5.0	2.0	1.5603303002596327	1.085	4.0	stim	poldrack-single-stim	s553	False	1
143.368	1.5	142.617	n/a	-1.0	2.59	columbia_card_task_fmri	n/a	n/a	-1.0	n/a	n/a	n/a	n/a	n/a	n/a	n/a	n/a	ITI	poldrack-single-stim	s553	False	0
145.21	2.292	147.502	0.7684112359112354	end_round	2.292	columbia_card_task_fmri	7.0	0.9375	71.0	-95.0	0.0625	16.0	1.0	1.0	-7.3047217229153745	2.292	0.0	stim	poldrack-single-stim	s553	False	1
148.255	1.5	147.504	n/a	-1.0	2.386	columbia_card_task_fmri	n/a	n/a	-1.0	n/a	n/a	n/a	n/a	n/a	n/a	n/a	n/a	ITI	poldrack-single-stim	s553	False	0
149.892	3.468	153.36	2.3309112359112354	draw_card	3.468	columbia_card_task_fmri	9.0	0.9375	89.0	-100.0	0.0625	16.0	1.0	1.0	-5.61031825574694	3.468	n/a	stim	poldrack-single-stim	s553	False	1
153.363	2.59	155.953	1.8767445692445688	end_round	2.59	columbia_card_task_fmri	9.0	0.9333333333333332	71.0	-100.0	0.0666666666666666	16.0	2.0	1.0	-4.80565182569989	2.59	1.0	stim	poldrack-single-stim	s553	False	1
156.707	1.5	155.956	n/a	-1.0	2.318	columbia_card_task_fmri	n/a	n/a	-1.0	n/a	n/a	n/a	n/a	n/a	n/a	n/a	n/a	ITI	poldrack-single-stim	s553	False	0
158.277	2.029	160.306	3.2684112359112354	draw_card	2.029	columbia_card_task_fmri	15.0	0.875	89.0	-80.0	0.125	16.0	1.0	2.0	-0.5767829241911357	2.029	n/a	stim	poldrack-single-stim	s553	False	1
160.308	1.811	162.119	2.4767445692445693	draw_card	1.811	columbia_card_task_fmri	15.0	0.8666666666666667	89.0	-80.0	0.1333333333333333	16.0	2.0	2.0	0.2987016364564177	1.811	n/a	stim	poldrack-single-stim	s553	False	1
162.122	1.354	163.476	1.571982664482666	draw_card	1.354	columbia_card_task_fmri	15.0	0.8571428571428572	89.0	-80.0	0.1428571428571428	16.0	3.0	2.0	1.2479773713464972	1.354	n/a	stim	poldrack-single-stim	s553	False	1
163.478	1.3	164.778	0.5280266205266186	end_round	1.3	columbia_card_task_fmri	15.0	0.8461538461538461	71.0	-80.0	0.1538461538461538	16.0	4.0	2.0	2.2810081356755525	1.3	3.0	stim	poldrack-single-stim	s553	False	1
165.534	1.5	164.783	n/a	-1.0	2.318	columbia_card_task_fmri	n/a	n/a	-1.0	n/a	n/a	n/a	n/a	n/a	n/a	n/a	n/a	ITI	poldrack-single-stim	s553	False	0
167.104	2.806	169.91	5.393411235911235	draw_card	2.806	columbia_card_task_fmri	16.0	0.875	89.0	-70.0	0.125	16.0	1.0	2.0	-3.553218896797727	2.806	n/a	stim	poldrack-single-stim	s553	False	1
169.913	1.467	171.38	4.676744569244568	draw_card	1.467	columbia_card_task_fmri	16.0	0.8666666666666667	89.0	-70.0	0.1333333333333333	16.0	2.0	2.0	-2.7606767479176	1.467	n/a	stim	poldrack-single-stim	s553	False	1
171.383	1.581	172.964	3.857696950196951	draw_card	1.581	columbia_card_task_fmri	16.0	0.8571428571428572	89.0	-70.0	0.1428571428571428	16.0	3.0	2.0	-1.901334211438385	1.581	n/a	stim	poldrack-single-stim	s553	False	1
172.967	1.528	174.495	2.912642005142004	end_round	1.528	columbia_card_task_fmri	16.0	0.8461538461538461	71.0	-70.0	0.1538461538461538	16.0	4.0	2.0	-0.9661713783796272	1.528	3.0	stim	poldrack-single-stim	s553	False	1
175.251	1.5	174.5	n/a	-1.0	2.318	columbia_card_task_fmri	n/a	n/a	-1.0	n/a	n/a	n/a	n/a	n/a	n/a	n/a	n/a	ITI	poldrack-single-stim	s553	False	0
176.821	5.673	182.494	6.705911235911235	end_round	5.673	columbia_card_task_fmri	30.0	0.6875	71.0	-45.0	0.3125	16.0	1.0	5.0	2.76831917041007	5.673	0.0	stim	poldrack-single-stim	s553	False	1
183.248	1.5	182.497	n/a	-1.0	2.386	columbia_card_task_fmri	n/a	n/a	-1.0	n/a	n/a	n/a	n/a	n/a	n/a	n/a	n/a	ITI	poldrack-single-stim	s553	False	0
184.886	2.367	187.253	-1.523255430755431	draw_card	2.367	columbia_card_task_fmri	13.0	0.8333333333333334	89.0	-75.0	0.1666666666666666	6.0	1.0	1.0	0.8005701807846002	2.367	n/a	stim	poldrack-single-stim	s553	False	1
187.255	3.352	190.607	-4.456588764088765	draw_card	3.352	columbia_card_task_fmri	13.0	0.8	89.0	-75.0	0.2	6.0	2.0	1.0	3.204885093391024	3.352	n/a	stim	poldrack-single-stim	s553	False	1
190.608	0.888	191.496	-8.856588764088764	end_round	0.888	columbia_card_task_fmri	13.0	0.75	71.0	-75.0	0.25	6.0	3.0	1.0	6.109980587398137	0.888	2.0	stim	poldrack-single-stim	s553	False	1
192.253	1.5	191.502	n/a	-1.0	2.25	columbia_card_task_fmri	n/a	n/a	-1.0	n/a	n/a	n/a	n/a	n/a	n/a	n/a	n/a	ITI	poldrack-single-stim	s553	False	0
193.756	2.312	196.068	0.1434112359112371	draw_card	2.312	columbia_card_task_fmri	14.0	0.8333333333333334	89.0	-70.0	0.1666666666666666	6.0	1.0	1.0	-0.6901268730358794	2.312	n/a	stim	poldrack-single-stim	s553	False	1
196.07	3.986	200.056	-2.6565887640887635	draw_card	3.986	columbia_card_task_fmri	14.0	0.8	89.0	-70.0	0.2	6.0	2.0	1.0	1.604899004723659	3.986	n/a	stim	poldrack-single-stim	s553	False	1
200.057	1.25	201.307	-6.856588764088765	draw_card	1.25	columbia_card_task_fmri	14.0	0.75	89.0	-70.0	0.25	6.0	3.0	1.0	4.377942630592482	1.25	n/a	stim	poldrack-single-stim	s553	False	1
201.31	0.997	202.307	-13.856588764088762	end_round	0.997	columbia_card_task_fmri	14.0	0.6666666666666667	71.0	-70.0	0.3333333333333333	6.0	4.0	1.0	7.6028323932473505	0.997	3.0	stim	poldrack-single-stim	s553	False	1
203.062	1.5	202.311	n/a	-1.0	2.386	columbia_card_task_fmri	n/a	n/a	-1.0	n/a	n/a	n/a	n/a	n/a	n/a	n/a	n/a	ITI	poldrack-single-stim	s553	False	0
204.699	3.889	208.588	0.1434112359112371	draw_card	3.889	columbia_card_task_fmri	16.0	0.8333333333333334	89.0	-80.0	0.1666666666666666	6.0	1.0	1.0	3.7819680211719096	3.889	n/a	stim	poldrack-single-stim	s553	False	1
208.59	1.8	210.39	-3.056588764088764	draw_card	1.8	columbia_card_task_fmri	16.0	0.8	89.0	-80.0	0.2	6.0	2.0	1.0	6.404860748519706	1.8	2.0	stim	poldrack-single-stim	s553	False	0
211.147	1.5	210.396	n/a	-1.0	2.59	columbia_card_task_fmri	n/a	n/a	-1.0	n/a	n/a	n/a	n/a	n/a	n/a	n/a	n/a	ITI	poldrack-single-stim	s553	False	0
212.989	3.31	216.299	2.643411235911237	draw_card	3.31	columbia_card_task_fmri	17.0	0.8333333333333334	89.0	-70.0	0.1666666666666666	6.0	1.0	1.0	0.4278957886143182	3.31	n/a	stim	poldrack-single-stim	s553	False	1
216.3	2.278	218.578	-0.2565887640887632	draw_card	2.278	columbia_card_task_fmri	17.0	0.8	89.0	-70.0	0.2	6.0	2.0	1.0	2.804888451300446	2.278	2.0	stim	poldrack-single-stim	s553	False	0
219.332	1.5	218.581	n/a	-1.0	2.658	columbia_card_task_fmri	n/a	n/a	-1.0	n/a	n/a	n/a	n/a	n/a	n/a	n/a	n/a	ITI	poldrack-single-stim	s553	False	0
221.242	1.77	223.012	2.6434112359112354	draw_card	1.77	columbia_card_task_fmri	25.0	0.75	89.0	-65.0	0.25	8.0	1.0	2.0	6.975999994155249	1.77	1.0	stim	poldrack-single-stim	s553	False	0
223.766	1.5	223.015	n/a	-1.0	2.386	columbia_card_task_fmri	n/a	n/a	-1.0	n/a	n/a	n/a	n/a	n/a	n/a	n/a	n/a	ITI	poldrack-single-stim	s553	False	0
225.405	1.707	227.112	2.6434112359112354	draw_card	1.707	columbia_card_task_fmri	30.0	0.75	89.0	-80.0	0.25	8.0	1.0	2.0	15.63620605568666	1.707	n/a	stim	poldrack-single-stim	s553	False	1
227.114	1.366	228.48	-1.285160192660188	draw_card	1.366	columbia_card_task_fmri	30.0	0.7142857142857143	89.0	-80.0	0.2857142857142857	8.0	2.0	2.0	17.69773455086308	1.366	2.0	stim	poldrack-single-stim	s553	False	0
229.234	1.5	228.483	n/a	-1.0	2.386	columbia_card_task_fmri	n/a	n/a	-1.0	n/a	n/a	n/a	n/a	n/a	n/a	n/a	n/a	ITI	poldrack-single-stim	s553	False	0
230.871	1.977	232.848	2.3434112359112365	end_round	1.977	columbia_card_task_fmri	13.0	0.9	71.0	-95.0	0.1	10.0	1.0	1.0	0.4049103398708347	1.977	0.0	stim	poldrack-single-stim	s553	False	1
233.604	1.5	232.853	n/a	-1.0	2.25	columbia_card_task_fmri	n/a	n/a	-1.0	n/a	n/a	n/a	n/a	n/a	n/a	n/a	n/a	ITI	poldrack-single-stim	s553	False	0
235.106	3.231	238.337	3.743411235911235	end_round	3.231	columbia_card_task_fmri	14.0	0.9	71.0	-90.0	0.1	10.0	1.0	1.0	-0.7950774530608982	3.231	0.0	stim	poldrack-single-stim	s553	False	1
239.094	1.5	238.343	n/a	-1.0	2.318	columbia_card_task_fmri	n/a	n/a	-1.0	n/a	n/a	n/a	n/a	n/a	n/a	n/a	n/a	ITI	poldrack-single-stim	s553	False	0
240.663	3.942	244.605	-1.056588764088764	draw_card	3.942	columbia_card_task_fmri	16.0	0.8	89.0	-70.0	0.2	10.0	1.0	2.0	2.4048918872997724	3.942	n/a	stim	poldrack-single-stim	s553	False	1
244.608	0.818	245.426	-2.9676998751998758	draw_card	0.818	columbia_card_task_fmri	16.0	0.7777777777777778	89.0	-70.0	0.2222222222222222	10.0	2.0	2.0	3.758495599046622	0.818	n/a	stim	poldrack-single-stim	s553	False	1
245.427	0.579	246.006	-5.356588764088765	end_round	0.579	columbia_card_task_fmri	16.0	0.75	71.0	-70.0	0.25	10.0	3.0	2.0	5.243961459569494	0.579	2.0	stim	poldrack-single-stim	s553	False	1
246.762	1.5	246.011	n/a	-1.0	2.25	columbia_card_task_fmri	n/a	n/a	-1.0	n/a	n/a	n/a	n/a	n/a	n/a	n/a	n/a	ITI	poldrack-single-stim	s553	False	0
248.264	2.856	251.12	-1.773255430755431	end_round	2.856	columbia_card_task_fmri	7.0	0.9166666666666666	71.0	-100.0	0.0833333333333333	12.0	1.0	1.0	-2.421821608978544	2.856	0.0	stim	poldrack-single-stim	s553	False	1
251.877	1.5	251.126	n/a	-1.0	2.25	columbia_card_task_fmri	n/a	n/a	-1.0	n/a	n/a	n/a	n/a	n/a	n/a	n/a	n/a	ITI	poldrack-single-stim	s553	False	0
253.378	4.224	257.602	-1.523255430755429	draw_card	4.224	columbia_card_task_fmri	14.0	0.8333333333333334	89.0	-80.0	0.1666666666666666	12.0	1.0	2.0	3.03661814411851	4.224	n/a	stim	poldrack-single-stim	s553	False	1
257.604	1.171	258.775	-2.947497854997858	draw_card	1.171	columbia_card_task_fmri	14.0	0.8181818181818181	89.0	-80.0	0.1818181818181818	12.0	2.0	2.0	4.260169734513195	1.171	n/a	stim	poldrack-single-stim	s553	False	1
258.778	0.975	259.753	-4.656588764088764	end_round	0.975	columbia_card_task_fmri	14.0	0.8	71.0	-80.0	0.2	12.0	3.0	2.0	5.604866446259852	0.975	2.0	stim	poldrack-single-stim	s553	False	1
260.509	1.5	259.758	n/a	-1.0	2.386	columbia_card_task_fmri	n/a	n/a	-1.0	n/a	n/a	n/a	n/a	n/a	n/a	n/a	n/a	ITI	poldrack-single-stim	s553	False	0
262.147	2.047	264.194	0.1434112359112353	draw_card	2.047	columbia_card_task_fmri	15.0	0.8333333333333334	89.0	-75.0	0.1666666666666666	12.0	1.0	2.0	1.5459192053937834	2.047	1.0	stim	poldrack-single-stim	s553	False	0
264.948	1.5	264.197	n/a	-1.0	2.386	columbia_card_task_fmri	n/a	n/a	-1.0	n/a	n/a	n/a	n/a	n/a	n/a	n/a	n/a	ITI	poldrack-single-stim	s553	False	0
266.585	2.208	268.793	-0.8565887640887646	draw_card	2.208	columbia_card_task_fmri	15.0	0.8	89.0	-65.0	0.2	15.0	1.0	3.0	0.0049143071695603	2.208	1.0	stim	poldrack-single-stim	s553	False	0
269.551	1.5	268.8	n/a	-1.0	2.726	columbia_card_task_fmri	n/a	n/a	-1.0	n/a	n/a	n/a	n/a	n/a	n/a	n/a	n/a	ITI	poldrack-single-stim	s553	False	0
271.528	1.777	273.305	-1.6065887640887646	draw_card	1.777	columbia_card_task_fmri	14.0	0.8125	89.0	-70.0	0.1875	16.0	1.0	3.0	0.7911460925084874	1.777	1.0	stim	poldrack-single-stim	s553	False	0
274.06	1.5	273.309	n/a	-1.0	2.454	columbia_card_task_fmri	n/a	n/a	-1.0	n/a	n/a	n/a	n/a	n/a	n/a	n/a	n/a	ITI	poldrack-single-stim	s553	False	0
275.766	0.369	276.135	-1.6690887640887646	draw_card	0.369	columbia_card_task_fmri	11.0	0.6875	89.0	-30.0	0.3125	16.0	1.0	5.0	-12.990857314760015	0.369	1.0	stim	poldrack-single-stim	s553	False	0
276.891	1.5	276.14	n/a	-1.0	2.318	columbia_card_task_fmri	n/a	n/a	-1.0	n/a	n/a	n/a	n/a	n/a	n/a	n/a	n/a	ITI	poldrack-single-stim	s553	False	0
278.462	2.085	280.547	3.1434112359112354	draw_card	2.085	columbia_card_task_fmri	15.0	0.8666666666666667	89.0	-75.0	0.1333333333333333	15.0	1.0	2.0	-1.4009538443250378	2.085	1.0	stim	poldrack-single-stim	s553	False	0
281.303	1.5	280.552	n/a	-1.0	2.318	columbia_card_task_fmri	n/a	n/a	-1.0	n/a	n/a	n/a	n/a	n/a	n/a	n/a	n/a	ITI	poldrack-single-stim	s553	False	0
282.874	3.076	285.95	4.876744569244569	draw_card	3.076	columbia_card_task_fmri	17.0	0.8666666666666667	89.0	-75.0	0.1333333333333333	15.0	1.0	2.0	-0.7210918827533881	3.076	n/a	stim	poldrack-single-stim	s553	False	1
285.953	1.464	287.417	4.000554093054094	draw_card	1.464	columbia_card_task_fmri	17.0	0.8571428571428572	89.0	-75.0	0.1428571428571428	15.0	2.0	2.0	0.1982061400181898	1.464	n/a	stim	poldrack-single-stim	s553	False	1
287.42	3.037	290.457	2.989565082065082	draw_card	3.037	columbia_card_task_fmri	17.0	0.8461538461538461	89.0	-75.0	0.1538461538461538	15.0	3.0	2.0	1.1986142817988998	3.037	n/a	stim	poldrack-single-stim	s553	False	1
290.46	1.413	291.873	1.8100779025779032	end_round	1.413	columbia_card_task_fmri	17.0	0.8333333333333334	71.0	-75.0	0.1666666666666666	15.0	4.0	2.0	2.291268532950664	1.413	3.0	stim	poldrack-single-stim	s553	False	1
292.626	1.5	291.875	n/a	-1.0	2.59	columbia_card_task_fmri	n/a	n/a	-1.0	n/a	n/a	n/a	n/a	n/a	n/a	n/a	n/a	ITI	poldrack-single-stim	s553	False	0
294.468	4.71	299.178	0.4559112359112353	draw_card	4.71	columbia_card_task_fmri	2.0	0.9375	89.0	-25.0	0.0625	16.0	1.0	1.0	-25.45817441154644	4.71	1.0	stim	poldrack-single-stim	s553	False	0
299.936	1.5	299.185	n/a	-1.0	2.726	columbia_card_task_fmri	n/a	n/a	-1.0	n/a	n/a	n/a	n/a	n/a	n/a	n/a	n/a	ITI	poldrack-single-stim	s553	False	0
301.915	2.764	304.679	2.6434112359112354	end_round	2.764	columbia_card_task_fmri	9.0	0.9375	71.0	-95.0	0.0625	16.0	1.0	1.0	-6.820606813973736	2.764	0.0	stim	poldrack-single-stim	s553	False	1
305.436	1.5	304.685	n/a	-1.0	2.522	columbia_card_task_fmri	n/a	n/a	-1.0	n/a	n/a	n/a	n/a	n/a	n/a	n/a	n/a	ITI	poldrack-single-stim	s553	False	0
307.211	4.142	311.353	4.205911235911235	draw_card	4.142	columbia_card_task_fmri	11.0	0.9375	89.0	-100.0	0.0625	16.0	1.0	1.0	-5.126202359809884	4.142	n/a	stim	poldrack-single-stim	s553	False	1
311.357	1.325	312.682	3.743411235911236	draw_card	1.325	columbia_card_task_fmri	11.0	0.9333333333333332	89.0	-100.0	0.0666666666666666	16.0	2.0	1.0	-4.306770988649273	1.325	n/a	stim	poldrack-single-stim	s553	False	1
312.684	1.19	313.874	3.2148398073398083	draw_card	1.19	columbia_card_task_fmri	11.0	0.9285714285714286	89.0	-100.0	0.0714285714285714	16.0	3.0	1.0	-3.408176498293127	1.19	n/a	stim	poldrack-single-stim	s553	False	1
313.878	1.198	315.076	2.604949697449698	end_round	1.198	columbia_card_task_fmri	11.0	0.9230769230769232	71.0	-100.0	0.0769230769230769	16.0	4.0	1.0	-2.416960973946942	1.198	3.0	stim	poldrack-single-stim	s553	False	1
315.832	1.5	315.081	n/a	-1.0	3.134	columbia_card_task_fmri	n/a	n/a	-1.0	n/a	n/a	n/a	n/a	n/a	n/a	n/a	n/a	ITI	poldrack-single-stim	s553	False	0
318.22	2.794	321.014	4.768411235911235	draw_card	2.794	columbia_card_task_fmri	16.0	0.875	89.0	-75.0	0.125	16.0	1.0	2.0	-1.899644192889415	2.794	n/a	stim	poldrack-single-stim	s553	False	1
321.017	0.697	321.714	4.010077902577902	draw_card	0.697	columbia_card_task_fmri	16.0	0.8666666666666667	89.0	-75.0	0.1333333333333333	16.0	2.0	2.0	-1.0610229036864105	0.697	n/a	stim	poldrack-single-stim	s553	False	1
321.716	0.719	322.435	3.143411235911237	draw_card	0.719	columbia_card_task_fmri	16.0	0.8571428571428572	89.0	-75.0	0.1428571428571428	16.0	3.0	2.0	-0.1517174559651479	0.719	3.0	stim	poldrack-single-stim	s553	False	0
323.189	1.5	322.438	n/a	-1.0	2.386	columbia_card_task_fmri	n/a	n/a	-1.0	n/a	n/a	n/a	n/a	n/a	n/a	n/a	n/a	ITI	poldrack-single-stim	s553	False	0
324.827	2.282	327.109	5.018411235911235	draw_card	2.282	columbia_card_task_fmri	17.0	0.875	89.0	-80.0	0.125	16.0	1.0	2.0	0.0846481551047695	2.282	n/a	stim	poldrack-single-stim	s553	False	1
327.112	0.572	327.684	4.210077902577903	draw_card	0.572	columbia_card_task_fmri	17.0	0.8666666666666667	89.0	-80.0	0.1333333333333333	16.0	2.0	2.0	0.9785643394127028	0.572	n/a	stim	poldrack-single-stim	s553	False	1
327.686	1.106	328.792	3.2862683787683813	draw_card	1.106	columbia_card_task_fmri	17.0	0.8571428571428572	89.0	-80.0	0.1428571428571428	16.0	3.0	2.0	1.9478252055265024	1.106	n/a	stim	poldrack-single-stim	s553	False	1
328.795	0.71	329.505	2.220334312834312	end_round	0.71	columbia_card_task_fmri	17.0	0.8461538461538461	71.0	-80.0	0.1538461538461538	16.0	4.0	2.0	3.0026043744414075	0.71	3.0	stim	poldrack-single-stim	s553	False	1
330.261	1.5	329.51	n/a	-1.0	2.386	columbia_card_task_fmri	n/a	n/a	-1.0	n/a	n/a	n/a	n/a	n/a	n/a	n/a	n/a	ITI	poldrack-single-stim	s553	False	0
342.911	3.708	346.619	-0.6899220974220968	draw_card	3.708	columbia_card_task_fmri	13.0	0.8333333333333334	89.0	-70.0	0.1666666666666666	6.0	1.0	1.0	-1.062800911627377	3.708	n/a	stim	poldrack-single-stim	s553	False	1
346.622	1.482	348.104	-3.4565887640887643	draw_card	1.482	columbia_card_task_fmri	13.0	0.8	89.0	-70.0	0.2	6.0	2.0	1.0	1.2049026920619743	1.482	n/a	stim	poldrack-single-stim	s553	False	1
348.106	0.916	349.022	-7.606588764088765	end_round	0.916	columbia_card_task_fmri	13.0	0.75	71.0	-70.0	0.25	6.0	3.0	1.0	3.944933334924404	0.916	2.0	stim	poldrack-single-stim	s553	False	1
349.78	1.5	349.029	n/a	-1.0	2.318	columbia_card_task_fmri	n/a	n/a	-1.0	n/a	n/a	n/a	n/a	n/a	n/a	n/a	n/a	ITI	poldrack-single-stim	s553	False	0
351.35	2.647	353.997	-0.6899220974220968	draw_card	2.647	columbia_card_task_fmri	15.0	0.8333333333333334	89.0	-80.0	0.1666666666666666	6.0	1.0	1.0	3.409293050459045	2.647	n/a	stim	poldrack-single-stim	s553	False	1
354.0	1.262	355.262	-3.8565887640887646	draw_card	1.262	columbia_card_task_fmri	15.0	0.8	89.0	-80.0	0.2	6.0	2.0	1.0	6.004863567401987	1.262	n/a	stim	poldrack-single-stim	s553	False	1
355.265	0.786	356.051	-8.606588764088764	end_round	0.786	columbia_card_task_fmri	15.0	0.75	71.0	-80.0	0.25	6.0	3.0	1.0	9.141049615753072	0.786	2.0	stim	poldrack-single-stim	s553	False	1
356.805	1.5	356.054	n/a	-1.0	2.318	columbia_card_task_fmri	n/a	n/a	-1.0	n/a	n/a	n/a	n/a	n/a	n/a	n/a	n/a	ITI	poldrack-single-stim	s553	False	0
358.375	2.038	360.413	0.9767445692445692	draw_card	2.038	columbia_card_task_fmri	16.0	0.8333333333333334	89.0	-75.0	0.1666666666666666	6.0	1.0	1.0	1.9185938325521512	2.038	n/a	stim	poldrack-single-stim	s553	False	1
360.416	1.202	361.618	-2.056588764088764	draw_card	1.202	columbia_card_task_fmri	16.0	0.8	89.0	-75.0	0.2	6.0	2.0	1.0	4.40487546245873	1.202	n/a	stim	poldrack-single-stim	s553	False	1
361.621	0.696	362.317	-6.606588764088765	end_round	0.696	columbia_card_task_fmri	16.0	0.75	71.0	-75.0	0.25	6.0	3.0	1.0	7.409009796384911	0.696	2.0	stim	poldrack-single-stim	s553	False	1
363.071	1.5	362.32	n/a	-1.0	2.862	columbia_card_task_fmri	n/a	n/a	-1.0	n/a	n/a	n/a	n/a	n/a	n/a	n/a	n/a	ITI	poldrack-single-stim	s553	False	0
365.186	3.753	368.939	2.1434112359112354	draw_card	3.753	columbia_card_task_fmri	21.0	0.75	89.0	-55.0	0.25	8.0	1.0	2.0	0.9138707750635966	3.753	1.0	stim	poldrack-single-stim	s553	False	0
369.693	1.5	368.942	n/a	-1.0	2.726	columbia_card_task_fmri	n/a	n/a	-1.0	n/a	n/a	n/a	n/a	n/a	n/a	n/a	n/a	ITI	poldrack-single-stim	s553	False	0
371.672	2.661	374.333	3.3934112359112354	draw_card	2.661	columbia_card_task_fmri	26.0	0.75	89.0	-65.0	0.25	8.0	1.0	2.0	7.409009796384911	2.661	n/a	stim	poldrack-single-stim	s553	False	1
374.336	1.792	376.128	0.1434112359112389	draw_card	1.792	columbia_card_task_fmri	26.0	0.7142857142857143	89.0	-65.0	0.2857142857142857	8.0	2.0	2.0	9.114452679914326	1.792	n/a	stim	poldrack-single-stim	s553	False	1
376.131	2.373	378.504	-4.189922097422094	draw_card	2.373	columbia_card_task_fmri	26.0	0.6666666666666667	89.0	-65.0	0.3333333333333333	8.0	3.0	2.0	10.902644062439666	2.373	n/a	stim	poldrack-single-stim	s553	False	1
378.508	0.86	379.368	-10.256588764088765	end_round	0.86	columbia_card_task_fmri	26.0	0.6	71.0	-65.0	0.4	8.0	4.0	2.0	12.585536939923603	0.86	3.0	stim	poldrack-single-stim	s553	False	1
380.121	1.5	379.37	n/a	-1.0	2.25	columbia_card_task_fmri	n/a	n/a	-1.0	n/a	n/a	n/a	n/a	n/a	n/a	n/a	n/a	ITI	poldrack-single-stim	s553	False	0
381.624	2.847	384.471	-1.523255430755431	draw_card	2.847	columbia_card_task_fmri	15.0	0.7777777777777778	89.0	-60.0	0.2222222222222222	9.0	1.0	2.0	-0.814599023591402	2.847	1.0	stim	poldrack-single-stim	s553	False	0
385.227	1.5	384.476	n/a	-1.0	2.318	columbia_card_task_fmri	n/a	n/a	-1.0	n/a	n/a	n/a	n/a	n/a	n/a	n/a	n/a	ITI	poldrack-single-stim	s553	False	0
386.798	1.961	388.759	2.8434112359112365	end_round	1.961	columbia_card_task_fmri	13.0	0.9	71.0	-90.0	0.1	10.0	1.0	1.0	-1.0950742531521485	1.961	0.0	stim	poldrack-single-stim	s553	False	1
389.512	1.5	388.761	n/a	-1.0	2.454	columbia_card_task_fmri	n/a	n/a	-1.0	n/a	n/a	n/a	n/a	n/a	n/a	n/a	n/a	ITI	poldrack-single-stim	s553	False	0
391.22	2.408	393.628	4.143411235911235	end_round	2.408	columbia_card_task_fmri	15.0	0.9	71.0	-95.0	0.1	10.0	1.0	1.0	1.0049045692519163	2.408	0.0	stim	poldrack-single-stim	s553	False	1
394.383	1.5	393.632	n/a	-1.0	2.522	columbia_card_task_fmri	n/a	n/a	-1.0	n/a	n/a	n/a	n/a	n/a	n/a	n/a	n/a	ITI	poldrack-single-stim	s553	False	0
396.157	3.471	399.628	-0.0565887640887639	draw_card	3.471	columbia_card_task_fmri	16.0	0.8	89.0	-65.0	0.2	10.0	1.0	2.0	0.4049103398708418	3.471	n/a	stim	poldrack-single-stim	s553	False	1
399.631	1.582	401.213	-1.8565887640887628	draw_card	1.582	columbia_card_task_fmri	16.0	0.7777777777777778	89.0	-65.0	0.2222222222222222	10.0	2.0	2.0	1.6798148048225665	1.582	n/a	stim	poldrack-single-stim	s553	False	1
401.216	1.321	402.537	-4.106588764088765	draw_card	1.321	columbia_card_task_fmri	16.0	0.75	89.0	-65.0	0.25	10.0	3.0	2.0	3.0789149958980424	1.321	n/a	stim	poldrack-single-stim	s553	False	1
402.539	0.924	403.463	-6.999445906945906	end_round	0.924	columbia_card_task_fmri	16.0	0.7142857142857143	71.0	-65.0	0.2857142857142857	10.0	4.0	2.0	4.59694404725283	0.924	3.0	stim	poldrack-single-stim	s553	False	1
404.219	1.5	403.468	n/a	-1.0	2.318	columbia_card_task_fmri	n/a	n/a	-1.0	n/a	n/a	n/a	n/a	n/a	n/a	n/a	n/a	ITI	poldrack-single-stim	s553	False	0
405.791	3.967	409.758	-1.3565887640887646	end_round	3.967	columbia_card_task_fmri	7.0	0.9166666666666666	71.0	-95.0	0.0833333333333333	12.0	1.0	1.0	-3.803731559870755	3.967	0.0	stim	poldrack-single-stim	s553	False	1
410.512	1.5	409.761	n/a	-1.0	2.522	columbia_card_task_fmri	n/a	n/a	-1.0	n/a	n/a	n/a	n/a	n/a	n/a	n/a	n/a	ITI	poldrack-single-stim	s553	False	0
412.286	3.216	415.502	-0.6899220974220968	draw_card	3.216	columbia_card_task_fmri	14.0	0.8333333333333334	89.0	-75.0	0.1666666666666666	12.0	1.0	2.0	1.173244653944284	3.216	n/a	stim	poldrack-single-stim	s553	False	1
415.505	1.588	417.093	-2.038406945906948	draw_card	1.588	columbia_card_task_fmri	14.0	0.8181818181818181	89.0	-75.0	0.1818181818181818	12.0	2.0	2.0	2.331712629454227	1.588	n/a	stim	poldrack-single-stim	s553	False	1
417.098	0.654	417.752	-3.656588764088764	draw_card	0.654	columbia_card_task_fmri	14.0	0.8	89.0	-75.0	0.2	12.0	3.0	2.0	3.6048818109393217	0.654	n/a	stim	poldrack-single-stim	s553	False	1
417.756	0.86	418.616	-5.63436654186654	end_round	0.86	columbia_card_task_fmri	14.0	0.7777777777777778	71.0	-75.0	0.2222222222222222	12.0	4.0	2.0	5.005705033088002	0.86	3.0	stim	poldrack-single-stim	s553	False	1
419.369	1.5	418.618	n/a	-1.0	2.998	columbia_card_task_fmri	n/a	n/a	-1.0	n/a	n/a	n/a	n/a	n/a	n/a	n/a	n/a	ITI	poldrack-single-stim	s553	False	0
421.621	3.704	425.325	0.9767445692445692	draw_card	3.704	columbia_card_task_fmri	15.0	0.8333333333333334	89.0	-70.0	0.1666666666666666	12.0	1.0	2.0	-0.3174527413244448	3.704	1.0	stim	poldrack-single-stim	s553	False	0
426.081	1.5	425.33	n/a	-1.0	2.318	columbia_card_task_fmri	n/a	n/a	-1.0	n/a	n/a	n/a	n/a	n/a	n/a	n/a	n/a	ITI	poldrack-single-stim	s553	False	0
427.653	3.143	430.796	-1.056588764088764	draw_card	3.143	columbia_card_task_fmri	16.0	0.8	89.0	-70.0	0.2	15.0	1.0	3.0	2.4048918872997724	3.143	n/a	stim	poldrack-single-stim	s553	False	1
430.799	1.389	432.188	-2.285160192660193	draw_card	1.389	columbia_card_task_fmri	16.0	0.7857142857142857	89.0	-70.0	0.2142857142857142	15.0	2.0	3.0	3.292912050514733	1.389	n/a	stim	poldrack-single-stim	s553	False	1
432.192	2.128	434.32	-3.7027426102426113	draw_card	2.128	columbia_card_task_fmri	16.0	0.7692307692307692	89.0	-70.0	0.2307692307692307	15.0	3.0	3.0	4.238830561268994	2.128	3.0	stim	poldrack-single-stim	s553	False	0
435.077	1.5	434.326	n/a	-1.0	2.25	columbia_card_task_fmri	n/a	n/a	-1.0	n/a	n/a	n/a	n/a	n/a	n/a	n/a	n/a	ITI	poldrack-single-stim	s553	False	0
436.58	3.842	440.422	-0.6690887640887646	draw_card	3.842	columbia_card_task_fmri	14.0	0.8125	89.0	-65.0	0.1875	16.0	1.0	3.0	-1.16039593105301	3.842	n/a	stim	poldrack-single-stim	s553	False	1
440.425	1.899	442.324	-1.6565887640887635	draw_card	1.899	columbia_card_task_fmri	14.0	0.8	89.0	-65.0	0.2	16.0	2.0	3.0	-0.3950816250953011	1.899	n/a	stim	poldrack-single-stim	s553	False	1
442.327	0.756	443.083	-2.785160192660192	draw_card	0.756	columbia_card_task_fmri	14.0	0.7857142857142857	89.0	-65.0	0.2142857142857142	16.0	3.0	3.0	0.4206565483049793	0.756	n/a	stim	poldrack-single-stim	s553	False	1
443.086	0.892	443.978	-4.087357994857997	end_round	0.892	columbia_card_task_fmri	14.0	0.7692307692307692	71.0	-65.0	0.2307692307692307	16.0	4.0	3.0	1.2895803986161916	0.892	3.0	stim	poldrack-single-stim	s553	False	1
444.737	1.5	443.986	n/a	-1.0	2.454	columbia_card_task_fmri	n/a	n/a	-1.0	n/a	n/a	n/a	n/a	n/a	n/a	n/a	n/a	ITI	poldrack-single-stim	s553	False	0
446.443	2.399	448.842	-0.9190887640887646	draw_card	2.399	columbia_card_task_fmri	16.0	0.8125	89.0	-75.0	0.1875	16.0	1.0	3.0	3.52330859023483	2.399	n/a	stim	poldrack-single-stim	s553	False	1
448.846	0.629	449.475	-2.056588764088764	draw_card	0.629	columbia_card_task_fmri	16.0	0.8	89.0	-75.0	0.2	16.0	2.0	3.0	4.40487546245873	0.629	n/a	stim	poldrack-single-stim	s553	False	1
449.479	0.386	449.865	-3.356588764088763	draw_card	0.386	columbia_card_task_fmri	16.0	0.7857142857142857	89.0	-75.0	0.2142857142857142	16.0	3.0	3.0	5.34452555561781	0.386	3.0	stim	poldrack-single-stim	s553	False	0
450.621	1.5	449.87	n/a	-1.0	2.318	columbia_card_task_fmri	n/a	n/a	-1.0	n/a	n/a	n/a	n/a	n/a	n/a	n/a	n/a	ITI	poldrack-single-stim	s553	False	0
452.193	1.888	454.081	3.3434112359112365	end_round	1.888	columbia_card_task_fmri	16.0	0.8666666666666667	71.0	-80.0	0.1333333333333333	15.0	1.0	2.0	0.63863295373962	1.888	0.0	stim	poldrack-single-stim	s553	False	1
454.835	1.5	454.084	n/a	-1.0	2.318	columbia_card_task_fmri	n/a	n/a	-1.0	n/a	n/a	n/a	n/a	n/a	n/a	n/a	n/a	ITI	poldrack-single-stim	s553	False	0
456.406	2.214	458.62	4.210077902577903	end_round	2.214	columbia_card_task_fmri	17.0	0.8666666666666667	71.0	-80.0	0.1333333333333333	15.0	1.0	2.0	0.9785643394127028	2.214	0.0	stim	poldrack-single-stim	s553	False	1
459.373	1.5	458.622	n/a	-1.0	2.59	columbia_card_task_fmri	n/a	n/a	-1.0	n/a	n/a	n/a	n/a	n/a	n/a	n/a	n/a	ITI	poldrack-single-stim	s553	False	0
461.217	2.2	463.417	0.1434112359112353	draw_card	2.2	columbia_card_task_fmri	1.0	0.9375	89.0	-15.0	0.0625	16.0	1.0	1.0	-28.11976945028434	2.2	n/a	stim	poldrack-single-stim	s553	False	1
463.421	1.048	464.469	0.0767445692445686	draw_card	1.048	columbia_card_task_fmri	1.0	0.9333333333333332	89.0	-15.0	0.0666666666666666	16.0	2.0	1.0	-28.001730085862704	1.048	n/a	stim	poldrack-single-stim	s553	False	1
464.472	2.127	466.599	0.0005540930540925	draw_card	2.127	columbia_card_task_fmri	1.0	0.9285714285714286	89.0	-15.0	0.0714285714285714	16.0	3.0	1.0	-27.87228218620398	2.127	n/a	stim	poldrack-single-stim	s553	False	1
466.603	0.692	467.295	-0.0873579948579955	draw_card	0.692	columbia_card_task_fmri	1.0	0.9230769230769232	89.0	-15.0	0.0769230769230769	16.0	4.0	1.0	-27.729486094400983	0.692	n/a	stim	poldrack-single-stim	s553	False	1
467.299	0.812	468.111	-0.189922097422098	draw_card	0.812	columbia_card_task_fmri	1.0	0.9166666666666666	89.0	-15.0	0.0833333333333333	16.0	5.0	1.0	-27.570915851798265	0.812	n/a	stim	poldrack-single-stim	s553	False	1
468.114	0.73	468.844	-0.3111342186342193	end_round	0.73	columbia_card_task_fmri	1.0	0.9090909090909092	71.0	-15.0	0.0909090909090909	16.0	6.0	1.0	-27.393495316623	0.73	5.0	stim	poldrack-single-stim	s553	False	1
469.602	1.5	468.851	n/a	-1.0	2.25	columbia_card_task_fmri	n/a	n/a	-1.0	n/a	n/a	n/a	n/a	n/a	n/a	n/a	n/a	ITI	poldrack-single-stim	s553	False	0
471.104	1.978	473.082	3.2684112359112354	end_round	1.978	columbia_card_task_fmri	10.0	0.9375	71.0	-100.0	0.0625	16.0	1.0	1.0	-5.368260339697439	1.978	0.0	stim	poldrack-single-stim	s553	False	1
473.837	1.5	473.086	n/a	-1.0	2.25	columbia_card_task_fmri	n/a	n/a	-1.0	n/a	n/a	n/a	n/a	n/a	n/a	n/a	n/a	ITI	poldrack-single-stim	s553	False	0
475.34	2.055	477.395	3.8934112359112354	draw_card	2.055	columbia_card_task_fmri	15.0	0.875	89.0	-75.0	0.125	16.0	1.0	2.0	-2.230359310250254	2.055	n/a	stim	poldrack-single-stim	s553	False	1
477.398	0.675	478.073	3.1434112359112354	draw_card	0.675	columbia_card_task_fmri	15.0	0.8666666666666667	89.0	-75.0	0.1333333333333333	16.0	2.0	2.0	-1.4009538443250378	0.675	n/a	stim	poldrack-single-stim	s553	False	1
478.076	1.684	479.76	2.2862683787683795	draw_card	1.684	columbia_card_task_fmri	15.0	0.8571428571428572	89.0	-75.0	0.1428571428571428	16.0	3.0	2.0	-0.5016409739468202	1.684	n/a	stim	poldrack-single-stim	s553	False	1
479.764	0.51	480.274	1.2972573897573887	end_round	0.51	columbia_card_task_fmri	15.0	0.8461538461538461	71.0	-75.0	0.1538461538461538	16.0	4.0	2.0	0.4770187415428388	0.51	3.0	stim	poldrack-single-stim	s553	False	1
481.029	1.5	480.278	n/a	-1.0	2.522	columbia_card_task_fmri	n/a	n/a	-1.0	n/a	n/a	n/a	n/a	n/a	n/a	n/a	n/a	ITI	poldrack-single-stim	s553	False	0
482.805	6.202	489.007	4.143411235911235	draw_card	6.202	columbia_card_task_fmri	16.0	0.875	89.0	-80.0	0.125	16.0	1.0	2.0	-0.2460674196909273	6.202	n/a	stim	poldrack-single-stim	s553	False	1
489.011	1.763	490.774	3.3434112359112365	draw_card	1.763	columbia_card_task_fmri	16.0	0.8666666666666667	89.0	-80.0	0.1333333333333333	16.0	2.0	2.0	0.63863295373962	1.763	n/a	stim	poldrack-single-stim	s553	False	1
490.778	3.286	494.064	2.429125521625524	draw_card	3.286	columbia_card_task_fmri	16.0	0.8571428571428572	89.0	-80.0	0.1428571428571428	16.0	3.0	2.0	1.5979012552179803	3.286	n/a	stim	poldrack-single-stim	s553	False	1
494.066	1.079	495.145	1.3741804666804651	end_round	1.079	columbia_card_task_fmri	16.0	0.8461538461538461	71.0	-80.0	0.1538461538461538	16.0	4.0	2.0	2.6418062228410726	1.079	3.0	stim	poldrack-single-stim	s553	False	1
495.9	1.5	495.149	n/a	-1.0	2.454	columbia_card_task_fmri	n/a	n/a	-1.0	n/a	n/a	n/a	n/a	n/a	n/a	n/a	n/a	ITI	poldrack-single-stim	s553	False	0
497.607	3.474	501.081	1.3309112359112354	draw_card	3.474	columbia_card_task_fmri	4.0	0.6875	89.0	-5.0	0.3125	16.0	1.0	5.0	-27.8213310377544	3.474	n/a	stim	poldrack-single-stim	s553	False	1
501.084	1.201	502.285	1.1434112359112358	draw_card	1.201	columbia_card_task_fmri	4.0	0.6666666666666667	89.0	-5.0	0.3333333333333333	16.0	2.0	5.0	-27.75034323347116	1.201	2.0	stim	poldrack-single-stim	s553	False	0
503.043	1.5	502.292	n/a	-1.0	2.25	columbia_card_task_fmri	n/a	n/a	-1.0	n/a	n/a	n/a	n/a	n/a	n/a	n/a	n/a	ITI	poldrack-single-stim	s553	False	0
504.546	3.367	507.913	-1.523255430755429	draw_card	3.367	columbia_card_task_fmri	14.0	0.8333333333333334	89.0	-80.0	0.1666666666666666	6.0	1.0	1.0	3.03661814411851	3.367	n/a	stim	poldrack-single-stim	s553	False	1
507.917	2.078	509.995	-4.656588764088764	draw_card	2.078	columbia_card_task_fmri	14.0	0.8	89.0	-80.0	0.2	6.0	2.0	1.0	5.604866446259852	2.078	n/a	stim	poldrack-single-stim	s553	False	1
509.998	0.787	510.785	-9.356588764088764	end_round	0.787	columbia_card_task_fmri	14.0	0.75	71.0	-80.0	0.25	6.0	3.0	1.0	8.70803957324004	0.787	2.0	stim	poldrack-single-stim	s553	False	1
511.54	1.5	510.789	n/a	-1.0	2.454	columbia_card_task_fmri	n/a	n/a	-1.0	n/a	n/a	n/a	n/a	n/a	n/a	n/a	n/a	ITI	poldrack-single-stim	s553	False	0
513.248	4.479	517.727	0.1434112359112353	draw_card	4.479	columbia_card_task_fmri	15.0	0.8333333333333334	89.0	-75.0	0.1666666666666666	6.0	1.0	1.0	1.5459192053937834	4.479	1.0	stim	poldrack-single-stim	s553	False	0
518.482	1.5	517.731	n/a	-1.0	2.454	columbia_card_task_fmri	n/a	n/a	-1.0	n/a	n/a	n/a	n/a	n/a	n/a	n/a	n/a	ITI	poldrack-single-stim	s553	False	0
520.189	4.481	524.67	1.8100779025779032	draw_card	4.481	columbia_card_task_fmri	16.0	0.8333333333333334	89.0	-70.0	0.1666666666666666	6.0	1.0	1.0	0.0552214802586057	4.481	n/a	stim	poldrack-single-stim	s553	False	1
524.675	1.016	525.691	-1.056588764088764	end_round	1.016	columbia_card_task_fmri	16.0	0.8	71.0	-70.0	0.2	6.0	2.0	1.0	2.4048918872997724	1.016	1.0	stim	poldrack-single-stim	s553	False	1
526.446	1.5	525.695	n/a	-1.0	2.522	columbia_card_task_fmri	n/a	n/a	-1.0	n/a	n/a	n/a	n/a	n/a	n/a	n/a	n/a	ITI	poldrack-single-stim	s553	False	0
528.222	3.217	531.439	2.3934112359112354	draw_card	3.217	columbia_card_task_fmri	23.0	0.75	89.0	-60.0	0.25	8.0	1.0	2.0	3.944933334924404	3.217	n/a	stim	poldrack-single-stim	s553	False	1
531.442	1.596	533.038	-0.5708744783744764	end_round	1.596	columbia_card_task_fmri	23.0	0.7142857142857143	71.0	-60.0	0.2857142857142857	8.0	2.0	2.0	5.5004451784784685	1.596	1.0	stim	poldrack-single-stim	s553	False	1
533.793	1.5	533.042	n/a	-1.0	2.454	columbia_card_task_fmri	n/a	n/a	-1.0	n/a	n/a	n/a	n/a	n/a	n/a	n/a	n/a	ITI	poldrack-single-stim	s553	False	0
535.502	1.511	537.013	2.8934112359112354	draw_card	1.511	columbia_card_task_fmri	27.0	0.75	89.0	-70.0	0.25	8.0	1.0	2.0	10.007069865275351	1.511	1.0	stim	poldrack-single-stim	s553	False	0
537.767	1.5	537.016	n/a	-1.0	2.658	columbia_card_task_fmri	n/a	n/a	-1.0	n/a	n/a	n/a	n/a	n/a	n/a	n/a	n/a	ITI	poldrack-single-stim	s553	False	0
539.678	2.52	542.198	-1.8565887640887628	end_round	2.52	columbia_card_task_fmri	16.0	0.7777777777777778	71.0	-65.0	0.2222222222222222	9.0	1.0	2.0	1.6798148048225665	2.52	0.0	stim	poldrack-single-stim	s553	False	1
542.955	1.5	542.204	n/a	-1.0	2.386	columbia_card_task_fmri	n/a	n/a	-1.0	n/a	n/a	n/a	n/a	n/a	n/a	n/a	n/a	ITI	poldrack-single-stim	s553	False	0
544.596	1.091	545.687	3.3434112359112365	end_round	1.091	columbia_card_task_fmri	13.0	0.9	71.0	-85.0	0.1	10.0	1.0	1.0	-2.5950572740613573	1.091	0.0	stim	poldrack-single-stim	s553	False	1
546.442	1.5	545.691	n/a	-1.0	2.522	columbia_card_task_fmri	n/a	n/a	-1.0	n/a	n/a	n/a	n/a	n/a	n/a	n/a	n/a	ITI	poldrack-single-stim	s553	False	0
548.217	3.704	551.921	-1.6565887640887635	draw_card	3.704	columbia_card_task_fmri	14.0	0.8	89.0	-65.0	0.2	10.0	1.0	2.0	-0.3950816250953011	3.704	1.0	stim	poldrack-single-stim	s553	False	0
552.678	1.5	551.927	n/a	-1.0	2.59	columbia_card_task_fmri	n/a	n/a	-1.0	n/a	n/a	n/a	n/a	n/a	n/a	n/a	n/a	ITI	poldrack-single-stim	s553	False	0
554.521	2.605	557.126	-0.2565887640887632	draw_card	2.605	columbia_card_task_fmri	17.0	0.8	89.0	-70.0	0.2	10.0	1.0	2.0	2.804888451300446	2.605	n/a	stim	poldrack-single-stim	s553	False	1
557.131	1.176	558.307	-2.1899220974220968	draw_card	1.176	columbia_card_task_fmri	17.0	0.7777777777777778	89.0	-70.0	0.2222222222222222	10.0	2.0	2.0	4.174232002770996	1.176	n/a	stim	poldrack-single-stim	s553	False	1
558.31	0.694	559.004	-4.606588764088765	end_round	0.694	columbia_card_task_fmri	17.0	0.75	71.0	-70.0	0.25	10.0	3.0	2.0	5.6769709874154906	0.694	2.0	stim	poldrack-single-stim	s553	False	1
559.762	1.5	559.011	n/a	-1.0	2.386	columbia_card_task_fmri	n/a	n/a	-1.0	n/a	n/a	n/a	n/a	n/a	n/a	n/a	n/a	ITI	poldrack-single-stim	s553	False	0
561.402	2.2	563.602	-1.523255430755431	end_round	2.2	columbia_card_task_fmri	13.0	0.8333333333333334	71.0	-75.0	0.1666666666666666	12.0	1.0	2.0	0.8005701807846002	2.2	0.0	stim	poldrack-single-stim	s553	False	1
564.358	1.5	563.607	n/a	-1.0	2.59	columbia_card_task_fmri	n/a	n/a	-1.0	n/a	n/a	n/a	n/a	n/a	n/a	n/a	n/a	ITI	poldrack-single-stim	s553	False	0
566.203	4.146	570.349	0.1434112359112371	draw_card	4.146	columbia_card_task_fmri	14.0	0.8333333333333334	89.0	-70.0	0.1666666666666666	12.0	1.0	2.0	-0.6901268730358794	4.146	1.0	stim	poldrack-single-stim	s553	False	0
571.105	1.5	570.354	n/a	-1.0	2.318	columbia_card_task_fmri	n/a	n/a	-1.0	n/a	n/a	n/a	n/a	n/a	n/a	n/a	n/a	ITI	poldrack-single-stim	s553	False	0
572.677	1.751	574.428	0.1434112359112371	end_round	1.751	columbia_card_task_fmri	16.0	0.8333333333333334	71.0	-80.0	0.1666666666666666	12.0	1.0	2.0	3.7819680211719096	1.751	0.0	stim	poldrack-single-stim	s553	False	1
575.184	1.5	574.433	n/a	-1.0	2.25	columbia_card_task_fmri	n/a	n/a	-1.0	n/a	n/a	n/a	n/a	n/a	n/a	n/a	n/a	ITI	poldrack-single-stim	s553	False	0
576.689	2.403	579.092	-0.0565887640887639	draw_card	2.403	columbia_card_task_fmri	16.0	0.8	89.0	-65.0	0.2	15.0	1.0	3.0	0.4049103398708418	2.403	n/a	stim	poldrack-single-stim	s553	False	1
579.097	1.111	580.208	-1.2137316212316205	draw_card	1.111	columbia_card_task_fmri	16.0	0.7857142857142857	89.0	-65.0	0.2142857142857142	15.0	2.0	3.0	1.2413005221161804	1.111	n/a	stim	poldrack-single-stim	s553	False	1
580.213	1.834	582.047	-2.548896456396458	end_round	1.834	columbia_card_task_fmri	16.0	0.7692307692307692	71.0	-65.0	0.2307692307692307	15.0	3.0	3.0	2.132222858727556	1.834	2.0	stim	poldrack-single-stim	s553	False	1
582.804	1.5	582.053	n/a	-1.0	2.454	columbia_card_task_fmri	n/a	n/a	-1.0	n/a	n/a	n/a	n/a	n/a	n/a	n/a	n/a	ITI	poldrack-single-stim	s553	False	0
584.512	2.413	586.925	-1.7315887640887646	draw_card	2.413	columbia_card_task_fmri	15.0	0.8125	89.0	-75.0	0.1875	16.0	1.0	3.0	3.132999432214252	2.413	n/a	stim	poldrack-single-stim	s553	False	1
586.929	0.942	587.871	-2.8565887640887646	draw_card	0.942	columbia_card_task_fmri	15.0	0.8	89.0	-75.0	0.2	16.0	2.0	3.0	4.004878601430104	0.942	2.0	stim	poldrack-single-stim	s553	False	0
588.628	1.5	587.877	n/a	-1.0	3.27	columbia_card_task_fmri	n/a	n/a	-1.0	n/a	n/a	n/a	n/a	n/a	n/a	n/a	n/a	ITI	poldrack-single-stim	s553	False	0
591.152	2.655	593.807	-1.1690887640887646	draw_card	2.655	columbia_card_task_fmri	14.0	0.6875	89.0	-35.0	0.3125	16.0	1.0	5.0	-9.282846413646954	2.655	1.0	stim	poldrack-single-stim	s553	False	0
594.563	1.5	593.812	n/a	-1.0	2.25	columbia_card_task_fmri	n/a	n/a	-1.0	n/a	n/a	n/a	n/a	n/a	n/a	n/a	n/a	ITI	poldrack-single-stim	s553	False	0
596.067	3.946	600.013	4.010077902577902	draw_card	3.946	columbia_card_task_fmri	16.0	0.8666666666666667	89.0	-75.0	0.1333333333333333	15.0	1.0	2.0	-1.0610229036864105	3.946	n/a	stim	poldrack-single-stim	s553	False	1
600.017	1.086	601.103	3.143411235911237	draw_card	1.086	columbia_card_task_fmri	16.0	0.8571428571428572	89.0	-75.0	0.1428571428571428	15.0	2.0	2.0	-0.1517174559651479	1.086	n/a	stim	poldrack-single-stim	s553	False	1
601.108	1.002	602.11	2.1434112359112354	end_round	1.002	columbia_card_task_fmri	16.0	0.8461538461538461	71.0	-75.0	0.1538461538461538	15.0	3.0	2.0	0.837816473845411	1.002	2.0	stim	poldrack-single-stim	s553	False	1
602.865	1.5	602.114	n/a	-1.0	2.25	columbia_card_task_fmri	n/a	n/a	-1.0	n/a	n/a	n/a	n/a	n/a	n/a	n/a	n/a	ITI	poldrack-single-stim	s553	False	0
604.37	6.44	610.81	4.676744569244568	draw_card	6.44	columbia_card_task_fmri	16.0	0.8666666666666667	89.0	-70.0	0.1333333333333333	15.0	1.0	2.0	-2.7606767479176	6.44	n/a	stim	poldrack-single-stim	s553	False	1
610.814	1.509	612.323	3.857696950196951	draw_card	1.509	columbia_card_task_fmri	16.0	0.8571428571428572	89.0	-70.0	0.1428571428571428	15.0	2.0	2.0	-1.901334211438385	1.509	n/a	stim	poldrack-single-stim	s553	False	1
612.327	2.264	614.591	2.912642005142004	end_round	2.264	columbia_card_task_fmri	16.0	0.8461538461538461	71.0	-70.0	0.1538461538461538	15.0	3.0	2.0	-0.9661713783796272	2.264	2.0	stim	poldrack-single-stim	s553	False	1
615.347	1.5	614.596	n/a	-1.0	2.318	columbia_card_task_fmri	n/a	n/a	-1.0	n/a	n/a	n/a	n/a	n/a	n/a	n/a	n/a	ITI	poldrack-single-stim	s553	False	0
616.918	3.854	620.772	2.0184112359112354	end_round	3.854	columbia_card_task_fmri	8.0	0.9375	71.0	-90.0	0.0625	16.0	1.0	1.0	-8.27295056008986	3.854	0.0	stim	poldrack-single-stim	s553	False	1
621.531	1.5	620.78	n/a	-1.0	2.726	columbia_card_task_fmri	n/a	n/a	-1.0	n/a	n/a	n/a	n/a	n/a	n/a	n/a	n/a	ITI	poldrack-single-stim	s553	False	0
623.511	2.633	626.144	3.5809112359112354	end_round	2.633	columbia_card_task_fmri	10.0	0.9375	71.0	-95.0	0.0625	16.0	1.0	1.0	-6.57854924508662	2.633	0.0	stim	poldrack-single-stim	s553	False	1
626.9	1.5	626.149	n/a	-1.0	2.386	columbia_card_task_fmri	n/a	n/a	-1.0	n/a	n/a	n/a	n/a	n/a	n/a	n/a	n/a	ITI	poldrack-single-stim	s553	False	0
628.541	2.512	631.053	4.518411235911235	draw_card	2.512	columbia_card_task_fmri	15.0	0.875	89.0	-70.0	0.125	16.0	1.0	2.0	-3.883933557130504	2.512	n/a	stim	poldrack-single-stim	s553	False	1
631.057	2.174	633.231	3.8100779025779015	draw_card	2.174	columbia_card_task_fmri	15.0	0.8666666666666667	89.0	-70.0	0.1333333333333333	16.0	2.0	2.0	-3.1006072439174552	2.174	n/a	stim	poldrack-single-stim	s553	False	1
633.234	1.346	634.58	3.000554093054093	draw_card	1.346	columbia_card_task_fmri	15.0	0.8571428571428572	89.0	-70.0	0.1428571428571428	16.0	3.0	2.0	-2.2512572974774976	1.346	n/a	stim	poldrack-single-stim	s553	False	1
634.585	0.855	635.44	2.066488158988157	end_round	0.855	columbia_card_task_fmri	15.0	0.8461538461538461	71.0	-70.0	0.1538461538461538	16.0	4.0	2.0	-1.3269686917570418	0.855	3.0	stim	poldrack-single-stim	s553	False	1
636.195	1.5	635.444	n/a	-1.0	2.318	columbia_card_task_fmri	n/a	n/a	-1.0	n/a	n/a	n/a	n/a	n/a	n/a	n/a	n/a	ITI	poldrack-single-stim	s553	False	0
637.768	1.407	639.175	3.5184112359112354	end_round	1.407	columbia_card_task_fmri	16.0	0.875	71.0	-85.0	0.125	16.0	1.0	2.0	1.407511115483555	1.407	0.0	stim	poldrack-single-stim	s553	False	1
639.933	1.5	639.182	n/a	-1.0	2.25	columbia_card_task_fmri	n/a	n/a	-1.0	n/a	n/a	n/a	n/a	n/a	n/a	n/a	n/a	ITI	poldrack-single-stim	s553	False	0
