duration	onset	block_duration	movement_onset	planning	condition	exp_stage	experiment_exp_id	key_press	problem_id	response_time	trial_id	trial_type	worker_id	junk
3.674	3.008	3.674	6.682	1	UA_with_intermediate	practice	ward_and_allport	71	0.0	3.674	to_hand	poldrack-single-stim	s554	False
0.1	6.683	0.701	7.384	0	UA_with_intermediate	practice	ward_and_allport	82	0.0	0.701	to_board	poldrack-single-stim	s554	False
0.1	7.386	0.658	8.044	0	UA_with_intermediate	practice	ward_and_allport	71	0.0	0.658	to_hand	poldrack-single-stim	s554	False
0.1	8.045	0.564	8.609	0	UA_with_intermediate	practice	ward_and_allport	89	0.0	0.564	to_board	poldrack-single-stim	s554	False
0.1	8.611	0.685	9.296	0	UA_with_intermediate	practice	ward_and_allport	82	0.0	0.685	to_hand	poldrack-single-stim	s554	False
0.1	9.296	0.504	9.8	0	UA_with_intermediate	practice	ward_and_allport	89	0.0	0.504	to_board	poldrack-single-stim	s554	False
1.0	9.804	2.5	9.803	0	UA_with_intermediate	practice	ward_and_allport	-1	0.0	n/a	feedback	poldrack-single-stim	s554	False
4.907	12.306	4.907	17.213	1	UA_with_intermediate	practice	ward_and_allport	89	1.0	4.907	to_hand	poldrack-single-stim	s554	False
0.1	17.214	1.173	18.387	0	UA_with_intermediate	practice	ward_and_allport	82	1.0	1.173	to_board	poldrack-single-stim	s554	False
0.1	18.388	0.487	18.875	0	UA_with_intermediate	practice	ward_and_allport	71	1.0	0.487	to_hand	poldrack-single-stim	s554	False
0.1	18.875	0.46	19.335	0	UA_with_intermediate	practice	ward_and_allport	89	1.0	0.46	to_board	poldrack-single-stim	s554	False
0.1	19.336	0.475	19.811	0	UA_with_intermediate	practice	ward_and_allport	82	1.0	0.475	to_hand	poldrack-single-stim	s554	False
0.1	19.812	0.393	20.205	0	UA_with_intermediate	practice	ward_and_allport	89	1.0	0.393	to_board	poldrack-single-stim	s554	False
1.0	20.208	2.1	20.207	0	UA_with_intermediate	practice	ward_and_allport	-1	1.0	n/a	feedback	poldrack-single-stim	s554	False
2.0	22.309	2.0	24.309	1	UA_without_intermediate	practice	ward_and_allport	82	2.0	2.0	to_hand	poldrack-single-stim	s554	False
0.1	24.31	0.587	24.897	0	UA_without_intermediate	practice	ward_and_allport	89	2.0	0.587	to_board	poldrack-single-stim	s554	False
0.1	24.899	0.412	25.311	0	UA_without_intermediate	practice	ward_and_allport	71	2.0	0.412	to_hand	poldrack-single-stim	s554	False
0.1	25.312	0.352	25.664	0	UA_without_intermediate	practice	ward_and_allport	89	2.0	0.352	to_board	poldrack-single-stim	s554	False
0.1	25.668	0.707	26.375	0	UA_without_intermediate	practice	ward_and_allport	71	2.0	0.707	to_hand	poldrack-single-stim	s554	False
0.1	26.375	0.324	26.699	0	UA_without_intermediate	practice	ward_and_allport	89	2.0	0.324	to_board	poldrack-single-stim	s554	False
1.0	26.702	2.2	26.701	0	UA_without_intermediate	practice	ward_and_allport	-1	2.0	n/a	feedback	poldrack-single-stim	s554	False
1.407	28.903	1.407	30.31	1	UA_without_intermediate	practice	ward_and_allport	71	3.0	1.407	to_hand	poldrack-single-stim	s554	False
0.1	30.311	0.544	30.855	0	UA_without_intermediate	practice	ward_and_allport	89	3.0	0.544	to_board	poldrack-single-stim	s554	False
0.1	30.858	1.098	31.956	0	UA_without_intermediate	practice	ward_and_allport	82	3.0	1.098	to_hand	poldrack-single-stim	s554	False
0.1	31.957	0.415	32.372	0	UA_without_intermediate	practice	ward_and_allport	89	3.0	0.415	to_board	poldrack-single-stim	s554	False
0.1	32.373	0.359	32.732	0	UA_without_intermediate	practice	ward_and_allport	71	3.0	0.359	to_hand	poldrack-single-stim	s554	False
0.1	32.733	0.381	33.114	0	UA_without_intermediate	practice	ward_and_allport	89	3.0	0.381	to_board	poldrack-single-stim	s554	False
1.0	33.117	2.0	33.116	0	UA_without_intermediate	practice	ward_and_allport	-1	3.0	n/a	feedback	poldrack-single-stim	s554	False
5.684	37.123	5.684	42.807	1	PA_with_intermediate	test	ward_and_allport	82	0.0	5.684	to_hand	poldrack-single-stim	s554	False
0.1	42.808	0.932	43.74	0	PA_with_intermediate	test	ward_and_allport	71	0.0	0.932	to_board	poldrack-single-stim	s554	False
0.1	43.741	0.988	44.729	0	PA_with_intermediate	test	ward_and_allport	82	0.0	0.988	to_hand	poldrack-single-stim	s554	False
0.1	44.732	0.406	45.138	0	PA_with_intermediate	test	ward_and_allport	89	0.0	0.406	to_board	poldrack-single-stim	s554	False
0.1	45.141	0.412	45.553	0	PA_with_intermediate	test	ward_and_allport	71	0.0	0.412	to_hand	poldrack-single-stim	s554	False
0.1	45.555	0.338	45.893	0	PA_with_intermediate	test	ward_and_allport	89	0.0	0.338	to_board	poldrack-single-stim	s554	False
1.0	45.895	3.768	45.894	0	PA_with_intermediate	test	ward_and_allport	-1	0.0	n/a	feedback	poldrack-single-stim	s554	False
2.574	49.666	2.574	52.24	1	PA_with_intermediate	test	ward_and_allport	71	1.0	2.574	to_hand	poldrack-single-stim	s554	False
0.1	52.241	0.5	52.741	0	PA_with_intermediate	test	ward_and_allport	89	1.0	0.5	to_board	poldrack-single-stim	s554	False
0.1	52.742	0.55	53.292	0	PA_with_intermediate	test	ward_and_allport	71	1.0	0.55	to_hand	poldrack-single-stim	s554	False
0.1	53.293	0.386	53.679	0	PA_with_intermediate	test	ward_and_allport	82	1.0	0.386	to_board	poldrack-single-stim	s554	False
0.1	53.681	0.783	54.464	0	PA_with_intermediate	test	ward_and_allport	89	1.0	0.783	to_hand	poldrack-single-stim	s554	False
0.1	54.466	0.435	54.901	0	PA_with_intermediate	test	ward_and_allport	71	1.0	0.435	to_board	poldrack-single-stim	s554	False
1.0	54.903	2.68	54.902	0	PA_with_intermediate	test	ward_and_allport	-1	1.0	n/a	feedback	poldrack-single-stim	s554	False
2.265	57.585	2.265	59.85	1	PA_without_intermediate	test	ward_and_allport	71	2.0	2.265	to_hand	poldrack-single-stim	s554	False
0.1	59.851	0.514	60.365	0	PA_without_intermediate	test	ward_and_allport	89	2.0	0.514	to_board	poldrack-single-stim	s554	False
0.1	60.368	0.472	60.84	0	PA_without_intermediate	test	ward_and_allport	71	2.0	0.472	to_hand	poldrack-single-stim	s554	False
0.1	60.841	0.504	61.345	0	PA_without_intermediate	test	ward_and_allport	82	2.0	0.504	to_board	poldrack-single-stim	s554	False
0.1	61.348	0.471	61.819	0	PA_without_intermediate	test	ward_and_allport	71	2.0	0.471	to_hand	poldrack-single-stim	s554	False
0.1	61.82	0.431	62.251	0	PA_without_intermediate	test	ward_and_allport	89	2.0	0.431	to_board	poldrack-single-stim	s554	False
1.0	62.255	3.224	62.254	0	PA_without_intermediate	test	ward_and_allport	-1	2.0	n/a	feedback	poldrack-single-stim	s554	False
2.839	65.482	2.839	68.321	1	PA_without_intermediate	test	ward_and_allport	82	3.0	2.839	to_hand	poldrack-single-stim	s554	False
0.1	68.322	0.491	68.813	0	PA_without_intermediate	test	ward_and_allport	89	3.0	0.491	to_board	poldrack-single-stim	s554	False
0.1	68.816	0.647	69.463	0	PA_without_intermediate	test	ward_and_allport	82	3.0	0.647	to_hand	poldrack-single-stim	s554	False
0.1	69.464	0.689	70.153	0	PA_without_intermediate	test	ward_and_allport	71	3.0	0.689	to_board	poldrack-single-stim	s554	False
0.1	70.156	0.682	70.838	0	PA_without_intermediate	test	ward_and_allport	82	3.0	0.682	to_hand	poldrack-single-stim	s554	False
0.1	70.839	0.598	71.437	0	PA_without_intermediate	test	ward_and_allport	89	3.0	0.598	to_board	poldrack-single-stim	s554	False
1.0	71.44	3.36	71.439	0	PA_without_intermediate	test	ward_and_allport	-1	3.0	n/a	feedback	poldrack-single-stim	s554	False
2.232	74.803	2.232	77.035	1	PA_without_intermediate	test	ward_and_allport	71	4.0	2.232	to_hand	poldrack-single-stim	s554	False
0.1	77.037	0.669	77.706	0	PA_without_intermediate	test	ward_and_allport	82	4.0	0.669	to_board	poldrack-single-stim	s554	False
0.1	77.708	0.63	78.338	0	PA_without_intermediate	test	ward_and_allport	71	4.0	0.63	to_hand	poldrack-single-stim	s554	False
0.1	78.338	0.488	78.826	0	PA_without_intermediate	test	ward_and_allport	89	4.0	0.488	to_board	poldrack-single-stim	s554	False
0.1	78.828	0.448	79.276	0	PA_without_intermediate	test	ward_and_allport	71	4.0	0.448	to_hand	poldrack-single-stim	s554	False
0.1	79.276	0.42	79.696	0	PA_without_intermediate	test	ward_and_allport	82	4.0	0.42	to_board	poldrack-single-stim	s554	False
1.0	79.701	2.0	79.7	0	PA_without_intermediate	test	ward_and_allport	-1	4.0	n/a	feedback	poldrack-single-stim	s554	False
2.701	81.704	2.701	84.405	1	PA_without_intermediate	test	ward_and_allport	89	5.0	2.701	to_hand	poldrack-single-stim	s554	False
0.1	84.405	0.582	84.987	0	PA_without_intermediate	test	ward_and_allport	71	5.0	0.582	to_board	poldrack-single-stim	s554	False
0.1	84.99	1.016	86.006	0	PA_without_intermediate	test	ward_and_allport	89	5.0	1.016	to_hand	poldrack-single-stim	s554	False
0.1	86.007	0.65	86.657	0	PA_without_intermediate	test	ward_and_allport	82	5.0	0.65	to_board	poldrack-single-stim	s554	False
0.1	86.659	0.536	87.195	0	PA_without_intermediate	test	ward_and_allport	89	5.0	0.536	to_hand	poldrack-single-stim	s554	False
0.1	87.197	0.485	87.682	0	PA_without_intermediate	test	ward_and_allport	71	5.0	0.485	to_board	poldrack-single-stim	s554	False
1.0	87.687	2.408	87.686	0	PA_without_intermediate	test	ward_and_allport	-1	5.0	n/a	feedback	poldrack-single-stim	s554	False
3.104	90.097	3.104	93.201	1	PA_with_intermediate	test	ward_and_allport	71	6.0	3.104	to_hand	poldrack-single-stim	s554	False
0.1	93.203	0.709	93.912	0	PA_with_intermediate	test	ward_and_allport	82	6.0	0.709	to_board	poldrack-single-stim	s554	False
0.1	93.915	0.582	94.497	0	PA_with_intermediate	test	ward_and_allport	71	6.0	0.582	to_hand	poldrack-single-stim	s554	False
0.1	94.498	0.578	95.076	0	PA_with_intermediate	test	ward_and_allport	89	6.0	0.578	to_board	poldrack-single-stim	s554	False
0.1	95.079	0.61	95.689	0	PA_with_intermediate	test	ward_and_allport	82	6.0	0.61	to_hand	poldrack-single-stim	s554	False
0.1	95.69	0.558	96.248	0	PA_with_intermediate	test	ward_and_allport	89	6.0	0.558	to_board	poldrack-single-stim	s554	False
1.0	96.253	2.136	96.252	0	PA_with_intermediate	test	ward_and_allport	-1	6.0	n/a	feedback	poldrack-single-stim	s554	False
1.627	98.392	1.627	100.019	1	PA_without_intermediate	test	ward_and_allport	89	7.0	1.627	to_hand	poldrack-single-stim	s554	False
0.1	100.02	1.1	101.12	0	PA_without_intermediate	test	ward_and_allport	82	7.0	1.1	to_board	poldrack-single-stim	s554	False
0.1	101.123	0.991	102.114	0	PA_without_intermediate	test	ward_and_allport	89	7.0	0.991	to_hand	poldrack-single-stim	s554	False
0.1	102.115	0.427	102.542	0	PA_without_intermediate	test	ward_and_allport	71	7.0	0.427	to_board	poldrack-single-stim	s554	False
0.1	102.545	0.409	102.954	0	PA_without_intermediate	test	ward_and_allport	89	7.0	0.409	to_hand	poldrack-single-stim	s554	False
0.1	102.955	0.511	103.466	0	PA_without_intermediate	test	ward_and_allport	82	7.0	0.511	to_board	poldrack-single-stim	s554	False
1.0	103.47	5.128	103.469	0	PA_without_intermediate	test	ward_and_allport	-1	7.0	n/a	feedback	poldrack-single-stim	s554	False
1.765	108.6	1.765	110.365	1	PA_without_intermediate	test	ward_and_allport	82	8.0	1.765	to_hand	poldrack-single-stim	s554	False
0.1	110.366	0.714	111.08	0	PA_without_intermediate	test	ward_and_allport	71	8.0	0.714	to_board	poldrack-single-stim	s554	False
0.1	111.084	0.735	111.819	0	PA_without_intermediate	test	ward_and_allport	82	8.0	0.735	to_hand	poldrack-single-stim	s554	False
0.1	111.821	0.399	112.22	0	PA_without_intermediate	test	ward_and_allport	89	8.0	0.399	to_board	poldrack-single-stim	s554	False
0.1	112.222	0.459	112.681	0	PA_without_intermediate	test	ward_and_allport	82	8.0	0.459	to_hand	poldrack-single-stim	s554	False
0.1	112.682	0.371	113.053	0	PA_without_intermediate	test	ward_and_allport	71	8.0	0.371	to_board	poldrack-single-stim	s554	False
1.0	113.057	2.136	113.056	0	PA_without_intermediate	test	ward_and_allport	-1	8.0	n/a	feedback	poldrack-single-stim	s554	False
1.141	115.198	1.141	116.339	1	PA_without_intermediate	test	ward_and_allport	82	9.0	1.141	to_hand	poldrack-single-stim	s554	False
0.1	116.339	0.465	116.804	0	PA_without_intermediate	test	ward_and_allport	89	9.0	0.465	to_board	poldrack-single-stim	s554	False
0.1	116.808	0.607	117.415	0	PA_without_intermediate	test	ward_and_allport	82	9.0	0.607	to_hand	poldrack-single-stim	s554	False
0.1	117.415	0.503	117.918	0	PA_without_intermediate	test	ward_and_allport	89	9.0	0.503	to_board	poldrack-single-stim	s554	False
0.1	117.921	1.245	119.166	0	PA_without_intermediate	test	ward_and_allport	82	9.0	1.245	to_hand	poldrack-single-stim	s554	False
0.1	119.167	0.502	119.669	0	PA_without_intermediate	test	ward_and_allport	71	9.0	0.502	to_board	poldrack-single-stim	s554	False
1.0	119.674	5.264	119.673	0	PA_without_intermediate	test	ward_and_allport	-1	9.0	n/a	feedback	poldrack-single-stim	s554	False
2.407	124.942	2.407	127.349	1	PA_with_intermediate	test	ward_and_allport	89	10.0	2.407	to_hand	poldrack-single-stim	s554	False
0.1	127.349	0.656	128.005	0	PA_with_intermediate	test	ward_and_allport	71	10.0	0.656	to_board	poldrack-single-stim	s554	False
0.1	128.009	0.469	128.478	0	PA_with_intermediate	test	ward_and_allport	89	10.0	0.469	to_hand	poldrack-single-stim	s554	False
0.1	128.479	0.393	128.872	0	PA_with_intermediate	test	ward_and_allport	82	10.0	0.393	to_board	poldrack-single-stim	s554	False
0.1	128.876	0.404	129.28	0	PA_with_intermediate	test	ward_and_allport	71	10.0	0.404	to_hand	poldrack-single-stim	s554	False
0.1	129.281	0.342	129.623	0	PA_with_intermediate	test	ward_and_allport	89	10.0	0.342	to_board	poldrack-single-stim	s554	False
1.0	129.628	4.04	129.627	0	PA_with_intermediate	test	ward_and_allport	-1	10.0	n/a	feedback	poldrack-single-stim	s554	False
2.209	133.672	2.209	135.881	1	PA_with_intermediate	test	ward_and_allport	71	11.0	2.209	to_hand	poldrack-single-stim	s554	False
0.1	135.882	0.553	136.435	0	PA_with_intermediate	test	ward_and_allport	82	11.0	0.553	to_board	poldrack-single-stim	s554	False
0.1	136.441	0.317	136.758	0	PA_with_intermediate	test	ward_and_allport	71	11.0	0.317	to_hand	poldrack-single-stim	s554	False
0.1	136.76	0.281	137.041	0	PA_with_intermediate	test	ward_and_allport	89	11.0	0.281	to_board	poldrack-single-stim	s554	False
0.1	137.044	0.473	137.517	0	PA_with_intermediate	test	ward_and_allport	82	11.0	0.473	to_hand	poldrack-single-stim	s554	False
0.1	137.517	0.277	137.794	0	PA_with_intermediate	test	ward_and_allport	71	11.0	0.277	to_board	poldrack-single-stim	s554	False
1.0	137.799	2.136	137.798	0	PA_with_intermediate	test	ward_and_allport	-1	11.0	n/a	feedback	poldrack-single-stim	s554	False
1.625	139.94	1.625	141.565	1	PA_with_intermediate	test	ward_and_allport	89	12.0	1.625	to_hand	poldrack-single-stim	s554	False
0.1	141.565	0.412	141.977	0	PA_with_intermediate	test	ward_and_allport	71	12.0	0.412	to_board	poldrack-single-stim	s554	False
0.1	141.981	0.53	142.511	0	PA_with_intermediate	test	ward_and_allport	89	12.0	0.53	to_hand	poldrack-single-stim	s554	False
0.1	142.512	0.392	142.904	0	PA_with_intermediate	test	ward_and_allport	82	12.0	0.392	to_board	poldrack-single-stim	s554	False
0.1	142.909	0.458	143.367	0	PA_with_intermediate	test	ward_and_allport	71	12.0	0.458	to_hand	poldrack-single-stim	s554	False
0.1	143.367	0.353	143.72	0	PA_with_intermediate	test	ward_and_allport	82	12.0	0.353	to_board	poldrack-single-stim	s554	False
1.0	143.726	2.408	143.725	0	PA_with_intermediate	test	ward_and_allport	-1	12.0	n/a	feedback	poldrack-single-stim	s554	False
1.159	146.139	1.159	147.298	1	PA_without_intermediate	test	ward_and_allport	89	13.0	1.159	to_hand	poldrack-single-stim	s554	False
0.1	147.299	0.306	147.605	0	PA_without_intermediate	test	ward_and_allport	82	13.0	0.306	to_board	poldrack-single-stim	s554	False
0.1	147.609	0.337	147.946	0	PA_without_intermediate	test	ward_and_allport	89	13.0	0.337	to_hand	poldrack-single-stim	s554	False
0.1	147.948	1.281	149.229	0	PA_without_intermediate	test	ward_and_allport	82	13.0	1.281	to_board	poldrack-single-stim	s554	False
0.1	149.234	0.427	149.661	0	PA_without_intermediate	test	ward_and_allport	89	13.0	0.427	to_hand	poldrack-single-stim	s554	False
0.1	149.663	0.45	150.113	0	PA_without_intermediate	test	ward_and_allport	71	13.0	0.45	to_board	poldrack-single-stim	s554	False
1.0	150.118	2.68	150.117	0	PA_without_intermediate	test	ward_and_allport	-1	13.0	n/a	feedback	poldrack-single-stim	s554	False
1.996	152.802	1.996	154.798	1	PA_with_intermediate	test	ward_and_allport	82	14.0	1.996	to_hand	poldrack-single-stim	s554	False
0.1	154.798	0.497	155.295	0	PA_with_intermediate	test	ward_and_allport	89	14.0	0.497	to_board	poldrack-single-stim	s554	False
0.1	155.3	0.487	155.787	0	PA_with_intermediate	test	ward_and_allport	82	14.0	0.487	to_hand	poldrack-single-stim	s554	False
0.1	155.788	0.556	156.344	0	PA_with_intermediate	test	ward_and_allport	71	14.0	0.556	to_board	poldrack-single-stim	s554	False
0.1	156.347	0.62	156.967	0	PA_with_intermediate	test	ward_and_allport	89	14.0	0.62	to_hand	poldrack-single-stim	s554	False
0.1	156.969	0.462	157.431	0	PA_with_intermediate	test	ward_and_allport	71	14.0	0.462	to_board	poldrack-single-stim	s554	False
1.0	157.436	4.72	157.435	0	PA_with_intermediate	test	ward_and_allport	-1	14.0	n/a	feedback	poldrack-single-stim	s554	False
1.575	167.162	1.575	168.737	1	PA_without_intermediate	test	ward_and_allport	89	15.0	1.575	to_hand	poldrack-single-stim	s554	False
0.1	168.739	0.515	169.254	0	PA_without_intermediate	test	ward_and_allport	71	15.0	0.515	to_board	poldrack-single-stim	s554	False
0.1	169.258	0.445	169.703	0	PA_without_intermediate	test	ward_and_allport	89	15.0	0.445	to_hand	poldrack-single-stim	s554	False
0.1	169.704	0.315	170.019	0	PA_without_intermediate	test	ward_and_allport	71	15.0	0.315	to_board	poldrack-single-stim	s554	False
0.1	170.024	0.284	170.308	0	PA_without_intermediate	test	ward_and_allport	89	15.0	0.284	to_hand	poldrack-single-stim	s554	False
0.1	170.308	0.262	170.57	0	PA_without_intermediate	test	ward_and_allport	82	15.0	0.262	to_board	poldrack-single-stim	s554	False
1.0	170.576	3.224	170.575	0	PA_without_intermediate	test	ward_and_allport	-1	15.0	n/a	feedback	poldrack-single-stim	s554	False
1.705	173.803	1.705	175.508	1	PA_without_intermediate	test	ward_and_allport	71	16.0	1.705	to_hand	poldrack-single-stim	s554	False
0.1	175.509	0.404	175.913	0	PA_without_intermediate	test	ward_and_allport	89	16.0	0.404	to_board	poldrack-single-stim	s554	False
0.1	175.917	0.665	176.582	0	PA_without_intermediate	test	ward_and_allport	71	16.0	0.665	to_hand	poldrack-single-stim	s554	False
0.1	176.583	0.281	176.864	0	PA_without_intermediate	test	ward_and_allport	82	16.0	0.281	to_board	poldrack-single-stim	s554	False
0.1	176.868	0.346	177.214	0	PA_without_intermediate	test	ward_and_allport	71	16.0	0.346	to_hand	poldrack-single-stim	s554	False
0.1	177.215	0.342	177.557	0	PA_without_intermediate	test	ward_and_allport	89	16.0	0.342	to_board	poldrack-single-stim	s554	False
1.0	177.564	2.272	177.563	0	PA_without_intermediate	test	ward_and_allport	-1	16.0	n/a	feedback	poldrack-single-stim	s554	False
1.714	179.841	1.714	181.555	1	PA_with_intermediate	test	ward_and_allport	71	17.0	1.714	to_hand	poldrack-single-stim	s554	False
0.1	181.556	0.277	181.833	0	PA_with_intermediate	test	ward_and_allport	82	17.0	0.277	to_board	poldrack-single-stim	s554	False
0.1	181.838	0.267	182.105	0	PA_with_intermediate	test	ward_and_allport	71	17.0	0.267	to_hand	poldrack-single-stim	s554	False
0.1	182.105	0.245	182.35	0	PA_with_intermediate	test	ward_and_allport	89	17.0	0.245	to_board	poldrack-single-stim	s554	False
0.1	182.356	0.431	182.787	0	PA_with_intermediate	test	ward_and_allport	82	17.0	0.431	to_hand	poldrack-single-stim	s554	False
0.1	182.788	0.239	183.027	0	PA_with_intermediate	test	ward_and_allport	71	17.0	0.239	to_board	poldrack-single-stim	s554	False
1.0	183.032	3.632	183.031	0	PA_with_intermediate	test	ward_and_allport	-1	17.0	n/a	feedback	poldrack-single-stim	s554	False
1.6	186.669	1.6	188.269	1	PA_without_intermediate	test	ward_and_allport	71	18.0	1.6	to_hand	poldrack-single-stim	s554	False
0.1	188.27	0.339	188.609	0	PA_without_intermediate	test	ward_and_allport	82	18.0	0.339	to_board	poldrack-single-stim	s554	False
0.1	188.615	0.415	189.03	0	PA_without_intermediate	test	ward_and_allport	71	18.0	0.415	to_hand	poldrack-single-stim	s554	False
0.1	189.031	0.4	189.431	0	PA_without_intermediate	test	ward_and_allport	89	18.0	0.4	to_board	poldrack-single-stim	s554	False
0.1	189.436	0.378	189.814	0	PA_without_intermediate	test	ward_and_allport	71	18.0	0.378	to_hand	poldrack-single-stim	s554	False
0.1	189.815	0.506	190.321	0	PA_without_intermediate	test	ward_and_allport	82	18.0	0.506	to_board	poldrack-single-stim	s554	False
1.0	190.327	2.408	190.326	0	PA_without_intermediate	test	ward_and_allport	-1	18.0	n/a	feedback	poldrack-single-stim	s554	False
1.147	192.739	1.147	193.886	1	PA_without_intermediate	test	ward_and_allport	82	19.0	1.147	to_hand	poldrack-single-stim	s554	False
0.1	193.888	0.518	194.406	0	PA_without_intermediate	test	ward_and_allport	71	19.0	0.518	to_board	poldrack-single-stim	s554	False
0.1	194.41	0.794	195.204	0	PA_without_intermediate	test	ward_and_allport	82	19.0	0.794	to_hand	poldrack-single-stim	s554	False
0.1	195.205	0.262	195.467	0	PA_without_intermediate	test	ward_and_allport	89	19.0	0.262	to_board	poldrack-single-stim	s554	False
0.1	195.471	0.36	195.831	0	PA_without_intermediate	test	ward_and_allport	82	19.0	0.36	to_hand	poldrack-single-stim	s554	False
0.1	195.832	0.276	196.108	0	PA_without_intermediate	test	ward_and_allport	71	19.0	0.276	to_board	poldrack-single-stim	s554	False
1.0	196.115	2.0	196.114	0	PA_without_intermediate	test	ward_and_allport	-1	19.0	n/a	feedback	poldrack-single-stim	s554	False
1.089	198.119	1.089	199.208	1	PA_with_intermediate	test	ward_and_allport	89	20.0	1.089	to_hand	poldrack-single-stim	s554	False
0.1	199.209	1.082	200.291	0	PA_with_intermediate	test	ward_and_allport	71	20.0	1.082	to_board	poldrack-single-stim	s554	False
0.1	200.297	0.337	200.634	0	PA_with_intermediate	test	ward_and_allport	89	20.0	0.337	to_hand	poldrack-single-stim	s554	False
0.1	200.634	4.482	205.116	0	PA_with_intermediate	test	ward_and_allport	82	20.0	4.482	to_board	poldrack-single-stim	s554	False
0.1	205.121	0.362	205.483	0	PA_with_intermediate	test	ward_and_allport	71	20.0	0.362	to_hand	poldrack-single-stim	s554	False
0.1	205.484	0.238	205.722	0	PA_with_intermediate	test	ward_and_allport	89	20.0	0.238	to_board	poldrack-single-stim	s554	False
0.1	205.727	0.331	206.058	0	PA_with_intermediate	test	ward_and_allport	82	20.0	0.331	to_hand	poldrack-single-stim	s554	False
0.1	206.059	0.262	206.321	0	PA_with_intermediate	test	ward_and_allport	71	20.0	0.262	to_board	poldrack-single-stim	s554	False
1.0	206.328	2.0	206.327	0	PA_with_intermediate	test	ward_and_allport	-1	20.0	n/a	feedback	poldrack-single-stim	s554	False
2.055	208.332	2.055	210.387	1	PA_with_intermediate	test	ward_and_allport	71	21.0	2.055	to_hand	poldrack-single-stim	s554	False
0.1	210.388	0.348	210.736	0	PA_with_intermediate	test	ward_and_allport	89	21.0	0.348	to_board	poldrack-single-stim	s554	False
0.1	210.742	0.335	211.077	0	PA_with_intermediate	test	ward_and_allport	71	21.0	0.335	to_hand	poldrack-single-stim	s554	False
0.1	211.077	0.204	211.281	0	PA_with_intermediate	test	ward_and_allport	82	21.0	0.204	to_board	poldrack-single-stim	s554	False
0.1	211.287	0.344	211.631	0	PA_with_intermediate	test	ward_and_allport	71	21.0	0.344	to_hand	poldrack-single-stim	s554	False
0.1	211.632	0.796	212.428	0	PA_with_intermediate	test	ward_and_allport	71	21.0	0.796	to_board	poldrack-single-stim	s554	False
0.1	212.434	0.293	212.727	0	PA_with_intermediate	test	ward_and_allport	89	21.0	0.293	to_hand	poldrack-single-stim	s554	False
0.1	212.728	0.221	212.949	0	PA_with_intermediate	test	ward_and_allport	71	21.0	0.221	to_board	poldrack-single-stim	s554	False
1.0	212.956	2.0	212.955	0	PA_with_intermediate	test	ward_and_allport	-1	21.0	n/a	feedback	poldrack-single-stim	s554	False
1.697	214.962	1.697	216.659	1	PA_with_intermediate	test	ward_and_allport	82	22.0	1.697	to_hand	poldrack-single-stim	s554	False
0.1	216.661	0.519	217.18	0	PA_with_intermediate	test	ward_and_allport	71	22.0	0.519	to_board	poldrack-single-stim	s554	False
0.1	217.186	0.741	217.927	0	PA_with_intermediate	test	ward_and_allport	82	22.0	0.741	to_hand	poldrack-single-stim	s554	False
0.1	217.928	0.54	218.468	0	PA_with_intermediate	test	ward_and_allport	89	22.0	0.54	to_board	poldrack-single-stim	s554	False
0.1	218.474	0.849	219.323	0	PA_with_intermediate	test	ward_and_allport	71	22.0	0.849	to_hand	poldrack-single-stim	s554	False
0.1	219.323	0.34	219.663	0	PA_with_intermediate	test	ward_and_allport	82	22.0	0.34	to_board	poldrack-single-stim	s554	False
1.0	219.671	2.408	219.67	0	PA_with_intermediate	test	ward_and_allport	-1	22.0	n/a	feedback	poldrack-single-stim	s554	False
1.367	222.085	1.367	223.452	1	PA_without_intermediate	test	ward_and_allport	82	23.0	1.367	to_hand	poldrack-single-stim	s554	False
0.1	223.453	0.819	224.272	0	PA_without_intermediate	test	ward_and_allport	71	23.0	0.819	to_board	poldrack-single-stim	s554	False
0.1	224.279	0.607	224.886	0	PA_without_intermediate	test	ward_and_allport	82	23.0	0.607	to_hand	poldrack-single-stim	s554	False
0.1	224.887	0.726	225.613	0	PA_without_intermediate	test	ward_and_allport	71	23.0	0.726	to_board	poldrack-single-stim	s554	False
0.1	225.619	0.606	226.225	0	PA_without_intermediate	test	ward_and_allport	82	23.0	0.606	to_hand	poldrack-single-stim	s554	False
0.1	226.225	0.558	226.783	0	PA_without_intermediate	test	ward_and_allport	89	23.0	0.558	to_board	poldrack-single-stim	s554	False
1.0	226.791	2.816	226.79	0	PA_without_intermediate	test	ward_and_allport	-1	23.0	n/a	feedback	poldrack-single-stim	s554	False
1.761	229.613	1.761	231.374	1	PA_with_intermediate	test	ward_and_allport	82	24.0	1.761	to_hand	poldrack-single-stim	s554	False
0.1	231.375	0.455	231.83	0	PA_with_intermediate	test	ward_and_allport	89	24.0	0.455	to_board	poldrack-single-stim	s554	False
0.1	231.836	0.567	232.403	0	PA_with_intermediate	test	ward_and_allport	82	24.0	0.567	to_hand	poldrack-single-stim	s554	False
0.1	232.404	0.649	233.053	0	PA_with_intermediate	test	ward_and_allport	71	24.0	0.649	to_board	poldrack-single-stim	s554	False
0.1	233.061	0.532	233.593	0	PA_with_intermediate	test	ward_and_allport	89	24.0	0.532	to_hand	poldrack-single-stim	s554	False
0.1	233.593	0.408	234.001	0	PA_with_intermediate	test	ward_and_allport	82	24.0	0.408	to_board	poldrack-single-stim	s554	False
1.0	234.009	4.176	234.008	0	PA_with_intermediate	test	ward_and_allport	-1	24.0	n/a	feedback	poldrack-single-stim	s554	False
1.9	238.192	1.9	240.092	1	PA_with_intermediate	test	ward_and_allport	82	25.0	1.9	to_hand	poldrack-single-stim	s554	False
0.1	240.093	0.745	240.838	0	PA_with_intermediate	test	ward_and_allport	71	25.0	0.745	to_board	poldrack-single-stim	s554	False
0.1	240.844	0.353	241.197	0	PA_with_intermediate	test	ward_and_allport	82	25.0	0.353	to_hand	poldrack-single-stim	s554	False
0.1	241.198	0.302	241.5	0	PA_with_intermediate	test	ward_and_allport	89	25.0	0.302	to_board	poldrack-single-stim	s554	False
0.1	241.508	0.455	241.963	0	PA_with_intermediate	test	ward_and_allport	71	25.0	0.455	to_hand	poldrack-single-stim	s554	False
0.1	241.964	0.198	242.162	0	PA_with_intermediate	test	ward_and_allport	89	25.0	0.198	to_board	poldrack-single-stim	s554	False
1.0	242.17	3.36	242.169	0	PA_with_intermediate	test	ward_and_allport	-1	25.0	n/a	feedback	poldrack-single-stim	s554	False
1.517	245.537	1.517	247.054	1	PA_with_intermediate	test	ward_and_allport	89	26.0	1.517	to_hand	poldrack-single-stim	s554	False
0.1	247.055	0.24	247.295	0	PA_with_intermediate	test	ward_and_allport	82	26.0	0.24	to_board	poldrack-single-stim	s554	False
0.1	247.302	0.412	247.714	0	PA_with_intermediate	test	ward_and_allport	89	26.0	0.412	to_hand	poldrack-single-stim	s554	False
0.1	247.715	0.218	247.933	0	PA_with_intermediate	test	ward_and_allport	71	26.0	0.218	to_board	poldrack-single-stim	s554	False
0.1	247.94	0.6	248.54	0	PA_with_intermediate	test	ward_and_allport	82	26.0	0.6	to_hand	poldrack-single-stim	s554	False
0.1	248.541	0.284	248.825	0	PA_with_intermediate	test	ward_and_allport	71	26.0	0.284	to_board	poldrack-single-stim	s554	False
1.0	248.833	2.0	248.832	0	PA_with_intermediate	test	ward_and_allport	-1	26.0	n/a	feedback	poldrack-single-stim	s554	False
1.196	250.84	1.196	252.036	1	PA_without_intermediate	test	ward_and_allport	82	27.0	1.196	to_hand	poldrack-single-stim	s554	False
0.1	252.037	0.388	252.425	0	PA_without_intermediate	test	ward_and_allport	89	27.0	0.388	to_board	poldrack-single-stim	s554	False
0.1	252.433	0.665	253.098	0	PA_without_intermediate	test	ward_and_allport	82	27.0	0.665	to_hand	poldrack-single-stim	s554	False
0.1	253.099	0.396	253.495	0	PA_without_intermediate	test	ward_and_allport	71	27.0	0.396	to_board	poldrack-single-stim	s554	False
0.1	253.502	0.447	253.949	0	PA_without_intermediate	test	ward_and_allport	82	27.0	0.447	to_hand	poldrack-single-stim	s554	False
0.1	253.95	0.336	254.286	0	PA_without_intermediate	test	ward_and_allport	89	27.0	0.336	to_board	poldrack-single-stim	s554	False
1.0	254.293	2.408	254.292	0	PA_without_intermediate	test	ward_and_allport	-1	27.0	n/a	feedback	poldrack-single-stim	s554	False
1.117	256.709	1.117	257.826	1	PA_with_intermediate	test	ward_and_allport	82	28.0	1.117	to_hand	poldrack-single-stim	s554	False
0.1	257.826	0.228	258.054	0	PA_with_intermediate	test	ward_and_allport	89	28.0	0.228	to_board	poldrack-single-stim	s554	False
0.1	258.061	0.396	258.457	0	PA_with_intermediate	test	ward_and_allport	82	28.0	0.396	to_hand	poldrack-single-stim	s554	False
0.1	258.458	0.246	258.704	0	PA_with_intermediate	test	ward_and_allport	71	28.0	0.246	to_board	poldrack-single-stim	s554	False
0.1	258.711	0.505	259.216	0	PA_with_intermediate	test	ward_and_allport	89	28.0	0.505	to_hand	poldrack-single-stim	s554	False
0.1	259.217	0.222	259.439	0	PA_with_intermediate	test	ward_and_allport	71	28.0	0.222	to_board	poldrack-single-stim	s554	False
1.0	259.448	2.816	259.447	0	PA_with_intermediate	test	ward_and_allport	-1	28.0	n/a	feedback	poldrack-single-stim	s554	False
1.485	262.271	1.485	263.756	1	PA_without_intermediate	test	ward_and_allport	71	29.0	1.485	to_hand	poldrack-single-stim	s554	False
0.1	263.757	0.82	264.577	0	PA_without_intermediate	test	ward_and_allport	89	29.0	0.82	to_board	poldrack-single-stim	s554	False
0.1	264.583	0.464	265.047	0	PA_without_intermediate	test	ward_and_allport	71	29.0	0.464	to_hand	poldrack-single-stim	s554	False
0.1	265.048	0.353	265.401	0	PA_without_intermediate	test	ward_and_allport	89	29.0	0.353	to_board	poldrack-single-stim	s554	False
0.1	265.408	0.355	265.763	0	PA_without_intermediate	test	ward_and_allport	71	29.0	0.355	to_hand	poldrack-single-stim	s554	False
0.1	265.764	0.333	266.097	0	PA_without_intermediate	test	ward_and_allport	82	29.0	0.333	to_board	poldrack-single-stim	s554	False
1.0	266.106	3.088	266.105	0	PA_without_intermediate	test	ward_and_allport	-1	29.0	n/a	feedback	poldrack-single-stim	s554	False
1.256	274.203	1.256	275.459	1	PA_without_intermediate	test	ward_and_allport	71	30.0	1.256	to_hand	poldrack-single-stim	s554	False
0.1	275.46	0.301	275.761	0	PA_without_intermediate	test	ward_and_allport	82	30.0	0.301	to_board	poldrack-single-stim	s554	False
0.1	275.769	0.378	276.147	0	PA_without_intermediate	test	ward_and_allport	71	30.0	0.378	to_hand	poldrack-single-stim	s554	False
0.1	276.148	0.219	276.367	0	PA_without_intermediate	test	ward_and_allport	82	30.0	0.219	to_board	poldrack-single-stim	s554	False
0.1	276.374	0.319	276.693	0	PA_without_intermediate	test	ward_and_allport	71	30.0	0.319	to_hand	poldrack-single-stim	s554	False
0.1	276.695	0.197	276.892	0	PA_without_intermediate	test	ward_and_allport	89	30.0	0.197	to_board	poldrack-single-stim	s554	False
1.0	276.9	2.136	276.899	0	PA_without_intermediate	test	ward_and_allport	-1	30.0	n/a	feedback	poldrack-single-stim	s554	False
2.025	279.045	2.025	281.07	1	PA_without_intermediate	test	ward_and_allport	89	31.0	2.025	to_hand	poldrack-single-stim	s554	False
0.1	281.071	0.627	281.698	0	PA_without_intermediate	test	ward_and_allport	71	31.0	0.627	to_board	poldrack-single-stim	s554	False
0.1	281.706	0.586	282.292	0	PA_without_intermediate	test	ward_and_allport	89	31.0	0.586	to_hand	poldrack-single-stim	s554	False
0.1	282.293	0.295	282.588	0	PA_without_intermediate	test	ward_and_allport	82	31.0	0.295	to_board	poldrack-single-stim	s554	False
0.1	282.596	0.344	282.94	0	PA_without_intermediate	test	ward_and_allport	89	31.0	0.344	to_hand	poldrack-single-stim	s554	False
0.1	282.942	0.245	283.187	0	PA_without_intermediate	test	ward_and_allport	71	31.0	0.245	to_board	poldrack-single-stim	s554	False
1.0	283.197	7.168	283.196	0	PA_without_intermediate	test	ward_and_allport	-1	31.0	n/a	feedback	poldrack-single-stim	s554	False
1.243	290.374	1.243	291.617	1	PA_without_intermediate	test	ward_and_allport	82	32.0	1.243	to_hand	poldrack-single-stim	s554	False
0.1	291.618	0.392	292.01	0	PA_without_intermediate	test	ward_and_allport	89	32.0	0.392	to_board	poldrack-single-stim	s554	False
0.1	292.019	0.518	292.537	0	PA_without_intermediate	test	ward_and_allport	82	32.0	0.518	to_hand	poldrack-single-stim	s554	False
0.1	292.539	0.348	292.887	0	PA_without_intermediate	test	ward_and_allport	89	32.0	0.348	to_board	poldrack-single-stim	s554	False
0.1	292.895	0.553	293.448	0	PA_without_intermediate	test	ward_and_allport	82	32.0	0.553	to_hand	poldrack-single-stim	s554	False
0.1	293.448	0.341	293.789	0	PA_without_intermediate	test	ward_and_allport	71	32.0	0.341	to_board	poldrack-single-stim	s554	False
1.0	293.798	2.816	293.797	0	PA_without_intermediate	test	ward_and_allport	-1	32.0	n/a	feedback	poldrack-single-stim	s554	False
2.602	296.622	2.602	299.224	1	PA_with_intermediate	test	ward_and_allport	89	33.0	2.602	to_hand	poldrack-single-stim	s554	False
0.1	299.224	0.417	299.641	0	PA_with_intermediate	test	ward_and_allport	71	33.0	0.417	to_board	poldrack-single-stim	s554	False
0.1	299.647	0.415	300.062	0	PA_with_intermediate	test	ward_and_allport	89	33.0	0.415	to_hand	poldrack-single-stim	s554	False
0.1	300.063	0.282	300.345	0	PA_with_intermediate	test	ward_and_allport	82	33.0	0.282	to_board	poldrack-single-stim	s554	False
0.1	300.355	0.313	300.668	0	PA_with_intermediate	test	ward_and_allport	71	33.0	0.313	to_hand	poldrack-single-stim	s554	False
0.1	300.668	0.212	300.88	0	PA_with_intermediate	test	ward_and_allport	89	33.0	0.212	to_board	poldrack-single-stim	s554	False
1.0	300.891	2.952	300.89	0	PA_with_intermediate	test	ward_and_allport	-1	33.0	n/a	feedback	poldrack-single-stim	s554	False
1.687	303.851	1.687	305.538	1	PA_with_intermediate	test	ward_and_allport	71	34.0	1.687	to_hand	poldrack-single-stim	s554	False
0.1	305.539	0.197	305.736	0	PA_with_intermediate	test	ward_and_allport	89	34.0	0.197	to_board	poldrack-single-stim	s554	False
0.1	305.742	0.349	306.091	0	PA_with_intermediate	test	ward_and_allport	71	34.0	0.349	to_hand	poldrack-single-stim	s554	False
0.1	306.091	0.19	306.281	0	PA_with_intermediate	test	ward_and_allport	82	34.0	0.19	to_board	poldrack-single-stim	s554	False
0.1	306.288	0.372	306.66	0	PA_with_intermediate	test	ward_and_allport	89	34.0	0.372	to_hand	poldrack-single-stim	s554	False
0.1	306.661	0.245	306.906	0	PA_with_intermediate	test	ward_and_allport	82	34.0	0.245	to_board	poldrack-single-stim	s554	False
1.0	306.913	2.136	306.912	0	PA_with_intermediate	test	ward_and_allport	-1	34.0	n/a	feedback	poldrack-single-stim	s554	False
1.495	309.055	1.495	310.55	1	PA_without_intermediate	test	ward_and_allport	89	35.0	1.495	to_hand	poldrack-single-stim	s554	False
0.1	310.551	0.279	310.83	0	PA_without_intermediate	test	ward_and_allport	82	35.0	0.279	to_board	poldrack-single-stim	s554	False
0.1	310.836	0.473	311.309	0	PA_without_intermediate	test	ward_and_allport	89	35.0	0.473	to_hand	poldrack-single-stim	s554	False
0.1	311.309	0.749	312.058	0	PA_without_intermediate	test	ward_and_allport	82	35.0	0.749	to_board	poldrack-single-stim	s554	False
0.1	312.064	0.969	313.033	0	PA_without_intermediate	test	ward_and_allport	89	35.0	0.969	to_hand	poldrack-single-stim	s554	False
0.1	313.034	0.284	313.318	0	PA_without_intermediate	test	ward_and_allport	71	35.0	0.284	to_board	poldrack-single-stim	s554	False
1.0	313.327	2.68	313.326	0	PA_without_intermediate	test	ward_and_allport	-1	35.0	n/a	feedback	poldrack-single-stim	s554	False
1.341	316.016	1.341	317.357	1	PA_without_intermediate	test	ward_and_allport	82	36.0	1.341	to_hand	poldrack-single-stim	s554	False
0.1	317.358	0.535	317.893	0	PA_without_intermediate	test	ward_and_allport	71	36.0	0.535	to_board	poldrack-single-stim	s554	False
0.1	317.903	0.579	318.482	0	PA_without_intermediate	test	ward_and_allport	82	36.0	0.579	to_hand	poldrack-single-stim	s554	False
0.1	318.483	0.71	319.193	0	PA_without_intermediate	test	ward_and_allport	71	36.0	0.71	to_board	poldrack-single-stim	s554	False
0.1	319.202	0.468	319.67	0	PA_without_intermediate	test	ward_and_allport	82	36.0	0.468	to_hand	poldrack-single-stim	s554	False
0.1	319.671	0.457	320.128	0	PA_without_intermediate	test	ward_and_allport	89	36.0	0.457	to_board	poldrack-single-stim	s554	False
1.0	320.136	3.088	320.135	0	PA_without_intermediate	test	ward_and_allport	-1	36.0	n/a	feedback	poldrack-single-stim	s554	False
1.009	323.23	1.009	324.239	1	PA_with_intermediate	test	ward_and_allport	89	37.0	1.009	to_hand	poldrack-single-stim	s554	False
0.1	324.24	1.339	325.579	0	PA_with_intermediate	test	ward_and_allport	82	37.0	1.339	to_board	poldrack-single-stim	s554	False
0.1	325.587	0.331	325.918	0	PA_with_intermediate	test	ward_and_allport	89	37.0	0.331	to_hand	poldrack-single-stim	s554	False
0.1	325.918	0.336	326.254	0	PA_with_intermediate	test	ward_and_allport	71	37.0	0.336	to_board	poldrack-single-stim	s554	False
0.1	326.263	0.464	326.727	0	PA_with_intermediate	test	ward_and_allport	82	37.0	0.464	to_hand	poldrack-single-stim	s554	False
0.1	326.727	0.274	327.001	0	PA_with_intermediate	test	ward_and_allport	89	37.0	0.274	to_board	poldrack-single-stim	s554	False
1.0	327.012	2.0	327.011	0	PA_with_intermediate	test	ward_and_allport	-1	37.0	n/a	feedback	poldrack-single-stim	s554	False
0.931	329.021	0.931	329.952	1	PA_without_intermediate	test	ward_and_allport	89	38.0	0.931	to_hand	poldrack-single-stim	s554	False
0.1	329.954	0.314	330.268	0	PA_without_intermediate	test	ward_and_allport	71	38.0	0.314	to_board	poldrack-single-stim	s554	False
0.1	330.276	0.356	330.632	0	PA_without_intermediate	test	ward_and_allport	89	38.0	0.356	to_hand	poldrack-single-stim	s554	False
0.1	330.632	0.216	330.848	0	PA_without_intermediate	test	ward_and_allport	71	38.0	0.216	to_board	poldrack-single-stim	s554	False
0.1	330.855	0.381	331.236	0	PA_without_intermediate	test	ward_and_allport	89	38.0	0.381	to_hand	poldrack-single-stim	s554	False
0.1	331.237	0.195	331.432	0	PA_without_intermediate	test	ward_and_allport	82	38.0	0.195	to_board	poldrack-single-stim	s554	False
1.0	331.439	2.0	331.438	0	PA_without_intermediate	test	ward_and_allport	-1	38.0	n/a	feedback	poldrack-single-stim	s554	False
1.412	333.445	1.412	334.857	1	PA_without_intermediate	test	ward_and_allport	71	39.0	1.412	to_hand	poldrack-single-stim	s554	False
0.1	334.858	0.316	335.174	0	PA_without_intermediate	test	ward_and_allport	89	39.0	0.316	to_board	poldrack-single-stim	s554	False
0.1	335.18	0.246	335.426	0	PA_without_intermediate	test	ward_and_allport	71	39.0	0.246	to_hand	poldrack-single-stim	s554	False
0.1	335.427	0.252	335.679	0	PA_without_intermediate	test	ward_and_allport	89	39.0	0.252	to_board	poldrack-single-stim	s554	False
0.1	335.686	0.419	336.105	0	PA_without_intermediate	test	ward_and_allport	71	39.0	0.419	to_hand	poldrack-single-stim	s554	False
0.1	336.106	0.475	336.581	0	PA_without_intermediate	test	ward_and_allport	82	39.0	0.475	to_board	poldrack-single-stim	s554	False
1.0	336.589	2.0	336.588	0	PA_without_intermediate	test	ward_and_allport	-1	39.0	n/a	feedback	poldrack-single-stim	s554	False
2.457	338.596	2.457	341.053	1	PA_with_intermediate	test	ward_and_allport	89	40.0	2.457	to_hand	poldrack-single-stim	s554	False
0.1	341.054	0.2	341.254	0	PA_with_intermediate	test	ward_and_allport	82	40.0	0.2	to_board	poldrack-single-stim	s554	False
0.1	341.26	0.311	341.571	0	PA_with_intermediate	test	ward_and_allport	89	40.0	0.311	to_hand	poldrack-single-stim	s554	False
0.1	341.573	0.192	341.765	0	PA_with_intermediate	test	ward_and_allport	71	40.0	0.192	to_board	poldrack-single-stim	s554	False
0.1	341.773	0.46	342.233	0	PA_with_intermediate	test	ward_and_allport	82	40.0	0.46	to_hand	poldrack-single-stim	s554	False
0.1	342.233	0.237	342.47	0	PA_with_intermediate	test	ward_and_allport	89	40.0	0.237	to_board	poldrack-single-stim	s554	False
0.1	342.48	1.537	344.017	0	PA_with_intermediate	test	ward_and_allport	89	40.0	1.537	to_hand	poldrack-single-stim	s554	False
0.1	344.018	0.255	344.273	0	PA_with_intermediate	test	ward_and_allport	71	40.0	0.255	to_board	poldrack-single-stim	s554	False
1.0	344.284	2.544	344.283	0	PA_with_intermediate	test	ward_and_allport	-1	40.0	n/a	feedback	poldrack-single-stim	s554	False
1.011	346.835	1.011	347.846	1	PA_without_intermediate	test	ward_and_allport	89	41.0	1.011	to_hand	poldrack-single-stim	s554	False
0.1	347.846	0.216	348.062	0	PA_without_intermediate	test	ward_and_allport	82	41.0	0.216	to_board	poldrack-single-stim	s554	False
0.1	348.069	0.869	348.938	0	PA_without_intermediate	test	ward_and_allport	89	41.0	0.869	to_hand	poldrack-single-stim	s554	False
0.1	348.939	0.354	349.293	0	PA_without_intermediate	test	ward_and_allport	71	41.0	0.354	to_board	poldrack-single-stim	s554	False
0.1	349.3	0.398	349.698	0	PA_without_intermediate	test	ward_and_allport	89	41.0	0.398	to_hand	poldrack-single-stim	s554	False
0.1	349.699	0.521	350.22	0	PA_without_intermediate	test	ward_and_allport	82	41.0	0.521	to_board	poldrack-single-stim	s554	False
1.0	350.23	2.272	350.229	0	PA_without_intermediate	test	ward_and_allport	-1	41.0	n/a	feedback	poldrack-single-stim	s554	False
0.961	352.51	0.961	353.471	1	PA_with_intermediate	test	ward_and_allport	71	42.0	0.961	to_hand	poldrack-single-stim	s554	False
0.1	353.471	0.648	354.119	0	PA_with_intermediate	test	ward_and_allport	82	42.0	0.648	to_board	poldrack-single-stim	s554	False
0.1	354.126	0.441	354.567	0	PA_with_intermediate	test	ward_and_allport	71	42.0	0.441	to_hand	poldrack-single-stim	s554	False
0.1	354.568	0.297	354.865	0	PA_with_intermediate	test	ward_and_allport	89	42.0	0.297	to_board	poldrack-single-stim	s554	False
0.1	354.873	0.464	355.337	0	PA_with_intermediate	test	ward_and_allport	82	42.0	0.464	to_hand	poldrack-single-stim	s554	False
0.1	355.338	0.555	355.893	0	PA_with_intermediate	test	ward_and_allport	89	42.0	0.555	to_board	poldrack-single-stim	s554	False
1.0	355.901	4.04	355.9	0	PA_with_intermediate	test	ward_and_allport	-1	42.0	n/a	feedback	poldrack-single-stim	s554	False
1.04	359.948	1.04	360.988	1	PA_with_intermediate	test	ward_and_allport	71	43.0	1.04	to_hand	poldrack-single-stim	s554	False
0.1	360.989	0.303	361.292	0	PA_with_intermediate	test	ward_and_allport	89	43.0	0.303	to_board	poldrack-single-stim	s554	False
0.1	361.3	0.347	361.647	0	PA_with_intermediate	test	ward_and_allport	71	43.0	0.347	to_hand	poldrack-single-stim	s554	False
0.1	361.648	0.27	361.918	0	PA_with_intermediate	test	ward_and_allport	82	43.0	0.27	to_board	poldrack-single-stim	s554	False
0.1	361.927	0.52	362.447	0	PA_with_intermediate	test	ward_and_allport	89	43.0	0.52	to_hand	poldrack-single-stim	s554	False
0.1	362.449	0.356	362.805	0	PA_with_intermediate	test	ward_and_allport	82	43.0	0.356	to_board	poldrack-single-stim	s554	False
1.0	362.814	2.272	362.813	0	PA_with_intermediate	test	ward_and_allport	-1	43.0	n/a	feedback	poldrack-single-stim	s554	False
2.47	365.094	2.47	367.564	1	PA_with_intermediate	test	ward_and_allport	82	44.0	2.47	to_hand	poldrack-single-stim	s554	False
0.1	367.565	0.39	367.955	0	PA_with_intermediate	test	ward_and_allport	71	44.0	0.39	to_board	poldrack-single-stim	s554	False
0.1	367.963	0.396	368.359	0	PA_with_intermediate	test	ward_and_allport	82	44.0	0.396	to_hand	poldrack-single-stim	s554	False
0.1	368.36	0.439	368.799	0	PA_with_intermediate	test	ward_and_allport	89	44.0	0.439	to_board	poldrack-single-stim	s554	False
0.1	368.809	0.408	369.217	0	PA_with_intermediate	test	ward_and_allport	71	44.0	0.408	to_hand	poldrack-single-stim	s554	False
0.1	369.217	0.537	369.754	0	PA_with_intermediate	test	ward_and_allport	82	44.0	0.537	to_board	poldrack-single-stim	s554	False
1.0	369.764	2.136	369.763	0	PA_with_intermediate	test	ward_and_allport	-1	44.0	n/a	feedback	poldrack-single-stim	s554	False
1.403	376.909	1.403	378.312	1	PA_with_intermediate	test	ward_and_allport	89	45.0	1.403	to_hand	poldrack-single-stim	s554	False
0.1	378.313	0.224	378.537	0	PA_with_intermediate	test	ward_and_allport	71	45.0	0.224	to_board	poldrack-single-stim	s554	False
0.1	378.548	0.428	378.976	0	PA_with_intermediate	test	ward_and_allport	89	45.0	0.428	to_hand	poldrack-single-stim	s554	False
0.1	378.977	0.223	379.2	0	PA_with_intermediate	test	ward_and_allport	82	45.0	0.223	to_board	poldrack-single-stim	s554	False
0.1	379.211	0.369	379.58	0	PA_with_intermediate	test	ward_and_allport	71	45.0	0.369	to_hand	poldrack-single-stim	s554	False
0.1	379.581	0.235	379.816	0	PA_with_intermediate	test	ward_and_allport	82	45.0	0.235	to_board	poldrack-single-stim	s554	False
1.0	379.83	2.0	379.829	0	PA_with_intermediate	test	ward_and_allport	-1	45.0	n/a	feedback	poldrack-single-stim	s554	False
2.625	381.839	2.625	384.464	1	PA_with_intermediate	test	ward_and_allport	82	46.0	2.625	to_hand	poldrack-single-stim	s554	False
0.1	384.465	0.472	384.937	0	PA_with_intermediate	test	ward_and_allport	89	46.0	0.472	to_board	poldrack-single-stim	s554	False
0.1	384.945	0.819	385.764	0	PA_with_intermediate	test	ward_and_allport	82	46.0	0.819	to_hand	poldrack-single-stim	s554	False
0.1	385.764	0.369	386.133	0	PA_with_intermediate	test	ward_and_allport	71	46.0	0.369	to_board	poldrack-single-stim	s554	False
0.1	386.143	0.534	386.677	0	PA_with_intermediate	test	ward_and_allport	89	46.0	0.534	to_hand	poldrack-single-stim	s554	False
0.1	386.678	0.283	386.961	0	PA_with_intermediate	test	ward_and_allport	82	46.0	0.283	to_board	poldrack-single-stim	s554	False
1.0	386.973	2.0	386.972	0	PA_with_intermediate	test	ward_and_allport	-1	46.0	n/a	feedback	poldrack-single-stim	s554	False
1.13	388.983	1.13	390.113	1	PA_without_intermediate	test	ward_and_allport	71	47.0	1.13	to_hand	poldrack-single-stim	s554	False
0.1	390.114	0.235	390.349	0	PA_without_intermediate	test	ward_and_allport	82	47.0	0.235	to_board	poldrack-single-stim	s554	False
0.1	390.36	0.33	390.69	0	PA_without_intermediate	test	ward_and_allport	71	47.0	0.33	to_hand	poldrack-single-stim	s554	False
0.1	390.69	0.188	390.878	0	PA_without_intermediate	test	ward_and_allport	82	47.0	0.188	to_board	poldrack-single-stim	s554	False
0.1	390.885	0.289	391.174	0	PA_without_intermediate	test	ward_and_allport	71	47.0	0.289	to_hand	poldrack-single-stim	s554	False
0.1	391.176	0.246	391.422	0	PA_without_intermediate	test	ward_and_allport	89	47.0	0.246	to_board	poldrack-single-stim	s554	False
1.0	391.431	2.408	391.43	0	PA_without_intermediate	test	ward_and_allport	-1	47.0	n/a	feedback	poldrack-single-stim	s554	False
