onset	duration	movement_onset	EV	action	block_duration	experiment_exp_id	gain_amount	gain_probability	key_press	loss_amount	loss_probability	num_cards	num_click_in_round	num_loss_cards	risk	response_time	total_cards	trial_id	trial_type	worker_id	junk	feedback
3.009	2.538	5.547	0.4963351798919619	draw_card	2.538	columbia_card_task_fmri	12.0	0.8333333333333334	89.0	-70.0	0.1666666666666666	6.0	1.0	1.0	-3.2457653484339666	2.538	n/a	stim	poldrack-single-stim	s554	False	1
5.549	0.765	6.314	-2.2369981534413705	draw_card	0.765	columbia_card_task_fmri	12.0	0.8	89.0	-70.0	0.2	6.0	2.0	1.0	-1.010571417730972	0.765	2.0	stim	poldrack-single-stim	s554	False	0
7.068	1.5	6.317	n/a	-1.0	2.454	columbia_card_task_fmri	n/a	n/a	-1.0	n/a	n/a	n/a	n/a	n/a	n/a	n/a	n/a	ITI	poldrack-single-stim	s554	False	0
8.773	2.302	11.075	1.329668513225296	draw_card	2.302	columbia_card_task_fmri	14.0	0.8333333333333334	89.0	-75.0	0.1666666666666666	6.0	1.0	1.0	-0.6430192275584972	2.302	n/a	stim	poldrack-single-stim	s554	False	1
11.076	0.713	11.789	-1.636998153441371	draw_card	0.713	columbia_card_task_fmri	14.0	0.8	89.0	-75.0	0.2	6.0	2.0	1.0	1.783835999897775	0.713	n/a	stim	poldrack-single-stim	s554	False	1
11.792	0.767	12.559	-6.086998153441372	draw_card	0.767	columbia_card_task_fmri	14.0	0.75	89.0	-75.0	0.25	6.0	3.0	1.0	4.716969542727362	0.767	n/a	stim	poldrack-single-stim	s554	False	1
12.561	1.775	14.336	-13.50366482010804	draw_card	1.775	columbia_card_task_fmri	14.0	0.6666666666666667	89.0	-75.0	0.3333333333333333	6.0	4.0	1.0	8.12890861265209	1.775	n/a	stim	poldrack-single-stim	s554	False	1
14.338	1.165	15.503	-28.33699815344137	end_round	1.165	columbia_card_task_fmri	14.0	0.5	71.0	-75.0	0.5	6.0	5.0	1.0	10.670723448906934	1.165	4.0	stim	poldrack-single-stim	s554	False	1
16.255	1.5	15.504	n/a	-1.0	2.454	columbia_card_task_fmri	n/a	n/a	-1.0	n/a	n/a	n/a	n/a	n/a	n/a	n/a	n/a	ITI	poldrack-single-stim	s554	False	0
17.961	2.552	20.513	2.996335179891962	draw_card	2.552	columbia_card_task_fmri	15.0	0.8333333333333334	89.0	-70.0	0.1666666666666666	6.0	1.0	1.0	-2.1304233104772905	2.552	n/a	stim	poldrack-single-stim	s554	False	1
20.515	0.943	21.458	0.163001846558628	draw_card	0.943	columbia_card_task_fmri	15.0	0.8	89.0	-70.0	0.2	6.0	2.0	1.0	0.1869193098312678	0.943	n/a	stim	poldrack-single-stim	s554	False	1
21.46	0.848	22.308	-4.086998153441372	draw_card	0.848	columbia_card_task_fmri	15.0	0.75	89.0	-70.0	0.25	6.0	3.0	1.0	2.9877681830350085	0.848	3.0	stim	poldrack-single-stim	s554	False	0
23.06	1.5	22.309	n/a	-1.0	2.522	columbia_card_task_fmri	n/a	n/a	-1.0	n/a	n/a	n/a	n/a	n/a	n/a	n/a	n/a	ITI	poldrack-single-stim	s554	False	0
24.835	1.374	26.209	3.829668513225296	draw_card	1.374	columbia_card_task_fmri	17.0	0.8333333333333334	89.0	-75.0	0.1666666666666666	6.0	1.0	1.0	0.472722017759736	1.374	n/a	stim	poldrack-single-stim	s554	False	1
26.212	0.52	26.732	0.7630018465586295	draw_card	0.52	columbia_card_task_fmri	17.0	0.8	89.0	-75.0	0.2	6.0	2.0	1.0	2.981698995228392	0.52	n/a	stim	poldrack-single-stim	s554	False	1
26.734	1.132	27.866	-3.836998153441372	draw_card	1.132	columbia_card_task_fmri	17.0	0.75	89.0	-75.0	0.25	6.0	3.0	1.0	6.014032794477743	1.132	3.0	stim	poldrack-single-stim	s554	False	0
28.618	1.5	27.867	n/a	-1.0	2.386	columbia_card_task_fmri	n/a	n/a	-1.0	n/a	n/a	n/a	n/a	n/a	n/a	n/a	n/a	ITI	poldrack-single-stim	s554	False	0
30.256	2.83	33.086	5.163001846558628	draw_card	2.83	columbia_card_task_fmri	24.0	0.75	89.0	-60.0	0.25	8.0	1.0	2.0	2.5555101360407875	2.83	n/a	stim	poldrack-single-stim	s554	False	1
33.087	0.59	33.677	2.163001846558628	draw_card	0.59	columbia_card_task_fmri	24.0	0.7142857142857143	89.0	-60.0	0.2857142857142857	8.0	2.0	2.0	4.127113777096362	0.59	n/a	stim	poldrack-single-stim	s554	False	1
33.678	1.846	35.524	-1.836998153441372	draw_card	1.846	columbia_card_task_fmri	24.0	0.6666666666666667	89.0	-60.0	0.3333333333333333	8.0	3.0	2.0	5.775197881404715	1.846	n/a	stim	poldrack-single-stim	s554	False	1
35.527	1.087	36.614	-7.436998153441373	draw_card	1.087	columbia_card_task_fmri	24.0	0.6	89.0	-60.0	0.4	8.0	4.0	2.0	7.326420515981319	1.087	n/a	stim	poldrack-single-stim	s554	False	1
36.615	1.787	38.402	-15.836998153441373	end_round	1.787	columbia_card_task_fmri	24.0	0.5	71.0	-60.0	0.5	8.0	5.0	2.0	8.17384664433257	1.787	4.0	stim	poldrack-single-stim	s554	False	1
39.155	1.5	38.404	n/a	-1.0	2.454	columbia_card_task_fmri	n/a	n/a	-1.0	n/a	n/a	n/a	n/a	n/a	n/a	n/a	n/a	ITI	poldrack-single-stim	s554	False	0
40.86	3.415	44.275	5.163001846558628	draw_card	3.415	columbia_card_task_fmri	29.0	0.75	89.0	-75.0	0.25	8.0	1.0	2.0	11.20342297763306	3.415	n/a	stim	poldrack-single-stim	s554	False	1
44.277	1.332	45.609	1.4487161322729163	draw_card	1.332	columbia_card_task_fmri	29.0	0.7142857142857143	89.0	-75.0	0.2857142857142857	8.0	2.0	2.0	13.150361505822694	1.332	n/a	stim	poldrack-single-stim	s554	False	1
45.611	1.348	46.959	-3.5036648201080363	draw_card	1.348	columbia_card_task_fmri	29.0	0.6666666666666667	89.0	-75.0	0.3333333333333333	8.0	3.0	2.0	15.191948341301334	1.348	n/a	stim	poldrack-single-stim	s554	False	1
46.961	2.231	49.192	-10.436998153441372	draw_card	2.231	columbia_card_task_fmri	29.0	0.6	89.0	-75.0	0.4	8.0	4.0	2.0	17.113466129355324	2.231	4.0	stim	poldrack-single-stim	s554	False	0
49.944	1.5	49.193	n/a	-1.0	2.522	columbia_card_task_fmri	n/a	n/a	-1.0	n/a	n/a	n/a	n/a	n/a	n/a	n/a	n/a	ITI	poldrack-single-stim	s554	False	0
51.718	2.13	53.848	0.9407796243364084	draw_card	2.13	columbia_card_task_fmri	17.0	0.7777777777777778	89.0	-65.0	0.2222222222222222	9.0	1.0	2.0	0.2773930879195276	2.13	n/a	stim	poldrack-single-stim	s554	False	1
53.849	2.614	56.463	-1.336998153441372	draw_card	2.614	columbia_card_task_fmri	17.0	0.75	89.0	-65.0	0.25	9.0	2.0	2.0	1.691049110545059	2.614	n/a	stim	poldrack-single-stim	s554	False	1
56.465	1.313	57.778	-4.265569582012799	draw_card	1.313	columbia_card_task_fmri	17.0	0.7142857142857143	89.0	-65.0	0.2857142857142857	9.0	3.0	2.0	3.225105683487321	1.313	n/a	stim	poldrack-single-stim	s554	False	1
57.781	1.313	59.094	-8.170331486774703	draw_card	1.313	columbia_card_task_fmri	17.0	0.6666666666666667	89.0	-65.0	0.3333333333333333	9.0	4.0	2.0	4.8338264214485065	1.313	n/a	stim	poldrack-single-stim	s554	False	1
59.096	1.327	60.423	-13.636998153441372	end_round	1.327	columbia_card_task_fmri	17.0	0.6	71.0	-65.0	0.4	9.0	5.0	2.0	6.348008166764416	1.327	4.0	stim	poldrack-single-stim	s554	False	1
61.175	1.5	60.424	n/a	-1.0	2.522	columbia_card_task_fmri	n/a	n/a	-1.0	n/a	n/a	n/a	n/a	n/a	n/a	n/a	n/a	ITI	poldrack-single-stim	s554	False	0
62.949	3.14	66.089	5.263001846558628	draw_card	3.14	columbia_card_task_fmri	14.0	0.9	89.0	-95.0	0.1	10.0	1.0	1.0	-1.1103540254091442	3.14	n/a	stim	poldrack-single-stim	s554	False	1
66.091	1.063	67.154	4.051890735447516	draw_card	1.063	columbia_card_task_fmri	14.0	0.8888888888888888	89.0	-95.0	0.1111111111111111	10.0	2.0	1.0	0.4418030616416999	1.063	n/a	stim	poldrack-single-stim	s554	False	1
67.156	0.647	67.803	2.538001846558628	draw_card	0.647	columbia_card_task_fmri	14.0	0.875	89.0	-95.0	0.125	10.0	3.0	1.0	2.2313825502559865	0.647	n/a	stim	poldrack-single-stim	s554	False	1
67.805	0.554	68.359	0.5915732751300569	draw_card	0.554	columbia_card_task_fmri	14.0	0.8571428571428572	89.0	-95.0	0.1428571428571428	10.0	4.0	1.0	4.321522469025886	0.554	n/a	stim	poldrack-single-stim	s554	False	1
68.361	0.548	68.909	-2.0036648201080363	draw_card	0.548	columbia_card_task_fmri	14.0	0.8333333333333334	89.0	-95.0	0.1666666666666666	10.0	5.0	1.0	6.797633889829385	0.548	n/a	stim	poldrack-single-stim	s554	False	1
68.911	0.657	69.568	-5.636998153441371	draw_card	0.657	columbia_card_task_fmri	14.0	0.8	89.0	-95.0	0.2	10.0	6.0	1.0	9.77180661513848	0.657	n/a	stim	poldrack-single-stim	s554	False	1
69.569	1.614	71.183	-11.086998153441373	end_round	1.614	columbia_card_task_fmri	14.0	0.75	71.0	-95.0	0.25	10.0	7.0	1.0	13.366107585115202	1.614	6.0	stim	poldrack-single-stim	s554	False	1
71.936	1.5	71.185	n/a	-1.0	2.59	columbia_card_task_fmri	n/a	n/a	-1.0	n/a	n/a	n/a	n/a	n/a	n/a	n/a	n/a	ITI	poldrack-single-stim	s554	False	0
73.777	2.455	76.232	1.163001846558628	draw_card	2.455	columbia_card_task_fmri	15.0	0.8	89.0	-65.0	0.2	10.0	1.0	2.0	-1.8087943633480563	2.455	n/a	stim	poldrack-single-stim	s554	False	1
76.233	1.015	77.248	-0.6147759312191488	draw_card	1.015	columbia_card_task_fmri	15.0	0.7777777777777778	89.0	-65.0	0.2222222222222222	10.0	2.0	2.0	-0.5523761323337908	1.015	2.0	stim	poldrack-single-stim	s554	False	0
78.001	1.5	77.25	n/a	-1.0	2.454	columbia_card_task_fmri	n/a	n/a	-1.0	n/a	n/a	n/a	n/a	n/a	n/a	n/a	n/a	ITI	poldrack-single-stim	s554	False	0
79.708	4.629	84.337	2.763001846558629	draw_card	4.629	columbia_card_task_fmri	17.0	0.8	89.0	-65.0	0.2	10.0	1.0	2.0	-1.010571417730972	4.629	n/a	stim	poldrack-single-stim	s554	False	1
84.339	1.266	85.605	0.9407796243364084	draw_card	1.266	columbia_card_task_fmri	17.0	0.7777777777777778	89.0	-65.0	0.2222222222222222	10.0	2.0	2.0	0.2773930879195276	1.266	2.0	stim	poldrack-single-stim	s554	False	0
86.359	1.5	85.608	n/a	-1.0	2.318	columbia_card_task_fmri	n/a	n/a	-1.0	n/a	n/a	n/a	n/a	n/a	n/a	n/a	n/a	ITI	poldrack-single-stim	s554	False	0
87.93	1.321	89.251	1.329668513225296	draw_card	1.321	columbia_card_task_fmri	13.0	0.8333333333333334	89.0	-70.0	0.1666666666666666	12.0	1.0	2.0	-2.8740062125647263	1.321	n/a	stim	poldrack-single-stim	s554	False	1
89.253	0.702	89.955	0.0720927556495345	draw_card	0.702	columbia_card_task_fmri	13.0	0.8181818181818181	89.0	-70.0	0.1818181818181818	12.0	2.0	2.0	-1.7961707000284548	0.702	n/a	stim	poldrack-single-stim	s554	False	1
89.956	0.622	90.578	-1.4369981534413716	draw_card	0.622	columbia_card_task_fmri	13.0	0.8	89.0	-70.0	0.2	12.0	3.0	2.0	-0.611427933002723	0.622	n/a	stim	poldrack-single-stim	s554	False	1
90.581	0.575	91.156	-3.2814425978858166	draw_card	0.575	columbia_card_task_fmri	13.0	0.7777777777777778	89.0	-70.0	0.2222222222222222	12.0	4.0	2.0	0.6923085130049529	0.575	n/a	stim	poldrack-single-stim	s554	False	1
91.159	0.531	91.69	-5.586998153441372	draw_card	0.531	columbia_card_task_fmri	13.0	0.75	89.0	-70.0	0.25	12.0	5.0	2.0	2.12327022484574	0.531	n/a	stim	poldrack-single-stim	s554	False	1
91.692	2.727	94.419	-8.551283867727086	draw_card	2.727	columbia_card_task_fmri	13.0	0.7142857142857143	89.0	-70.0	0.2857142857142857	12.0	6.0	2.0	3.676100717779484	2.727	n/a	stim	poldrack-single-stim	s554	False	1
94.421	0.694	95.115	-12.503664820108035	draw_card	0.694	columbia_card_task_fmri	13.0	0.6666666666666667	89.0	-70.0	0.3333333333333333	12.0	7.0	2.0	5.30450351109257	0.694	n/a	stim	poldrack-single-stim	s554	False	1
95.117	2.474	97.591	-18.03699815344137	end_round	2.474	columbia_card_task_fmri	13.0	0.6	71.0	-70.0	0.4	12.0	8.0	2.0	6.837206024391534	2.474	7.0	stim	poldrack-single-stim	s554	False	1
98.345	1.5	97.594	n/a	-1.0	2.25	columbia_card_task_fmri	n/a	n/a	-1.0	n/a	n/a	n/a	n/a	n/a	n/a	n/a	n/a	ITI	poldrack-single-stim	s554	False	0
99.846	2.275	102.121	1.329668513225296	draw_card	2.275	columbia_card_task_fmri	15.0	0.8333333333333334	89.0	-80.0	0.1666666666666666	12.0	1.0	2.0	1.58860765053398	2.275	n/a	stim	poldrack-single-stim	s554	False	1
102.123	0.925	103.048	-0.1097254261686471	draw_card	0.925	columbia_card_task_fmri	15.0	0.8181818181818181	89.0	-80.0	0.1818181818181818	12.0	2.0	2.0	2.8229618985518456	0.925	2.0	stim	poldrack-single-stim	s554	False	0
103.801	1.5	103.05	n/a	-1.0	2.658	columbia_card_task_fmri	n/a	n/a	-1.0	n/a	n/a	n/a	n/a	n/a	n/a	n/a	n/a	ITI	poldrack-single-stim	s554	False	0
105.711	3.866	109.577	0.3630018465586291	draw_card	3.866	columbia_card_task_fmri	14.0	0.8	89.0	-65.0	0.2	15.0	1.0	3.0	-2.2078722107560225	3.866	n/a	stim	poldrack-single-stim	s554	False	1
109.578	0.763	110.341	-0.765569582012799	draw_card	0.763	columbia_card_task_fmri	14.0	0.7857142857142857	89.0	-65.0	0.2142857142857142	15.0	2.0	3.0	-1.3939824163392132	0.763	2.0	stim	poldrack-single-stim	s554	False	0
111.095	1.5	110.344	n/a	-1.0	2.454	columbia_card_task_fmri	n/a	n/a	-1.0	n/a	n/a	n/a	n/a	n/a	n/a	n/a	n/a	ITI	poldrack-single-stim	s554	False	0
112.801	2.197	114.998	0.288001846558628	end_round	2.197	columbia_card_task_fmri	1.0	0.9375	71.0	-45.0	0.0625	16.0	1.0	1.0	-22.53884454313078	2.197	0.0	stim	poldrack-single-stim	s554	False	1
115.751	1.5	115.0	n/a	-1.0	2.386	columbia_card_task_fmri	n/a	n/a	-1.0	n/a	n/a	n/a	n/a	n/a	n/a	n/a	n/a	ITI	poldrack-single-stim	s554	False	0
117.39	1.637	119.027	1.225501846558628	draw_card	1.637	columbia_card_task_fmri	15.0	0.8125	89.0	-70.0	0.1875	16.0	1.0	3.0	-0.6348264253555058	1.637	n/a	stim	poldrack-single-stim	s554	False	1
119.029	1.649	120.678	0.163001846558628	draw_card	1.649	columbia_card_task_fmri	15.0	0.8	89.0	-70.0	0.2	16.0	2.0	3.0	0.1869193098312678	1.649	n/a	stim	poldrack-single-stim	s554	False	1
120.68	2.409	123.089	-1.0512838677270873	draw_card	2.409	columbia_card_task_fmri	15.0	0.7857142857142857	89.0	-70.0	0.2142857142857142	16.0	3.0	3.0	1.0628947738123244	2.409	3.0	stim	poldrack-single-stim	s554	False	0
123.843	1.5	123.092	n/a	-1.0	2.59	columbia_card_task_fmri	n/a	n/a	-1.0	n/a	n/a	n/a	n/a	n/a	n/a	n/a	n/a	ITI	poldrack-single-stim	s554	False	0
125.684	2.151	127.835	8.163001846558629	draw_card	2.151	columbia_card_task_fmri	30.0	0.7	89.0	-50.0	0.3	10.0	1.0	3.0	2.8425456308899086	2.151	1.0	stim	poldrack-single-stim	s554	False	0
128.589	1.5	127.838	n/a	-1.0	2.318	columbia_card_task_fmri	n/a	n/a	-1.0	n/a	n/a	n/a	n/a	n/a	n/a	n/a	n/a	ITI	poldrack-single-stim	s554	False	0
130.158	2.077	132.235	7.563001846558628	draw_card	2.077	columbia_card_task_fmri	17.0	0.8666666666666667	89.0	-70.0	0.1333333333333333	15.0	1.0	2.0	-4.228507477184738	2.077	1.0	stim	poldrack-single-stim	s554	False	0
132.989	1.5	132.238	n/a	-1.0	2.59	columbia_card_task_fmri	n/a	n/a	-1.0	n/a	n/a	n/a	n/a	n/a	n/a	n/a	n/a	ITI	poldrack-single-stim	s554	False	0
134.831	3.669	138.5	2.788001846558628	draw_card	3.669	columbia_card_task_fmri	7.0	0.9375	89.0	-95.0	0.0625	16.0	1.0	1.0	-9.09698071487454	3.669	n/a	stim	poldrack-single-stim	s554	False	1
138.503	0.524	139.027	2.363001846558628	draw_card	0.524	columbia_card_task_fmri	7.0	0.9333333333333332	89.0	-95.0	0.0666666666666666	16.0	2.0	1.0	-8.346767764612505	0.524	n/a	stim	poldrack-single-stim	s554	False	1
139.028	0.432	139.46	1.8772875608443425	draw_card	0.432	columbia_card_task_fmri	7.0	0.9285714285714286	89.0	-95.0	0.0714285714285714	16.0	3.0	1.0	-7.523896574083704	0.432	n/a	stim	poldrack-single-stim	s554	False	1
139.463	1.235	140.698	1.3168480004047811	draw_card	1.235	columbia_card_task_fmri	7.0	0.9230769230769232	89.0	-95.0	0.0769230769230769	16.0	4.0	1.0	-6.61600851032361	1.235	n/a	stim	poldrack-single-stim	s554	False	1
140.7	0.729	141.429	0.663001846558628	draw_card	0.729	columbia_card_task_fmri	7.0	0.9166666666666666	89.0	-95.0	0.0833333333333333	16.0	5.0	1.0	-5.607645802930612	0.729	n/a	stim	poldrack-single-stim	s554	False	1
141.43	1.637	143.067	-0.1097254261686453	draw_card	1.637	columbia_card_task_fmri	7.0	0.9090909090909092	89.0	-95.0	0.0909090909090909	16.0	6.0	1.0	-4.479207000127122	1.637	n/a	stim	poldrack-single-stim	s554	False	1
143.07	1.308	144.378	-1.036998153441372	draw_card	1.308	columbia_card_task_fmri	7.0	0.9	89.0	-95.0	0.1	16.0	7.0	1.0	-3.205461737926204	1.308	n/a	stim	poldrack-single-stim	s554	False	1
144.381	3.851	148.232	-2.170331486774706	draw_card	3.851	columbia_card_task_fmri	7.0	0.8888888888888888	89.0	-95.0	0.1111111111111111	16.0	8.0	1.0	-1.7534131031503437	3.851	n/a	stim	poldrack-single-stim	s554	False	1
148.234	1.48	149.714	-3.586998153441372	end_round	1.48	columbia_card_task_fmri	7.0	0.875	71.0	-95.0	0.125	16.0	9.0	1.0	-0.0792092299538254	1.48	8.0	stim	poldrack-single-stim	s554	False	1
150.468	1.5	149.717	n/a	-1.0	2.386	columbia_card_task_fmri	n/a	n/a	-1.0	n/a	n/a	n/a	n/a	n/a	n/a	n/a	n/a	ITI	poldrack-single-stim	s554	False	0
152.107	4.478	156.585	4.350501846558628	draw_card	4.478	columbia_card_task_fmri	9.0	0.9375	89.0	-100.0	0.0625	16.0	1.0	1.0	-7.408602439378676	4.478	n/a	stim	poldrack-single-stim	s554	False	1
156.588	0.564	157.152	3.8963351798919614	draw_card	0.564	columbia_card_task_fmri	9.0	0.9333333333333332	89.0	-100.0	0.0666666666666666	16.0	2.0	1.0	-6.606535649516658	0.564	n/a	stim	poldrack-single-stim	s554	False	1
157.154	0.622	157.776	3.377287560844344	draw_card	0.622	columbia_card_task_fmri	9.0	0.9285714285714286	89.0	-100.0	0.0714285714285714	16.0	3.0	1.0	-5.72681271431259	0.622	n/a	stim	poldrack-single-stim	s554	False	1
157.778	0.548	158.326	2.778386461943244	draw_card	0.548	columbia_card_task_fmri	9.0	0.9230769230769232	89.0	-100.0	0.0769230769230769	16.0	4.0	1.0	-4.756225777271954	0.548	n/a	stim	poldrack-single-stim	s554	False	1
158.329	0.549	158.878	2.079668513225296	draw_card	0.549	columbia_card_task_fmri	9.0	0.9166666666666666	89.0	-100.0	0.0833333333333333	16.0	5.0	1.0	-3.678254990764589	0.549	n/a	stim	poldrack-single-stim	s554	False	1
158.88	0.616	159.496	1.253910937467718	draw_card	0.616	columbia_card_task_fmri	9.0	0.9090909090909092	89.0	-100.0	0.0909090909090909	16.0	6.0	1.0	-2.4719522553348163	0.616	n/a	stim	poldrack-single-stim	s554	False	1
159.5	0.589	160.089	0.2630018465586277	draw_card	0.589	columbia_card_task_fmri	9.0	0.9	89.0	-100.0	0.1	16.0	7.0	1.0	-1.1103540254091442	0.589	n/a	stim	poldrack-single-stim	s554	False	1
160.091	1.447	161.538	-0.9481092645524828	draw_card	1.447	columbia_card_task_fmri	9.0	0.8888888888888888	89.0	-100.0	0.1111111111111111	16.0	8.0	1.0	0.4418030616416928	1.447	n/a	stim	poldrack-single-stim	s554	False	1
161.541	0.745	162.286	-2.461998153441372	draw_card	0.745	columbia_card_task_fmri	9.0	0.875	89.0	-100.0	0.125	16.0	9.0	1.0	2.2313825502559865	0.745	n/a	stim	poldrack-single-stim	s554	False	1
162.288	1.437	163.725	-4.408426724869941	draw_card	1.437	columbia_card_task_fmri	9.0	0.8571428571428572	89.0	-100.0	0.1428571428571428	16.0	10.0	1.0	4.321522469025886	1.437	n/a	stim	poldrack-single-stim	s554	False	1
163.727	1.572	165.299	-7.003664820108036	end_round	1.572	columbia_card_task_fmri	9.0	0.8333333333333334	71.0	-100.0	0.1666666666666666	16.0	11.0	1.0	6.797633889829385	1.572	10.0	stim	poldrack-single-stim	s554	False	1
166.052	1.5	165.301	n/a	-1.0	2.318	columbia_card_task_fmri	n/a	n/a	-1.0	n/a	n/a	n/a	n/a	n/a	n/a	n/a	n/a	ITI	poldrack-single-stim	s554	False	0
167.622	4.138	171.76	5.288001846558628	draw_card	4.138	columbia_card_task_fmri	15.0	0.875	89.0	-80.0	0.125	16.0	1.0	2.0	-2.389148768192257	4.138	n/a	stim	poldrack-single-stim	s554	False	1
171.762	0.756	172.518	4.496335179891962	draw_card	0.756	columbia_card_task_fmri	15.0	0.8666666666666667	89.0	-80.0	0.1333333333333333	16.0	2.0	2.0	-1.5156669075795932	0.756	n/a	stim	poldrack-single-stim	s554	False	1
172.52	0.552	173.072	3.591573275130058	draw_card	0.552	columbia_card_task_fmri	15.0	0.8571428571428572	89.0	-80.0	0.1428571428571428	16.0	3.0	2.0	-0.568443863087218	0.552	n/a	stim	poldrack-single-stim	s554	False	1
173.075	0.64	173.715	2.5476172311740117	draw_card	0.64	columbia_card_task_fmri	15.0	0.8461538461538461	89.0	-80.0	0.1538461538461538	16.0	4.0	2.0	0.4624818938191311	0.64	n/a	stim	poldrack-single-stim	s554	False	1
173.716	0.792	174.508	1.329668513225296	draw_card	0.792	columbia_card_task_fmri	15.0	0.8333333333333334	89.0	-80.0	0.1666666666666666	16.0	5.0	2.0	1.58860765053398	0.792	n/a	stim	poldrack-single-stim	s554	False	1
174.51	0.525	175.035	-0.1097254261686471	draw_card	0.525	columbia_card_task_fmri	15.0	0.8181818181818181	89.0	-80.0	0.1818181818181818	16.0	6.0	2.0	2.8229618985518456	0.525	n/a	stim	poldrack-single-stim	s554	False	1
175.038	0.605	175.643	-1.836998153441372	draw_card	0.605	columbia_card_task_fmri	15.0	0.8	89.0	-80.0	0.2	16.0	7.0	2.0	4.179696621408425	0.605	n/a	stim	poldrack-single-stim	s554	False	1
175.645	0.464	176.109	-3.948109264552485	draw_card	0.464	columbia_card_task_fmri	15.0	0.7777777777777778	89.0	-80.0	0.2222222222222222	16.0	8.0	2.0	5.6726438339102	0.464	n/a	stim	poldrack-single-stim	s554	False	1
176.113	0.412	176.525	-6.586998153441372	draw_card	0.412	columbia_card_task_fmri	15.0	0.75	89.0	-80.0	0.25	16.0	9.0	2.0	7.311220507287821	0.412	9.0	stim	poldrack-single-stim	s554	False	0
177.279	1.5	176.528	n/a	-1.0	2.318	columbia_card_task_fmri	n/a	n/a	-1.0	n/a	n/a	n/a	n/a	n/a	n/a	n/a	n/a	ITI	poldrack-single-stim	s554	False	0
178.85	2.562	181.412	7.413001846558628	draw_card	2.562	columbia_card_task_fmri	16.0	0.875	89.0	-70.0	0.125	16.0	1.0	2.0	-5.357857624232178	2.562	n/a	stim	poldrack-single-stim	s554	False	1
181.415	0.417	181.832	6.696335179891961	draw_card	0.417	columbia_card_task_fmri	16.0	0.8666666666666667	89.0	-70.0	0.1333333333333333	16.0	2.0	2.0	-4.56752607581447	0.417	n/a	stim	poldrack-single-stim	s554	False	1
181.835	0.375	182.21	5.877287560844343	draw_card	0.375	columbia_card_task_fmri	16.0	0.8571428571428572	89.0	-70.0	0.1428571428571428	16.0	3.0	2.0	-3.710449413938729	0.375	n/a	stim	poldrack-single-stim	s554	False	1
182.214	0.356	182.57	4.932232615789396	draw_card	0.356	columbia_card_task_fmri	16.0	0.8461538461538461	89.0	-70.0	0.1538461538461538	16.0	4.0	2.0	-2.7776103022648826	0.356	4.0	stim	poldrack-single-stim	s554	False	0
183.326	1.5	182.575	n/a	-1.0	2.318	columbia_card_task_fmri	n/a	n/a	-1.0	n/a	n/a	n/a	n/a	n/a	n/a	n/a	n/a	ITI	poldrack-single-stim	s554	False	0
184.896	2.846	187.742	8.725501846558629	draw_card	2.846	columbia_card_task_fmri	30.0	0.6875	89.0	-45.0	0.3125	16.0	1.0	5.0	0.9488432341459756	2.846	n/a	stim	poldrack-single-stim	s554	False	1
187.746	1.488	189.234	7.163001846558632	draw_card	1.488	columbia_card_task_fmri	30.0	0.6666666666666667	89.0	-45.0	0.3333333333333333	16.0	2.0	5.0	1.5396285147634998	1.488	n/a	stim	poldrack-single-stim	s554	False	1
189.236	1.538	190.774	5.37728756084434	end_round	1.538	columbia_card_task_fmri	30.0	0.6428571428571428	71.0	-45.0	0.3571428571428571	16.0	3.0	5.0	2.1200286149233847	1.538	2.0	stim	poldrack-single-stim	s554	False	1
191.528	1.5	190.777	n/a	-1.0	2.386	columbia_card_task_fmri	n/a	n/a	-1.0	n/a	n/a	n/a	n/a	n/a	n/a	n/a	n/a	ITI	poldrack-single-stim	s554	False	0
193.167	1.492	194.659	0.4963351798919619	draw_card	1.492	columbia_card_task_fmri	13.0	0.8333333333333334	89.0	-75.0	0.1666666666666666	6.0	1.0	1.0	-1.0148983482938905	1.492	n/a	stim	poldrack-single-stim	s554	False	1
194.662	1.163	195.825	-2.436998153441372	draw_card	1.163	columbia_card_task_fmri	13.0	0.8	89.0	-75.0	0.2	6.0	2.0	1.0	1.3845806239263112	1.163	n/a	stim	poldrack-single-stim	s554	False	1
195.828	1.005	196.833	-6.836998153441372	draw_card	1.005	columbia_card_task_fmri	13.0	0.75	89.0	-75.0	0.25	6.0	3.0	1.0	4.284644976719655	1.005	n/a	stim	poldrack-single-stim	s554	False	1
196.835	1.276	198.111	-14.170331486774703	end_round	1.276	columbia_card_task_fmri	13.0	0.6666666666666667	71.0	-75.0	0.3333333333333333	6.0	4.0	1.0	7.6581364204474625	1.276	3.0	stim	poldrack-single-stim	s554	False	1
198.865	1.5	198.114	n/a	-1.0	2.25	columbia_card_task_fmri	n/a	n/a	-1.0	n/a	n/a	n/a	n/a	n/a	n/a	n/a	n/a	ITI	poldrack-single-stim	s554	False	0
200.368	1.975	202.343	2.16300184655863	draw_card	1.975	columbia_card_task_fmri	14.0	0.8333333333333334	89.0	-70.0	0.1666666666666666	6.0	1.0	1.0	-2.5022252780022605	1.975	n/a	stim	poldrack-single-stim	s554	False	1
202.346	0.668	203.014	-0.6369981534413709	draw_card	0.668	columbia_card_task_fmri	14.0	0.8	89.0	-70.0	0.2	6.0	2.0	1.0	-0.2122641189617482	0.668	n/a	stim	poldrack-single-stim	s554	False	1
203.016	1.668	204.684	-4.836998153441372	draw_card	1.668	columbia_card_task_fmri	14.0	0.75	89.0	-70.0	0.25	6.0	3.0	1.0	2.5555101360407875	1.668	n/a	stim	poldrack-single-stim	s554	False	1
204.686	1.467	206.153	-11.836998153441373	draw_card	1.467	columbia_card_task_fmri	14.0	0.6666666666666667	89.0	-70.0	0.3333333333333333	6.0	4.0	1.0	5.775197881404715	1.467	n/a	stim	poldrack-single-stim	s554	False	1
206.157	0.708	206.865	-25.83699815344137	end_round	0.708	columbia_card_task_fmri	14.0	0.5	71.0	-70.0	0.5	6.0	5.0	1.0	8.17384664433257	0.708	4.0	stim	poldrack-single-stim	s554	False	1
207.618	1.5	206.867	n/a	-1.0	2.386	columbia_card_task_fmri	n/a	n/a	-1.0	n/a	n/a	n/a	n/a	n/a	n/a	n/a	n/a	ITI	poldrack-single-stim	s554	False	0
209.257	2.872	212.129	2.16300184655863	draw_card	2.872	columbia_card_task_fmri	16.0	0.8333333333333334	89.0	-80.0	0.1666666666666666	6.0	1.0	1.0	1.960599283417117	2.872	n/a	stim	poldrack-single-stim	s554	False	1
212.131	1.843	213.974	-1.0369981534413713	draw_card	1.843	columbia_card_task_fmri	16.0	0.8	89.0	-80.0	0.2	6.0	2.0	1.0	4.5790569070443965	1.843	n/a	stim	poldrack-single-stim	s554	False	1
213.977	1.671	215.648	-5.836998153441372	draw_card	1.671	columbia_card_task_fmri	16.0	0.75	89.0	-80.0	0.25	6.0	3.0	1.0	7.743642058466627	1.671	n/a	stim	poldrack-single-stim	s554	False	1
215.651	1.954	217.605	-13.836998153441368	draw_card	1.954	columbia_card_task_fmri	16.0	0.6666666666666667	89.0	-80.0	0.3333333333333333	6.0	4.0	1.0	11.42468215021588	1.954	4.0	stim	poldrack-single-stim	s554	False	0
218.358	1.5	217.607	n/a	-1.0	2.59	columbia_card_task_fmri	n/a	n/a	-1.0	n/a	n/a	n/a	n/a	n/a	n/a	n/a	n/a	ITI	poldrack-single-stim	s554	False	0
220.201	1.714	221.915	4.66300184655863	draw_card	1.714	columbia_card_task_fmri	17.0	0.8333333333333334	89.0	-70.0	0.1666666666666666	6.0	1.0	1.0	-1.3867591644403632	1.714	n/a	stim	poldrack-single-stim	s554	False	1
221.917	1.082	222.999	1.7630018465586297	draw_card	1.082	columbia_card_task_fmri	17.0	0.8	89.0	-70.0	0.2	6.0	2.0	1.0	0.985342316880704	1.082	n/a	stim	poldrack-single-stim	s554	False	1
223.002	0.672	223.674	-2.586998153441372	draw_card	0.672	columbia_card_task_fmri	17.0	0.75	89.0	-70.0	0.25	6.0	3.0	1.0	3.852336191370874	0.672	n/a	stim	poldrack-single-stim	s554	False	1
223.676	0.878	224.554	-9.836998153441373	end_round	0.878	columbia_card_task_fmri	17.0	0.6666666666666667	71.0	-70.0	0.3333333333333333	6.0	4.0	1.0	7.187378734624311	0.878	3.0	stim	poldrack-single-stim	s554	False	1
225.309	1.5	224.558	n/a	-1.0	2.658	columbia_card_task_fmri	n/a	n/a	-1.0	n/a	n/a	n/a	n/a	n/a	n/a	n/a	n/a	ITI	poldrack-single-stim	s554	False	0
227.219	2.034	229.253	4.663001846558628	draw_card	2.034	columbia_card_task_fmri	25.0	0.75	89.0	-65.0	0.25	8.0	1.0	2.0	5.1493093650150215	2.034	n/a	stim	poldrack-single-stim	s554	False	1
229.257	1.792	231.049	1.4487161322729163	draw_card	1.792	columbia_card_task_fmri	25.0	0.7142857142857143	89.0	-65.0	0.2857142857142857	8.0	2.0	2.0	6.833537112759238	1.792	2.0	stim	poldrack-single-stim	s554	False	0
231.802	1.5	231.051	n/a	-1.0	2.386	columbia_card_task_fmri	n/a	n/a	-1.0	n/a	n/a	n/a	n/a	n/a	n/a	n/a	n/a	ITI	poldrack-single-stim	s554	False	0
233.441	2.123	235.564	4.663001846558628	draw_card	2.123	columbia_card_task_fmri	30.0	0.75	89.0	-80.0	0.25	8.0	1.0	2.0	13.798670417316655	2.123	1.0	stim	poldrack-single-stim	s554	False	0
236.318	1.5	235.567	n/a	-1.0	2.386	columbia_card_task_fmri	n/a	n/a	-1.0	n/a	n/a	n/a	n/a	n/a	n/a	n/a	n/a	ITI	poldrack-single-stim	s554	False	0
237.957	2.807	240.764	4.363001846558629	draw_card	2.807	columbia_card_task_fmri	13.0	0.9	89.0	-95.0	0.1	10.0	1.0	1.0	-1.4096938234898817	2.807	n/a	stim	poldrack-single-stim	s554	False	1
240.767	1.023	241.79	3.163001846558628	draw_card	1.023	columbia_card_task_fmri	13.0	0.8888888888888888	89.0	-95.0	0.1111111111111111	10.0	2.0	1.0	0.1281637905706745	1.023	n/a	stim	poldrack-single-stim	s554	False	1
241.792	2.429	244.221	1.663001846558628	draw_card	2.429	columbia_card_task_fmri	13.0	0.875	89.0	-95.0	0.125	10.0	3.0	1.0	1.901262865436955	2.429	n/a	stim	poldrack-single-stim	s554	False	1
244.224	1.226	245.45	-0.265569582012799	draw_card	1.226	columbia_card_task_fmri	13.0	0.8571428571428572	89.0	-95.0	0.1428571428571428	10.0	4.0	1.0	3.972161863408971	1.226	n/a	stim	poldrack-single-stim	s554	False	1
245.453	1.707	247.16	-2.83699815344137	draw_card	1.707	columbia_card_task_fmri	13.0	0.8333333333333334	89.0	-95.0	0.1666666666666666	10.0	5.0	1.0	6.42548796375803	1.707	n/a	stim	poldrack-single-stim	s554	False	1
247.163	0.833	247.996	-6.436998153441372	end_round	0.833	columbia_card_task_fmri	13.0	0.8	71.0	-95.0	0.2	10.0	6.0	1.0	9.372302482314636	0.833	5.0	stim	poldrack-single-stim	s554	False	1
248.75	1.5	247.999	n/a	-1.0	2.25	columbia_card_task_fmri	n/a	n/a	-1.0	n/a	n/a	n/a	n/a	n/a	n/a	n/a	n/a	ITI	poldrack-single-stim	s554	False	0
250.254	2.279	252.533	5.763001846558628	draw_card	2.279	columbia_card_task_fmri	14.0	0.9	89.0	-90.0	0.1	10.0	1.0	1.0	-2.606926497024407	2.279	1.0	stim	poldrack-single-stim	s554	False	0
253.287	1.5	252.536	n/a	-1.0	2.318	columbia_card_task_fmri	n/a	n/a	-1.0	n/a	n/a	n/a	n/a	n/a	n/a	n/a	n/a	ITI	poldrack-single-stim	s554	False	0
254.857	1.617	256.474	0.9630018465586287	draw_card	1.617	columbia_card_task_fmri	16.0	0.8	89.0	-70.0	0.2	10.0	1.0	2.0	0.5861216718834683	1.617	n/a	stim	poldrack-single-stim	s554	False	1
256.477	1.987	258.464	-0.9481092645524828	draw_card	1.987	columbia_card_task_fmri	16.0	0.7777777777777778	89.0	-70.0	0.2222222222222222	10.0	2.0	2.0	1.9371694811808169	1.987	n/a	stim	poldrack-single-stim	s554	False	1
258.467	1.339	259.806	-3.336998153441372	draw_card	1.339	columbia_card_task_fmri	16.0	0.75	89.0	-70.0	0.25	10.0	3.0	2.0	3.4200437353494597	1.339	3.0	stim	poldrack-single-stim	s554	False	0
260.561	1.5	259.81	n/a	-1.0	2.25	columbia_card_task_fmri	n/a	n/a	-1.0	n/a	n/a	n/a	n/a	n/a	n/a	n/a	n/a	ITI	poldrack-single-stim	s554	False	0
262.063	1.895	263.958	0.2463351798919619	end_round	1.895	columbia_card_task_fmri	7.0	0.9166666666666666	71.0	-100.0	0.0833333333333333	12.0	1.0	1.0	-4.229580076996189	1.895	0.0	stim	poldrack-single-stim	s554	False	1
264.714	1.5	263.963	n/a	-1.0	2.25	columbia_card_task_fmri	n/a	n/a	-1.0	n/a	n/a	n/a	n/a	n/a	n/a	n/a	n/a	ITI	poldrack-single-stim	s554	False	0
266.217	3.728	269.945	0.4963351798919637	draw_card	3.728	columbia_card_task_fmri	14.0	0.8333333333333334	89.0	-80.0	0.1666666666666666	12.0	1.0	2.0	1.2166305799503547	3.728	1.0	stim	poldrack-single-stim	s554	False	0
270.7	1.5	269.949	n/a	-1.0	2.386	columbia_card_task_fmri	n/a	n/a	-1.0	n/a	n/a	n/a	n/a	n/a	n/a	n/a	n/a	ITI	poldrack-single-stim	s554	False	0
272.34	2.472	274.812	2.163001846558628	draw_card	2.472	columbia_card_task_fmri	15.0	0.8333333333333334	89.0	-75.0	0.1666666666666666	12.0	1.0	2.0	-0.2711224098171314	2.472	n/a	stim	poldrack-single-stim	s554	False	1
274.816	0.978	275.794	0.799365482922263	draw_card	0.978	columbia_card_task_fmri	15.0	0.8181818181818181	89.0	-75.0	0.1818181818181818	12.0	2.0	2.0	0.8980259547798042	0.978	2.0	stim	poldrack-single-stim	s554	False	0
276.548	1.5	275.797	n/a	-1.0	2.386	columbia_card_task_fmri	n/a	n/a	-1.0	n/a	n/a	n/a	n/a	n/a	n/a	n/a	n/a	ITI	poldrack-single-stim	s554	False	0
278.188	1.714	279.902	1.163001846558628	draw_card	1.714	columbia_card_task_fmri	15.0	0.8	89.0	-65.0	0.2	15.0	1.0	3.0	-1.8087943633480563	1.714	n/a	stim	poldrack-single-stim	s554	False	1
279.905	1.312	281.217	0.0201447037014856	draw_card	1.312	columbia_card_task_fmri	15.0	0.7857142857142857	89.0	-65.0	0.2142857142857142	15.0	2.0	3.0	-0.9845556139282294	1.312	n/a	stim	poldrack-single-stim	s554	False	1
281.221	1.537	282.758	-1.2985366149798354	draw_card	1.537	columbia_card_task_fmri	15.0	0.7692307692307692	89.0	-65.0	0.2307692307692307	15.0	3.0	3.0	-0.1064788604891333	1.537	n/a	stim	poldrack-single-stim	s554	False	1
282.761	1.333	284.094	-2.836998153441372	draw_card	1.333	columbia_card_task_fmri	15.0	0.75	89.0	-65.0	0.25	15.0	4.0	3.0	0.8266660815057634	1.333	4.0	stim	poldrack-single-stim	s554	False	0
284.848	1.5	284.097	n/a	-1.0	2.726	columbia_card_task_fmri	n/a	n/a	-1.0	n/a	n/a	n/a	n/a	n/a	n/a	n/a	n/a	ITI	poldrack-single-stim	s554	False	0
286.827	1.704	288.531	0.413001846558628	draw_card	1.704	columbia_card_task_fmri	14.0	0.8125	89.0	-70.0	0.1875	16.0	1.0	3.0	-1.0243020902798676	1.704	n/a	stim	poldrack-single-stim	s554	False	1
288.533	1.094	289.627	-0.6369981534413709	draw_card	1.094	columbia_card_task_fmri	14.0	0.8	89.0	-70.0	0.2	16.0	2.0	3.0	-0.2122641189617482	1.094	2.0	stim	poldrack-single-stim	s554	False	0
290.382	1.5	289.631	n/a	-1.0	2.454	columbia_card_task_fmri	n/a	n/a	-1.0	n/a	n/a	n/a	n/a	n/a	n/a	n/a	n/a	ITI	poldrack-single-stim	s554	False	0
292.089	2.321	294.41	0.350501846558628	draw_card	2.321	columbia_card_task_fmri	11.0	0.6875	89.0	-30.0	0.3125	16.0	1.0	5.0	-14.755106816831256	2.321	n/a	stim	poldrack-single-stim	s554	False	1
294.413	1.976	296.389	-0.503664820108038	draw_card	1.976	columbia_card_task_fmri	11.0	0.6666666666666667	89.0	-30.0	0.3333333333333333	16.0	2.0	5.0	-14.433571416342868	1.976	2.0	stim	poldrack-single-stim	s554	False	0
297.144	1.5	296.393	n/a	-1.0	2.318	columbia_card_task_fmri	n/a	n/a	-1.0	n/a	n/a	n/a	n/a	n/a	n/a	n/a	n/a	ITI	poldrack-single-stim	s554	False	0
298.715	1.482	300.197	5.163001846558628	draw_card	1.482	columbia_card_task_fmri	15.0	0.8666666666666667	89.0	-75.0	0.1333333333333333	15.0	1.0	2.0	-3.211330011241145	1.482	n/a	stim	poldrack-single-stim	s554	False	1
300.201	1.75	301.951	4.305858989415772	draw_card	1.75	columbia_card_task_fmri	15.0	0.8571428571428572	89.0	-75.0	0.1428571428571428	15.0	2.0	2.0	-2.314183060638065	1.75	n/a	stim	poldrack-single-stim	s554	False	1
301.954	1.199	303.153	3.3168480004047813	draw_card	1.199	columbia_card_task_fmri	15.0	0.8461538461538461	89.0	-75.0	0.1538461538461538	15.0	3.0	2.0	-1.337744515587353	1.199	n/a	stim	poldrack-single-stim	s554	False	1
303.156	1.199	304.355	2.163001846558628	draw_card	1.199	columbia_card_task_fmri	15.0	0.8333333333333334	89.0	-75.0	0.1666666666666666	15.0	4.0	2.0	-0.2711224098171314	1.199	n/a	stim	poldrack-single-stim	s554	False	1
304.359	1.029	305.388	0.799365482922263	end_round	1.029	columbia_card_task_fmri	15.0	0.8181818181818181	71.0	-75.0	0.1818181818181818	15.0	5.0	2.0	0.8980259547798042	1.029	4.0	stim	poldrack-single-stim	s554	False	1
306.141	1.5	305.39	n/a	-1.0	2.318	columbia_card_task_fmri	n/a	n/a	-1.0	n/a	n/a	n/a	n/a	n/a	n/a	n/a	n/a	ITI	poldrack-single-stim	s554	False	0
307.713	1.607	309.32	6.896335179891962	draw_card	1.607	columbia_card_task_fmri	17.0	0.8666666666666667	89.0	-75.0	0.1333333333333333	15.0	1.0	2.0	-2.533116888752243	1.607	n/a	stim	poldrack-single-stim	s554	False	1
309.324	1.861	311.185	6.020144703701488	draw_card	1.861	columbia_card_task_fmri	17.0	0.8571428571428572	89.0	-75.0	0.1428571428571428	15.0	2.0	2.0	-1.615938032528291	1.861	n/a	stim	poldrack-single-stim	s554	False	1
311.19	1.328	312.518	5.009155692712475	draw_card	1.328	columbia_card_task_fmri	17.0	0.8461538461538461	89.0	-75.0	0.1538461538461538	15.0	3.0	2.0	-0.6177030957255241	1.328	n/a	stim	poldrack-single-stim	s554	False	1
312.522	1.634	314.156	3.829668513225296	draw_card	1.634	columbia_card_task_fmri	17.0	0.8333333333333334	89.0	-75.0	0.1666666666666666	15.0	4.0	2.0	0.472722017759736	1.634	n/a	stim	poldrack-single-stim	s554	False	1
314.16	1.245	315.405	2.4357291192859	draw_card	1.245	columbia_card_task_fmri	17.0	0.8181818181818181	89.0	-75.0	0.1818181818181818	15.0	5.0	2.0	1.6679543239952397	1.245	n/a	stim	poldrack-single-stim	s554	False	1
315.408	2.59	317.998	0.7630018465586295	draw_card	2.59	columbia_card_task_fmri	17.0	0.8	89.0	-75.0	0.2	15.0	6.0	2.0	2.981698995228392	2.59	6.0	stim	poldrack-single-stim	s554	False	0
318.753	1.5	318.002	n/a	-1.0	2.59	columbia_card_task_fmri	n/a	n/a	-1.0	n/a	n/a	n/a	n/a	n/a	n/a	n/a	n/a	ITI	poldrack-single-stim	s554	False	0
320.597	1.956	322.553	2.475501846558628	draw_card	1.956	columbia_card_task_fmri	2.0	0.9375	89.0	-25.0	0.0625	16.0	1.0	1.0	-26.997525857176385	1.956	n/a	stim	poldrack-single-stim	s554	False	1
322.556	1.152	323.708	2.363001846558628	draw_card	1.152	columbia_card_task_fmri	2.0	0.9333333333333332	89.0	-25.0	0.0666666666666666	16.0	2.0	1.0	-26.808018727862944	1.152	n/a	stim	poldrack-single-stim	s554	False	1
323.712	0.543	324.255	2.2344304179872	draw_card	0.543	columbia_card_task_fmri	2.0	0.9285714285714286	89.0	-25.0	0.0714285714285714	16.0	3.0	1.0	-26.599601393657352	0.543	3.0	stim	poldrack-single-stim	s554	False	0
325.009	1.5	324.258	n/a	-1.0	2.726	columbia_card_task_fmri	n/a	n/a	-1.0	n/a	n/a	n/a	n/a	n/a	n/a	n/a	n/a	ITI	poldrack-single-stim	s554	False	0
326.99	2.282	329.272	4.663001846558628	draw_card	2.282	columbia_card_task_fmri	9.0	0.9375	89.0	-95.0	0.0625	16.0	1.0	1.0	-8.614669599686849	2.282	n/a	stim	poldrack-single-stim	s554	False	1
329.276	1.217	330.493	4.229668513225295	draw_card	1.217	columbia_card_task_fmri	9.0	0.9333333333333332	89.0	-95.0	0.0666666666666666	16.0	2.0	1.0	-7.849638870381717	1.217	n/a	stim	poldrack-single-stim	s554	False	1
330.497	0.919	331.416	3.7344304179872	draw_card	0.919	columbia_card_task_fmri	9.0	0.9285714285714286	89.0	-95.0	0.0714285714285714	16.0	3.0	1.0	-7.010521849644832	0.919	n/a	stim	poldrack-single-stim	s554	False	1
331.418	0.665	332.083	3.163001846558628	end_round	0.665	columbia_card_task_fmri	9.0	0.9230769230769232	71.0	-95.0	0.0769230769230769	16.0	4.0	1.0	-6.084717261972557	0.665	3.0	stim	poldrack-single-stim	s554	False	1
332.838	1.5	332.087	n/a	-1.0	2.522	columbia_card_task_fmri	n/a	n/a	-1.0	n/a	n/a	n/a	n/a	n/a	n/a	n/a	n/a	ITI	poldrack-single-stim	s554	False	0
334.614	1.972	336.586	6.225501846558628	draw_card	1.972	columbia_card_task_fmri	11.0	0.9375	89.0	-100.0	0.0625	16.0	1.0	1.0	-6.92606914833047	1.972	n/a	stim	poldrack-single-stim	s554	False	1
336.589	0.962	337.551	5.763001846558629	draw_card	0.962	columbia_card_task_fmri	11.0	0.9333333333333332	89.0	-100.0	0.0666666666666666	16.0	2.0	1.0	-6.109191022427549	0.962	n/a	stim	poldrack-single-stim	s554	False	1
337.555	1.736	339.291	5.234430417987201	draw_card	1.736	columbia_card_task_fmri	11.0	0.9285714285714286	89.0	-100.0	0.0714285714285714	16.0	3.0	1.0	-5.213228910173964	1.736	n/a	stim	poldrack-single-stim	s554	False	1
339.295	2.178	341.473	4.624540308097091	draw_card	2.178	columbia_card_task_fmri	11.0	0.9230769230769232	89.0	-100.0	0.0769230769230769	16.0	4.0	1.0	-4.224732331992776	2.178	n/a	stim	poldrack-single-stim	s554	False	1
341.477	1.715	343.192	3.913001846558628	draw_card	1.715	columbia_card_task_fmri	11.0	0.9166666666666666	89.0	-100.0	0.0833333333333333	16.0	5.0	1.0	-3.126878003719291	1.715	n/a	stim	poldrack-single-stim	s554	False	1
343.195	0.855	344.05	3.0720927556495363	end_round	0.855	columbia_card_task_fmri	11.0	0.9090909090909092	71.0	-100.0	0.0909090909090909	16.0	6.0	1.0	-1.898333085776084	0.855	5.0	stim	poldrack-single-stim	s554	False	1
344.805	1.5	344.054	n/a	-1.0	3.134	columbia_card_task_fmri	n/a	n/a	-1.0	n/a	n/a	n/a	n/a	n/a	n/a	n/a	n/a	ITI	poldrack-single-stim	s554	False	0
347.191	2.215	349.406	6.788001846558628	draw_card	2.215	columbia_card_task_fmri	16.0	0.875	89.0	-75.0	0.125	16.0	1.0	2.0	-3.708763724556871	2.215	n/a	stim	poldrack-single-stim	s554	False	1
349.41	1.515	350.925	6.029668513225295	draw_card	1.515	columbia_card_task_fmri	16.0	0.8666666666666667	89.0	-75.0	0.1333333333333333	16.0	2.0	2.0	-2.87223251647826	1.515	n/a	stim	poldrack-single-stim	s554	False	1
350.928	1.375	352.303	5.16300184655863	draw_card	1.375	columbia_card_task_fmri	16.0	0.8571428571428572	89.0	-75.0	0.1428571428571428	16.0	3.0	2.0	-1.9650693577840637	1.375	n/a	stim	poldrack-single-stim	s554	False	1
352.306	1.637	353.943	4.163001846558628	draw_card	1.637	columbia_card_task_fmri	16.0	0.8461538461538461	89.0	-75.0	0.1538461538461538	16.0	4.0	2.0	-0.9777323547955632	1.637	n/a	stim	poldrack-single-stim	s554	False	1
353.947	1.163	355.11	2.996335179891962	draw_card	1.163	columbia_card_task_fmri	16.0	0.8333333333333334	89.0	-75.0	0.1666666666666666	16.0	5.0	2.0	0.1007915239158876	1.163	n/a	stim	poldrack-single-stim	s554	False	1
355.115	1.126	356.241	1.6175473011040813	end_round	1.126	columbia_card_task_fmri	16.0	0.8181818181818181	71.0	-75.0	0.1818181818181818	16.0	6.0	2.0	1.2829821355434987	1.126	5.0	stim	poldrack-single-stim	s554	False	1
356.998	1.5	356.247	n/a	-1.0	2.386	columbia_card_task_fmri	n/a	n/a	-1.0	n/a	n/a	n/a	n/a	n/a	n/a	n/a	n/a	ITI	poldrack-single-stim	s554	False	0
358.638	2.696	361.334	7.038001846558628	draw_card	2.696	columbia_card_task_fmri	17.0	0.875	89.0	-80.0	0.125	16.0	1.0	2.0	-1.7292407959484208	2.696	n/a	stim	poldrack-single-stim	s554	False	1
361.338	1.532	362.87	6.229668513225296	draw_card	1.532	columbia_card_task_fmri	17.0	0.8666666666666667	89.0	-80.0	0.1333333333333333	16.0	2.0	2.0	-0.8372862958943443	1.532	n/a	stim	poldrack-single-stim	s554	False	1
362.873	0.905	363.778	5.305858989415774	draw_card	0.905	columbia_card_task_fmri	17.0	0.8571428571428572	89.0	-80.0	0.1428571428571428	16.0	3.0	2.0	0.1299639349353469	0.905	n/a	stim	poldrack-single-stim	s554	False	1
363.781	1.169	364.95	4.239924923481705	draw_card	1.169	columbia_card_task_fmri	17.0	0.8461538461538461	89.0	-80.0	0.1538461538461538	16.0	4.0	2.0	1.182681239254627	1.169	n/a	stim	poldrack-single-stim	s554	False	1
364.954	1.401	366.355	2.996335179891964	end_round	1.401	columbia_card_task_fmri	17.0	0.8333333333333334	71.0	-80.0	0.1666666666666666	16.0	5.0	2.0	2.3326050298514147	1.401	4.0	stim	poldrack-single-stim	s554	False	1
367.11	1.5	366.359	n/a	-1.0	2.386	columbia_card_task_fmri	n/a	n/a	-1.0	n/a	n/a	n/a	n/a	n/a	n/a	n/a	n/a	ITI	poldrack-single-stim	s554	False	0
379.753	3.283	383.036	1.329668513225296	draw_card	3.283	columbia_card_task_fmri	13.0	0.8333333333333334	89.0	-70.0	0.1666666666666666	6.0	1.0	1.0	-2.8740062125647263	3.283	n/a	stim	poldrack-single-stim	s554	False	1
383.041	1.365	384.406	-1.4369981534413716	draw_card	1.365	columbia_card_task_fmri	13.0	0.8	89.0	-70.0	0.2	6.0	2.0	1.0	-0.611427933002723	1.365	n/a	stim	poldrack-single-stim	s554	False	1
384.41	1.782	386.192	-5.586998153441372	draw_card	1.782	columbia_card_task_fmri	13.0	0.75	89.0	-70.0	0.25	6.0	3.0	1.0	2.12327022484574	1.782	n/a	stim	poldrack-single-stim	s554	False	1
386.195	1.696	387.891	-12.503664820108035	draw_card	1.696	columbia_card_task_fmri	13.0	0.6666666666666667	89.0	-70.0	0.3333333333333333	6.0	4.0	1.0	5.30450351109257	1.696	n/a	stim	poldrack-single-stim	s554	False	1
387.895	0.75	388.645	-26.33699815344137	end_round	0.75	columbia_card_task_fmri	13.0	0.5	71.0	-70.0	0.5	6.0	5.0	1.0	7.67451634869996	0.75	4.0	stim	poldrack-single-stim	s554	False	1
389.401	1.5	388.65	n/a	-1.0	2.318	columbia_card_task_fmri	n/a	n/a	-1.0	n/a	n/a	n/a	n/a	n/a	n/a	n/a	n/a	ITI	poldrack-single-stim	s554	False	0
390.973	3.624	394.597	1.329668513225296	draw_card	3.624	columbia_card_task_fmri	15.0	0.8333333333333334	89.0	-80.0	0.1666666666666666	6.0	1.0	1.0	1.58860765053398	3.624	n/a	stim	poldrack-single-stim	s554	False	1
394.6	0.997	395.597	-1.836998153441372	draw_card	0.997	columbia_card_task_fmri	15.0	0.8	89.0	-80.0	0.2	6.0	2.0	1.0	4.179696621408425	0.997	2.0	stim	poldrack-single-stim	s554	False	0
396.353	1.5	395.602	n/a	-1.0	2.318	columbia_card_task_fmri	n/a	n/a	-1.0	n/a	n/a	n/a	n/a	n/a	n/a	n/a	n/a	ITI	poldrack-single-stim	s554	False	0
397.925	1.701	399.626	2.996335179891962	draw_card	1.701	columbia_card_task_fmri	16.0	0.8333333333333334	89.0	-75.0	0.1666666666666666	6.0	1.0	1.0	0.1007915239158876	1.701	n/a	stim	poldrack-single-stim	s554	False	1
399.63	1.051	400.681	-0.0369981534413712	draw_card	1.051	columbia_card_task_fmri	16.0	0.8	89.0	-75.0	0.2	6.0	2.0	1.0	2.58239571589327	1.051	n/a	stim	poldrack-single-stim	s554	False	1
400.686	0.801	401.487	-4.586998153441372	draw_card	0.801	columbia_card_task_fmri	16.0	0.75	89.0	-75.0	0.25	6.0	3.0	1.0	5.581663942164809	0.801	n/a	stim	poldrack-single-stim	s554	False	1
401.492	0.799	402.291	-12.170331486774703	end_round	0.799	columbia_card_task_fmri	16.0	0.6666666666666667	71.0	-75.0	0.3333333333333333	6.0	4.0	1.0	9.070494608251494	0.799	3.0	stim	poldrack-single-stim	s554	False	1
403.046	1.5	402.295	n/a	-1.0	2.862	columbia_card_task_fmri	n/a	n/a	-1.0	n/a	n/a	n/a	n/a	n/a	n/a	n/a	n/a	ITI	poldrack-single-stim	s554	False	0
405.162	1.591	406.753	4.163001846558628	draw_card	1.591	columbia_card_task_fmri	21.0	0.75	89.0	-55.0	0.25	8.0	1.0	2.0	-0.9018414569279544	1.591	n/a	stim	poldrack-single-stim	s554	False	1
406.757	1.266	408.023	1.4487161322729143	draw_card	1.266	columbia_card_task_fmri	21.0	0.7142857142857143	89.0	-55.0	0.2857142857142857	8.0	2.0	2.0	0.5195537004425432	1.266	n/a	stim	poldrack-single-stim	s554	False	1
408.027	1.524	409.551	-2.1703314867747023	draw_card	1.524	columbia_card_task_fmri	21.0	0.6666666666666667	89.0	-55.0	0.3333333333333333	8.0	3.0	2.0	2.010164846990264	1.524	n/a	stim	poldrack-single-stim	s554	False	1
409.555	0.96	410.515	-7.236998153441372	end_round	0.96	columbia_card_task_fmri	21.0	0.6	71.0	-55.0	0.4	8.0	4.0	2.0	3.413206988139592	0.96	3.0	stim	poldrack-single-stim	s554	False	1
411.27	1.5	410.519	n/a	-1.0	2.726	columbia_card_task_fmri	n/a	n/a	-1.0	n/a	n/a	n/a	n/a	n/a	n/a	n/a	n/a	ITI	poldrack-single-stim	s554	False	0
413.25	1.79	415.04	5.413001846558628	draw_card	1.79	columbia_card_task_fmri	26.0	0.75	89.0	-65.0	0.25	8.0	1.0	2.0	5.581663942164809	1.79	n/a	stim	poldrack-single-stim	s554	False	1
415.043	1.555	416.598	2.163001846558632	draw_card	1.555	columbia_card_task_fmri	26.0	0.7142857142857143	89.0	-65.0	0.2857142857142857	8.0	2.0	2.0	7.284660125299801	1.555	2.0	stim	poldrack-single-stim	s554	False	0
417.354	1.5	416.603	n/a	-1.0	2.25	columbia_card_task_fmri	n/a	n/a	-1.0	n/a	n/a	n/a	n/a	n/a	n/a	n/a	n/a	ITI	poldrack-single-stim	s554	False	0
418.858	1.642	420.5	0.4963351798919619	draw_card	1.642	columbia_card_task_fmri	15.0	0.7777777777777778	89.0	-60.0	0.2222222222222222	9.0	1.0	2.0	-2.626401500099405	1.642	1.0	stim	poldrack-single-stim	s554	False	0
421.257	1.5	420.506	n/a	-1.0	2.318	columbia_card_task_fmri	n/a	n/a	-1.0	n/a	n/a	n/a	n/a	n/a	n/a	n/a	n/a	ITI	poldrack-single-stim	s554	False	0
422.828	2.142	424.97	4.863001846558629	draw_card	2.142	columbia_card_task_fmri	13.0	0.9	89.0	-90.0	0.1	10.0	1.0	1.0	-2.906201201940505	2.142	n/a	stim	poldrack-single-stim	s554	False	1
424.974	0.815	425.789	3.718557402114184	draw_card	0.815	columbia_card_task_fmri	13.0	0.8888888888888888	89.0	-90.0	0.1111111111111111	10.0	2.0	1.0	-1.4398495421779742	0.815	n/a	stim	poldrack-single-stim	s554	False	1
425.793	0.589	426.382	2.288001846558628	draw_card	0.589	columbia_card_task_fmri	13.0	0.875	89.0	-90.0	0.125	10.0	3.0	1.0	0.2508384659243816	0.589	n/a	stim	poldrack-single-stim	s554	False	1
426.385	1.239	427.624	0.4487161322729163	draw_card	1.239	columbia_card_task_fmri	13.0	0.8571428571428572	89.0	-90.0	0.1428571428571428	10.0	4.0	1.0	2.225523406198945	1.239	n/a	stim	poldrack-single-stim	s554	False	1
427.628	0.961	428.589	-2.003664820108038	end_round	0.961	columbia_card_task_fmri	13.0	0.8333333333333334	71.0	-90.0	0.1666666666666666	10.0	5.0	1.0	4.5649129497083365	0.961	4.0	stim	poldrack-single-stim	s554	False	1
429.343	1.5	428.592	n/a	-1.0	2.454	columbia_card_task_fmri	n/a	n/a	-1.0	n/a	n/a	n/a	n/a	n/a	n/a	n/a	n/a	ITI	poldrack-single-stim	s554	False	0
431.051	1.833	432.884	6.163001846558628	draw_card	1.833	columbia_card_task_fmri	15.0	0.9	89.0	-95.0	0.1	10.0	1.0	1.0	-0.8110022625371514	1.833	n/a	stim	poldrack-single-stim	s554	False	1
432.889	1.415	434.304	4.940779624336405	draw_card	1.415	columbia_card_task_fmri	15.0	0.8888888888888888	89.0	-95.0	0.1111111111111111	10.0	2.0	1.0	0.7554537608603127	1.415	n/a	stim	poldrack-single-stim	s554	False	1
434.308	1.302	435.61	3.413001846558628	draw_card	1.302	columbia_card_task_fmri	15.0	0.875	89.0	-95.0	0.125	10.0	3.0	1.0	2.5615131010904904	1.302	3.0	stim	poldrack-single-stim	s554	False	0
436.365	1.5	435.614	n/a	-1.0	2.522	columbia_card_task_fmri	n/a	n/a	-1.0	n/a	n/a	n/a	n/a	n/a	n/a	n/a	n/a	ITI	poldrack-single-stim	s554	False	0
438.141	2.086	440.227	1.9630018465586287	draw_card	2.086	columbia_card_task_fmri	16.0	0.8	89.0	-65.0	0.2	10.0	1.0	2.0	-1.4096938234898886	2.086	1.0	stim	poldrack-single-stim	s554	False	0
440.982	1.5	440.231	n/a	-1.0	2.318	columbia_card_task_fmri	n/a	n/a	-1.0	n/a	n/a	n/a	n/a	n/a	n/a	n/a	n/a	ITI	poldrack-single-stim	s554	False	0
442.554	2.581	445.135	0.663001846558628	draw_card	2.581	columbia_card_task_fmri	7.0	0.9166666666666666	89.0	-95.0	0.0833333333333333	12.0	1.0	1.0	-5.607645802930612	2.581	n/a	stim	poldrack-single-stim	s554	False	1
445.139	0.47	445.609	-0.1097254261686453	draw_card	0.47	columbia_card_task_fmri	7.0	0.9090909090909092	89.0	-95.0	0.0909090909090909	12.0	2.0	1.0	-4.479207000127122	0.47	n/a	stim	poldrack-single-stim	s554	False	1
445.614	0.551	446.165	-1.036998153441372	draw_card	0.551	columbia_card_task_fmri	7.0	0.9	89.0	-95.0	0.1	12.0	3.0	1.0	-3.205461737926204	0.551	n/a	stim	poldrack-single-stim	s554	False	1
446.17	0.563	446.733	-2.170331486774706	draw_card	0.563	columbia_card_task_fmri	7.0	0.8888888888888888	89.0	-95.0	0.1111111111111111	12.0	4.0	1.0	-1.7534131031503437	0.563	n/a	stim	poldrack-single-stim	s554	False	1
446.736	0.675	447.411	-3.586998153441372	end_round	0.675	columbia_card_task_fmri	7.0	0.875	71.0	-95.0	0.125	12.0	5.0	1.0	-0.0792092299538254	0.675	4.0	stim	poldrack-single-stim	s554	False	1
448.167	1.5	447.416	n/a	-1.0	2.522	columbia_card_task_fmri	n/a	n/a	-1.0	n/a	n/a	n/a	n/a	n/a	n/a	n/a	n/a	ITI	poldrack-single-stim	s554	False	0
449.943	1.952	451.895	1.329668513225296	draw_card	1.952	columbia_card_task_fmri	14.0	0.8333333333333334	89.0	-75.0	0.1666666666666666	12.0	1.0	2.0	-0.6430192275584972	1.952	n/a	stim	poldrack-single-stim	s554	False	1
451.9	1.233	453.133	-0.0188163352595553	draw_card	1.233	columbia_card_task_fmri	14.0	0.8181818181818181	89.0	-75.0	0.1818181818181818	12.0	2.0	2.0	0.5130863191900872	1.233	n/a	stim	poldrack-single-stim	s554	False	1
453.138	1.949	455.087	-1.636998153441371	draw_card	1.949	columbia_card_task_fmri	14.0	0.8	89.0	-75.0	0.2	12.0	3.0	2.0	1.783835999897775	1.949	n/a	stim	poldrack-single-stim	s554	False	1
455.091	1.441	456.532	-3.614775931219147	draw_card	1.441	columbia_card_task_fmri	14.0	0.7777777777777778	89.0	-75.0	0.2222222222222222	12.0	4.0	2.0	3.182189005842502	1.441	n/a	stim	poldrack-single-stim	s554	False	1
456.537	1.619	458.156	-6.086998153441372	draw_card	1.619	columbia_card_task_fmri	14.0	0.75	89.0	-75.0	0.25	12.0	5.0	2.0	4.716969542727362	1.619	n/a	stim	poldrack-single-stim	s554	False	1
458.159	0.799	458.958	-9.265569582012798	end_round	0.799	columbia_card_task_fmri	14.0	0.7142857142857143	71.0	-75.0	0.2857142857142857	12.0	6.0	2.0	6.382428248263686	0.799	5.0	stim	poldrack-single-stim	s554	False	1
459.714	1.5	458.963	n/a	-1.0	2.998	columbia_card_task_fmri	n/a	n/a	-1.0	n/a	n/a	n/a	n/a	n/a	n/a	n/a	n/a	ITI	poldrack-single-stim	s554	False	0
461.967	2.023	463.99	2.996335179891962	draw_card	2.023	columbia_card_task_fmri	15.0	0.8333333333333334	89.0	-70.0	0.1666666666666666	12.0	1.0	2.0	-2.1304233104772905	2.023	n/a	stim	poldrack-single-stim	s554	False	1
463.995	1.679	465.674	1.7084563920131712	draw_card	1.679	columbia_card_task_fmri	15.0	0.8181818181818181	89.0	-70.0	0.1818181818181818	12.0	2.0	2.0	-1.026495141003096	1.679	n/a	stim	poldrack-single-stim	s554	False	1
465.677	1.429	467.106	0.163001846558628	draw_card	1.429	columbia_card_task_fmri	15.0	0.8	89.0	-70.0	0.2	12.0	3.0	2.0	0.1869193098312678	1.429	n/a	stim	poldrack-single-stim	s554	False	1
467.11	1.847	468.957	-1.7258870423302612	draw_card	1.847	columbia_card_task_fmri	15.0	0.7777777777777778	89.0	-70.0	0.2222222222222222	12.0	4.0	2.0	1.5221973817508356	1.847	4.0	stim	poldrack-single-stim	s554	False	0
469.713	1.5	468.962	n/a	-1.0	2.318	columbia_card_task_fmri	n/a	n/a	-1.0	n/a	n/a	n/a	n/a	n/a	n/a	n/a	n/a	ITI	poldrack-single-stim	s554	False	0
471.286	1.928	473.214	0.9630018465586287	draw_card	1.928	columbia_card_task_fmri	16.0	0.8	89.0	-70.0	0.2	15.0	1.0	3.0	0.5861216718834683	1.928	1.0	stim	poldrack-single-stim	s554	False	0
473.97	1.5	473.219	n/a	-1.0	2.25	columbia_card_task_fmri	n/a	n/a	-1.0	n/a	n/a	n/a	n/a	n/a	n/a	n/a	n/a	ITI	poldrack-single-stim	s554	False	0
475.475	1.031	476.506	1.350501846558628	draw_card	1.031	columbia_card_task_fmri	14.0	0.8125	89.0	-65.0	0.1875	16.0	1.0	3.0	-2.9713637939339463	1.031	n/a	stim	poldrack-single-stim	s554	False	1
476.509	0.829	477.338	0.3630018465586291	draw_card	0.829	columbia_card_task_fmri	14.0	0.8	89.0	-65.0	0.2	16.0	2.0	3.0	-2.2078722107560225	0.829	n/a	stim	poldrack-single-stim	s554	False	1
477.342	1.197	478.539	-0.765569582012799	draw_card	1.197	columbia_card_task_fmri	14.0	0.7857142857142857	89.0	-65.0	0.2142857142857142	16.0	3.0	3.0	-1.3939824163392132	1.197	n/a	stim	poldrack-single-stim	s554	False	1
478.543	0.82	479.363	-2.067767384210604	draw_card	0.82	columbia_card_task_fmri	14.0	0.7692307692307692	89.0	-65.0	0.2307692307692307	16.0	4.0	3.0	-0.5269281275692563	0.82	n/a	stim	poldrack-single-stim	s554	False	1
479.368	1.489	480.857	-3.586998153441372	draw_card	1.489	columbia_card_task_fmri	14.0	0.75	89.0	-65.0	0.25	16.0	5.0	3.0	0.394505659666585	1.489	5.0	stim	poldrack-single-stim	s554	False	0
481.612	1.5	480.861	n/a	-1.0	2.454	columbia_card_task_fmri	n/a	n/a	-1.0	n/a	n/a	n/a	n/a	n/a	n/a	n/a	n/a	ITI	poldrack-single-stim	s554	False	0
483.32	2.117	485.437	1.100501846558628	draw_card	2.117	columbia_card_task_fmri	16.0	0.8125	89.0	-75.0	0.1875	16.0	1.0	3.0	1.7024126128645278	2.117	n/a	stim	poldrack-single-stim	s554	False	1
485.442	1.368	486.81	-0.0369981534413712	draw_card	1.368	columbia_card_task_fmri	16.0	0.8	89.0	-75.0	0.2	16.0	2.0	3.0	2.58239571589327	1.368	n/a	stim	poldrack-single-stim	s554	False	1
486.815	0.581	487.396	-1.3369981534413702	draw_card	0.581	columbia_card_task_fmri	16.0	0.7857142857142857	89.0	-75.0	0.2142857142857142	16.0	3.0	3.0	3.5204398163763457	0.581	3.0	stim	poldrack-single-stim	s554	False	0
488.152	1.5	487.401	n/a	-1.0	2.318	columbia_card_task_fmri	n/a	n/a	-1.0	n/a	n/a	n/a	n/a	n/a	n/a	n/a	n/a	ITI	poldrack-single-stim	s554	False	0
489.725	1.737	491.462	5.363001846558629	draw_card	1.737	columbia_card_task_fmri	16.0	0.8666666666666667	89.0	-80.0	0.1333333333333333	15.0	1.0	2.0	-1.176484329711677	1.737	n/a	stim	poldrack-single-stim	s554	False	1
491.466	0.725	492.191	4.448716132272916	draw_card	0.725	columbia_card_task_fmri	16.0	0.8571428571428572	89.0	-80.0	0.1428571428571428	15.0	2.0	2.0	-0.2192474741458099	0.725	n/a	stim	poldrack-single-stim	s554	False	1
492.198	0.559	492.757	3.393771077327858	draw_card	0.559	columbia_card_task_fmri	16.0	0.8461538461538461	89.0	-80.0	0.1538461538461538	15.0	3.0	2.0	0.8225742801319527	0.559	n/a	stim	poldrack-single-stim	s554	False	1
492.762	0.69	493.452	2.16300184655863	draw_card	0.69	columbia_card_task_fmri	16.0	0.8333333333333334	89.0	-80.0	0.1666666666666666	15.0	4.0	2.0	1.960599283417117	0.69	n/a	stim	poldrack-single-stim	s554	False	1
493.457	1.046	494.503	0.7084563920131712	draw_card	1.046	columbia_card_task_fmri	16.0	0.8181818181818181	89.0	-80.0	0.1818181818181818	15.0	5.0	2.0	3.207993185303124	1.046	n/a	stim	poldrack-single-stim	s554	False	1
494.507	1.289	495.796	-1.0369981534413713	draw_card	1.289	columbia_card_task_fmri	16.0	0.8	89.0	-80.0	0.2	15.0	6.0	2.0	4.5790569070443965	1.289	n/a	stim	poldrack-single-stim	s554	False	1
495.804	1.051	496.855	-3.170331486774706	draw_card	1.051	columbia_card_task_fmri	16.0	0.7777777777777778	89.0	-80.0	0.2222222222222222	15.0	7.0	2.0	6.087767938820107	1.051	n/a	stim	poldrack-single-stim	s554	False	1
496.86	1.088	497.948	-5.836998153441372	draw_card	1.088	columbia_card_task_fmri	16.0	0.75	89.0	-80.0	0.25	15.0	8.0	2.0	7.743642058466627	1.088	n/a	stim	poldrack-single-stim	s554	False	1
497.953	0.592	498.545	-9.265569582012798	draw_card	0.592	columbia_card_task_fmri	16.0	0.7142857142857143	89.0	-80.0	0.2857142857142857	15.0	9.0	2.0	9.540471974568495	0.592	n/a	stim	poldrack-single-stim	s554	False	1
498.55	1.061	499.611	-13.836998153441368	draw_card	1.061	columbia_card_task_fmri	16.0	0.6666666666666667	89.0	-80.0	0.3333333333333333	15.0	10.0	2.0	11.42468215021588	1.061	10.0	stim	poldrack-single-stim	s554	False	0
500.367	1.5	499.616	n/a	-1.0	2.318	columbia_card_task_fmri	n/a	n/a	-1.0	n/a	n/a	n/a	n/a	n/a	n/a	n/a	n/a	ITI	poldrack-single-stim	s554	False	0
501.94	3.718	505.658	6.229668513225296	draw_card	3.718	columbia_card_task_fmri	17.0	0.8666666666666667	89.0	-80.0	0.1333333333333333	15.0	1.0	2.0	-0.8372862958943443	3.718	n/a	stim	poldrack-single-stim	s554	False	1
505.664	0.877	506.541	5.305858989415774	draw_card	0.877	columbia_card_task_fmri	17.0	0.8571428571428572	89.0	-80.0	0.1428571428571428	15.0	2.0	2.0	0.1299639349353469	0.877	2.0	stim	poldrack-single-stim	s554	False	0
507.297	1.5	506.546	n/a	-1.0	2.59	columbia_card_task_fmri	n/a	n/a	-1.0	n/a	n/a	n/a	n/a	n/a	n/a	n/a	n/a	ITI	poldrack-single-stim	s554	False	0
509.143	3.598	512.741	2.163001846558628	end_round	3.598	columbia_card_task_fmri	1.0	0.9375	71.0	-15.0	0.0625	16.0	1.0	1.0	-29.44575960492536	3.598	0.0	stim	poldrack-single-stim	s554	False	1
513.497	1.5	512.746	n/a	-1.0	2.25	columbia_card_task_fmri	n/a	n/a	-1.0	n/a	n/a	n/a	n/a	n/a	n/a	n/a	n/a	ITI	poldrack-single-stim	s554	False	0
515.004	2.063	517.067	5.288001846558628	draw_card	2.063	columbia_card_task_fmri	10.0	0.9375	89.0	-100.0	0.0625	16.0	1.0	1.0	-7.167342983884804	2.063	n/a	stim	poldrack-single-stim	s554	False	1
517.072	0.758	517.83	4.829668513225295	draw_card	0.758	columbia_card_task_fmri	10.0	0.9333333333333332	89.0	-100.0	0.0666666666666666	16.0	2.0	1.0	-6.35787031721463	0.758	n/a	stim	poldrack-single-stim	s554	False	1
517.835	0.636	518.471	4.305858989415772	draw_card	0.636	columbia_card_task_fmri	10.0	0.9285714285714286	89.0	-100.0	0.0714285714285714	16.0	3.0	1.0	-5.470027577914308	0.636	n/a	stim	poldrack-single-stim	s554	False	1
518.475	0.582	519.057	3.7014633850201673	draw_card	0.582	columbia_card_task_fmri	10.0	0.9230769230769232	89.0	-100.0	0.0769230769230769	16.0	4.0	1.0	-4.490485597319388	0.582	n/a	stim	poldrack-single-stim	s554	False	1
519.063	1.184	520.247	2.996335179891962	draw_card	1.184	columbia_card_task_fmri	10.0	0.9166666666666666	89.0	-100.0	0.0833333333333333	16.0	5.0	1.0	-3.402572808806397	1.184	n/a	stim	poldrack-single-stim	s554	False	1
520.252	1.29	521.542	2.1630018465586263	draw_card	1.29	columbia_card_task_fmri	10.0	0.9090909090909092	89.0	-100.0	0.0909090909090909	16.0	6.0	1.0	-2.1851487420165974	1.29	6.0	stim	poldrack-single-stim	s554	False	0
522.297	1.5	521.546	n/a	-1.0	2.25	columbia_card_task_fmri	n/a	n/a	-1.0	n/a	n/a	n/a	n/a	n/a	n/a	n/a	n/a	ITI	poldrack-single-stim	s554	False	0
523.801	1.563	525.364	5.913001846558628	draw_card	1.563	columbia_card_task_fmri	15.0	0.875	89.0	-75.0	0.125	16.0	1.0	2.0	-4.038622350900841	1.563	n/a	stim	poldrack-single-stim	s554	False	1
525.37	0.689	526.059	5.163001846558628	draw_card	0.689	columbia_card_task_fmri	15.0	0.8666666666666667	89.0	-75.0	0.1333333333333333	16.0	2.0	2.0	-3.211330011241145	0.689	n/a	stim	poldrack-single-stim	s554	False	1
526.065	0.587	526.652	4.305858989415772	draw_card	0.587	columbia_card_task_fmri	15.0	0.8571428571428572	89.0	-75.0	0.1428571428571428	16.0	3.0	2.0	-2.314183060638065	0.587	n/a	stim	poldrack-single-stim	s554	False	1
526.657	0.565	527.222	3.3168480004047813	draw_card	0.565	columbia_card_task_fmri	15.0	0.8461538461538461	89.0	-75.0	0.1538461538461538	16.0	4.0	2.0	-1.337744515587353	0.565	4.0	stim	poldrack-single-stim	s554	False	0
527.977	1.5	527.226	n/a	-1.0	2.522	columbia_card_task_fmri	n/a	n/a	-1.0	n/a	n/a	n/a	n/a	n/a	n/a	n/a	n/a	ITI	poldrack-single-stim	s554	False	0
529.754	1.292	531.046	6.163001846558628	draw_card	1.292	columbia_card_task_fmri	16.0	0.875	89.0	-80.0	0.125	16.0	1.0	2.0	-2.059202722446095	1.292	n/a	stim	poldrack-single-stim	s554	False	1
531.05	0.659	531.709	5.363001846558629	draw_card	0.659	columbia_card_task_fmri	16.0	0.8666666666666667	89.0	-80.0	0.1333333333333333	16.0	2.0	2.0	-1.176484329711677	0.659	n/a	stim	poldrack-single-stim	s554	False	1
531.713	0.644	532.357	4.448716132272916	draw_card	0.644	columbia_card_task_fmri	16.0	0.8571428571428572	89.0	-80.0	0.1428571428571428	16.0	3.0	2.0	-0.2192474741458099	0.644	3.0	stim	poldrack-single-stim	s554	False	0
533.113	1.5	532.362	n/a	-1.0	2.454	columbia_card_task_fmri	n/a	n/a	-1.0	n/a	n/a	n/a	n/a	n/a	n/a	n/a	n/a	ITI	poldrack-single-stim	s554	False	0
534.822	2.523	537.345	3.350501846558628	draw_card	2.523	columbia_card_task_fmri	4.0	0.6875	89.0	-5.0	0.3125	16.0	1.0	5.0	-29.182779796955938	2.523	1.0	stim	poldrack-single-stim	s554	False	0
538.102	1.5	537.351	n/a	-1.0	2.25	columbia_card_task_fmri	n/a	n/a	-1.0	n/a	n/a	n/a	n/a	n/a	n/a	n/a	n/a	ITI	poldrack-single-stim	s554	False	0
539.606	1.569	541.175	0.4963351798919637	draw_card	1.569	columbia_card_task_fmri	14.0	0.8333333333333334	89.0	-80.0	0.1666666666666666	6.0	1.0	1.0	1.2166305799503547	1.569	n/a	stim	poldrack-single-stim	s554	False	1
541.179	1.076	542.255	-2.636998153441371	draw_card	1.076	columbia_card_task_fmri	14.0	0.8	89.0	-80.0	0.2	6.0	2.0	1.0	3.7803499133871767	1.076	n/a	stim	poldrack-single-stim	s554	False	1
542.26	1.524	543.784	-7.336998153441372	draw_card	1.524	columbia_card_task_fmri	14.0	0.75	89.0	-80.0	0.25	6.0	3.0	1.0	6.878811507490418	1.524	n/a	stim	poldrack-single-stim	s554	False	1
543.79	0.84	544.63	-15.1703314867747	end_round	0.84	columbia_card_task_fmri	14.0	0.6666666666666667	71.0	-80.0	0.3333333333333333	6.0	4.0	1.0	10.482971005945416	0.84	3.0	stim	poldrack-single-stim	s554	False	1
545.386	1.5	544.635	n/a	-1.0	2.454	columbia_card_task_fmri	n/a	n/a	-1.0	n/a	n/a	n/a	n/a	n/a	n/a	n/a	n/a	ITI	poldrack-single-stim	s554	False	0
547.095	1.536	548.631	2.163001846558628	draw_card	1.536	columbia_card_task_fmri	15.0	0.8333333333333334	89.0	-75.0	0.1666666666666666	6.0	1.0	1.0	-0.2711224098171314	1.536	n/a	stim	poldrack-single-stim	s554	False	1
548.635	1.137	549.772	-0.836998153441372	draw_card	1.137	columbia_card_task_fmri	15.0	0.8	89.0	-75.0	0.2	6.0	2.0	1.0	2.183107877912392	1.137	n/a	stim	poldrack-single-stim	s554	False	1
549.776	1.152	550.928	-5.336998153441372	end_round	1.152	columbia_card_task_fmri	15.0	0.75	71.0	-75.0	0.25	6.0	3.0	1.0	5.1493093650150215	1.152	2.0	stim	poldrack-single-stim	s554	False	1
551.683	1.5	550.932	n/a	-1.0	2.454	columbia_card_task_fmri	n/a	n/a	-1.0	n/a	n/a	n/a	n/a	n/a	n/a	n/a	n/a	ITI	poldrack-single-stim	s554	False	0
553.392	1.52	554.912	3.829668513225296	draw_card	1.52	columbia_card_task_fmri	16.0	0.8333333333333334	89.0	-70.0	0.1666666666666666	6.0	1.0	1.0	-1.7586010403118593	1.52	n/a	stim	poldrack-single-stim	s554	False	1
554.918	1.233	556.151	0.9630018465586287	draw_card	1.233	columbia_card_task_fmri	16.0	0.8	89.0	-70.0	0.2	6.0	2.0	1.0	0.5861216718834683	1.233	n/a	stim	poldrack-single-stim	s554	False	1
556.155	0.79	556.945	-3.336998153441372	draw_card	0.79	columbia_card_task_fmri	16.0	0.75	89.0	-70.0	0.25	6.0	3.0	1.0	3.4200437353494597	0.79	n/a	stim	poldrack-single-stim	s554	False	1
556.951	1.348	558.299	-10.503664820108035	end_round	1.348	columbia_card_task_fmri	16.0	0.6666666666666667	71.0	-70.0	0.3333333333333333	6.0	4.0	1.0	6.716636059807129	1.348	3.0	stim	poldrack-single-stim	s554	False	1
559.055	1.5	558.304	n/a	-1.0	2.522	columbia_card_task_fmri	n/a	n/a	-1.0	n/a	n/a	n/a	n/a	n/a	n/a	n/a	n/a	ITI	poldrack-single-stim	s554	False	0
560.832	1.459	562.291	4.413001846558628	draw_card	1.459	columbia_card_task_fmri	23.0	0.75	89.0	-60.0	0.25	8.0	1.0	2.0	2.12327022484574	1.459	1.0	stim	poldrack-single-stim	s554	False	0
563.047	1.5	562.296	n/a	-1.0	2.454	columbia_card_task_fmri	n/a	n/a	-1.0	n/a	n/a	n/a	n/a	n/a	n/a	n/a	n/a	ITI	poldrack-single-stim	s554	False	0
564.757	2.221	566.978	4.913001846558628	draw_card	2.221	columbia_card_task_fmri	27.0	0.75	89.0	-70.0	0.25	8.0	1.0	2.0	8.17607577388275	2.221	n/a	stim	poldrack-single-stim	s554	False	1
566.983	0.636	567.619	1.4487161322729127	draw_card	0.636	columbia_card_task_fmri	27.0	0.7142857142857143	89.0	-70.0	0.2857142857142857	8.0	2.0	2.0	9.99167086868561	0.636	2.0	stim	poldrack-single-stim	s554	False	0
568.375	1.5	567.624	n/a	-1.0	2.658	columbia_card_task_fmri	n/a	n/a	-1.0	n/a	n/a	n/a	n/a	n/a	n/a	n/a	n/a	ITI	poldrack-single-stim	s554	False	0
570.288	1.337	571.625	0.1630018465586298	draw_card	1.337	columbia_card_task_fmri	16.0	0.7777777777777778	89.0	-65.0	0.2222222222222222	9.0	1.0	2.0	-0.1375020464452205	1.337	n/a	stim	poldrack-single-stim	s554	False	1
571.63	0.921	572.551	-2.086998153441372	draw_card	0.921	columbia_card_task_fmri	16.0	0.75	89.0	-65.0	0.25	9.0	2.0	2.0	1.2588474867296782	0.921	2.0	stim	poldrack-single-stim	s554	False	0
573.308	1.5	572.557	n/a	-1.0	2.386	columbia_card_task_fmri	n/a	n/a	-1.0	n/a	n/a	n/a	n/a	n/a	n/a	n/a	n/a	ITI	poldrack-single-stim	s554	False	0
574.949	1.559	576.508	5.363001846558629	draw_card	1.559	columbia_card_task_fmri	13.0	0.9	89.0	-85.0	0.1	10.0	1.0	1.0	-4.40235356272219	1.559	n/a	stim	poldrack-single-stim	s554	False	1
576.513	0.526	577.039	4.274112957669739	draw_card	0.526	columbia_card_task_fmri	13.0	0.8888888888888888	89.0	-85.0	0.1111111111111111	10.0	2.0	1.0	-3.007523756253086	0.526	n/a	stim	poldrack-single-stim	s554	False	1
577.044	0.881	577.925	2.913001846558628	draw_card	0.881	columbia_card_task_fmri	13.0	0.875	89.0	-85.0	0.125	10.0	3.0	1.0	-1.3992634726553916	0.881	n/a	stim	poldrack-single-stim	s554	False	1
577.929	1.035	578.964	1.1630018465586298	draw_card	1.035	columbia_card_task_fmri	13.0	0.8571428571428572	89.0	-85.0	0.1428571428571428	10.0	4.0	1.0	0.4791899062065212	1.035	n/a	stim	poldrack-single-stim	s554	False	1
578.97	1.01	579.98	-1.170331486774704	end_round	1.01	columbia_card_task_fmri	13.0	0.8333333333333334	71.0	-85.0	0.1666666666666666	10.0	5.0	1.0	2.7046244593230924	1.01	4.0	stim	poldrack-single-stim	s554	False	1
580.736	1.5	579.985	n/a	-1.0	2.522	columbia_card_task_fmri	n/a	n/a	-1.0	n/a	n/a	n/a	n/a	n/a	n/a	n/a	n/a	ITI	poldrack-single-stim	s554	False	0
582.514	1.895	584.409	0.3630018465586291	draw_card	1.895	columbia_card_task_fmri	14.0	0.8	89.0	-65.0	0.2	10.0	1.0	2.0	-2.2078722107560225	1.895	n/a	stim	poldrack-single-stim	s554	False	1
584.414	1.166	585.58	-1.3925537089969255	draw_card	1.166	columbia_card_task_fmri	14.0	0.7777777777777778	89.0	-65.0	0.2222222222222222	10.0	2.0	2.0	-0.967228373825428	1.166	2.0	stim	poldrack-single-stim	s554	False	0
586.336	1.5	585.585	n/a	-1.0	2.59	columbia_card_task_fmri	n/a	n/a	-1.0	n/a	n/a	n/a	n/a	n/a	n/a	n/a	n/a	ITI	poldrack-single-stim	s554	False	0
588.182	1.321	589.503	1.7630018465586297	draw_card	1.321	columbia_card_task_fmri	17.0	0.8	89.0	-70.0	0.2	10.0	1.0	2.0	0.985342316880704	1.321	n/a	stim	poldrack-single-stim	s554	False	1
589.509	1.032	590.541	-0.1703314867747041	draw_card	1.032	columbia_card_task_fmri	17.0	0.7777777777777778	89.0	-70.0	0.2222222222222222	10.0	2.0	2.0	2.352159179095594	1.032	n/a	stim	poldrack-single-stim	s554	False	1
590.546	1.026	591.572	-2.586998153441372	draw_card	1.026	columbia_card_task_fmri	17.0	0.75	89.0	-70.0	0.25	10.0	3.0	2.0	3.852336191370874	1.026	n/a	stim	poldrack-single-stim	s554	False	1
591.577	3.03	594.607	-5.69414101058423	draw_card	3.03	columbia_card_task_fmri	17.0	0.7142857142857143	89.0	-70.0	0.2857142857142857	10.0	4.0	2.0	5.480254909115956	3.03	n/a	stim	poldrack-single-stim	s554	False	1
594.612	0.763	595.375	-9.836998153441373	end_round	0.763	columbia_card_task_fmri	17.0	0.6666666666666667	71.0	-70.0	0.3333333333333333	10.0	5.0	2.0	7.187378734624311	0.763	4.0	stim	poldrack-single-stim	s554	False	1
596.131	1.5	595.38	n/a	-1.0	2.386	columbia_card_task_fmri	n/a	n/a	-1.0	n/a	n/a	n/a	n/a	n/a	n/a	n/a	n/a	ITI	poldrack-single-stim	s554	False	0
597.772	1.574	599.346	0.4963351798919619	draw_card	1.574	columbia_card_task_fmri	13.0	0.8333333333333334	89.0	-75.0	0.1666666666666666	12.0	1.0	2.0	-1.0148983482938905	1.574	n/a	stim	poldrack-single-stim	s554	False	1
599.351	1.011	600.362	-0.8369981534413737	draw_card	1.011	columbia_card_task_fmri	13.0	0.8181818181818181	89.0	-75.0	0.1818181818181818	12.0	2.0	2.0	0.1281637905706816	1.011	2.0	stim	poldrack-single-stim	s554	False	0
601.119	1.5	600.368	n/a	-1.0	2.59	columbia_card_task_fmri	n/a	n/a	-1.0	n/a	n/a	n/a	n/a	n/a	n/a	n/a	n/a	ITI	poldrack-single-stim	s554	False	0
602.963	1.65	604.613	2.16300184655863	draw_card	1.65	columbia_card_task_fmri	14.0	0.8333333333333334	89.0	-70.0	0.1666666666666666	12.0	1.0	2.0	-2.5022252780022605	1.65	1.0	stim	poldrack-single-stim	s554	False	0
605.37	1.5	604.619	n/a	-1.0	2.318	columbia_card_task_fmri	n/a	n/a	-1.0	n/a	n/a	n/a	n/a	n/a	n/a	n/a	n/a	ITI	poldrack-single-stim	s554	False	0
606.943	2.245	609.188	2.16300184655863	draw_card	2.245	columbia_card_task_fmri	16.0	0.8333333333333334	89.0	-80.0	0.1666666666666666	12.0	1.0	2.0	1.960599283417117	2.245	1.0	stim	poldrack-single-stim	s554	False	0
609.945	1.5	609.194	n/a	-1.0	2.25	columbia_card_task_fmri	n/a	n/a	-1.0	n/a	n/a	n/a	n/a	n/a	n/a	n/a	n/a	ITI	poldrack-single-stim	s554	False	0
611.451	2.724	614.175	1.9630018465586287	draw_card	2.724	columbia_card_task_fmri	16.0	0.8	89.0	-65.0	0.2	15.0	1.0	3.0	-1.4096938234898886	2.724	n/a	stim	poldrack-single-stim	s554	False	1
614.18	1.686	615.866	0.8058589894157722	draw_card	1.686	columbia_card_task_fmri	16.0	0.7857142857142857	89.0	-65.0	0.2142857142857142	15.0	2.0	3.0	-0.5751066826214668	1.686	n/a	stim	poldrack-single-stim	s554	False	1
615.871	0.388	616.259	-0.5293058457490654	draw_card	0.388	columbia_card_task_fmri	16.0	0.7692307692307692	89.0	-65.0	0.2307692307692307	15.0	3.0	3.0	0.3139919649934555	0.388	3.0	stim	poldrack-single-stim	s554	False	0
617.016	1.5	616.265	n/a	-1.0	2.454	columbia_card_task_fmri	n/a	n/a	-1.0	n/a	n/a	n/a	n/a	n/a	n/a	n/a	n/a	ITI	poldrack-single-stim	s554	False	0
618.726	0.353	619.079	0.288001846558628	draw_card	0.353	columbia_card_task_fmri	15.0	0.8125	89.0	-75.0	0.1875	16.0	1.0	3.0	1.3128299780897947	0.353	n/a	stim	poldrack-single-stim	s554	False	1
619.084	1.6	620.684	-0.836998153441372	draw_card	1.6	columbia_card_task_fmri	15.0	0.8	89.0	-75.0	0.2	16.0	2.0	3.0	2.183107877912392	1.6	n/a	stim	poldrack-single-stim	s554	False	1
620.69	2.164	622.854	-2.1227124391556567	draw_card	2.164	columbia_card_task_fmri	15.0	0.7857142857142857	89.0	-75.0	0.2142857142857142	16.0	3.0	3.0	3.1108082455268686	2.164	n/a	stim	poldrack-single-stim	s554	False	1
622.86	1.506	624.366	-3.6062289226721456	draw_card	1.506	columbia_card_task_fmri	15.0	0.7692307692307692	89.0	-75.0	0.2307692307692307	16.0	4.0	3.0	4.099081371746756	1.506	n/a	stim	poldrack-single-stim	s554	False	1
624.372	1.712	626.084	-5.336998153441372	draw_card	1.712	columbia_card_task_fmri	15.0	0.75	89.0	-75.0	0.25	16.0	5.0	3.0	5.1493093650150215	1.712	n/a	stim	poldrack-single-stim	s554	False	1
626.089	1.171	627.26	-7.382452698895915	end_round	1.171	columbia_card_task_fmri	15.0	0.7272727272727273	71.0	-75.0	0.2727272727272727	16.0	6.0	3.0	6.259064936380867	1.171	5.0	stim	poldrack-single-stim	s554	False	1
628.017	1.5	627.266	n/a	-1.0	3.27	columbia_card_task_fmri	n/a	n/a	-1.0	n/a	n/a	n/a	n/a	n/a	n/a	n/a	n/a	ITI	poldrack-single-stim	s554	False	0
630.543	3.76	634.303	0.850501846558628	draw_card	3.76	columbia_card_task_fmri	14.0	0.6875	89.0	-35.0	0.3125	16.0	1.0	5.0	-11.066941021886532	3.76	n/a	stim	poldrack-single-stim	s554	False	1
634.31	1.321	635.631	-0.1703314867747041	draw_card	1.321	columbia_card_task_fmri	14.0	0.6666666666666667	89.0	-35.0	0.3333333333333333	16.0	2.0	5.0	-10.681940272917974	1.321	n/a	stim	poldrack-single-stim	s554	False	1
635.636	1.601	637.237	-1.336998153441372	draw_card	1.601	columbia_card_task_fmri	14.0	0.6428571428571428	89.0	-35.0	0.3571428571428571	16.0	3.0	5.0	-10.303676127511068	1.601	3.0	stim	poldrack-single-stim	s554	False	0
637.994	1.5	637.243	n/a	-1.0	2.25	columbia_card_task_fmri	n/a	n/a	-1.0	n/a	n/a	n/a	n/a	n/a	n/a	n/a	n/a	ITI	poldrack-single-stim	s554	False	0
639.501	2.991	642.492	6.029668513225295	draw_card	2.991	columbia_card_task_fmri	16.0	0.8666666666666667	89.0	-75.0	0.1333333333333333	15.0	1.0	2.0	-2.87223251647826	2.991	n/a	stim	poldrack-single-stim	s554	False	1
642.498	0.647	643.145	5.16300184655863	draw_card	0.647	columbia_card_task_fmri	16.0	0.8571428571428572	89.0	-75.0	0.1428571428571428	15.0	2.0	2.0	-1.9650693577840637	0.647	2.0	stim	poldrack-single-stim	s554	False	0
643.903	1.5	643.152	n/a	-1.0	2.25	columbia_card_task_fmri	n/a	n/a	-1.0	n/a	n/a	n/a	n/a	n/a	n/a	n/a	n/a	ITI	poldrack-single-stim	s554	False	0
645.408	1.491	646.899	6.696335179891961	draw_card	1.491	columbia_card_task_fmri	16.0	0.8666666666666667	89.0	-70.0	0.1333333333333333	15.0	1.0	2.0	-4.56752607581447	1.491	1.0	stim	poldrack-single-stim	s554	False	0
647.657	1.5	646.906	n/a	-1.0	2.318	columbia_card_task_fmri	n/a	n/a	-1.0	n/a	n/a	n/a	n/a	n/a	n/a	n/a	n/a	ITI	poldrack-single-stim	s554	False	0
649.232	1.632	650.864	4.038001846558628	draw_card	1.632	columbia_card_task_fmri	8.0	0.9375	89.0	-90.0	0.0625	16.0	1.0	1.0	-10.061382420746106	1.632	n/a	stim	poldrack-single-stim	s554	False	1
650.87	1.057	651.927	3.629668513225295	draw_card	1.057	columbia_card_task_fmri	8.0	0.9333333333333332	89.0	-90.0	0.0666666666666666	16.0	2.0	1.0	-9.340811410347944	1.057	n/a	stim	poldrack-single-stim	s554	False	1
651.933	1.602	653.535	3.163001846558629	draw_card	1.602	columbia_card_task_fmri	8.0	0.9285714285714286	89.0	-90.0	0.0714285714285714	16.0	3.0	1.0	-8.550438471427597	1.602	n/a	stim	poldrack-single-stim	s554	False	1
653.541	0.73	654.271	2.6245403080970897	end_round	0.73	columbia_card_task_fmri	8.0	0.9230769230769232	71.0	-90.0	0.0769230769230769	16.0	4.0	1.0	-7.678390275455968	0.73	3.0	stim	poldrack-single-stim	s554	False	1
655.029	1.5	654.278	n/a	-1.0	2.726	columbia_card_task_fmri	n/a	n/a	-1.0	n/a	n/a	n/a	n/a	n/a	n/a	n/a	n/a	ITI	poldrack-single-stim	s554	False	0
657.011	1.901	658.912	5.600501846558628	draw_card	1.901	columbia_card_task_fmri	10.0	0.9375	89.0	-95.0	0.0625	16.0	1.0	1.0	-8.373488300658376	1.901	n/a	stim	poldrack-single-stim	s554	False	1
658.918	2.358	661.276	5.163001846558629	draw_card	2.358	columbia_card_task_fmri	10.0	0.9333333333333332	89.0	-95.0	0.0666666666666666	16.0	2.0	1.0	-7.601049427528707	2.358	n/a	stim	poldrack-single-stim	s554	False	1
661.283	0.978	662.261	4.663001846558629	draw_card	0.978	columbia_card_task_fmri	10.0	0.9285714285714286	89.0	-95.0	0.0714285714285714	16.0	3.0	1.0	-6.753810261782487	0.978	n/a	stim	poldrack-single-stim	s554	False	1
662.267	1.094	663.361	4.086078769635551	draw_card	1.094	columbia_card_task_fmri	10.0	0.9230769230769232	89.0	-95.0	0.0769230769230769	16.0	4.0	1.0	-5.81904820890346	1.094	n/a	stim	poldrack-single-stim	s554	False	1
663.367	0.884	664.251	3.413001846558628	draw_card	0.884	columbia_card_task_fmri	10.0	0.9166666666666666	89.0	-95.0	0.0833333333333333	16.0	5.0	1.0	-4.780850312591955	0.884	n/a	stim	poldrack-single-stim	s554	False	1
664.258	0.88	665.138	2.6175473011040813	draw_card	0.88	columbia_card_task_fmri	10.0	0.9090909090909092	89.0	-95.0	0.0909090909090909	16.0	6.0	1.0	-3.6190379748180384	0.88	n/a	stim	poldrack-single-stim	s554	False	1
665.144	1.055	666.199	1.663001846558628	draw_card	1.055	columbia_card_task_fmri	10.0	0.9	89.0	-95.0	0.1	16.0	7.0	1.0	-2.307638026077008	1.055	n/a	stim	poldrack-single-stim	s554	False	1
666.206	1.186	667.392	0.4963351798919619	draw_card	1.186	columbia_card_task_fmri	10.0	0.8888888888888888	89.0	-95.0	0.1111111111111111	16.0	8.0	1.0	-0.8126822021588254	1.186	n/a	stim	poldrack-single-stim	s554	False	1
667.398	1.313	668.711	-0.961998153441372	draw_card	1.313	columbia_card_task_fmri	10.0	0.875	89.0	-95.0	0.125	16.0	9.0	1.0	0.9109720999782382	1.313	n/a	stim	poldrack-single-stim	s554	False	1
668.716	1.647	670.363	-2.83699815344137	draw_card	1.647	columbia_card_task_fmri	10.0	0.8571428571428572	89.0	-95.0	0.1428571428571428	16.0	10.0	1.0	2.924144625316522	1.647	n/a	stim	poldrack-single-stim	s554	False	1
670.368	1.564	671.932	-5.33699815344137	draw_card	1.564	columbia_card_task_fmri	10.0	0.8333333333333334	89.0	-95.0	0.1666666666666666	16.0	11.0	1.0	5.309110857585864	1.564	n/a	stim	poldrack-single-stim	s554	False	1
671.939	2.236	674.175	-8.836998153441371	draw_card	2.236	columbia_card_task_fmri	10.0	0.8	89.0	-95.0	0.2	16.0	12.0	1.0	8.17384664433257	2.236	n/a	stim	poldrack-single-stim	s554	False	1
674.182	0.862	675.044	-14.086998153441373	end_round	0.862	columbia_card_task_fmri	10.0	0.75	71.0	-95.0	0.25	16.0	13.0	1.0	11.635941804587922	0.862	12.0	stim	poldrack-single-stim	s554	False	1
675.802	1.5	675.051	n/a	-1.0	2.386	columbia_card_task_fmri	n/a	n/a	-1.0	n/a	n/a	n/a	n/a	n/a	n/a	n/a	n/a	ITI	poldrack-single-stim	s554	False	0
677.446	5.358	682.804	6.538001846558628	draw_card	5.358	columbia_card_task_fmri	15.0	0.875	89.0	-70.0	0.125	16.0	1.0	2.0	-5.687613138702549	5.358	n/a	stim	poldrack-single-stim	s554	False	1
682.811	1.196	684.007	5.829668513225294	draw_card	1.196	columbia_card_task_fmri	15.0	0.8666666666666667	89.0	-70.0	0.1333333333333333	16.0	2.0	2.0	-4.906523209756312	1.196	n/a	stim	poldrack-single-stim	s554	False	1
684.014	1.464	685.478	5.020144703701486	draw_card	1.464	columbia_card_task_fmri	15.0	0.8571428571428572	89.0	-70.0	0.1428571428571428	16.0	3.0	2.0	-4.0594655789194185	1.464	n/a	stim	poldrack-single-stim	s554	False	1
685.484	1.456	686.94	4.08607876963555	draw_card	1.456	columbia_card_task_fmri	15.0	0.8461538461538461	89.0	-70.0	0.1538461538461538	16.0	4.0	2.0	-3.1375278233758763	1.456	n/a	stim	poldrack-single-stim	s554	False	1
686.947	1.331	688.278	2.996335179891962	draw_card	1.331	columbia_card_task_fmri	15.0	0.8333333333333334	89.0	-70.0	0.1666666666666666	16.0	5.0	2.0	-2.1304233104772905	1.331	n/a	stim	poldrack-single-stim	s554	False	1
688.283	1.526	689.809	1.7084563920131712	draw_card	1.526	columbia_card_task_fmri	15.0	0.8181818181818181	89.0	-70.0	0.1818181818181818	16.0	6.0	2.0	-1.026495141003096	1.526	6.0	stim	poldrack-single-stim	s554	False	0
690.568	1.5	689.817	n/a	-1.0	2.318	columbia_card_task_fmri	n/a	n/a	-1.0	n/a	n/a	n/a	n/a	n/a	n/a	n/a	n/a	ITI	poldrack-single-stim	s554	False	0
