onset	duration	SS_delay	block_duration	correct	correct_response	experiment_exp_id	key_press	passed_check	response_time	stop_response	stopped	trial_id	trial_type	worker_id	junk
3.008	0.85	0.4	2.65	1.0	71.0	motor_selective_stop_signal	71.0	True	0.809	71.0	False	stim	crit_go	s554	False
5.66	0.85	0.4	2.25	1.0	71.0	motor_selective_stop_signal	-1.0	True	n/a	71.0	True	stim	crit_stop_success	s554	False
7.913	0.85	0.45	2.65	1.0	89.0	motor_selective_stop_signal	89.0	True	0.566	71.0	False	stim	noncrit_signal	s554	False
10.565	0.85	0.45	2.35	1.0	89.0	motor_selective_stop_signal	89.0	True	0.408	71.0	False	stim	noncrit_nosignal	s554	False
12.917	0.85	0.45	2.25	1.0	89.0	motor_selective_stop_signal	89.0	True	0.446	71.0	False	stim	noncrit_nosignal	s554	False
15.169	0.85	0.45	2.25	1.0	89.0	motor_selective_stop_signal	89.0	True	0.348	71.0	False	stim	noncrit_nosignal	s554	False
17.421	0.85	0.45	2.25	1.0	71.0	motor_selective_stop_signal	71.0	True	0.786	71.0	False	stim	crit_go	s554	False
19.673	0.85	0.45	2.35	1.0	71.0	motor_selective_stop_signal	71.0	True	0.709	71.0	False	stim	crit_go	s554	False
22.026	0.85	0.45	2.55	1.0	89.0	motor_selective_stop_signal	89.0	True	0.504	71.0	False	stim	noncrit_signal	s554	False
24.578	0.85	0.45	2.35	1.0	89.0	motor_selective_stop_signal	89.0	True	0.419	71.0	False	stim	noncrit_nosignal	s554	False
26.931	0.85	0.45	2.45	1.0	71.0	motor_selective_stop_signal	71.0	True	0.734	71.0	False	stim	crit_stop_failure	s554	False
29.384	0.85	0.4	2.45	1.0	71.0	motor_selective_stop_signal	71.0	True	0.818	71.0	False	stim	crit_go	s554	False
31.836	0.85	0.4	2.35	1.0	71.0	motor_selective_stop_signal	-1.0	True	n/a	71.0	True	stim	crit_stop_success	s554	False
34.188	0.85	0.45	2.25	1.0	89.0	motor_selective_stop_signal	89.0	True	0.424	71.0	False	stim	noncrit_signal	s554	False
36.44	0.85	0.45	2.55	1.0	71.0	motor_selective_stop_signal	71.0	True	0.764	71.0	False	stim	crit_go	s554	False
38.992	0.85	0.45	2.55	1.0	89.0	motor_selective_stop_signal	89.0	True	0.646	71.0	False	stim	noncrit_nosignal	s554	False
41.544	0.85	0.45	2.25	1.0	89.0	motor_selective_stop_signal	89.0	True	0.537	71.0	False	stim	noncrit_signal	s554	False
43.797	0.85	0.45	2.25	1.0	89.0	motor_selective_stop_signal	89.0	True	0.53	71.0	False	stim	noncrit_nosignal	s554	False
46.05	0.85	0.45	2.45	1.0	71.0	motor_selective_stop_signal	-1.0	True	n/a	71.0	True	stim	crit_stop_success	s554	False
48.503	0.85	0.5	2.35	1.0	71.0	motor_selective_stop_signal	71.0	True	0.679	71.0	False	stim	crit_go	s554	False
50.855	0.85	0.5	2.25	1.0	89.0	motor_selective_stop_signal	89.0	True	0.516	71.0	False	stim	noncrit_nosignal	s554	False
53.107	0.85	0.5	3.15	1.0	71.0	motor_selective_stop_signal	71.0	True	0.791	71.0	False	stim	crit_go	s554	False
56.259	0.85	0.5	2.65	1.0	71.0	motor_selective_stop_signal	71.0	True	0.916	71.0	False	stim	crit_go	s554	False
58.912	0.85	0.5	2.25	1.0	89.0	motor_selective_stop_signal	89.0	True	0.527	71.0	False	stim	noncrit_signal	s554	False
61.164	0.85	0.5	2.45	1.0	71.0	motor_selective_stop_signal	71.0	True	0.819	71.0	False	stim	crit_stop_failure	s554	False
63.616	0.85	0.45	2.85	1.0	89.0	motor_selective_stop_signal	89.0	True	0.492	71.0	False	stim	noncrit_signal	s554	False
66.468	0.85	0.45	2.45	1.0	89.0	motor_selective_stop_signal	89.0	True	0.555	71.0	False	stim	noncrit_nosignal	s554	False
68.92	0.85	0.45	2.25	1.0	71.0	motor_selective_stop_signal	71.0	True	0.747	71.0	False	stim	crit_go	s554	False
71.172	0.85	0.45	2.25	1.0	71.0	motor_selective_stop_signal	71.0	True	0.918	71.0	False	stim	crit_go	s554	False
73.424	0.85	0.45	2.55	1.0	89.0	motor_selective_stop_signal	89.0	True	0.622	71.0	False	stim	noncrit_signal	s554	False
75.976	0.85	0.45	2.25	1.0	71.0	motor_selective_stop_signal	-1.0	True	n/a	71.0	True	stim	crit_stop_success	s554	False
78.228	0.85	0.5	2.35	1.0	71.0	motor_selective_stop_signal	71.0	True	0.841	71.0	False	stim	crit_go	s554	False
80.58	0.85	0.5	2.35	1.0	71.0	motor_selective_stop_signal	-1.0	True	n/a	71.0	True	stim	crit_stop_success	s554	False
82.933	0.85	0.55	2.25	1.0	89.0	motor_selective_stop_signal	89.0	True	0.479	71.0	False	stim	noncrit_nosignal	s554	False
85.185	0.85	0.55	2.35	1.0	89.0	motor_selective_stop_signal	89.0	True	0.512	71.0	False	stim	noncrit_signal	s554	False
87.537	0.85	0.55	2.25	0.0	71.0	motor_selective_stop_signal	89.0	True	0.516	71.0	False	stim	crit_go	s554	False
89.789	0.85	0.55	2.45	1.0	89.0	motor_selective_stop_signal	89.0	True	0.602	71.0	False	stim	noncrit_nosignal	s554	False
92.242	0.85	0.55	2.25	1.0	71.0	motor_selective_stop_signal	71.0	True	0.821	71.0	False	stim	crit_go	s554	False
94.495	0.85	0.55	2.35	1.0	71.0	motor_selective_stop_signal	71.0	True	0.856	71.0	False	stim	crit_go	s554	False
96.847	0.85	0.55	2.45	1.0	89.0	motor_selective_stop_signal	89.0	True	0.519	71.0	False	stim	noncrit_signal	s554	False
99.299	0.85	0.55	2.25	1.0	71.0	motor_selective_stop_signal	71.0	True	0.788	71.0	False	stim	crit_stop_failure	s554	False
101.551	0.85	0.5	2.25	1.0	89.0	motor_selective_stop_signal	89.0	True	0.591	71.0	False	stim	noncrit_nosignal	s554	False
103.803	0.85	0.5	2.85	1.0	89.0	motor_selective_stop_signal	89.0	True	0.606	71.0	False	stim	noncrit_nosignal	s554	False
106.655	0.85	0.5	2.25	1.0	71.0	motor_selective_stop_signal	71.0	True	0.712	71.0	False	stim	crit_go	s554	False
108.906	0.85	0.5	3.45	1.0	71.0	motor_selective_stop_signal	71.0	True	0.938	71.0	False	stim	crit_go	s554	False
112.359	0.85	0.5	2.35	1.0	89.0	motor_selective_stop_signal	89.0	True	0.656	71.0	False	stim	noncrit_signal	s554	False
114.711	0.85	0.5	2.35	1.0	89.0	motor_selective_stop_signal	89.0	True	0.529	71.0	False	stim	noncrit_signal	s554	False
117.064	0.85	0.5	2.35	1.0	71.0	motor_selective_stop_signal	71.0	True	0.759	71.0	False	stim	crit_go	s554	False
119.415	0.85	0.5	2.45	1.0	71.0	motor_selective_stop_signal	71.0	True	0.575	71.0	False	stim	crit_stop_failure	s554	False
121.868	0.85	0.45	2.55	1.0	89.0	motor_selective_stop_signal	89.0	True	0.556	71.0	False	stim	noncrit_signal	s554	False
134.926	0.85	0.45	2.35	1.0	89.0	motor_selective_stop_signal	89.0	True	0.563	71.0	False	stim	noncrit_nosignal	s554	False
137.279	0.85	0.45	2.25	1.0	71.0	motor_selective_stop_signal	-1.0	True	n/a	71.0	True	stim	crit_stop_success	s554	False
139.531	0.85	0.5	2.25	1.0	71.0	motor_selective_stop_signal	71.0	True	0.763	71.0	False	stim	crit_go	s554	False
141.783	0.85	0.5	3.05	1.0	89.0	motor_selective_stop_signal	89.0	True	0.581	71.0	False	stim	noncrit_nosignal	s554	False
144.836	0.85	0.5	2.45	1.0	71.0	motor_selective_stop_signal	71.0	True	0.954	71.0	False	stim	crit_go	s554	False
147.289	0.85	0.5	2.35	1.0	71.0	motor_selective_stop_signal	71.0	True	0.824	71.0	False	stim	crit_go	s554	False
149.64	0.85	0.5	2.25	1.0	71.0	motor_selective_stop_signal	-1.0	True	n/a	71.0	True	stim	crit_stop_success	s554	False
151.892	0.85	0.55	3.25	1.0	71.0	motor_selective_stop_signal	71.0	True	0.754	71.0	False	stim	crit_stop_failure	s554	False
155.145	0.85	0.5	2.95	1.0	89.0	motor_selective_stop_signal	89.0	True	0.548	71.0	False	stim	noncrit_nosignal	s554	False
158.097	0.85	0.5	2.55	1.0	71.0	motor_selective_stop_signal	-1.0	True	n/a	71.0	True	stim	crit_stop_success	s554	False
160.649	0.85	0.55	2.35	1.0	89.0	motor_selective_stop_signal	89.0	True	0.598	71.0	False	stim	noncrit_nosignal	s554	False
163.003	0.85	0.55	2.55	1.0	71.0	motor_selective_stop_signal	-1.0	True	n/a	71.0	True	stim	crit_stop_success	s554	False
165.555	0.85	0.6	2.35	1.0	89.0	motor_selective_stop_signal	89.0	True	0.519	71.0	False	stim	noncrit_nosignal	s554	False
167.907	0.85	0.6	2.25	1.0	71.0	motor_selective_stop_signal	71.0	True	0.908	71.0	False	stim	crit_go	s554	False
170.16	0.85	0.6	2.45	1.0	89.0	motor_selective_stop_signal	89.0	True	0.539	71.0	False	stim	noncrit_signal	s554	False
172.613	0.85	0.6	2.35	1.0	89.0	motor_selective_stop_signal	89.0	True	0.637	71.0	False	stim	noncrit_nosignal	s554	False
174.965	0.85	0.6	2.65	1.0	89.0	motor_selective_stop_signal	89.0	True	0.531	71.0	False	stim	noncrit_signal	s554	False
177.618	0.85	0.6	2.25	1.0	89.0	motor_selective_stop_signal	89.0	True	0.592	71.0	False	stim	noncrit_nosignal	s554	False
179.87	0.85	0.6	2.25	1.0	71.0	motor_selective_stop_signal	71.0	True	0.951	71.0	False	stim	crit_stop_failure	s554	False
182.123	0.85	0.55	2.45	1.0	71.0	motor_selective_stop_signal	71.0	True	0.911	71.0	False	stim	crit_go	s554	False
184.575	0.85	0.55	2.25	1.0	71.0	motor_selective_stop_signal	71.0	True	0.98	71.0	False	stim	crit_go	s554	False
186.828	0.85	0.55	2.55	1.0	71.0	motor_selective_stop_signal	-1.0	True	n/a	71.0	True	stim	crit_stop_success	s554	False
189.38	0.85	0.6	2.25	1.0	89.0	motor_selective_stop_signal	89.0	True	0.593	71.0	False	stim	noncrit_nosignal	s554	False
191.634	0.85	0.6	2.35	1.0	89.0	motor_selective_stop_signal	89.0	True	0.539	71.0	False	stim	noncrit_signal	s554	False
193.986	0.85	0.6	2.25	1.0	71.0	motor_selective_stop_signal	-1.0	True	n/a	71.0	True	stim	crit_stop_success	s554	False
196.239	0.85	0.65	2.55	1.0	71.0	motor_selective_stop_signal	-1.0	True	n/a	71.0	True	stim	crit_stop_success	s554	False
198.791	0.85	0.7	2.55	1.0	89.0	motor_selective_stop_signal	89.0	True	0.671	71.0	False	stim	noncrit_nosignal	s554	False
201.343	0.85	0.7	2.35	1.0	89.0	motor_selective_stop_signal	89.0	True	0.592	71.0	False	stim	noncrit_nosignal	s554	False
203.695	0.85	0.7	2.35	1.0	71.0	motor_selective_stop_signal	71.0	True	0.827	71.0	False	stim	crit_go	s554	False
206.047	0.85	0.7	2.25	1.0	89.0	motor_selective_stop_signal	89.0	True	0.591	71.0	False	stim	noncrit_nosignal	s554	False
208.3	0.85	0.7	2.45	1.0	89.0	motor_selective_stop_signal	89.0	True	0.588	71.0	False	stim	noncrit_signal	s554	False
210.752	0.85	0.7	2.25	1.0	71.0	motor_selective_stop_signal	71.0	True	0.809	71.0	False	stim	crit_go	s554	False
213.005	0.85	0.7	2.45	1.0	89.0	motor_selective_stop_signal	89.0	True	0.569	71.0	False	stim	noncrit_signal	s554	False
215.457	0.85	0.7	2.65	1.0	71.0	motor_selective_stop_signal	71.0	True	0.795	71.0	False	stim	crit_stop_failure	s554	False
218.109	0.85	0.65	2.45	1.0	71.0	motor_selective_stop_signal	71.0	True	0.933	71.0	False	stim	crit_go	s554	False
220.562	0.85	0.65	2.35	1.0	71.0	motor_selective_stop_signal	71.0	True	1.25	71.0	False	stim	crit_go	s554	False
222.913	0.85	0.65	2.25	1.0	89.0	motor_selective_stop_signal	89.0	True	0.602	71.0	False	stim	noncrit_signal	s554	False
225.165	0.85	0.65	2.55	1.0	89.0	motor_selective_stop_signal	89.0	True	0.644	71.0	False	stim	noncrit_nosignal	s554	False
227.718	0.85	0.65	2.25	1.0	89.0	motor_selective_stop_signal	89.0	True	0.604	71.0	False	stim	noncrit_nosignal	s554	False
229.969	0.85	0.65	2.25	1.0	89.0	motor_selective_stop_signal	89.0	True	0.541	71.0	False	stim	noncrit_nosignal	s554	False
232.221	0.85	0.65	2.35	1.0	71.0	motor_selective_stop_signal	71.0	True	0.8	71.0	False	stim	crit_go	s554	False
234.574	0.85	0.65	2.25	1.0	89.0	motor_selective_stop_signal	89.0	True	0.434	71.0	False	stim	noncrit_nosignal	s554	False
236.826	0.85	0.65	2.65	1.0	89.0	motor_selective_stop_signal	89.0	True	0.366	71.0	False	stim	noncrit_signal	s554	False
239.479	0.85	0.65	2.35	1.0	89.0	motor_selective_stop_signal	89.0	True	0.533	71.0	False	stim	noncrit_signal	s554	False
241.832	0.85	0.65	2.45	1.0	71.0	motor_selective_stop_signal	71.0	True	0.743	71.0	False	stim	crit_go	s554	False
244.284	0.85	0.65	2.35	1.0	89.0	motor_selective_stop_signal	89.0	True	0.546	71.0	False	stim	noncrit_signal	s554	False
246.636	0.85	0.65	2.25	1.0	71.0	motor_selective_stop_signal	-1.0	True	n/a	71.0	True	stim	crit_stop_success	s554	False
248.889	0.85	0.7	2.25	1.0	89.0	motor_selective_stop_signal	89.0	True	0.843	71.0	False	stim	noncrit_nosignal	s554	False
251.141	0.85	0.7	2.25	1.0	71.0	motor_selective_stop_signal	71.0	True	0.901	71.0	False	stim	crit_stop_failure	s554	False
253.394	0.85	0.65	2.25	1.0	71.0	motor_selective_stop_signal	71.0	True	0.738	71.0	False	stim	crit_go	s554	False
266.153	0.85	0.65	2.35	1.0	71.0	motor_selective_stop_signal	-1.0	True	n/a	71.0	True	stim	crit_stop_success	s554	False
268.505	0.85	0.7	3.35	1.0	71.0	motor_selective_stop_signal	71.0	True	0.748	71.0	False	stim	crit_go	s554	False
271.857	0.85	0.7	2.55	1.0	89.0	motor_selective_stop_signal	89.0	True	0.579	71.0	False	stim	noncrit_nosignal	s554	False
274.409	0.85	0.7	2.75	1.0	71.0	motor_selective_stop_signal	-1.0	True	n/a	71.0	True	stim	crit_stop_success	s554	False
277.161	0.85	0.75	2.75	1.0	71.0	motor_selective_stop_signal	71.0	True	0.856	71.0	False	stim	crit_go	s554	False
279.913	0.85	0.75	2.65	1.0	71.0	motor_selective_stop_signal	71.0	True	1.06	71.0	False	stim	crit_go	s554	False
282.566	0.85	0.75	2.45	1.0	71.0	motor_selective_stop_signal	71.0	True	1.012	71.0	False	stim	crit_stop_failure	s554	False
285.018	0.85	0.7	2.25	1.0	89.0	motor_selective_stop_signal	89.0	True	0.49	71.0	False	stim	noncrit_nosignal	s554	False
287.27	0.85	0.7	2.35	1.0	71.0	motor_selective_stop_signal	71.0	True	1.1	71.0	False	stim	crit_go	s554	False
289.622	0.85	0.7	2.45	1.0	89.0	motor_selective_stop_signal	89.0	True	0.489	71.0	False	stim	noncrit_nosignal	s554	False
292.074	0.85	0.7	3.05	1.0	89.0	motor_selective_stop_signal	89.0	True	0.57	71.0	False	stim	noncrit_nosignal	s554	False
295.126	0.85	0.7	2.35	1.0	89.0	motor_selective_stop_signal	89.0	True	0.551	71.0	False	stim	noncrit_nosignal	s554	False
297.479	0.85	0.7	2.25	1.0	89.0	motor_selective_stop_signal	89.0	True	0.54	71.0	False	stim	noncrit_signal	s554	False
299.732	0.85	0.7	2.35	1.0	71.0	motor_selective_stop_signal	71.0	True	0.925	71.0	False	stim	crit_go	s554	False
302.084	0.85	0.7	2.35	1.0	89.0	motor_selective_stop_signal	89.0	True	0.536	71.0	False	stim	noncrit_nosignal	s554	False
304.437	0.85	0.7	2.35	1.0	71.0	motor_selective_stop_signal	71.0	True	0.793	71.0	False	stim	crit_go	s554	False
306.789	0.85	0.7	2.35	1.0	89.0	motor_selective_stop_signal	89.0	True	0.449	71.0	False	stim	noncrit_signal	s554	False
309.141	0.85	0.7	2.35	1.0	71.0	motor_selective_stop_signal	71.0	True	0.815	71.0	False	stim	crit_go	s554	False
311.493	0.85	0.7	2.25	1.0	71.0	motor_selective_stop_signal	71.0	True	0.934	71.0	False	stim	crit_go	s554	False
313.745	0.85	0.7	2.35	1.0	71.0	motor_selective_stop_signal	71.0	True	0.93	71.0	False	stim	crit_stop_failure	s554	False
316.097	0.85	0.65	2.45	1.0	71.0	motor_selective_stop_signal	71.0	True	1.121	71.0	False	stim	crit_go	s554	False
318.549	0.85	0.65	2.35	1.0	71.0	motor_selective_stop_signal	71.0	True	1.098	71.0	False	stim	crit_go	s554	False
320.902	0.85	0.65	2.85	1.0	71.0	motor_selective_stop_signal	71.0	True	1.164	71.0	False	stim	crit_go	s554	False
323.754	0.85	0.65	2.55	1.0	71.0	motor_selective_stop_signal	71.0	True	1.141	71.0	False	stim	crit_go	s554	False
326.306	0.85	0.65	2.75	1.0	89.0	motor_selective_stop_signal	89.0	True	0.836	71.0	False	stim	noncrit_nosignal	s554	False
329.059	0.85	0.65	2.25	1.0	89.0	motor_selective_stop_signal	89.0	True	0.985	71.0	False	stim	noncrit_signal	s554	False
331.311	0.85	0.65	2.25	1.0	89.0	motor_selective_stop_signal	89.0	True	0.876	71.0	False	stim	noncrit_nosignal	s554	False
333.562	0.85	0.65	2.85	1.0	71.0	motor_selective_stop_signal	71.0	True	0.902	71.0	False	stim	crit_stop_failure	s554	False
336.415	0.85	0.6	2.35	1.0	89.0	motor_selective_stop_signal	89.0	True	0.568	71.0	False	stim	noncrit_nosignal	s554	False
338.767	0.85	0.6	2.25	1.0	71.0	motor_selective_stop_signal	71.0	True	1.001	71.0	False	stim	crit_go	s554	False
341.019	0.85	0.6	2.25	1.0	71.0	motor_selective_stop_signal	-1.0	True	n/a	71.0	True	stim	crit_stop_success	s554	False
343.272	0.85	0.65	2.25	1.0	89.0	motor_selective_stop_signal	89.0	True	0.918	71.0	False	stim	noncrit_nosignal	s554	False
345.524	0.85	0.65	2.35	1.0	89.0	motor_selective_stop_signal	89.0	True	0.671	71.0	False	stim	noncrit_nosignal	s554	False
347.877	0.85	0.65	2.65	1.0	89.0	motor_selective_stop_signal	89.0	True	0.72	71.0	False	stim	noncrit_nosignal	s554	False
350.529	0.85	0.65	2.75	1.0	71.0	motor_selective_stop_signal	-1.0	True	n/a	71.0	True	stim	crit_stop_success	s554	False
353.282	0.85	0.7	2.25	1.0	89.0	motor_selective_stop_signal	89.0	True	0.574	71.0	False	stim	noncrit_nosignal	s554	False
355.534	0.85	0.7	2.75	1.0	71.0	motor_selective_stop_signal	-1.0	True	n/a	71.0	True	stim	crit_stop_success	s554	False
358.287	0.85	0.75	2.25	1.0	89.0	motor_selective_stop_signal	89.0	True	0.691	71.0	False	stim	noncrit_signal	s554	False
360.54	0.85	0.75	2.35	1.0	71.0	motor_selective_stop_signal	71.0	True	1.104	71.0	False	stim	crit_go	s554	False
362.891	0.85	0.75	2.35	1.0	71.0	motor_selective_stop_signal	71.0	True	1.143	71.0	False	stim	crit_go	s554	False
365.243	0.85	0.75	2.55	1.0	89.0	motor_selective_stop_signal	89.0	True	0.645	71.0	False	stim	noncrit_nosignal	s554	False
367.795	0.85	0.75	2.25	1.0	89.0	motor_selective_stop_signal	89.0	True	0.62	71.0	False	stim	noncrit_nosignal	s554	False
370.047	0.85	0.75	2.25	1.0	89.0	motor_selective_stop_signal	89.0	True	1.067	71.0	False	stim	noncrit_signal	s554	False
372.299	0.85	0.75	2.25	1.0	71.0	motor_selective_stop_signal	71.0	True	1.13	71.0	False	stim	crit_go	s554	False
374.551	0.85	0.75	2.35	1.0	89.0	motor_selective_stop_signal	89.0	True	0.857	71.0	False	stim	noncrit_nosignal	s554	False
376.903	0.85	0.75	2.65	1.0	71.0	motor_selective_stop_signal	71.0	True	0.711	71.0	False	stim	crit_stop_failure	s554	False
379.555	0.85	0.7	2.35	1.0	71.0	motor_selective_stop_signal	71.0	True	1.204	71.0	False	stim	crit_go	s554	False
381.907	0.85	0.7	2.25	1.0	89.0	motor_selective_stop_signal	89.0	True	0.843	71.0	False	stim	noncrit_signal	s554	False
384.16	0.85	0.7	2.35	1.0	71.0	motor_selective_stop_signal	71.0	True	1.073	71.0	False	stim	crit_go	s554	False
386.512	0.85	0.7	2.35	1.0	71.0	motor_selective_stop_signal	-1.0	True	n/a	71.0	True	stim	crit_stop_success	s554	False
399.37	0.85	0.75	2.85	1.0	89.0	motor_selective_stop_signal	89.0	True	0.789	71.0	False	stim	noncrit_nosignal	s554	False
402.222	0.85	0.75	2.45	1.0	89.0	motor_selective_stop_signal	89.0	True	0.557	71.0	False	stim	noncrit_nosignal	s554	False
404.674	0.85	0.75	2.35	1.0	89.0	motor_selective_stop_signal	89.0	True	0.763	71.0	False	stim	noncrit_nosignal	s554	False
407.026	0.85	0.75	2.65	1.0	71.0	motor_selective_stop_signal	71.0	True	0.494	71.0	False	stim	crit_go	s554	False
409.679	0.85	0.75	2.25	1.0	89.0	motor_selective_stop_signal	89.0	True	0.658	71.0	False	stim	noncrit_nosignal	s554	False
411.931	0.85	0.75	2.25	1.0	89.0	motor_selective_stop_signal	89.0	True	0.613	71.0	False	stim	noncrit_signal	s554	False
414.183	0.85	0.75	2.25	1.0	71.0	motor_selective_stop_signal	71.0	True	0.85	71.0	False	stim	crit_go	s554	False
416.435	0.85	0.75	2.45	1.0	89.0	motor_selective_stop_signal	89.0	True	0.513	71.0	False	stim	noncrit_nosignal	s554	False
418.887	0.85	0.75	2.35	1.0	71.0	motor_selective_stop_signal	71.0	True	0.938	71.0	False	stim	crit_go	s554	False
421.239	0.85	0.75	2.25	1.0	71.0	motor_selective_stop_signal	71.0	True	0.938	71.0	False	stim	crit_stop_failure	s554	False
423.491	0.85	0.7	2.35	1.0	71.0	motor_selective_stop_signal	-1.0	True	n/a	71.0	True	stim	crit_stop_success	s554	False
425.843	0.85	0.75	2.45	1.0	89.0	motor_selective_stop_signal	89.0	True	0.704	71.0	False	stim	noncrit_signal	s554	False
428.296	0.85	0.75	2.35	1.0	89.0	motor_selective_stop_signal	89.0	True	0.391	71.0	False	stim	noncrit_nosignal	s554	False
430.648	0.85	0.75	2.25	1.0	71.0	motor_selective_stop_signal	71.0	True	1.081	71.0	False	stim	crit_go	s554	False
432.901	0.85	0.75	2.25	1.0	71.0	motor_selective_stop_signal	71.0	True	1.17	71.0	False	stim	crit_go	s554	False
435.153	0.85	0.75	2.35	1.0	89.0	motor_selective_stop_signal	89.0	True	0.708	71.0	False	stim	noncrit_signal	s554	False
437.506	0.85	0.75	2.35	1.0	71.0	motor_selective_stop_signal	-1.0	True	n/a	71.0	True	stim	crit_stop_success	s554	False
439.858	0.85	0.8	2.35	1.0	71.0	motor_selective_stop_signal	71.0	True	1.027	71.0	False	stim	crit_go	s554	False
442.21	0.85	0.8	2.95	1.0	89.0	motor_selective_stop_signal	89.0	True	0.509	71.0	False	stim	noncrit_nosignal	s554	False
445.162	0.85	0.8	2.25	1.0	71.0	motor_selective_stop_signal	71.0	True	0.963	71.0	False	stim	crit_go	s554	False
447.413	0.85	0.8	2.35	1.0	89.0	motor_selective_stop_signal	89.0	True	0.699	71.0	False	stim	noncrit_nosignal	s554	False
449.766	0.85	0.8	2.25	1.0	71.0	motor_selective_stop_signal	71.0	True	1.139	71.0	False	stim	crit_go	s554	False
452.018	0.85	0.8	2.45	1.0	89.0	motor_selective_stop_signal	89.0	True	0.675	71.0	False	stim	noncrit_signal	s554	False
454.47	0.85	0.8	2.35	1.0	89.0	motor_selective_stop_signal	89.0	True	0.481	71.0	False	stim	noncrit_signal	s554	False
456.821	0.85	0.8	2.55	1.0	89.0	motor_selective_stop_signal	89.0	True	0.573	71.0	False	stim	noncrit_signal	s554	False
459.374	0.85	0.8	2.55	1.0	89.0	motor_selective_stop_signal	89.0	True	0.568	71.0	False	stim	noncrit_nosignal	s554	False
461.927	0.85	0.8	2.25	1.0	71.0	motor_selective_stop_signal	71.0	True	1.15	71.0	False	stim	crit_go	s554	False
464.179	0.85	0.8	2.25	1.0	71.0	motor_selective_stop_signal	71.0	True	1.09	71.0	False	stim	crit_go	s554	False
466.43	0.85	0.8	2.75	1.0	71.0	motor_selective_stop_signal	71.0	True	1.145	71.0	False	stim	crit_stop_failure	s554	False
469.183	0.85	0.75	2.35	1.0	71.0	motor_selective_stop_signal	-1.0	True	n/a	71.0	True	stim	crit_stop_success	s554	False
471.535	0.85	0.8	2.25	1.0	71.0	motor_selective_stop_signal	-1.0	True	n/a	71.0	True	stim	crit_stop_success	s554	False
473.787	0.85	0.85	2.45	1.0	71.0	motor_selective_stop_signal	71.0	True	1.32	71.0	False	stim	crit_go	s554	False
476.239	0.85	0.85	2.25	1.0	71.0	motor_selective_stop_signal	71.0	True	1.654	71.0	False	stim	crit_go	s554	False
478.491	0.85	0.85	2.35	1.0	89.0	motor_selective_stop_signal	89.0	True	1.104	71.0	False	stim	noncrit_nosignal	s554	False
480.844	0.85	0.85	2.25	1.0	71.0	motor_selective_stop_signal	71.0	True	1.145	71.0	False	stim	crit_go	s554	False
483.097	0.85	0.85	2.25	1.0	71.0	motor_selective_stop_signal	71.0	True	0.8	71.0	False	stim	crit_stop_failure	s554	False
485.349	0.85	0.8	2.25	1.0	71.0	motor_selective_stop_signal	71.0	True	1.137	71.0	False	stim	crit_stop_failure	s554	False
487.601	0.85	0.75	2.25	1.0	89.0	motor_selective_stop_signal	89.0	True	0.622	71.0	False	stim	noncrit_nosignal	s554	False
489.852	0.85	0.75	2.25	1.0	89.0	motor_selective_stop_signal	89.0	True	0.908	71.0	False	stim	noncrit_nosignal	s554	False
492.105	0.85	0.75	2.35	1.0	89.0	motor_selective_stop_signal	89.0	True	0.757	71.0	False	stim	noncrit_signal	s554	False
494.458	0.85	0.75	2.55	1.0	71.0	motor_selective_stop_signal	-1.0	True	n/a	71.0	True	stim	crit_stop_success	s554	False
497.01	0.85	0.8	2.95	1.0	71.0	motor_selective_stop_signal	71.0	True	1.183	71.0	False	stim	crit_go	s554	False
499.961	0.85	0.8	2.25	1.0	71.0	motor_selective_stop_signal	-1.0	True	n/a	71.0	True	stim	crit_stop_success	s554	False
502.213	0.85	0.85	2.35	1.0	89.0	motor_selective_stop_signal	89.0	True	0.676	71.0	False	stim	noncrit_nosignal	s554	False
504.565	0.85	0.85	2.55	1.0	71.0	motor_selective_stop_signal	71.0	True	1.163	71.0	False	stim	crit_go	s554	False
507.118	0.85	0.85	2.25	1.0	89.0	motor_selective_stop_signal	89.0	True	0.808	71.0	False	stim	noncrit_signal	s554	False
509.371	0.85	0.85	2.35	1.0	89.0	motor_selective_stop_signal	89.0	True	1.114	71.0	False	stim	noncrit_signal	s554	False
511.723	0.85	0.85	2.55	1.0	89.0	motor_selective_stop_signal	89.0	True	0.938	71.0	False	stim	noncrit_signal	s554	False
514.275	0.85	0.85	2.45	1.0	89.0	motor_selective_stop_signal	89.0	True	0.777	71.0	False	stim	noncrit_signal	s554	False
516.727	0.85	0.85	2.35	1.0	89.0	motor_selective_stop_signal	89.0	True	0.413	71.0	False	stim	noncrit_nosignal	s554	False
529.586	0.85	0.85	2.65	1.0	89.0	motor_selective_stop_signal	89.0	True	0.576	71.0	False	stim	noncrit_nosignal	s554	False
532.238	0.85	0.85	2.55	1.0	71.0	motor_selective_stop_signal	71.0	True	1.001	71.0	False	stim	crit_go	s554	False
534.79	0.85	0.85	2.75	1.0	71.0	motor_selective_stop_signal	71.0	True	1.046	71.0	False	stim	crit_stop_failure	s554	False
537.542	0.85	0.8	2.55	1.0	71.0	motor_selective_stop_signal	-1.0	True	n/a	71.0	True	stim	crit_stop_success	s554	False
540.094	0.85	0.85	2.45	1.0	89.0	motor_selective_stop_signal	89.0	True	0.605	71.0	False	stim	noncrit_signal	s554	False
542.547	0.85	0.85	2.75	1.0	71.0	motor_selective_stop_signal	71.0	True	1.206	71.0	False	stim	crit_go	s554	False
545.299	0.85	0.85	2.55	1.0	89.0	motor_selective_stop_signal	89.0	True	0.545	71.0	False	stim	noncrit_nosignal	s554	False
547.852	0.85	0.85	2.35	1.0	71.0	motor_selective_stop_signal	71.0	True	1.049	71.0	False	stim	crit_stop_failure	s554	False
550.204	0.85	0.8	2.25	1.0	71.0	motor_selective_stop_signal	71.0	True	1.347	71.0	False	stim	crit_go	s554	False
552.456	0.85	0.8	2.65	1.0	71.0	motor_selective_stop_signal	71.0	True	1.163	71.0	False	stim	crit_go	s554	False
555.109	0.85	0.8	2.25	1.0	71.0	motor_selective_stop_signal	-1.0	True	n/a	71.0	True	stim	crit_stop_success	s554	False
557.361	0.85	0.85	2.35	1.0	71.0	motor_selective_stop_signal	71.0	True	1.451	71.0	False	stim	crit_go	s554	False
559.713	0.85	0.85	2.25	1.0	89.0	motor_selective_stop_signal	89.0	True	1.125	71.0	False	stim	noncrit_nosignal	s554	False
561.966	0.85	0.85	2.35	1.0	89.0	motor_selective_stop_signal	89.0	True	0.665	71.0	False	stim	noncrit_nosignal	s554	False
564.318	0.85	0.85	2.35	1.0	89.0	motor_selective_stop_signal	89.0	True	0.528	71.0	False	stim	noncrit_nosignal	s554	False
566.67	0.85	0.85	2.25	1.0	89.0	motor_selective_stop_signal	89.0	True	0.42	71.0	False	stim	noncrit_nosignal	s554	False
568.922	0.85	0.85	2.85	1.0	89.0	motor_selective_stop_signal	89.0	True	0.476	71.0	False	stim	noncrit_signal	s554	False
571.774	0.85	0.85	2.35	1.0	71.0	motor_selective_stop_signal	71.0	True	1.123	71.0	False	stim	crit_go	s554	False
574.127	0.85	0.85	2.25	1.0	89.0	motor_selective_stop_signal	89.0	True	0.694	71.0	False	stim	noncrit_nosignal	s554	False
576.38	0.85	0.85	2.35	1.0	89.0	motor_selective_stop_signal	89.0	True	0.513	71.0	False	stim	noncrit_nosignal	s554	False
578.732	0.85	0.85	2.45	1.0	89.0	motor_selective_stop_signal	89.0	True	0.547	71.0	False	stim	noncrit_nosignal	s554	False
581.184	0.85	0.85	2.25	0.0	71.0	motor_selective_stop_signal	89.0	True	0.716	71.0	False	stim	crit_stop_failure	s554	False
583.437	0.85	0.8	2.25	1.0	89.0	motor_selective_stop_signal	89.0	True	0.658	71.0	False	stim	noncrit_signal	s554	False
585.689	0.85	0.8	2.75	1.0	71.0	motor_selective_stop_signal	71.0	True	0.58	71.0	False	stim	crit_go	s554	False
588.442	0.85	0.8	2.35	1.0	89.0	motor_selective_stop_signal	89.0	True	0.848	71.0	False	stim	noncrit_signal	s554	False
590.793	0.85	0.8	2.75	1.0	71.0	motor_selective_stop_signal	71.0	True	1.104	71.0	False	stim	crit_go	s554	False
593.545	0.85	0.8	2.45	1.0	89.0	motor_selective_stop_signal	89.0	True	0.63	71.0	False	stim	noncrit_nosignal	s554	False
595.997	0.85	0.8	2.25	1.0	89.0	motor_selective_stop_signal	89.0	True	0.626	71.0	False	stim	noncrit_nosignal	s554	False
598.25	0.85	0.8	2.35	1.0	71.0	motor_selective_stop_signal	-1.0	True	n/a	71.0	True	stim	crit_stop_success	s554	False
600.602	0.85	0.85	2.65	1.0	89.0	motor_selective_stop_signal	89.0	True	0.607	71.0	False	stim	noncrit_nosignal	s554	False
603.253	0.85	0.85	2.45	1.0	71.0	motor_selective_stop_signal	-1.0	True	n/a	71.0	True	stim	crit_stop_success	s554	False
605.704	0.85	0.9	2.25	1.0	71.0	motor_selective_stop_signal	71.0	True	1.363	71.0	False	stim	crit_go	s554	False
607.956	0.85	0.9	2.35	1.0	89.0	motor_selective_stop_signal	89.0	True	1.17	71.0	False	stim	noncrit_signal	s554	False
610.309	0.85	0.9	2.95	1.0	89.0	motor_selective_stop_signal	89.0	True	0.942	71.0	False	stim	noncrit_signal	s554	False
613.26	0.85	0.9	2.25	1.0	71.0	motor_selective_stop_signal	71.0	True	1.338	71.0	False	stim	crit_go	s554	False
615.511	0.85	0.9	2.95	1.0	89.0	motor_selective_stop_signal	89.0	True	1.094	71.0	False	stim	noncrit_nosignal	s554	False
618.463	0.85	0.9	2.45	1.0	89.0	motor_selective_stop_signal	89.0	True	0.607	71.0	False	stim	noncrit_signal	s554	False
620.915	0.85	0.9	2.25	1.0	71.0	motor_selective_stop_signal	-1.0	True	n/a	71.0	True	stim	crit_stop_success	s554	False
623.168	0.85	0.95	2.35	1.0	89.0	motor_selective_stop_signal	89.0	True	0.735	71.0	False	stim	noncrit_nosignal	s554	False
625.519	0.85	0.95	2.45	1.0	71.0	motor_selective_stop_signal	71.0	True	1.379	71.0	False	stim	crit_go	s554	False
627.971	0.85	0.95	2.25	1.0	71.0	motor_selective_stop_signal	71.0	True	1.269	71.0	False	stim	crit_stop_failure	s554	False
630.223	0.85	0.9	2.45	1.0	89.0	motor_selective_stop_signal	89.0	True	0.733	71.0	False	stim	noncrit_signal	s554	False
632.676	0.85	0.9	2.75	1.0	89.0	motor_selective_stop_signal	89.0	True	0.893	71.0	False	stim	noncrit_nosignal	s554	False
635.428	0.85	0.9	2.25	1.0	89.0	motor_selective_stop_signal	89.0	True	0.523	71.0	False	stim	noncrit_signal	s554	False
637.68	0.85	0.9	2.35	1.0	89.0	motor_selective_stop_signal	89.0	True	0.562	71.0	False	stim	noncrit_nosignal	s554	False
640.032	0.85	0.9	2.45	1.0	89.0	motor_selective_stop_signal	89.0	True	0.762	71.0	False	stim	noncrit_signal	s554	False
642.484	0.85	0.9	2.35	1.0	89.0	motor_selective_stop_signal	89.0	True	0.567	71.0	False	stim	noncrit_nosignal	s554	False
644.836	0.85	0.9	2.25	1.0	89.0	motor_selective_stop_signal	89.0	True	0.635	71.0	False	stim	noncrit_signal	s554	False
647.088	0.85	0.9	2.55	1.0	89.0	motor_selective_stop_signal	89.0	True	0.566	71.0	False	stim	noncrit_nosignal	s554	False
649.64	0.85	0.9	2.45	1.0	71.0	motor_selective_stop_signal	71.0	True	1.332	71.0	False	stim	crit_go	s554	False
