onset	duration	movement_onset	CTI	block_duration	correct	correct_response	cue	cue_switch	experiment_exp_id	key_press	response_time	stim_color	stim_number	switch_type	task	task_switch	trial_id	trial_type	worker_id	first_trial_of_block	junk
3.614	1.0	4.518	0.1	2.136	True	89.0	High-Low	switch	twobytwo	89.0	0.804	blue	7.0	cue_switch	magnitude	stay	stim	poldrack-single-stim	s554	1	False
5.856	1.0	6.651	0.1	2.272	True	71.0	Color	n/a	twobytwo	71.0	0.695	orange	3.0	task_switch	color	switch	stim	poldrack-single-stim	s554	0	False
9.033	1.0	10.454	0.9	2.136	True	89.0	High-Low	n/a	twobytwo	89.0	0.521	blue	9.0	task_switch	magnitude	switch	stim	poldrack-single-stim	s554	0	False
12.073	1.0	13.588	0.9	2.272	True	71.0	High-Low	stay	twobytwo	71.0	0.615	blue	4.0	cue_stay	magnitude	stay	stim	poldrack-single-stim	s554	0	False
15.249	1.0	17.304	0.9	2.0	True	89.0	Orange-Blue	n/a	twobytwo	89.0	1.155	blue	6.0	task_switch	color	switch	stim	poldrack-single-stim	s554	0	False
18.152	1.0	19.431	0.9	2.816	True	71.0	Orange-Blue	stay	twobytwo	71.0	0.379	orange	6.0	cue_stay	color	stay	stim	poldrack-single-stim	s554	0	False
21.873	1.0	23.182	0.9	2.408	True	71.0	Color	switch	twobytwo	71.0	0.409	orange	9.0	cue_switch	color	stay	stim	poldrack-single-stim	s554	0	False
25.185	1.0	26.602	0.9	2.0	True	71.0	Color	stay	twobytwo	71.0	0.517	orange	6.0	cue_stay	color	stay	stim	poldrack-single-stim	s554	0	False
28.09	1.0	29.455	0.9	2.544	True	71.0	Color	stay	twobytwo	71.0	0.465	orange	4.0	cue_stay	color	stay	stim	poldrack-single-stim	s554	0	False
30.74	1.0	31.916	0.1	2.136	True	71.0	High-Low	n/a	twobytwo	71.0	1.076	orange	2.0	task_switch	magnitude	switch	stim	poldrack-single-stim	s554	0	False
33.78	1.0	35.355	0.9	2.0	True	89.0	Color	n/a	twobytwo	89.0	0.675	blue	6.0	task_switch	color	switch	stim	poldrack-single-stim	s554	0	False
35.885	1.0	36.861	0.1	2.0	True	89.0	Color	stay	twobytwo	89.0	0.876	blue	9.0	cue_stay	color	stay	stim	poldrack-single-stim	s554	0	False
38.788	1.0	40.119	0.9	2.136	True	89.0	Orange-Blue	switch	twobytwo	89.0	0.431	blue	6.0	cue_switch	color	stay	stim	poldrack-single-stim	s554	0	False
41.029	1.0	42.065	0.1	2.136	True	71.0	Orange-Blue	stay	twobytwo	71.0	0.936	orange	7.0	cue_stay	color	stay	stim	poldrack-single-stim	s554	0	False
44.068	1.0	46.176	0.9	2.272	False	89.0	High-Low	n/a	twobytwo	71.0	1.208	orange	6.0	task_switch	magnitude	switch	stim	poldrack-single-stim	s554	0	False
47.245	1.0	48.877	0.9	3.224	True	89.0	Magnitude	switch	twobytwo	89.0	0.732	orange	7.0	cue_switch	magnitude	stay	stim	poldrack-single-stim	s554	0	False
50.573	1.0	51.317	0.1	2.0	True	71.0	High-Low	switch	twobytwo	71.0	0.644	orange	3.0	cue_switch	magnitude	stay	stim	poldrack-single-stim	s554	0	False
52.677	1.0	54.257	0.1	2.0	True	71.0	Orange-Blue	n/a	twobytwo	71.0	1.48	orange	8.0	task_switch	color	switch	stim	poldrack-single-stim	s554	0	False
54.781	1.0	55.852	0.1	2.272	True	89.0	High-Low	n/a	twobytwo	89.0	0.971	blue	9.0	task_switch	magnitude	switch	stim	poldrack-single-stim	s554	0	False
57.957	1.0	59.367	0.9	2.136	True	71.0	Orange-Blue	n/a	twobytwo	71.0	0.51	orange	8.0	task_switch	color	switch	stim	poldrack-single-stim	s554	0	False
60.997	1.0	62.284	0.9	2.0	True	89.0	Color	switch	twobytwo	89.0	0.387	blue	6.0	cue_switch	color	stay	stim	poldrack-single-stim	s554	0	False
63.101	1.0	64.075	0.1	2.0	True	71.0	Color	stay	twobytwo	71.0	0.874	orange	8.0	cue_stay	color	stay	stim	poldrack-single-stim	s554	0	False
65.205	1.0	65.972	0.1	2.0	True	71.0	Color	stay	twobytwo	71.0	0.667	orange	2.0	cue_stay	color	stay	stim	poldrack-single-stim	s554	0	False
67.31	1.0	68.019	0.1	2.68	True	71.0	Color	stay	twobytwo	71.0	0.609	orange	2.0	cue_stay	color	stay	stim	poldrack-single-stim	s554	0	False
70.894	1.0	72.617	0.9	2.0	True	71.0	High-Low	n/a	twobytwo	71.0	0.823	orange	1.0	task_switch	magnitude	switch	stim	poldrack-single-stim	s554	0	False
73.798	1.0	75.481	0.9	2.272	True	89.0	Color	n/a	twobytwo	89.0	0.783	blue	7.0	task_switch	color	switch	stim	poldrack-single-stim	s554	0	False
76.974	1.0	78.536	0.9	2.0	True	71.0	Magnitude	n/a	twobytwo	71.0	0.662	blue	3.0	task_switch	magnitude	switch	stim	poldrack-single-stim	s554	0	False
79.878	1.0	81.53	0.9	2.272	True	89.0	High-Low	switch	twobytwo	89.0	0.752	blue	6.0	cue_switch	magnitude	stay	stim	poldrack-single-stim	s554	0	False
83.054	1.0	84.841	0.9	2.952	True	89.0	Magnitude	switch	twobytwo	89.0	0.887	orange	6.0	cue_switch	magnitude	stay	stim	poldrack-single-stim	s554	0	False
86.112	1.0	87.274	0.1	2.0	True	71.0	Color	n/a	twobytwo	71.0	1.062	orange	9.0	task_switch	color	switch	stim	poldrack-single-stim	s554	0	False
88.217	1.0	88.99	0.1	2.0	True	71.0	Orange-Blue	switch	twobytwo	71.0	0.673	orange	8.0	cue_switch	color	stay	stim	poldrack-single-stim	s554	0	False
90.321	1.0	91.111	0.1	2.0	True	89.0	Magnitude	n/a	twobytwo	89.0	0.69	blue	8.0	task_switch	magnitude	switch	stim	poldrack-single-stim	s554	0	False
92.425	1.0	93.484	0.1	2.0	True	89.0	Magnitude	stay	twobytwo	89.0	0.959	blue	8.0	cue_stay	magnitude	stay	stim	poldrack-single-stim	s554	0	False
94.529	1.0	95.415	0.1	2.136	True	71.0	High-Low	switch	twobytwo	71.0	0.786	blue	1.0	cue_switch	magnitude	stay	stim	poldrack-single-stim	s554	0	False
97.569	1.0	98.939	0.9	2.0	False	71.0	Orange-Blue	n/a	twobytwo	89.0	0.47	orange	6.0	task_switch	color	switch	stim	poldrack-single-stim	s554	0	False
100.473	1.0	101.986	0.9	2.0	True	71.0	High-Low	n/a	twobytwo	71.0	0.613	blue	4.0	task_switch	magnitude	switch	stim	poldrack-single-stim	s554	0	False
103.377	1.0	104.943	0.9	2.0	True	89.0	Magnitude	switch	twobytwo	89.0	0.666	blue	7.0	cue_switch	magnitude	stay	stim	poldrack-single-stim	s554	0	False
106.282	1.0	108.158	0.9	2.272	True	89.0	Color	n/a	twobytwo	89.0	0.976	blue	8.0	task_switch	color	switch	stim	poldrack-single-stim	s554	0	False
108.657	1.0	109.984	0.1	2.136	True	89.0	Magnitude	n/a	twobytwo	89.0	1.227	blue	6.0	task_switch	magnitude	switch	stim	poldrack-single-stim	s554	0	False
110.898	1.0	111.622	0.1	2.0	False	89.0	Color	n/a	twobytwo	71.0	0.624	blue	1.0	task_switch	color	switch	stim	poldrack-single-stim	s554	0	False
113.004	1.0	113.952	0.1	2.136	True	89.0	High-Low	n/a	twobytwo	89.0	0.848	blue	8.0	task_switch	magnitude	switch	stim	poldrack-single-stim	s554	0	False
115.244	1.0	115.979	0.1	2.816	True	71.0	Color	n/a	twobytwo	71.0	0.635	orange	1.0	task_switch	color	switch	stim	poldrack-single-stim	s554	0	False
118.165	1.0	119.102	0.1	2.408	True	89.0	Orange-Blue	switch	twobytwo	89.0	0.837	blue	4.0	cue_switch	color	stay	stim	poldrack-single-stim	s554	0	False
120.677	1.0	121.479	0.1	2.0	True	71.0	Magnitude	n/a	twobytwo	71.0	0.702	blue	3.0	task_switch	magnitude	switch	stim	poldrack-single-stim	s554	0	False
122.781	1.0	123.594	0.1	2.136	True	71.0	Orange-Blue	n/a	twobytwo	71.0	0.713	orange	1.0	task_switch	color	switch	stim	poldrack-single-stim	s554	0	False
125.821	1.0	127.247	0.9	2.136	True	71.0	Orange-Blue	stay	twobytwo	71.0	0.526	orange	9.0	cue_stay	color	stay	stim	poldrack-single-stim	s554	0	False
128.061	1.0	128.84	0.1	2.136	True	71.0	Color	switch	twobytwo	71.0	0.679	orange	6.0	cue_switch	color	stay	stim	poldrack-single-stim	s554	0	False
131.101	1.0	132.535	0.9	2.544	True	89.0	High-Low	n/a	twobytwo	89.0	0.534	blue	7.0	task_switch	magnitude	switch	stim	poldrack-single-stim	s554	0	False
134.549	1.0	136.359	0.9	2.136	True	89.0	Orange-Blue	n/a	twobytwo	89.0	0.91	blue	2.0	task_switch	color	switch	stim	poldrack-single-stim	s554	0	False
136.789	1.0	137.728	0.1	2.0	True	71.0	High-Low	n/a	twobytwo	71.0	0.839	blue	1.0	task_switch	magnitude	switch	stim	poldrack-single-stim	s554	0	False
139.695	1.0	141.26	0.9	2.0	True	71.0	Color	n/a	twobytwo	71.0	0.665	orange	7.0	task_switch	color	switch	stim	poldrack-single-stim	s554	0	False
142.599	1.0	144.018	0.9	2.0	True	71.0	Color	stay	twobytwo	71.0	0.519	orange	8.0	cue_stay	color	stay	stim	poldrack-single-stim	s554	0	False
144.702	1.0	145.45	0.1	2.0	True	89.0	Magnitude	n/a	twobytwo	89.0	0.648	blue	9.0	task_switch	magnitude	switch	stim	poldrack-single-stim	s554	0	False
146.807	1.0	147.841	0.1	2.136	True	71.0	Orange-Blue	n/a	twobytwo	71.0	0.934	orange	3.0	task_switch	color	switch	stim	poldrack-single-stim	s554	0	False
149.848	1.0	151.115	0.9	2.0	True	71.0	Color	switch	twobytwo	71.0	0.367	orange	9.0	cue_switch	color	stay	stim	poldrack-single-stim	s554	0	False
151.952	1.0	152.483	0.1	2.0	True	71.0	Orange-Blue	switch	twobytwo	71.0	0.431	orange	7.0	cue_switch	color	stay	stim	poldrack-single-stim	s554	0	False
154.855	1.0	156.19	0.9	2.0	True	89.0	Orange-Blue	stay	twobytwo	89.0	0.435	blue	6.0	cue_stay	color	stay	stim	poldrack-single-stim	s554	0	False
157.761	1.0	159.475	0.9	2.136	True	89.0	High-Low	n/a	twobytwo	89.0	0.814	orange	9.0	task_switch	magnitude	switch	stim	poldrack-single-stim	s554	0	False
160.802	1.0	162.456	0.9	2.136	True	71.0	Orange-Blue	n/a	twobytwo	71.0	0.754	orange	9.0	task_switch	color	switch	stim	poldrack-single-stim	s554	0	False
163.843	1.0	165.385	0.9	2.136	True	71.0	Orange-Blue	stay	twobytwo	71.0	0.642	orange	1.0	cue_stay	color	stay	stim	poldrack-single-stim	s554	0	False
166.883	1.0	168.652	0.9	2.136	False	71.0	Magnitude	n/a	twobytwo	89.0	0.869	blue	3.0	task_switch	magnitude	switch	stim	poldrack-single-stim	s554	0	False
169.923	1.0	172.125	0.9	2.68	True	71.0	Magnitude	stay	twobytwo	71.0	1.302	orange	3.0	cue_stay	magnitude	stay	stim	poldrack-single-stim	s554	0	False
172.707	1.0	173.459	0.1	2.544	True	89.0	High-Low	switch	twobytwo	89.0	0.652	blue	9.0	cue_switch	magnitude	stay	stim	poldrack-single-stim	s554	0	False
175.356	1.0	176.692	0.1	2.272	False	89.0	Magnitude	switch	twobytwo	71.0	1.236	orange	8.0	cue_switch	magnitude	stay	stim	poldrack-single-stim	s554	0	False
177.732	1.0	178.794	0.1	2.272	True	89.0	High-Low	switch	twobytwo	89.0	0.962	orange	6.0	cue_switch	magnitude	stay	stim	poldrack-single-stim	s554	0	False
180.108	1.0	181.189	0.1	2.408	True	71.0	Orange-Blue	n/a	twobytwo	71.0	0.981	orange	4.0	task_switch	color	switch	stim	poldrack-single-stim	s554	0	False
183.421	1.0	184.949	0.9	2.136	True	71.0	Orange-Blue	stay	twobytwo	71.0	0.628	orange	2.0	cue_stay	color	stay	stim	poldrack-single-stim	s554	0	False
186.462	1.0	188.192	0.9	2.272	True	89.0	Magnitude	n/a	twobytwo	89.0	0.83	blue	7.0	task_switch	magnitude	switch	stim	poldrack-single-stim	s554	0	False
189.639	1.0	191.02	0.9	2.0	True	71.0	High-Low	switch	twobytwo	71.0	0.481	blue	2.0	cue_switch	magnitude	stay	stim	poldrack-single-stim	s554	0	False
192.543	1.0	194.138	0.9	2.136	True	89.0	Magnitude	switch	twobytwo	89.0	0.695	orange	9.0	cue_switch	magnitude	stay	stim	poldrack-single-stim	s554	0	False
194.783	1.0	195.505	0.1	2.272	True	89.0	Magnitude	stay	twobytwo	89.0	0.622	orange	9.0	cue_stay	magnitude	stay	stim	poldrack-single-stim	s554	0	False
197.959	1.0	199.346	0.9	2.0	True	71.0	Color	n/a	twobytwo	71.0	0.487	orange	8.0	task_switch	color	switch	stim	poldrack-single-stim	s554	0	False
200.063	1.0	201.021	0.1	2.68	True	89.0	High-Low	n/a	twobytwo	89.0	0.858	orange	7.0	task_switch	magnitude	switch	stim	poldrack-single-stim	s554	0	False
202.846	1.0	203.868	0.1	2.0	True	71.0	Magnitude	switch	twobytwo	71.0	0.922	orange	3.0	cue_switch	magnitude	stay	stim	poldrack-single-stim	s554	0	False
205.751	1.0	207.152	0.9	2.0	True	89.0	Color	n/a	twobytwo	89.0	0.501	blue	9.0	task_switch	color	switch	stim	poldrack-single-stim	s554	0	False
208.655	1.0	210.196	0.9	2.0	False	89.0	Color	stay	twobytwo	71.0	0.641	blue	2.0	cue_stay	color	stay	stim	poldrack-single-stim	s554	0	False
210.759	1.0	212.768	0.1	2.272	True	89.0	Magnitude	n/a	twobytwo	89.0	1.909	blue	9.0	task_switch	magnitude	switch	stim	poldrack-single-stim	s554	0	False
213.936	1.0	215.79	0.9	2.0	False	89.0	Color	n/a	twobytwo	71.0	0.954	blue	8.0	task_switch	color	switch	stim	poldrack-single-stim	s554	0	False
216.84	1.0	218.547	0.9	2.0	True	71.0	Magnitude	n/a	twobytwo	71.0	0.807	orange	3.0	task_switch	magnitude	switch	stim	poldrack-single-stim	s554	0	False
219.744	1.0	221.072	0.9	2.0	True	71.0	Color	n/a	twobytwo	71.0	0.428	orange	3.0	task_switch	color	switch	stim	poldrack-single-stim	s554	0	False
235.355	1.0	236.276	0.1	2.68	True	89.0	High-Low	switch	twobytwo	89.0	0.821	blue	7.0	cue_switch	magnitude	stay	stim	poldrack-single-stim	s554	1	False
238.139	1.0	238.879	0.1	2.0	True	71.0	Color	n/a	twobytwo	71.0	0.64	orange	3.0	task_switch	color	switch	stim	poldrack-single-stim	s554	0	False
241.044	1.0	242.561	0.9	2.136	True	89.0	High-Low	n/a	twobytwo	89.0	0.617	blue	9.0	task_switch	magnitude	switch	stim	poldrack-single-stim	s554	0	False
244.085	1.0	245.925	0.9	2.408	True	71.0	High-Low	stay	twobytwo	71.0	0.94	blue	4.0	cue_stay	magnitude	stay	stim	poldrack-single-stim	s554	0	False
247.398	1.0	248.777	0.9	2.136	True	89.0	Color	n/a	twobytwo	89.0	0.479	blue	6.0	task_switch	color	switch	stim	poldrack-single-stim	s554	0	False
250.438	1.0	251.818	0.9	2.0	True	71.0	Color	stay	twobytwo	71.0	0.48	orange	6.0	cue_stay	color	stay	stim	poldrack-single-stim	s554	0	False
253.342	1.0	254.74	0.9	2.0	True	71.0	Orange-Blue	switch	twobytwo	71.0	0.498	orange	9.0	cue_switch	color	stay	stim	poldrack-single-stim	s554	0	False
256.246	1.0	257.642	0.9	2.544	True	71.0	Orange-Blue	stay	twobytwo	71.0	0.496	orange	6.0	cue_stay	color	stay	stim	poldrack-single-stim	s554	0	False
259.695	1.0	261.348	0.9	2.136	True	71.0	Orange-Blue	stay	twobytwo	71.0	0.753	orange	4.0	cue_stay	color	stay	stim	poldrack-single-stim	s554	0	False
261.936	1.0	262.836	0.1	2.544	True	71.0	High-Low	n/a	twobytwo	71.0	0.8	orange	2.0	task_switch	magnitude	switch	stim	poldrack-single-stim	s554	0	False
265.385	1.0	266.674	0.9	2.68	True	89.0	Color	n/a	twobytwo	89.0	0.389	blue	6.0	task_switch	color	switch	stim	poldrack-single-stim	s554	0	False
268.17	1.0	269.476	0.1	2.0	True	89.0	Color	stay	twobytwo	89.0	1.206	blue	9.0	cue_stay	color	stay	stim	poldrack-single-stim	s554	0	False
271.073	1.0	272.464	0.9	2.272	True	89.0	Orange-Blue	switch	twobytwo	89.0	0.491	blue	6.0	cue_switch	color	stay	stim	poldrack-single-stim	s554	0	False
273.45	1.0	274.528	0.1	3.088	True	71.0	Orange-Blue	stay	twobytwo	71.0	0.978	orange	7.0	cue_stay	color	stay	stim	poldrack-single-stim	s554	0	False
277.441	1.0	279.163	0.9	2.0	True	89.0	High-Low	n/a	twobytwo	89.0	0.822	orange	6.0	task_switch	magnitude	switch	stim	poldrack-single-stim	s554	0	False
280.348	1.0	281.819	0.9	2.136	True	89.0	Magnitude	switch	twobytwo	89.0	0.571	orange	7.0	cue_switch	magnitude	stay	stim	poldrack-single-stim	s554	0	False
282.588	1.0	283.43	0.1	2.136	True	71.0	High-Low	switch	twobytwo	71.0	0.742	orange	3.0	cue_switch	magnitude	stay	stim	poldrack-single-stim	s554	0	False
284.828	1.0	285.893	0.1	2.0	False	71.0	Color	n/a	twobytwo	89.0	0.965	orange	8.0	task_switch	color	switch	stim	poldrack-single-stim	s554	0	False
286.933	1.0	287.715	0.1	2.272	True	89.0	Magnitude	n/a	twobytwo	89.0	0.682	blue	9.0	task_switch	magnitude	switch	stim	poldrack-single-stim	s554	0	False
290.109	1.0	291.749	0.9	2.0	True	71.0	Color	n/a	twobytwo	71.0	0.74	orange	8.0	task_switch	color	switch	stim	poldrack-single-stim	s554	0	False
293.014	1.0	294.479	0.9	2.136	True	89.0	Orange-Blue	switch	twobytwo	89.0	0.565	blue	6.0	cue_switch	color	stay	stim	poldrack-single-stim	s554	0	False
295.255	1.0	296.081	0.1	2.136	True	71.0	Orange-Blue	stay	twobytwo	71.0	0.726	orange	8.0	cue_stay	color	stay	stim	poldrack-single-stim	s554	0	False
297.496	1.0	298.257	0.1	2.544	True	71.0	Orange-Blue	stay	twobytwo	71.0	0.661	orange	2.0	cue_stay	color	stay	stim	poldrack-single-stim	s554	0	False
300.144	1.0	301.047	0.1	2.0	True	71.0	Orange-Blue	stay	twobytwo	71.0	0.803	orange	2.0	cue_stay	color	stay	stim	poldrack-single-stim	s554	0	False
303.048	1.0	304.326	0.9	2.136	True	71.0	Magnitude	n/a	twobytwo	71.0	0.378	orange	1.0	task_switch	magnitude	switch	stim	poldrack-single-stim	s554	0	False
306.088	1.0	307.847	0.9	2.136	True	89.0	Orange-Blue	n/a	twobytwo	89.0	0.859	blue	7.0	task_switch	color	switch	stim	poldrack-single-stim	s554	0	False
309.128	1.0	310.96	0.9	2.136	False	71.0	Magnitude	n/a	twobytwo	89.0	0.932	blue	3.0	task_switch	magnitude	switch	stim	poldrack-single-stim	s554	0	False
312.167	1.0	313.79	0.9	2.0	True	89.0	High-Low	switch	twobytwo	89.0	0.723	blue	6.0	cue_switch	magnitude	stay	stim	poldrack-single-stim	s554	0	False
315.072	1.0	316.943	0.9	2.136	True	89.0	Magnitude	switch	twobytwo	89.0	0.971	orange	6.0	cue_switch	magnitude	stay	stim	poldrack-single-stim	s554	0	False
317.313	1.0	318.278	0.1	2.0	True	71.0	Color	n/a	twobytwo	71.0	0.865	orange	9.0	task_switch	color	switch	stim	poldrack-single-stim	s554	0	False
319.417	1.0	320.411	0.1	2.136	True	71.0	Orange-Blue	switch	twobytwo	71.0	0.894	orange	8.0	cue_switch	color	stay	stim	poldrack-single-stim	s554	0	False
321.656	1.0	322.412	0.1	2.816	True	89.0	Magnitude	n/a	twobytwo	89.0	0.656	blue	8.0	task_switch	magnitude	switch	stim	poldrack-single-stim	s554	0	False
324.577	1.0	325.593	0.1	2.136	True	89.0	Magnitude	stay	twobytwo	89.0	0.916	blue	8.0	cue_stay	magnitude	stay	stim	poldrack-single-stim	s554	0	False
326.817	1.0	327.543	0.1	2.0	True	71.0	High-Low	switch	twobytwo	71.0	0.626	blue	1.0	cue_switch	magnitude	stay	stim	poldrack-single-stim	s554	0	False
329.72	1.0	331.033	0.9	2.0	True	71.0	Color	n/a	twobytwo	71.0	0.413	orange	6.0	task_switch	color	switch	stim	poldrack-single-stim	s554	0	False
332.627	1.0	334.418	0.9	2.272	True	71.0	Magnitude	n/a	twobytwo	71.0	0.891	blue	4.0	task_switch	magnitude	switch	stim	poldrack-single-stim	s554	0	False
335.804	1.0	337.304	0.9	2.0	True	89.0	High-Low	switch	twobytwo	89.0	0.6	blue	7.0	cue_switch	magnitude	stay	stim	poldrack-single-stim	s554	0	False
338.707	1.0	340.133	0.9	2.0	True	89.0	Orange-Blue	n/a	twobytwo	89.0	0.526	blue	8.0	task_switch	color	switch	stim	poldrack-single-stim	s554	0	False
340.812	1.0	341.572	0.1	2.0	True	89.0	Magnitude	n/a	twobytwo	89.0	0.66	blue	6.0	task_switch	magnitude	switch	stim	poldrack-single-stim	s554	0	False
342.916	1.0	343.623	0.1	2.408	False	89.0	Orange-Blue	n/a	twobytwo	71.0	0.607	blue	1.0	task_switch	color	switch	stim	poldrack-single-stim	s554	0	False
345.428	1.0	346.229	0.1	2.272	True	89.0	Magnitude	n/a	twobytwo	89.0	0.701	blue	8.0	task_switch	magnitude	switch	stim	poldrack-single-stim	s554	0	False
347.804	1.0	348.834	0.1	2.136	True	71.0	Color	n/a	twobytwo	71.0	0.93	orange	1.0	task_switch	color	switch	stim	poldrack-single-stim	s554	0	False
350.045	1.0	351.802	0.1	2.0	True	89.0	Orange-Blue	switch	twobytwo	89.0	1.657	blue	4.0	cue_switch	color	stay	stim	poldrack-single-stim	s554	0	False
352.15	1.0	353.081	0.1	2.0	True	71.0	High-Low	n/a	twobytwo	71.0	0.831	blue	3.0	task_switch	magnitude	switch	stim	poldrack-single-stim	s554	0	False
354.255	1.0	354.937	0.1	2.136	True	71.0	Color	n/a	twobytwo	71.0	0.582	orange	1.0	task_switch	color	switch	stim	poldrack-single-stim	s554	0	False
357.295	1.0	358.867	0.9	2.0	True	71.0	Color	stay	twobytwo	71.0	0.672	orange	9.0	cue_stay	color	stay	stim	poldrack-single-stim	s554	0	False
359.4	1.0	360.574	0.1	2.136	True	71.0	Orange-Blue	switch	twobytwo	71.0	1.074	orange	6.0	cue_switch	color	stay	stim	poldrack-single-stim	s554	0	False
362.441	1.0	364.086	0.9	2.408	True	89.0	High-Low	n/a	twobytwo	89.0	0.745	blue	7.0	task_switch	magnitude	switch	stim	poldrack-single-stim	s554	0	False
365.754	1.0	367.068	0.9	2.136	True	89.0	Orange-Blue	n/a	twobytwo	89.0	0.414	blue	2.0	task_switch	color	switch	stim	poldrack-single-stim	s554	0	False
367.994	1.0	368.764	0.1	2.0	True	71.0	Magnitude	n/a	twobytwo	71.0	0.67	blue	1.0	task_switch	magnitude	switch	stim	poldrack-single-stim	s554	0	False
370.899	1.0	372.273	0.9	2.136	True	71.0	Orange-Blue	n/a	twobytwo	71.0	0.474	orange	7.0	task_switch	color	switch	stim	poldrack-single-stim	s554	0	False
373.941	1.0	375.446	0.9	2.272	False	71.0	Orange-Blue	stay	twobytwo	89.0	0.605	orange	8.0	cue_stay	color	stay	stim	poldrack-single-stim	s554	0	False
376.317	1.0	377.349	0.1	2.0	True	89.0	Magnitude	n/a	twobytwo	89.0	0.932	blue	9.0	task_switch	magnitude	switch	stim	poldrack-single-stim	s554	0	False
378.421	1.0	379.316	0.1	2.408	True	71.0	Orange-Blue	n/a	twobytwo	71.0	0.795	orange	3.0	task_switch	color	switch	stim	poldrack-single-stim	s554	0	False
381.734	1.0	383.084	0.9	2.0	True	71.0	Color	switch	twobytwo	71.0	0.45	orange	9.0	cue_switch	color	stay	stim	poldrack-single-stim	s554	0	False
383.84	1.0	384.847	0.1	2.136	True	71.0	Orange-Blue	switch	twobytwo	71.0	0.907	orange	7.0	cue_switch	color	stay	stim	poldrack-single-stim	s554	0	False
386.88	1.0	388.213	0.9	2.408	True	89.0	Orange-Blue	stay	twobytwo	89.0	0.433	blue	6.0	cue_stay	color	stay	stim	poldrack-single-stim	s554	0	False
390.193	1.0	391.718	0.9	2.136	False	89.0	Magnitude	n/a	twobytwo	71.0	0.625	orange	9.0	task_switch	magnitude	switch	stim	poldrack-single-stim	s554	0	False
393.232	1.0	394.806	0.9	2.408	True	71.0	Color	n/a	twobytwo	71.0	0.674	orange	9.0	task_switch	color	switch	stim	poldrack-single-stim	s554	0	False
396.544	1.0	397.955	0.9	2.136	True	71.0	Color	stay	twobytwo	71.0	0.511	orange	1.0	cue_stay	color	stay	stim	poldrack-single-stim	s554	0	False
399.585	1.0	401.285	0.9	2.0	False	71.0	High-Low	n/a	twobytwo	89.0	0.8	blue	3.0	task_switch	magnitude	switch	stim	poldrack-single-stim	s554	0	False
402.489	1.0	403.921	0.9	2.272	True	71.0	High-Low	stay	twobytwo	71.0	0.532	orange	3.0	cue_stay	magnitude	stay	stim	poldrack-single-stim	s554	0	False
404.865	1.0	406.211	0.1	2.0	True	89.0	Magnitude	switch	twobytwo	89.0	1.246	blue	9.0	cue_switch	magnitude	stay	stim	poldrack-single-stim	s554	0	False
406.969	1.0	408.667	0.1	2.272	True	89.0	High-Low	switch	twobytwo	89.0	1.598	orange	8.0	cue_switch	magnitude	stay	stim	poldrack-single-stim	s554	0	False
409.345	1.0	410.197	0.1	2.272	True	89.0	Magnitude	switch	twobytwo	89.0	0.752	orange	6.0	cue_switch	magnitude	stay	stim	poldrack-single-stim	s554	0	False
411.722	1.0	412.412	0.1	2.952	True	71.0	Color	n/a	twobytwo	71.0	0.59	orange	4.0	task_switch	color	switch	stim	poldrack-single-stim	s554	0	False
415.58	1.0	417.18	0.9	2.68	True	71.0	Color	stay	twobytwo	71.0	0.7	orange	2.0	cue_stay	color	stay	stim	poldrack-single-stim	s554	0	False
419.164	1.0	420.618	0.9	2.136	True	89.0	Magnitude	n/a	twobytwo	89.0	0.554	blue	7.0	task_switch	magnitude	switch	stim	poldrack-single-stim	s554	0	False
422.204	1.0	424.185	0.9	2.272	True	71.0	High-Low	switch	twobytwo	71.0	1.081	blue	2.0	cue_switch	magnitude	stay	stim	poldrack-single-stim	s554	0	False
425.382	1.0	427.503	0.9	2.272	True	89.0	Magnitude	switch	twobytwo	89.0	1.221	orange	9.0	cue_switch	magnitude	stay	stim	poldrack-single-stim	s554	0	False
427.758	1.0	428.482	0.1	2.136	True	89.0	Magnitude	stay	twobytwo	89.0	0.624	orange	9.0	cue_stay	magnitude	stay	stim	poldrack-single-stim	s554	0	False
430.799	1.0	432.167	0.9	2.408	True	71.0	Color	n/a	twobytwo	71.0	0.468	orange	8.0	task_switch	color	switch	stim	poldrack-single-stim	s554	0	False
433.311	1.0	434.396	0.1	2.136	True	89.0	Magnitude	n/a	twobytwo	89.0	0.985	orange	7.0	task_switch	magnitude	switch	stim	poldrack-single-stim	s554	0	False
435.551	1.0	436.359	0.1	2.136	True	71.0	High-Low	switch	twobytwo	71.0	0.708	orange	3.0	cue_switch	magnitude	stay	stim	poldrack-single-stim	s554	0	False
438.591	1.0	440.138	0.9	2.0	True	89.0	Orange-Blue	n/a	twobytwo	89.0	0.647	blue	9.0	task_switch	color	switch	stim	poldrack-single-stim	s554	0	False
441.495	1.0	443.008	0.9	2.0	True	89.0	Orange-Blue	stay	twobytwo	89.0	0.613	blue	2.0	cue_stay	color	stay	stim	poldrack-single-stim	s554	0	False
443.6	1.0	444.482	0.1	2.0	True	89.0	High-Low	n/a	twobytwo	89.0	0.782	blue	9.0	task_switch	magnitude	switch	stim	poldrack-single-stim	s554	0	False
446.503	1.0	448.31	0.9	2.0	True	89.0	Orange-Blue	n/a	twobytwo	89.0	0.907	blue	8.0	task_switch	color	switch	stim	poldrack-single-stim	s554	0	False
449.407	1.0	450.945	0.9	2.0	True	71.0	Magnitude	n/a	twobytwo	71.0	0.638	orange	3.0	task_switch	magnitude	switch	stim	poldrack-single-stim	s554	0	False
452.311	1.0	453.979	0.9	2.272	True	71.0	Color	n/a	twobytwo	71.0	0.768	orange	3.0	task_switch	color	switch	stim	poldrack-single-stim	s554	0	False
468.199	1.0	469.038	0.1	2.408	True	89.0	High-Low	switch	twobytwo	89.0	0.739	blue	7.0	cue_switch	magnitude	stay	stim	poldrack-single-stim	s554	1	False
470.712	1.0	471.51	0.1	2.0	True	71.0	Orange-Blue	n/a	twobytwo	71.0	0.698	orange	3.0	task_switch	color	switch	stim	poldrack-single-stim	s554	0	False
473.616	1.0	475.265	0.9	2.136	True	89.0	High-Low	n/a	twobytwo	89.0	0.749	blue	9.0	task_switch	magnitude	switch	stim	poldrack-single-stim	s554	0	False
476.657	1.0	478.921	0.9	2.0	True	71.0	High-Low	stay	twobytwo	71.0	1.364	blue	4.0	cue_stay	magnitude	stay	stim	poldrack-single-stim	s554	0	False
479.561	1.0	481.25	0.9	2.136	True	89.0	Color	n/a	twobytwo	89.0	0.789	blue	6.0	task_switch	color	switch	stim	poldrack-single-stim	s554	0	False
482.601	1.0	484.01	0.9	2.544	True	71.0	Color	stay	twobytwo	71.0	0.509	orange	6.0	cue_stay	color	stay	stim	poldrack-single-stim	s554	0	False
486.05	1.0	487.705	0.9	2.68	True	71.0	Orange-Blue	switch	twobytwo	71.0	0.755	orange	9.0	cue_switch	color	stay	stim	poldrack-single-stim	s554	0	False
489.635	1.0	491.269	0.9	3.088	True	71.0	Orange-Blue	stay	twobytwo	71.0	0.734	orange	6.0	cue_stay	color	stay	stim	poldrack-single-stim	s554	0	False
493.628	1.0	495.069	0.9	2.136	True	71.0	Orange-Blue	stay	twobytwo	71.0	0.541	orange	4.0	cue_stay	color	stay	stim	poldrack-single-stim	s554	0	False
495.868	1.0	496.831	0.1	2.544	False	71.0	Magnitude	n/a	twobytwo	89.0	0.863	orange	2.0	task_switch	magnitude	switch	stim	poldrack-single-stim	s554	0	False
499.317	1.0	501.071	0.9	2.0	True	89.0	Color	n/a	twobytwo	89.0	0.854	blue	6.0	task_switch	color	switch	stim	poldrack-single-stim	s554	0	False
501.421	1.0	502.488	0.1	2.136	True	89.0	Color	stay	twobytwo	89.0	0.967	blue	9.0	cue_stay	color	stay	stim	poldrack-single-stim	s554	0	False
504.462	1.0	505.891	0.9	2.0	True	89.0	Orange-Blue	switch	twobytwo	89.0	0.529	blue	6.0	cue_switch	color	stay	stim	poldrack-single-stim	s554	0	False
506.566	1.0	507.727	0.1	2.408	True	71.0	Orange-Blue	stay	twobytwo	71.0	1.061	orange	7.0	cue_stay	color	stay	stim	poldrack-single-stim	s554	0	False
509.879	1.0	511.799	0.9	2.0	True	89.0	High-Low	n/a	twobytwo	89.0	1.02	orange	6.0	task_switch	magnitude	switch	stim	poldrack-single-stim	s554	0	False
512.782	1.0	514.229	0.9	2.0	True	89.0	Magnitude	switch	twobytwo	89.0	0.547	orange	7.0	cue_switch	magnitude	stay	stim	poldrack-single-stim	s554	0	False
514.887	1.0	516.044	0.1	2.0	True	71.0	High-Low	switch	twobytwo	71.0	1.057	orange	3.0	cue_switch	magnitude	stay	stim	poldrack-single-stim	s554	0	False
516.991	1.0	517.639	0.1	2.68	True	71.0	Color	n/a	twobytwo	71.0	0.548	orange	8.0	task_switch	color	switch	stim	poldrack-single-stim	s554	0	False
519.777	1.0	520.709	0.1	2.272	True	89.0	Magnitude	n/a	twobytwo	89.0	0.832	blue	9.0	task_switch	magnitude	switch	stim	poldrack-single-stim	s554	0	False
522.954	1.0	524.34	0.9	2.408	True	71.0	Color	n/a	twobytwo	71.0	0.486	orange	8.0	task_switch	color	switch	stim	poldrack-single-stim	s554	0	False
526.266	1.0	528.977	0.9	3.224	False	89.0	Orange-Blue	switch	twobytwo	71.0	1.811	blue	6.0	cue_switch	color	stay	stim	poldrack-single-stim	s554	0	False
529.595	1.0	531.721	0.1	2.408	True	71.0	Orange-Blue	stay	twobytwo	71.0	2.026	orange	8.0	cue_stay	color	stay	stim	poldrack-single-stim	s554	0	False
532.106	1.0	532.763	0.1	2.816	True	71.0	Orange-Blue	stay	twobytwo	71.0	0.557	orange	2.0	cue_stay	color	stay	stim	poldrack-single-stim	s554	0	False
535.027	1.0	536.114	0.1	2.408	True	71.0	Orange-Blue	stay	twobytwo	71.0	0.987	orange	2.0	cue_stay	color	stay	stim	poldrack-single-stim	s554	0	False
538.34	1.0	539.661	0.9	2.136	True	71.0	High-Low	n/a	twobytwo	71.0	0.421	orange	1.0	task_switch	magnitude	switch	stim	poldrack-single-stim	s554	0	False
541.381	1.0	542.969	0.9	2.136	True	89.0	Orange-Blue	n/a	twobytwo	89.0	0.688	blue	7.0	task_switch	color	switch	stim	poldrack-single-stim	s554	0	False
544.421	1.0	546.06	0.9	2.0	True	71.0	High-Low	n/a	twobytwo	71.0	0.739	blue	3.0	task_switch	magnitude	switch	stim	poldrack-single-stim	s554	0	False
547.326	1.0	548.842	0.9	2.0	True	89.0	Magnitude	switch	twobytwo	89.0	0.616	blue	6.0	cue_switch	magnitude	stay	stim	poldrack-single-stim	s554	0	False
550.23	1.0	551.811	0.9	2.272	True	89.0	High-Low	switch	twobytwo	89.0	0.681	orange	6.0	cue_switch	magnitude	stay	stim	poldrack-single-stim	s554	0	False
552.606	1.0	553.832	0.1	2.408	True	71.0	Color	n/a	twobytwo	71.0	1.126	orange	9.0	task_switch	color	switch	stim	poldrack-single-stim	s554	0	False
555.118	1.0	556.165	0.1	2.0	True	71.0	Orange-Blue	switch	twobytwo	71.0	0.947	orange	8.0	cue_switch	color	stay	stim	poldrack-single-stim	s554	0	False
557.222	1.0	558.198	0.1	2.136	True	89.0	Magnitude	n/a	twobytwo	89.0	0.876	blue	8.0	task_switch	magnitude	switch	stim	poldrack-single-stim	s554	0	False
559.462	1.0	560.602	0.1	2.0	True	89.0	Magnitude	stay	twobytwo	89.0	1.04	blue	8.0	cue_stay	magnitude	stay	stim	poldrack-single-stim	s554	0	False
561.567	1.0	562.386	0.1	2.408	True	71.0	High-Low	switch	twobytwo	71.0	0.719	blue	1.0	cue_switch	magnitude	stay	stim	poldrack-single-stim	s554	0	False
564.879	1.0	566.646	0.9	2.272	True	71.0	Orange-Blue	n/a	twobytwo	71.0	0.867	orange	6.0	task_switch	color	switch	stim	poldrack-single-stim	s554	0	False
568.056	1.0	569.917	0.9	2.0	True	71.0	High-Low	n/a	twobytwo	71.0	0.961	blue	4.0	task_switch	magnitude	switch	stim	poldrack-single-stim	s554	0	False
570.961	1.0	572.572	0.9	2.272	True	89.0	Magnitude	switch	twobytwo	89.0	0.711	blue	7.0	cue_switch	magnitude	stay	stim	poldrack-single-stim	s554	0	False
574.137	1.0	575.583	0.9	2.0	True	89.0	Orange-Blue	n/a	twobytwo	89.0	0.546	blue	8.0	task_switch	color	switch	stim	poldrack-single-stim	s554	0	False
576.241	1.0	577.024	0.1	2.0	True	89.0	Magnitude	n/a	twobytwo	89.0	0.683	blue	6.0	task_switch	magnitude	switch	stim	poldrack-single-stim	s554	0	False
578.346	1.0	579.124	0.1	2.272	False	89.0	Color	n/a	twobytwo	71.0	0.678	blue	1.0	task_switch	color	switch	stim	poldrack-single-stim	s554	0	False
580.721	1.0	581.94	0.1	2.136	True	89.0	Magnitude	n/a	twobytwo	89.0	1.119	blue	8.0	task_switch	magnitude	switch	stim	poldrack-single-stim	s554	0	False
582.962	1.0	583.977	0.1	2.0	True	71.0	Orange-Blue	n/a	twobytwo	71.0	0.915	orange	1.0	task_switch	color	switch	stim	poldrack-single-stim	s554	0	False
585.066	1.0	586.151	0.1	2.0	True	89.0	Color	switch	twobytwo	89.0	0.985	blue	4.0	cue_switch	color	stay	stim	poldrack-single-stim	s554	0	False
587.169	1.0	588.118	0.1	2.0	True	71.0	High-Low	n/a	twobytwo	71.0	0.849	blue	3.0	task_switch	magnitude	switch	stim	poldrack-single-stim	s554	0	False
589.274	1.0	590.322	0.1	2.0	True	71.0	Color	n/a	twobytwo	71.0	0.948	orange	1.0	task_switch	color	switch	stim	poldrack-single-stim	s554	0	False
592.178	1.0	593.761	0.9	2.0	True	71.0	Color	stay	twobytwo	71.0	0.683	orange	9.0	cue_stay	color	stay	stim	poldrack-single-stim	s554	0	False
594.283	1.0	595.611	0.1	2.136	True	71.0	Orange-Blue	switch	twobytwo	71.0	1.228	orange	6.0	cue_switch	color	stay	stim	poldrack-single-stim	s554	0	False
597.324	1.0	599.042	0.9	2.0	True	89.0	High-Low	n/a	twobytwo	89.0	0.818	blue	7.0	task_switch	magnitude	switch	stim	poldrack-single-stim	s554	0	False
600.229	1.0	601.978	0.9	2.0	True	89.0	Color	n/a	twobytwo	89.0	0.849	blue	2.0	task_switch	color	switch	stim	poldrack-single-stim	s554	0	False
602.333	1.0	603.325	0.1	2.136	False	71.0	Magnitude	n/a	twobytwo	89.0	0.892	blue	1.0	task_switch	magnitude	switch	stim	poldrack-single-stim	s554	0	False
605.373	1.0	606.874	0.9	2.0	True	71.0	Color	n/a	twobytwo	71.0	0.601	orange	7.0	task_switch	color	switch	stim	poldrack-single-stim	s554	0	False
608.278	1.0	609.737	0.9	2.136	True	71.0	Color	stay	twobytwo	71.0	0.559	orange	8.0	cue_stay	color	stay	stim	poldrack-single-stim	s554	0	False
610.519	1.0	611.752	0.1	2.68	True	89.0	High-Low	n/a	twobytwo	89.0	1.133	blue	9.0	task_switch	magnitude	switch	stim	poldrack-single-stim	s554	0	False
613.304	1.0	614.229	0.1	2.272	True	71.0	Color	n/a	twobytwo	71.0	0.825	orange	3.0	task_switch	color	switch	stim	poldrack-single-stim	s554	0	False
616.481	1.0	618.174	0.9	2.136	True	71.0	Orange-Blue	switch	twobytwo	71.0	0.793	orange	9.0	cue_switch	color	stay	stim	poldrack-single-stim	s554	0	False
618.722	1.0	619.55	0.1	2.0	True	71.0	Color	switch	twobytwo	71.0	0.728	orange	7.0	cue_switch	color	stay	stim	poldrack-single-stim	s554	0	False
621.626	1.0	623.075	0.9	2.136	True	89.0	Color	stay	twobytwo	89.0	0.549	blue	6.0	cue_stay	color	stay	stim	poldrack-single-stim	s554	0	False
624.666	1.0	626.275	0.9	2.68	False	89.0	High-Low	n/a	twobytwo	71.0	0.709	orange	9.0	task_switch	magnitude	switch	stim	poldrack-single-stim	s554	0	False
628.251	1.0	630.024	0.9	2.272	True	71.0	Color	n/a	twobytwo	71.0	0.873	orange	9.0	task_switch	color	switch	stim	poldrack-single-stim	s554	0	False
631.429	1.0	632.705	0.9	2.0	True	71.0	Color	stay	twobytwo	71.0	0.376	orange	1.0	cue_stay	color	stay	stim	poldrack-single-stim	s554	0	False
634.334	1.0	636.148	0.9	2.0	True	71.0	Magnitude	n/a	twobytwo	71.0	0.914	blue	3.0	task_switch	magnitude	switch	stim	poldrack-single-stim	s554	0	False
637.238	1.0	638.827	0.9	2.136	True	71.0	Magnitude	stay	twobytwo	71.0	0.689	orange	3.0	cue_stay	magnitude	stay	stim	poldrack-single-stim	s554	0	False
639.478	1.0	640.367	0.1	2.0	True	89.0	High-Low	switch	twobytwo	89.0	0.789	blue	9.0	cue_switch	magnitude	stay	stim	poldrack-single-stim	s554	0	False
641.583	1.0	642.576	0.1	2.0	True	89.0	Magnitude	switch	twobytwo	89.0	0.893	orange	8.0	cue_switch	magnitude	stay	stim	poldrack-single-stim	s554	0	False
643.688	1.0	644.542	0.1	2.0	True	89.0	High-Low	switch	twobytwo	89.0	0.754	orange	6.0	cue_switch	magnitude	stay	stim	poldrack-single-stim	s554	0	False
645.793	1.0	646.888	0.1	2.272	True	71.0	Orange-Blue	n/a	twobytwo	71.0	0.995	orange	4.0	task_switch	color	switch	stim	poldrack-single-stim	s554	0	False
648.969	1.0	650.458	0.9	2.408	True	71.0	Orange-Blue	stay	twobytwo	71.0	0.589	orange	2.0	cue_stay	color	stay	stim	poldrack-single-stim	s554	0	False
652.281	1.0	653.746	0.9	2.0	True	89.0	High-Low	n/a	twobytwo	89.0	0.565	blue	7.0	task_switch	magnitude	switch	stim	poldrack-single-stim	s554	0	False
655.185	1.0	657.018	0.9	2.0	False	71.0	Magnitude	switch	twobytwo	89.0	0.933	blue	2.0	cue_switch	magnitude	stay	stim	poldrack-single-stim	s554	0	False
658.089	1.0	659.561	0.9	2.0	True	89.0	High-Low	switch	twobytwo	89.0	0.572	orange	9.0	cue_switch	magnitude	stay	stim	poldrack-single-stim	s554	0	False
660.193	1.0	661.393	0.1	2.272	True	89.0	High-Low	stay	twobytwo	89.0	1.1	orange	9.0	cue_stay	magnitude	stay	stim	poldrack-single-stim	s554	0	False
663.369	1.0	664.942	0.9	2.136	True	71.0	Color	n/a	twobytwo	71.0	0.673	orange	8.0	task_switch	color	switch	stim	poldrack-single-stim	s554	0	False
665.609	1.0	666.57	0.1	2.0	True	89.0	Magnitude	n/a	twobytwo	89.0	0.861	orange	7.0	task_switch	magnitude	switch	stim	poldrack-single-stim	s554	0	False
667.714	1.0	669.36	0.1	2.544	True	71.0	High-Low	switch	twobytwo	71.0	1.546	orange	3.0	cue_switch	magnitude	stay	stim	poldrack-single-stim	s554	0	False
671.162	1.0	672.467	0.9	2.272	True	89.0	Color	n/a	twobytwo	89.0	0.405	blue	9.0	task_switch	color	switch	stim	poldrack-single-stim	s554	0	False
674.338	1.0	675.929	0.9	2.272	False	89.0	Color	stay	twobytwo	71.0	0.691	blue	2.0	cue_stay	color	stay	stim	poldrack-single-stim	s554	0	False
676.717	1.0	677.739	0.1	2.0	True	89.0	Magnitude	n/a	twobytwo	89.0	0.922	blue	9.0	task_switch	magnitude	switch	stim	poldrack-single-stim	s554	0	False
679.621	1.0	681.358	0.9	2.0	False	89.0	Orange-Blue	n/a	twobytwo	71.0	0.837	blue	8.0	task_switch	color	switch	stim	poldrack-single-stim	s554	0	False
682.526	1.0	684.133	0.9	2.136	True	71.0	High-Low	n/a	twobytwo	71.0	0.707	orange	3.0	task_switch	magnitude	switch	stim	poldrack-single-stim	s554	0	False
685.567	1.0	687.205	0.9	2.0	True	71.0	Orange-Blue	n/a	twobytwo	71.0	0.738	orange	3.0	task_switch	color	switch	stim	poldrack-single-stim	s554	0	False
