onset	duration	movement_onset	block_duration	condition	correct	correct_response	experiment_exp_id	key_press	response_time	trial_id	trial_type	worker_id	junk
3.009	0.5	3.008	0.5	AY	n/a	n/a	dot_pattern_expectancy	-1.0	n/a	cue	AY	s555	False
5.513	0.5	6.097	1.636	AY	1.0	71.0	dot_pattern_expectancy	71.0	0.584	probe	AY	s555	False
7.151	0.5	7.15	0.5	AX	n/a	n/a	dot_pattern_expectancy	-1.0	n/a	cue	AX	s555	False
9.655	0.5	10.21	1.636	AX	1.0	89.0	dot_pattern_expectancy	89.0	0.555	probe	AX	s555	False
11.292	0.5	11.291	0.5	AX	n/a	n/a	dot_pattern_expectancy	-1.0	n/a	cue	AX	s555	False
13.796	0.5	14.323	1.5	AX	1.0	89.0	dot_pattern_expectancy	89.0	0.527	probe	AX	s555	False
15.298	0.5	15.297	0.5	AX	n/a	n/a	dot_pattern_expectancy	-1.0	n/a	cue	AX	s555	False
17.802	0.5	18.248	1.5	AX	1.0	89.0	dot_pattern_expectancy	89.0	0.446	probe	AX	s555	False
19.303	0.5	19.302	0.5	AX	n/a	n/a	dot_pattern_expectancy	-1.0	n/a	cue	AX	s555	False
21.808	0.5	22.259	1.908	AX	1.0	89.0	dot_pattern_expectancy	89.0	0.451	probe	AX	s555	False
23.719	0.5	23.718	0.5	BX	n/a	n/a	dot_pattern_expectancy	-1.0	n/a	cue	BX	s555	False
26.222	0.5	26.688	1.636	BX	1.0	71.0	dot_pattern_expectancy	71.0	0.466	probe	BX	s555	False
27.861	0.5	27.86	0.5	AX	n/a	n/a	dot_pattern_expectancy	-1.0	n/a	cue	AX	s555	False
30.366	0.5	30.942	2.044	AX	1.0	89.0	dot_pattern_expectancy	89.0	0.576	probe	AX	s555	False
32.413	0.5	32.412	0.5	AX	n/a	n/a	dot_pattern_expectancy	-1.0	n/a	cue	AX	s555	False
34.917	0.5	35.373	1.772	AX	1.0	89.0	dot_pattern_expectancy	89.0	0.456	probe	AX	s555	False
36.692	0.5	36.691	0.5	AX	n/a	n/a	dot_pattern_expectancy	-1.0	n/a	cue	AX	s555	False
39.198	0.5	39.63	1.5	AX	1.0	89.0	dot_pattern_expectancy	89.0	0.432	probe	AX	s555	False
40.701	0.5	40.7	0.5	AX	n/a	n/a	dot_pattern_expectancy	-1.0	n/a	cue	AX	s555	False
43.206	0.5	43.615	2.18	AX	1.0	89.0	dot_pattern_expectancy	89.0	0.409	probe	AX	s555	False
45.39	0.5	45.389	0.5	AX	n/a	n/a	dot_pattern_expectancy	-1.0	n/a	cue	AX	s555	False
47.894	0.5	48.346	1.5	AX	1.0	89.0	dot_pattern_expectancy	89.0	0.452	probe	AX	s555	False
49.395	0.5	49.394	0.5	BX	n/a	n/a	dot_pattern_expectancy	-1.0	n/a	cue	BX	s555	False
51.899	0.5	52.33	3.676	BX	1.0	71.0	dot_pattern_expectancy	71.0	0.431	probe	BX	s555	False
55.577	0.5	55.576	0.5	BY	n/a	n/a	dot_pattern_expectancy	-1.0	n/a	cue	BY	s555	False
58.081	0.5	58.544	1.636	BY	1.0	71.0	dot_pattern_expectancy	71.0	0.463	probe	BY	s555	False
59.721	0.5	59.72	0.5	BY	n/a	n/a	dot_pattern_expectancy	-1.0	n/a	cue	BY	s555	False
62.226	0.5	62.637	1.636	BY	1.0	71.0	dot_pattern_expectancy	71.0	0.411	probe	BY	s555	False
63.865	0.5	63.864	0.5	BX	n/a	n/a	dot_pattern_expectancy	-1.0	n/a	cue	BX	s555	False
66.369	0.5	66.821	1.5	BX	1.0	71.0	dot_pattern_expectancy	71.0	0.452	probe	BX	s555	False
67.871	0.5	67.87	0.5	AX	n/a	n/a	dot_pattern_expectancy	-1.0	n/a	cue	AX	s555	False
70.376	0.5	70.899	1.908	AX	1.0	89.0	dot_pattern_expectancy	89.0	0.523	probe	AX	s555	False
72.287	0.5	72.286	0.5	AX	n/a	n/a	dot_pattern_expectancy	-1.0	n/a	cue	AX	s555	False
74.791	0.5	75.332	1.636	AX	1.0	89.0	dot_pattern_expectancy	89.0	0.541	probe	AX	s555	False
76.43	0.5	76.429	0.5	BX	n/a	n/a	dot_pattern_expectancy	-1.0	n/a	cue	BX	s555	False
78.934	0.5	79.326	1.5	BX	1.0	71.0	dot_pattern_expectancy	71.0	0.392	probe	BX	s555	False
80.436	0.5	80.435	0.5	AX	n/a	n/a	dot_pattern_expectancy	-1.0	n/a	cue	AX	s555	False
82.941	0.5	83.38	1.908	AX	1.0	89.0	dot_pattern_expectancy	89.0	0.439	probe	AX	s555	False
84.852	0.5	84.851	0.5	BY	n/a	n/a	dot_pattern_expectancy	-1.0	n/a	cue	BY	s555	False
87.356	0.5	88.06	2.18	BY	1.0	71.0	dot_pattern_expectancy	71.0	0.704	probe	BY	s555	False
89.539	0.5	89.538	0.5	AX	n/a	n/a	dot_pattern_expectancy	-1.0	n/a	cue	AX	s555	False
92.043	0.5	92.572	1.772	AX	1.0	89.0	dot_pattern_expectancy	89.0	0.529	probe	AX	s555	False
93.818	0.5	93.817	0.5	AX	n/a	n/a	dot_pattern_expectancy	-1.0	n/a	cue	AX	s555	False
96.322	0.5	96.833	1.5	AX	1.0	89.0	dot_pattern_expectancy	89.0	0.511	probe	AX	s555	False
97.825	0.5	97.824	0.5	AX	n/a	n/a	dot_pattern_expectancy	-1.0	n/a	cue	AX	s555	False
100.332	0.5	100.793	1.5	AX	1.0	89.0	dot_pattern_expectancy	89.0	0.461	probe	AX	s555	False
101.834	0.5	101.833	0.5	AX	n/a	n/a	dot_pattern_expectancy	-1.0	n/a	cue	AX	s555	False
104.339	0.5	104.763	2.044	AX	1.0	89.0	dot_pattern_expectancy	89.0	0.424	probe	AX	s555	False
106.384	0.5	106.383	0.5	AX	n/a	n/a	dot_pattern_expectancy	-1.0	n/a	cue	AX	s555	False
108.888	0.5	109.302	2.86	AX	1.0	89.0	dot_pattern_expectancy	89.0	0.414	probe	AX	s555	False
111.751	0.5	111.75	0.5	BX	n/a	n/a	dot_pattern_expectancy	-1.0	n/a	cue	BX	s555	False
114.256	0.5	114.899	1.5	BX	1.0	71.0	dot_pattern_expectancy	71.0	0.643	probe	BX	s555	False
115.76	0.5	115.759	0.5	BY	n/a	n/a	dot_pattern_expectancy	-1.0	n/a	cue	BY	s555	False
118.265	0.5	118.797	1.772	BY	1.0	71.0	dot_pattern_expectancy	71.0	0.532	probe	BY	s555	False
120.039	0.5	120.038	0.5	AX	n/a	n/a	dot_pattern_expectancy	-1.0	n/a	cue	AX	s555	False
122.543	0.5	123.036	1.772	AX	1.0	89.0	dot_pattern_expectancy	89.0	0.493	probe	AX	s555	False
124.318	0.5	124.317	0.5	AX	n/a	n/a	dot_pattern_expectancy	-1.0	n/a	cue	AX	s555	False
126.822	0.5	127.373	2.86	AX	1.0	89.0	dot_pattern_expectancy	89.0	0.551	probe	AX	s555	False
129.686	0.5	129.685	0.5	AX	n/a	n/a	dot_pattern_expectancy	-1.0	n/a	cue	AX	s555	False
132.189	0.5	132.671	1.772	AX	1.0	89.0	dot_pattern_expectancy	89.0	0.482	probe	AX	s555	False
133.964	0.5	133.963	0.5	BX	n/a	n/a	dot_pattern_expectancy	-1.0	n/a	cue	BX	s555	False
136.468	0.5	136.968	1.636	BX	1.0	71.0	dot_pattern_expectancy	71.0	0.5	probe	BX	s555	False
138.107	0.5	138.106	0.5	BX	n/a	n/a	dot_pattern_expectancy	-1.0	n/a	cue	BX	s555	False
140.61	0.5	141.032	2.452	BX	1.0	71.0	dot_pattern_expectancy	71.0	0.422	probe	BX	s555	False
143.064	0.5	143.063	0.5	AX	n/a	n/a	dot_pattern_expectancy	-1.0	n/a	cue	AX	s555	False
145.569	0.5	146.047	1.636	AX	1.0	89.0	dot_pattern_expectancy	89.0	0.478	probe	AX	s555	False
147.207	0.5	147.206	0.5	BX	n/a	n/a	dot_pattern_expectancy	-1.0	n/a	cue	BX	s555	False
149.711	0.5	150.224	1.5	BX	1.0	71.0	dot_pattern_expectancy	71.0	0.513	probe	BX	s555	False
151.214	0.5	151.213	0.5	AX	n/a	n/a	dot_pattern_expectancy	-1.0	n/a	cue	AX	s555	False
153.719	0.5	154.135	1.636	AX	1.0	89.0	dot_pattern_expectancy	89.0	0.416	probe	AX	s555	False
155.357	0.5	155.356	0.5	AX	n/a	n/a	dot_pattern_expectancy	-1.0	n/a	cue	AX	s555	False
157.861	0.5	158.296	1.636	AX	1.0	89.0	dot_pattern_expectancy	89.0	0.435	probe	AX	s555	False
159.5	0.5	159.499	0.5	BY	n/a	n/a	dot_pattern_expectancy	-1.0	n/a	cue	BY	s555	False
162.005	0.5	162.39	2.18	BY	1.0	71.0	dot_pattern_expectancy	71.0	0.385	probe	BY	s555	False
164.187	0.5	164.186	0.5	AX	n/a	n/a	dot_pattern_expectancy	-1.0	n/a	cue	AX	s555	False
166.692	0.5	167.098	1.5	AX	1.0	89.0	dot_pattern_expectancy	89.0	0.406	probe	AX	s555	False
168.195	0.5	168.194	0.5	AY	n/a	n/a	dot_pattern_expectancy	-1.0	n/a	cue	AY	s555	False
170.698	0.5	171.163	1.636	AY	1.0	71.0	dot_pattern_expectancy	71.0	0.465	probe	AY	s555	False
172.337	0.5	172.336	0.5	AX	n/a	n/a	dot_pattern_expectancy	-1.0	n/a	cue	AX	s555	False
174.84	0.5	175.3	1.636	AX	1.0	89.0	dot_pattern_expectancy	89.0	0.46	probe	AX	s555	False
186.985	0.5	186.984	0.5	AX	n/a	n/a	dot_pattern_expectancy	-1.0	n/a	cue	AX	s555	False
189.489	0.5	189.99	2.18	AX	1.0	89.0	dot_pattern_expectancy	89.0	0.501	probe	AX	s555	False
191.672	0.5	191.671	0.5	AY	n/a	n/a	dot_pattern_expectancy	-1.0	n/a	cue	AY	s555	False
194.177	0.5	194.627	2.316	AY	1.0	71.0	dot_pattern_expectancy	71.0	0.45	probe	AY	s555	False
196.494	0.5	196.493	0.5	AY	n/a	n/a	dot_pattern_expectancy	-1.0	n/a	cue	AY	s555	False
198.999	0.5	199.653	1.636	AY	1.0	71.0	dot_pattern_expectancy	71.0	0.654	probe	AY	s555	False
200.638	0.5	200.637	0.5	BX	n/a	n/a	dot_pattern_expectancy	-1.0	n/a	cue	BX	s555	False
203.143	0.5	203.582	1.908	BX	1.0	71.0	dot_pattern_expectancy	71.0	0.439	probe	BX	s555	False
205.054	0.5	205.053	0.5	AX	n/a	n/a	dot_pattern_expectancy	-1.0	n/a	cue	AX	s555	False
207.558	0.5	208.059	3.54	AX	1.0	89.0	dot_pattern_expectancy	89.0	0.501	probe	AX	s555	False
211.101	0.5	211.1	0.5	BX	n/a	n/a	dot_pattern_expectancy	-1.0	n/a	cue	BX	s555	False
213.604	0.5	214.188	1.636	BX	1.0	71.0	dot_pattern_expectancy	71.0	0.584	probe	BX	s555	False
215.242	0.5	215.241	0.5	BY	n/a	n/a	dot_pattern_expectancy	-1.0	n/a	cue	BY	s555	False
217.746	0.5	218.188	1.5	BY	1.0	71.0	dot_pattern_expectancy	71.0	0.442	probe	BY	s555	False
219.247	0.5	219.246	0.5	AX	n/a	n/a	dot_pattern_expectancy	-1.0	n/a	cue	AX	s555	False
221.751	0.5	222.153	1.5	AX	1.0	89.0	dot_pattern_expectancy	89.0	0.402	probe	AX	s555	False
223.254	0.5	223.253	0.5	AX	n/a	n/a	dot_pattern_expectancy	-1.0	n/a	cue	AX	s555	False
225.759	0.5	226.248	1.772	AX	1.0	89.0	dot_pattern_expectancy	89.0	0.489	probe	AX	s555	False
227.534	0.5	227.533	0.5	BY	n/a	n/a	dot_pattern_expectancy	-1.0	n/a	cue	BY	s555	False
230.037	0.5	230.631	2.452	BY	1.0	71.0	dot_pattern_expectancy	71.0	0.594	probe	BY	s555	False
232.493	0.5	232.492	0.5	AX	n/a	n/a	dot_pattern_expectancy	-1.0	n/a	cue	AX	s555	False
234.997	0.5	235.483	1.908	AX	1.0	89.0	dot_pattern_expectancy	89.0	0.486	probe	AX	s555	False
236.907	0.5	236.906	0.5	BX	n/a	n/a	dot_pattern_expectancy	-1.0	n/a	cue	BX	s555	False
239.412	0.5	239.893	1.636	BX	1.0	71.0	dot_pattern_expectancy	71.0	0.481	probe	BX	s555	False
241.051	0.5	241.05	0.5	AX	n/a	n/a	dot_pattern_expectancy	-1.0	n/a	cue	AX	s555	False
243.555	0.5	243.976	1.5	AX	1.0	89.0	dot_pattern_expectancy	89.0	0.421	probe	AX	s555	False
245.058	0.5	245.057	0.5	AX	n/a	n/a	dot_pattern_expectancy	-1.0	n/a	cue	AX	s555	False
247.562	0.5	248.034	1.636	AX	1.0	89.0	dot_pattern_expectancy	89.0	0.472	probe	AX	s555	False
249.201	0.5	249.2	0.5	AX	n/a	n/a	dot_pattern_expectancy	-1.0	n/a	cue	AX	s555	False
251.705	0.5	252.205	1.636	AX	1.0	89.0	dot_pattern_expectancy	89.0	0.5	probe	AX	s555	False
253.344	0.5	253.343	0.5	BY	n/a	n/a	dot_pattern_expectancy	-1.0	n/a	cue	BY	s555	False
255.849	0.5	256.245	2.452	BY	1.0	71.0	dot_pattern_expectancy	71.0	0.396	probe	BY	s555	False
258.304	0.5	258.303	0.5	AX	n/a	n/a	dot_pattern_expectancy	-1.0	n/a	cue	AX	s555	False
260.809	0.5	261.298	1.5	AX	1.0	89.0	dot_pattern_expectancy	89.0	0.489	probe	AX	s555	False
262.311	0.5	262.31	0.5	BY	n/a	n/a	dot_pattern_expectancy	-1.0	n/a	cue	BY	s555	False
264.814	0.5	265.302	1.5	BY	1.0	71.0	dot_pattern_expectancy	71.0	0.488	probe	BY	s555	False
266.316	0.5	266.315	0.5	AX	n/a	n/a	dot_pattern_expectancy	-1.0	n/a	cue	AX	s555	False
268.821	0.5	269.341	1.636	AX	1.0	89.0	dot_pattern_expectancy	89.0	0.52	probe	AX	s555	False
270.46	0.5	270.459	0.5	AX	n/a	n/a	dot_pattern_expectancy	-1.0	n/a	cue	AX	s555	False
272.964	0.5	273.452	1.636	AX	1.0	89.0	dot_pattern_expectancy	89.0	0.488	probe	AX	s555	False
274.603	0.5	274.602	0.5	AY	n/a	n/a	dot_pattern_expectancy	-1.0	n/a	cue	AY	s555	False
277.108	0.5	277.677	1.636	AY	1.0	71.0	dot_pattern_expectancy	71.0	0.569	probe	AY	s555	False
278.747	0.5	278.746	0.5	AX	n/a	n/a	dot_pattern_expectancy	-1.0	n/a	cue	AX	s555	False
281.251	0.5	281.725	1.5	AX	1.0	89.0	dot_pattern_expectancy	89.0	0.474	probe	AX	s555	False
282.754	0.5	282.753	0.5	AX	n/a	n/a	dot_pattern_expectancy	-1.0	n/a	cue	AX	s555	False
285.258	0.5	285.755	1.5	AX	1.0	89.0	dot_pattern_expectancy	89.0	0.497	probe	AX	s555	False
286.76	0.5	286.759	0.5	AX	n/a	n/a	dot_pattern_expectancy	-1.0	n/a	cue	AX	s555	False
289.263	0.5	289.873	1.772	AX	1.0	89.0	dot_pattern_expectancy	89.0	0.61	probe	AX	s555	False
291.037	0.5	291.036	0.5	AX	n/a	n/a	dot_pattern_expectancy	-1.0	n/a	cue	AX	s555	False
293.542	0.5	293.912	2.18	AX	1.0	89.0	dot_pattern_expectancy	89.0	0.37	probe	AX	s555	False
295.725	0.5	295.724	0.5	BX	n/a	n/a	dot_pattern_expectancy	-1.0	n/a	cue	BX	s555	False
298.229	0.5	298.574	1.772	BX	1.0	71.0	dot_pattern_expectancy	71.0	0.345	probe	BX	s555	False
300.003	0.5	300.002	0.5	BY	n/a	n/a	dot_pattern_expectancy	-1.0	n/a	cue	BY	s555	False
302.507	0.5	303.002	1.5	BY	1.0	71.0	dot_pattern_expectancy	71.0	0.495	probe	BY	s555	False
304.008	0.5	304.007	0.5	AX	n/a	n/a	dot_pattern_expectancy	-1.0	n/a	cue	AX	s555	False
306.512	0.5	306.939	1.5	AX	1.0	89.0	dot_pattern_expectancy	89.0	0.427	probe	AX	s555	False
308.014	0.5	308.013	0.5	AX	n/a	n/a	dot_pattern_expectancy	-1.0	n/a	cue	AX	s555	False
310.518	0.5	310.969	1.636	AX	1.0	89.0	dot_pattern_expectancy	89.0	0.451	probe	AX	s555	False
312.157	0.5	312.156	0.5	AY	n/a	n/a	dot_pattern_expectancy	-1.0	n/a	cue	AY	s555	False
314.662	0.5	315.366	2.18	AY	1.0	71.0	dot_pattern_expectancy	71.0	0.704	probe	AY	s555	False
316.845	0.5	316.844	0.5	AY	n/a	n/a	dot_pattern_expectancy	-1.0	n/a	cue	AY	s555	False
319.349	0.5	320.104	2.316	AY	1.0	71.0	dot_pattern_expectancy	71.0	0.755	probe	AY	s555	False
321.668	0.5	321.667	0.5	BX	n/a	n/a	dot_pattern_expectancy	-1.0	n/a	cue	BX	s555	False
324.172	0.5	324.698	1.636	BX	1.0	71.0	dot_pattern_expectancy	71.0	0.526	probe	BX	s555	False
325.811	0.5	325.81	0.5	BX	n/a	n/a	dot_pattern_expectancy	-1.0	n/a	cue	BX	s555	False
328.316	0.5	328.797	2.18	BX	1.0	71.0	dot_pattern_expectancy	71.0	0.481	probe	BX	s555	False
330.499	0.5	330.498	0.5	AY	n/a	n/a	dot_pattern_expectancy	-1.0	n/a	cue	AY	s555	False
333.003	0.5	333.705	2.044	AY	1.0	71.0	dot_pattern_expectancy	71.0	0.702	probe	AY	s555	False
335.049	0.5	335.048	0.5	AX	n/a	n/a	dot_pattern_expectancy	-1.0	n/a	cue	AX	s555	False
337.552	0.5	338.095	1.772	AX	1.0	89.0	dot_pattern_expectancy	89.0	0.543	probe	AX	s555	False
339.327	0.5	339.326	0.5	AX	n/a	n/a	dot_pattern_expectancy	-1.0	n/a	cue	AX	s555	False
341.831	0.5	342.295	1.5	AX	1.0	89.0	dot_pattern_expectancy	89.0	0.464	probe	AX	s555	False
343.333	0.5	343.332	0.5	AX	n/a	n/a	dot_pattern_expectancy	-1.0	n/a	cue	AX	s555	False
345.837	0.5	346.384	2.18	AX	1.0	89.0	dot_pattern_expectancy	89.0	0.547	probe	AX	s555	False
348.021	0.5	348.02	0.5	AY	n/a	n/a	dot_pattern_expectancy	-1.0	n/a	cue	AY	s555	False
350.525	0.5	351.77	2.452	AY	1.0	71.0	dot_pattern_expectancy	71.0	1.245	probe	AY	s555	False
352.98	0.5	352.979	0.5	AX	n/a	n/a	dot_pattern_expectancy	-1.0	n/a	cue	AX	s555	False
355.482	0.5	356.044	1.636	AX	1.0	89.0	dot_pattern_expectancy	89.0	0.562	probe	AX	s555	False
357.121	0.5	357.12	0.5	AX	n/a	n/a	dot_pattern_expectancy	-1.0	n/a	cue	AX	s555	False
359.626	0.5	360.12	1.908	AX	1.0	89.0	dot_pattern_expectancy	89.0	0.494	probe	AX	s555	False
372.046	0.5	372.045	0.5	AX	n/a	n/a	dot_pattern_expectancy	-1.0	n/a	cue	AX	s555	False
374.55	0.5	374.947	1.772	AX	1.0	89.0	dot_pattern_expectancy	89.0	0.397	probe	AX	s555	False
376.325	0.5	376.324	0.5	AX	n/a	n/a	dot_pattern_expectancy	-1.0	n/a	cue	AX	s555	False
378.83	0.5	379.389	1.5	AX	1.0	89.0	dot_pattern_expectancy	89.0	0.559	probe	AX	s555	False
380.331	0.5	380.33	0.5	AY	n/a	n/a	dot_pattern_expectancy	-1.0	n/a	cue	AY	s555	False
382.836	0.5	383.444	2.452	AY	1.0	71.0	dot_pattern_expectancy	71.0	0.608	probe	AY	s555	False
385.291	0.5	385.29	0.5	AY	n/a	n/a	dot_pattern_expectancy	-1.0	n/a	cue	AY	s555	False
387.794	0.5	388.391	1.772	AY	1.0	71.0	dot_pattern_expectancy	71.0	0.597	probe	AY	s555	False
389.569	0.5	389.568	0.5	AX	n/a	n/a	dot_pattern_expectancy	-1.0	n/a	cue	AX	s555	False
392.073	0.5	392.48	1.908	AX	1.0	89.0	dot_pattern_expectancy	89.0	0.407	probe	AX	s555	False
393.985	0.5	393.984	0.5	AX	n/a	n/a	dot_pattern_expectancy	-1.0	n/a	cue	AX	s555	False
396.489	0.5	397.094	1.908	AX	1.0	89.0	dot_pattern_expectancy	89.0	0.605	probe	AX	s555	False
398.4	0.5	398.399	0.5	AX	n/a	n/a	dot_pattern_expectancy	-1.0	n/a	cue	AX	s555	False
400.904	0.5	401.378	2.588	AX	1.0	89.0	dot_pattern_expectancy	89.0	0.474	probe	AX	s555	False
403.495	0.5	403.494	0.5	AY	n/a	n/a	dot_pattern_expectancy	-1.0	n/a	cue	AY	s555	False
405.999	0.5	406.609	1.5	AY	1.0	71.0	dot_pattern_expectancy	71.0	0.61	probe	AY	s555	False
407.5	0.5	407.499	0.5	BY	n/a	n/a	dot_pattern_expectancy	-1.0	n/a	cue	BY	s555	False
410.005	0.5	410.53	1.5	BY	1.0	71.0	dot_pattern_expectancy	71.0	0.525	probe	BY	s555	False
411.507	0.5	411.506	0.5	BY	n/a	n/a	dot_pattern_expectancy	-1.0	n/a	cue	BY	s555	False
414.011	0.5	414.457	1.5	BY	1.0	71.0	dot_pattern_expectancy	71.0	0.446	probe	BY	s555	False
415.514	0.5	415.513	0.5	AX	n/a	n/a	dot_pattern_expectancy	-1.0	n/a	cue	AX	s555	False
418.018	0.5	418.508	1.636	AX	1.0	89.0	dot_pattern_expectancy	89.0	0.49	probe	AX	s555	False
419.656	0.5	419.655	0.5	BX	n/a	n/a	dot_pattern_expectancy	-1.0	n/a	cue	BX	s555	False
422.16	0.5	422.963	2.044	BX	1.0	71.0	dot_pattern_expectancy	71.0	0.803	probe	BX	s555	False
424.205	0.5	424.204	0.5	AX	n/a	n/a	dot_pattern_expectancy	-1.0	n/a	cue	AX	s555	False
426.709	0.5	427.301	1.772	AX	1.0	89.0	dot_pattern_expectancy	89.0	0.592	probe	AX	s555	False
428.483	0.5	428.482	0.5	BX	n/a	n/a	dot_pattern_expectancy	-1.0	n/a	cue	BX	s555	False
430.987	0.5	431.651	2.588	BX	1.0	71.0	dot_pattern_expectancy	71.0	0.664	probe	BX	s555	False
433.576	0.5	433.575	0.5	AY	n/a	n/a	dot_pattern_expectancy	-1.0	n/a	cue	AY	s555	False
436.08	0.5	436.673	1.5	AY	1.0	71.0	dot_pattern_expectancy	71.0	0.593	probe	AY	s555	False
437.582	0.5	437.581	0.5	AX	n/a	n/a	dot_pattern_expectancy	-1.0	n/a	cue	AX	s555	False
440.086	0.5	440.465	2.452	AX	1.0	89.0	dot_pattern_expectancy	89.0	0.379	probe	AX	s555	False
442.542	0.5	442.541	0.5	BY	n/a	n/a	dot_pattern_expectancy	-1.0	n/a	cue	BY	s555	False
445.046	0.5	445.703	1.636	BY	1.0	71.0	dot_pattern_expectancy	71.0	0.657	probe	BY	s555	False
446.685	0.5	446.684	0.5	AX	n/a	n/a	dot_pattern_expectancy	-1.0	n/a	cue	AX	s555	False
449.19	0.5	449.668	1.636	AX	1.0	89.0	dot_pattern_expectancy	89.0	0.478	probe	AX	s555	False
450.829	0.5	450.828	0.5	AX	n/a	n/a	dot_pattern_expectancy	-1.0	n/a	cue	AX	s555	False
453.333	0.5	453.919	1.5	AX	1.0	89.0	dot_pattern_expectancy	89.0	0.586	probe	AX	s555	False
454.835	0.5	454.834	0.5	BY	n/a	n/a	dot_pattern_expectancy	-1.0	n/a	cue	BY	s555	False
457.34	0.5	457.703	1.636	BY	1.0	71.0	dot_pattern_expectancy	71.0	0.363	probe	BY	s555	False
458.979	0.5	458.978	0.5	AX	n/a	n/a	dot_pattern_expectancy	-1.0	n/a	cue	AX	s555	False
461.484	0.5	462.015	1.5	AX	1.0	89.0	dot_pattern_expectancy	89.0	0.531	probe	AX	s555	False
462.985	0.5	462.984	0.5	AY	n/a	n/a	dot_pattern_expectancy	-1.0	n/a	cue	AY	s555	False
465.49	0.5	466.171	2.18	AY	1.0	71.0	dot_pattern_expectancy	71.0	0.681	probe	AY	s555	False
467.672	0.5	467.671	0.5	AX	n/a	n/a	dot_pattern_expectancy	-1.0	n/a	cue	AX	s555	False
470.176	0.5	470.76	1.5	AX	1.0	89.0	dot_pattern_expectancy	89.0	0.584	probe	AX	s555	False
471.679	0.5	471.678	0.5	AX	n/a	n/a	dot_pattern_expectancy	-1.0	n/a	cue	AX	s555	False
474.183	0.5	474.689	1.908	AX	1.0	89.0	dot_pattern_expectancy	89.0	0.506	probe	AX	s555	False
476.095	0.5	476.094	0.5	BY	n/a	n/a	dot_pattern_expectancy	-1.0	n/a	cue	BY	s555	False
478.6	0.5	479.026	1.636	BY	1.0	71.0	dot_pattern_expectancy	71.0	0.426	probe	BY	s555	False
480.239	0.5	480.238	0.5	BY	n/a	n/a	dot_pattern_expectancy	-1.0	n/a	cue	BY	s555	False
482.743	0.5	483.168	1.636	BY	1.0	71.0	dot_pattern_expectancy	71.0	0.425	probe	BY	s555	False
484.382	0.5	484.381	0.5	AX	n/a	n/a	dot_pattern_expectancy	-1.0	n/a	cue	AX	s555	False
486.885	0.5	487.339	1.636	AX	1.0	89.0	dot_pattern_expectancy	89.0	0.454	probe	AX	s555	False
488.523	0.5	488.522	0.5	AX	n/a	n/a	dot_pattern_expectancy	-1.0	n/a	cue	AX	s555	False
491.026	0.5	491.546	1.5	AX	1.0	89.0	dot_pattern_expectancy	89.0	0.52	probe	AX	s555	False
492.528	0.5	492.527	0.5	BY	n/a	n/a	dot_pattern_expectancy	-1.0	n/a	cue	BY	s555	False
495.034	0.5	495.629	2.044	BY	1.0	71.0	dot_pattern_expectancy	71.0	0.595	probe	BY	s555	False
497.081	0.5	497.08	0.5	AY	n/a	n/a	dot_pattern_expectancy	-1.0	n/a	cue	AY	s555	False
499.584	0.5	500.179	2.18	AY	1.0	71.0	dot_pattern_expectancy	71.0	0.595	probe	AY	s555	False
501.766	0.5	501.765	0.5	AY	n/a	n/a	dot_pattern_expectancy	-1.0	n/a	cue	AY	s555	False
504.269	0.5	504.817	1.636	AY	1.0	71.0	dot_pattern_expectancy	71.0	0.548	probe	AY	s555	False
505.908	0.5	505.907	0.5	AY	n/a	n/a	dot_pattern_expectancy	-1.0	n/a	cue	AY	s555	False
508.412	0.5	508.93	1.772	AY	1.0	71.0	dot_pattern_expectancy	71.0	0.518	probe	AY	s555	False
510.187	0.5	510.186	0.5	BY	n/a	n/a	dot_pattern_expectancy	-1.0	n/a	cue	BY	s555	False
512.691	0.5	513.245	1.5	BY	1.0	71.0	dot_pattern_expectancy	71.0	0.554	probe	BY	s555	False
514.193	0.5	514.192	0.5	BX	n/a	n/a	dot_pattern_expectancy	-1.0	n/a	cue	BX	s555	False
516.698	0.5	517.556	1.908	BX	1.0	71.0	dot_pattern_expectancy	71.0	0.858	probe	BX	s555	False
518.609	0.5	518.608	0.5	AX	n/a	n/a	dot_pattern_expectancy	-1.0	n/a	cue	AX	s555	False
521.113	0.5	521.673	2.044	AX	1.0	89.0	dot_pattern_expectancy	89.0	0.56	probe	AX	s555	False
523.159	0.5	523.158	0.5	AX	n/a	n/a	dot_pattern_expectancy	-1.0	n/a	cue	AX	s555	False
525.663	0.5	526.11	1.636	AX	1.0	89.0	dot_pattern_expectancy	89.0	0.447	probe	AX	s555	False
527.301	0.5	527.3	0.5	AX	n/a	n/a	dot_pattern_expectancy	-1.0	n/a	cue	AX	s555	False
529.805	0.5	530.333	1.772	AX	1.0	89.0	dot_pattern_expectancy	89.0	0.528	probe	AX	s555	False
531.58	0.5	531.579	0.5	AX	n/a	n/a	dot_pattern_expectancy	-1.0	n/a	cue	AX	s555	False
534.085	0.5	534.552	1.636	AX	1.0	89.0	dot_pattern_expectancy	89.0	0.467	probe	AX	s555	False
535.724	0.5	535.723	0.5	BX	n/a	n/a	dot_pattern_expectancy	-1.0	n/a	cue	BX	s555	False
538.229	0.5	538.774	1.772	BX	1.0	71.0	dot_pattern_expectancy	71.0	0.545	probe	BX	s555	False
540.004	0.5	540.003	0.5	AX	n/a	n/a	dot_pattern_expectancy	-1.0	n/a	cue	AX	s555	False
542.508	0.5	542.988	1.5	AX	1.0	89.0	dot_pattern_expectancy	89.0	0.48	probe	AX	s555	False
554.518	0.5	554.517	0.5	BY	n/a	n/a	dot_pattern_expectancy	-1.0	n/a	cue	BY	s555	False
557.021	0.5	557.46	1.636	BY	1.0	71.0	dot_pattern_expectancy	71.0	0.439	probe	BY	s555	False
558.66	0.5	558.659	0.5	AY	n/a	n/a	dot_pattern_expectancy	-1.0	n/a	cue	AY	s555	False
561.164	0.5	561.848	1.5	AY	1.0	71.0	dot_pattern_expectancy	71.0	0.684	probe	AY	s555	False
562.667	0.5	562.666	0.5	AX	n/a	n/a	dot_pattern_expectancy	-1.0	n/a	cue	AX	s555	False
565.172	0.5	565.613	2.044	AX	1.0	89.0	dot_pattern_expectancy	89.0	0.441	probe	AX	s555	False
567.219	0.5	567.218	0.5	BY	n/a	n/a	dot_pattern_expectancy	-1.0	n/a	cue	BY	s555	False
569.723	0.5	570.17	1.772	BY	1.0	71.0	dot_pattern_expectancy	71.0	0.447	probe	BY	s555	False
571.498	0.5	571.497	0.5	BX	n/a	n/a	dot_pattern_expectancy	-1.0	n/a	cue	BX	s555	False
574.003	0.5	574.507	1.636	BX	1.0	71.0	dot_pattern_expectancy	71.0	0.504	probe	BX	s555	False
575.641	0.5	575.64	0.5	AX	n/a	n/a	dot_pattern_expectancy	-1.0	n/a	cue	AX	s555	False
578.145	0.5	578.618	1.636	AX	1.0	89.0	dot_pattern_expectancy	89.0	0.473	probe	AX	s555	False
579.784	0.5	579.783	0.5	AX	n/a	n/a	dot_pattern_expectancy	-1.0	n/a	cue	AX	s555	False
582.289	0.5	582.746	1.5	AX	1.0	89.0	dot_pattern_expectancy	89.0	0.457	probe	AX	s555	False
583.79	0.5	583.789	0.5	AX	n/a	n/a	dot_pattern_expectancy	-1.0	n/a	cue	AX	s555	False
586.294	0.5	586.718	1.5	AX	1.0	89.0	dot_pattern_expectancy	89.0	0.424	probe	AX	s555	False
587.796	0.5	587.795	0.5	AY	n/a	n/a	dot_pattern_expectancy	-1.0	n/a	cue	AY	s555	False
590.3	0.5	590.708	2.044	AY	1.0	71.0	dot_pattern_expectancy	71.0	0.408	probe	AY	s555	False
592.345	0.5	592.344	0.5	AX	n/a	n/a	dot_pattern_expectancy	-1.0	n/a	cue	AX	s555	False
594.85	0.5	595.407	2.452	AX	1.0	89.0	dot_pattern_expectancy	89.0	0.557	probe	AX	s555	False
597.306	0.5	597.305	0.5	AX	n/a	n/a	dot_pattern_expectancy	-1.0	n/a	cue	AX	s555	False
599.81	0.5	600.308	1.908	AX	1.0	89.0	dot_pattern_expectancy	89.0	0.498	probe	AX	s555	False
601.722	0.5	601.721	0.5	AX	n/a	n/a	dot_pattern_expectancy	-1.0	n/a	cue	AX	s555	False
604.225	0.5	604.612	1.5	AX	1.0	89.0	dot_pattern_expectancy	89.0	0.387	probe	AX	s555	False
605.727	0.5	605.726	0.5	AX	n/a	n/a	dot_pattern_expectancy	-1.0	n/a	cue	AX	s555	False
608.232	0.5	608.749	1.908	AX	1.0	89.0	dot_pattern_expectancy	89.0	0.517	probe	AX	s555	False
610.143	0.5	610.142	0.5	BX	n/a	n/a	dot_pattern_expectancy	-1.0	n/a	cue	BX	s555	False
612.647	0.5	613.17	2.18	BX	1.0	71.0	dot_pattern_expectancy	71.0	0.523	probe	BX	s555	False
614.831	0.5	614.83	0.5	AX	n/a	n/a	dot_pattern_expectancy	-1.0	n/a	cue	AX	s555	False
617.335	0.5	617.75	1.5	AX	1.0	89.0	dot_pattern_expectancy	89.0	0.415	probe	AX	s555	False
618.837	0.5	618.836	0.5	BY	n/a	n/a	dot_pattern_expectancy	-1.0	n/a	cue	BY	s555	False
621.342	0.5	621.762	1.908	BY	1.0	71.0	dot_pattern_expectancy	71.0	0.42	probe	BY	s555	False
623.253	0.5	623.252	0.5	BX	n/a	n/a	dot_pattern_expectancy	-1.0	n/a	cue	BX	s555	False
625.757	0.5	626.276	2.316	BX	1.0	71.0	dot_pattern_expectancy	71.0	0.519	probe	BX	s555	False
628.075	0.5	628.074	0.5	AY	n/a	n/a	dot_pattern_expectancy	-1.0	n/a	cue	AY	s555	False
630.579	0.5	631.259	2.316	AY	1.0	71.0	dot_pattern_expectancy	71.0	0.68	probe	AY	s555	False
632.896	0.5	632.895	0.5	BX	n/a	n/a	dot_pattern_expectancy	-1.0	n/a	cue	BX	s555	False
635.401	0.5	635.883	1.636	BX	1.0	71.0	dot_pattern_expectancy	71.0	0.482	probe	BX	s555	False
637.04	0.5	637.039	0.5	AY	n/a	n/a	dot_pattern_expectancy	-1.0	n/a	cue	AY	s555	False
639.544	0.5	640.175	1.5	AY	1.0	71.0	dot_pattern_expectancy	71.0	0.631	probe	AY	s555	False
641.046	0.5	641.045	0.5	BY	n/a	n/a	dot_pattern_expectancy	-1.0	n/a	cue	BY	s555	False
643.551	0.5	644.219	1.908	BY	1.0	71.0	dot_pattern_expectancy	71.0	0.668	probe	BY	s555	False
645.462	0.5	645.461	0.5	AX	n/a	n/a	dot_pattern_expectancy	-1.0	n/a	cue	AX	s555	False
647.966	0.5	648.558	1.5	AX	1.0	89.0	dot_pattern_expectancy	89.0	0.592	probe	AX	s555	False
649.468	0.5	649.467	0.5	AY	n/a	n/a	dot_pattern_expectancy	-1.0	n/a	cue	AY	s555	False
651.972	0.5	652.622	2.316	AY	1.0	71.0	dot_pattern_expectancy	71.0	0.65	probe	AY	s555	False
654.289	0.5	654.288	0.5	AX	n/a	n/a	dot_pattern_expectancy	-1.0	n/a	cue	AX	s555	False
656.793	0.5	657.341	1.5	AX	1.0	89.0	dot_pattern_expectancy	89.0	0.548	probe	AX	s555	False
658.296	0.5	658.295	0.5	AY	n/a	n/a	dot_pattern_expectancy	-1.0	n/a	cue	AY	s555	False
660.8	0.5	661.347	2.724	AY	1.0	71.0	dot_pattern_expectancy	71.0	0.547	probe	AY	s555	False
663.528	0.5	663.527	0.5	AX	n/a	n/a	dot_pattern_expectancy	-1.0	n/a	cue	AX	s555	False
666.032	0.5	666.585	1.5	AX	1.0	89.0	dot_pattern_expectancy	89.0	0.553	probe	AX	s555	False
667.535	0.5	667.534	0.5	AX	n/a	n/a	dot_pattern_expectancy	-1.0	n/a	cue	AX	s555	False
670.039	0.5	670.548	1.636	AX	1.0	89.0	dot_pattern_expectancy	89.0	0.509	probe	AX	s555	False
671.677	0.5	671.676	0.5	AX	n/a	n/a	dot_pattern_expectancy	-1.0	n/a	cue	AX	s555	False
674.181	0.5	674.708	1.636	AX	1.0	89.0	dot_pattern_expectancy	89.0	0.527	probe	AX	s555	False
675.82	0.5	675.819	0.5	AX	n/a	n/a	dot_pattern_expectancy	-1.0	n/a	cue	AX	s555	False
678.325	0.5	678.823	1.772	AX	1.0	89.0	dot_pattern_expectancy	89.0	0.498	probe	AX	s555	False
680.098	0.5	680.097	0.5	BY	n/a	n/a	dot_pattern_expectancy	-1.0	n/a	cue	BY	s555	False
682.602	0.5	683.097	1.772	BY	1.0	71.0	dot_pattern_expectancy	71.0	0.495	probe	BY	s555	False
684.376	0.5	684.375	0.5	AX	n/a	n/a	dot_pattern_expectancy	-1.0	n/a	cue	AX	s555	False
686.88	0.5	687.332	1.5	AX	1.0	89.0	dot_pattern_expectancy	89.0	0.452	probe	AX	s555	False
688.381	0.5	688.38	0.5	BY	n/a	n/a	dot_pattern_expectancy	-1.0	n/a	cue	BY	s555	False
690.886	0.5	691.447	2.452	BY	1.0	71.0	dot_pattern_expectancy	71.0	0.561	probe	BY	s555	False
693.341	0.5	693.34	0.5	AX	n/a	n/a	dot_pattern_expectancy	-1.0	n/a	cue	AX	s555	False
695.846	0.5	696.225	1.636	AX	1.0	89.0	dot_pattern_expectancy	89.0	0.379	probe	AX	s555	False
697.484	0.5	697.483	0.5	AX	n/a	n/a	dot_pattern_expectancy	-1.0	n/a	cue	AX	s555	False
699.987	0.5	700.42	1.636	AX	1.0	89.0	dot_pattern_expectancy	89.0	0.433	probe	AX	s555	False
701.626	0.5	701.625	0.5	BX	n/a	n/a	dot_pattern_expectancy	-1.0	n/a	cue	BX	s555	False
704.13	0.5	704.509	1.5	BX	1.0	71.0	dot_pattern_expectancy	71.0	0.379	probe	BX	s555	False
705.633	0.5	705.632	0.5	BX	n/a	n/a	dot_pattern_expectancy	-1.0	n/a	cue	BX	s555	False
708.138	0.5	708.729	1.5	BX	1.0	71.0	dot_pattern_expectancy	71.0	0.591	probe	BX	s555	False
709.641	0.5	709.64	0.5	AX	n/a	n/a	dot_pattern_expectancy	-1.0	n/a	cue	AX	s555	False
712.145	0.5	712.636	2.316	AX	1.0	89.0	dot_pattern_expectancy	89.0	0.491	probe	AX	s555	False
714.462	0.5	714.461	0.5	AY	n/a	n/a	dot_pattern_expectancy	-1.0	n/a	cue	AY	s555	False
716.966	0.5	717.395	2.044	AY	1.0	71.0	dot_pattern_expectancy	71.0	0.429	probe	AY	s555	False
719.012	0.5	719.011	0.5	AX	n/a	n/a	dot_pattern_expectancy	-1.0	n/a	cue	AX	s555	False
721.516	0.5	721.924	3.948	AX	1.0	89.0	dot_pattern_expectancy	89.0	0.408	probe	AX	s555	False
725.468	0.5	725.467	0.5	AX	n/a	n/a	dot_pattern_expectancy	-1.0	n/a	cue	AX	s555	False
727.972	0.5	728.383	1.636	AX	1.0	89.0	dot_pattern_expectancy	89.0	0.411	probe	AX	s555	False
