onset	duration	movement_onset	EV	action	block_duration	experiment_exp_id	gain_amount	gain_probability	key_press	loss_amount	loss_probability	num_cards	num_click_in_round	num_loss_cards	risk	response_time	total_cards	trial_id	trial_type	worker_id	junk	feedback
3.009	3.958	6.967	-0.734070772914859	draw_card	3.958	columbia_card_task_fmri	12.0	0.8333333333333334	89.0	-70.0	0.1666666666666666	6.0	1.0	1.0	-2.1831661588399207	3.958	1.0	stim	poldrack-single-stim	s555	False	0
7.72	1.5	6.969	n/a	-1.0	2.454	columbia_card_task_fmri	n/a	n/a	-1.0	n/a	n/a	n/a	n/a	n/a	n/a	n/a	n/a	ITI	poldrack-single-stim	s555	False	0
9.425	1.808	11.233	0.0992625604184749	draw_card	1.808	columbia_card_task_fmri	14.0	0.8333333333333334	89.0	-75.0	0.1666666666666666	6.0	1.0	1.0	0.4244613111974047	1.808	n/a	stim	poldrack-single-stim	s555	False	1
11.234	2.385	13.619	-2.867404106248192	draw_card	2.385	columbia_card_task_fmri	14.0	0.8	89.0	-75.0	0.2	6.0	2.0	1.0	2.855224598521424	2.385	2.0	stim	poldrack-single-stim	s555	False	0
14.372	1.5	13.621	n/a	-1.0	2.454	columbia_card_task_fmri	n/a	n/a	-1.0	n/a	n/a	n/a	n/a	n/a	n/a	n/a	n/a	ITI	poldrack-single-stim	s555	False	0
16.077	3.157	19.234	1.765929227085141	draw_card	3.157	columbia_card_task_fmri	15.0	0.8333333333333334	89.0	-70.0	0.1666666666666666	6.0	1.0	1.0	-1.0656340722706936	3.157	n/a	stim	poldrack-single-stim	s555	False	1
19.236	1.857	21.093	-1.067404106248193	draw_card	1.857	columbia_card_task_fmri	15.0	0.8	89.0	-70.0	0.2	6.0	2.0	1.0	1.2557991301403175	1.857	n/a	stim	poldrack-single-stim	s555	False	1
21.095	2.043	23.138	-5.317404106248193	draw_card	2.043	columbia_card_task_fmri	15.0	0.75	89.0	-70.0	0.25	6.0	3.0	1.0	4.060904179013015	2.043	n/a	stim	poldrack-single-stim	s555	False	1
23.139	1.207	24.346	-12.400737439581524	end_round	1.207	columbia_card_task_fmri	15.0	0.6666666666666667	71.0	-70.0	0.3333333333333333	6.0	4.0	1.0	7.323246974084554	1.207	3.0	stim	poldrack-single-stim	s555	False	1
25.1	1.5	24.349	n/a	-1.0	2.522	columbia_card_task_fmri	n/a	n/a	-1.0	n/a	n/a	n/a	n/a	n/a	n/a	n/a	n/a	ITI	poldrack-single-stim	s555	False	0
26.872	4.182	31.054	2.5992625604184747	draw_card	4.182	columbia_card_task_fmri	17.0	0.8333333333333334	89.0	-75.0	0.1666666666666666	6.0	1.0	1.0	1.542068015033415	4.182	n/a	stim	poldrack-single-stim	s555	False	1
31.055	1.834	32.889	-0.4674041062481915	draw_card	1.834	columbia_card_task_fmri	17.0	0.8	89.0	-75.0	0.2	6.0	2.0	1.0	4.054826469186111	1.834	n/a	stim	poldrack-single-stim	s555	False	1
32.89	1.669	34.559	-5.067404106248193	draw_card	1.669	columbia_card_task_fmri	17.0	0.75	89.0	-75.0	0.25	6.0	3.0	1.0	7.091094517748601	1.669	n/a	stim	poldrack-single-stim	s555	False	1
34.561	2.879	37.44	-12.734070772914858	draw_card	2.879	columbia_card_task_fmri	17.0	0.6666666666666667	89.0	-75.0	0.3333333333333333	6.0	4.0	1.0	10.622253168762136	2.879	n/a	stim	poldrack-single-stim	s555	False	1
37.442	1.055	38.497	-28.067404106248198	end_round	1.055	columbia_card_task_fmri	17.0	0.5	71.0	-75.0	0.5	6.0	5.0	1.0	13.252463984068122	1.055	4.0	stim	poldrack-single-stim	s555	False	1
39.249	1.5	38.498	n/a	-1.0	2.386	columbia_card_task_fmri	n/a	n/a	-1.0	n/a	n/a	n/a	n/a	n/a	n/a	n/a	n/a	ITI	poldrack-single-stim	s555	False	0
40.886	4.551	45.437	3.932595893751807	draw_card	4.551	columbia_card_task_fmri	24.0	0.75	89.0	-60.0	0.25	8.0	1.0	2.0	3.6280320645854554	4.551	n/a	stim	poldrack-single-stim	s555	False	1
45.439	2.461	47.9	0.9325958937518072	draw_card	2.461	columbia_card_task_fmri	24.0	0.7142857142857143	89.0	-60.0	0.2857142857142857	8.0	2.0	2.0	5.2018012712293	2.461	n/a	stim	poldrack-single-stim	s555	False	1
47.901	2.752	50.653	-3.067404106248193	draw_card	2.752	columbia_card_task_fmri	24.0	0.6666666666666667	89.0	-60.0	0.3333333333333333	8.0	3.0	2.0	6.851971600952759	2.752	n/a	stim	poldrack-single-stim	s555	False	1
50.655	2.508	53.163	-8.667404106248194	end_round	2.508	columbia_card_task_fmri	24.0	0.6	71.0	-60.0	0.4	8.0	4.0	2.0	8.405005131233445	2.508	3.0	stim	poldrack-single-stim	s555	False	1
53.915	1.5	53.164	n/a	-1.0	2.454	columbia_card_task_fmri	n/a	n/a	-1.0	n/a	n/a	n/a	n/a	n/a	n/a	n/a	n/a	ITI	poldrack-single-stim	s555	False	0
55.621	4.17	59.791	3.932595893751807	draw_card	4.17	columbia_card_task_fmri	29.0	0.75	89.0	-75.0	0.25	8.0	1.0	2.0	12.285987847543794	4.17	n/a	stim	poldrack-single-stim	s555	False	1
59.792	2.143	61.935	0.2183101794660953	draw_card	2.143	columbia_card_task_fmri	29.0	0.7142857142857143	89.0	-75.0	0.2857142857142857	8.0	2.0	2.0	14.234677317373148	2.143	n/a	stim	poldrack-single-stim	s555	False	1
61.937	2.221	64.158	-4.7340707729148575	draw_card	2.221	columbia_card_task_fmri	29.0	0.6666666666666667	89.0	-75.0	0.3333333333333333	8.0	3.0	2.0	16.27795080155417	2.221	n/a	stim	poldrack-single-stim	s555	False	1
64.159	1.977	66.136	-11.667404106248194	draw_card	1.977	columbia_card_task_fmri	29.0	0.6	89.0	-75.0	0.4	8.0	4.0	2.0	18.2009325332598	1.977	4.0	stim	poldrack-single-stim	s555	False	0
66.889	1.5	66.138	n/a	-1.0	2.522	columbia_card_task_fmri	n/a	n/a	-1.0	n/a	n/a	n/a	n/a	n/a	n/a	n/a	n/a	ITI	poldrack-single-stim	s555	False	0
68.663	2.777	71.44	-0.2896263284704126	draw_card	2.777	columbia_card_task_fmri	17.0	0.7777777777777778	89.0	-65.0	0.2222222222222222	9.0	1.0	2.0	1.3464213272487484	2.777	n/a	stim	poldrack-single-stim	s555	False	1
71.441	1.462	72.903	-2.567404106248193	draw_card	1.462	columbia_card_task_fmri	17.0	0.75	89.0	-65.0	0.25	9.0	2.0	2.0	2.762298117403724	1.462	2.0	stim	poldrack-single-stim	s555	False	0
73.656	1.5	72.905	n/a	-1.0	2.522	columbia_card_task_fmri	n/a	n/a	-1.0	n/a	n/a	n/a	n/a	n/a	n/a	n/a	n/a	ITI	poldrack-single-stim	s555	False	0
75.429	1.999	77.428	4.032595893751807	draw_card	1.999	columbia_card_task_fmri	14.0	0.9	89.0	-95.0	0.1	10.0	1.0	1.0	-0.0436926883684165	1.999	n/a	stim	poldrack-single-stim	s555	False	1
77.429	1.729	79.158	2.8214847826406944	draw_card	1.729	columbia_card_task_fmri	14.0	0.8888888888888888	89.0	-95.0	0.1111111111111111	10.0	2.0	1.0	1.5110990019736334	1.729	n/a	stim	poldrack-single-stim	s555	False	1
79.159	1.849	81.008	1.307595893751807	draw_card	1.849	columbia_card_task_fmri	14.0	0.875	89.0	-95.0	0.125	10.0	3.0	1.0	3.303434356738314	1.849	n/a	stim	poldrack-single-stim	s555	False	1
81.01	1.62	82.63	-0.6388326776767641	draw_card	1.62	columbia_card_task_fmri	14.0	0.8571428571428572	89.0	-95.0	0.1428571428571428	10.0	4.0	1.0	5.396465437411074	1.62	4.0	stim	poldrack-single-stim	s555	False	0
83.382	1.5	82.631	n/a	-1.0	2.59	columbia_card_task_fmri	n/a	n/a	-1.0	n/a	n/a	n/a	n/a	n/a	n/a	n/a	n/a	ITI	poldrack-single-stim	s555	False	0
85.224	2.35	87.574	-0.0674041062481929	draw_card	2.35	columbia_card_task_fmri	15.0	0.8	89.0	-65.0	0.2	10.0	1.0	2.0	-0.743401960514106	2.35	n/a	stim	poldrack-single-stim	s555	False	1
87.575	1.881	89.456	-1.8451818840259695	draw_card	1.881	columbia_card_task_fmri	15.0	0.7777777777777778	89.0	-65.0	0.2222222222222222	10.0	2.0	2.0	0.5152606298126372	1.881	n/a	stim	poldrack-single-stim	s555	False	1
89.458	1.888	91.346	-4.067404106248193	draw_card	1.888	columbia_card_task_fmri	15.0	0.75	89.0	-65.0	0.25	10.0	3.0	2.0	1.89657873532569	1.888	n/a	stim	poldrack-single-stim	s555	False	1
91.347	1.726	93.073	-6.924546963391047	end_round	1.726	columbia_card_task_fmri	15.0	0.7142857142857143	71.0	-65.0	0.2857142857142857	10.0	4.0	2.0	3.3953581811210967	1.726	3.0	stim	poldrack-single-stim	s555	False	1
93.826	1.5	93.075	n/a	-1.0	2.454	columbia_card_task_fmri	n/a	n/a	-1.0	n/a	n/a	n/a	n/a	n/a	n/a	n/a	n/a	ITI	poldrack-single-stim	s555	False	0
95.532	1.992	97.524	1.5325958937518085	draw_card	1.992	columbia_card_task_fmri	17.0	0.8	89.0	-65.0	0.2	10.0	1.0	2.0	0.0562667914505254	1.992	n/a	stim	poldrack-single-stim	s555	False	1
97.526	2.247	99.773	-0.2896263284704126	draw_card	2.247	columbia_card_task_fmri	17.0	0.7777777777777778	89.0	-65.0	0.2222222222222222	10.0	2.0	2.0	1.3464213272487484	2.247	n/a	stim	poldrack-single-stim	s555	False	1
99.774	1.91	101.684	-2.567404106248193	draw_card	1.91	columbia_card_task_fmri	17.0	0.75	89.0	-65.0	0.25	10.0	3.0	2.0	2.762298117403724	1.91	3.0	stim	poldrack-single-stim	s555	False	0
102.437	1.5	101.686	n/a	-1.0	2.318	columbia_card_task_fmri	n/a	n/a	-1.0	n/a	n/a	n/a	n/a	n/a	n/a	n/a	n/a	ITI	poldrack-single-stim	s555	False	0
104.006	1.804	105.81	0.0992625604184749	draw_card	1.804	columbia_card_task_fmri	13.0	0.8333333333333334	89.0	-70.0	0.1666666666666666	12.0	1.0	2.0	-1.8106594919239465	1.804	1.0	stim	poldrack-single-stim	s555	False	0
106.564	1.5	105.813	n/a	-1.0	2.25	columbia_card_task_fmri	n/a	n/a	-1.0	n/a	n/a	n/a	n/a	n/a	n/a	n/a	n/a	ITI	poldrack-single-stim	s555	False	0
108.066	1.268	109.334	0.0992625604184749	draw_card	1.268	columbia_card_task_fmri	15.0	0.8333333333333334	89.0	-80.0	0.1666666666666666	12.0	1.0	2.0	2.6597016907827964	1.268	n/a	stim	poldrack-single-stim	s555	False	1
109.336	1.913	111.249	-1.340131378975468	draw_card	1.913	columbia_card_task_fmri	15.0	0.8181818181818181	89.0	-80.0	0.1818181818181818	12.0	2.0	2.0	3.8958654796855896	1.913	n/a	stim	poldrack-single-stim	s555	False	1
111.251	1.815	113.066	-3.067404106248193	draw_card	1.815	columbia_card_task_fmri	15.0	0.8	89.0	-80.0	0.2	12.0	3.0	2.0	5.254453473130653	1.815	n/a	stim	poldrack-single-stim	s555	False	1
113.068	1.562	114.63	-5.178515217359306	draw_card	1.562	columbia_card_task_fmri	15.0	0.7777777777777778	89.0	-80.0	0.2222222222222222	12.0	4.0	2.0	6.74929281736987	1.562	4.0	stim	poldrack-single-stim	s555	False	0
115.383	1.5	114.632	n/a	-1.0	2.658	columbia_card_task_fmri	n/a	n/a	-1.0	n/a	n/a	n/a	n/a	n/a	n/a	n/a	n/a	ITI	poldrack-single-stim	s555	False	0
117.293	2.112	119.405	-0.8674041062481919	draw_card	2.112	columbia_card_task_fmri	14.0	0.8	89.0	-65.0	0.2	15.0	1.0	3.0	-1.1432300510149531	2.112	n/a	stim	poldrack-single-stim	s555	False	1
119.408	1.488	120.896	-1.99597553481962	draw_card	1.488	columbia_card_task_fmri	14.0	0.7857142857142857	89.0	-65.0	0.2142857142857142	15.0	2.0	3.0	-0.3278297811781669	1.488	n/a	stim	poldrack-single-stim	s555	False	1
120.898	1.403	122.301	-3.298173337017425	draw_card	1.403	columbia_card_task_fmri	14.0	0.7692307692307692	89.0	-65.0	0.2307692307692307	15.0	3.0	3.0	0.5407523411713839	1.403	n/a	stim	poldrack-single-stim	s555	False	1
122.303	1.514	123.817	-4.817404106248193	draw_card	1.514	columbia_card_task_fmri	14.0	0.75	89.0	-65.0	0.25	15.0	4.0	3.0	1.463724851641544	1.514	4.0	stim	poldrack-single-stim	s555	False	0
124.569	1.5	123.818	n/a	-1.0	2.454	columbia_card_task_fmri	n/a	n/a	-1.0	n/a	n/a	n/a	n/a	n/a	n/a	n/a	n/a	ITI	poldrack-single-stim	s555	False	0
126.274	1.685	127.959	-0.9424041062481928	draw_card	1.685	columbia_card_task_fmri	1.0	0.9375	89.0	-45.0	0.0625	16.0	1.0	1.0	-21.58317509903165	1.685	n/a	stim	poldrack-single-stim	s555	False	1
127.961	1.394	129.355	-1.1340707729148594	draw_card	1.394	columbia_card_task_fmri	1.0	0.9333333333333332	89.0	-45.0	0.0666666666666666	16.0	2.0	1.0	-21.24473620015728	1.394	n/a	stim	poldrack-single-stim	s555	False	1
129.356	1.413	130.769	-1.3531183919624783	draw_card	1.413	columbia_card_task_fmri	1.0	0.9285714285714286	89.0	-45.0	0.0714285714285714	16.0	3.0	1.0	-20.8735264863606	1.413	n/a	stim	poldrack-single-stim	s555	False	1
130.771	1.542	132.313	-1.6058656447097313	draw_card	1.542	columbia_card_task_fmri	1.0	0.9230769230769232	89.0	-45.0	0.0769230769230769	16.0	4.0	1.0	-20.463972140664133	1.542	n/a	stim	poldrack-single-stim	s555	False	1
132.314	1.706	134.02	-1.9007374395815264	draw_card	1.706	columbia_card_task_fmri	1.0	0.9166666666666666	89.0	-45.0	0.0833333333333333	16.0	5.0	1.0	-20.009101646897225	1.706	n/a	stim	poldrack-single-stim	s555	False	1
134.023	1.62	135.643	-2.249222288066375	end_round	1.62	columbia_card_task_fmri	1.0	0.9090909090909092	71.0	-45.0	0.0909090909090909	16.0	6.0	1.0	-19.50007471141449	1.62	5.0	stim	poldrack-single-stim	s555	False	1
136.397	1.5	135.646	n/a	-1.0	2.386	columbia_card_task_fmri	n/a	n/a	-1.0	n/a	n/a	n/a	n/a	n/a	n/a	n/a	n/a	ITI	poldrack-single-stim	s555	False	0
138.035	1.796	139.831	-0.0049041062481929	draw_card	1.796	columbia_card_task_fmri	15.0	0.8125	89.0	-70.0	0.1875	16.0	1.0	3.0	0.4326682688045267	1.796	n/a	stim	poldrack-single-stim	s555	False	1
139.832	1.623	141.455	-1.067404106248193	draw_card	1.623	columbia_card_task_fmri	15.0	0.8	89.0	-70.0	0.2	16.0	2.0	3.0	1.2557991301403175	1.623	n/a	stim	poldrack-single-stim	s555	False	1
141.458	1.723	143.181	-2.2816898205339085	draw_card	1.723	columbia_card_task_fmri	15.0	0.7857142857142857	89.0	-70.0	0.2142857142857142	16.0	3.0	3.0	2.1331792221155297	1.723	n/a	stim	poldrack-single-stim	s555	False	1
143.183	2.133	145.316	-3.68278872163281	end_round	2.133	columbia_card_task_fmri	15.0	0.7692307692307692	71.0	-70.0	0.2307692307692307	16.0	4.0	3.0	3.067780869713808	2.133	3.0	stim	poldrack-single-stim	s555	False	1
146.069	1.5	145.318	n/a	-1.0	2.59	columbia_card_task_fmri	n/a	n/a	-1.0	n/a	n/a	n/a	n/a	n/a	n/a	n/a	n/a	ITI	poldrack-single-stim	s555	False	0
147.91	2.191	150.101	6.932595893751807	draw_card	2.191	columbia_card_task_fmri	30.0	0.7	89.0	-50.0	0.3	10.0	1.0	3.0	3.915476939042151	2.191	n/a	stim	poldrack-single-stim	s555	False	1
150.105	1.793	151.898	4.265929227085146	draw_card	1.793	columbia_card_task_fmri	30.0	0.6666666666666667	89.0	-50.0	0.3333333333333333	10.0	2.0	3.0	4.966902381065097	1.793	n/a	stim	poldrack-single-stim	s555	False	1
151.9	2.808	154.708	0.9325958937518072	end_round	2.808	columbia_card_task_fmri	30.0	0.625	71.0	-50.0	0.375	10.0	3.0	3.0	5.984071379714784	2.808	2.0	stim	poldrack-single-stim	s555	False	1
155.461	1.5	154.71	n/a	-1.0	2.318	columbia_card_task_fmri	n/a	n/a	-1.0	n/a	n/a	n/a	n/a	n/a	n/a	n/a	n/a	ITI	poldrack-single-stim	s555	False	0
157.032	1.558	158.59	6.332595893751807	draw_card	1.558	columbia_card_task_fmri	17.0	0.8666666666666667	89.0	-70.0	0.1333333333333333	15.0	1.0	2.0	-3.167974930290409	1.558	n/a	stim	poldrack-single-stim	s555	False	1
158.593	1.545	160.138	5.50402446518038	draw_card	1.545	columbia_card_task_fmri	17.0	0.8571428571428572	89.0	-70.0	0.1428571428571428	15.0	2.0	2.0	-2.2990494654246696	1.545	n/a	stim	poldrack-single-stim	s555	False	1
160.14	1.34	161.48	4.547980509136422	draw_card	1.34	columbia_card_task_fmri	17.0	0.8461538461538461	89.0	-70.0	0.1538461538461538	15.0	3.0	2.0	-1.3534324463157397	1.34	n/a	stim	poldrack-single-stim	s555	False	1
161.481	1.316	162.797	3.4325958937518086	draw_card	1.316	columbia_card_task_fmri	17.0	0.8333333333333334	89.0	-70.0	0.1666666666666666	15.0	4.0	2.0	-0.3205934635146406	1.316	n/a	stim	poldrack-single-stim	s555	False	1
162.8	1.123	163.923	2.1144140755699867	end_round	1.123	columbia_card_task_fmri	17.0	0.8181818181818181	71.0	-70.0	0.1818181818181818	15.0	5.0	2.0	0.8113993774076107	1.123	4.0	stim	poldrack-single-stim	s555	False	1
164.677	1.5	163.926	n/a	-1.0	2.59	columbia_card_task_fmri	n/a	n/a	-1.0	n/a	n/a	n/a	n/a	n/a	n/a	n/a	n/a	ITI	poldrack-single-stim	s555	False	0
166.519	1.713	168.232	1.557595893751807	draw_card	1.713	columbia_card_task_fmri	7.0	0.9375	89.0	-95.0	0.0625	16.0	1.0	1.0	-8.049113219939144	1.713	n/a	stim	poldrack-single-stim	s555	False	1
168.234	1.234	169.468	1.1325958937518072	draw_card	1.234	columbia_card_task_fmri	7.0	0.9333333333333332	89.0	-95.0	0.0666666666666666	16.0	2.0	1.0	-7.29663254071588	1.234	2.0	stim	poldrack-single-stim	s555	False	0
170.222	1.5	169.471	n/a	-1.0	2.386	columbia_card_task_fmri	n/a	n/a	-1.0	n/a	n/a	n/a	n/a	n/a	n/a	n/a	n/a	ITI	poldrack-single-stim	s555	False	0
171.861	1.139	173.0	3.120095893751807	draw_card	1.139	columbia_card_task_fmri	9.0	0.9375	89.0	-100.0	0.0625	16.0	1.0	1.0	-6.355812977470933	1.139	n/a	stim	poldrack-single-stim	s555	False	1
173.002	2.048	175.05	2.66592922708514	draw_card	2.048	columbia_card_task_fmri	9.0	0.9333333333333332	89.0	-100.0	0.0666666666666666	16.0	2.0	1.0	-5.551622353912723	2.048	n/a	stim	poldrack-single-stim	s555	False	1
175.051	2.643	177.694	2.146881608037522	draw_card	2.643	columbia_card_task_fmri	9.0	0.9285714285714286	89.0	-100.0	0.0714285714285714	16.0	3.0	1.0	-4.669709621573418	2.643	n/a	stim	poldrack-single-stim	s555	False	1
177.697	2.097	179.794	1.547980509136423	draw_card	2.097	columbia_card_task_fmri	9.0	0.9230769230769232	89.0	-100.0	0.0769230769230769	16.0	4.0	1.0	-3.696860730123934	2.097	4.0	stim	poldrack-single-stim	s555	False	0
180.547	1.5	179.796	n/a	-1.0	2.318	columbia_card_task_fmri	n/a	n/a	-1.0	n/a	n/a	n/a	n/a	n/a	n/a	n/a	n/a	ITI	poldrack-single-stim	s555	False	0
182.116	1.037	183.153	4.057595893751807	draw_card	1.037	columbia_card_task_fmri	15.0	0.875	89.0	-80.0	0.125	16.0	1.0	2.0	-1.3248536959696011	1.037	n/a	stim	poldrack-single-stim	s555	False	1
183.155	1.524	184.679	3.2659292270851408	draw_card	1.524	columbia_card_task_fmri	15.0	0.8666666666666667	89.0	-80.0	0.1333333333333333	16.0	2.0	2.0	-0.4497352602065021	1.524	2.0	stim	poldrack-single-stim	s555	False	0
185.432	1.5	184.681	n/a	-1.0	2.318	columbia_card_task_fmri	n/a	n/a	-1.0	n/a	n/a	n/a	n/a	n/a	n/a	n/a	n/a	ITI	poldrack-single-stim	s555	False	0
187.002	0.894	187.896	6.182595893751807	draw_card	0.894	columbia_card_task_fmri	16.0	0.875	89.0	-70.0	0.125	16.0	1.0	2.0	-4.299876481173662	0.894	n/a	stim	poldrack-single-stim	s555	False	1
187.9	1.656	189.556	5.46592922708514	draw_card	1.656	columbia_card_task_fmri	16.0	0.8666666666666667	89.0	-70.0	0.1333333333333333	16.0	2.0	2.0	-3.5077387139885445	1.656	n/a	stim	poldrack-single-stim	s555	False	1
189.557	2.01	191.567	4.646881608037522	draw_card	2.01	columbia_card_task_fmri	16.0	0.8571428571428572	89.0	-70.0	0.1428571428571428	16.0	3.0	2.0	-2.6488105927369148	2.01	3.0	stim	poldrack-single-stim	s555	False	0
192.321	1.5	191.57	n/a	-1.0	2.318	columbia_card_task_fmri	n/a	n/a	-1.0	n/a	n/a	n/a	n/a	n/a	n/a	n/a	n/a	ITI	poldrack-single-stim	s555	False	0
193.891	0.929	194.82	7.495095893751807	draw_card	0.929	columbia_card_task_fmri	30.0	0.6875	89.0	-45.0	0.3125	16.0	1.0	5.0	2.018948810695825	0.929	1.0	stim	poldrack-single-stim	s555	False	0
195.573	1.5	194.822	n/a	-1.0	2.386	columbia_card_task_fmri	n/a	n/a	-1.0	n/a	n/a	n/a	n/a	n/a	n/a	n/a	n/a	ITI	poldrack-single-stim	s555	False	0
197.211	2.459	199.67	-0.734070772914859	draw_card	2.459	columbia_card_task_fmri	13.0	0.8333333333333334	89.0	-75.0	0.1666666666666666	6.0	1.0	1.0	0.0519322134139628	2.459	1.0	stim	poldrack-single-stim	s555	False	0
200.424	1.5	199.673	n/a	-1.0	2.25	columbia_card_task_fmri	n/a	n/a	-1.0	n/a	n/a	n/a	n/a	n/a	n/a	n/a	n/a	ITI	poldrack-single-stim	s555	False	0
201.926	1.52	203.446	0.9325958937518088	draw_card	1.52	columbia_card_task_fmri	14.0	0.8333333333333334	89.0	-70.0	0.1666666666666666	6.0	1.0	1.0	-1.4381487484840498	1.52	n/a	stim	poldrack-single-stim	s555	False	1
203.449	1.343	204.792	-1.867404106248192	draw_card	1.343	columbia_card_task_fmri	14.0	0.8	89.0	-70.0	0.2	6.0	2.0	1.0	0.8559513077980441	1.343	n/a	stim	poldrack-single-stim	s555	False	1
204.795	1.717	206.512	-6.067404106248193	end_round	1.717	columbia_card_task_fmri	14.0	0.75	71.0	-70.0	0.25	6.0	3.0	1.0	3.6280320645854554	1.717	2.0	stim	poldrack-single-stim	s555	False	1
207.265	1.5	206.514	n/a	-1.0	2.386	columbia_card_task_fmri	n/a	n/a	-1.0	n/a	n/a	n/a	n/a	n/a	n/a	n/a	n/a	ITI	poldrack-single-stim	s555	False	0
208.904	1.465	210.369	0.9325958937518088	draw_card	1.465	columbia_card_task_fmri	16.0	0.8333333333333334	89.0	-80.0	0.1666666666666666	6.0	1.0	1.0	3.032251806386149	1.465	n/a	stim	poldrack-single-stim	s555	False	1
210.372	1.288	211.66	-2.2674041062481924	draw_card	1.288	columbia_card_task_fmri	16.0	0.8	89.0	-80.0	0.2	6.0	2.0	1.0	5.654334319281276	1.288	n/a	stim	poldrack-single-stim	s555	False	1
211.661	1.509	213.17	-7.067404106248193	draw_card	1.509	columbia_card_task_fmri	16.0	0.75	89.0	-80.0	0.25	6.0	3.0	1.0	8.822690665926707	1.509	n/a	stim	poldrack-single-stim	s555	False	1
213.173	0.933	214.106	-15.067404106248189	end_round	0.933	columbia_card_task_fmri	16.0	0.6666666666666667	71.0	-80.0	0.3333333333333333	6.0	4.0	1.0	12.507453594899552	0.933	3.0	stim	poldrack-single-stim	s555	False	1
214.86	1.5	214.109	n/a	-1.0	2.59	columbia_card_task_fmri	n/a	n/a	-1.0	n/a	n/a	n/a	n/a	n/a	n/a	n/a	n/a	ITI	poldrack-single-stim	s555	False	0
216.702	1.196	217.898	3.4325958937518086	draw_card	1.196	columbia_card_task_fmri	17.0	0.8333333333333334	89.0	-70.0	0.1666666666666666	6.0	1.0	1.0	-0.3205934635146406	1.196	n/a	stim	poldrack-single-stim	s555	False	1
217.9	1.313	219.213	0.5325958937518085	draw_card	1.313	columbia_card_task_fmri	17.0	0.8	89.0	-70.0	0.2	6.0	2.0	1.0	2.055505264075073	1.313	n/a	stim	poldrack-single-stim	s555	False	1
219.215	1.661	220.876	-3.817404106248193	draw_card	1.661	columbia_card_task_fmri	17.0	0.75	89.0	-70.0	0.25	6.0	3.0	1.0	4.92665809901353	1.661	n/a	stim	poldrack-single-stim	s555	False	1
220.88	1.468	222.348	-11.06740410624819	end_round	1.468	columbia_card_task_fmri	17.0	0.6666666666666667	71.0	-70.0	0.3333333333333333	6.0	4.0	1.0	8.26580662356261	1.468	3.0	stim	poldrack-single-stim	s555	False	1
223.102	1.5	222.351	n/a	-1.0	2.658	columbia_card_task_fmri	n/a	n/a	-1.0	n/a	n/a	n/a	n/a	n/a	n/a	n/a	n/a	ITI	poldrack-single-stim	s555	False	0
225.014	1.872	226.886	3.432595893751807	draw_card	1.872	columbia_card_task_fmri	25.0	0.75	89.0	-65.0	0.25	8.0	1.0	2.0	6.225311592649376	1.872	n/a	stim	poldrack-single-stim	s555	False	1
226.888	1.495	228.383	0.2183101794660953	draw_card	1.495	columbia_card_task_fmri	25.0	0.7142857142857143	89.0	-65.0	0.2857142857142857	8.0	2.0	2.0	7.911561318897547	1.495	n/a	stim	poldrack-single-stim	s555	False	1
228.385	1.616	230.001	-4.06740410624819	draw_card	1.616	columbia_card_task_fmri	25.0	0.6666666666666667	89.0	-65.0	0.3333333333333333	8.0	3.0	2.0	9.679666872692934	1.616	3.0	stim	poldrack-single-stim	s555	False	0
230.755	1.5	230.004	n/a	-1.0	2.386	columbia_card_task_fmri	n/a	n/a	-1.0	n/a	n/a	n/a	n/a	n/a	n/a	n/a	n/a	ITI	poldrack-single-stim	s555	False	0
232.393	1.974	234.367	3.432595893751807	draw_card	1.974	columbia_card_task_fmri	30.0	0.75	89.0	-80.0	0.25	8.0	1.0	2.0	14.883537497026452	1.974	n/a	stim	poldrack-single-stim	s555	False	1
234.369	1.754	236.123	-0.4959755348196164	draw_card	1.754	columbia_card_task_fmri	30.0	0.7142857142857143	89.0	-80.0	0.2857142857142857	8.0	2.0	2.0	16.94469629643404	1.754	n/a	stim	poldrack-single-stim	s555	False	1
236.126	2.009	238.135	-5.734070772914854	draw_card	2.009	columbia_card_task_fmri	30.0	0.6666666666666667	89.0	-80.0	0.3333333333333333	8.0	3.0	2.0	19.1058942253382	2.009	3.0	stim	poldrack-single-stim	s555	False	0
238.889	1.5	238.138	n/a	-1.0	2.386	columbia_card_task_fmri	n/a	n/a	-1.0	n/a	n/a	n/a	n/a	n/a	n/a	n/a	n/a	ITI	poldrack-single-stim	s555	False	0
240.528	1.675	242.203	3.132595893751808	draw_card	1.675	columbia_card_task_fmri	13.0	0.9	89.0	-95.0	0.1	10.0	1.0	1.0	-0.3435696280030171	1.675	n/a	stim	poldrack-single-stim	s555	False	1
242.204	1.541	243.745	1.932595893751807	draw_card	1.541	columbia_card_task_fmri	13.0	0.8888888888888888	89.0	-95.0	0.1111111111111111	10.0	2.0	1.0	1.1969468005664012	1.541	n/a	stim	poldrack-single-stim	s555	False	1
243.747	1.454	245.201	0.432595893751807	draw_card	1.454	columbia_card_task_fmri	13.0	0.875	89.0	-95.0	0.125	10.0	3.0	1.0	2.9728270848934173	1.454	n/a	stim	poldrack-single-stim	s555	False	1
245.203	2.089	247.292	-1.49597553481962	draw_card	2.089	columbia_card_task_fmri	13.0	0.8571428571428572	89.0	-95.0	0.1428571428571428	10.0	4.0	1.0	5.0466438507890885	2.089	n/a	stim	poldrack-single-stim	s555	False	1
247.294	0.914	248.208	-4.067404106248191	end_round	0.914	columbia_card_task_fmri	13.0	0.8333333333333334	71.0	-95.0	0.1666666666666666	10.0	5.0	1.0	7.503037829291316	0.914	4.0	stim	poldrack-single-stim	s555	False	1
248.964	1.5	248.213	n/a	-1.0	2.25	columbia_card_task_fmri	n/a	n/a	-1.0	n/a	n/a	n/a	n/a	n/a	n/a	n/a	n/a	ITI	poldrack-single-stim	s555	False	0
250.466	1.029	251.495	4.532595893751807	draw_card	1.029	columbia_card_task_fmri	14.0	0.9	89.0	-90.0	0.1	10.0	1.0	1.0	-1.543053736494258	1.029	n/a	stim	poldrack-single-stim	s555	False	1
251.499	1.625	253.124	3.3770403381962497	draw_card	1.625	columbia_card_task_fmri	14.0	0.8888888888888888	89.0	-90.0	0.1111111111111111	10.0	2.0	1.0	-0.0596394263284949	1.625	2.0	stim	poldrack-single-stim	s555	False	0
253.877	1.5	253.126	n/a	-1.0	2.318	columbia_card_task_fmri	n/a	n/a	-1.0	n/a	n/a	n/a	n/a	n/a	n/a	n/a	n/a	ITI	poldrack-single-stim	s555	False	0
255.449	0.844	256.293	-0.2674041062481922	draw_card	0.844	columbia_card_task_fmri	16.0	0.8	89.0	-70.0	0.2	10.0	1.0	2.0	1.6556504895253	0.844	n/a	stim	poldrack-single-stim	s555	False	1
256.297	1.414	257.711	-2.178515217359304	draw_card	1.414	columbia_card_task_fmri	16.0	0.7777777777777778	89.0	-70.0	0.2222222222222222	10.0	2.0	2.0	3.008787171322389	1.414	n/a	stim	poldrack-single-stim	s555	False	1
257.714	1.552	259.266	-4.567404106248193	end_round	1.552	columbia_card_task_fmri	16.0	0.75	71.0	-70.0	0.25	10.0	3.0	2.0	4.493779561361272	1.552	2.0	stim	poldrack-single-stim	s555	False	1
260.02	1.5	259.269	n/a	-1.0	2.25	columbia_card_task_fmri	n/a	n/a	-1.0	n/a	n/a	n/a	n/a	n/a	n/a	n/a	n/a	ITI	poldrack-single-stim	s555	False	0
261.522	1.619	263.141	-0.984070772914859	draw_card	1.619	columbia_card_task_fmri	7.0	0.9166666666666666	89.0	-100.0	0.0833333333333333	12.0	1.0	1.0	-3.169049860788423	1.619	n/a	stim	poldrack-single-stim	s555	False	1
263.143	2.193	265.336	-1.794676833520921	draw_card	2.193	columbia_card_task_fmri	7.0	0.9090909090909092	89.0	-100.0	0.0909090909090909	12.0	2.0	1.0	-1.9825174128751544	2.193	n/a	stim	poldrack-single-stim	s555	False	1
265.339	1.002	266.341	-2.7674041062481933	end_round	1.002	columbia_card_task_fmri	7.0	0.9	71.0	-100.0	0.1	12.0	3.0	1.0	-0.6434442688855029	1.002	2.0	stim	poldrack-single-stim	s555	False	1
267.096	1.5	266.345	n/a	-1.0	2.25	columbia_card_task_fmri	n/a	n/a	-1.0	n/a	n/a	n/a	n/a	n/a	n/a	n/a	n/a	ITI	poldrack-single-stim	s555	False	0
268.601	1.187	269.788	-0.7340707729148572	draw_card	1.187	columbia_card_task_fmri	14.0	0.8333333333333334	89.0	-80.0	0.1666666666666666	12.0	1.0	2.0	2.2871542946140764	1.187	n/a	stim	poldrack-single-stim	s555	False	1
269.79	1.328	271.118	-2.158313197157286	draw_card	1.328	columbia_card_task_fmri	14.0	0.8181818181818181	89.0	-80.0	0.1818181818181818	12.0	2.0	2.0	3.510297068692616	1.328	2.0	stim	poldrack-single-stim	s555	False	0
271.873	1.5	271.122	n/a	-1.0	2.386	columbia_card_task_fmri	n/a	n/a	-1.0	n/a	n/a	n/a	n/a	n/a	n/a	n/a	n/a	ITI	poldrack-single-stim	s555	False	0
273.511	1.577	275.088	0.9325958937518072	draw_card	1.577	columbia_card_task_fmri	15.0	0.8333333333333334	89.0	-75.0	0.1666666666666666	12.0	1.0	2.0	0.7969937158967682	1.577	n/a	stim	poldrack-single-stim	s555	False	1
275.091	1.61	276.701	-0.431040469884558	draw_card	1.61	columbia_card_task_fmri	15.0	0.8181818181818181	89.0	-75.0	0.1818181818181818	12.0	2.0	2.0	1.96805145379188	1.61	n/a	stim	poldrack-single-stim	s555	False	1
276.705	1.491	278.196	-2.067404106248193	end_round	1.491	columbia_card_task_fmri	15.0	0.8	71.0	-75.0	0.2	12.0	3.0	2.0	3.2550889411150408	1.491	2.0	stim	poldrack-single-stim	s555	False	1
278.95	1.5	278.199	n/a	-1.0	2.386	columbia_card_task_fmri	n/a	n/a	-1.0	n/a	n/a	n/a	n/a	n/a	n/a	n/a	n/a	ITI	poldrack-single-stim	s555	False	0
280.589	2.469	283.058	-0.0674041062481929	draw_card	2.469	columbia_card_task_fmri	15.0	0.8	89.0	-65.0	0.2	15.0	1.0	3.0	-0.743401960514106	2.469	1.0	stim	poldrack-single-stim	s555	False	0
283.812	1.5	283.061	n/a	-1.0	2.726	columbia_card_task_fmri	n/a	n/a	-1.0	n/a	n/a	n/a	n/a	n/a	n/a	n/a	n/a	ITI	poldrack-single-stim	s555	False	0
285.791	1.292	287.083	-0.8174041062481929	draw_card	1.292	columbia_card_task_fmri	14.0	0.8125	89.0	-70.0	0.1875	16.0	1.0	3.0	0.0425118441676488	1.292	n/a	stim	poldrack-single-stim	s555	False	1
287.086	1.568	288.654	-1.867404106248192	draw_card	1.568	columbia_card_task_fmri	14.0	0.8	89.0	-70.0	0.2	16.0	2.0	3.0	0.8559513077980441	1.568	2.0	stim	poldrack-single-stim	s555	False	0
289.407	1.5	288.656	n/a	-1.0	2.454	columbia_card_task_fmri	n/a	n/a	-1.0	n/a	n/a	n/a	n/a	n/a	n/a	n/a	n/a	ITI	poldrack-single-stim	s555	False	0
291.114	1.256	292.37	-0.8799041062481929	draw_card	1.256	columbia_card_task_fmri	11.0	0.6875	89.0	-30.0	0.3125	16.0	1.0	5.0	-13.73011088618896	1.256	n/a	stim	poldrack-single-stim	s555	False	1
292.374	2.593	294.967	-1.734070772914859	end_round	2.593	columbia_card_task_fmri	11.0	0.6666666666666667	71.0	-30.0	0.3333333333333333	16.0	2.0	5.0	-13.406916577251089	2.593	1.0	stim	poldrack-single-stim	s555	False	1
295.721	1.5	294.97	n/a	-1.0	2.318	columbia_card_task_fmri	n/a	n/a	-1.0	n/a	n/a	n/a	n/a	n/a	n/a	n/a	n/a	ITI	poldrack-single-stim	s555	False	0
297.292	1.245	298.537	3.932595893751807	draw_card	1.245	columbia_card_task_fmri	15.0	0.8666666666666667	89.0	-75.0	0.1333333333333333	15.0	1.0	2.0	-2.1486608154135998	1.245	n/a	stim	poldrack-single-stim	s555	False	1
298.54	1.181	299.721	3.075453036608951	draw_card	1.181	columbia_card_task_fmri	15.0	0.8571428571428572	89.0	-75.0	0.1428571428571428	15.0	2.0	2.0	-1.2497439679164373	1.181	n/a	stim	poldrack-single-stim	s555	False	1
299.724	1.578	301.302	2.08644204759796	draw_card	1.578	columbia_card_task_fmri	15.0	0.8461538461538461	89.0	-75.0	0.1538461538461538	15.0	3.0	2.0	-0.2714903082369204	1.578	n/a	stim	poldrack-single-stim	s555	False	1
301.305	0.862	302.167	0.9325958937518072	end_round	0.862	columbia_card_task_fmri	15.0	0.8333333333333334	71.0	-75.0	0.1666666666666666	15.0	4.0	2.0	0.7969937158967682	0.862	3.0	stim	poldrack-single-stim	s555	False	1
302.921	1.5	302.17	n/a	-1.0	2.318	columbia_card_task_fmri	n/a	n/a	-1.0	n/a	n/a	n/a	n/a	n/a	n/a	n/a	n/a	ITI	poldrack-single-stim	s555	False	0
304.492	1.222	305.714	5.665929227085141	draw_card	1.222	columbia_card_task_fmri	17.0	0.8666666666666667	89.0	-75.0	0.1333333333333333	15.0	1.0	2.0	-1.469100338365628	1.222	1.0	stim	poldrack-single-stim	s555	False	0
306.468	1.5	305.717	n/a	-1.0	2.59	columbia_card_task_fmri	n/a	n/a	-1.0	n/a	n/a	n/a	n/a	n/a	n/a	n/a	n/a	ITI	poldrack-single-stim	s555	False	0
308.312	2.969	311.281	1.245095893751807	draw_card	2.969	columbia_card_task_fmri	2.0	0.9375	89.0	-25.0	0.0625	16.0	1.0	1.0	-26.15512691552685	2.969	n/a	stim	poldrack-single-stim	s555	False	1
311.283	1.168	312.451	1.132595893751807	draw_card	1.168	columbia_card_task_fmri	2.0	0.9333333333333332	89.0	-25.0	0.0666666666666666	16.0	2.0	1.0	-25.95774350098144	1.168	n/a	stim	poldrack-single-stim	s555	False	1
312.455	1.139	313.594	1.0040244651803787	draw_card	1.139	columbia_card_task_fmri	2.0	0.9285714285714286	89.0	-25.0	0.0714285714285714	16.0	3.0	1.0	-25.741165434103937	1.139	3.0	stim	poldrack-single-stim	s555	False	0
314.348	1.5	313.597	n/a	-1.0	2.726	columbia_card_task_fmri	n/a	n/a	-1.0	n/a	n/a	n/a	n/a	n/a	n/a	n/a	n/a	ITI	poldrack-single-stim	s555	False	0
316.327	1.017	317.344	3.432595893751807	draw_card	1.017	columbia_card_task_fmri	9.0	0.9375	89.0	-95.0	0.0625	16.0	1.0	1.0	-7.565328656432644	1.017	n/a	stim	poldrack-single-stim	s555	False	1
317.348	1.116	318.464	2.999262560418474	draw_card	1.116	columbia_card_task_fmri	9.0	0.9333333333333332	89.0	-95.0	0.0666666666666666	16.0	2.0	1.0	-6.798073250274275	1.116	n/a	stim	poldrack-single-stim	s555	False	1
318.467	1.258	319.725	2.504024465180379	draw_card	1.258	columbia_card_task_fmri	9.0	0.9285714285714286	89.0	-95.0	0.0714285714285714	16.0	3.0	1.0	-5.956662379333828	1.258	n/a	stim	poldrack-single-stim	s555	False	1
319.728	1.211	320.939	1.932595893751807	draw_card	1.211	columbia_card_task_fmri	9.0	0.9230769230769232	89.0	-95.0	0.0769230769230769	16.0	4.0	1.0	-5.028488275056599	1.211	n/a	stim	poldrack-single-stim	s555	False	1
320.943	1.113	322.056	1.265929227085141	draw_card	1.113	columbia_card_task_fmri	9.0	0.9166666666666666	89.0	-95.0	0.0833333333333333	16.0	5.0	1.0	-3.997782207732389	1.113	n/a	stim	poldrack-single-stim	s555	False	1
322.059	1.022	323.081	0.478050439206352	draw_card	1.022	columbia_card_task_fmri	9.0	0.9090909090909092	89.0	-95.0	0.0909090909090909	16.0	6.0	1.0	-2.8445492576364693	1.022	n/a	stim	poldrack-single-stim	s555	False	1
323.083	0.807	323.89	-0.4674041062481933	end_round	0.807	columbia_card_task_fmri	9.0	0.9	71.0	-95.0	0.1	16.0	7.0	1.0	-1.543053736494258	0.807	6.0	stim	poldrack-single-stim	s555	False	1
324.645	1.5	323.894	n/a	-1.0	2.522	columbia_card_task_fmri	n/a	n/a	-1.0	n/a	n/a	n/a	n/a	n/a	n/a	n/a	n/a	ITI	poldrack-single-stim	s555	False	0
326.421	2.234	328.655	4.995095893751807	draw_card	2.234	columbia_card_task_fmri	11.0	0.9375	89.0	-100.0	0.0625	16.0	1.0	1.0	-5.871986755712648	2.234	n/a	stim	poldrack-single-stim	s555	False	1
328.658	1.55	330.208	4.532595893751807	draw_card	1.55	columbia_card_task_fmri	11.0	0.9333333333333332	89.0	-100.0	0.0666666666666666	16.0	2.0	1.0	-5.053022633469858	1.55	n/a	stim	poldrack-single-stim	s555	False	1
330.212	1.186	331.398	4.00402446518038	draw_card	1.186	columbia_card_task_fmri	11.0	0.9285714285714286	89.0	-100.0	0.0714285714285714	16.0	3.0	1.0	-4.154909763110066	1.186	n/a	stim	poldrack-single-stim	s555	False	1
331.402	0.798	332.2	3.3941343552902694	end_round	0.798	columbia_card_task_fmri	11.0	0.9230769230769232	71.0	-100.0	0.0769230769230769	16.0	4.0	1.0	-3.1641915833095062	0.798	3.0	stim	poldrack-single-stim	s555	False	1
332.955	1.5	332.204	n/a	-1.0	3.134	columbia_card_task_fmri	n/a	n/a	-1.0	n/a	n/a	n/a	n/a	n/a	n/a	n/a	n/a	ITI	poldrack-single-stim	s555	False	0
335.342	2.299	337.641	5.557595893751807	draw_card	2.299	columbia_card_task_fmri	16.0	0.875	89.0	-75.0	0.125	16.0	1.0	2.0	-2.647121365893472	2.299	n/a	stim	poldrack-single-stim	s555	False	1
337.645	1.039	338.684	4.799262560418474	draw_card	1.039	columbia_card_task_fmri	16.0	0.8666666666666667	89.0	-75.0	0.1333333333333333	16.0	2.0	2.0	-1.8088822723901397	1.039	n/a	stim	poldrack-single-stim	s555	False	1
338.688	1.12	339.808	3.9325958937518086	draw_card	1.12	columbia_card_task_fmri	16.0	0.8571428571428572	89.0	-75.0	0.1428571428571428	16.0	3.0	2.0	-0.8999685015798455	1.12	3.0	stim	poldrack-single-stim	s555	False	0
340.562	1.5	339.811	n/a	-1.0	2.386	columbia_card_task_fmri	n/a	n/a	-1.0	n/a	n/a	n/a	n/a	n/a	n/a	n/a	n/a	ITI	poldrack-single-stim	s555	False	0
342.203	0.97	343.173	5.807595893751807	draw_card	0.97	columbia_card_task_fmri	17.0	0.875	89.0	-80.0	0.125	16.0	1.0	2.0	-0.6637010695835315	0.97	n/a	stim	poldrack-single-stim	s555	False	1
343.176	1.289	344.465	4.999262560418475	draw_card	1.289	columbia_card_task_fmri	17.0	0.8666666666666667	89.0	-80.0	0.1333333333333333	16.0	2.0	2.0	0.2298565291804806	1.289	n/a	stim	poldrack-single-stim	s555	False	1
344.468	1.435	345.903	4.075453036608953	draw_card	1.435	columbia_card_task_fmri	17.0	0.8571428571428572	89.0	-80.0	0.1428571428571428	16.0	3.0	2.0	1.1987499159727335	1.435	n/a	stim	poldrack-single-stim	s555	False	1
345.907	1.218	347.125	3.0095189706748835	draw_card	1.218	columbia_card_task_fmri	17.0	0.8461538461538461	89.0	-80.0	0.1538461538461538	16.0	4.0	2.0	2.2531522978630463	1.218	n/a	stim	poldrack-single-stim	s555	False	1
347.129	0.753	347.882	1.7659292270851428	end_round	0.753	columbia_card_task_fmri	17.0	0.8333333333333334	71.0	-80.0	0.1666666666666666	16.0	5.0	2.0	3.404804557374746	0.753	4.0	stim	poldrack-single-stim	s555	False	1
348.636	1.5	347.885	n/a	-1.0	2.386	columbia_card_task_fmri	n/a	n/a	-1.0	n/a	n/a	n/a	n/a	n/a	n/a	n/a	n/a	ITI	poldrack-single-stim	s555	False	0
361.279	0.987	362.266	0.0992625604184749	draw_card	0.987	columbia_card_task_fmri	13.0	0.8333333333333334	89.0	-70.0	0.1666666666666666	6.0	1.0	1.0	-1.8106594919239465	0.987	1.0	stim	poldrack-single-stim	s555	False	0
363.021	1.5	362.27	n/a	-1.0	2.318	columbia_card_task_fmri	n/a	n/a	-1.0	n/a	n/a	n/a	n/a	n/a	n/a	n/a	n/a	ITI	poldrack-single-stim	s555	False	0
364.592	1.268	365.86	0.0992625604184749	draw_card	1.268	columbia_card_task_fmri	15.0	0.8333333333333334	89.0	-80.0	0.1666666666666666	6.0	1.0	1.0	2.6597016907827964	1.268	n/a	stim	poldrack-single-stim	s555	False	1
365.864	1.075	366.939	-3.067404106248193	draw_card	1.075	columbia_card_task_fmri	15.0	0.8	89.0	-80.0	0.2	6.0	2.0	1.0	5.254453473130653	1.075	n/a	stim	poldrack-single-stim	s555	False	1
366.941	1.331	368.272	-7.817404106248193	end_round	1.331	columbia_card_task_fmri	15.0	0.75	71.0	-80.0	0.25	6.0	3.0	1.0	8.389788040859152	1.331	2.0	stim	poldrack-single-stim	s555	False	1
369.027	1.5	368.276	n/a	-1.0	2.318	columbia_card_task_fmri	n/a	n/a	-1.0	n/a	n/a	n/a	n/a	n/a	n/a	n/a	n/a	ITI	poldrack-single-stim	s555	False	0
370.598	1.005	371.603	1.765929227085141	draw_card	1.005	columbia_card_task_fmri	16.0	0.8333333333333334	89.0	-75.0	0.1666666666666666	6.0	1.0	1.0	1.169529318576636	1.005	n/a	stim	poldrack-single-stim	s555	False	1
371.606	0.888	372.494	-1.2674041062481922	draw_card	0.888	columbia_card_task_fmri	16.0	0.8	89.0	-75.0	0.2	6.0	2.0	1.0	3.654956263706744	0.888	n/a	stim	poldrack-single-stim	s555	False	1
372.498	1.108	373.606	-5.817404106248193	draw_card	1.108	columbia_card_task_fmri	16.0	0.75	89.0	-75.0	0.25	6.0	3.0	1.0	6.658201723457992	1.108	n/a	stim	poldrack-single-stim	s555	False	1
373.609	0.564	374.173	-13.400737439581524	end_round	0.564	columbia_card_task_fmri	16.0	0.6666666666666667	71.0	-75.0	0.3333333333333333	6.0	4.0	1.0	10.150958797284764	0.564	3.0	stim	poldrack-single-stim	s555	False	1
374.927	1.5	374.176	n/a	-1.0	2.862	columbia_card_task_fmri	n/a	n/a	-1.0	n/a	n/a	n/a	n/a	n/a	n/a	n/a	n/a	ITI	poldrack-single-stim	s555	False	0
377.042	0.794	377.836	2.932595893751807	draw_card	0.794	columbia_card_task_fmri	21.0	0.75	89.0	-55.0	0.25	8.0	1.0	2.0	0.1651882624977432	0.794	n/a	stim	poldrack-single-stim	s555	False	1
377.84	1.084	378.924	0.2183101794660935	draw_card	1.084	columbia_card_task_fmri	21.0	0.7142857142857143	89.0	-55.0	0.2857142857142857	8.0	2.0	2.0	1.588975345151134	1.084	n/a	stim	poldrack-single-stim	s555	False	1
378.927	2.036	380.963	-3.4007374395815235	draw_card	2.036	columbia_card_task_fmri	21.0	0.6666666666666667	89.0	-55.0	0.3333333333333333	8.0	3.0	2.0	3.0818909083357866	2.036	3.0	stim	poldrack-single-stim	s555	False	0
381.72	1.5	380.969	n/a	-1.0	2.726	columbia_card_task_fmri	n/a	n/a	-1.0	n/a	n/a	n/a	n/a	n/a	n/a	n/a	n/a	ITI	poldrack-single-stim	s555	False	0
383.698	0.63	384.328	4.182595893751807	draw_card	0.63	columbia_card_task_fmri	26.0	0.75	89.0	-65.0	0.25	8.0	1.0	2.0	6.658201723457992	0.63	n/a	stim	poldrack-single-stim	s555	False	1
384.333	0.965	385.298	0.9325958937518106	draw_card	0.965	columbia_card_task_fmri	26.0	0.7142857142857143	89.0	-65.0	0.2857142857142857	8.0	2.0	2.0	8.363197780139188	0.965	n/a	stim	poldrack-single-stim	s555	False	1
385.301	0.94	386.241	-3.4007374395815217	draw_card	0.94	columbia_card_task_fmri	26.0	0.6666666666666667	89.0	-65.0	0.3333333333333333	8.0	3.0	2.0	10.150958797284764	0.94	3.0	stim	poldrack-single-stim	s555	False	0
386.996	1.5	386.245	n/a	-1.0	2.25	columbia_card_task_fmri	n/a	n/a	-1.0	n/a	n/a	n/a	n/a	n/a	n/a	n/a	n/a	ITI	poldrack-single-stim	s555	False	0
388.503	0.733	389.236	-0.734070772914859	draw_card	0.733	columbia_card_task_fmri	15.0	0.7777777777777778	89.0	-60.0	0.2222222222222222	9.0	1.0	2.0	-1.562566792747333	0.733	n/a	stim	poldrack-single-stim	s555	False	1
389.24	0.842	390.082	-2.817404106248193	draw_card	0.842	columbia_card_task_fmri	15.0	0.75	89.0	-60.0	0.25	9.0	2.0	2.0	-0.2676483567604109	0.842	2.0	stim	poldrack-single-stim	s555	False	0
390.837	1.5	390.086	n/a	-1.0	2.318	columbia_card_task_fmri	n/a	n/a	-1.0	n/a	n/a	n/a	n/a	n/a	n/a	n/a	n/a	ITI	poldrack-single-stim	s555	False	0
392.408	1.032	393.44	3.632595893751808	draw_card	1.032	columbia_card_task_fmri	13.0	0.9	89.0	-90.0	0.1	10.0	1.0	1.0	-1.842918506991872	1.032	n/a	stim	poldrack-single-stim	s555	False	1
393.444	0.906	394.35	2.488151449307362	draw_card	0.906	columbia_card_task_fmri	13.0	0.8888888888888888	89.0	-90.0	0.1111111111111111	10.0	2.0	1.0	-0.3737800098173451	0.906	n/a	stim	poldrack-single-stim	s555	False	1
394.354	1.03	395.384	1.057595893751807	draw_card	1.03	columbia_card_task_fmri	13.0	0.875	89.0	-90.0	0.125	10.0	3.0	1.0	1.3198232251169415	1.03	n/a	stim	poldrack-single-stim	s555	False	1
395.387	0.77	396.157	-0.7816898205339047	end_round	0.77	columbia_card_task_fmri	13.0	0.8571428571428572	71.0	-90.0	0.1428571428571428	10.0	4.0	1.0	3.2975666366088348	0.77	3.0	stim	poldrack-single-stim	s555	False	1
396.913	1.5	396.162	n/a	-1.0	2.454	columbia_card_task_fmri	n/a	n/a	-1.0	n/a	n/a	n/a	n/a	n/a	n/a	n/a	n/a	ITI	poldrack-single-stim	s555	False	0
398.622	0.793	399.415	4.932595893751807	draw_card	0.793	columbia_card_task_fmri	15.0	0.9	89.0	-95.0	0.1	10.0	1.0	1.0	0.2561864873757784	0.793	n/a	stim	poldrack-single-stim	s555	False	1
399.418	0.874	400.292	3.710373671529584	draw_card	0.874	columbia_card_task_fmri	15.0	0.8888888888888888	89.0	-95.0	0.1111111111111111	10.0	2.0	1.0	1.8252533381890144	0.874	n/a	stim	poldrack-single-stim	s555	False	1
400.295	0.955	401.25	2.182595893751807	draw_card	0.955	columbia_card_task_fmri	15.0	0.875	89.0	-95.0	0.125	10.0	3.0	1.0	3.634043657429345	0.955	n/a	stim	poldrack-single-stim	s555	False	1
401.253	1.42	402.673	0.2183101794660935	end_round	1.42	columbia_card_task_fmri	15.0	0.8571428571428572	71.0	-95.0	0.1428571428571428	10.0	4.0	1.0	5.746288941717246	1.42	3.0	stim	poldrack-single-stim	s555	False	1
403.428	1.5	402.677	n/a	-1.0	2.522	columbia_card_task_fmri	n/a	n/a	-1.0	n/a	n/a	n/a	n/a	n/a	n/a	n/a	n/a	ITI	poldrack-single-stim	s555	False	0
405.204	1.219	406.423	0.7325958937518078	draw_card	1.219	columbia_card_task_fmri	16.0	0.8	89.0	-65.0	0.2	10.0	1.0	2.0	-0.3435696280030171	1.219	n/a	stim	poldrack-single-stim	s555	False	1
406.427	1.372	407.799	-1.0674041062481912	draw_card	1.372	columbia_card_task_fmri	16.0	0.7777777777777778	89.0	-65.0	0.2222222222222222	10.0	2.0	2.0	0.9308390122429132	1.372	2.0	stim	poldrack-single-stim	s555	False	0
408.554	1.5	407.803	n/a	-1.0	2.318	columbia_card_task_fmri	n/a	n/a	-1.0	n/a	n/a	n/a	n/a	n/a	n/a	n/a	n/a	ITI	poldrack-single-stim	s555	False	0
410.126	1.827	411.953	-0.5674041062481929	draw_card	1.827	columbia_card_task_fmri	7.0	0.9166666666666666	89.0	-95.0	0.0833333333333333	12.0	1.0	1.0	-4.550256598807941	1.827	n/a	stim	poldrack-single-stim	s555	False	1
411.957	0.929	412.886	-1.3401313789754663	draw_card	0.929	columbia_card_task_fmri	7.0	0.9090909090909092	89.0	-95.0	0.0909090909090909	12.0	2.0	1.0	-3.4192238464637548	0.929	n/a	stim	poldrack-single-stim	s555	False	1
412.89	0.973	413.863	-2.2674041062481933	draw_card	0.973	columbia_card_task_fmri	7.0	0.9	89.0	-95.0	0.1	12.0	3.0	1.0	-2.1427806277584267	0.973	n/a	stim	poldrack-single-stim	s555	False	1
413.867	1.154	415.021	-3.400737439581527	draw_card	1.154	columbia_card_task_fmri	7.0	0.8888888888888888	89.0	-95.0	0.1111111111111111	12.0	4.0	1.0	-0.687918063581904	1.154	n/a	stim	poldrack-single-stim	s555	False	1
415.025	0.797	415.822	-4.817404106248193	end_round	0.797	columbia_card_task_fmri	7.0	0.875	71.0	-95.0	0.125	12.0	5.0	1.0	0.9892293987924532	0.797	4.0	stim	poldrack-single-stim	s555	False	1
416.577	1.5	415.826	n/a	-1.0	2.522	columbia_card_task_fmri	n/a	n/a	-1.0	n/a	n/a	n/a	n/a	n/a	n/a	n/a	n/a	ITI	poldrack-single-stim	s555	False	0
418.354	1.496	419.85	0.0992625604184749	draw_card	1.496	columbia_card_task_fmri	14.0	0.8333333333333334	89.0	-75.0	0.1666666666666666	12.0	1.0	2.0	0.4244613111974047	1.496	n/a	stim	poldrack-single-stim	s555	False	1
419.854	1.144	420.998	-1.2492222880663764	draw_card	1.144	columbia_card_task_fmri	14.0	0.8181818181818181	89.0	-75.0	0.1818181818181818	12.0	2.0	2.0	1.5824975293972372	1.144	n/a	stim	poldrack-single-stim	s555	False	1
421.002	2.133	423.135	-2.867404106248192	end_round	2.133	columbia_card_task_fmri	14.0	0.8	71.0	-75.0	0.2	12.0	3.0	2.0	2.855224598521424	2.133	2.0	stim	poldrack-single-stim	s555	False	1
423.891	1.5	423.14	n/a	-1.0	2.998	columbia_card_task_fmri	n/a	n/a	-1.0	n/a	n/a	n/a	n/a	n/a	n/a	n/a	n/a	ITI	poldrack-single-stim	s555	False	0
426.144	0.959	427.103	1.765929227085141	draw_card	0.959	columbia_card_task_fmri	15.0	0.8333333333333334	89.0	-70.0	0.1666666666666666	12.0	1.0	2.0	-1.0656340722706936	0.959	1.0	stim	poldrack-single-stim	s555	False	0
427.859	1.5	427.108	n/a	-1.0	2.318	columbia_card_task_fmri	n/a	n/a	-1.0	n/a	n/a	n/a	n/a	n/a	n/a	n/a	n/a	ITI	poldrack-single-stim	s555	False	0
429.43	0.775	430.205	-0.2674041062481922	draw_card	0.775	columbia_card_task_fmri	16.0	0.8	89.0	-70.0	0.2	15.0	1.0	3.0	1.6556504895253	0.775	n/a	stim	poldrack-single-stim	s555	False	1
430.208	1.2	431.408	-1.4959755348196218	draw_card	1.2	columbia_card_task_fmri	16.0	0.7857142857142857	89.0	-70.0	0.2142857142857142	15.0	2.0	3.0	2.54336022137084	1.2	n/a	stim	poldrack-single-stim	s555	False	1
431.413	2.152	433.565	-2.91355795240204	draw_card	2.152	columbia_card_task_fmri	16.0	0.7692307692307692	89.0	-70.0	0.2307692307692307	15.0	3.0	3.0	3.488964788903452	2.152	n/a	stim	poldrack-single-stim	s555	False	1
433.569	0.615	434.184	-4.567404106248193	end_round	0.615	columbia_card_task_fmri	16.0	0.75	71.0	-70.0	0.25	15.0	4.0	3.0	4.493779561361272	0.615	3.0	stim	poldrack-single-stim	s555	False	1
434.939	1.5	434.188	n/a	-1.0	2.25	columbia_card_task_fmri	n/a	n/a	-1.0	n/a	n/a	n/a	n/a	n/a	n/a	n/a	n/a	ITI	poldrack-single-stim	s555	False	0
436.443	1.37	437.813	0.120095893751807	draw_card	1.37	columbia_card_task_fmri	14.0	0.8125	89.0	-65.0	0.1875	16.0	1.0	3.0	-1.9082110962350496	1.37	n/a	stim	poldrack-single-stim	s555	False	1
437.817	1.307	439.124	-0.8674041062481919	draw_card	1.307	columbia_card_task_fmri	14.0	0.8	89.0	-65.0	0.2	16.0	2.0	3.0	-1.1432300510149531	1.307	n/a	stim	poldrack-single-stim	s555	False	1
439.128	1.131	440.259	-1.99597553481962	draw_card	1.131	columbia_card_task_fmri	14.0	0.7857142857142857	89.0	-65.0	0.2142857142857142	16.0	3.0	3.0	-0.3278297811781669	1.131	n/a	stim	poldrack-single-stim	s555	False	1
440.263	1.373	441.636	-3.298173337017425	end_round	1.373	columbia_card_task_fmri	14.0	0.7692307692307692	71.0	-65.0	0.2307692307692307	16.0	4.0	3.0	0.5407523411713839	1.373	3.0	stim	poldrack-single-stim	s555	False	1
442.391	1.5	441.64	n/a	-1.0	2.454	columbia_card_task_fmri	n/a	n/a	-1.0	n/a	n/a	n/a	n/a	n/a	n/a	n/a	n/a	ITI	poldrack-single-stim	s555	False	0
444.098	1.965	446.063	-0.1299041062481929	draw_card	1.965	columbia_card_task_fmri	16.0	0.8125	89.0	-75.0	0.1875	16.0	1.0	3.0	2.7736787545706107	1.965	n/a	stim	poldrack-single-stim	s555	False	1
446.067	1.546	447.613	-1.2674041062481922	draw_card	1.546	columbia_card_task_fmri	16.0	0.8	89.0	-75.0	0.2	16.0	2.0	3.0	3.654956263706744	1.546	n/a	stim	poldrack-single-stim	s555	False	1
447.618	1.155	448.773	-2.567404106248192	draw_card	1.155	columbia_card_task_fmri	16.0	0.7857142857142857	89.0	-75.0	0.2142857142857142	16.0	3.0	3.0	4.594312964925045	1.155	n/a	stim	poldrack-single-stim	s555	False	1
448.778	0.929	449.707	-4.067404106248197	draw_card	0.929	columbia_card_task_fmri	16.0	0.7692307692307692	89.0	-75.0	0.2307692307692307	16.0	4.0	3.0	5.594930888073243	0.929	n/a	stim	poldrack-single-stim	s555	False	1
449.711	0.776	450.487	-5.817404106248193	end_round	0.776	columbia_card_task_fmri	16.0	0.75	71.0	-75.0	0.25	16.0	5.0	3.0	6.658201723457992	0.776	4.0	stim	poldrack-single-stim	s555	False	1
451.241	1.5	450.49	n/a	-1.0	2.318	columbia_card_task_fmri	n/a	n/a	-1.0	n/a	n/a	n/a	n/a	n/a	n/a	n/a	n/a	ITI	poldrack-single-stim	s555	False	0
452.813	0.632	453.445	4.132595893751808	draw_card	0.632	columbia_card_task_fmri	16.0	0.8666666666666667	89.0	-80.0	0.1333333333333333	15.0	1.0	2.0	-0.109940809832004	0.632	n/a	stim	poldrack-single-stim	s555	False	1
453.449	0.847	454.296	3.218310179466095	draw_card	0.847	columbia_card_task_fmri	16.0	0.8571428571428572	89.0	-80.0	0.1428571428571428	15.0	2.0	2.0	0.8489561890522523	0.847	n/a	stim	poldrack-single-stim	s555	False	1
454.299	0.984	455.283	2.163365124521037	draw_card	0.984	columbia_card_task_fmri	16.0	0.8461538461538461	89.0	-80.0	0.1538461538461538	15.0	3.0	2.0	1.8924804492657683	0.984	n/a	stim	poldrack-single-stim	s555	False	1
455.288	1.441	456.729	0.9325958937518088	draw_card	1.441	columbia_card_task_fmri	16.0	0.8333333333333334	89.0	-80.0	0.1666666666666666	15.0	4.0	2.0	3.032251806386149	1.441	n/a	stim	poldrack-single-stim	s555	False	1
456.733	2.069	458.802	-0.5219495607936497	end_round	2.069	columbia_card_task_fmri	16.0	0.8181818181818181	71.0	-80.0	0.1818181818181818	15.0	5.0	2.0	4.281436518517793	2.069	4.0	stim	poldrack-single-stim	s555	False	1
459.556	1.5	458.805	n/a	-1.0	2.318	columbia_card_task_fmri	n/a	n/a	-1.0	n/a	n/a	n/a	n/a	n/a	n/a	n/a	n/a	ITI	poldrack-single-stim	s555	False	0
461.128	0.956	462.084	4.999262560418475	draw_card	0.956	columbia_card_task_fmri	17.0	0.8666666666666667	89.0	-80.0	0.1333333333333333	15.0	1.0	2.0	0.2298565291804806	0.956	n/a	stim	poldrack-single-stim	s555	False	1
462.089	1.104	463.193	4.075453036608953	draw_card	1.104	columbia_card_task_fmri	17.0	0.8571428571428572	89.0	-80.0	0.1428571428571428	15.0	2.0	2.0	1.1987499159727335	1.104	n/a	stim	poldrack-single-stim	s555	False	1
463.198	1.163	464.361	3.0095189706748835	draw_card	1.163	columbia_card_task_fmri	17.0	0.8461538461538461	89.0	-80.0	0.1538461538461538	15.0	3.0	2.0	2.2531522978630463	1.163	3.0	stim	poldrack-single-stim	s555	False	0
465.117	1.5	464.366	n/a	-1.0	2.59	columbia_card_task_fmri	n/a	n/a	-1.0	n/a	n/a	n/a	n/a	n/a	n/a	n/a	n/a	ITI	poldrack-single-stim	s555	False	0
466.96	0.601	467.561	0.9325958937518072	draw_card	0.601	columbia_card_task_fmri	1.0	0.9375	89.0	-15.0	0.0625	16.0	1.0	1.0	-28.77330507755064	0.601	n/a	stim	poldrack-single-stim	s555	False	1
467.567	0.723	468.29	0.8659292270851404	draw_card	0.723	columbia_card_task_fmri	1.0	0.9333333333333332	89.0	-15.0	0.0666666666666666	16.0	2.0	1.0	-28.65837624020049	0.723	n/a	stim	poldrack-single-stim	s555	False	1
468.295	0.948	469.243	0.7897387508946643	draw_card	0.948	columbia_card_task_fmri	1.0	0.9285714285714286	89.0	-15.0	0.0714285714285714	16.0	3.0	1.0	-28.5321423067302	0.948	3.0	stim	poldrack-single-stim	s555	False	0
469.998	1.5	469.247	n/a	-1.0	2.25	columbia_card_task_fmri	n/a	n/a	-1.0	n/a	n/a	n/a	n/a	n/a	n/a	n/a	n/a	ITI	poldrack-single-stim	s555	False	0
471.502	0.597	472.099	4.057595893751807	draw_card	0.597	columbia_card_task_fmri	10.0	0.9375	89.0	-100.0	0.0625	16.0	1.0	1.0	-6.113901213972852	0.597	n/a	stim	poldrack-single-stim	s555	False	1
472.104	0.962	473.066	3.599262560418474	draw_card	0.962	columbia_card_task_fmri	10.0	0.9333333333333332	89.0	-100.0	0.0666666666666666	16.0	2.0	1.0	-5.302323801336353	0.962	n/a	stim	poldrack-single-stim	s555	False	1
473.069	1.132	474.201	3.075453036608951	draw_card	1.132	columbia_card_task_fmri	10.0	0.9285714285714286	89.0	-100.0	0.0714285714285714	16.0	3.0	1.0	-4.412310959017674	1.132	n/a	stim	poldrack-single-stim	s555	False	1
474.206	0.967	475.173	2.471057432213346	draw_card	0.967	columbia_card_task_fmri	10.0	0.9230769230769232	89.0	-100.0	0.0769230769230769	16.0	4.0	1.0	-3.430527381074569	0.967	4.0	stim	poldrack-single-stim	s555	False	0
475.929	1.5	475.178	n/a	-1.0	2.25	columbia_card_task_fmri	n/a	n/a	-1.0	n/a	n/a	n/a	n/a	n/a	n/a	n/a	n/a	ITI	poldrack-single-stim	s555	False	0
477.433	0.734	478.167	4.682595893751807	draw_card	0.734	columbia_card_task_fmri	15.0	0.875	89.0	-75.0	0.125	16.0	1.0	2.0	-2.977679845210048	0.734	n/a	stim	poldrack-single-stim	s555	False	1
478.171	1.067	479.238	3.932595893751807	draw_card	1.067	columbia_card_task_fmri	15.0	0.8666666666666667	89.0	-75.0	0.1333333333333333	16.0	2.0	2.0	-2.1486608154135998	1.067	n/a	stim	poldrack-single-stim	s555	False	1
479.242	1.352	480.594	3.075453036608951	draw_card	1.352	columbia_card_task_fmri	15.0	0.8571428571428572	89.0	-75.0	0.1428571428571428	16.0	3.0	2.0	-1.2497439679164373	1.352	n/a	stim	poldrack-single-stim	s555	False	1
480.598	0.606	481.204	2.08644204759796	end_round	0.606	columbia_card_task_fmri	15.0	0.8461538461538461	71.0	-75.0	0.1538461538461538	16.0	4.0	2.0	-0.2714903082369204	0.606	3.0	stim	poldrack-single-stim	s555	False	1
481.959	1.5	481.208	n/a	-1.0	2.522	columbia_card_task_fmri	n/a	n/a	-1.0	n/a	n/a	n/a	n/a	n/a	n/a	n/a	n/a	ITI	poldrack-single-stim	s555	False	0
483.736	0.759	484.495	4.932595893751807	draw_card	0.759	columbia_card_task_fmri	16.0	0.875	89.0	-80.0	0.125	16.0	1.0	2.0	-0.99427886723986	0.759	n/a	stim	poldrack-single-stim	s555	False	1
484.498	0.878	485.376	4.132595893751808	draw_card	0.878	columbia_card_task_fmri	16.0	0.8666666666666667	89.0	-80.0	0.1333333333333333	16.0	2.0	2.0	-0.109940809832004	0.878	n/a	stim	poldrack-single-stim	s555	False	1
485.381	1.366	486.747	3.218310179466095	draw_card	1.366	columbia_card_task_fmri	16.0	0.8571428571428572	89.0	-80.0	0.1428571428571428	16.0	3.0	2.0	0.8489561890522523	1.366	3.0	stim	poldrack-single-stim	s555	False	0
487.503	1.5	486.752	n/a	-1.0	2.454	columbia_card_task_fmri	n/a	n/a	-1.0	n/a	n/a	n/a	n/a	n/a	n/a	n/a	n/a	ITI	poldrack-single-stim	s555	False	0
489.211	0.521	489.732	2.120095893751807	draw_card	0.521	columbia_card_task_fmri	4.0	0.6875	89.0	-5.0	0.3125	16.0	1.0	5.0	-28.482403461491728	0.521	1.0	stim	poldrack-single-stim	s555	False	0
490.488	1.5	489.737	n/a	-1.0	2.25	columbia_card_task_fmri	n/a	n/a	-1.0	n/a	n/a	n/a	n/a	n/a	n/a	n/a	n/a	ITI	poldrack-single-stim	s555	False	0
491.992	1.202	493.194	-0.7340707729148572	draw_card	1.202	columbia_card_task_fmri	14.0	0.8333333333333334	89.0	-80.0	0.1666666666666666	6.0	1.0	1.0	2.2871542946140764	1.202	1.0	stim	poldrack-single-stim	s555	False	0
493.95	1.5	493.199	n/a	-1.0	2.454	columbia_card_task_fmri	n/a	n/a	-1.0	n/a	n/a	n/a	n/a	n/a	n/a	n/a	n/a	ITI	poldrack-single-stim	s555	False	0
495.658	1.541	497.199	0.9325958937518072	draw_card	1.541	columbia_card_task_fmri	15.0	0.8333333333333334	89.0	-75.0	0.1666666666666666	6.0	1.0	1.0	0.7969937158967682	1.541	n/a	stim	poldrack-single-stim	s555	False	1
497.204	1.396	498.6	-2.067404106248193	draw_card	1.396	columbia_card_task_fmri	15.0	0.8	89.0	-75.0	0.2	6.0	2.0	1.0	3.2550889411150408	1.396	n/a	stim	poldrack-single-stim	s555	False	1
498.605	0.555	499.16	-6.567404106248193	end_round	0.555	columbia_card_task_fmri	15.0	0.75	71.0	-75.0	0.25	6.0	3.0	1.0	6.225311592649376	0.555	2.0	stim	poldrack-single-stim	s555	False	1
499.915	1.5	499.164	n/a	-1.0	2.454	columbia_card_task_fmri	n/a	n/a	-1.0	n/a	n/a	n/a	n/a	n/a	n/a	n/a	n/a	ITI	poldrack-single-stim	s555	False	0
501.624	1.272	502.896	2.5992625604184747	draw_card	1.272	columbia_card_task_fmri	16.0	0.8333333333333334	89.0	-70.0	0.1666666666666666	6.0	1.0	1.0	-0.6931156003554975	1.272	1.0	stim	poldrack-single-stim	s555	False	0
503.651	1.5	502.9	n/a	-1.0	2.522	columbia_card_task_fmri	n/a	n/a	-1.0	n/a	n/a	n/a	n/a	n/a	n/a	n/a	n/a	ITI	poldrack-single-stim	s555	False	0
505.427	0.704	506.131	3.182595893751807	draw_card	0.704	columbia_card_task_fmri	23.0	0.75	89.0	-60.0	0.25	8.0	1.0	2.0	3.195163336118121	0.704	n/a	stim	poldrack-single-stim	s555	False	1
506.136	1.334	507.47	0.2183101794660953	draw_card	1.334	columbia_card_task_fmri	23.0	0.7142857142857143	89.0	-60.0	0.2857142857142857	8.0	2.0	2.0	4.75018532598056	1.334	n/a	stim	poldrack-single-stim	s555	False	1
507.475	0.475	507.95	-3.7340707729148575	end_round	0.475	columbia_card_task_fmri	23.0	0.6666666666666667	71.0	-60.0	0.3333333333333333	8.0	3.0	2.0	6.380699338503085	0.475	2.0	stim	poldrack-single-stim	s555	False	1
508.706	1.5	507.955	n/a	-1.0	2.454	columbia_card_task_fmri	n/a	n/a	-1.0	n/a	n/a	n/a	n/a	n/a	n/a	n/a	n/a	ITI	poldrack-single-stim	s555	False	0
510.413	0.621	511.034	3.682595893751807	draw_card	0.621	columbia_card_task_fmri	27.0	0.75	89.0	-70.0	0.25	8.0	1.0	2.0	9.255595559771912	0.621	1.0	stim	poldrack-single-stim	s555	False	0
511.79	1.5	511.039	n/a	-1.0	2.658	columbia_card_task_fmri	n/a	n/a	-1.0	n/a	n/a	n/a	n/a	n/a	n/a	n/a	n/a	ITI	poldrack-single-stim	s555	False	0
513.703	0.502	514.205	-1.0674041062481912	draw_card	0.502	columbia_card_task_fmri	16.0	0.7777777777777778	89.0	-65.0	0.2222222222222222	9.0	1.0	2.0	0.9308390122429132	0.502	n/a	stim	poldrack-single-stim	s555	False	1
514.21	0.7	514.91	-3.317404106248193	draw_card	0.7	columbia_card_task_fmri	16.0	0.75	89.0	-65.0	0.25	9.0	2.0	2.0	2.329436538342925	0.7	2.0	stim	poldrack-single-stim	s555	False	0
515.666	1.5	514.915	n/a	-1.0	2.386	columbia_card_task_fmri	n/a	n/a	-1.0	n/a	n/a	n/a	n/a	n/a	n/a	n/a	n/a	ITI	poldrack-single-stim	s555	False	0
517.307	0.822	518.129	4.132595893751808	draw_card	0.822	columbia_card_task_fmri	13.0	0.9	89.0	-85.0	0.1	10.0	1.0	1.0	-3.342200992801242	0.822	n/a	stim	poldrack-single-stim	s555	False	1
518.133	0.726	518.859	3.0437070048629176	draw_card	0.726	columbia_card_task_fmri	13.0	0.8888888888888888	89.0	-85.0	0.1111111111111111	10.0	2.0	1.0	-1.9444434339535943	0.726	n/a	stim	poldrack-single-stim	s555	False	1
518.864	0.643	519.507	1.682595893751807	draw_card	0.643	columbia_card_task_fmri	13.0	0.875	89.0	-85.0	0.125	10.0	3.0	1.0	-0.3331203938097715	0.643	n/a	stim	poldrack-single-stim	s555	False	1
519.51	0.876	520.386	-0.0674041062481911	draw_card	0.876	columbia_card_task_fmri	13.0	0.8571428571428572	89.0	-85.0	0.1428571428571428	10.0	4.0	1.0	1.5485463633930578	0.876	n/a	stim	poldrack-single-stim	s555	False	1
520.392	0.597	520.989	-2.4007374395815253	end_round	0.597	columbia_card_task_fmri	13.0	0.8333333333333334	71.0	-85.0	0.1666666666666666	10.0	5.0	1.0	3.777359863126925	0.597	4.0	stim	poldrack-single-stim	s555	False	1
521.746	1.5	520.995	n/a	-1.0	2.522	columbia_card_task_fmri	n/a	n/a	-1.0	n/a	n/a	n/a	n/a	n/a	n/a	n/a	n/a	ITI	poldrack-single-stim	s555	False	0
523.523	0.878	524.401	-0.8674041062481919	draw_card	0.878	columbia_card_task_fmri	14.0	0.8	89.0	-65.0	0.2	10.0	1.0	2.0	-1.1432300510149531	0.878	n/a	stim	poldrack-single-stim	s555	False	1
524.406	0.846	525.252	-2.6229596618037467	draw_card	0.846	columbia_card_task_fmri	14.0	0.7777777777777778	89.0	-65.0	0.2222222222222222	10.0	2.0	2.0	0.0996863291781551	0.846	n/a	stim	poldrack-single-stim	s555	False	1
525.257	1.386	526.643	-4.817404106248193	end_round	1.386	columbia_card_task_fmri	14.0	0.75	71.0	-65.0	0.25	10.0	3.0	2.0	1.463724851641544	1.386	2.0	stim	poldrack-single-stim	s555	False	1
527.399	1.5	526.648	n/a	-1.0	2.59	columbia_card_task_fmri	n/a	n/a	-1.0	n/a	n/a	n/a	n/a	n/a	n/a	n/a	n/a	ITI	poldrack-single-stim	s555	False	0
529.244	0.792	530.036	0.5325958937518085	draw_card	0.792	columbia_card_task_fmri	17.0	0.8	89.0	-70.0	0.2	10.0	1.0	2.0	2.055505264075073	0.792	1.0	stim	poldrack-single-stim	s555	False	0
530.792	1.5	530.041	n/a	-1.0	2.386	columbia_card_task_fmri	n/a	n/a	-1.0	n/a	n/a	n/a	n/a	n/a	n/a	n/a	n/a	ITI	poldrack-single-stim	s555	False	0
532.433	0.475	532.908	-0.734070772914859	draw_card	0.475	columbia_card_task_fmri	13.0	0.8333333333333334	89.0	-75.0	0.1666666666666666	12.0	1.0	2.0	0.0519322134139628	0.475	n/a	stim	poldrack-single-stim	s555	False	1
532.911	0.801	533.712	-2.067404106248195	draw_card	0.801	columbia_card_task_fmri	13.0	0.8181818181818181	89.0	-75.0	0.1818181818181818	12.0	2.0	2.0	1.1969468005664012	0.801	n/a	stim	poldrack-single-stim	s555	False	1
533.717	0.983	534.7	-3.667404106248193	draw_card	0.983	columbia_card_task_fmri	13.0	0.8	89.0	-75.0	0.2	12.0	3.0	2.0	2.45536333744667	0.983	3.0	stim	poldrack-single-stim	s555	False	0
535.456	1.5	534.705	n/a	-1.0	2.59	columbia_card_task_fmri	n/a	n/a	-1.0	n/a	n/a	n/a	n/a	n/a	n/a	n/a	n/a	ITI	poldrack-single-stim	s555	False	0
537.3	0.754	538.054	0.9325958937518088	draw_card	0.754	columbia_card_task_fmri	14.0	0.8333333333333334	89.0	-70.0	0.1666666666666666	12.0	1.0	2.0	-1.4381487484840498	0.754	n/a	stim	poldrack-single-stim	s555	False	1
538.059	1.079	539.138	-0.3401313789754681	draw_card	1.079	columbia_card_task_fmri	14.0	0.8181818181818181	89.0	-70.0	0.1818181818181818	12.0	2.0	2.0	-0.3452218783835263	1.079	n/a	stim	poldrack-single-stim	s555	False	1
539.142	1.512	540.654	-1.867404106248192	draw_card	1.512	columbia_card_task_fmri	14.0	0.8	89.0	-70.0	0.2	12.0	3.0	2.0	0.8559513077980441	1.512	n/a	stim	poldrack-single-stim	s555	False	1
540.658	0.706	541.364	-3.7340707729148592	end_round	0.706	columbia_card_task_fmri	14.0	0.7777777777777778	71.0	-70.0	0.2222222222222222	12.0	4.0	2.0	2.177597193602168	0.706	3.0	stim	poldrack-single-stim	s555	False	1
542.121	1.5	541.37	n/a	-1.0	2.318	columbia_card_task_fmri	n/a	n/a	-1.0	n/a	n/a	n/a	n/a	n/a	n/a	n/a	n/a	ITI	poldrack-single-stim	s555	False	0
543.695	1.052	544.747	0.9325958937518088	draw_card	1.052	columbia_card_task_fmri	16.0	0.8333333333333334	89.0	-80.0	0.1666666666666666	12.0	1.0	2.0	3.032251806386149	1.052	n/a	stim	poldrack-single-stim	s555	False	1
544.752	1.13	545.882	-0.5219495607936497	draw_card	1.13	columbia_card_task_fmri	16.0	0.8181818181818181	89.0	-80.0	0.1818181818181818	12.0	2.0	2.0	4.281436518517793	1.13	2.0	stim	poldrack-single-stim	s555	False	0
546.638	1.5	545.887	n/a	-1.0	2.25	columbia_card_task_fmri	n/a	n/a	-1.0	n/a	n/a	n/a	n/a	n/a	n/a	n/a	n/a	ITI	poldrack-single-stim	s555	False	0
548.143	0.596	548.739	0.7325958937518078	draw_card	0.596	columbia_card_task_fmri	16.0	0.8	89.0	-65.0	0.2	15.0	1.0	3.0	-0.3435696280030171	0.596	n/a	stim	poldrack-single-stim	s555	False	1
548.744	1.083	549.827	-0.4245469633910488	draw_card	1.083	columbia_card_task_fmri	16.0	0.7857142857142857	89.0	-65.0	0.2142857142857142	15.0	2.0	3.0	0.4924909835042754	1.083	n/a	stim	poldrack-single-stim	s555	False	1
549.832	0.901	550.733	-1.7597117985558863	draw_card	0.901	columbia_card_task_fmri	16.0	0.7692307692307692	89.0	-65.0	0.2307692307692307	15.0	3.0	3.0	1.3830800198259894	0.901	n/a	stim	poldrack-single-stim	s555	False	1
550.738	0.92	551.658	-3.317404106248193	end_round	0.92	columbia_card_task_fmri	16.0	0.75	71.0	-65.0	0.25	15.0	4.0	3.0	2.329436538342925	0.92	3.0	stim	poldrack-single-stim	s555	False	1
552.414	1.5	551.663	n/a	-1.0	2.454	columbia_card_task_fmri	n/a	n/a	-1.0	n/a	n/a	n/a	n/a	n/a	n/a	n/a	n/a	ITI	poldrack-single-stim	s555	False	0
554.122	1.336	555.458	-0.9424041062481928	draw_card	1.336	columbia_card_task_fmri	15.0	0.8125	89.0	-75.0	0.1875	16.0	1.0	3.0	2.383502346757183	1.336	n/a	stim	poldrack-single-stim	s555	False	1
555.463	1.128	556.591	-2.067404106248193	draw_card	1.128	columbia_card_task_fmri	15.0	0.8	89.0	-75.0	0.2	16.0	2.0	3.0	3.2550889411150408	1.128	n/a	stim	poldrack-single-stim	s555	False	1
556.596	1.159	557.755	-3.353118391962478	draw_card	1.159	columbia_card_task_fmri	15.0	0.7857142857142857	89.0	-75.0	0.2142857142857142	16.0	3.0	3.0	4.184116403363326	1.159	n/a	stim	poldrack-single-stim	s555	False	1
557.759	1.093	558.852	-4.836634875478967	draw_card	1.093	columbia_card_task_fmri	15.0	0.7692307692307692	89.0	-75.0	0.2307692307692307	16.0	4.0	3.0	5.173731812064908	1.093	n/a	stim	poldrack-single-stim	s555	False	1
558.856	1.483	560.339	-6.567404106248193	end_round	1.483	columbia_card_task_fmri	15.0	0.75	71.0	-75.0	0.25	16.0	5.0	3.0	6.225311592649376	1.483	4.0	stim	poldrack-single-stim	s555	False	1
561.096	1.5	560.345	n/a	-1.0	3.27	columbia_card_task_fmri	n/a	n/a	-1.0	n/a	n/a	n/a	n/a	n/a	n/a	n/a	n/a	ITI	poldrack-single-stim	s555	False	0
563.62	0.857	564.477	-0.3799041062481929	draw_card	0.857	columbia_card_task_fmri	14.0	0.6875	89.0	-35.0	0.3125	16.0	1.0	5.0	-10.025741936190045	0.857	1.0	stim	poldrack-single-stim	s555	False	0
565.233	1.5	564.482	n/a	-1.0	2.25	columbia_card_task_fmri	n/a	n/a	-1.0	n/a	n/a	n/a	n/a	n/a	n/a	n/a	n/a	ITI	poldrack-single-stim	s555	False	0
566.737	0.926	567.663	4.799262560418474	draw_card	0.926	columbia_card_task_fmri	16.0	0.8666666666666667	89.0	-75.0	0.1333333333333333	15.0	1.0	2.0	-1.8088822723901397	0.926	n/a	stim	poldrack-single-stim	s555	False	1
567.669	1.462	569.131	3.9325958937518086	draw_card	1.462	columbia_card_task_fmri	16.0	0.8571428571428572	89.0	-75.0	0.1428571428571428	15.0	2.0	2.0	-0.8999685015798455	1.462	n/a	stim	poldrack-single-stim	s555	False	1
569.136	1.117	570.253	2.932595893751807	draw_card	1.117	columbia_card_task_fmri	16.0	0.8461538461538461	89.0	-75.0	0.1538461538461538	15.0	3.0	2.0	0.0891638288435672	1.117	n/a	stim	poldrack-single-stim	s555	False	1
570.257	1.379	571.636	1.765929227085141	draw_card	1.379	columbia_card_task_fmri	16.0	0.8333333333333334	89.0	-75.0	0.1666666666666666	15.0	4.0	2.0	1.169529318576636	1.379	n/a	stim	poldrack-single-stim	s555	False	1
571.642	1.79	573.432	0.3871413482972603	end_round	1.79	columbia_card_task_fmri	16.0	0.8181818181818181	71.0	-75.0	0.1818181818181818	15.0	5.0	2.0	2.353608468477667	1.79	4.0	stim	poldrack-single-stim	s555	False	1
574.188	1.5	573.437	n/a	-1.0	2.25	columbia_card_task_fmri	n/a	n/a	-1.0	n/a	n/a	n/a	n/a	n/a	n/a	n/a	n/a	ITI	poldrack-single-stim	s555	False	0
575.694	1.355	577.049	5.46592922708514	draw_card	1.355	columbia_card_task_fmri	16.0	0.8666666666666667	89.0	-70.0	0.1333333333333333	15.0	1.0	2.0	-3.5077387139885445	1.355	n/a	stim	poldrack-single-stim	s555	False	1
577.054	1.373	578.427	4.646881608037522	draw_card	1.373	columbia_card_task_fmri	16.0	0.8571428571428572	89.0	-70.0	0.1428571428571428	15.0	2.0	2.0	-2.6488105927369148	1.373	n/a	stim	poldrack-single-stim	s555	False	1
578.432	1.535	579.967	3.701826662982575	draw_card	1.535	columbia_card_task_fmri	16.0	0.8461538461538461	89.0	-70.0	0.1538461538461538	15.0	3.0	2.0	-1.7140726754084952	1.535	n/a	stim	poldrack-single-stim	s555	False	1
579.972	0.834	580.806	2.5992625604184747	draw_card	0.834	columbia_card_task_fmri	16.0	0.8333333333333334	89.0	-70.0	0.1666666666666666	15.0	4.0	2.0	-0.6931156003554975	0.834	n/a	stim	poldrack-single-stim	s555	False	1
580.81	2.574	583.384	1.2962322573881686	draw_card	2.574	columbia_card_task_fmri	16.0	0.8181818181818181	89.0	-70.0	0.1818181818181818	15.0	5.0	2.0	0.425855375145467	2.574	n/a	stim	poldrack-single-stim	s555	False	1
583.389	1.596	584.985	-0.2674041062481922	draw_card	1.596	columbia_card_task_fmri	16.0	0.8	89.0	-70.0	0.2	15.0	6.0	2.0	1.6556504895253	1.596	n/a	stim	poldrack-single-stim	s555	False	1
584.99	0.961	585.951	-2.178515217359304	end_round	0.961	columbia_card_task_fmri	16.0	0.7777777777777778	71.0	-70.0	0.2222222222222222	15.0	7.0	2.0	3.008787171322389	0.961	6.0	stim	poldrack-single-stim	s555	False	1
586.707	1.5	585.956	n/a	-1.0	2.318	columbia_card_task_fmri	n/a	n/a	-1.0	n/a	n/a	n/a	n/a	n/a	n/a	n/a	n/a	ITI	poldrack-single-stim	s555	False	0
588.281	1.182	589.463	2.807595893751807	draw_card	1.182	columbia_card_task_fmri	8.0	0.9375	89.0	-90.0	0.0625	16.0	1.0	1.0	-9.016640962166786	1.182	n/a	stim	poldrack-single-stim	s555	False	1
589.467	1.247	590.714	2.3992625604184736	draw_card	1.247	columbia_card_task_fmri	8.0	0.9333333333333332	89.0	-90.0	0.0666666666666666	16.0	2.0	1.0	-8.293710956530973	1.247	n/a	stim	poldrack-single-stim	s555	False	1
590.718	1.104	591.822	1.932595893751808	draw_card	1.104	columbia_card_task_fmri	8.0	0.9285714285714286	89.0	-90.0	0.0714285714285714	16.0	3.0	1.0	-7.500905556481303	1.104	n/a	stim	poldrack-single-stim	s555	False	1
591.827	1.117	592.944	1.3941343552902687	draw_card	1.117	columbia_card_task_fmri	8.0	0.9230769230769232	89.0	-90.0	0.0769230769230769	16.0	4.0	1.0	-6.626344540751866	1.117	n/a	stim	poldrack-single-stim	s555	False	1
592.951	1.025	593.976	0.7659292270851401	draw_card	1.025	columbia_card_task_fmri	8.0	0.9166666666666666	89.0	-90.0	0.0833333333333333	16.0	5.0	1.0	-5.655169117381298	1.025	n/a	stim	poldrack-single-stim	s555	False	1
593.98	1.106	595.086	0.0235049846608979	draw_card	1.106	columbia_card_task_fmri	8.0	0.9090909090909092	89.0	-90.0	0.0909090909090909	16.0	6.0	1.0	-4.568538155629703	1.106	n/a	stim	poldrack-single-stim	s555	False	1
595.092	1.747	596.839	-0.8674041062481928	draw_card	1.747	columbia_card_task_fmri	8.0	0.9	89.0	-90.0	0.1	16.0	7.0	1.0	-3.342200992801242	1.747	n/a	stim	poldrack-single-stim	s555	False	1
596.844	1.01	597.854	-1.9562929951370824	end_round	1.01	columbia_card_task_fmri	8.0	0.8888888888888888	71.0	-90.0	0.1111111111111111	16.0	8.0	1.0	-1.9444434339535943	1.01	7.0	stim	poldrack-single-stim	s555	False	1
598.609	1.5	597.858	n/a	-1.0	2.726	columbia_card_task_fmri	n/a	n/a	-1.0	n/a	n/a	n/a	n/a	n/a	n/a	n/a	n/a	ITI	poldrack-single-stim	s555	False	0
600.591	1.042	601.633	4.370095893751807	draw_card	1.042	columbia_card_task_fmri	10.0	0.9375	89.0	-95.0	0.0625	16.0	1.0	1.0	-7.323431545977954	1.042	n/a	stim	poldrack-single-stim	s555	False	1
601.638	0.95	602.588	3.932595893751808	draw_card	0.95	columbia_card_task_fmri	10.0	0.9333333333333332	89.0	-95.0	0.0666666666666666	16.0	2.0	1.0	-6.548788918693351	0.95	n/a	stim	poldrack-single-stim	s555	False	1
602.593	1.13	603.723	3.432595893751808	draw_card	1.13	columbia_card_task_fmri	10.0	0.9285714285714286	89.0	-95.0	0.0714285714285714	16.0	3.0	1.0	-5.699277492309346	1.13	3.0	stim	poldrack-single-stim	s555	False	0
604.479	1.5	603.728	n/a	-1.0	2.386	columbia_card_task_fmri	n/a	n/a	-1.0	n/a	n/a	n/a	n/a	n/a	n/a	n/a	n/a	ITI	poldrack-single-stim	s555	False	0
606.119	0.673	606.792	5.307595893751807	draw_card	0.673	columbia_card_task_fmri	15.0	0.875	89.0	-70.0	0.125	16.0	1.0	2.0	-4.6304156626328	0.673	1.0	stim	poldrack-single-stim	s555	False	0
607.549	1.5	606.798	n/a	-1.0	2.318	columbia_card_task_fmri	n/a	n/a	-1.0	n/a	n/a	n/a	n/a	n/a	n/a	n/a	n/a	ITI	poldrack-single-stim	s555	False	0
609.123	1.008	610.131	4.307595893751807	draw_card	1.008	columbia_card_task_fmri	16.0	0.875	89.0	-85.0	0.125	16.0	1.0	2.0	0.658638048016293	1.008	n/a	stim	poldrack-single-stim	s555	False	1
610.136	1.344	611.48	3.46592922708514	draw_card	1.344	columbia_card_task_fmri	16.0	0.8666666666666667	89.0	-85.0	0.1333333333333333	16.0	2.0	2.0	1.589073056902457	1.344	n/a	stim	poldrack-single-stim	s555	False	1
611.484	1.684	613.168	2.50402446518038	draw_card	1.684	columbia_card_task_fmri	16.0	0.8571428571428572	89.0	-85.0	0.1428571428571428	16.0	3.0	2.0	2.5979512211634628	1.684	n/a	stim	poldrack-single-stim	s555	False	1
613.174	1.438	614.612	1.394134355290267	draw_card	1.438	columbia_card_task_fmri	16.0	0.8461538461538461	89.0	-85.0	0.1538461538461538	16.0	4.0	2.0	3.6958652958592353	1.438	n/a	stim	poldrack-single-stim	s555	False	1
614.617	0.677	615.294	0.0992625604184749	end_round	0.677	columbia_card_task_fmri	16.0	0.8333333333333334	71.0	-85.0	0.1666666666666666	16.0	5.0	2.0	4.895040350604205	0.677	4.0	stim	poldrack-single-stim	s555	False	1
616.05	1.5	615.299	n/a	-1.0	2.25	columbia_card_task_fmri	n/a	n/a	-1.0	n/a	n/a	n/a	n/a	n/a	n/a	n/a	n/a	ITI	poldrack-single-stim	s555	False	0
