onset	duration	SS_delay	block_duration	correct	correct_response	experiment_exp_id	key_press	passed_check	response_time	stop_response	stopped	trial_id	trial_type	worker_id	junk
3.007	0.85	0.4	2.65	1.0	89.0	motor_selective_stop_signal	89.0	True	0.549	71.0	False	stim	noncrit_nosignal	s555	False
5.66	0.85	0.4	2.25	1.0	71.0	motor_selective_stop_signal	-1.0	True	n/a	71.0	True	stim	crit_stop_success	s555	False
7.913	0.85	0.45	2.65	1.0	89.0	motor_selective_stop_signal	89.0	True	0.584	71.0	False	stim	noncrit_signal	s555	False
10.564	0.85	0.45	2.35	1.0	89.0	motor_selective_stop_signal	89.0	True	0.453	71.0	False	stim	noncrit_nosignal	s555	False
12.917	0.85	0.45	2.25	1.0	89.0	motor_selective_stop_signal	89.0	True	0.602	71.0	False	stim	noncrit_nosignal	s555	False
15.17	0.85	0.45	2.25	1.0	89.0	motor_selective_stop_signal	89.0	True	0.554	71.0	False	stim	noncrit_nosignal	s555	False
17.422	0.85	0.45	2.25	1.0	89.0	motor_selective_stop_signal	89.0	True	0.503	71.0	False	stim	noncrit_nosignal	s555	False
19.674	0.85	0.45	2.35	1.0	89.0	motor_selective_stop_signal	89.0	True	0.566	71.0	False	stim	noncrit_nosignal	s555	False
22.027	0.85	0.45	2.55	1.0	89.0	motor_selective_stop_signal	89.0	True	0.545	71.0	False	stim	noncrit_signal	s555	False
24.58	0.85	0.45	2.35	1.0	89.0	motor_selective_stop_signal	89.0	True	0.471	71.0	False	stim	noncrit_nosignal	s555	False
26.933	0.85	0.45	2.45	1.0	71.0	motor_selective_stop_signal	-1.0	True	n/a	71.0	True	stim	crit_stop_success	s555	False
29.386	0.85	0.5	2.45	1.0	89.0	motor_selective_stop_signal	89.0	True	0.589	71.0	False	stim	noncrit_nosignal	s555	False
31.84	0.85	0.5	2.35	1.0	71.0	motor_selective_stop_signal	-1.0	True	n/a	71.0	True	stim	crit_stop_success	s555	False
34.192	0.85	0.55	2.25	1.0	89.0	motor_selective_stop_signal	89.0	True	0.49	71.0	False	stim	noncrit_signal	s555	False
36.445	0.85	0.55	2.55	1.0	71.0	motor_selective_stop_signal	71.0	True	0.687	71.0	False	stim	crit_go	s555	False
38.998	0.85	0.55	2.55	1.0	89.0	motor_selective_stop_signal	89.0	True	0.588	71.0	False	stim	noncrit_nosignal	s555	False
41.551	0.85	0.55	2.25	1.0	89.0	motor_selective_stop_signal	89.0	True	0.631	71.0	False	stim	noncrit_signal	s555	False
43.804	0.85	0.55	2.25	1.0	89.0	motor_selective_stop_signal	89.0	True	0.624	71.0	False	stim	noncrit_nosignal	s555	False
46.058	0.85	0.55	2.45	1.0	71.0	motor_selective_stop_signal	71.0	True	0.74	71.0	False	stim	crit_stop_failure	s555	False
48.511	0.85	0.5	2.35	1.0	89.0	motor_selective_stop_signal	89.0	True	0.623	71.0	False	stim	noncrit_nosignal	s555	False
50.863	0.85	0.5	2.25	1.0	71.0	motor_selective_stop_signal	71.0	True	0.851	71.0	False	stim	crit_go	s555	False
53.115	0.85	0.5	3.15	1.0	71.0	motor_selective_stop_signal	71.0	True	0.935	71.0	False	stim	crit_go	s555	False
56.268	0.85	0.5	2.65	1.0	71.0	motor_selective_stop_signal	71.0	True	0.742	71.0	False	stim	crit_go	s555	False
58.921	0.85	0.5	2.25	1.0	89.0	motor_selective_stop_signal	89.0	True	0.401	71.0	False	stim	noncrit_signal	s555	False
61.174	0.85	0.5	2.45	1.0	71.0	motor_selective_stop_signal	-1.0	True	n/a	71.0	True	stim	crit_stop_success	s555	False
63.628	0.85	0.55	2.85	1.0	89.0	motor_selective_stop_signal	89.0	True	0.603	71.0	False	stim	noncrit_signal	s555	False
66.481	0.85	0.55	2.45	1.0	89.0	motor_selective_stop_signal	89.0	True	0.703	71.0	False	stim	noncrit_nosignal	s555	False
68.933	0.85	0.55	2.25	1.0	89.0	motor_selective_stop_signal	89.0	True	0.508	71.0	False	stim	noncrit_nosignal	s555	False
71.186	0.85	0.55	2.25	1.0	71.0	motor_selective_stop_signal	71.0	True	0.824	71.0	False	stim	crit_go	s555	False
73.439	0.85	0.55	2.55	1.0	89.0	motor_selective_stop_signal	89.0	True	0.611	71.0	False	stim	noncrit_signal	s555	False
75.992	0.85	0.55	2.25	1.0	71.0	motor_selective_stop_signal	-1.0	True	n/a	71.0	True	stim	crit_stop_success	s555	False
78.245	0.85	0.6	2.35	1.0	89.0	motor_selective_stop_signal	89.0	True	0.697	71.0	False	stim	noncrit_nosignal	s555	False
80.597	0.85	0.6	2.35	1.0	71.0	motor_selective_stop_signal	71.0	True	0.77	71.0	False	stim	crit_stop_failure	s555	False
82.95	0.85	0.55	2.25	1.0	71.0	motor_selective_stop_signal	71.0	True	1.325	71.0	False	stim	crit_go	s555	False
85.203	0.85	0.55	2.35	1.0	89.0	motor_selective_stop_signal	89.0	True	0.609	71.0	False	stim	noncrit_signal	s555	False
87.556	0.85	0.55	2.25	1.0	89.0	motor_selective_stop_signal	89.0	True	0.714	71.0	False	stim	noncrit_nosignal	s555	False
89.809	0.85	0.55	2.45	1.0	89.0	motor_selective_stop_signal	89.0	True	0.579	71.0	False	stim	noncrit_nosignal	s555	False
92.262	0.85	0.55	2.25	1.0	89.0	motor_selective_stop_signal	89.0	True	0.508	71.0	False	stim	noncrit_nosignal	s555	False
94.514	0.85	0.55	2.35	1.0	71.0	motor_selective_stop_signal	71.0	True	0.891	71.0	False	stim	crit_go	s555	False
96.868	0.85	0.55	2.45	1.0	89.0	motor_selective_stop_signal	89.0	True	0.608	71.0	False	stim	noncrit_signal	s555	False
99.32	0.85	0.55	2.25	1.0	71.0	motor_selective_stop_signal	71.0	True	0.684	71.0	False	stim	crit_stop_failure	s555	False
101.573	0.85	0.5	2.25	1.0	71.0	motor_selective_stop_signal	71.0	True	0.744	71.0	False	stim	crit_go	s555	False
103.827	0.85	0.5	2.85	1.0	89.0	motor_selective_stop_signal	89.0	True	0.518	71.0	False	stim	noncrit_nosignal	s555	False
106.679	0.85	0.5	2.25	1.0	71.0	motor_selective_stop_signal	71.0	True	0.699	71.0	False	stim	crit_go	s555	False
108.932	0.85	0.5	3.45	1.0	89.0	motor_selective_stop_signal	89.0	True	0.658	71.0	False	stim	noncrit_nosignal	s555	False
112.384	0.85	0.5	2.35	1.0	89.0	motor_selective_stop_signal	89.0	True	0.515	71.0	False	stim	noncrit_signal	s555	False
114.738	0.85	0.5	2.35	1.0	89.0	motor_selective_stop_signal	89.0	True	0.587	71.0	False	stim	noncrit_signal	s555	False
117.091	0.85	0.5	2.35	1.0	71.0	motor_selective_stop_signal	71.0	True	0.774	71.0	False	stim	crit_go	s555	False
119.444	0.85	0.5	2.45	1.0	71.0	motor_selective_stop_signal	-1.0	True	n/a	71.0	True	stim	crit_stop_success	s555	False
121.896	0.85	0.55	2.55	1.0	89.0	motor_selective_stop_signal	89.0	True	0.545	71.0	False	stim	noncrit_signal	s555	False
134.957	0.85	0.55	2.35	1.0	71.0	motor_selective_stop_signal	71.0	True	0.775	71.0	False	stim	crit_go	s555	False
137.31	0.85	0.55	2.25	1.0	71.0	motor_selective_stop_signal	-1.0	True	n/a	71.0	True	stim	crit_stop_success	s555	False
139.562	0.85	0.6	2.25	1.0	71.0	motor_selective_stop_signal	71.0	True	0.788	71.0	False	stim	crit_go	s555	False
141.814	0.85	0.6	3.05	1.0	89.0	motor_selective_stop_signal	89.0	True	0.473	71.0	False	stim	noncrit_nosignal	s555	False
144.867	0.85	0.6	2.45	1.0	71.0	motor_selective_stop_signal	71.0	True	0.856	71.0	False	stim	crit_go	s555	False
147.32	0.85	0.6	2.35	1.0	89.0	motor_selective_stop_signal	89.0	True	0.552	71.0	False	stim	noncrit_nosignal	s555	False
149.673	0.85	0.6	2.25	1.0	71.0	motor_selective_stop_signal	71.0	True	0.746	71.0	False	stim	crit_stop_failure	s555	False
151.926	0.85	0.55	3.25	1.0	71.0	motor_selective_stop_signal	-1.0	True	n/a	71.0	True	stim	crit_stop_success	s555	False
155.179	0.85	0.6	2.95	1.0	71.0	motor_selective_stop_signal	71.0	True	0.851	71.0	False	stim	crit_go	s555	False
158.13	0.85	0.6	2.55	1.0	71.0	motor_selective_stop_signal	-1.0	True	n/a	71.0	True	stim	crit_stop_success	s555	False
160.682	0.85	0.65	2.35	1.0	89.0	motor_selective_stop_signal	89.0	True	0.477	71.0	False	stim	noncrit_nosignal	s555	False
163.036	0.85	0.65	2.55	1.0	71.0	motor_selective_stop_signal	71.0	True	0.81	71.0	False	stim	crit_stop_failure	s555	False
165.589	0.85	0.6	2.35	1.0	71.0	motor_selective_stop_signal	71.0	True	0.919	71.0	False	stim	crit_go	s555	False
167.942	0.85	0.6	2.25	1.0	71.0	motor_selective_stop_signal	71.0	True	1.038	71.0	False	stim	crit_go	s555	False
170.195	0.85	0.6	2.45	1.0	89.0	motor_selective_stop_signal	89.0	True	0.588	71.0	False	stim	noncrit_signal	s555	False
172.648	0.85	0.6	2.35	1.0	71.0	motor_selective_stop_signal	71.0	True	0.973	71.0	False	stim	crit_go	s555	False
175.001	0.85	0.6	2.65	1.0	89.0	motor_selective_stop_signal	89.0	True	0.504	71.0	False	stim	noncrit_signal	s555	False
177.653	0.85	0.6	2.25	1.0	71.0	motor_selective_stop_signal	71.0	True	0.757	71.0	False	stim	crit_go	s555	False
179.906	0.85	0.6	2.25	1.0	71.0	motor_selective_stop_signal	71.0	True	0.848	71.0	False	stim	crit_stop_failure	s555	False
182.158	0.85	0.55	2.45	1.0	71.0	motor_selective_stop_signal	71.0	True	0.929	71.0	False	stim	crit_go	s555	False
184.611	0.85	0.55	2.25	1.0	71.0	motor_selective_stop_signal	71.0	True	0.91	71.0	False	stim	crit_go	s555	False
186.864	0.85	0.55	2.55	1.0	71.0	motor_selective_stop_signal	71.0	True	0.796	71.0	False	stim	crit_stop_failure	s555	False
189.417	0.85	0.5	2.25	1.0	71.0	motor_selective_stop_signal	71.0	True	0.902	71.0	False	stim	crit_go	s555	False
191.67	0.85	0.5	2.35	1.0	89.0	motor_selective_stop_signal	89.0	True	0.508	71.0	False	stim	noncrit_signal	s555	False
194.023	0.85	0.5	2.25	1.0	71.0	motor_selective_stop_signal	-1.0	True	n/a	71.0	True	stim	crit_stop_success	s555	False
196.276	0.85	0.55	2.55	1.0	71.0	motor_selective_stop_signal	-1.0	True	n/a	71.0	True	stim	crit_stop_success	s555	False
198.829	0.85	0.6	2.55	1.0	89.0	motor_selective_stop_signal	89.0	True	0.541	71.0	False	stim	noncrit_nosignal	s555	False
201.382	0.85	0.6	2.35	1.0	89.0	motor_selective_stop_signal	89.0	True	0.438	71.0	False	stim	noncrit_nosignal	s555	False
203.735	0.85	0.6	2.35	1.0	89.0	motor_selective_stop_signal	89.0	True	0.633	71.0	False	stim	noncrit_nosignal	s555	False
206.087	0.85	0.6	2.25	1.0	89.0	motor_selective_stop_signal	89.0	True	0.451	71.0	False	stim	noncrit_nosignal	s555	False
208.339	0.85	0.6	2.45	1.0	89.0	motor_selective_stop_signal	89.0	True	0.534	71.0	False	stim	noncrit_signal	s555	False
210.792	0.85	0.6	2.25	1.0	89.0	motor_selective_stop_signal	89.0	True	0.538	71.0	False	stim	noncrit_nosignal	s555	False
213.044	0.85	0.6	2.45	1.0	89.0	motor_selective_stop_signal	89.0	True	0.535	71.0	False	stim	noncrit_signal	s555	False
215.496	0.85	0.6	2.65	1.0	71.0	motor_selective_stop_signal	71.0	True	0.8	71.0	False	stim	crit_stop_failure	s555	False
218.149	0.85	0.55	2.45	1.0	71.0	motor_selective_stop_signal	71.0	True	0.862	71.0	False	stim	crit_go	s555	False
220.601	0.85	0.55	2.35	1.0	89.0	motor_selective_stop_signal	89.0	True	0.664	71.0	False	stim	noncrit_nosignal	s555	False
222.954	0.85	0.55	2.25	1.0	89.0	motor_selective_stop_signal	89.0	True	0.453	71.0	False	stim	noncrit_signal	s555	False
225.207	0.85	0.55	2.55	1.0	71.0	motor_selective_stop_signal	71.0	True	1.102	71.0	False	stim	crit_go	s555	False
227.761	0.85	0.55	2.25	1.0	89.0	motor_selective_stop_signal	89.0	True	0.597	71.0	False	stim	noncrit_nosignal	s555	False
230.014	0.85	0.55	2.25	1.0	71.0	motor_selective_stop_signal	71.0	True	1.104	71.0	False	stim	crit_go	s555	False
232.267	0.85	0.55	2.35	1.0	71.0	motor_selective_stop_signal	71.0	True	0.949	71.0	False	stim	crit_go	s555	False
234.62	0.85	0.55	2.25	1.0	71.0	motor_selective_stop_signal	71.0	True	0.897	71.0	False	stim	crit_go	s555	False
236.871	0.85	0.55	2.65	1.0	89.0	motor_selective_stop_signal	89.0	True	0.521	71.0	False	stim	noncrit_signal	s555	False
239.523	0.85	0.55	2.35	1.0	89.0	motor_selective_stop_signal	89.0	True	0.39	71.0	False	stim	noncrit_signal	s555	False
241.876	0.85	0.55	2.45	1.0	89.0	motor_selective_stop_signal	89.0	True	0.601	71.0	False	stim	noncrit_nosignal	s555	False
244.329	0.85	0.55	2.35	1.0	89.0	motor_selective_stop_signal	89.0	True	0.479	71.0	False	stim	noncrit_signal	s555	False
246.681	0.85	0.55	2.25	1.0	71.0	motor_selective_stop_signal	71.0	True	0.65	71.0	False	stim	crit_stop_failure	s555	False
248.934	0.85	0.5	2.25	1.0	71.0	motor_selective_stop_signal	71.0	True	0.757	71.0	False	stim	crit_go	s555	False
251.186	0.85	0.5	2.25	1.0	71.0	motor_selective_stop_signal	-1.0	True	n/a	71.0	True	stim	crit_stop_success	s555	False
253.439	0.85	0.55	2.25	1.0	71.0	motor_selective_stop_signal	71.0	True	0.888	71.0	False	stim	crit_go	s555	False
266.199	0.85	0.55	2.35	1.0	71.0	motor_selective_stop_signal	71.0	True	0.787	71.0	False	stim	crit_stop_failure	s555	False
268.551	0.85	0.5	3.35	1.0	89.0	motor_selective_stop_signal	89.0	True	0.468	71.0	False	stim	noncrit_nosignal	s555	False
271.904	0.85	0.5	2.55	1.0	89.0	motor_selective_stop_signal	89.0	True	0.551	71.0	False	stim	noncrit_nosignal	s555	False
274.457	0.85	0.5	2.75	1.0	71.0	motor_selective_stop_signal	-1.0	True	n/a	71.0	True	stim	crit_stop_success	s555	False
277.21	0.85	0.55	2.75	1.0	71.0	motor_selective_stop_signal	71.0	True	0.87	71.0	False	stim	crit_go	s555	False
279.962	0.85	0.55	2.65	1.0	89.0	motor_selective_stop_signal	89.0	True	0.496	71.0	False	stim	noncrit_nosignal	s555	False
282.614	0.85	0.55	2.45	1.0	71.0	motor_selective_stop_signal	-1.0	True	n/a	71.0	True	stim	crit_stop_success	s555	False
285.067	0.85	0.6	2.25	1.0	71.0	motor_selective_stop_signal	71.0	True	0.967	71.0	False	stim	crit_go	s555	False
287.32	0.85	0.6	2.35	1.0	71.0	motor_selective_stop_signal	71.0	True	0.915	71.0	False	stim	crit_go	s555	False
289.672	0.85	0.6	2.45	1.0	71.0	motor_selective_stop_signal	71.0	True	0.885	71.0	False	stim	crit_go	s555	False
292.125	0.85	0.6	3.05	1.0	89.0	motor_selective_stop_signal	89.0	True	0.498	71.0	False	stim	noncrit_nosignal	s555	False
295.179	0.85	0.6	2.35	1.0	71.0	motor_selective_stop_signal	71.0	True	0.827	71.0	False	stim	crit_go	s555	False
297.531	0.85	0.6	2.25	1.0	89.0	motor_selective_stop_signal	89.0	True	0.544	71.0	False	stim	noncrit_signal	s555	False
299.784	0.85	0.6	2.35	1.0	71.0	motor_selective_stop_signal	71.0	True	1.049	71.0	False	stim	crit_go	s555	False
302.137	0.85	0.6	2.35	1.0	89.0	motor_selective_stop_signal	89.0	True	0.545	71.0	False	stim	noncrit_nosignal	s555	False
304.49	0.85	0.6	2.35	1.0	71.0	motor_selective_stop_signal	71.0	True	0.787	71.0	False	stim	crit_go	s555	False
306.843	0.85	0.6	2.35	1.0	89.0	motor_selective_stop_signal	89.0	True	0.523	71.0	False	stim	noncrit_signal	s555	False
309.195	0.85	0.6	2.35	1.0	71.0	motor_selective_stop_signal	71.0	True	0.795	71.0	False	stim	crit_go	s555	False
311.548	0.85	0.6	2.25	1.0	71.0	motor_selective_stop_signal	71.0	True	0.886	71.0	False	stim	crit_go	s555	False
313.8	0.85	0.6	2.35	1.0	71.0	motor_selective_stop_signal	71.0	True	0.699	71.0	False	stim	crit_stop_failure	s555	False
316.153	0.85	0.55	2.45	1.0	89.0	motor_selective_stop_signal	89.0	True	0.542	71.0	False	stim	noncrit_nosignal	s555	False
318.605	0.85	0.55	2.35	1.0	89.0	motor_selective_stop_signal	89.0	True	0.493	71.0	False	stim	noncrit_nosignal	s555	False
320.957	0.85	0.55	2.85	1.0	71.0	motor_selective_stop_signal	71.0	True	0.946	71.0	False	stim	crit_go	s555	False
323.81	0.85	0.55	2.55	1.0	89.0	motor_selective_stop_signal	89.0	True	0.454	71.0	False	stim	noncrit_nosignal	s555	False
326.363	0.85	0.55	2.75	1.0	71.0	motor_selective_stop_signal	71.0	True	0.939	71.0	False	stim	crit_go	s555	False
329.116	0.85	0.55	2.25	1.0	89.0	motor_selective_stop_signal	89.0	True	0.493	71.0	False	stim	noncrit_signal	s555	False
331.369	0.85	0.55	2.25	1.0	71.0	motor_selective_stop_signal	71.0	True	0.887	71.0	False	stim	crit_go	s555	False
333.623	0.85	0.55	2.85	1.0	71.0	motor_selective_stop_signal	-1.0	True	n/a	71.0	True	stim	crit_stop_success	s555	False
336.476	0.85	0.6	2.35	1.0	71.0	motor_selective_stop_signal	71.0	True	0.838	71.0	False	stim	crit_go	s555	False
338.829	0.85	0.6	2.25	1.0	89.0	motor_selective_stop_signal	89.0	True	0.503	71.0	False	stim	noncrit_nosignal	s555	False
341.081	0.85	0.6	2.25	1.0	71.0	motor_selective_stop_signal	-1.0	True	n/a	71.0	True	stim	crit_stop_success	s555	False
343.335	0.85	0.65	2.25	1.0	71.0	motor_selective_stop_signal	71.0	True	0.846	71.0	False	stim	crit_go	s555	False
345.588	0.85	0.65	2.35	1.0	71.0	motor_selective_stop_signal	71.0	True	0.88	71.0	False	stim	crit_go	s555	False
347.941	0.85	0.65	2.65	1.0	71.0	motor_selective_stop_signal	71.0	True	0.876	71.0	False	stim	crit_go	s555	False
350.594	0.85	0.65	2.75	1.0	71.0	motor_selective_stop_signal	-1.0	True	n/a	71.0	True	stim	crit_stop_success	s555	False
353.347	0.85	0.7	2.25	1.0	71.0	motor_selective_stop_signal	71.0	True	0.998	71.0	False	stim	crit_go	s555	False
355.6	0.85	0.7	2.75	1.0	71.0	motor_selective_stop_signal	71.0	True	0.799	71.0	False	stim	crit_stop_failure	s555	False
358.352	0.85	0.65	2.25	1.0	89.0	motor_selective_stop_signal	89.0	True	0.481	71.0	False	stim	noncrit_signal	s555	False
360.605	0.85	0.65	2.35	1.0	71.0	motor_selective_stop_signal	71.0	True	0.861	71.0	False	stim	crit_go	s555	False
362.957	0.85	0.65	2.35	1.0	71.0	motor_selective_stop_signal	71.0	True	0.93	71.0	False	stim	crit_go	s555	False
365.31	0.85	0.65	2.55	1.0	89.0	motor_selective_stop_signal	89.0	True	0.512	71.0	False	stim	noncrit_nosignal	s555	False
367.863	0.85	0.65	2.25	1.0	89.0	motor_selective_stop_signal	89.0	True	0.485	71.0	False	stim	noncrit_nosignal	s555	False
370.116	0.85	0.65	2.25	1.0	89.0	motor_selective_stop_signal	89.0	True	0.454	71.0	False	stim	noncrit_signal	s555	False
372.368	0.85	0.65	2.25	1.0	89.0	motor_selective_stop_signal	89.0	True	0.534	71.0	False	stim	noncrit_nosignal	s555	False
374.621	0.85	0.65	2.35	1.0	89.0	motor_selective_stop_signal	89.0	True	0.571	71.0	False	stim	noncrit_nosignal	s555	False
376.974	0.85	0.65	2.65	1.0	71.0	motor_selective_stop_signal	-1.0	True	n/a	71.0	True	stim	crit_stop_success	s555	False
379.627	0.85	0.7	2.35	1.0	89.0	motor_selective_stop_signal	89.0	True	0.526	71.0	False	stim	noncrit_nosignal	s555	False
381.979	0.85	0.7	2.25	1.0	89.0	motor_selective_stop_signal	89.0	True	0.482	71.0	False	stim	noncrit_signal	s555	False
384.233	0.85	0.7	2.35	1.0	71.0	motor_selective_stop_signal	71.0	True	0.788	71.0	False	stim	crit_go	s555	False
386.585	0.85	0.7	2.35	1.0	71.0	motor_selective_stop_signal	71.0	True	0.813	71.0	False	stim	crit_stop_failure	s555	False
399.444	0.85	0.65	2.85	1.0	89.0	motor_selective_stop_signal	89.0	True	0.466	71.0	False	stim	noncrit_nosignal	s555	False
402.297	0.85	0.65	2.45	1.0	89.0	motor_selective_stop_signal	89.0	True	0.61	71.0	False	stim	noncrit_nosignal	s555	False
404.75	0.85	0.65	2.35	1.0	71.0	motor_selective_stop_signal	71.0	True	0.926	71.0	False	stim	crit_go	s555	False
407.103	0.85	0.65	2.65	1.0	71.0	motor_selective_stop_signal	71.0	True	0.942	71.0	False	stim	crit_go	s555	False
409.756	0.85	0.65	2.25	1.0	71.0	motor_selective_stop_signal	71.0	True	1.014	71.0	False	stim	crit_go	s555	False
412.009	0.85	0.65	2.25	1.0	89.0	motor_selective_stop_signal	89.0	True	0.468	71.0	False	stim	noncrit_signal	s555	False
414.261	0.85	0.65	2.25	1.0	71.0	motor_selective_stop_signal	71.0	True	0.773	71.0	False	stim	crit_go	s555	False
416.513	0.85	0.65	2.45	1.0	71.0	motor_selective_stop_signal	71.0	True	0.836	71.0	False	stim	crit_go	s555	False
418.967	0.85	0.65	2.35	1.0	89.0	motor_selective_stop_signal	89.0	True	0.491	71.0	False	stim	noncrit_nosignal	s555	False
421.319	0.85	0.65	2.25	1.0	71.0	motor_selective_stop_signal	71.0	True	0.763	71.0	False	stim	crit_stop_failure	s555	False
423.572	0.85	0.6	2.35	1.0	71.0	motor_selective_stop_signal	71.0	True	0.741	71.0	False	stim	crit_stop_failure	s555	False
425.925	0.85	0.55	2.45	1.0	89.0	motor_selective_stop_signal	89.0	True	0.493	71.0	False	stim	noncrit_signal	s555	False
428.379	0.85	0.55	2.35	1.0	89.0	motor_selective_stop_signal	89.0	True	0.754	71.0	False	stim	noncrit_nosignal	s555	False
430.731	0.85	0.55	2.25	1.0	89.0	motor_selective_stop_signal	89.0	True	0.718	71.0	False	stim	noncrit_nosignal	s555	False
432.984	0.85	0.55	2.25	1.0	71.0	motor_selective_stop_signal	71.0	True	0.858	71.0	False	stim	crit_go	s555	False
435.238	0.85	0.55	2.35	1.0	89.0	motor_selective_stop_signal	89.0	True	0.697	71.0	False	stim	noncrit_signal	s555	False
437.59	0.85	0.55	2.35	1.0	71.0	motor_selective_stop_signal	-1.0	True	n/a	71.0	True	stim	crit_stop_success	s555	False
439.942	0.85	0.6	2.35	1.0	89.0	motor_selective_stop_signal	89.0	True	0.533	71.0	False	stim	noncrit_nosignal	s555	False
442.295	0.85	0.6	2.95	1.0	89.0	motor_selective_stop_signal	89.0	True	0.669	71.0	False	stim	noncrit_nosignal	s555	False
445.247	0.85	0.6	2.25	1.0	89.0	motor_selective_stop_signal	89.0	True	0.719	71.0	False	stim	noncrit_nosignal	s555	False
447.5	0.85	0.6	2.35	1.0	89.0	motor_selective_stop_signal	89.0	True	0.718	71.0	False	stim	noncrit_nosignal	s555	False
449.852	0.85	0.6	2.25	1.0	71.0	motor_selective_stop_signal	71.0	True	0.926	71.0	False	stim	crit_go	s555	False
452.104	0.85	0.6	2.45	1.0	89.0	motor_selective_stop_signal	89.0	True	0.581	71.0	False	stim	noncrit_signal	s555	False
454.556	0.85	0.6	2.35	1.0	89.0	motor_selective_stop_signal	89.0	True	0.588	71.0	False	stim	noncrit_signal	s555	False
456.909	0.85	0.6	2.55	1.0	89.0	motor_selective_stop_signal	89.0	True	0.535	71.0	False	stim	noncrit_signal	s555	False
459.461	0.85	0.6	2.55	1.0	71.0	motor_selective_stop_signal	71.0	True	0.807	71.0	False	stim	crit_go	s555	False
462.014	0.85	0.6	2.25	1.0	89.0	motor_selective_stop_signal	89.0	True	0.623	71.0	False	stim	noncrit_nosignal	s555	False
464.267	0.85	0.6	2.25	1.0	71.0	motor_selective_stop_signal	71.0	True	1.057	71.0	False	stim	crit_go	s555	False
466.519	0.85	0.6	2.75	1.0	71.0	motor_selective_stop_signal	-1.0	True	n/a	71.0	True	stim	crit_stop_success	s555	False
469.271	0.85	0.65	2.35	1.0	71.0	motor_selective_stop_signal	71.0	True	0.854	71.0	False	stim	crit_stop_failure	s555	False
471.625	0.85	0.6	2.25	1.0	71.0	motor_selective_stop_signal	71.0	True	0.929	71.0	False	stim	crit_stop_failure	s555	False
473.878	0.85	0.55	2.45	1.0	71.0	motor_selective_stop_signal	71.0	True	0.891	71.0	False	stim	crit_go	s555	False
476.331	0.85	0.55	2.25	1.0	89.0	motor_selective_stop_signal	89.0	True	0.528	71.0	False	stim	noncrit_nosignal	s555	False
478.583	0.85	0.55	2.35	1.0	89.0	motor_selective_stop_signal	89.0	True	0.687	71.0	False	stim	noncrit_nosignal	s555	False
480.936	0.85	0.55	2.25	1.0	89.0	motor_selective_stop_signal	89.0	True	0.672	71.0	False	stim	noncrit_nosignal	s555	False
483.19	0.85	0.55	2.25	1.0	71.0	motor_selective_stop_signal	-1.0	True	n/a	71.0	True	stim	crit_stop_success	s555	False
485.443	0.85	0.6	2.25	1.0	71.0	motor_selective_stop_signal	71.0	True	0.911	71.0	False	stim	crit_stop_failure	s555	False
487.696	0.85	0.55	2.25	1.0	71.0	motor_selective_stop_signal	71.0	True	0.883	71.0	False	stim	crit_go	s555	False
489.948	0.85	0.55	2.25	1.0	89.0	motor_selective_stop_signal	89.0	True	0.545	71.0	False	stim	noncrit_nosignal	s555	False
492.2	0.85	0.55	2.35	1.0	89.0	motor_selective_stop_signal	89.0	True	0.66	71.0	False	stim	noncrit_signal	s555	False
494.552	0.85	0.55	2.55	1.0	71.0	motor_selective_stop_signal	-1.0	True	n/a	71.0	True	stim	crit_stop_success	s555	False
497.104	0.85	0.6	2.95	1.0	71.0	motor_selective_stop_signal	71.0	True	0.847	71.0	False	stim	crit_go	s555	False
500.057	0.85	0.6	2.25	1.0	71.0	motor_selective_stop_signal	71.0	True	0.901	71.0	False	stim	crit_stop_failure	s555	False
502.31	0.85	0.55	2.35	1.0	89.0	motor_selective_stop_signal	89.0	True	0.666	71.0	False	stim	noncrit_nosignal	s555	False
504.662	0.85	0.55	2.55	1.0	89.0	motor_selective_stop_signal	89.0	True	0.609	71.0	False	stim	noncrit_nosignal	s555	False
507.215	0.85	0.55	2.25	1.0	89.0	motor_selective_stop_signal	89.0	True	0.543	71.0	False	stim	noncrit_signal	s555	False
509.467	0.85	0.55	2.35	1.0	89.0	motor_selective_stop_signal	89.0	True	0.622	71.0	False	stim	noncrit_signal	s555	False
511.82	0.85	0.55	2.55	1.0	89.0	motor_selective_stop_signal	89.0	True	0.568	71.0	False	stim	noncrit_signal	s555	False
514.373	0.85	0.55	2.45	1.0	89.0	motor_selective_stop_signal	89.0	True	0.589	71.0	False	stim	noncrit_signal	s555	False
516.825	0.85	0.55	2.35	1.0	71.0	motor_selective_stop_signal	71.0	True	0.992	71.0	False	stim	crit_go	s555	False
529.684	0.85	0.55	2.65	1.0	71.0	motor_selective_stop_signal	71.0	True	0.835	71.0	False	stim	crit_go	s555	False
532.337	0.85	0.55	2.55	1.0	71.0	motor_selective_stop_signal	71.0	True	0.822	71.0	False	stim	crit_go	s555	False
534.89	0.85	0.55	2.75	1.0	71.0	motor_selective_stop_signal	-1.0	True	n/a	71.0	True	stim	crit_stop_success	s555	False
537.643	0.85	0.6	2.55	1.0	71.0	motor_selective_stop_signal	-1.0	True	n/a	71.0	True	stim	crit_stop_success	s555	False
540.195	0.85	0.65	2.45	1.0	89.0	motor_selective_stop_signal	89.0	True	0.511	71.0	False	stim	noncrit_signal	s555	False
542.647	0.85	0.65	2.75	1.0	71.0	motor_selective_stop_signal	71.0	True	0.787	71.0	False	stim	crit_go	s555	False
545.399	0.85	0.65	2.55	1.0	89.0	motor_selective_stop_signal	89.0	True	0.54	71.0	False	stim	noncrit_nosignal	s555	False
547.952	0.85	0.65	2.35	1.0	71.0	motor_selective_stop_signal	71.0	True	0.978	71.0	False	stim	crit_stop_failure	s555	False
550.304	0.85	0.6	2.25	1.0	71.0	motor_selective_stop_signal	71.0	True	0.875	71.0	False	stim	crit_go	s555	False
552.557	0.85	0.6	2.65	1.0	89.0	motor_selective_stop_signal	89.0	True	0.496	71.0	False	stim	noncrit_nosignal	s555	False
555.209	0.85	0.6	2.25	1.0	71.0	motor_selective_stop_signal	-1.0	True	n/a	71.0	True	stim	crit_stop_success	s555	False
557.461	0.85	0.65	2.35	1.0	71.0	motor_selective_stop_signal	71.0	True	0.961	71.0	False	stim	crit_go	s555	False
559.814	0.85	0.65	2.25	1.0	89.0	motor_selective_stop_signal	89.0	True	0.537	71.0	False	stim	noncrit_nosignal	s555	False
562.067	0.85	0.65	2.35	1.0	89.0	motor_selective_stop_signal	89.0	True	0.628	71.0	False	stim	noncrit_nosignal	s555	False
564.419	0.85	0.65	2.35	1.0	89.0	motor_selective_stop_signal	89.0	True	0.686	71.0	False	stim	noncrit_nosignal	s555	False
566.772	0.85	0.65	2.25	1.0	89.0	motor_selective_stop_signal	89.0	True	0.587	71.0	False	stim	noncrit_nosignal	s555	False
569.026	0.85	0.65	2.85	1.0	89.0	motor_selective_stop_signal	89.0	True	0.526	71.0	False	stim	noncrit_signal	s555	False
571.878	0.85	0.65	2.35	1.0	89.0	motor_selective_stop_signal	89.0	True	0.561	71.0	False	stim	noncrit_nosignal	s555	False
574.231	0.85	0.65	2.25	1.0	71.0	motor_selective_stop_signal	71.0	True	0.924	71.0	False	stim	crit_go	s555	False
576.484	0.85	0.65	2.35	1.0	71.0	motor_selective_stop_signal	71.0	True	1.021	71.0	False	stim	crit_go	s555	False
578.837	0.85	0.65	2.45	1.0	71.0	motor_selective_stop_signal	71.0	True	0.887	71.0	False	stim	crit_go	s555	False
581.288	0.85	0.65	2.25	1.0	71.0	motor_selective_stop_signal	71.0	True	0.74	71.0	False	stim	crit_stop_failure	s555	False
583.541	0.85	0.6	2.25	1.0	89.0	motor_selective_stop_signal	89.0	True	0.563	71.0	False	stim	noncrit_signal	s555	False
585.793	0.85	0.6	2.75	1.0	71.0	motor_selective_stop_signal	71.0	True	0.932	71.0	False	stim	crit_go	s555	False
588.545	0.85	0.6	2.35	1.0	89.0	motor_selective_stop_signal	89.0	True	0.492	71.0	False	stim	noncrit_signal	s555	False
590.897	0.85	0.6	2.75	1.0	89.0	motor_selective_stop_signal	89.0	True	0.525	71.0	False	stim	noncrit_nosignal	s555	False
593.65	0.85	0.6	2.45	1.0	71.0	motor_selective_stop_signal	71.0	True	0.718	71.0	False	stim	crit_go	s555	False
596.103	0.85	0.6	2.25	1.0	89.0	motor_selective_stop_signal	89.0	True	0.499	71.0	False	stim	noncrit_nosignal	s555	False
598.356	0.85	0.6	2.35	1.0	71.0	motor_selective_stop_signal	71.0	True	0.857	71.0	False	stim	crit_stop_failure	s555	False
600.709	0.85	0.55	2.65	1.0	71.0	motor_selective_stop_signal	71.0	True	0.831	71.0	False	stim	crit_go	s555	False
603.361	0.85	0.55	2.45	1.0	71.0	motor_selective_stop_signal	-1.0	True	n/a	71.0	True	stim	crit_stop_success	s555	False
605.814	0.85	0.6	2.25	1.0	89.0	motor_selective_stop_signal	89.0	True	0.578	71.0	False	stim	noncrit_nosignal	s555	False
608.066	0.85	0.6	2.35	1.0	89.0	motor_selective_stop_signal	89.0	True	0.536	71.0	False	stim	noncrit_signal	s555	False
610.418	0.85	0.6	2.95	1.0	89.0	motor_selective_stop_signal	89.0	True	0.537	71.0	False	stim	noncrit_signal	s555	False
613.371	0.85	0.6	2.25	1.0	89.0	motor_selective_stop_signal	89.0	True	0.525	71.0	False	stim	noncrit_nosignal	s555	False
615.624	0.85	0.6	2.95	1.0	89.0	motor_selective_stop_signal	89.0	True	0.48	71.0	False	stim	noncrit_nosignal	s555	False
618.577	0.85	0.6	2.45	1.0	89.0	motor_selective_stop_signal	89.0	True	0.457	71.0	False	stim	noncrit_signal	s555	False
621.03	0.85	0.6	2.25	1.0	71.0	motor_selective_stop_signal	71.0	True	0.904	71.0	False	stim	crit_stop_failure	s555	False
623.283	0.85	0.55	2.35	1.0	71.0	motor_selective_stop_signal	71.0	True	0.847	71.0	False	stim	crit_go	s555	False
625.636	0.85	0.55	2.45	1.0	71.0	motor_selective_stop_signal	71.0	True	0.936	71.0	False	stim	crit_go	s555	False
628.088	0.85	0.55	2.25	1.0	71.0	motor_selective_stop_signal	-1.0	True	n/a	71.0	True	stim	crit_stop_success	s555	False
630.342	0.85	0.6	2.45	1.0	89.0	motor_selective_stop_signal	89.0	True	0.485	71.0	False	stim	noncrit_signal	s555	False
632.794	0.85	0.6	2.75	1.0	89.0	motor_selective_stop_signal	89.0	True	0.524	71.0	False	stim	noncrit_nosignal	s555	False
635.547	0.85	0.6	2.25	1.0	89.0	motor_selective_stop_signal	89.0	True	0.479	71.0	False	stim	noncrit_signal	s555	False
637.8	0.85	0.6	2.35	1.0	89.0	motor_selective_stop_signal	89.0	True	0.562	71.0	False	stim	noncrit_nosignal	s555	False
640.153	0.85	0.6	2.45	1.0	89.0	motor_selective_stop_signal	89.0	True	0.594	71.0	False	stim	noncrit_signal	s555	False
642.606	0.85	0.6	2.35	1.0	89.0	motor_selective_stop_signal	89.0	True	0.479	71.0	False	stim	noncrit_nosignal	s555	False
644.959	0.85	0.6	2.25	1.0	89.0	motor_selective_stop_signal	89.0	True	0.54	71.0	False	stim	noncrit_signal	s555	False
647.211	0.85	0.6	2.55	1.0	89.0	motor_selective_stop_signal	89.0	True	0.671	71.0	False	stim	noncrit_nosignal	s555	False
649.764	0.85	0.6	2.45	1.0	71.0	motor_selective_stop_signal	71.0	True	1.009	71.0	False	stim	crit_go	s555	False
