onset	duration	movement_onset	EV	action	block_duration	experiment_exp_id	gain_amount	gain_probability	key_press	loss_amount	loss_probability	num_cards	num_click_in_round	num_loss_cards	risk	response_time	total_cards	trial_id	trial_type	worker_id	junk	feedback
3.009	0.913	3.922	0.7944011455275994	draw_card	0.913	columbia_card_task_fmri	12.0	0.8333333333333334	89.0	-70.0	0.1666666666666666	6.0	1.0	1.0	-2.902265015821005	0.913	n/a	stim	poldrack-single-stim	s556	False	1
3.923	0.732	4.655	-1.938932187805733	draw_card	0.732	columbia_card_task_fmri	12.0	0.8	89.0	-70.0	0.2	6.0	2.0	1.0	-0.6685990974344378	0.732	n/a	stim	poldrack-single-stim	s556	False	1
4.657	1.722	6.379	-6.038932187805735	draw_card	1.722	columbia_card_task_fmri	12.0	0.75	89.0	-70.0	0.25	6.0	3.0	1.0	2.0314306452252566	1.722	n/a	stim	poldrack-single-stim	s556	False	1
6.381	4.707	11.088	-12.872265521139068	draw_card	4.707	columbia_card_task_fmri	12.0	0.6666666666666667	89.0	-70.0	0.3333333333333333	6.0	4.0	1.0	5.172636549762956	4.707	n/a	stim	poldrack-single-stim	s556	False	1
11.089	3.519	14.608	-26.53893218780573	end_round	3.519	columbia_card_task_fmri	12.0	0.5	71.0	-70.0	0.5	6.0	5.0	1.0	7.512998053531696	3.519	4.0	stim	poldrack-single-stim	s556	False	1
15.36	1.5	14.609	n/a	-1.0	2.454	columbia_card_task_fmri	n/a	n/a	-1.0	n/a	n/a	n/a	n/a	n/a	n/a	n/a	n/a	ITI	poldrack-single-stim	s556	False	0
17.067	2.379	19.446	1.6277344788609334	draw_card	2.379	columbia_card_task_fmri	14.0	0.8333333333333334	89.0	-75.0	0.1666666666666666	6.0	1.0	1.0	-0.3012785153528483	2.379	n/a	stim	poldrack-single-stim	s556	False	1
19.447	4.348	23.795	-1.3389321878057334	draw_card	4.348	columbia_card_task_fmri	14.0	0.8	89.0	-75.0	0.2	6.0	2.0	1.0	2.1241671763143657	4.348	n/a	stim	poldrack-single-stim	s556	False	1
23.796	6.539	30.335	-5.788932187805735	end_round	6.539	columbia_card_task_fmri	14.0	0.75	71.0	-75.0	0.25	6.0	3.0	1.0	5.05583352289991	6.539	2.0	stim	poldrack-single-stim	s556	False	1
31.087	1.5	30.336	n/a	-1.0	2.454	columbia_card_task_fmri	n/a	n/a	-1.0	n/a	n/a	n/a	n/a	n/a	n/a	n/a	n/a	ITI	poldrack-single-stim	s556	False	0
32.792	1.295	34.087	3.2944011455275994	draw_card	1.295	columbia_card_task_fmri	15.0	0.8333333333333334	89.0	-70.0	0.1666666666666666	6.0	1.0	1.0	-1.7877123066163847	1.295	n/a	stim	poldrack-single-stim	s556	False	1
34.088	2.022	36.11	0.4610678121942655	draw_card	2.022	columbia_card_task_fmri	15.0	0.8	89.0	-70.0	0.2	6.0	2.0	1.0	0.5281554128649333	2.022	n/a	stim	poldrack-single-stim	s556	False	1
36.112	7.428	43.54	-3.7889321878057354	end_round	7.428	columbia_card_task_fmri	15.0	0.75	71.0	-70.0	0.25	6.0	3.0	1.0	3.3274689117455907	7.428	2.0	stim	poldrack-single-stim	s556	False	1
44.293	1.5	43.542	n/a	-1.0	2.522	columbia_card_task_fmri	n/a	n/a	-1.0	n/a	n/a	n/a	n/a	n/a	n/a	n/a	n/a	ITI	poldrack-single-stim	s556	False	0
46.067	5.512	51.579	4.127734478860933	draw_card	5.512	columbia_card_task_fmri	17.0	0.8333333333333334	89.0	-75.0	0.1666666666666666	6.0	1.0	1.0	0.8137899890712177	5.512	n/a	stim	poldrack-single-stim	s556	False	1
51.58	0.867	52.447	1.061067812194267	draw_card	0.867	columbia_card_task_fmri	17.0	0.8	89.0	-75.0	0.2	6.0	2.0	1.0	3.321402798918669	0.867	n/a	stim	poldrack-single-stim	s556	False	1
52.449	6.645	59.094	-3.5389321878057345	end_round	6.645	columbia_card_task_fmri	17.0	0.75	71.0	-75.0	0.25	6.0	3.0	1.0	6.35231671173581	6.645	2.0	stim	poldrack-single-stim	s556	False	1
59.847	1.5	59.096	n/a	-1.0	2.386	columbia_card_task_fmri	n/a	n/a	-1.0	n/a	n/a	n/a	n/a	n/a	n/a	n/a	n/a	ITI	poldrack-single-stim	s556	False	0
61.484	2.597	64.081	5.4610678121942655	draw_card	2.597	columbia_card_task_fmri	24.0	0.75	89.0	-60.0	0.25	8.0	1.0	2.0	2.8954324297385767	2.597	n/a	stim	poldrack-single-stim	s556	False	1
64.083	1.276	65.359	2.461067812194265	draw_card	1.276	columbia_card_task_fmri	24.0	0.7142857142857143	89.0	-60.0	0.2857142857142857	8.0	2.0	2.0	4.466254634641132	1.276	n/a	stim	poldrack-single-stim	s556	False	1
65.361	1.052	66.413	-1.5389321878057345	draw_card	1.052	columbia_card_task_fmri	24.0	0.6666666666666667	89.0	-60.0	0.3333333333333333	8.0	3.0	2.0	6.113585760336754	1.052	3.0	stim	poldrack-single-stim	s556	False	0
67.166	1.5	66.415	n/a	-1.0	2.454	columbia_card_task_fmri	n/a	n/a	-1.0	n/a	n/a	n/a	n/a	n/a	n/a	n/a	n/a	ITI	poldrack-single-stim	s556	False	0
68.871	4.462	73.333	5.4610678121942655	draw_card	4.462	columbia_card_task_fmri	29.0	0.75	89.0	-75.0	0.25	8.0	1.0	2.0	11.5397198379856	4.462	n/a	stim	poldrack-single-stim	s556	False	1
73.335	3.674	77.009	1.7467820979085538	draw_card	3.674	columbia_card_task_fmri	29.0	0.7142857142857143	89.0	-75.0	0.2857142857142857	8.0	2.0	2.0	13.486025928401348	3.674	n/a	stim	poldrack-single-stim	s556	False	1
77.011	7.39	84.401	-3.205598854472399	end_round	7.39	columbia_card_task_fmri	29.0	0.6666666666666667	71.0	-75.0	0.3333333333333333	8.0	3.0	2.0	15.527003457639204	7.39	2.0	stim	poldrack-single-stim	s556	False	1
85.154	1.5	84.403	n/a	-1.0	2.522	columbia_card_task_fmri	n/a	n/a	-1.0	n/a	n/a	n/a	n/a	n/a	n/a	n/a	n/a	ITI	poldrack-single-stim	s556	False	0
86.928	4.996	91.924	1.238845589972046	draw_card	4.996	columbia_card_task_fmri	17.0	0.7777777777777778	89.0	-65.0	0.2222222222222222	9.0	1.0	2.0	0.6185756630573351	4.996	n/a	stim	poldrack-single-stim	s556	False	1
91.926	0.487	92.413	-1.0389321878057345	draw_card	0.487	columbia_card_task_fmri	17.0	0.75	89.0	-65.0	0.25	9.0	2.0	2.0	2.0314306452252566	0.487	n/a	stim	poldrack-single-stim	s556	False	1
92.414	7.332	99.746	-3.9675036163771615	draw_card	7.332	columbia_card_task_fmri	17.0	0.7142857142857143	89.0	-65.0	0.2857142857142857	9.0	3.0	2.0	3.564686952333723	7.332	3.0	stim	poldrack-single-stim	s556	False	0
100.499	1.5	99.748	n/a	-1.0	2.522	columbia_card_task_fmri	n/a	n/a	-1.0	n/a	n/a	n/a	n/a	n/a	n/a	n/a	n/a	ITI	poldrack-single-stim	s556	False	0
102.272	2.189	104.461	5.561067812194265	draw_card	2.189	columbia_card_task_fmri	14.0	0.9	89.0	-95.0	0.1	10.0	1.0	1.0	-0.7683179326478395	2.189	n/a	stim	poldrack-single-stim	s556	False	1
104.462	4.347	108.809	4.349956701083153	draw_card	4.347	columbia_card_task_fmri	14.0	0.8888888888888888	89.0	-95.0	0.1111111111111111	10.0	2.0	1.0	0.7828890869739524	4.347	2.0	stim	poldrack-single-stim	s556	False	0
109.562	1.5	108.811	n/a	-1.0	2.59	columbia_card_task_fmri	n/a	n/a	-1.0	n/a	n/a	n/a	n/a	n/a	n/a	n/a	n/a	ITI	poldrack-single-stim	s556	False	0
111.404	8.998	120.402	1.4610678121942655	draw_card	8.998	columbia_card_task_fmri	15.0	0.8	89.0	-65.0	0.2	10.0	1.0	2.0	-1.4663007891102993	8.998	1.0	stim	poldrack-single-stim	s556	False	0
121.154	1.5	120.403	n/a	-1.0	2.454	columbia_card_task_fmri	n/a	n/a	-1.0	n/a	n/a	n/a	n/a	n/a	n/a	n/a	n/a	ITI	poldrack-single-stim	s556	False	0
122.86	1.538	124.398	3.061067812194267	draw_card	1.538	columbia_card_task_fmri	17.0	0.8	89.0	-65.0	0.2	10.0	1.0	2.0	-0.6685990974344378	1.538	n/a	stim	poldrack-single-stim	s556	False	1
124.4	1.49	125.89	1.238845589972046	draw_card	1.49	columbia_card_task_fmri	17.0	0.7777777777777778	89.0	-65.0	0.2222222222222222	10.0	2.0	2.0	0.6185756630573351	1.49	n/a	stim	poldrack-single-stim	s556	False	1
125.892	0.937	126.829	-1.0389321878057345	draw_card	0.937	columbia_card_task_fmri	17.0	0.75	89.0	-65.0	0.25	10.0	3.0	2.0	2.0314306452252566	0.937	n/a	stim	poldrack-single-stim	s556	False	1
126.83	3.549	130.379	-3.9675036163771615	draw_card	3.549	columbia_card_task_fmri	17.0	0.7142857142857143	89.0	-65.0	0.2857142857142857	10.0	4.0	2.0	3.564686952333723	3.549	4.0	stim	poldrack-single-stim	s556	False	0
131.132	1.5	130.381	n/a	-1.0	2.318	columbia_card_task_fmri	n/a	n/a	-1.0	n/a	n/a	n/a	n/a	n/a	n/a	n/a	n/a	ITI	poldrack-single-stim	s556	False	0
132.703	1.799	134.502	1.6277344788609334	draw_card	1.799	columbia_card_task_fmri	13.0	0.8333333333333334	89.0	-70.0	0.1666666666666666	12.0	1.0	2.0	-2.530775276675968	1.799	n/a	stim	poldrack-single-stim	s556	False	1
134.503	0.792	135.295	0.370158721285172	draw_card	0.792	columbia_card_task_fmri	13.0	0.8181818181818181	89.0	-70.0	0.1818181818181818	12.0	2.0	2.0	-1.4536855709061245	0.792	n/a	stim	poldrack-single-stim	s556	False	1
135.297	0.328	135.625	-1.138932187805734	draw_card	0.328	columbia_card_task_fmri	13.0	0.8	89.0	-70.0	0.2	12.0	3.0	2.0	-0.2697068890306013	0.328	n/a	stim	poldrack-single-stim	s556	False	1
135.627	1.607	137.234	-2.983376632250179	draw_card	1.607	columbia_card_task_fmri	13.0	0.7777777777777778	89.0	-70.0	0.2222222222222222	12.0	4.0	2.0	1.0332491928253305	1.607	n/a	stim	poldrack-single-stim	s556	False	1
137.235	0.356	137.591	-5.288932187805735	draw_card	0.356	columbia_card_task_fmri	13.0	0.75	89.0	-70.0	0.25	12.0	5.0	2.0	2.463419389696817	0.356	n/a	stim	poldrack-single-stim	s556	False	1
137.592	0.213	137.805	-8.253217902091448	draw_card	0.213	columbia_card_task_fmri	13.0	0.7142857142857143	89.0	-70.0	0.2857142857142857	12.0	6.0	2.0	4.015459143031784	0.213	n/a	stim	poldrack-single-stim	s556	False	1
137.808	0.705	138.513	-12.2055988544724	draw_card	0.705	columbia_card_task_fmri	13.0	0.6666666666666667	89.0	-70.0	0.3333333333333333	12.0	7.0	2.0	5.64309998437696	0.705	n/a	stim	poldrack-single-stim	s556	False	1
138.515	0.721	139.236	-17.738932187805734	draw_card	0.721	columbia_card_task_fmri	13.0	0.6	89.0	-70.0	0.4	12.0	8.0	2.0	7.175140964718231	0.721	n/a	stim	poldrack-single-stim	s556	False	1
139.238	2.312	141.55	-26.03893218780573	end_round	2.312	columbia_card_task_fmri	13.0	0.5	71.0	-70.0	0.5	12.0	9.0	2.0	8.01211049383376	2.312	8.0	stim	poldrack-single-stim	s556	False	1
142.303	1.5	141.552	n/a	-1.0	2.25	columbia_card_task_fmri	n/a	n/a	-1.0	n/a	n/a	n/a	n/a	n/a	n/a	n/a	n/a	ITI	poldrack-single-stim	s556	False	0
143.805	1.984	145.789	1.6277344788609334	draw_card	1.984	columbia_card_task_fmri	15.0	0.8333333333333334	89.0	-80.0	0.1666666666666666	12.0	1.0	2.0	1.929045089066676	1.984	n/a	stim	poldrack-single-stim	s556	False	1
145.791	0.818	146.609	0.1883405394669903	draw_card	0.818	columbia_card_task_fmri	15.0	0.8181818181818181	89.0	-80.0	0.1818181818181818	12.0	2.0	2.0	3.162746487899767	0.818	n/a	stim	poldrack-single-stim	s556	False	1
146.611	0.373	146.984	-1.5389321878057345	draw_card	0.373	columbia_card_task_fmri	15.0	0.8	89.0	-80.0	0.2	12.0	3.0	2.0	4.518812448482585	0.373	n/a	stim	poldrack-single-stim	s556	False	1
146.986	2.073	149.059	-3.650043298916847	end_round	2.073	columbia_card_task_fmri	15.0	0.7777777777777778	71.0	-80.0	0.2222222222222222	12.0	4.0	2.0	6.011076738292424	2.073	3.0	stim	poldrack-single-stim	s556	False	1
149.812	1.5	149.061	n/a	-1.0	2.658	columbia_card_task_fmri	n/a	n/a	-1.0	n/a	n/a	n/a	n/a	n/a	n/a	n/a	n/a	ITI	poldrack-single-stim	s556	False	0
151.722	1.825	153.547	0.6610678121942666	draw_card	1.825	columbia_card_task_fmri	14.0	0.8	89.0	-65.0	0.2	15.0	1.0	3.0	-1.865108190396512	1.825	1.0	stim	poldrack-single-stim	s556	False	0
154.301	1.5	153.55	n/a	-1.0	2.454	columbia_card_task_fmri	n/a	n/a	-1.0	n/a	n/a	n/a	n/a	n/a	n/a	n/a	n/a	ITI	poldrack-single-stim	s556	False	0
156.006	2.18	158.186	0.5860678121942655	draw_card	2.18	columbia_card_task_fmri	1.0	0.9375	89.0	-45.0	0.0625	16.0	1.0	1.0	-22.15723746035365	2.18	n/a	stim	poldrack-single-stim	s556	False	1
158.188	0.185	158.373	0.3944011455275991	draw_card	0.185	columbia_card_task_fmri	1.0	0.9333333333333332	89.0	-45.0	0.0666666666666666	16.0	2.0	1.0	-21.82542245709707	0.185	n/a	stim	poldrack-single-stim	s556	False	1
158.376	0.157	158.533	0.1753535264799799	draw_card	0.157	columbia_card_task_fmri	1.0	0.9285714285714286	89.0	-45.0	0.0714285714285714	16.0	3.0	1.0	-21.461056080827337	0.157	n/a	stim	poldrack-single-stim	s556	False	1
158.536	0.149	158.685	-0.0773937262672728	draw_card	0.149	columbia_card_task_fmri	1.0	0.9230769230769232	89.0	-45.0	0.0769230769230769	16.0	4.0	1.0	-21.058584790071308	0.149	n/a	stim	poldrack-single-stim	s556	False	1
158.686	0.846	159.532	-0.3722655211390679	draw_card	0.846	columbia_card_task_fmri	1.0	0.9166666666666666	89.0	-45.0	0.0833333333333333	16.0	5.0	1.0	-20.61106047828324	0.846	n/a	stim	poldrack-single-stim	s556	False	1
159.534	3.574	163.108	-0.7207503696239161	draw_card	3.574	columbia_card_task_fmri	1.0	0.9090909090909092	89.0	-45.0	0.0909090909090909	16.0	6.0	1.0	-20.109670001481437	3.574	6.0	stim	poldrack-single-stim	s556	False	0
163.862	1.5	163.111	n/a	-1.0	2.386	columbia_card_task_fmri	n/a	n/a	-1.0	n/a	n/a	n/a	n/a	n/a	n/a	n/a	n/a	ITI	poldrack-single-stim	s556	False	0
165.501	0.872	166.373	1.5235678121942655	draw_card	0.872	columbia_card_task_fmri	15.0	0.8125	89.0	-70.0	0.1875	16.0	1.0	3.0	-0.29309081744357	0.872	n/a	stim	poldrack-single-stim	s556	False	1
166.374	0.174	166.548	0.4610678121942655	draw_card	0.174	columbia_card_task_fmri	15.0	0.8	89.0	-70.0	0.2	16.0	2.0	3.0	0.5281554128649333	0.174	n/a	stim	poldrack-single-stim	s556	False	1
166.55	0.154	166.704	-0.7532179020914498	draw_card	0.154	columbia_card_task_fmri	15.0	0.7857142857142857	89.0	-70.0	0.2142857142857142	16.0	3.0	3.0	1.4036242545194142	0.154	n/a	stim	poldrack-single-stim	s556	False	1
166.706	0.365	167.071	-2.1543168031903512	draw_card	0.365	columbia_card_task_fmri	15.0	0.7692307692307692	89.0	-70.0	0.2307692307692307	16.0	4.0	3.0	2.3362926571625597	0.365	n/a	stim	poldrack-single-stim	s556	False	1
167.073	0.285	167.358	-3.7889321878057354	draw_card	0.285	columbia_card_task_fmri	15.0	0.75	89.0	-70.0	0.25	16.0	5.0	3.0	3.3274689117455907	0.285	5.0	stim	poldrack-single-stim	s556	False	0
168.113	1.5	167.362	n/a	-1.0	2.59	columbia_card_task_fmri	n/a	n/a	-1.0	n/a	n/a	n/a	n/a	n/a	n/a	n/a	n/a	ITI	poldrack-single-stim	s556	False	0
169.954	1.33	171.284	8.461067812194266	draw_card	1.33	columbia_card_task_fmri	30.0	0.7	89.0	-50.0	0.3	10.0	1.0	3.0	3.182320215803649	1.33	n/a	stim	poldrack-single-stim	s556	False	1
171.286	0.173	171.459	5.794401145527605	draw_card	0.173	columbia_card_task_fmri	30.0	0.6666666666666667	89.0	-50.0	0.3333333333333333	10.0	2.0	3.0	4.231780041945584	0.173	n/a	stim	poldrack-single-stim	s556	False	1
171.462	0.153	171.615	2.461067812194265	draw_card	0.153	columbia_card_task_fmri	30.0	0.625	89.0	-50.0	0.375	10.0	3.0	3.0	5.247148732056395	0.153	3.0	stim	poldrack-single-stim	s556	False	0
172.369	1.5	171.618	n/a	-1.0	2.318	columbia_card_task_fmri	n/a	n/a	-1.0	n/a	n/a	n/a	n/a	n/a	n/a	n/a	n/a	ITI	poldrack-single-stim	s556	False	0
173.939	2.766	176.705	7.861067812194266	draw_card	2.766	columbia_card_task_fmri	17.0	0.8666666666666667	89.0	-70.0	0.1333333333333333	15.0	1.0	2.0	-3.8842625043996897	2.766	n/a	stim	poldrack-single-stim	s556	False	1
176.707	0.178	176.885	7.032496383622839	draw_card	0.178	columbia_card_task_fmri	17.0	0.8571428571428572	89.0	-70.0	0.1428571428571428	15.0	2.0	2.0	-3.017826914059654	0.178	n/a	stim	poldrack-single-stim	s556	False	1
176.888	0.167	177.055	6.0764524275788805	draw_card	0.167	columbia_card_task_fmri	17.0	0.8461538461538461	89.0	-70.0	0.1538461538461538	15.0	3.0	2.0	-2.074763593448665	0.167	n/a	stim	poldrack-single-stim	s556	False	1
177.057	0.165	177.222	4.961067812194267	draw_card	0.165	columbia_card_task_fmri	17.0	0.8333333333333334	89.0	-70.0	0.1666666666666666	15.0	4.0	2.0	-1.0445443741752172	0.165	n/a	stim	poldrack-single-stim	s556	False	1
177.224	0.17	177.394	3.642885994012445	draw_card	0.17	columbia_card_task_fmri	17.0	0.8181818181818181	89.0	-70.0	0.1818181818181818	15.0	5.0	2.0	0.0847617124478574	0.17	n/a	stim	poldrack-single-stim	s556	False	1
177.397	0.165	177.562	2.061067812194267	draw_card	0.165	columbia_card_task_fmri	17.0	0.8	89.0	-70.0	0.2	15.0	6.0	2.0	1.3261156240190957	0.165	6.0	stim	poldrack-single-stim	s556	False	0
178.316	1.5	177.565	n/a	-1.0	2.59	columbia_card_task_fmri	n/a	n/a	-1.0	n/a	n/a	n/a	n/a	n/a	n/a	n/a	n/a	ITI	poldrack-single-stim	s556	False	0
180.158	1.084	181.242	3.086067812194265	draw_card	1.084	columbia_card_task_fmri	7.0	0.9375	89.0	-95.0	0.0625	16.0	1.0	1.0	-8.748177225168927	1.084	n/a	stim	poldrack-single-stim	s556	False	1
181.245	0.708	181.953	2.6610678121942657	draw_card	0.708	columbia_card_task_fmri	7.0	0.9333333333333332	89.0	-95.0	0.0666666666666666	16.0	2.0	1.0	-7.998779842241689	0.708	n/a	stim	poldrack-single-stim	s556	False	1
181.956	0.236	182.192	2.17535352647998	draw_card	0.236	columbia_card_task_fmri	7.0	0.9285714285714286	89.0	-95.0	0.0714285714285714	16.0	3.0	1.0	-7.176749900153912	0.236	n/a	stim	poldrack-single-stim	s556	False	1
182.195	0.483	182.678	1.6149139660404188	draw_card	0.483	columbia_card_task_fmri	7.0	0.9230769230769232	89.0	-95.0	0.0769230769230769	16.0	4.0	1.0	-6.269731167631971	0.483	n/a	stim	poldrack-single-stim	s556	False	1
182.68	0.322	183.002	0.9610678121942656	draw_card	0.322	columbia_card_task_fmri	7.0	0.9166666666666666	89.0	-95.0	0.0833333333333333	16.0	5.0	1.0	-5.262268648319679	0.322	n/a	stim	poldrack-single-stim	s556	False	1
183.005	0.497	183.502	0.1883405394669921	draw_card	0.497	columbia_card_task_fmri	7.0	0.9090909090909092	89.0	-95.0	0.0909090909090909	16.0	6.0	1.0	-4.134764108670069	0.497	n/a	stim	poldrack-single-stim	s556	False	1
183.503	0.482	183.985	-0.7389321878057347	draw_card	0.482	columbia_card_task_fmri	7.0	0.9	89.0	-95.0	0.1	16.0	7.0	1.0	-2.861990926708799	0.482	n/a	stim	poldrack-single-stim	s556	False	1
183.988	0.402	184.39	-1.8722655211390684	draw_card	0.402	columbia_card_task_fmri	7.0	0.8888888888888888	89.0	-95.0	0.1111111111111111	16.0	8.0	1.0	-1.4109565292121855	0.402	n/a	stim	poldrack-single-stim	s556	False	1
184.392	0.392	184.784	-3.2889321878057345	draw_card	0.392	columbia_card_task_fmri	7.0	0.875	89.0	-95.0	0.125	16.0	9.0	1.0	0.2621859848978332	0.392	n/a	stim	poldrack-single-stim	s556	False	1
184.786	0.714	185.5	-5.110360759234306	draw_card	0.714	columbia_card_task_fmri	7.0	0.8571428571428572	89.0	-95.0	0.1428571428571428	16.0	10.0	1.0	2.2165121701382304	0.714	n/a	stim	poldrack-single-stim	s556	False	1
185.503	3.478	188.981	-7.538932187805733	end_round	3.478	columbia_card_task_fmri	7.0	0.8333333333333334	71.0	-95.0	0.1666666666666666	16.0	11.0	1.0	4.5319405713579854	3.478	10.0	stim	poldrack-single-stim	s556	False	1
189.736	1.5	188.985	n/a	-1.0	2.386	columbia_card_task_fmri	n/a	n/a	-1.0	n/a	n/a	n/a	n/a	n/a	n/a	n/a	n/a	ITI	poldrack-single-stim	s556	False	0
191.374	4.439	195.813	4.6485678121942655	draw_card	4.439	columbia_card_task_fmri	9.0	0.9375	89.0	-100.0	0.0625	16.0	1.0	1.0	-7.061569463615136	4.439	n/a	stim	poldrack-single-stim	s556	False	1
195.815	1.047	196.862	4.194401145527599	draw_card	1.047	columbia_card_task_fmri	9.0	0.9333333333333332	89.0	-100.0	0.0666666666666666	16.0	2.0	1.0	-6.260267072739886	1.047	n/a	stim	poldrack-single-stim	s556	False	1
196.865	3.096	199.961	3.675353526479981	end_round	3.096	columbia_card_task_fmri	9.0	0.9285714285714286	71.0	-100.0	0.0714285714285714	16.0	3.0	1.0	-5.381332532107127	3.096	2.0	stim	poldrack-single-stim	s556	False	1
200.715	1.5	199.964	n/a	-1.0	2.318	columbia_card_task_fmri	n/a	n/a	-1.0	n/a	n/a	n/a	n/a	n/a	n/a	n/a	n/a	ITI	poldrack-single-stim	s556	False	0
202.285	2.19	204.475	5.5860678121942655	draw_card	2.19	columbia_card_task_fmri	15.0	0.875	89.0	-80.0	0.125	16.0	1.0	2.0	-2.0462596392512005	2.19	n/a	stim	poldrack-single-stim	s556	False	1
204.479	0.905	205.384	4.794401145527599	draw_card	0.905	columbia_card_task_fmri	15.0	0.8666666666666667	89.0	-80.0	0.1333333333333333	16.0	2.0	2.0	-1.1733677351037883	0.905	n/a	stim	poldrack-single-stim	s556	False	1
205.387	3.587	208.974	3.889639240765696	draw_card	3.587	columbia_card_task_fmri	15.0	0.8571428571428572	89.0	-80.0	0.1428571428571428	16.0	3.0	2.0	-0.2267495204560674	3.587	n/a	stim	poldrack-single-stim	s556	False	1
208.977	1.93	210.907	2.8456831968096488	end_round	1.93	columbia_card_task_fmri	15.0	0.8461538461538461	71.0	-80.0	0.1538461538461538	16.0	4.0	2.0	0.8035558408884214	1.93	3.0	stim	poldrack-single-stim	s556	False	1
211.661	1.5	210.91	n/a	-1.0	2.318	columbia_card_task_fmri	n/a	n/a	-1.0	n/a	n/a	n/a	n/a	n/a	n/a	n/a	n/a	ITI	poldrack-single-stim	s556	False	0
213.232	0.975	214.207	7.7110678121942655	draw_card	0.975	columbia_card_task_fmri	16.0	0.875	89.0	-70.0	0.125	16.0	1.0	2.0	-5.012693638017719	0.975	n/a	stim	poldrack-single-stim	s556	False	1
214.211	0.295	214.506	6.994401145527599	draw_card	0.295	columbia_card_task_fmri	16.0	0.8666666666666667	89.0	-70.0	0.1333333333333333	16.0	2.0	2.0	-4.223012654075738	0.295	n/a	stim	poldrack-single-stim	s556	False	1
214.509	0.402	214.911	6.175353526479981	draw_card	0.402	columbia_card_task_fmri	16.0	0.8571428571428572	89.0	-70.0	0.1428571428571428	16.0	3.0	2.0	-3.3666030212865543	0.402	n/a	stim	poldrack-single-stim	s556	False	1
214.913	2.071	216.984	5.230298581425034	draw_card	2.071	columbia_card_task_fmri	16.0	0.8461538461538461	89.0	-70.0	0.1538461538461538	16.0	4.0	2.0	-2.43444816980108	2.071	n/a	stim	poldrack-single-stim	s556	False	1
216.987	0.189	217.176	4.127734478860933	draw_card	0.189	columbia_card_task_fmri	16.0	0.8333333333333334	89.0	-70.0	0.1666666666666666	16.0	5.0	2.0	-1.416141005715822	0.189	n/a	stim	poldrack-single-stim	s556	False	1
217.178	0.195	217.373	2.824704175830627	draw_card	0.195	columbia_card_task_fmri	16.0	0.8181818181818181	89.0	-70.0	0.1818181818181818	16.0	6.0	2.0	-0.2998877235970809	0.195	n/a	stim	poldrack-single-stim	s556	False	1
217.376	0.459	217.835	1.2610678121942662	draw_card	0.459	columbia_card_task_fmri	16.0	0.8	89.0	-70.0	0.2	16.0	7.0	2.0	0.9271237045208522	0.459	n/a	stim	poldrack-single-stim	s556	False	1
217.84	0.386	218.226	-0.6500432989168452	draw_card	0.386	columbia_card_task_fmri	16.0	0.7777777777777778	89.0	-70.0	0.2222222222222222	16.0	8.0	2.0	2.2774180102119104	0.386	8.0	stim	poldrack-single-stim	s556	False	0
218.98	1.5	218.229	n/a	-1.0	2.318	columbia_card_task_fmri	n/a	n/a	-1.0	n/a	n/a	n/a	n/a	n/a	n/a	n/a	n/a	ITI	poldrack-single-stim	s556	False	0
220.551	1.041	221.592	9.023567812194266	draw_card	1.041	columbia_card_task_fmri	30.0	0.6875	89.0	-45.0	0.3125	16.0	1.0	5.0	1.289637235122548	1.041	n/a	stim	poldrack-single-stim	s556	False	1
221.595	0.263	221.858	7.461067812194269	draw_card	0.263	columbia_card_task_fmri	30.0	0.6666666666666667	89.0	-45.0	0.3333333333333333	16.0	2.0	5.0	1.8800927961171536	0.263	n/a	stim	poldrack-single-stim	s556	False	1
221.86	0.169	222.029	5.675353526479977	draw_card	0.169	columbia_card_task_fmri	30.0	0.6428571428571428	89.0	-45.0	0.3571428571428571	16.0	3.0	5.0	2.460179501773069	0.169	n/a	stim	poldrack-single-stim	s556	False	1
222.033	0.318	222.351	3.614913966040419	draw_card	0.318	columbia_card_task_fmri	30.0	0.6153846153846154	89.0	-45.0	0.3846153846153846	16.0	4.0	5.0	3.009923670789334	0.318	n/a	stim	poldrack-single-stim	s556	False	1
222.354	1.703	224.057	1.211067812194262	end_round	1.703	columbia_card_task_fmri	30.0	0.5833333333333333	71.0	-45.0	0.4166666666666667	16.0	5.0	5.0	3.496512145324189	1.703	4.0	stim	poldrack-single-stim	s556	False	1
224.811	1.5	224.06	n/a	-1.0	2.386	columbia_card_task_fmri	n/a	n/a	-1.0	n/a	n/a	n/a	n/a	n/a	n/a	n/a	n/a	ITI	poldrack-single-stim	s556	False	0
226.449	1.317	227.766	0.7944011455275994	draw_card	1.317	columbia_card_task_fmri	13.0	0.8333333333333334	89.0	-75.0	0.1666666666666666	6.0	1.0	1.0	-0.6729232706192221	1.317	n/a	stim	poldrack-single-stim	s556	False	1
227.768	2.02	229.788	-2.138932187805734	draw_card	2.02	columbia_card_task_fmri	13.0	0.8	89.0	-75.0	0.2	6.0	2.0	1.0	1.7251303698516978	2.02	n/a	stim	poldrack-single-stim	s556	False	1
229.791	0.523	230.314	-6.538932187805735	draw_card	0.523	columbia_card_task_fmri	13.0	0.75	89.0	-75.0	0.25	6.0	3.0	1.0	4.623711052359397	0.523	n/a	stim	poldrack-single-stim	s556	False	1
230.316	1.582	231.898	-13.872265521139068	end_round	1.582	columbia_card_task_fmri	13.0	0.6666666666666667	71.0	-75.0	0.3333333333333333	6.0	4.0	1.0	7.995737100732285	1.582	3.0	stim	poldrack-single-stim	s556	False	1
232.652	1.5	231.901	n/a	-1.0	2.25	columbia_card_task_fmri	n/a	n/a	-1.0	n/a	n/a	n/a	n/a	n/a	n/a	n/a	n/a	ITI	poldrack-single-stim	s556	False	0
234.154	7.154	241.308	2.4610678121942677	end_round	7.154	columbia_card_task_fmri	14.0	0.8333333333333334	71.0	-70.0	0.1666666666666666	6.0	1.0	1.0	-2.1592573776721338	7.154	0.0	stim	poldrack-single-stim	s556	False	1
242.063	1.5	241.312	n/a	-1.0	2.386	columbia_card_task_fmri	n/a	n/a	-1.0	n/a	n/a	n/a	n/a	n/a	n/a	n/a	n/a	ITI	poldrack-single-stim	s556	False	0
243.702	1.019	244.721	2.4610678121942677	draw_card	1.019	columbia_card_task_fmri	16.0	0.8333333333333334	89.0	-80.0	0.1666666666666666	6.0	1.0	1.0	2.3008352459179804	1.019	n/a	stim	poldrack-single-stim	s556	False	1
244.724	0.344	245.068	-0.7389321878057338	draw_card	0.344	columbia_card_task_fmri	16.0	0.8	89.0	-80.0	0.2	6.0	2.0	1.0	4.917984863029993	0.344	2.0	stim	poldrack-single-stim	s556	False	0
245.822	1.5	245.071	n/a	-1.0	2.59	columbia_card_task_fmri	n/a	n/a	-1.0	n/a	n/a	n/a	n/a	n/a	n/a	n/a	n/a	ITI	poldrack-single-stim	s556	False	0
247.665	0.846	248.511	4.961067812194267	draw_card	0.846	columbia_card_task_fmri	17.0	0.8333333333333334	89.0	-70.0	0.1666666666666666	6.0	1.0	1.0	-1.0445443741752172	0.846	1.0	stim	poldrack-single-stim	s556	False	0
249.265	1.5	248.514	n/a	-1.0	2.658	columbia_card_task_fmri	n/a	n/a	-1.0	n/a	n/a	n/a	n/a	n/a	n/a	n/a	n/a	ITI	poldrack-single-stim	s556	False	0
251.175	0.64	251.815	4.9610678121942655	draw_card	0.64	columbia_card_task_fmri	25.0	0.75	89.0	-65.0	0.25	8.0	1.0	2.0	5.487975716738816	0.64	n/a	stim	poldrack-single-stim	s556	False	1
251.818	0.181	251.999	1.7467820979085538	draw_card	0.181	columbia_card_task_fmri	25.0	0.7142857142857143	89.0	-65.0	0.2857142857142857	8.0	2.0	2.0	7.171473577201262	0.181	n/a	stim	poldrack-single-stim	s556	False	1
252.002	0.167	252.169	-2.538932187805731	draw_card	0.167	columbia_card_task_fmri	25.0	0.6666666666666667	89.0	-65.0	0.3333333333333333	8.0	3.0	2.0	8.936928029196551	0.167	n/a	stim	poldrack-single-stim	s556	False	1
252.172	1.171	253.343	-8.538932187805734	end_round	1.171	columbia_card_task_fmri	25.0	0.6	71.0	-65.0	0.4	8.0	4.0	2.0	10.59864846721613	1.171	3.0	stim	poldrack-single-stim	s556	False	1
254.098	1.5	253.347	n/a	-1.0	2.386	columbia_card_task_fmri	n/a	n/a	-1.0	n/a	n/a	n/a	n/a	n/a	n/a	n/a	n/a	ITI	poldrack-single-stim	s556	False	0
255.737	0.777	256.514	4.9610678121942655	draw_card	0.777	columbia_card_task_fmri	30.0	0.75	89.0	-80.0	0.25	8.0	1.0	2.0	14.134135702472951	0.777	n/a	stim	poldrack-single-stim	s556	False	1
256.517	0.168	256.685	1.032496383622842	draw_card	0.168	columbia_card_task_fmri	30.0	0.7142857142857143	89.0	-80.0	0.2857142857142857	8.0	2.0	2.0	16.193040538770546	0.168	n/a	stim	poldrack-single-stim	s556	False	1
256.687	1.111	257.798	-4.205598854472395	end_round	1.111	columbia_card_task_fmri	30.0	0.6666666666666667	71.0	-80.0	0.3333333333333333	8.0	3.0	2.0	18.352067227827305	1.111	2.0	stim	poldrack-single-stim	s556	False	1
258.553	1.5	257.802	n/a	-1.0	2.386	columbia_card_task_fmri	n/a	n/a	-1.0	n/a	n/a	n/a	n/a	n/a	n/a	n/a	n/a	ITI	poldrack-single-stim	s556	False	0
260.193	0.58	260.773	4.661067812194267	draw_card	0.58	columbia_card_task_fmri	13.0	0.9	89.0	-95.0	0.1	10.0	1.0	1.0	-1.0674640692855917	0.58	n/a	stim	poldrack-single-stim	s556	False	1
260.775	0.186	260.961	3.461067812194265	draw_card	0.186	columbia_card_task_fmri	13.0	0.8888888888888888	89.0	-95.0	0.1111111111111111	10.0	2.0	1.0	0.4694348081067403	0.186	n/a	stim	poldrack-single-stim	s556	False	1
260.964	0.137	261.101	1.9610678121942653	draw_card	0.137	columbia_card_task_fmri	13.0	0.875	89.0	-95.0	0.125	10.0	3.0	1.0	2.241530684822763	0.137	n/a	stim	poldrack-single-stim	s556	False	1
261.105	2.146	263.251	0.0324963836228384	end_round	2.146	columbia_card_task_fmri	13.0	0.8571428571428572	71.0	-95.0	0.1428571428571428	10.0	4.0	1.0	4.3113768852199	2.146	3.0	stim	poldrack-single-stim	s556	False	1
264.005	1.5	263.254	n/a	-1.0	2.25	columbia_card_task_fmri	n/a	n/a	-1.0	n/a	n/a	n/a	n/a	n/a	n/a	n/a	n/a	ITI	poldrack-single-stim	s556	False	0
265.508	0.737	266.245	6.061067812194265	draw_card	0.737	columbia_card_task_fmri	14.0	0.9	89.0	-90.0	0.1	10.0	1.0	1.0	-2.2638851523515875	0.737	n/a	stim	poldrack-single-stim	s556	False	1
266.248	1.783	268.031	4.905512256638708	end_round	1.783	columbia_card_task_fmri	14.0	0.8888888888888888	71.0	-90.0	0.1111111111111111	10.0	2.0	1.0	-0.7842261444922158	1.783	1.0	stim	poldrack-single-stim	s556	False	1
268.785	1.5	268.034	n/a	-1.0	2.318	columbia_card_task_fmri	n/a	n/a	-1.0	n/a	n/a	n/a	n/a	n/a	n/a	n/a	n/a	ITI	poldrack-single-stim	s556	False	0
270.357	0.376	270.733	1.2610678121942662	draw_card	0.376	columbia_card_task_fmri	16.0	0.8	89.0	-70.0	0.2	10.0	1.0	2.0	0.9271237045208522	0.376	n/a	stim	poldrack-single-stim	s556	False	1
270.736	0.2	270.936	-0.6500432989168452	draw_card	0.2	columbia_card_task_fmri	16.0	0.7777777777777778	89.0	-70.0	0.2222222222222222	10.0	2.0	2.0	2.2774180102119104	0.2	2.0	stim	poldrack-single-stim	s556	False	0
271.691	1.5	270.94	n/a	-1.0	2.25	columbia_card_task_fmri	n/a	n/a	-1.0	n/a	n/a	n/a	n/a	n/a	n/a	n/a	n/a	ITI	poldrack-single-stim	s556	False	0
273.194	0.736	273.93	0.5444011455275994	draw_card	0.736	columbia_card_task_fmri	7.0	0.9166666666666666	89.0	-100.0	0.0833333333333333	12.0	1.0	1.0	-3.885334264550608	0.736	n/a	stim	poldrack-single-stim	s556	False	1
273.933	0.185	274.118	-0.2662049150784629	draw_card	0.185	columbia_card_task_fmri	7.0	0.9090909090909092	89.0	-100.0	0.0909090909090909	12.0	2.0	1.0	-2.702167079058242	0.185	n/a	stim	poldrack-single-stim	s556	False	1
274.122	0.165	274.287	-1.2389321878057349	draw_card	0.165	columbia_card_task_fmri	7.0	0.9	89.0	-100.0	0.1	12.0	3.0	1.0	-1.3665943152046085	0.165	n/a	stim	poldrack-single-stim	s556	False	1
274.29	0.925	275.215	-2.427821076694624	draw_card	0.925	columbia_card_task_fmri	7.0	0.8888888888888888	89.0	-100.0	0.1111111111111111	12.0	4.0	1.0	0.1559957100201572	0.925	n/a	stim	poldrack-single-stim	s556	False	1
275.218	0.169	275.387	-3.9139321878057354	draw_card	0.169	columbia_card_task_fmri	7.0	0.875	89.0	-100.0	0.125	12.0	5.0	1.0	1.9116013454155265	0.169	n/a	stim	poldrack-single-stim	s556	False	1
275.39	0.701	276.091	-5.824646473520019	draw_card	0.701	columbia_card_task_fmri	7.0	0.8571428571428572	89.0	-100.0	0.1428571428571428	12.0	6.0	1.0	3.962196297511831	0.701	n/a	stim	poldrack-single-stim	s556	False	1
276.094	0.82	276.914	-8.372265521139065	end_round	0.82	columbia_card_task_fmri	7.0	0.8333333333333334	71.0	-100.0	0.1666666666666666	12.0	7.0	1.0	6.391618882514848	0.82	6.0	stim	poldrack-single-stim	s556	False	1
277.669	1.5	276.918	n/a	-1.0	2.25	columbia_card_task_fmri	n/a	n/a	-1.0	n/a	n/a	n/a	n/a	n/a	n/a	n/a	n/a	ITI	poldrack-single-stim	s556	False	0
279.171	2.292	281.463	0.7944011455276012	draw_card	2.292	columbia_card_task_fmri	14.0	0.8333333333333334	89.0	-80.0	0.1666666666666666	12.0	1.0	2.0	1.557273753530751	2.292	1.0	stim	poldrack-single-stim	s556	False	0
282.218	1.5	281.467	n/a	-1.0	2.386	columbia_card_task_fmri	n/a	n/a	-1.0	n/a	n/a	n/a	n/a	n/a	n/a	n/a	n/a	ITI	poldrack-single-stim	s556	False	0
283.858	1.41	285.268	2.461067812194265	draw_card	1.41	columbia_card_task_fmri	15.0	0.8333333333333334	89.0	-75.0	0.1666666666666666	12.0	1.0	2.0	0.0703891075272764	1.41	n/a	stim	poldrack-single-stim	s556	False	1
285.272	0.174	285.446	1.0974314485579004	draw_card	0.174	columbia_card_task_fmri	15.0	0.8181818181818181	89.0	-75.0	0.1818181818181818	12.0	2.0	2.0	1.2388488398358248	0.174	n/a	stim	poldrack-single-stim	s556	False	1
285.449	0.589	286.038	-0.5389321878057345	draw_card	0.589	columbia_card_task_fmri	15.0	0.8	89.0	-75.0	0.2	12.0	3.0	2.0	2.523225311531718	0.589	n/a	stim	poldrack-single-stim	s556	False	1
286.04	0.18	286.22	-2.5389321878057327	draw_card	0.18	columbia_card_task_fmri	15.0	0.7777777777777778	89.0	-75.0	0.2222222222222222	12.0	4.0	2.0	3.936625028611914	0.18	n/a	stim	poldrack-single-stim	s556	False	1
286.224	0.411	286.635	-5.038932187805735	draw_card	0.411	columbia_card_task_fmri	15.0	0.75	89.0	-75.0	0.25	12.0	5.0	2.0	5.487975716738816	0.411	n/a	stim	poldrack-single-stim	s556	False	1
286.639	0.152	286.791	-8.253217902091446	draw_card	0.152	columbia_card_task_fmri	15.0	0.7142857142857143	89.0	-75.0	0.2857142857142857	12.0	6.0	2.0	7.171473577201262	0.152	n/a	stim	poldrack-single-stim	s556	False	1
286.795	0.349	287.144	-12.538932187805733	draw_card	0.349	columbia_card_task_fmri	15.0	0.6666666666666667	89.0	-75.0	0.3333333333333333	12.0	7.0	2.0	8.936928029196551	0.349	n/a	stim	poldrack-single-stim	s556	False	1
287.147	1.056	288.203	-18.53893218780573	end_round	1.056	columbia_card_task_fmri	15.0	0.6	71.0	-75.0	0.4	12.0	8.0	2.0	10.59864846721613	1.056	7.0	stim	poldrack-single-stim	s556	False	1
288.958	1.5	288.207	n/a	-1.0	2.386	columbia_card_task_fmri	n/a	n/a	-1.0	n/a	n/a	n/a	n/a	n/a	n/a	n/a	n/a	ITI	poldrack-single-stim	s556	False	0
290.597	0.862	291.459	1.4610678121942655	draw_card	0.862	columbia_card_task_fmri	15.0	0.8	89.0	-65.0	0.2	15.0	1.0	3.0	-1.4663007891102993	0.862	n/a	stim	poldrack-single-stim	s556	False	1
291.462	0.171	291.633	0.3182106693371231	draw_card	0.171	columbia_card_task_fmri	15.0	0.7857142857142857	89.0	-65.0	0.2142857142857142	15.0	2.0	3.0	-0.6425998571761937	0.171	n/a	stim	poldrack-single-stim	s556	False	1
291.637	0.149	291.786	-1.000470649344198	draw_card	0.149	columbia_card_task_fmri	15.0	0.7692307692307692	89.0	-65.0	0.2307692307692307	15.0	3.0	3.0	0.2349327997149757	0.149	n/a	stim	poldrack-single-stim	s556	False	1
291.788	0.394	292.182	-2.5389321878057345	draw_card	0.394	columbia_card_task_fmri	15.0	0.75	89.0	-65.0	0.25	15.0	4.0	3.0	1.1675296695187924	0.394	n/a	stim	poldrack-single-stim	s556	False	1
292.186	0.175	292.361	-4.357114005987551	draw_card	0.175	columbia_card_task_fmri	15.0	0.7272727272727273	89.0	-65.0	0.2727272727272727	15.0	5.0	3.0	2.1530400343657945	0.175	n/a	stim	poldrack-single-stim	s556	False	1
292.364	0.766	293.13	-6.538932187805735	end_round	0.766	columbia_card_task_fmri	15.0	0.7	71.0	-65.0	0.3	15.0	6.0	3.0	3.182320215803649	0.766	5.0	stim	poldrack-single-stim	s556	False	1
293.885	1.5	293.134	n/a	-1.0	2.726	columbia_card_task_fmri	n/a	n/a	-1.0	n/a	n/a	n/a	n/a	n/a	n/a	n/a	n/a	ITI	poldrack-single-stim	s556	False	0
295.865	1.14	297.005	0.7110678121942655	draw_card	1.14	columbia_card_task_fmri	14.0	0.8125	89.0	-70.0	0.1875	16.0	1.0	3.0	-0.6823210174782801	1.14	n/a	stim	poldrack-single-stim	s556	False	1
297.009	0.738	297.747	-0.3389321878057334	draw_card	0.738	columbia_card_task_fmri	14.0	0.8	89.0	-70.0	0.2	16.0	2.0	3.0	0.129211588477581	0.738	n/a	stim	poldrack-single-stim	s556	False	1
297.75	1.237	298.987	-1.5389321878057345	end_round	1.237	columbia_card_task_fmri	14.0	0.7857142857142857	71.0	-70.0	0.2142857142857142	16.0	3.0	3.0	0.994328150548462	1.237	2.0	stim	poldrack-single-stim	s556	False	1
299.741	1.5	298.99	n/a	-1.0	2.454	columbia_card_task_fmri	n/a	n/a	-1.0	n/a	n/a	n/a	n/a	n/a	n/a	n/a	n/a	ITI	poldrack-single-stim	s556	False	0
301.448	0.525	301.973	0.6485678121942655	draw_card	0.525	columbia_card_task_fmri	11.0	0.6875	89.0	-30.0	0.3125	16.0	1.0	5.0	-14.398096293412255	0.525	n/a	stim	poldrack-single-stim	s556	False	1
301.977	0.198	302.175	-0.2055988544724005	draw_card	0.198	columbia_card_task_fmri	11.0	0.6666666666666667	89.0	-30.0	0.3333333333333333	16.0	2.0	5.0	-14.077154925213808	0.198	2.0	stim	poldrack-single-stim	s556	False	0
302.93	1.5	302.179	n/a	-1.0	2.318	columbia_card_task_fmri	n/a	n/a	-1.0	n/a	n/a	n/a	n/a	n/a	n/a	n/a	n/a	ITI	poldrack-single-stim	s556	False	0
304.502	0.391	304.893	5.4610678121942655	draw_card	0.391	columbia_card_task_fmri	15.0	0.8666666666666667	89.0	-75.0	0.1333333333333333	15.0	1.0	2.0	-2.8678549064797103	0.391	n/a	stim	poldrack-single-stim	s556	False	1
304.896	0.144	305.04	4.60392495505141	draw_card	0.144	columbia_card_task_fmri	15.0	0.8571428571428572	89.0	-75.0	0.1428571428571428	15.0	2.0	2.0	-1.971345843571779	0.144	n/a	stim	poldrack-single-stim	s556	False	1
305.043	0.156	305.199	3.614913966040419	draw_card	0.156	columbia_card_task_fmri	15.0	0.8461538461538461	89.0	-75.0	0.1538461538461538	15.0	3.0	2.0	-0.9955616347684284	0.156	n/a	stim	poldrack-single-stim	s556	False	1
305.204	0.137	305.341	2.461067812194265	draw_card	0.137	columbia_card_task_fmri	15.0	0.8333333333333334	89.0	-75.0	0.1666666666666666	15.0	4.0	2.0	0.0703891075272764	0.137	n/a	stim	poldrack-single-stim	s556	False	1
305.345	0.15	305.495	1.0974314485579004	draw_card	0.15	columbia_card_task_fmri	15.0	0.8181818181818181	89.0	-75.0	0.1818181818181818	15.0	5.0	2.0	1.2388488398358248	0.15	n/a	stim	poldrack-single-stim	s556	False	1
305.499	0.139	305.638	-0.5389321878057345	draw_card	0.139	columbia_card_task_fmri	15.0	0.8	89.0	-75.0	0.2	15.0	6.0	2.0	2.523225311531718	0.139	n/a	stim	poldrack-single-stim	s556	False	1
305.642	0.145	305.787	-2.5389321878057327	draw_card	0.145	columbia_card_task_fmri	15.0	0.7777777777777778	89.0	-75.0	0.2222222222222222	15.0	7.0	2.0	3.936625028611914	0.145	n/a	stim	poldrack-single-stim	s556	False	1
305.79	0.417	306.207	-5.038932187805735	draw_card	0.417	columbia_card_task_fmri	15.0	0.75	89.0	-75.0	0.25	15.0	8.0	2.0	5.487975716738816	0.417	8.0	stim	poldrack-single-stim	s556	False	0
306.963	1.5	306.212	n/a	-1.0	2.318	columbia_card_task_fmri	n/a	n/a	-1.0	n/a	n/a	n/a	n/a	n/a	n/a	n/a	n/a	ITI	poldrack-single-stim	s556	False	0
308.535	0.811	309.346	7.1944011455276	draw_card	0.811	columbia_card_task_fmri	17.0	0.8666666666666667	89.0	-75.0	0.1333333333333333	15.0	1.0	2.0	-2.190127369974657	0.811	n/a	stim	poldrack-single-stim	s556	False	1
309.35	0.201	309.551	6.318210669337125	draw_card	0.201	columbia_card_task_fmri	17.0	0.8571428571428572	89.0	-75.0	0.1428571428571428	15.0	2.0	2.0	-1.2735727574484983	0.201	n/a	stim	poldrack-single-stim	s556	False	1
309.554	0.172	309.726	5.307221658348112	draw_card	0.172	columbia_card_task_fmri	17.0	0.8461538461538461	89.0	-75.0	0.1538461538461538	15.0	3.0	2.0	-0.2759781479082477	0.172	n/a	stim	poldrack-single-stim	s556	False	1
309.731	0.857	310.588	4.127734478860933	draw_card	0.857	columbia_card_task_fmri	17.0	0.8333333333333334	89.0	-75.0	0.1666666666666666	15.0	4.0	2.0	0.8137899890712177	0.857	n/a	stim	poldrack-single-stim	s556	False	1
310.591	0.175	310.766	2.733795084921537	draw_card	0.175	columbia_card_task_fmri	17.0	0.8181818181818181	89.0	-75.0	0.1818181818181818	15.0	5.0	2.0	2.008348433742256	0.175	n/a	stim	poldrack-single-stim	s556	False	1
310.769	0.659	311.428	1.061067812194267	draw_card	0.659	columbia_card_task_fmri	17.0	0.8	89.0	-75.0	0.2	15.0	6.0	2.0	3.321402798918669	0.659	n/a	stim	poldrack-single-stim	s556	False	1
311.431	1.042	312.473	-0.9833766322501756	end_round	1.042	columbia_card_task_fmri	17.0	0.7777777777777778	71.0	-75.0	0.2222222222222222	15.0	7.0	2.0	4.76635048976361	1.042	6.0	stim	poldrack-single-stim	s556	False	1
313.229	1.5	312.478	n/a	-1.0	2.59	columbia_card_task_fmri	n/a	n/a	-1.0	n/a	n/a	n/a	n/a	n/a	n/a	n/a	n/a	ITI	poldrack-single-stim	s556	False	0
315.073	0.49	315.563	2.773567812194265	draw_card	0.49	columbia_card_task_fmri	2.0	0.9375	89.0	-25.0	0.0625	16.0	1.0	1.0	-26.57712590055021	0.49	n/a	stim	poldrack-single-stim	s556	False	1
315.566	0.191	315.757	2.6610678121942657	draw_card	0.191	columbia_card_task_fmri	2.0	0.9333333333333332	89.0	-25.0	0.0666666666666666	16.0	2.0	1.0	-26.390244908386958	0.191	n/a	stim	poldrack-single-stim	s556	False	1
315.761	0.395	316.156	2.532496383622837	draw_card	0.395	columbia_card_task_fmri	2.0	0.9285714285714286	89.0	-25.0	0.0714285714285714	16.0	3.0	1.0	-26.184561033069883	0.395	n/a	stim	poldrack-single-stim	s556	False	1
316.16	0.232	316.392	2.384144735271189	draw_card	0.232	columbia_card_task_fmri	2.0	0.9230769230769232	89.0	-25.0	0.0769230769230769	16.0	4.0	1.0	-25.95684219721632	0.232	n/a	stim	poldrack-single-stim	s556	False	1
316.397	0.173	316.57	2.211067812194265	draw_card	0.173	columbia_card_task_fmri	2.0	0.9166666666666666	89.0	-25.0	0.0833333333333333	16.0	5.0	1.0	-25.70304199575133	0.173	n/a	stim	poldrack-single-stim	s556	False	1
316.574	0.436	317.01	2.0065223576488105	draw_card	0.436	columbia_card_task_fmri	2.0	0.9090909090909092	89.0	-25.0	0.0909090909090909	16.0	6.0	1.0	-25.41802437015108	0.436	n/a	stim	poldrack-single-stim	s556	False	1
317.014	0.453	317.467	1.7610678121942656	draw_card	0.453	columbia_card_task_fmri	2.0	0.9	89.0	-25.0	0.1	16.0	7.0	1.0	-25.095171770302272	0.453	n/a	stim	poldrack-single-stim	s556	False	1
317.47	0.601	318.071	1.4610678121942655	end_round	0.601	columbia_card_task_fmri	2.0	0.8888888888888888	71.0	-25.0	0.1111111111111111	16.0	8.0	1.0	-24.725820565439456	0.601	7.0	stim	poldrack-single-stim	s556	False	1
318.826	1.5	318.075	n/a	-1.0	2.726	columbia_card_task_fmri	n/a	n/a	-1.0	n/a	n/a	n/a	n/a	n/a	n/a	n/a	n/a	ITI	poldrack-single-stim	s556	False	0
320.807	0.395	321.202	4.9610678121942655	draw_card	0.395	columbia_card_task_fmri	9.0	0.9375	89.0	-95.0	0.0625	16.0	1.0	1.0	-8.266395987676038	0.395	n/a	stim	poldrack-single-stim	s556	False	1
321.206	0.173	321.379	4.527734478860933	draw_card	0.173	columbia_card_task_fmri	9.0	0.9333333333333332	89.0	-95.0	0.0666666666666666	16.0	2.0	1.0	-7.502165529151863	0.173	2.0	stim	poldrack-single-stim	s556	False	0
322.134	1.5	321.383	n/a	-1.0	2.522	columbia_card_task_fmri	n/a	n/a	-1.0	n/a	n/a	n/a	n/a	n/a	n/a	n/a	n/a	ITI	poldrack-single-stim	s556	False	0
323.91	0.285	324.195	6.5235678121942655	draw_card	0.285	columbia_card_task_fmri	11.0	0.9375	89.0	-100.0	0.0625	16.0	1.0	1.0	-6.579501488006571	0.285	n/a	stim	poldrack-single-stim	s556	False	1
324.199	0.162	324.361	6.061067812194266	draw_card	0.162	columbia_card_task_fmri	11.0	0.9333333333333332	89.0	-100.0	0.0666666666666666	16.0	2.0	1.0	-5.763374286914914	0.162	n/a	stim	poldrack-single-stim	s556	False	1
324.365	0.153	324.518	5.532496383622839	draw_card	0.153	columbia_card_task_fmri	11.0	0.9285714285714286	89.0	-100.0	0.0714285714285714	16.0	3.0	1.0	-4.868186653699826	0.153	n/a	stim	poldrack-single-stim	s556	False	1
324.523	0.142	324.665	4.922606273732728	draw_card	0.142	columbia_card_task_fmri	11.0	0.9230769230769232	89.0	-100.0	0.0769230769230769	16.0	4.0	1.0	-3.880490314012352	0.142	n/a	stim	poldrack-single-stim	s556	False	1
324.669	0.157	324.826	4.2110678121942655	draw_card	0.157	columbia_card_task_fmri	11.0	0.9166666666666666	89.0	-100.0	0.0833333333333333	16.0	5.0	1.0	-2.78346453087406	0.157	n/a	stim	poldrack-single-stim	s556	False	1
324.83	0.145	324.975	3.370158721285174	draw_card	0.145	columbia_card_task_fmri	11.0	0.9090909090909092	89.0	-100.0	0.0909090909090909	16.0	6.0	1.0	-1.555779419807969	0.145	n/a	stim	poldrack-single-stim	s556	False	1
324.979	0.139	325.118	2.361067812194266	draw_card	0.139	columbia_card_task_fmri	11.0	0.9	89.0	-100.0	0.1	16.0	7.0	1.0	-0.1699796956055266	0.139	n/a	stim	poldrack-single-stim	s556	False	1
325.122	0.14	325.262	1.1277344788609316	draw_card	0.14	columbia_card_task_fmri	11.0	0.8888888888888888	89.0	-100.0	0.1111111111111111	16.0	8.0	1.0	1.4098415541818383	0.14	n/a	stim	poldrack-single-stim	s556	False	1
325.265	0.141	325.406	-0.4139321878057345	draw_card	0.141	columbia_card_task_fmri	11.0	0.875	89.0	-100.0	0.125	16.0	9.0	1.0	3.231403769697728	0.141	n/a	stim	poldrack-single-stim	s556	False	1
325.41	0.392	325.802	-2.3960750449485904	draw_card	0.392	columbia_card_task_fmri	11.0	0.8571428571428572	89.0	-100.0	0.1428571428571428	16.0	10.0	1.0	5.358999105692234	0.392	n/a	stim	poldrack-single-stim	s556	False	1
325.806	0.15	325.956	-5.038932187805731	draw_card	0.15	columbia_card_task_fmri	11.0	0.8333333333333334	89.0	-100.0	0.1666666666666666	16.0	11.0	1.0	7.87960162481334	0.15	11.0	stim	poldrack-single-stim	s556	False	0
326.71	1.5	325.959	n/a	-1.0	3.134	columbia_card_task_fmri	n/a	n/a	-1.0	n/a	n/a	n/a	n/a	n/a	n/a	n/a	n/a	ITI	poldrack-single-stim	s556	False	0
329.098	0.422	329.52	7.0860678121942655	draw_card	0.422	columbia_card_task_fmri	16.0	0.875	89.0	-75.0	0.125	16.0	1.0	2.0	-3.3649186065147845	0.422	n/a	stim	poldrack-single-stim	s556	False	1
329.524	0.159	329.683	6.327734478860933	draw_card	0.159	columbia_card_task_fmri	16.0	0.8666666666666667	89.0	-75.0	0.1333333333333333	16.0	2.0	2.0	-2.529002850439497	0.159	n/a	stim	poldrack-single-stim	s556	False	1
329.687	0.147	329.834	5.461067812194267	draw_card	0.147	columbia_card_task_fmri	16.0	0.8571428571428572	89.0	-75.0	0.1428571428571428	16.0	3.0	2.0	-1.622470684316948	0.147	3.0	stim	poldrack-single-stim	s556	False	0
330.589	1.5	329.838	n/a	-1.0	2.386	columbia_card_task_fmri	n/a	n/a	-1.0	n/a	n/a	n/a	n/a	n/a	n/a	n/a	n/a	ITI	poldrack-single-stim	s556	False	0
332.228	0.504	332.732	7.3360678121942655	draw_card	0.504	columbia_card_task_fmri	17.0	0.875	89.0	-80.0	0.125	16.0	1.0	2.0	-1.386800331645354	0.504	n/a	stim	poldrack-single-stim	s556	False	1
332.736	0.182	332.918	6.527734478860934	draw_card	0.182	columbia_card_task_fmri	17.0	0.8666666666666667	89.0	-80.0	0.1333333333333333	16.0	2.0	2.0	-0.4954238102318129	0.182	n/a	stim	poldrack-single-stim	s556	False	1
332.922	0.163	333.085	5.603924955051411	draw_card	0.163	columbia_card_task_fmri	17.0	0.8571428571428572	89.0	-80.0	0.1428571428571428	16.0	3.0	2.0	0.4712338809754683	0.163	n/a	stim	poldrack-single-stim	s556	False	1
333.088	0.161	333.249	4.537990889117342	draw_card	0.161	columbia_card_task_fmri	17.0	0.8461538461538461	89.0	-80.0	0.1538461538461538	16.0	4.0	2.0	1.5233434069060934	0.161	n/a	stim	poldrack-single-stim	s556	False	1
333.254	0.158	333.412	3.294401145527601	draw_card	0.158	columbia_card_task_fmri	17.0	0.8333333333333334	89.0	-80.0	0.1666666666666666	16.0	5.0	2.0	2.67264364471	0.158	n/a	stim	poldrack-single-stim	s556	False	1
333.415	0.165	333.58	1.824704175830627	draw_card	0.165	columbia_card_task_fmri	17.0	0.8181818181818181	89.0	-80.0	0.1818181818181818	16.0	6.0	2.0	3.9324371793414974	0.165	n/a	stim	poldrack-single-stim	s556	False	1
333.583	0.147	333.73	0.0610678121942669	draw_card	0.147	columbia_card_task_fmri	17.0	0.8	89.0	-80.0	0.2	16.0	7.0	2.0	5.317174289359201	0.147	n/a	stim	poldrack-single-stim	s556	False	1
333.734	0.791	334.525	-2.09448774336129	draw_card	0.791	columbia_card_task_fmri	17.0	0.7777777777777778	89.0	-80.0	0.2222222222222222	16.0	8.0	2.0	6.840979658856845	0.791	n/a	stim	poldrack-single-stim	s556	False	1
334.529	0.152	334.681	-4.788932187805735	draw_card	0.152	columbia_card_task_fmri	17.0	0.75	89.0	-80.0	0.25	16.0	9.0	2.0	8.51347227316073	0.152	9.0	stim	poldrack-single-stim	s556	False	0
335.437	1.5	334.686	n/a	-1.0	2.386	columbia_card_task_fmri	n/a	n/a	-1.0	n/a	n/a	n/a	n/a	n/a	n/a	n/a	n/a	ITI	poldrack-single-stim	s556	False	0
348.08	1.256	349.336	1.6277344788609334	draw_card	1.256	columbia_card_task_fmri	13.0	0.8333333333333334	89.0	-70.0	0.1666666666666666	6.0	1.0	1.0	-2.530775276675968	1.256	n/a	stim	poldrack-single-stim	s556	False	1
349.34	0.225	349.565	-1.138932187805734	draw_card	0.225	columbia_card_task_fmri	13.0	0.8	89.0	-70.0	0.2	6.0	2.0	1.0	-0.2697068890306013	0.225	n/a	stim	poldrack-single-stim	s556	False	1
349.569	1.318	350.887	-5.288932187805735	end_round	1.318	columbia_card_task_fmri	13.0	0.75	71.0	-70.0	0.25	6.0	3.0	1.0	2.463419389696817	1.318	2.0	stim	poldrack-single-stim	s556	False	1
351.642	1.5	350.891	n/a	-1.0	2.318	columbia_card_task_fmri	n/a	n/a	-1.0	n/a	n/a	n/a	n/a	n/a	n/a	n/a	n/a	ITI	poldrack-single-stim	s556	False	0
353.215	1.781	354.996	1.6277344788609334	draw_card	1.781	columbia_card_task_fmri	15.0	0.8333333333333334	89.0	-80.0	0.1666666666666666	6.0	1.0	1.0	1.929045089066676	1.781	n/a	stim	poldrack-single-stim	s556	False	1
355.0	0.23	355.23	-1.5389321878057345	draw_card	0.23	columbia_card_task_fmri	15.0	0.8	89.0	-80.0	0.2	6.0	2.0	1.0	4.518812448482585	0.23	n/a	stim	poldrack-single-stim	s556	False	1
355.234	1.106	356.34	-6.288932187805735	end_round	1.106	columbia_card_task_fmri	15.0	0.75	71.0	-80.0	0.25	6.0	3.0	1.0	7.648960817644365	1.106	2.0	stim	poldrack-single-stim	s556	False	1
357.095	1.5	356.344	n/a	-1.0	2.318	columbia_card_task_fmri	n/a	n/a	-1.0	n/a	n/a	n/a	n/a	n/a	n/a	n/a	n/a	ITI	poldrack-single-stim	s556	False	0
358.667	0.691	359.358	3.2944011455275994	draw_card	0.691	columbia_card_task_fmri	16.0	0.8333333333333334	89.0	-75.0	0.1666666666666666	6.0	1.0	1.0	0.4420788481594755	0.691	1.0	stim	poldrack-single-stim	s556	False	0
360.112	1.5	359.361	n/a	-1.0	2.862	columbia_card_task_fmri	n/a	n/a	-1.0	n/a	n/a	n/a	n/a	n/a	n/a	n/a	n/a	ITI	poldrack-single-stim	s556	False	0
362.229	0.367	362.596	4.4610678121942655	draw_card	0.367	columbia_card_task_fmri	21.0	0.75	89.0	-55.0	0.25	8.0	1.0	2.0	-0.5599381885446562	0.367	n/a	stim	poldrack-single-stim	s556	False	1
362.599	0.177	362.776	1.746782097908552	draw_card	0.177	columbia_card_task_fmri	21.0	0.7142857142857143	89.0	-55.0	0.2857142857142857	8.0	2.0	2.0	0.8605943878146789	0.177	2.0	stim	poldrack-single-stim	s556	False	0
363.531	1.5	362.78	n/a	-1.0	2.726	columbia_card_task_fmri	n/a	n/a	-1.0	n/a	n/a	n/a	n/a	n/a	n/a	n/a	n/a	ITI	poldrack-single-stim	s556	False	0
365.511	0.363	365.874	5.7110678121942655	draw_card	0.363	columbia_card_task_fmri	26.0	0.75	89.0	-65.0	0.25	8.0	1.0	2.0	5.920136986226666	0.363	n/a	stim	poldrack-single-stim	s556	False	1
365.879	0.183	366.062	2.461067812194269	draw_card	0.183	columbia_card_task_fmri	26.0	0.7142857142857143	89.0	-65.0	0.2857142857142857	8.0	2.0	2.0	7.622411222862688	0.183	n/a	stim	poldrack-single-stim	s556	False	1
366.066	0.157	366.223	-1.872265521139063	draw_card	0.157	columbia_card_task_fmri	26.0	0.6666666666666667	89.0	-65.0	0.3333333333333333	8.0	3.0	2.0	9.407550098994436	0.157	n/a	stim	poldrack-single-stim	s556	False	1
366.227	2.142	368.369	-7.938932187805735	draw_card	2.142	columbia_card_task_fmri	26.0	0.6	89.0	-65.0	0.4	8.0	4.0	2.0	11.08779336313986	2.142	n/a	stim	poldrack-single-stim	s556	False	1
368.373	0.498	368.871	-17.038932187805734	draw_card	0.498	columbia_card_task_fmri	26.0	0.5	89.0	-65.0	0.5	8.0	5.0	2.0	12.005710619279654	0.498	n/a	stim	poldrack-single-stim	s556	False	1
368.875	0.678	369.553	-32.20559885447239	end_round	0.678	columbia_card_task_fmri	26.0	0.3333333333333333	71.0	-65.0	0.6666666666666666	8.0	6.0	2.0	9.407550098994436	0.678	5.0	stim	poldrack-single-stim	s556	False	1
370.309	1.5	369.558	n/a	-1.0	2.25	columbia_card_task_fmri	n/a	n/a	-1.0	n/a	n/a	n/a	n/a	n/a	n/a	n/a	n/a	ITI	poldrack-single-stim	s556	False	0
371.812	0.95	372.762	0.7944011455275994	draw_card	0.95	columbia_card_task_fmri	15.0	0.7777777777777778	89.0	-60.0	0.2222222222222222	9.0	1.0	2.0	-2.2833464401571426	0.95	1.0	stim	poldrack-single-stim	s556	False	0
373.517	1.5	372.766	n/a	-1.0	2.318	columbia_card_task_fmri	n/a	n/a	-1.0	n/a	n/a	n/a	n/a	n/a	n/a	n/a	n/a	ITI	poldrack-single-stim	s556	False	0
375.089	0.373	375.462	5.161067812194267	draw_card	0.373	columbia_card_task_fmri	13.0	0.9	89.0	-90.0	0.1	10.0	1.0	1.0	-2.562947191302694	0.373	n/a	stim	poldrack-single-stim	s556	False	1
375.466	0.178	375.644	4.016623367749821	draw_card	0.178	columbia_card_task_fmri	13.0	0.8888888888888888	89.0	-90.0	0.1111111111111111	10.0	2.0	1.0	-1.0976000804179549	0.178	n/a	stim	poldrack-single-stim	s556	False	1
375.649	0.163	375.812	2.586067812194265	draw_card	0.163	columbia_card_task_fmri	13.0	0.875	89.0	-90.0	0.125	10.0	3.0	1.0	0.592036722440767	0.163	n/a	stim	poldrack-single-stim	s556	False	1
375.815	0.522	376.337	0.7467820979085538	draw_card	0.522	columbia_card_task_fmri	13.0	0.8571428571428572	89.0	-90.0	0.1428571428571428	10.0	4.0	1.0	2.565618410988982	0.522	n/a	stim	poldrack-single-stim	s556	False	1
376.341	0.415	376.756	-1.7055988544724006	draw_card	0.415	columbia_card_task_fmri	13.0	0.8333333333333334	89.0	-90.0	0.1666666666666666	10.0	5.0	1.0	4.903847492816496	0.415	n/a	stim	poldrack-single-stim	s556	False	1
376.762	2.008	378.77	-5.138932187805734	draw_card	2.008	columbia_card_task_fmri	13.0	0.8	89.0	-90.0	0.2	10.0	6.0	1.0	7.712640451417492	2.008	n/a	stim	poldrack-single-stim	s556	False	1
378.774	0.515	379.289	-10.288932187805734	end_round	0.515	columbia_card_task_fmri	13.0	0.75	71.0	-90.0	0.25	10.0	7.0	1.0	11.107358562024343	0.515	6.0	stim	poldrack-single-stim	s556	False	1
380.045	1.5	379.294	n/a	-1.0	2.454	columbia_card_task_fmri	n/a	n/a	-1.0	n/a	n/a	n/a	n/a	n/a	n/a	n/a	n/a	ITI	poldrack-single-stim	s556	False	0
381.753	1.652	383.405	6.4610678121942655	draw_card	1.652	columbia_card_task_fmri	15.0	0.9	89.0	-95.0	0.1	10.0	1.0	1.0	-0.4691563362443105	1.652	1.0	stim	poldrack-single-stim	s556	False	0
384.16	1.5	383.409	n/a	-1.0	2.522	columbia_card_task_fmri	n/a	n/a	-1.0	n/a	n/a	n/a	n/a	n/a	n/a	n/a	n/a	ITI	poldrack-single-stim	s556	False	0
385.937	0.34	386.277	2.2610678121942662	draw_card	0.34	columbia_card_task_fmri	16.0	0.8	89.0	-65.0	0.2	10.0	1.0	2.0	-1.0674640692855846	0.34	n/a	stim	poldrack-single-stim	s556	False	1
386.282	0.52	386.802	0.4610678121942673	draw_card	0.52	columbia_card_task_fmri	16.0	0.7777777777777778	89.0	-65.0	0.2222222222222222	10.0	2.0	2.0	0.2039283550384709	0.52	n/a	stim	poldrack-single-stim	s556	False	1
386.807	4.073	390.88	-1.7889321878057345	end_round	4.073	columbia_card_task_fmri	16.0	0.75	71.0	-65.0	0.25	10.0	3.0	2.0	1.5994670918301637	4.073	2.0	stim	poldrack-single-stim	s556	False	1
391.635	1.5	390.884	n/a	-1.0	2.318	columbia_card_task_fmri	n/a	n/a	-1.0	n/a	n/a	n/a	n/a	n/a	n/a	n/a	n/a	ITI	poldrack-single-stim	s556	False	0
393.207	0.678	393.885	0.9610678121942656	draw_card	0.678	columbia_card_task_fmri	7.0	0.9166666666666666	89.0	-95.0	0.0833333333333333	12.0	1.0	1.0	-5.262268648319679	0.678	n/a	stim	poldrack-single-stim	s556	False	1
393.89	1.871	395.761	0.1883405394669921	draw_card	1.871	columbia_card_task_fmri	7.0	0.9090909090909092	89.0	-95.0	0.0909090909090909	12.0	2.0	1.0	-4.134764108670069	1.871	n/a	stim	poldrack-single-stim	s556	False	1
395.766	0.176	395.942	-0.7389321878057347	draw_card	0.176	columbia_card_task_fmri	7.0	0.9	89.0	-95.0	0.1	12.0	3.0	1.0	-2.861990926708799	0.176	n/a	stim	poldrack-single-stim	s556	False	1
395.946	0.156	396.102	-1.8722655211390684	draw_card	0.156	columbia_card_task_fmri	7.0	0.8888888888888888	89.0	-95.0	0.1111111111111111	12.0	4.0	1.0	-1.4109565292121855	0.156	n/a	stim	poldrack-single-stim	s556	False	1
396.106	1.697	397.803	-3.2889321878057345	draw_card	1.697	columbia_card_task_fmri	7.0	0.875	89.0	-95.0	0.125	12.0	5.0	1.0	0.2621859848978332	1.697	n/a	stim	poldrack-single-stim	s556	False	1
397.807	0.828	398.635	-5.110360759234306	end_round	0.828	columbia_card_task_fmri	7.0	0.8571428571428572	71.0	-95.0	0.1428571428571428	12.0	6.0	1.0	2.2165121701382304	0.828	5.0	stim	poldrack-single-stim	s556	False	1
399.392	1.5	398.641	n/a	-1.0	2.522	columbia_card_task_fmri	n/a	n/a	-1.0	n/a	n/a	n/a	n/a	n/a	n/a	n/a	n/a	ITI	poldrack-single-stim	s556	False	0
401.168	0.344	401.512	1.6277344788609334	draw_card	0.344	columbia_card_task_fmri	14.0	0.8333333333333334	89.0	-75.0	0.1666666666666666	12.0	1.0	2.0	-0.3012785153528483	0.344	1.0	stim	poldrack-single-stim	s556	False	0
402.267	1.5	401.516	n/a	-1.0	2.998	columbia_card_task_fmri	n/a	n/a	-1.0	n/a	n/a	n/a	n/a	n/a	n/a	n/a	n/a	ITI	poldrack-single-stim	s556	False	0
404.52	0.659	405.179	3.2944011455275994	draw_card	0.659	columbia_card_task_fmri	15.0	0.8333333333333334	89.0	-70.0	0.1666666666666666	12.0	1.0	2.0	-1.7877123066163847	0.659	n/a	stim	poldrack-single-stim	s556	False	1
405.183	0.289	405.472	2.0065223576488087	draw_card	0.289	columbia_card_task_fmri	15.0	0.8181818181818181	89.0	-70.0	0.1818181818181818	12.0	2.0	2.0	-0.684512669582368	0.289	n/a	stim	poldrack-single-stim	s556	False	1
405.477	0.325	405.802	0.4610678121942655	draw_card	0.325	columbia_card_task_fmri	15.0	0.8	89.0	-70.0	0.2	12.0	3.0	2.0	0.5281554128649333	0.325	n/a	stim	poldrack-single-stim	s556	False	1
405.806	0.739	406.545	-1.4278210766946238	end_round	0.739	columbia_card_task_fmri	15.0	0.7777777777777778	71.0	-70.0	0.2222222222222222	12.0	4.0	2.0	1.8626712340724796	0.739	3.0	stim	poldrack-single-stim	s556	False	1
407.302	1.5	406.551	n/a	-1.0	2.318	columbia_card_task_fmri	n/a	n/a	-1.0	n/a	n/a	n/a	n/a	n/a	n/a	n/a	n/a	ITI	poldrack-single-stim	s556	False	0
408.875	0.394	409.269	1.2610678121942662	draw_card	0.394	columbia_card_task_fmri	16.0	0.8	89.0	-70.0	0.2	15.0	1.0	3.0	0.9271237045208522	0.394	n/a	stim	poldrack-single-stim	s556	False	1
409.274	0.187	409.461	0.0324963836228366	draw_card	0.187	columbia_card_task_fmri	16.0	0.7857142857142857	89.0	-70.0	0.2142857142857142	15.0	2.0	3.0	1.8129442193093297	0.187	n/a	stim	poldrack-single-stim	s556	False	1
409.466	0.183	409.649	-1.3850860339595812	draw_card	0.183	columbia_card_task_fmri	16.0	0.7692307692307692	89.0	-70.0	0.2307692307692307	15.0	3.0	3.0	2.756637838424176	0.183	3.0	stim	poldrack-single-stim	s556	False	0
410.406	1.5	409.655	n/a	-1.0	2.25	columbia_card_task_fmri	n/a	n/a	-1.0	n/a	n/a	n/a	n/a	n/a	n/a	n/a	n/a	ITI	poldrack-single-stim	s556	False	0
411.911	0.347	412.258	1.6485678121942655	draw_card	0.347	columbia_card_task_fmri	14.0	0.8125	89.0	-65.0	0.1875	16.0	1.0	3.0	-2.6280629331107512	0.347	n/a	stim	poldrack-single-stim	s556	False	1
412.262	0.19	412.452	0.6610678121942666	draw_card	0.19	columbia_card_task_fmri	14.0	0.8	89.0	-65.0	0.2	16.0	2.0	3.0	-1.865108190396512	0.19	n/a	stim	poldrack-single-stim	s556	False	1
412.457	1.187	413.644	-0.4675036163771615	end_round	1.187	columbia_card_task_fmri	14.0	0.7857142857142857	71.0	-65.0	0.2142857142857142	16.0	3.0	3.0	-1.0517629154707606	1.187	2.0	stim	poldrack-single-stim	s556	False	1
414.401	1.5	413.65	n/a	-1.0	2.454	columbia_card_task_fmri	n/a	n/a	-1.0	n/a	n/a	n/a	n/a	n/a	n/a	n/a	n/a	ITI	poldrack-single-stim	s556	False	0
416.11	0.44	416.55	1.3985678121942655	draw_card	0.44	columbia_card_task_fmri	16.0	0.8125	89.0	-75.0	0.1875	16.0	1.0	3.0	2.0427879661263333	0.44	n/a	stim	poldrack-single-stim	s556	False	1
416.555	0.171	416.726	0.2610678121942662	draw_card	0.171	columbia_card_task_fmri	16.0	0.8	89.0	-75.0	0.2	16.0	2.0	3.0	2.922304075611564	0.171	n/a	stim	poldrack-single-stim	s556	False	1
416.731	0.166	416.897	-1.0389321878057327	draw_card	0.166	columbia_card_task_fmri	16.0	0.7857142857142857	89.0	-75.0	0.2142857142857142	16.0	3.0	3.0	3.8598745491982456	0.166	n/a	stim	poldrack-single-stim	s556	False	1
416.901	0.164	417.065	-2.538932187805738	draw_card	0.164	columbia_card_task_fmri	16.0	0.7692307692307692	89.0	-75.0	0.2307692307692307	16.0	4.0	3.0	4.858685739523949	0.164	4.0	stim	poldrack-single-stim	s556	False	0
417.821	1.5	417.07	n/a	-1.0	2.318	columbia_card_task_fmri	n/a	n/a	-1.0	n/a	n/a	n/a	n/a	n/a	n/a	n/a	n/a	ITI	poldrack-single-stim	s556	False	0
419.394	0.381	419.775	5.661067812194267	draw_card	0.381	columbia_card_task_fmri	16.0	0.8666666666666667	89.0	-80.0	0.1333333333333333	15.0	1.0	2.0	-0.834405757943621	0.381	1.0	stim	poldrack-single-stim	s556	False	0
420.531	1.5	419.78	n/a	-1.0	2.318	columbia_card_task_fmri	n/a	n/a	-1.0	n/a	n/a	n/a	n/a	n/a	n/a	n/a	n/a	ITI	poldrack-single-stim	s556	False	0
422.105	0.174	422.279	6.527734478860934	draw_card	0.174	columbia_card_task_fmri	17.0	0.8666666666666667	89.0	-80.0	0.1333333333333333	15.0	1.0	2.0	-0.4954238102318129	0.174	1.0	stim	poldrack-single-stim	s556	False	0
423.035	1.5	422.284	n/a	-1.0	2.59	columbia_card_task_fmri	n/a	n/a	-1.0	n/a	n/a	n/a	n/a	n/a	n/a	n/a	n/a	ITI	poldrack-single-stim	s556	False	0
424.881	0.394	425.275	2.461067812194265	end_round	0.394	columbia_card_task_fmri	1.0	0.9375	71.0	-15.0	0.0625	16.0	1.0	1.0	-28.97202474671795	0.394	0.0	stim	poldrack-single-stim	s556	False	1
426.031	1.5	425.28	n/a	-1.0	2.25	columbia_card_task_fmri	n/a	n/a	-1.0	n/a	n/a	n/a	n/a	n/a	n/a	n/a	n/a	ITI	poldrack-single-stim	s556	False	0
427.536	0.597	428.133	5.5860678121942655	draw_card	0.597	columbia_card_task_fmri	10.0	0.9375	89.0	-100.0	0.0625	16.0	1.0	1.0	-6.820544757073126	0.597	n/a	stim	poldrack-single-stim	s556	False	1
428.138	0.183	428.321	5.1277344788609325	draw_card	0.183	columbia_card_task_fmri	10.0	0.9333333333333332	89.0	-100.0	0.0666666666666666	16.0	2.0	1.0	-6.011829693086174	0.183	n/a	stim	poldrack-single-stim	s556	False	1
428.327	0.174	428.501	4.60392495505141	draw_card	0.174	columbia_card_task_fmri	10.0	0.9285714285714286	89.0	-100.0	0.0714285714285714	16.0	3.0	1.0	-5.124768329309049	0.174	n/a	stim	poldrack-single-stim	s556	False	1
428.505	0.161	428.666	3.9995293506558047	draw_card	0.161	columbia_card_task_fmri	10.0	0.9230769230769232	89.0	-100.0	0.0769230769230769	16.0	4.0	1.0	-4.14603372252542	0.161	n/a	stim	poldrack-single-stim	s556	False	1
428.671	0.157	428.828	3.2944011455275994	draw_card	0.157	columbia_card_task_fmri	10.0	0.9166666666666666	89.0	-100.0	0.0833333333333333	16.0	5.0	1.0	-3.058956876647436	0.157	5.0	stim	poldrack-single-stim	s556	False	0
429.585	1.5	428.834	n/a	-1.0	2.25	columbia_card_task_fmri	n/a	n/a	-1.0	n/a	n/a	n/a	n/a	n/a	n/a	n/a	n/a	ITI	poldrack-single-stim	s556	False	0
431.09	0.856	431.946	6.2110678121942655	draw_card	0.856	columbia_card_task_fmri	15.0	0.875	89.0	-75.0	0.125	16.0	1.0	2.0	-3.694525075354438	0.856	n/a	stim	poldrack-single-stim	s556	False	1
431.949	0.179	432.128	5.4610678121942655	draw_card	0.179	columbia_card_task_fmri	15.0	0.8666666666666667	89.0	-75.0	0.1333333333333333	16.0	2.0	2.0	-2.8678549064797103	0.179	n/a	stim	poldrack-single-stim	s556	False	1
432.133	0.17	432.303	4.60392495505141	draw_card	0.17	columbia_card_task_fmri	15.0	0.8571428571428572	89.0	-75.0	0.1428571428571428	16.0	3.0	2.0	-1.971345843571779	0.17	n/a	stim	poldrack-single-stim	s556	False	1
432.306	0.175	432.481	3.614913966040419	draw_card	0.175	columbia_card_task_fmri	15.0	0.8461538461538461	89.0	-75.0	0.1538461538461538	16.0	4.0	2.0	-0.9955616347684284	0.175	n/a	stim	poldrack-single-stim	s556	False	1
432.487	0.15	432.637	2.461067812194265	draw_card	0.15	columbia_card_task_fmri	15.0	0.8333333333333334	89.0	-75.0	0.1666666666666666	16.0	5.0	2.0	0.0703891075272764	0.15	n/a	stim	poldrack-single-stim	s556	False	1
432.641	0.93	433.571	1.0974314485579004	draw_card	0.93	columbia_card_task_fmri	15.0	0.8181818181818181	89.0	-75.0	0.1818181818181818	16.0	6.0	2.0	1.2388488398358248	0.93	n/a	stim	poldrack-single-stim	s556	False	1
433.575	0.437	434.012	-0.5389321878057345	draw_card	0.437	columbia_card_task_fmri	15.0	0.8	89.0	-75.0	0.2	16.0	7.0	2.0	2.523225311531718	0.437	n/a	stim	poldrack-single-stim	s556	False	1
434.016	0.637	434.653	-2.5389321878057327	draw_card	0.637	columbia_card_task_fmri	15.0	0.7777777777777778	89.0	-75.0	0.2222222222222222	16.0	8.0	2.0	3.936625028611914	0.637	8.0	stim	poldrack-single-stim	s556	False	0
435.409	1.5	434.658	n/a	-1.0	2.522	columbia_card_task_fmri	n/a	n/a	-1.0	n/a	n/a	n/a	n/a	n/a	n/a	n/a	n/a	ITI	poldrack-single-stim	s556	False	0
437.186	0.373	437.559	6.4610678121942655	draw_card	0.373	columbia_card_task_fmri	16.0	0.875	89.0	-80.0	0.125	16.0	1.0	2.0	-1.71654024405235	0.373	n/a	stim	poldrack-single-stim	s556	False	1
437.562	0.217	437.779	5.661067812194267	draw_card	0.217	columbia_card_task_fmri	16.0	0.8666666666666667	89.0	-80.0	0.1333333333333333	16.0	2.0	2.0	-0.834405757943621	0.217	n/a	stim	poldrack-single-stim	s556	False	1
437.784	0.198	437.982	4.746782097908554	draw_card	0.198	columbia_card_task_fmri	16.0	0.8571428571428572	89.0	-80.0	0.1428571428571428	16.0	3.0	2.0	0.1222324754871735	0.198	n/a	stim	poldrack-single-stim	s556	False	1
437.986	0.212	438.198	3.691837042963496	draw_card	0.212	columbia_card_task_fmri	16.0	0.8461538461538461	89.0	-80.0	0.1538461538461538	16.0	4.0	2.0	1.1634402071373984	0.212	n/a	stim	poldrack-single-stim	s556	False	1
438.203	1.063	439.266	2.4610678121942677	end_round	1.063	columbia_card_task_fmri	16.0	0.8333333333333334	71.0	-80.0	0.1666666666666666	16.0	5.0	2.0	2.3008352459179804	1.063	4.0	stim	poldrack-single-stim	s556	False	1
440.022	1.5	439.271	n/a	-1.0	2.454	columbia_card_task_fmri	n/a	n/a	-1.0	n/a	n/a	n/a	n/a	n/a	n/a	n/a	n/a	ITI	poldrack-single-stim	s556	False	0
441.729	0.361	442.09	3.6485678121942655	draw_card	0.361	columbia_card_task_fmri	4.0	0.6875	89.0	-5.0	0.3125	16.0	1.0	5.0	-28.71732993483884	0.361	1.0	stim	poldrack-single-stim	s556	False	0
442.846	1.5	442.095	n/a	-1.0	2.25	columbia_card_task_fmri	n/a	n/a	-1.0	n/a	n/a	n/a	n/a	n/a	n/a	n/a	n/a	ITI	poldrack-single-stim	s556	False	0
444.35	0.949	445.299	0.7944011455276012	draw_card	0.949	columbia_card_task_fmri	14.0	0.8333333333333334	89.0	-80.0	0.1666666666666666	6.0	1.0	1.0	1.557273753530751	0.949	n/a	stim	poldrack-single-stim	s556	False	1
445.304	0.279	445.583	-2.3389321878057334	draw_card	0.279	columbia_card_task_fmri	14.0	0.8	89.0	-80.0	0.2	6.0	2.0	1.0	4.119657586365996	0.279	n/a	stim	poldrack-single-stim	s556	False	1
445.589	0.632	446.221	-7.038932187805735	draw_card	0.632	columbia_card_task_fmri	14.0	0.75	89.0	-80.0	0.25	6.0	3.0	1.0	7.216729183524258	0.632	n/a	stim	poldrack-single-stim	s556	False	1
446.227	0.784	447.011	-14.872265521139065	end_round	0.784	columbia_card_task_fmri	14.0	0.6666666666666667	71.0	-80.0	0.3333333333333333	6.0	4.0	1.0	10.819515959387772	0.784	3.0	stim	poldrack-single-stim	s556	False	1
447.767	1.5	447.016	n/a	-1.0	2.454	columbia_card_task_fmri	n/a	n/a	-1.0	n/a	n/a	n/a	n/a	n/a	n/a	n/a	n/a	ITI	poldrack-single-stim	s556	False	0
449.478	0.332	449.81	2.461067812194265	draw_card	0.332	columbia_card_task_fmri	15.0	0.8333333333333334	89.0	-75.0	0.1666666666666666	6.0	1.0	1.0	0.0703891075272764	0.332	1.0	stim	poldrack-single-stim	s556	False	0
450.566	1.5	449.815	n/a	-1.0	2.454	columbia_card_task_fmri	n/a	n/a	-1.0	n/a	n/a	n/a	n/a	n/a	n/a	n/a	n/a	ITI	poldrack-single-stim	s556	False	0
452.274	0.292	452.566	4.127734478860933	draw_card	0.292	columbia_card_task_fmri	16.0	0.8333333333333334	89.0	-70.0	0.1666666666666666	6.0	1.0	1.0	-1.416141005715822	0.292	n/a	stim	poldrack-single-stim	s556	False	1
452.571	0.244	452.815	1.2610678121942662	draw_card	0.244	columbia_card_task_fmri	16.0	0.8	89.0	-70.0	0.2	6.0	2.0	1.0	0.9271237045208522	0.244	n/a	stim	poldrack-single-stim	s556	False	1
452.82	0.306	453.126	-3.0389321878057345	draw_card	0.306	columbia_card_task_fmri	16.0	0.75	89.0	-70.0	0.25	6.0	3.0	1.0	3.759528021594427	0.306	n/a	stim	poldrack-single-stim	s556	False	1
453.13	0.407	453.537	-10.2055988544724	draw_card	0.407	columbia_card_task_fmri	16.0	0.6666666666666667	89.0	-70.0	0.3333333333333333	6.0	4.0	1.0	7.054621230652714	0.407	n/a	stim	poldrack-single-stim	s556	False	1
453.542	0.383	453.925	-24.53893218780573	end_round	0.383	columbia_card_task_fmri	16.0	0.5	71.0	-70.0	0.5	6.0	5.0	1.0	9.509571348369342	0.383	4.0	stim	poldrack-single-stim	s556	False	1
454.681	1.5	453.93	n/a	-1.0	2.522	columbia_card_task_fmri	n/a	n/a	-1.0	n/a	n/a	n/a	n/a	n/a	n/a	n/a	n/a	ITI	poldrack-single-stim	s556	False	0
456.458	0.567	457.025	4.7110678121942655	draw_card	0.567	columbia_card_task_fmri	23.0	0.75	89.0	-60.0	0.25	8.0	1.0	2.0	2.463419389696817	0.567	n/a	stim	poldrack-single-stim	s556	False	1
457.029	0.659	457.688	1.7467820979085538	draw_card	0.659	columbia_card_task_fmri	23.0	0.7142857142857143	89.0	-60.0	0.2857142857142857	8.0	2.0	2.0	4.0154591430317765	0.659	2.0	stim	poldrack-single-stim	s556	False	0
458.443	1.5	457.692	n/a	-1.0	2.454	columbia_card_task_fmri	n/a	n/a	-1.0	n/a	n/a	n/a	n/a	n/a	n/a	n/a	n/a	ITI	poldrack-single-stim	s556	False	0
460.151	0.28	460.431	5.2110678121942655	draw_card	0.28	columbia_card_task_fmri	27.0	0.75	89.0	-70.0	0.25	8.0	1.0	2.0	8.51347227316073	0.28	1.0	stim	poldrack-single-stim	s556	False	0
461.187	1.5	460.436	n/a	-1.0	2.658	columbia_card_task_fmri	n/a	n/a	-1.0	n/a	n/a	n/a	n/a	n/a	n/a	n/a	n/a	ITI	poldrack-single-stim	s556	False	0
463.101	0.308	463.409	0.4610678121942673	draw_card	0.308	columbia_card_task_fmri	16.0	0.7777777777777778	89.0	-65.0	0.2222222222222222	9.0	1.0	2.0	0.2039283550384709	0.308	n/a	stim	poldrack-single-stim	s556	False	1
463.415	0.509	463.924	-1.7889321878057345	draw_card	0.509	columbia_card_task_fmri	16.0	0.75	89.0	-65.0	0.25	9.0	2.0	2.0	1.5994670918301637	0.509	n/a	stim	poldrack-single-stim	s556	False	1
463.928	0.224	464.152	-4.681789330662875	draw_card	0.224	columbia_card_task_fmri	16.0	0.7142857142857143	89.0	-65.0	0.2857142857142857	9.0	3.0	2.0	3.113938921727147	0.224	n/a	stim	poldrack-single-stim	s556	False	1
464.157	0.226	464.383	-8.538932187805731	draw_card	0.226	columbia_card_task_fmri	16.0	0.6666666666666667	89.0	-65.0	0.3333333333333333	9.0	4.0	2.0	4.702196280590165	0.226	n/a	stim	poldrack-single-stim	s556	False	1
464.389	0.681	465.07	-13.938932187805731	end_round	0.681	columbia_card_task_fmri	16.0	0.6	71.0	-65.0	0.4	9.0	5.0	2.0	6.197178891345345	0.681	4.0	stim	poldrack-single-stim	s556	False	1
465.826	1.5	465.075	n/a	-1.0	2.386	columbia_card_task_fmri	n/a	n/a	-1.0	n/a	n/a	n/a	n/a	n/a	n/a	n/a	n/a	ITI	poldrack-single-stim	s556	False	0
467.467	0.957	468.424	5.661067812194267	draw_card	0.957	columbia_card_task_fmri	13.0	0.9	89.0	-85.0	0.1	10.0	1.0	1.0	-4.057971701793981	0.957	n/a	stim	poldrack-single-stim	s556	False	1
468.429	0.394	468.823	4.572178923305376	draw_card	0.394	columbia_card_task_fmri	13.0	0.8888888888888888	89.0	-85.0	0.1111111111111111	10.0	2.0	1.0	-2.6641968121429045	0.394	2.0	stim	poldrack-single-stim	s556	False	0
469.578	1.5	468.827	n/a	-1.0	2.522	columbia_card_task_fmri	n/a	n/a	-1.0	n/a	n/a	n/a	n/a	n/a	n/a	n/a	n/a	ITI	poldrack-single-stim	s556	False	0
471.355	0.607	471.962	0.6610678121942666	draw_card	0.607	columbia_card_task_fmri	14.0	0.8	89.0	-65.0	0.2	10.0	1.0	2.0	-1.865108190396512	0.607	n/a	stim	poldrack-single-stim	s556	False	1
471.967	0.595	472.562	-1.094487743361288	end_round	0.595	columbia_card_task_fmri	14.0	0.7777777777777778	71.0	-65.0	0.2222222222222222	10.0	2.0	2.0	-0.6252836343359292	0.595	1.0	stim	poldrack-single-stim	s556	False	1
473.318	1.5	472.567	n/a	-1.0	2.59	columbia_card_task_fmri	n/a	n/a	-1.0	n/a	n/a	n/a	n/a	n/a	n/a	n/a	n/a	ITI	poldrack-single-stim	s556	False	0
475.163	0.359	475.522	2.061067812194267	draw_card	0.359	columbia_card_task_fmri	17.0	0.8	89.0	-70.0	0.2	10.0	1.0	2.0	1.3261156240190957	0.359	n/a	stim	poldrack-single-stim	s556	False	1
475.527	0.41	475.937	0.1277344788609333	draw_card	0.41	columbia_card_task_fmri	17.0	0.7777777777777778	89.0	-70.0	0.2222222222222222	10.0	2.0	2.0	2.692187532562848	0.41	n/a	stim	poldrack-single-stim	s556	False	1
475.942	0.244	476.186	-2.2889321878057345	draw_card	0.244	columbia_card_task_fmri	17.0	0.75	89.0	-70.0	0.25	10.0	3.0	2.0	4.191608982389106	0.244	n/a	stim	poldrack-single-stim	s556	False	1
476.191	0.221	476.412	-5.396075044948592	draw_card	0.221	columbia_card_task_fmri	17.0	0.7142857142857143	89.0	-70.0	0.2857142857142857	10.0	4.0	2.0	5.818772912653927	0.221	n/a	stim	poldrack-single-stim	s556	False	1
476.417	0.377	476.794	-9.538932187805733	draw_card	0.377	columbia_card_task_fmri	17.0	0.6666666666666667	89.0	-70.0	0.3333333333333333	10.0	5.0	2.0	7.525169461018166	0.377	n/a	stim	poldrack-single-stim	s556	False	1
476.798	0.44	477.238	-15.338932187805735	draw_card	0.44	columbia_card_task_fmri	17.0	0.6	89.0	-70.0	0.4	10.0	6.0	2.0	9.131317396469072	0.44	n/a	stim	poldrack-single-stim	s556	False	1
477.244	0.629	477.873	-24.03893218780573	draw_card	0.629	columbia_card_task_fmri	17.0	0.5	89.0	-70.0	0.5	10.0	7.0	2.0	10.00876378565782	0.629	7.0	stim	poldrack-single-stim	s556	False	0
478.629	1.5	477.878	n/a	-1.0	2.386	columbia_card_task_fmri	n/a	n/a	-1.0	n/a	n/a	n/a	n/a	n/a	n/a	n/a	n/a	ITI	poldrack-single-stim	s556	False	0
480.272	0.481	480.753	0.7944011455275994	draw_card	0.481	columbia_card_task_fmri	13.0	0.8333333333333334	89.0	-75.0	0.1666666666666666	12.0	1.0	2.0	-0.6729232706192221	0.481	n/a	stim	poldrack-single-stim	s556	False	1
480.757	0.324	481.081	-0.5389321878057363	draw_card	0.324	columbia_card_task_fmri	13.0	0.8181818181818181	89.0	-75.0	0.1818181818181818	12.0	2.0	2.0	0.4694348081067332	0.324	n/a	stim	poldrack-single-stim	s556	False	1
481.088	0.232	481.32	-2.138932187805734	draw_card	0.232	columbia_card_task_fmri	13.0	0.8	89.0	-75.0	0.2	12.0	3.0	2.0	1.7251303698516978	0.232	n/a	stim	poldrack-single-stim	s556	False	1
481.325	0.211	481.536	-4.094487743361288	draw_card	0.211	columbia_card_task_fmri	13.0	0.7777777777777778	89.0	-75.0	0.2222222222222222	12.0	4.0	2.0	3.106979029240371	0.211	n/a	stim	poldrack-single-stim	s556	False	1
481.541	0.224	481.765	-6.538932187805735	draw_card	0.224	columbia_card_task_fmri	13.0	0.75	89.0	-75.0	0.25	12.0	5.0	2.0	4.623711052359397	0.224	n/a	stim	poldrack-single-stim	s556	False	1
481.77	0.23	482.0	-9.681789330662877	draw_card	0.23	columbia_card_task_fmri	13.0	0.7142857142857143	89.0	-75.0	0.2857142857142857	12.0	6.0	2.0	6.26965378659424	0.23	6.0	stim	poldrack-single-stim	s556	False	0
482.757	1.5	482.006	n/a	-1.0	2.59	columbia_card_task_fmri	n/a	n/a	-1.0	n/a	n/a	n/a	n/a	n/a	n/a	n/a	n/a	ITI	poldrack-single-stim	s556	False	0
484.601	0.279	484.88	2.4610678121942677	draw_card	0.279	columbia_card_task_fmri	14.0	0.8333333333333334	89.0	-70.0	0.1666666666666666	12.0	1.0	2.0	-2.1592573776721338	0.279	n/a	stim	poldrack-single-stim	s556	False	1
484.885	0.235	485.12	1.1883405394669904	draw_card	0.235	columbia_card_task_fmri	14.0	0.8181818181818181	89.0	-70.0	0.1818181818181818	12.0	2.0	2.0	-1.0691122557943302	0.235	n/a	stim	poldrack-single-stim	s556	False	1
485.125	0.223	485.348	-0.3389321878057334	draw_card	0.223	columbia_card_task_fmri	14.0	0.8	89.0	-70.0	0.2	12.0	3.0	2.0	0.129211588477581	0.223	n/a	stim	poldrack-single-stim	s556	False	1
485.352	0.232	485.584	-2.205598854472401	draw_card	0.232	columbia_card_task_fmri	14.0	0.7777777777777778	89.0	-70.0	0.2222222222222222	12.0	4.0	2.0	1.447948012564055	0.232	n/a	stim	poldrack-single-stim	s556	False	1
485.589	0.241	485.83	-4.538932187805735	draw_card	0.241	columbia_card_task_fmri	14.0	0.75	89.0	-70.0	0.25	12.0	5.0	2.0	2.8954324297385767	0.241	n/a	stim	poldrack-single-stim	s556	False	1
485.835	0.22	486.055	-7.5389321878057345	draw_card	0.22	columbia_card_task_fmri	14.0	0.7142857142857143	89.0	-70.0	0.2857142857142857	12.0	6.0	2.0	4.466254634641132	0.22	6.0	stim	poldrack-single-stim	s556	False	0
486.811	1.5	486.06	n/a	-1.0	2.318	columbia_card_task_fmri	n/a	n/a	-1.0	n/a	n/a	n/a	n/a	n/a	n/a	n/a	n/a	ITI	poldrack-single-stim	s556	False	0
488.386	0.535	488.921	2.4610678121942677	draw_card	0.535	columbia_card_task_fmri	16.0	0.8333333333333334	89.0	-80.0	0.1666666666666666	12.0	1.0	2.0	2.3008352459179804	0.535	n/a	stim	poldrack-single-stim	s556	False	1
488.925	0.283	489.208	1.0065223576488087	draw_card	0.283	columbia_card_task_fmri	16.0	0.8181818181818181	89.0	-80.0	0.1818181818181818	12.0	2.0	2.0	3.547583016335537	0.283	n/a	stim	poldrack-single-stim	s556	False	1
489.212	0.231	489.443	-0.7389321878057338	draw_card	0.231	columbia_card_task_fmri	16.0	0.8	89.0	-80.0	0.2	12.0	3.0	2.0	4.917984863029993	0.231	n/a	stim	poldrack-single-stim	s556	False	1
489.449	0.254	489.703	-2.8722655211390684	draw_card	0.254	columbia_card_task_fmri	16.0	0.7777777777777778	89.0	-80.0	0.2222222222222222	12.0	4.0	2.0	6.426020010980302	0.254	n/a	stim	poldrack-single-stim	s556	False	1
489.707	0.26	489.967	-5.538932187805735	draw_card	0.26	columbia_card_task_fmri	16.0	0.75	89.0	-80.0	0.25	12.0	5.0	2.0	8.08120868091924	0.26	n/a	stim	poldrack-single-stim	s556	False	1
489.972	0.297	490.269	-8.96750361637716	draw_card	0.297	columbia_card_task_fmri	16.0	0.7142857142857143	89.0	-80.0	0.2857142857142857	12.0	6.0	2.0	9.87735390761314	0.297	6.0	stim	poldrack-single-stim	s556	False	0
491.026	1.5	490.275	n/a	-1.0	2.25	columbia_card_task_fmri	n/a	n/a	-1.0	n/a	n/a	n/a	n/a	n/a	n/a	n/a	n/a	ITI	poldrack-single-stim	s556	False	0
492.53	0.445	492.975	2.2610678121942662	draw_card	0.445	columbia_card_task_fmri	16.0	0.8	89.0	-65.0	0.2	15.0	1.0	3.0	-1.0674640692855846	0.445	1.0	stim	poldrack-single-stim	s556	False	0
493.732	1.5	492.981	n/a	-1.0	2.454	columbia_card_task_fmri	n/a	n/a	-1.0	n/a	n/a	n/a	n/a	n/a	n/a	n/a	n/a	ITI	poldrack-single-stim	s556	False	0
495.441	0.364	495.805	0.5860678121942655	draw_card	0.364	columbia_card_task_fmri	15.0	0.8125	89.0	-75.0	0.1875	16.0	1.0	3.0	1.6534195286302165	0.364	n/a	stim	poldrack-single-stim	s556	False	1
495.81	0.235	496.045	-0.5389321878057345	draw_card	0.235	columbia_card_task_fmri	15.0	0.8	89.0	-75.0	0.2	16.0	2.0	3.0	2.523225311531718	0.235	n/a	stim	poldrack-single-stim	s556	False	1
496.049	0.215	496.264	-1.8246464735200192	draw_card	0.215	columbia_card_task_fmri	15.0	0.7857142857142857	89.0	-75.0	0.2142857142857142	16.0	3.0	3.0	3.4504468528749683	0.215	n/a	stim	poldrack-single-stim	s556	False	1
496.269	0.268	496.537	-3.308162957036508	draw_card	0.268	columbia_card_task_fmri	15.0	0.7692307692307692	89.0	-75.0	0.2307692307692307	16.0	4.0	3.0	4.438235601571783	0.268	n/a	stim	poldrack-single-stim	s556	False	1
496.542	0.283	496.825	-5.038932187805735	draw_card	0.283	columbia_card_task_fmri	15.0	0.75	89.0	-75.0	0.25	16.0	5.0	3.0	5.487975716738816	0.283	n/a	stim	poldrack-single-stim	s556	False	1
496.83	0.313	497.143	-7.084386733260278	draw_card	0.313	columbia_card_task_fmri	15.0	0.7272727272727273	89.0	-75.0	0.2727272727272727	16.0	6.0	3.0	6.597243479258324	0.313	n/a	stim	poldrack-single-stim	s556	False	1
497.15	0.26	497.41	-9.538932187805734	draw_card	0.26	columbia_card_task_fmri	15.0	0.7	89.0	-75.0	0.3	16.0	7.0	3.0	7.755744951508738	0.26	n/a	stim	poldrack-single-stim	s556	False	1
497.415	0.251	497.666	-12.538932187805733	draw_card	0.251	columbia_card_task_fmri	15.0	0.6666666666666667	89.0	-75.0	0.3333333333333333	16.0	8.0	3.0	8.936928029196551	0.251	n/a	stim	poldrack-single-stim	s556	False	1
497.671	0.252	497.923	-16.288932187805734	draw_card	0.252	columbia_card_task_fmri	15.0	0.625	89.0	-75.0	0.375	16.0	9.0	3.0	10.079713156095876	0.252	9.0	stim	poldrack-single-stim	s556	False	0
498.679	1.5	497.928	n/a	-1.0	3.27	columbia_card_task_fmri	n/a	n/a	-1.0	n/a	n/a	n/a	n/a	n/a	n/a	n/a	n/a	ITI	poldrack-single-stim	s556	False	0
501.205	0.618	501.823	1.1485678121942655	draw_card	0.618	columbia_card_task_fmri	14.0	0.6875	89.0	-35.0	0.3125	16.0	1.0	5.0	-10.715741098907838	0.618	1.0	stim	poldrack-single-stim	s556	False	0
502.579	1.5	501.828	n/a	-1.0	2.25	columbia_card_task_fmri	n/a	n/a	-1.0	n/a	n/a	n/a	n/a	n/a	n/a	n/a	n/a	ITI	poldrack-single-stim	s556	False	0
504.085	0.525	504.61	6.327734478860933	draw_card	0.525	columbia_card_task_fmri	16.0	0.8666666666666667	89.0	-75.0	0.1333333333333333	15.0	1.0	2.0	-2.529002850439497	0.525	n/a	stim	poldrack-single-stim	s556	False	1
504.615	0.348	504.963	5.461067812194267	draw_card	0.348	columbia_card_task_fmri	16.0	0.8571428571428572	89.0	-75.0	0.1428571428571428	15.0	2.0	2.0	-1.622470684316948	0.348	2.0	stim	poldrack-single-stim	s556	False	0
505.721	1.5	504.97	n/a	-1.0	2.25	columbia_card_task_fmri	n/a	n/a	-1.0	n/a	n/a	n/a	n/a	n/a	n/a	n/a	n/a	ITI	poldrack-single-stim	s556	False	0
507.227	0.359	507.586	6.994401145527599	draw_card	0.359	columbia_card_task_fmri	16.0	0.8666666666666667	89.0	-70.0	0.1333333333333333	15.0	1.0	2.0	-4.223012654075738	0.359	n/a	stim	poldrack-single-stim	s556	False	1
507.593	0.232	507.825	6.175353526479981	draw_card	0.232	columbia_card_task_fmri	16.0	0.8571428571428572	89.0	-70.0	0.1428571428571428	15.0	2.0	2.0	-3.3666030212865543	0.232	n/a	stim	poldrack-single-stim	s556	False	1
507.831	0.244	508.075	5.230298581425034	draw_card	0.244	columbia_card_task_fmri	16.0	0.8461538461538461	89.0	-70.0	0.1538461538461538	15.0	3.0	2.0	-2.43444816980108	0.244	3.0	stim	poldrack-single-stim	s556	False	0
508.832	1.5	508.081	n/a	-1.0	2.318	columbia_card_task_fmri	n/a	n/a	-1.0	n/a	n/a	n/a	n/a	n/a	n/a	n/a	n/a	ITI	poldrack-single-stim	s556	False	0
510.405	1.077	511.482	4.3360678121942655	draw_card	1.077	columbia_card_task_fmri	8.0	0.9375	89.0	-90.0	0.0625	16.0	1.0	1.0	-9.711455182561608	1.077	n/a	stim	poldrack-single-stim	s556	False	1
511.487	0.249	511.736	3.927734478860932	draw_card	0.249	columbia_card_task_fmri	8.0	0.9333333333333332	89.0	-90.0	0.0666666666666666	16.0	2.0	1.0	-8.991732130015098	0.249	n/a	stim	poldrack-single-stim	s556	False	1
511.741	0.241	511.982	3.4610678121942664	draw_card	0.241	columbia_card_task_fmri	8.0	0.9285714285714286	89.0	-90.0	0.0714285714285714	16.0	3.0	1.0	-8.202233905122064	0.241	n/a	stim	poldrack-single-stim	s556	False	1
511.987	0.275	512.262	2.922606273732727	draw_card	0.275	columbia_card_task_fmri	8.0	0.9230769230769232	89.0	-90.0	0.0769230769230769	16.0	4.0	1.0	-7.331089680128098	0.275	n/a	stim	poldrack-single-stim	s556	False	1
512.267	0.296	512.563	2.2944011455275986	draw_card	0.296	columbia_card_task_fmri	8.0	0.9166666666666666	89.0	-90.0	0.0833333333333333	16.0	5.0	1.0	-6.363451513442001	0.296	n/a	stim	poldrack-single-stim	s556	False	1
512.568	0.301	512.869	1.5519769031033563	draw_card	0.301	columbia_card_task_fmri	8.0	0.9090909090909092	89.0	-90.0	0.0909090909090909	16.0	6.0	1.0	-5.280490862502866	0.301	6.0	stim	poldrack-single-stim	s556	False	0
513.626	1.5	512.875	n/a	-1.0	2.726	columbia_card_task_fmri	n/a	n/a	-1.0	n/a	n/a	n/a	n/a	n/a	n/a	n/a	n/a	ITI	poldrack-single-stim	s556	False	0
515.606	0.395	516.001	5.8985678121942655	draw_card	0.395	columbia_card_task_fmri	10.0	0.9375	89.0	-95.0	0.0625	16.0	1.0	1.0	-8.025472152584396	0.395	n/a	stim	poldrack-single-stim	s556	False	1
516.007	0.306	516.313	5.461067812194266	draw_card	0.306	columbia_card_task_fmri	10.0	0.9333333333333332	89.0	-95.0	0.0666666666666666	16.0	2.0	1.0	-7.2538261124206365	0.306	n/a	stim	poldrack-single-stim	s556	False	1
516.318	0.229	516.547	4.961067812194266	draw_card	0.229	columbia_card_task_fmri	10.0	0.9285714285714286	89.0	-95.0	0.0714285714285714	16.0	3.0	1.0	-6.407404709974173	0.229	n/a	stim	poldrack-single-stim	s556	False	1
516.551	0.274	516.825	4.384144735271189	draw_card	0.274	columbia_card_task_fmri	10.0	0.9230769230769232	89.0	-95.0	0.0769230769230769	16.0	4.0	1.0	-5.473487683135826	0.274	n/a	stim	poldrack-single-stim	s556	False	1
516.831	0.276	517.107	3.7110678121942655	draw_card	0.276	columbia_card_task_fmri	10.0	0.9166666666666666	89.0	-95.0	0.0833333333333333	16.0	5.0	1.0	-4.436164769650159	0.276	n/a	stim	poldrack-single-stim	s556	False	1
517.111	0.378	517.489	2.9156132667397188	draw_card	0.378	columbia_card_task_fmri	10.0	0.9090909090909092	89.0	-95.0	0.0909090909090909	16.0	6.0	1.0	-3.275260496927654	0.378	6.0	stim	poldrack-single-stim	s556	False	0
518.245	1.5	517.494	n/a	-1.0	2.386	columbia_card_task_fmri	n/a	n/a	-1.0	n/a	n/a	n/a	n/a	n/a	n/a	n/a	n/a	ITI	poldrack-single-stim	s556	False	0
519.886	0.367	520.253	6.8360678121942655	draw_card	0.367	columbia_card_task_fmri	15.0	0.875	89.0	-70.0	0.125	16.0	1.0	2.0	-5.342166943095176	0.367	n/a	stim	poldrack-single-stim	s556	False	1
520.258	0.285	520.543	6.127734478860932	draw_card	0.285	columbia_card_task_fmri	15.0	0.8666666666666667	89.0	-70.0	0.1333333333333333	16.0	2.0	2.0	-4.561735082442592	0.285	2.0	stim	poldrack-single-stim	s556	False	0
521.3	1.5	520.549	n/a	-1.0	2.318	columbia_card_task_fmri	n/a	n/a	-1.0	n/a	n/a	n/a	n/a	n/a	n/a	n/a	n/a	ITI	poldrack-single-stim	s556	False	0
522.873	0.516	523.389	5.8360678121942655	draw_card	0.516	columbia_card_task_fmri	16.0	0.875	89.0	-85.0	0.125	16.0	1.0	2.0	-0.06764763000794	0.516	n/a	stim	poldrack-single-stim	s556	False	1
523.395	0.283	523.678	4.994401145527599	draw_card	0.283	columbia_card_task_fmri	16.0	0.8666666666666667	89.0	-85.0	0.1333333333333333	16.0	2.0	2.0	0.8606918854441261	0.283	n/a	stim	poldrack-single-stim	s556	False	1
523.685	0.261	523.946	4.032496383622839	draw_card	0.261	columbia_card_task_fmri	16.0	0.8571428571428572	89.0	-85.0	0.1428571428571428	16.0	3.0	2.0	1.8674221257629	0.261	n/a	stim	poldrack-single-stim	s556	False	1
523.951	1.789	525.74	2.9226062737327254	end_round	1.789	columbia_card_task_fmri	16.0	0.8461538461538461	71.0	-85.0	0.1538461538461538	16.0	4.0	2.0	2.963133405725195	1.789	3.0	stim	poldrack-single-stim	s556	False	1
526.497	1.5	525.746	n/a	-1.0	2.25	columbia_card_task_fmri	n/a	n/a	-1.0	n/a	n/a	n/a	n/a	n/a	n/a	n/a	n/a	ITI	poldrack-single-stim	s556	False	0
