duration	onset	block_duration	movement_onset	planning	condition	exp_stage	experiment_exp_id	key_press	problem_id	response_time	trial_id	trial_type	worker_id	junk
4.312	3.009	4.312	7.321	1	UA_with_intermediate	practice	ward_and_allport	71	0.0	4.312	to_hand	poldrack-single-stim	s556	False
0.1	7.322	2.226	9.548	0	UA_with_intermediate	practice	ward_and_allport	82	0.0	2.226	to_board	poldrack-single-stim	s556	False
0.1	9.55	1.065	10.615	0	UA_with_intermediate	practice	ward_and_allport	71	0.0	1.065	to_hand	poldrack-single-stim	s556	False
0.1	10.617	1.515	12.132	0	UA_with_intermediate	practice	ward_and_allport	89	0.0	1.515	to_board	poldrack-single-stim	s556	False
0.1	12.133	0.809	12.942	0	UA_with_intermediate	practice	ward_and_allport	82	0.0	0.809	to_hand	poldrack-single-stim	s556	False
0.1	12.943	1.076	14.019	0	UA_with_intermediate	practice	ward_and_allport	89	0.0	1.076	to_board	poldrack-single-stim	s556	False
1.0	14.023	2.5	14.022	0	UA_with_intermediate	practice	ward_and_allport	-1	0.0	n/a	feedback	poldrack-single-stim	s556	False
4.071	16.525	4.071	20.596	1	UA_with_intermediate	practice	ward_and_allport	89	1.0	4.071	to_hand	poldrack-single-stim	s556	False
0.1	20.597	0.721	21.318	0	UA_with_intermediate	practice	ward_and_allport	82	1.0	0.721	to_board	poldrack-single-stim	s556	False
0.1	21.32	0.837	22.157	0	UA_with_intermediate	practice	ward_and_allport	71	1.0	0.837	to_hand	poldrack-single-stim	s556	False
0.1	22.158	0.431	22.589	0	UA_with_intermediate	practice	ward_and_allport	89	1.0	0.431	to_board	poldrack-single-stim	s556	False
0.1	22.59	0.911	23.501	0	UA_with_intermediate	practice	ward_and_allport	82	1.0	0.911	to_hand	poldrack-single-stim	s556	False
0.1	23.502	0.222	23.724	0	UA_with_intermediate	practice	ward_and_allport	89	1.0	0.222	to_board	poldrack-single-stim	s556	False
1.0	23.725	2.1	23.724	0	UA_with_intermediate	practice	ward_and_allport	-1	1.0	n/a	feedback	poldrack-single-stim	s556	False
3.706	25.826	3.706	29.532	1	UA_without_intermediate	practice	ward_and_allport	82	2.0	3.706	to_hand	poldrack-single-stim	s556	False
0.1	29.533	0.5	30.033	0	UA_without_intermediate	practice	ward_and_allport	89	2.0	0.5	to_board	poldrack-single-stim	s556	False
0.1	30.035	1.69	31.725	0	UA_without_intermediate	practice	ward_and_allport	71	2.0	1.69	to_hand	poldrack-single-stim	s556	False
0.1	31.726	0.517	32.243	0	UA_without_intermediate	practice	ward_and_allport	82	2.0	0.517	to_board	poldrack-single-stim	s556	False
0.1	32.245	0.743	32.988	0	UA_without_intermediate	practice	ward_and_allport	71	2.0	0.743	to_hand	poldrack-single-stim	s556	False
0.1	32.988	1.719	34.707	0	UA_without_intermediate	practice	ward_and_allport	71	2.0	1.719	to_board	poldrack-single-stim	s556	False
0.1	34.71	1.037	35.747	0	UA_without_intermediate	practice	ward_and_allport	82	2.0	1.037	to_hand	poldrack-single-stim	s556	False
0.1	35.749	0.229	35.978	0	UA_without_intermediate	practice	ward_and_allport	89	2.0	0.229	to_board	poldrack-single-stim	s556	False
0.1	35.98	0.603	36.583	0	UA_without_intermediate	practice	ward_and_allport	71	2.0	0.603	to_hand	poldrack-single-stim	s556	False
0.1	36.585	0.326	36.911	0	UA_without_intermediate	practice	ward_and_allport	89	2.0	0.326	to_board	poldrack-single-stim	s556	False
1.0	36.918	2.2	36.917	0	UA_without_intermediate	practice	ward_and_allport	-1	2.0	n/a	feedback	poldrack-single-stim	s556	False
3.492	39.12	3.492	42.612	1	UA_without_intermediate	practice	ward_and_allport	71	3.0	3.492	to_hand	poldrack-single-stim	s556	False
0.1	42.613	1.448	44.061	0	UA_without_intermediate	practice	ward_and_allport	89	3.0	1.448	to_board	poldrack-single-stim	s556	False
0.1	44.063	0.453	44.516	0	UA_without_intermediate	practice	ward_and_allport	82	3.0	0.453	to_hand	poldrack-single-stim	s556	False
0.1	44.517	0.4	44.917	0	UA_without_intermediate	practice	ward_and_allport	89	3.0	0.4	to_board	poldrack-single-stim	s556	False
0.1	44.92	0.388	45.308	0	UA_without_intermediate	practice	ward_and_allport	71	3.0	0.388	to_hand	poldrack-single-stim	s556	False
0.1	45.309	0.333	45.642	0	UA_without_intermediate	practice	ward_and_allport	89	3.0	0.333	to_board	poldrack-single-stim	s556	False
1.0	45.644	2.0	45.643	0	UA_without_intermediate	practice	ward_and_allport	-1	3.0	n/a	feedback	poldrack-single-stim	s556	False
5.974	49.649	5.974	55.623	1	PA_with_intermediate	test	ward_and_allport	71	0.0	5.974	to_hand	poldrack-single-stim	s556	False
0.1	55.625	0.65	56.275	0	PA_with_intermediate	test	ward_and_allport	82	0.0	0.65	to_board	poldrack-single-stim	s556	False
0.1	56.276	2.617	58.893	0	PA_with_intermediate	test	ward_and_allport	71	0.0	2.617	to_hand	poldrack-single-stim	s556	False
0.1	58.895	0.854	59.749	0	PA_with_intermediate	test	ward_and_allport	89	0.0	0.854	to_board	poldrack-single-stim	s556	False
0.1	59.751	0.472	60.223	0	PA_with_intermediate	test	ward_and_allport	82	0.0	0.472	to_hand	poldrack-single-stim	s556	False
0.1	60.224	0.641	60.865	0	PA_with_intermediate	test	ward_and_allport	71	0.0	0.641	to_board	poldrack-single-stim	s556	False
1.0	60.868	3.768	60.867	0	PA_with_intermediate	test	ward_and_allport	-1	0.0	n/a	feedback	poldrack-single-stim	s556	False
6.347	64.638	6.347	70.985	1	PA_with_intermediate	test	ward_and_allport	89	1.0	6.347	to_hand	poldrack-single-stim	s556	False
0.1	70.986	1.227	72.213	0	PA_with_intermediate	test	ward_and_allport	82	1.0	1.227	to_board	poldrack-single-stim	s556	False
0.1	72.215	1.161	73.376	0	PA_with_intermediate	test	ward_and_allport	89	1.0	1.161	to_hand	poldrack-single-stim	s556	False
0.1	73.377	0.994	74.371	0	PA_with_intermediate	test	ward_and_allport	71	1.0	0.994	to_board	poldrack-single-stim	s556	False
0.1	74.374	0.543	74.917	0	PA_with_intermediate	test	ward_and_allport	82	1.0	0.543	to_hand	poldrack-single-stim	s556	False
0.1	74.918	0.496	75.414	0	PA_with_intermediate	test	ward_and_allport	71	1.0	0.496	to_board	poldrack-single-stim	s556	False
1.0	75.418	2.68	75.417	0	PA_with_intermediate	test	ward_and_allport	-1	1.0	n/a	feedback	poldrack-single-stim	s556	False
5.997	78.101	5.997	84.098	1	PA_without_intermediate	test	ward_and_allport	89	2.0	5.997	to_hand	poldrack-single-stim	s556	False
0.1	84.099	1.166	85.265	0	PA_without_intermediate	test	ward_and_allport	71	2.0	1.166	to_board	poldrack-single-stim	s556	False
0.1	85.268	1.014	86.282	0	PA_without_intermediate	test	ward_and_allport	89	2.0	1.014	to_hand	poldrack-single-stim	s556	False
0.1	86.283	0.505	86.788	0	PA_without_intermediate	test	ward_and_allport	82	2.0	0.505	to_board	poldrack-single-stim	s556	False
0.1	86.79	0.839	87.629	0	PA_without_intermediate	test	ward_and_allport	89	2.0	0.839	to_hand	poldrack-single-stim	s556	False
0.1	87.63	0.442	88.072	0	PA_without_intermediate	test	ward_and_allport	71	2.0	0.442	to_board	poldrack-single-stim	s556	False
1.0	88.076	3.224	88.075	0	PA_without_intermediate	test	ward_and_allport	-1	2.0	n/a	feedback	poldrack-single-stim	s556	False
3.687	91.302	3.687	94.989	1	PA_without_intermediate	test	ward_and_allport	82	3.0	3.687	to_hand	poldrack-single-stim	s556	False
0.1	94.99	1.003	95.993	0	PA_without_intermediate	test	ward_and_allport	89	3.0	1.003	to_board	poldrack-single-stim	s556	False
0.1	95.995	2.431	98.426	0	PA_without_intermediate	test	ward_and_allport	82	3.0	2.431	to_hand	poldrack-single-stim	s556	False
0.1	98.427	0.779	99.206	0	PA_without_intermediate	test	ward_and_allport	89	3.0	0.779	to_board	poldrack-single-stim	s556	False
0.1	99.208	1.462	100.67	0	PA_without_intermediate	test	ward_and_allport	82	3.0	1.462	to_hand	poldrack-single-stim	s556	False
0.1	100.671	0.661	101.332	0	PA_without_intermediate	test	ward_and_allport	71	3.0	0.661	to_board	poldrack-single-stim	s556	False
1.0	101.335	3.36	101.334	0	PA_without_intermediate	test	ward_and_allport	-1	3.0	n/a	feedback	poldrack-single-stim	s556	False
3.233	104.699	3.233	107.932	1	PA_without_intermediate	test	ward_and_allport	89	4.0	3.233	to_hand	poldrack-single-stim	s556	False
0.1	107.932	0.357	108.289	0	PA_without_intermediate	test	ward_and_allport	71	4.0	0.357	to_board	poldrack-single-stim	s556	False
0.1	108.292	1.406	109.698	0	PA_without_intermediate	test	ward_and_allport	89	4.0	1.406	to_hand	poldrack-single-stim	s556	False
0.1	109.699	0.321	110.02	0	PA_without_intermediate	test	ward_and_allport	82	4.0	0.321	to_board	poldrack-single-stim	s556	False
0.1	110.022	0.801	110.823	0	PA_without_intermediate	test	ward_and_allport	89	4.0	0.801	to_hand	poldrack-single-stim	s556	False
0.1	110.824	0.322	111.146	0	PA_without_intermediate	test	ward_and_allport	71	4.0	0.322	to_board	poldrack-single-stim	s556	False
1.0	111.15	2.0	111.149	0	PA_without_intermediate	test	ward_and_allport	-1	4.0	n/a	feedback	poldrack-single-stim	s556	False
3.353	113.154	3.353	116.507	1	PA_without_intermediate	test	ward_and_allport	82	5.0	3.353	to_hand	poldrack-single-stim	s556	False
0.1	116.508	0.334	116.842	0	PA_without_intermediate	test	ward_and_allport	89	5.0	0.334	to_board	poldrack-single-stim	s556	False
0.1	116.845	2.461	119.306	0	PA_without_intermediate	test	ward_and_allport	82	5.0	2.461	to_hand	poldrack-single-stim	s556	False
0.1	119.307	1.108	120.415	0	PA_without_intermediate	test	ward_and_allport	71	5.0	1.108	to_board	poldrack-single-stim	s556	False
0.1	120.417	0.557	120.974	0	PA_without_intermediate	test	ward_and_allport	82	5.0	0.557	to_hand	poldrack-single-stim	s556	False
0.1	120.975	0.535	121.51	0	PA_without_intermediate	test	ward_and_allport	89	5.0	0.535	to_board	poldrack-single-stim	s556	False
1.0	121.514	2.408	121.513	0	PA_without_intermediate	test	ward_and_allport	-1	5.0	n/a	feedback	poldrack-single-stim	s556	False
4.108	123.925	4.108	128.033	1	PA_with_intermediate	test	ward_and_allport	89	6.0	4.108	to_hand	poldrack-single-stim	s556	False
0.1	128.033	0.814	128.847	0	PA_with_intermediate	test	ward_and_allport	71	6.0	0.814	to_board	poldrack-single-stim	s556	False
0.1	128.85	0.973	129.823	0	PA_with_intermediate	test	ward_and_allport	89	6.0	0.973	to_hand	poldrack-single-stim	s556	False
0.1	129.824	0.698	130.522	0	PA_with_intermediate	test	ward_and_allport	82	6.0	0.698	to_board	poldrack-single-stim	s556	False
0.1	130.526	0.824	131.35	0	PA_with_intermediate	test	ward_and_allport	71	6.0	0.824	to_hand	poldrack-single-stim	s556	False
0.1	131.35	1.123	132.473	0	PA_with_intermediate	test	ward_and_allport	82	6.0	1.123	to_board	poldrack-single-stim	s556	False
1.0	132.477	2.136	132.476	0	PA_with_intermediate	test	ward_and_allport	-1	6.0	n/a	feedback	poldrack-single-stim	s556	False
3.426	134.617	3.426	138.043	1	PA_without_intermediate	test	ward_and_allport	89	7.0	3.426	to_hand	poldrack-single-stim	s556	False
0.1	138.044	0.432	138.476	0	PA_without_intermediate	test	ward_and_allport	71	7.0	0.432	to_board	poldrack-single-stim	s556	False
0.1	138.48	2.067	140.547	0	PA_without_intermediate	test	ward_and_allport	89	7.0	2.067	to_hand	poldrack-single-stim	s556	False
0.1	140.547	0.432	140.979	0	PA_without_intermediate	test	ward_and_allport	71	7.0	0.432	to_board	poldrack-single-stim	s556	False
0.1	140.982	0.962	141.944	0	PA_without_intermediate	test	ward_and_allport	89	7.0	0.962	to_hand	poldrack-single-stim	s556	False
0.1	141.946	0.507	142.453	0	PA_without_intermediate	test	ward_and_allport	82	7.0	0.507	to_board	poldrack-single-stim	s556	False
1.0	142.457	5.128	142.456	0	PA_without_intermediate	test	ward_and_allport	-1	7.0	n/a	feedback	poldrack-single-stim	s556	False
3.394	147.589	3.394	150.983	1	PA_without_intermediate	test	ward_and_allport	82	8.0	3.394	to_hand	poldrack-single-stim	s556	False
0.1	150.984	2.619	153.603	0	PA_without_intermediate	test	ward_and_allport	71	8.0	2.619	to_board	poldrack-single-stim	s556	False
0.1	153.607	0.762	154.369	0	PA_without_intermediate	test	ward_and_allport	82	8.0	0.762	to_hand	poldrack-single-stim	s556	False
0.1	154.37	1.165	155.535	0	PA_without_intermediate	test	ward_and_allport	89	8.0	1.165	to_board	poldrack-single-stim	s556	False
0.1	155.537	1.176	156.713	0	PA_without_intermediate	test	ward_and_allport	82	8.0	1.176	to_hand	poldrack-single-stim	s556	False
0.1	156.715	0.749	157.464	0	PA_without_intermediate	test	ward_and_allport	71	8.0	0.749	to_board	poldrack-single-stim	s556	False
1.0	157.468	2.136	157.467	0	PA_without_intermediate	test	ward_and_allport	-1	8.0	n/a	feedback	poldrack-single-stim	s556	False
3.7	159.608	3.7	163.308	1	PA_without_intermediate	test	ward_and_allport	89	9.0	3.7	to_hand	poldrack-single-stim	s556	False
0.1	163.309	0.638	163.947	0	PA_without_intermediate	test	ward_and_allport	82	9.0	0.638	to_board	poldrack-single-stim	s556	False
0.1	163.949	1.816	165.765	0	PA_without_intermediate	test	ward_and_allport	89	9.0	1.816	to_hand	poldrack-single-stim	s556	False
0.1	165.767	0.545	166.312	0	PA_without_intermediate	test	ward_and_allport	71	9.0	0.545	to_board	poldrack-single-stim	s556	False
0.1	166.317	0.469	166.786	0	PA_without_intermediate	test	ward_and_allport	89	9.0	0.469	to_hand	poldrack-single-stim	s556	False
0.1	166.786	0.456	167.242	0	PA_without_intermediate	test	ward_and_allport	82	9.0	0.456	to_board	poldrack-single-stim	s556	False
1.0	167.248	5.264	167.247	0	PA_without_intermediate	test	ward_and_allport	-1	9.0	n/a	feedback	poldrack-single-stim	s556	False
4.368	172.516	4.368	176.884	1	PA_with_intermediate	test	ward_and_allport	71	10.0	4.368	to_hand	poldrack-single-stim	s556	False
0.1	176.885	0.463	177.348	0	PA_with_intermediate	test	ward_and_allport	82	10.0	0.463	to_board	poldrack-single-stim	s556	False
0.1	177.352	0.797	178.149	0	PA_with_intermediate	test	ward_and_allport	71	10.0	0.797	to_hand	poldrack-single-stim	s556	False
0.1	178.149	0.419	178.568	0	PA_with_intermediate	test	ward_and_allport	89	10.0	0.419	to_board	poldrack-single-stim	s556	False
0.1	178.572	0.783	179.355	0	PA_with_intermediate	test	ward_and_allport	82	10.0	0.783	to_hand	poldrack-single-stim	s556	False
0.1	179.356	0.398	179.754	0	PA_with_intermediate	test	ward_and_allport	89	10.0	0.398	to_board	poldrack-single-stim	s556	False
1.0	179.759	4.04	179.758	0	PA_with_intermediate	test	ward_and_allport	-1	10.0	n/a	feedback	poldrack-single-stim	s556	False
4.016	183.804	4.016	187.82	1	PA_with_intermediate	test	ward_and_allport	82	11.0	4.016	to_hand	poldrack-single-stim	s556	False
0.1	187.821	2.255	190.076	0	PA_with_intermediate	test	ward_and_allport	89	11.0	2.255	to_board	poldrack-single-stim	s556	False
0.1	190.081	1.458	191.539	0	PA_with_intermediate	test	ward_and_allport	82	11.0	1.458	to_hand	poldrack-single-stim	s556	False
0.1	191.54	1.279	192.819	0	PA_with_intermediate	test	ward_and_allport	71	11.0	1.279	to_board	poldrack-single-stim	s556	False
0.1	192.823	0.881	193.704	0	PA_with_intermediate	test	ward_and_allport	89	11.0	0.881	to_hand	poldrack-single-stim	s556	False
0.1	193.705	0.929	194.634	0	PA_with_intermediate	test	ward_and_allport	82	11.0	0.929	to_board	poldrack-single-stim	s556	False
1.0	194.639	2.136	194.638	0	PA_with_intermediate	test	ward_and_allport	-1	11.0	n/a	feedback	poldrack-single-stim	s556	False
4.984	196.78	4.984	201.764	1	PA_with_intermediate	test	ward_and_allport	71	12.0	4.984	to_hand	poldrack-single-stim	s556	False
0.1	201.764	0.332	202.096	0	PA_with_intermediate	test	ward_and_allport	82	12.0	0.332	to_board	poldrack-single-stim	s556	False
0.1	202.1	0.477	202.577	0	PA_with_intermediate	test	ward_and_allport	71	12.0	0.477	to_hand	poldrack-single-stim	s556	False
0.1	202.578	0.246	202.824	0	PA_with_intermediate	test	ward_and_allport	89	12.0	0.246	to_board	poldrack-single-stim	s556	False
0.1	202.829	1.262	204.091	0	PA_with_intermediate	test	ward_and_allport	71	12.0	1.262	to_hand	poldrack-single-stim	s556	False
0.1	204.091	1.027	205.118	0	PA_with_intermediate	test	ward_and_allport	71	12.0	1.027	to_board	poldrack-single-stim	s556	False
0.1	205.122	0.37	205.492	0	PA_with_intermediate	test	ward_and_allport	82	12.0	0.37	to_hand	poldrack-single-stim	s556	False
0.1	205.493	0.171	205.664	0	PA_with_intermediate	test	ward_and_allport	71	12.0	0.171	to_board	poldrack-single-stim	s556	False
1.0	205.67	2.408	205.669	0	PA_with_intermediate	test	ward_and_allport	-1	12.0	n/a	feedback	poldrack-single-stim	s556	False
3.589	208.082	3.589	211.671	1	PA_without_intermediate	test	ward_and_allport	89	13.0	3.589	to_hand	poldrack-single-stim	s556	False
0.1	211.672	0.212	211.884	0	PA_without_intermediate	test	ward_and_allport	71	13.0	0.212	to_board	poldrack-single-stim	s556	False
0.1	211.888	2.159	214.047	0	PA_without_intermediate	test	ward_and_allport	89	13.0	2.159	to_hand	poldrack-single-stim	s556	False
0.1	214.048	0.275	214.323	0	PA_without_intermediate	test	ward_and_allport	71	13.0	0.275	to_board	poldrack-single-stim	s556	False
0.1	214.328	0.933	215.261	0	PA_without_intermediate	test	ward_and_allport	89	13.0	0.933	to_hand	poldrack-single-stim	s556	False
0.1	215.261	0.337	215.598	0	PA_without_intermediate	test	ward_and_allport	82	13.0	0.337	to_board	poldrack-single-stim	s556	False
1.0	215.603	2.68	215.602	0	PA_without_intermediate	test	ward_and_allport	-1	13.0	n/a	feedback	poldrack-single-stim	s556	False
4.789	218.288	4.789	223.077	1	PA_with_intermediate	test	ward_and_allport	71	14.0	4.789	to_hand	poldrack-single-stim	s556	False
0.1	223.078	0.639	223.717	0	PA_with_intermediate	test	ward_and_allport	89	14.0	0.639	to_board	poldrack-single-stim	s556	False
0.1	223.722	0.38	224.102	0	PA_with_intermediate	test	ward_and_allport	71	14.0	0.38	to_hand	poldrack-single-stim	s556	False
0.1	224.103	0.39	224.493	0	PA_with_intermediate	test	ward_and_allport	82	14.0	0.39	to_board	poldrack-single-stim	s556	False
0.1	224.497	0.577	225.074	0	PA_with_intermediate	test	ward_and_allport	89	14.0	0.577	to_hand	poldrack-single-stim	s556	False
0.1	225.075	0.35	225.425	0	PA_with_intermediate	test	ward_and_allport	82	14.0	0.35	to_board	poldrack-single-stim	s556	False
1.0	225.43	4.72	225.429	0	PA_with_intermediate	test	ward_and_allport	-1	14.0	n/a	feedback	poldrack-single-stim	s556	False
2.644	235.157	2.644	237.801	1	PA_without_intermediate	test	ward_and_allport	82	15.0	2.644	to_hand	poldrack-single-stim	s556	False
0.1	237.802	0.497	238.299	0	PA_without_intermediate	test	ward_and_allport	71	15.0	0.497	to_board	poldrack-single-stim	s556	False
0.1	238.304	1.145	239.449	0	PA_without_intermediate	test	ward_and_allport	82	15.0	1.145	to_hand	poldrack-single-stim	s556	False
0.1	239.449	0.259	239.708	0	PA_without_intermediate	test	ward_and_allport	89	15.0	0.259	to_board	poldrack-single-stim	s556	False
0.1	239.712	0.738	240.45	0	PA_without_intermediate	test	ward_and_allport	82	15.0	0.738	to_hand	poldrack-single-stim	s556	False
0.1	240.451	0.411	240.862	0	PA_without_intermediate	test	ward_and_allport	71	15.0	0.411	to_board	poldrack-single-stim	s556	False
1.0	240.868	3.224	240.867	0	PA_without_intermediate	test	ward_and_allport	-1	15.0	n/a	feedback	poldrack-single-stim	s556	False
3.556	244.096	3.556	247.652	1	PA_without_intermediate	test	ward_and_allport	71	16.0	3.556	to_hand	poldrack-single-stim	s556	False
0.1	247.653	0.939	248.592	0	PA_without_intermediate	test	ward_and_allport	82	16.0	0.939	to_board	poldrack-single-stim	s556	False
0.1	248.598	0.338	248.936	0	PA_without_intermediate	test	ward_and_allport	71	16.0	0.338	to_hand	poldrack-single-stim	s556	False
0.1	248.936	0.311	249.247	0	PA_without_intermediate	test	ward_and_allport	82	16.0	0.311	to_board	poldrack-single-stim	s556	False
0.1	249.252	0.563	249.815	0	PA_without_intermediate	test	ward_and_allport	71	16.0	0.563	to_hand	poldrack-single-stim	s556	False
0.1	249.816	0.272	250.088	0	PA_without_intermediate	test	ward_and_allport	89	16.0	0.272	to_board	poldrack-single-stim	s556	False
1.0	250.094	2.272	250.093	0	PA_without_intermediate	test	ward_and_allport	-1	16.0	n/a	feedback	poldrack-single-stim	s556	False
2.65	252.37	2.65	255.02	1	PA_with_intermediate	test	ward_and_allport	71	17.0	2.65	to_hand	poldrack-single-stim	s556	False
0.1	255.021	0.22	255.241	0	PA_with_intermediate	test	ward_and_allport	89	17.0	0.22	to_board	poldrack-single-stim	s556	False
0.1	255.246	0.45	255.696	0	PA_with_intermediate	test	ward_and_allport	71	17.0	0.45	to_hand	poldrack-single-stim	s556	False
0.1	255.697	0.214	255.911	0	PA_with_intermediate	test	ward_and_allport	82	17.0	0.214	to_board	poldrack-single-stim	s556	False
0.1	255.915	0.797	256.712	0	PA_with_intermediate	test	ward_and_allport	89	17.0	0.797	to_hand	poldrack-single-stim	s556	False
0.1	256.714	0.226	256.94	0	PA_with_intermediate	test	ward_and_allport	82	17.0	0.226	to_board	poldrack-single-stim	s556	False
1.0	256.947	3.632	256.946	0	PA_with_intermediate	test	ward_and_allport	-1	17.0	n/a	feedback	poldrack-single-stim	s556	False
3.005	260.584	3.005	263.589	1	PA_without_intermediate	test	ward_and_allport	82	18.0	3.005	to_hand	poldrack-single-stim	s556	False
0.1	263.59	0.214	263.804	0	PA_without_intermediate	test	ward_and_allport	71	18.0	0.214	to_board	poldrack-single-stim	s556	False
0.1	263.809	1.567	265.376	0	PA_without_intermediate	test	ward_and_allport	82	18.0	1.567	to_hand	poldrack-single-stim	s556	False
0.1	265.377	0.079	265.456	0	PA_without_intermediate	test	ward_and_allport	71	18.0	0.079	to_board	poldrack-single-stim	s556	False
0.1	265.461	2.102	267.563	0	PA_without_intermediate	test	ward_and_allport	82	18.0	2.102	to_hand	poldrack-single-stim	s556	False
0.1	267.564	0.089	267.653	0	PA_without_intermediate	test	ward_and_allport	89	18.0	0.089	to_board	poldrack-single-stim	s556	False
1.0	267.658	2.408	267.657	0	PA_without_intermediate	test	ward_and_allport	-1	18.0	n/a	feedback	poldrack-single-stim	s556	False
2.589	270.071	2.589	272.66	1	PA_without_intermediate	test	ward_and_allport	71	19.0	2.589	to_hand	poldrack-single-stim	s556	False
0.1	272.661	0.166	272.827	0	PA_without_intermediate	test	ward_and_allport	82	19.0	0.166	to_board	poldrack-single-stim	s556	False
0.1	272.832	1.112	273.944	0	PA_without_intermediate	test	ward_and_allport	71	19.0	1.112	to_hand	poldrack-single-stim	s556	False
0.1	273.946	0.118	274.064	0	PA_without_intermediate	test	ward_and_allport	89	19.0	0.118	to_board	poldrack-single-stim	s556	False
0.1	274.068	0.692	274.76	0	PA_without_intermediate	test	ward_and_allport	71	19.0	0.692	to_hand	poldrack-single-stim	s556	False
0.1	274.761	0.361	275.122	0	PA_without_intermediate	test	ward_and_allport	82	19.0	0.361	to_board	poldrack-single-stim	s556	False
1.0	275.127	2.0	275.126	0	PA_without_intermediate	test	ward_and_allport	-1	19.0	n/a	feedback	poldrack-single-stim	s556	False
3.198	277.133	3.198	280.331	1	PA_with_intermediate	test	ward_and_allport	82	20.0	3.198	to_hand	poldrack-single-stim	s556	False
0.1	280.331	0.151	280.482	0	PA_with_intermediate	test	ward_and_allport	71	20.0	0.151	to_board	poldrack-single-stim	s556	False
0.1	280.489	4.256	284.745	0	PA_with_intermediate	test	ward_and_allport	82	20.0	4.256	to_hand	poldrack-single-stim	s556	False
0.1	284.745	0.088	284.833	0	PA_with_intermediate	test	ward_and_allport	89	20.0	0.088	to_board	poldrack-single-stim	s556	False
0.1	284.839	2.295	287.134	0	PA_with_intermediate	test	ward_and_allport	71	20.0	2.295	to_hand	poldrack-single-stim	s556	False
0.1	287.134	0.204	287.338	0	PA_with_intermediate	test	ward_and_allport	82	20.0	0.204	to_board	poldrack-single-stim	s556	False
1.0	287.345	2.0	287.344	0	PA_with_intermediate	test	ward_and_allport	-1	20.0	n/a	feedback	poldrack-single-stim	s556	False
4.211	289.35	4.211	293.561	1	PA_with_intermediate	test	ward_and_allport	89	21.0	4.211	to_hand	poldrack-single-stim	s556	False
0.1	293.562	0.154	293.716	0	PA_with_intermediate	test	ward_and_allport	82	21.0	0.154	to_board	poldrack-single-stim	s556	False
0.1	293.722	1.092	294.814	0	PA_with_intermediate	test	ward_and_allport	89	21.0	1.092	to_hand	poldrack-single-stim	s556	False
0.1	294.814	0.106	294.92	0	PA_with_intermediate	test	ward_and_allport	71	21.0	0.106	to_board	poldrack-single-stim	s556	False
0.1	294.927	0.632	295.559	0	PA_with_intermediate	test	ward_and_allport	82	21.0	0.632	to_hand	poldrack-single-stim	s556	False
0.1	295.56	0.116	295.676	0	PA_with_intermediate	test	ward_and_allport	71	21.0	0.116	to_board	poldrack-single-stim	s556	False
1.0	295.683	2.0	295.682	0	PA_with_intermediate	test	ward_and_allport	-1	21.0	n/a	feedback	poldrack-single-stim	s556	False
4.398	297.688	4.398	302.086	1	PA_with_intermediate	test	ward_and_allport	82	22.0	4.398	to_hand	poldrack-single-stim	s556	False
0.1	302.087	0.061	302.148	0	PA_with_intermediate	test	ward_and_allport	71	22.0	0.061	to_board	poldrack-single-stim	s556	False
0.1	302.154	2.243	304.397	0	PA_with_intermediate	test	ward_and_allport	82	22.0	2.243	to_hand	poldrack-single-stim	s556	False
0.1	304.397	0.076	304.473	0	PA_with_intermediate	test	ward_and_allport	89	22.0	0.076	to_board	poldrack-single-stim	s556	False
0.1	304.48	0.52	305.0	0	PA_with_intermediate	test	ward_and_allport	71	22.0	0.52	to_hand	poldrack-single-stim	s556	False
0.1	305.001	0.087	305.088	0	PA_with_intermediate	test	ward_and_allport	89	22.0	0.087	to_board	poldrack-single-stim	s556	False
1.0	305.095	2.408	305.094	0	PA_with_intermediate	test	ward_and_allport	-1	22.0	n/a	feedback	poldrack-single-stim	s556	False
5.445	307.51	5.445	312.955	1	PA_without_intermediate	test	ward_and_allport	71	23.0	5.445	to_hand	poldrack-single-stim	s556	False
0.1	312.955	0.101	313.056	0	PA_without_intermediate	test	ward_and_allport	89	23.0	0.101	to_board	poldrack-single-stim	s556	False
0.1	313.062	1.251	314.313	0	PA_without_intermediate	test	ward_and_allport	71	23.0	1.251	to_hand	poldrack-single-stim	s556	False
0.1	314.315	0.12	314.435	0	PA_without_intermediate	test	ward_and_allport	89	23.0	0.12	to_board	poldrack-single-stim	s556	False
0.1	314.441	1.888	316.329	0	PA_without_intermediate	test	ward_and_allport	71	23.0	1.888	to_hand	poldrack-single-stim	s556	False
0.1	316.331	0.457	316.788	0	PA_without_intermediate	test	ward_and_allport	82	23.0	0.457	to_board	poldrack-single-stim	s556	False
1.0	316.795	2.816	316.794	0	PA_without_intermediate	test	ward_and_allport	-1	23.0	n/a	feedback	poldrack-single-stim	s556	False
5.229	319.618	5.229	324.847	1	PA_with_intermediate	test	ward_and_allport	89	24.0	5.229	to_hand	poldrack-single-stim	s556	False
0.1	324.849	0.072	324.921	0	PA_with_intermediate	test	ward_and_allport	71	24.0	0.072	to_board	poldrack-single-stim	s556	False
0.1	324.928	1.294	326.222	0	PA_with_intermediate	test	ward_and_allport	89	24.0	1.294	to_hand	poldrack-single-stim	s556	False
0.1	326.222	0.098	326.32	0	PA_with_intermediate	test	ward_and_allport	82	24.0	0.098	to_board	poldrack-single-stim	s556	False
0.1	326.327	6.989	333.316	0	PA_with_intermediate	test	ward_and_allport	71	24.0	6.989	to_hand	poldrack-single-stim	s556	False
0.1	333.317	0.101	333.418	0	PA_with_intermediate	test	ward_and_allport	89	24.0	0.101	to_board	poldrack-single-stim	s556	False
0.1	333.425	1.344	334.769	0	PA_with_intermediate	test	ward_and_allport	82	24.0	1.344	to_hand	poldrack-single-stim	s556	False
0.1	334.77	0.082	334.852	0	PA_with_intermediate	test	ward_and_allport	71	24.0	0.082	to_board	poldrack-single-stim	s556	False
1.0	334.86	4.176	334.859	0	PA_with_intermediate	test	ward_and_allport	-1	24.0	n/a	feedback	poldrack-single-stim	s556	False
5.566	339.043	5.566	344.609	1	PA_with_intermediate	test	ward_and_allport	89	25.0	5.566	to_hand	poldrack-single-stim	s556	False
0.1	344.61	0.124	344.734	0	PA_with_intermediate	test	ward_and_allport	71	25.0	0.124	to_board	poldrack-single-stim	s556	False
0.1	344.741	0.52	345.261	0	PA_with_intermediate	test	ward_and_allport	89	25.0	0.52	to_hand	poldrack-single-stim	s556	False
0.1	345.262	0.109	345.371	0	PA_with_intermediate	test	ward_and_allport	82	25.0	0.109	to_board	poldrack-single-stim	s556	False
0.1	345.378	0.88	346.258	0	PA_with_intermediate	test	ward_and_allport	71	25.0	0.88	to_hand	poldrack-single-stim	s556	False
0.1	346.258	0.086	346.344	0	PA_with_intermediate	test	ward_and_allport	89	25.0	0.086	to_board	poldrack-single-stim	s556	False
1.0	346.352	3.36	346.351	0	PA_with_intermediate	test	ward_and_allport	-1	25.0	n/a	feedback	poldrack-single-stim	s556	False
5.111	349.719	5.111	354.83	1	PA_with_intermediate	test	ward_and_allport	89	26.0	5.111	to_hand	poldrack-single-stim	s556	False
0.1	354.831	0.111	354.942	0	PA_with_intermediate	test	ward_and_allport	82	26.0	0.111	to_board	poldrack-single-stim	s556	False
0.1	354.95	1.332	356.282	0	PA_with_intermediate	test	ward_and_allport	89	26.0	1.332	to_hand	poldrack-single-stim	s556	False
0.1	356.283	0.08	356.363	0	PA_with_intermediate	test	ward_and_allport	71	26.0	0.08	to_board	poldrack-single-stim	s556	False
0.1	356.369	1.227	357.596	0	PA_with_intermediate	test	ward_and_allport	82	26.0	1.227	to_hand	poldrack-single-stim	s556	False
0.1	357.597	0.125	357.722	0	PA_with_intermediate	test	ward_and_allport	89	26.0	0.125	to_board	poldrack-single-stim	s556	False
1.0	357.731	2.0	357.73	0	PA_with_intermediate	test	ward_and_allport	-1	26.0	n/a	feedback	poldrack-single-stim	s556	False
4.164	359.739	4.164	363.903	1	PA_without_intermediate	test	ward_and_allport	71	27.0	4.164	to_hand	poldrack-single-stim	s556	False
0.1	363.903	0.083	363.986	0	PA_without_intermediate	test	ward_and_allport	82	27.0	0.083	to_board	poldrack-single-stim	s556	False
0.1	363.994	0.9	364.894	0	PA_without_intermediate	test	ward_and_allport	71	27.0	0.9	to_hand	poldrack-single-stim	s556	False
0.1	364.895	0.102	364.997	0	PA_without_intermediate	test	ward_and_allport	89	27.0	0.102	to_board	poldrack-single-stim	s556	False
0.1	365.004	2.196	367.2	0	PA_without_intermediate	test	ward_and_allport	71	27.0	2.196	to_hand	poldrack-single-stim	s556	False
0.1	367.2	0.157	367.357	0	PA_without_intermediate	test	ward_and_allport	82	27.0	0.157	to_board	poldrack-single-stim	s556	False
1.0	367.365	2.408	367.364	0	PA_without_intermediate	test	ward_and_allport	-1	27.0	n/a	feedback	poldrack-single-stim	s556	False
3.928	369.781	3.928	373.709	1	PA_with_intermediate	test	ward_and_allport	71	28.0	3.928	to_hand	poldrack-single-stim	s556	False
0.1	373.71	0.067	373.777	0	PA_with_intermediate	test	ward_and_allport	89	28.0	0.067	to_board	poldrack-single-stim	s556	False
0.1	373.783	0.489	374.272	0	PA_with_intermediate	test	ward_and_allport	71	28.0	0.489	to_hand	poldrack-single-stim	s556	False
0.1	374.273	0.094	374.367	0	PA_with_intermediate	test	ward_and_allport	82	28.0	0.094	to_board	poldrack-single-stim	s556	False
0.1	374.374	1.146	375.52	0	PA_with_intermediate	test	ward_and_allport	71	28.0	1.146	to_hand	poldrack-single-stim	s556	False
0.1	375.522	0.075	375.597	0	PA_with_intermediate	test	ward_and_allport	89	28.0	0.075	to_board	poldrack-single-stim	s556	False
0.1	375.605	2.626	378.231	0	PA_with_intermediate	test	ward_and_allport	89	28.0	2.626	to_hand	poldrack-single-stim	s556	False
0.1	378.232	0.048	378.28	0	PA_with_intermediate	test	ward_and_allport	71	28.0	0.048	to_board	poldrack-single-stim	s556	False
0.1	378.286	0.322	378.608	0	PA_with_intermediate	test	ward_and_allport	89	28.0	0.322	to_hand	poldrack-single-stim	s556	False
0.1	378.609	0.064	378.673	0	PA_with_intermediate	test	ward_and_allport	71	28.0	0.064	to_board	poldrack-single-stim	s556	False
1.0	378.681	2.816	378.68	0	PA_with_intermediate	test	ward_and_allport	-1	28.0	n/a	feedback	poldrack-single-stim	s556	False
6.846	381.503	6.846	388.349	1	PA_without_intermediate	test	ward_and_allport	82	29.0	6.846	to_hand	poldrack-single-stim	s556	False
0.1	388.351	0.061	388.412	0	PA_without_intermediate	test	ward_and_allport	89	29.0	0.061	to_board	poldrack-single-stim	s556	False
0.1	388.418	2.169	390.587	0	PA_without_intermediate	test	ward_and_allport	82	29.0	2.169	to_hand	poldrack-single-stim	s556	False
0.1	390.588	0.642	391.23	0	PA_without_intermediate	test	ward_and_allport	71	29.0	0.642	to_board	poldrack-single-stim	s556	False
0.1	391.238	1.462	392.7	0	PA_without_intermediate	test	ward_and_allport	82	29.0	1.462	to_hand	poldrack-single-stim	s556	False
0.1	392.7	0.03	392.73	0	PA_without_intermediate	test	ward_and_allport	89	29.0	0.03	to_board	poldrack-single-stim	s556	False
1.0	392.739	3.088	392.738	0	PA_without_intermediate	test	ward_and_allport	-1	29.0	n/a	feedback	poldrack-single-stim	s556	False
2.257	400.837	2.257	403.094	1	PA_without_intermediate	test	ward_and_allport	71	30.0	2.257	to_hand	poldrack-single-stim	s556	False
0.1	403.095	0.032	403.127	0	PA_without_intermediate	test	ward_and_allport	89	30.0	0.032	to_board	poldrack-single-stim	s556	False
0.1	403.134	1.519	404.653	0	PA_without_intermediate	test	ward_and_allport	71	30.0	1.519	to_hand	poldrack-single-stim	s556	False
0.1	404.655	0.094	404.749	0	PA_without_intermediate	test	ward_and_allport	82	30.0	0.094	to_board	poldrack-single-stim	s556	False
0.1	404.757	0.585	405.342	0	PA_without_intermediate	test	ward_and_allport	71	30.0	0.585	to_hand	poldrack-single-stim	s556	False
0.1	405.342	0.034	405.376	0	PA_without_intermediate	test	ward_and_allport	89	30.0	0.034	to_board	poldrack-single-stim	s556	False
1.0	405.386	2.136	405.385	0	PA_without_intermediate	test	ward_and_allport	-1	30.0	n/a	feedback	poldrack-single-stim	s556	False
3.584	407.531	3.584	411.115	1	PA_without_intermediate	test	ward_and_allport	82	31.0	3.584	to_hand	poldrack-single-stim	s556	False
0.1	411.116	0.056	411.172	0	PA_without_intermediate	test	ward_and_allport	71	31.0	0.056	to_board	poldrack-single-stim	s556	False
0.1	411.178	0.358	411.536	0	PA_without_intermediate	test	ward_and_allport	82	31.0	0.358	to_hand	poldrack-single-stim	s556	False
0.1	411.537	0.029	411.566	0	PA_without_intermediate	test	ward_and_allport	71	31.0	0.029	to_board	poldrack-single-stim	s556	False
0.1	411.572	1.395	412.967	0	PA_without_intermediate	test	ward_and_allport	82	31.0	1.395	to_hand	poldrack-single-stim	s556	False
0.1	412.968	0.039	413.007	0	PA_without_intermediate	test	ward_and_allport	89	31.0	0.039	to_board	poldrack-single-stim	s556	False
1.0	413.019	7.168	413.018	0	PA_without_intermediate	test	ward_and_allport	-1	31.0	n/a	feedback	poldrack-single-stim	s556	False
3.32	420.195	3.32	423.515	1	PA_without_intermediate	test	ward_and_allport	89	32.0	3.32	to_hand	poldrack-single-stim	s556	False
0.1	423.517	0.082	423.599	0	PA_without_intermediate	test	ward_and_allport	82	32.0	0.082	to_board	poldrack-single-stim	s556	False
0.1	423.607	0.44	424.047	0	PA_without_intermediate	test	ward_and_allport	89	32.0	0.44	to_hand	poldrack-single-stim	s556	False
0.1	424.047	0.074	424.121	0	PA_without_intermediate	test	ward_and_allport	82	32.0	0.074	to_board	poldrack-single-stim	s556	False
0.1	424.131	1.253	425.384	0	PA_without_intermediate	test	ward_and_allport	89	32.0	1.253	to_hand	poldrack-single-stim	s556	False
0.1	425.385	0.049	425.434	0	PA_without_intermediate	test	ward_and_allport	71	32.0	0.049	to_board	poldrack-single-stim	s556	False
1.0	425.445	2.816	425.444	0	PA_without_intermediate	test	ward_and_allport	-1	32.0	n/a	feedback	poldrack-single-stim	s556	False
5.221	428.269	5.221	433.49	1	PA_with_intermediate	test	ward_and_allport	89	33.0	5.221	to_hand	poldrack-single-stim	s556	False
0.1	433.49	0.054	433.544	0	PA_with_intermediate	test	ward_and_allport	71	33.0	0.054	to_board	poldrack-single-stim	s556	False
0.1	433.55	0.586	434.136	0	PA_with_intermediate	test	ward_and_allport	89	33.0	0.586	to_hand	poldrack-single-stim	s556	False
0.1	434.137	0.07	434.207	0	PA_with_intermediate	test	ward_and_allport	82	33.0	0.07	to_board	poldrack-single-stim	s556	False
0.1	434.214	1.371	435.585	0	PA_with_intermediate	test	ward_and_allport	71	33.0	1.371	to_hand	poldrack-single-stim	s556	False
0.1	435.585	0.067	435.652	0	PA_with_intermediate	test	ward_and_allport	89	33.0	0.067	to_board	poldrack-single-stim	s556	False
1.0	435.663	2.952	435.662	0	PA_with_intermediate	test	ward_and_allport	-1	33.0	n/a	feedback	poldrack-single-stim	s556	False
6.437	438.626	6.437	445.063	1	PA_with_intermediate	test	ward_and_allport	82	34.0	6.437	to_hand	poldrack-single-stim	s556	False
0.1	445.064	0.036	445.1	0	PA_with_intermediate	test	ward_and_allport	89	34.0	0.036	to_board	poldrack-single-stim	s556	False
0.1	445.109	1.231	446.34	0	PA_with_intermediate	test	ward_and_allport	82	34.0	1.231	to_hand	poldrack-single-stim	s556	False
0.1	446.341	0.032	446.373	0	PA_with_intermediate	test	ward_and_allport	71	34.0	0.032	to_board	poldrack-single-stim	s556	False
0.1	446.382	0.985	447.367	0	PA_with_intermediate	test	ward_and_allport	89	34.0	0.985	to_hand	poldrack-single-stim	s556	False
0.1	447.368	0.069	447.437	0	PA_with_intermediate	test	ward_and_allport	82	34.0	0.069	to_board	poldrack-single-stim	s556	False
1.0	447.447	2.136	447.446	0	PA_with_intermediate	test	ward_and_allport	-1	34.0	n/a	feedback	poldrack-single-stim	s556	False
6.027	449.592	6.027	455.619	1	PA_without_intermediate	test	ward_and_allport	82	35.0	6.027	to_hand	poldrack-single-stim	s556	False
0.1	455.619	0.022	455.641	0	PA_without_intermediate	test	ward_and_allport	89	35.0	0.022	to_board	poldrack-single-stim	s556	False
0.1	455.65	0.939	456.589	0	PA_without_intermediate	test	ward_and_allport	82	35.0	0.939	to_hand	poldrack-single-stim	s556	False
0.1	456.591	0.03	456.621	0	PA_without_intermediate	test	ward_and_allport	89	35.0	0.03	to_board	poldrack-single-stim	s556	False
0.1	456.63	1.131	457.761	0	PA_without_intermediate	test	ward_and_allport	89	35.0	1.131	to_hand	poldrack-single-stim	s556	False
0.1	457.761	1.239	459.0	0	PA_without_intermediate	test	ward_and_allport	89	35.0	1.239	to_board	poldrack-single-stim	s556	False
0.1	459.009	0.95	459.959	0	PA_without_intermediate	test	ward_and_allport	82	35.0	0.95	to_hand	poldrack-single-stim	s556	False
0.1	459.96	0.442	460.402	0	PA_without_intermediate	test	ward_and_allport	71	35.0	0.442	to_board	poldrack-single-stim	s556	False
1.0	460.412	2.68	460.411	0	PA_without_intermediate	test	ward_and_allport	-1	35.0	n/a	feedback	poldrack-single-stim	s556	False
5.957	463.102	5.957	469.059	1	PA_without_intermediate	test	ward_and_allport	89	36.0	5.957	to_hand	poldrack-single-stim	s556	False
0.1	469.059	0.06	469.119	0	PA_without_intermediate	test	ward_and_allport	82	36.0	0.06	to_board	poldrack-single-stim	s556	False
0.1	469.128	2.934	472.062	0	PA_without_intermediate	test	ward_and_allport	89	36.0	2.934	to_hand	poldrack-single-stim	s556	False
0.1	472.063	0.071	472.134	0	PA_without_intermediate	test	ward_and_allport	71	36.0	0.071	to_board	poldrack-single-stim	s556	False
0.1	472.144	0.904	473.048	0	PA_without_intermediate	test	ward_and_allport	89	36.0	0.904	to_hand	poldrack-single-stim	s556	False
0.1	473.048	0.084	473.132	0	PA_without_intermediate	test	ward_and_allport	82	36.0	0.084	to_board	poldrack-single-stim	s556	False
1.0	473.143	3.088	473.142	0	PA_without_intermediate	test	ward_and_allport	-1	36.0	n/a	feedback	poldrack-single-stim	s556	False
4.337	476.241	4.337	480.578	1	PA_with_intermediate	test	ward_and_allport	71	37.0	4.337	to_hand	poldrack-single-stim	s556	False
0.1	480.579	0.041	480.62	0	PA_with_intermediate	test	ward_and_allport	89	37.0	0.041	to_board	poldrack-single-stim	s556	False
0.1	480.63	0.297	480.927	0	PA_with_intermediate	test	ward_and_allport	71	37.0	0.297	to_hand	poldrack-single-stim	s556	False
0.1	480.927	0.048	480.975	0	PA_with_intermediate	test	ward_and_allport	89	37.0	0.048	to_board	poldrack-single-stim	s556	False
0.1	480.984	5.604	486.588	0	PA_with_intermediate	test	ward_and_allport	71	37.0	5.604	to_hand	poldrack-single-stim	s556	False
0.1	486.589	0.09	486.679	0	PA_with_intermediate	test	ward_and_allport	82	37.0	0.09	to_board	poldrack-single-stim	s556	False
0.1	486.689	1.84	488.529	0	PA_with_intermediate	test	ward_and_allport	82	37.0	1.84	to_hand	poldrack-single-stim	s556	False
0.1	488.53	0.076	488.606	0	PA_with_intermediate	test	ward_and_allport	71	37.0	0.076	to_board	poldrack-single-stim	s556	False
0.1	488.615	3.922	492.537	0	PA_with_intermediate	test	ward_and_allport	89	37.0	3.922	to_hand	poldrack-single-stim	s556	False
0.1	492.537	0.047	492.584	0	PA_with_intermediate	test	ward_and_allport	71	37.0	0.047	to_board	poldrack-single-stim	s556	False
0.1	492.593	2.274	494.867	0	PA_with_intermediate	test	ward_and_allport	89	37.0	2.274	to_hand	poldrack-single-stim	s556	False
0.1	494.869	0.115	494.984	0	PA_with_intermediate	test	ward_and_allport	82	37.0	0.115	to_board	poldrack-single-stim	s556	False
0.1	494.992	0.921	495.913	0	PA_with_intermediate	test	ward_and_allport	71	37.0	0.921	to_hand	poldrack-single-stim	s556	False
0.1	495.915	0.058	495.973	0	PA_with_intermediate	test	ward_and_allport	89	37.0	0.058	to_board	poldrack-single-stim	s556	False
0.1	495.984	0.997	496.981	0	PA_with_intermediate	test	ward_and_allport	82	37.0	0.997	to_hand	poldrack-single-stim	s556	False
0.1	496.982	0.046	497.028	0	PA_with_intermediate	test	ward_and_allport	89	37.0	0.046	to_board	poldrack-single-stim	s556	False
1.0	497.037	2.0	497.036	0	PA_with_intermediate	test	ward_and_allport	-1	37.0	n/a	feedback	poldrack-single-stim	s556	False
4.64	499.045	4.64	503.685	1	PA_without_intermediate	test	ward_and_allport	89	38.0	4.64	to_hand	poldrack-single-stim	s556	False
0.1	503.686	0.128	503.814	0	PA_without_intermediate	test	ward_and_allport	82	38.0	0.128	to_board	poldrack-single-stim	s556	False
0.1	503.82	1.273	505.093	0	PA_without_intermediate	test	ward_and_allport	89	38.0	1.273	to_hand	poldrack-single-stim	s556	False
0.1	505.094	0.074	505.168	0	PA_without_intermediate	test	ward_and_allport	82	38.0	0.074	to_board	poldrack-single-stim	s556	False
0.1	505.177	1.538	506.715	0	PA_without_intermediate	test	ward_and_allport	89	38.0	1.538	to_hand	poldrack-single-stim	s556	False
0.1	506.716	0.047	506.763	0	PA_without_intermediate	test	ward_and_allport	71	38.0	0.047	to_board	poldrack-single-stim	s556	False
1.0	506.775	2.0	506.774	0	PA_without_intermediate	test	ward_and_allport	-1	38.0	n/a	feedback	poldrack-single-stim	s556	False
6.144	508.785	6.144	514.929	1	PA_without_intermediate	test	ward_and_allport	71	39.0	6.144	to_hand	poldrack-single-stim	s556	False
0.1	514.931	0.087	515.018	0	PA_without_intermediate	test	ward_and_allport	82	39.0	0.087	to_board	poldrack-single-stim	s556	False
0.1	515.028	0.665	515.693	0	PA_without_intermediate	test	ward_and_allport	71	39.0	0.665	to_hand	poldrack-single-stim	s556	False
0.1	515.693	0.056	515.749	0	PA_without_intermediate	test	ward_and_allport	82	39.0	0.056	to_board	poldrack-single-stim	s556	False
0.1	515.76	0.631	516.391	0	PA_without_intermediate	test	ward_and_allport	71	39.0	0.631	to_hand	poldrack-single-stim	s556	False
0.1	516.392	0.066	516.458	0	PA_without_intermediate	test	ward_and_allport	89	39.0	0.066	to_board	poldrack-single-stim	s556	False
1.0	516.469	2.0	516.468	0	PA_without_intermediate	test	ward_and_allport	-1	39.0	n/a	feedback	poldrack-single-stim	s556	False
10.474	518.48	10.474	528.954	1	PA_with_intermediate	test	ward_and_allport	82	40.0	10.474	to_hand	poldrack-single-stim	s556	False
0.1	528.955	0.054	529.009	0	PA_with_intermediate	test	ward_and_allport	89	40.0	0.054	to_board	poldrack-single-stim	s556	False
0.1	529.02	1.064	530.084	0	PA_with_intermediate	test	ward_and_allport	82	40.0	1.064	to_hand	poldrack-single-stim	s556	False
0.1	530.085	0.041	530.126	0	PA_with_intermediate	test	ward_and_allport	71	40.0	0.041	to_board	poldrack-single-stim	s556	False
0.1	530.136	1.279	531.415	0	PA_with_intermediate	test	ward_and_allport	89	40.0	1.279	to_hand	poldrack-single-stim	s556	False
0.1	531.416	0.035	531.451	0	PA_with_intermediate	test	ward_and_allport	71	40.0	0.035	to_board	poldrack-single-stim	s556	False
1.0	531.463	2.544	531.462	0	PA_with_intermediate	test	ward_and_allport	-1	40.0	n/a	feedback	poldrack-single-stim	s556	False
4.296	534.016	4.296	538.312	1	PA_without_intermediate	test	ward_and_allport	71	41.0	4.296	to_hand	poldrack-single-stim	s556	False
0.1	538.313	0.039	538.352	0	PA_without_intermediate	test	ward_and_allport	89	41.0	0.039	to_board	poldrack-single-stim	s556	False
0.1	538.358	0.358	538.716	0	PA_without_intermediate	test	ward_and_allport	71	41.0	0.358	to_hand	poldrack-single-stim	s556	False
0.1	538.717	0.464	539.181	0	PA_without_intermediate	test	ward_and_allport	82	41.0	0.464	to_board	poldrack-single-stim	s556	False
0.1	539.189	0.543	539.732	0	PA_without_intermediate	test	ward_and_allport	71	41.0	0.543	to_hand	poldrack-single-stim	s556	False
0.1	539.733	0.047	539.78	0	PA_without_intermediate	test	ward_and_allport	89	41.0	0.047	to_board	poldrack-single-stim	s556	False
1.0	539.791	2.272	539.79	0	PA_without_intermediate	test	ward_and_allport	-1	41.0	n/a	feedback	poldrack-single-stim	s556	False
5.968	542.073	5.968	548.041	1	PA_with_intermediate	test	ward_and_allport	82	42.0	5.968	to_hand	poldrack-single-stim	s556	False
0.1	548.041	0.06	548.101	0	PA_with_intermediate	test	ward_and_allport	89	42.0	0.06	to_board	poldrack-single-stim	s556	False
0.1	548.109	3.299	551.408	0	PA_with_intermediate	test	ward_and_allport	89	42.0	3.299	to_hand	poldrack-single-stim	s556	False
0.1	551.408	0.036	551.444	0	PA_with_intermediate	test	ward_and_allport	71	42.0	0.036	to_board	poldrack-single-stim	s556	False
0.1	551.454	1.384	552.838	0	PA_with_intermediate	test	ward_and_allport	82	42.0	1.384	to_hand	poldrack-single-stim	s556	False
0.1	552.84	0.029	552.869	0	PA_with_intermediate	test	ward_and_allport	89	42.0	0.029	to_board	poldrack-single-stim	s556	False
0.1	552.881	2.26	555.141	0	PA_with_intermediate	test	ward_and_allport	71	42.0	2.26	to_hand	poldrack-single-stim	s556	False
0.1	555.142	0.097	555.239	0	PA_with_intermediate	test	ward_and_allport	82	42.0	0.097	to_board	poldrack-single-stim	s556	False
1.0	555.252	4.04	555.251	0	PA_with_intermediate	test	ward_and_allport	-1	42.0	n/a	feedback	poldrack-single-stim	s556	False
