onset	duration	movement_onset	block_duration	condition	correct	correct_response	experiment_exp_id	key_press	response_time	trial_id	trial_type	worker_id	junk
0.734	0.5	1.223	1.636	AX	1.0	89.0	dot_pattern_expectancy	89.0	0.489	probe	AX	s556	False
2.372	0.5	2.371	0.5	AX	n/a	n/a	dot_pattern_expectancy	-1.0	n/a	cue	AX	s556	False
4.875	0.5	5.344	1.5	AX	1.0	89.0	dot_pattern_expectancy	89.0	0.469	probe	AX	s556	False
6.377	0.5	6.376	0.5	AX	n/a	n/a	dot_pattern_expectancy	-1.0	n/a	cue	AX	s556	False
8.886	0.5	9.52	1.5	AX	1.0	89.0	dot_pattern_expectancy	89.0	0.634	probe	AX	s556	False
10.388	0.5	10.387	0.5	AX	n/a	n/a	dot_pattern_expectancy	-1.0	n/a	cue	AX	s556	False
12.895	0.5	13.547	1.908	AX	1.0	89.0	dot_pattern_expectancy	89.0	0.652	probe	AX	s556	False
14.805	0.5	14.804	0.5	BX	n/a	n/a	dot_pattern_expectancy	-1.0	n/a	cue	BX	s556	False
17.31	0.5	17.514	1.636	BX	1.0	71.0	dot_pattern_expectancy	71.0	0.204	probe	BX	s556	False
18.948	0.5	18.947	0.5	AX	n/a	n/a	dot_pattern_expectancy	-1.0	n/a	cue	AX	s556	False
21.457	0.5	21.857	2.044	AX	1.0	89.0	dot_pattern_expectancy	89.0	0.4	probe	AX	s556	False
23.507	0.5	23.506	0.5	AX	n/a	n/a	dot_pattern_expectancy	-1.0	n/a	cue	AX	s556	False
26.012	0.5	26.68	1.772	AX	1.0	89.0	dot_pattern_expectancy	89.0	0.668	probe	AX	s556	False
27.786	0.5	27.785	0.5	AX	n/a	n/a	dot_pattern_expectancy	-1.0	n/a	cue	AX	s556	False
30.29	0.5	30.839	1.5	AX	1.0	89.0	dot_pattern_expectancy	89.0	0.549	probe	AX	s556	False
31.797	0.5	31.796	0.5	AX	n/a	n/a	dot_pattern_expectancy	-1.0	n/a	cue	AX	s556	False
34.303	0.5	34.738	2.18	AX	1.0	89.0	dot_pattern_expectancy	89.0	0.435	probe	AX	s556	False
36.488	0.5	36.487	0.5	AX	n/a	n/a	dot_pattern_expectancy	-1.0	n/a	cue	AX	s556	False
38.994	0.5	39.415	1.5	AX	1.0	89.0	dot_pattern_expectancy	89.0	0.421	probe	AX	s556	False
40.496	0.5	40.495	0.5	BX	n/a	n/a	dot_pattern_expectancy	-1.0	n/a	cue	BX	s556	False
43.005	0.5	43.24	3.676	BX	1.0	71.0	dot_pattern_expectancy	71.0	0.235	probe	BX	s556	False
46.682	0.5	46.681	0.5	BY	n/a	n/a	dot_pattern_expectancy	-1.0	n/a	cue	BY	s556	False
49.189	0.5	49.536	1.636	BY	1.0	71.0	dot_pattern_expectancy	71.0	0.347	probe	BY	s556	False
50.832	0.5	50.831	0.5	BY	n/a	n/a	dot_pattern_expectancy	-1.0	n/a	cue	BY	s556	False
53.338	0.5	53.869	1.636	BY	1.0	71.0	dot_pattern_expectancy	71.0	0.531	probe	BY	s556	False
54.976	0.5	54.975	0.5	BX	n/a	n/a	dot_pattern_expectancy	-1.0	n/a	cue	BX	s556	False
57.485	0.5	57.764	1.5	BX	1.0	71.0	dot_pattern_expectancy	71.0	0.279	probe	BX	s556	False
58.987	0.5	58.986	0.5	AX	n/a	n/a	dot_pattern_expectancy	-1.0	n/a	cue	AX	s556	False
61.497	0.5	61.877	1.908	AX	1.0	89.0	dot_pattern_expectancy	89.0	0.38	probe	AX	s556	False
63.41	0.5	63.409	0.5	AX	n/a	n/a	dot_pattern_expectancy	-1.0	n/a	cue	AX	s556	False
65.915	0.5	66.433	1.636	AX	1.0	89.0	dot_pattern_expectancy	89.0	0.518	probe	AX	s556	False
67.556	0.5	67.555	0.5	BX	n/a	n/a	dot_pattern_expectancy	-1.0	n/a	cue	BX	s556	False
70.062	0.5	70.689	1.5	BX	1.0	71.0	dot_pattern_expectancy	71.0	0.627	probe	BX	s556	False
71.563	0.5	71.562	0.5	AX	n/a	n/a	dot_pattern_expectancy	-1.0	n/a	cue	AX	s556	False
74.07	0.5	74.712	1.908	AX	1.0	89.0	dot_pattern_expectancy	89.0	0.642	probe	AX	s556	False
75.985	0.5	75.984	0.5	BY	n/a	n/a	dot_pattern_expectancy	-1.0	n/a	cue	BY	s556	False
78.491	0.5	78.889	2.18	BY	1.0	71.0	dot_pattern_expectancy	71.0	0.398	probe	BY	s556	False
80.673	0.5	80.672	0.5	AX	n/a	n/a	dot_pattern_expectancy	-1.0	n/a	cue	AX	s556	False
83.182	0.5	83.726	1.772	AX	1.0	89.0	dot_pattern_expectancy	89.0	0.544	probe	AX	s556	False
84.956	0.5	84.955	0.5	AX	n/a	n/a	dot_pattern_expectancy	-1.0	n/a	cue	AX	s556	False
87.465	0.5	87.962	1.5	AX	1.0	89.0	dot_pattern_expectancy	89.0	0.497	probe	AX	s556	False
88.969	0.5	88.968	0.5	AX	n/a	n/a	dot_pattern_expectancy	-1.0	n/a	cue	AX	s556	False
91.478	0.5	91.987	1.5	AX	1.0	89.0	dot_pattern_expectancy	89.0	0.509	probe	AX	s556	False
92.982	0.5	92.981	0.5	AX	n/a	n/a	dot_pattern_expectancy	-1.0	n/a	cue	AX	s556	False
95.492	0.5	95.873	2.044	AX	1.0	89.0	dot_pattern_expectancy	89.0	0.381	probe	AX	s556	False
97.537	0.5	97.536	0.5	AX	n/a	n/a	dot_pattern_expectancy	-1.0	n/a	cue	AX	s556	False
100.046	0.5	100.452	2.86	AX	1.0	89.0	dot_pattern_expectancy	89.0	0.406	probe	AX	s556	False
102.911	0.5	102.91	0.5	BX	n/a	n/a	dot_pattern_expectancy	-1.0	n/a	cue	BX	s556	False
105.42	0.5	105.69	1.5	BX	1.0	71.0	dot_pattern_expectancy	71.0	0.27	probe	BX	s556	False
106.924	0.5	106.923	0.5	BY	n/a	n/a	dot_pattern_expectancy	-1.0	n/a	cue	BY	s556	False
109.432	0.5	110.013	1.772	BY	1.0	71.0	dot_pattern_expectancy	71.0	0.581	probe	BY	s556	False
111.208	0.5	111.207	0.5	AX	n/a	n/a	dot_pattern_expectancy	-1.0	n/a	cue	AX	s556	False
113.716	0.5	114.036	1.772	AX	1.0	89.0	dot_pattern_expectancy	89.0	0.32	probe	AX	s556	False
115.49	0.5	115.489	0.5	AX	n/a	n/a	dot_pattern_expectancy	-1.0	n/a	cue	AX	s556	False
117.999	0.5	118.601	2.86	AX	1.0	89.0	dot_pattern_expectancy	89.0	0.602	probe	AX	s556	False
120.861	0.5	120.86	0.5	AX	n/a	n/a	dot_pattern_expectancy	-1.0	n/a	cue	AX	s556	False
123.366	0.5	123.758	1.772	AX	1.0	89.0	dot_pattern_expectancy	89.0	0.392	probe	AX	s556	False
125.143	0.5	125.142	0.5	BX	n/a	n/a	dot_pattern_expectancy	-1.0	n/a	cue	BX	s556	False
127.65	0.5	128.302	1.636	BX	1.0	71.0	dot_pattern_expectancy	71.0	0.652	probe	BX	s556	False
129.29	0.5	129.289	0.5	BX	n/a	n/a	dot_pattern_expectancy	-1.0	n/a	cue	BX	s556	False
131.794	0.5	132.383	2.452	BX	1.0	71.0	dot_pattern_expectancy	71.0	0.589	probe	BX	s556	False
134.248	0.5	134.247	0.5	AX	n/a	n/a	dot_pattern_expectancy	-1.0	n/a	cue	AX	s556	False
136.754	0.5	137.192	1.636	AX	1.0	89.0	dot_pattern_expectancy	89.0	0.438	probe	AX	s556	False
138.392	0.5	138.391	0.5	BX	n/a	n/a	dot_pattern_expectancy	-1.0	n/a	cue	BX	s556	False
140.899	0.5	141.353	1.5	BX	1.0	71.0	dot_pattern_expectancy	71.0	0.454	probe	BX	s556	False
142.403	0.5	142.402	0.5	AX	n/a	n/a	dot_pattern_expectancy	-1.0	n/a	cue	AX	s556	False
144.909	0.5	145.427	1.636	AX	1.0	89.0	dot_pattern_expectancy	89.0	0.518	probe	AX	s556	False
146.549	0.5	146.548	0.5	AX	n/a	n/a	dot_pattern_expectancy	-1.0	n/a	cue	AX	s556	False
149.053	0.5	149.462	1.636	AX	1.0	89.0	dot_pattern_expectancy	89.0	0.409	probe	AX	s556	False
150.691	0.5	150.69	0.5	BY	n/a	n/a	dot_pattern_expectancy	-1.0	n/a	cue	BY	s556	False
153.198	0.5	153.48	2.18	BY	1.0	71.0	dot_pattern_expectancy	71.0	0.282	probe	BY	s556	False
155.384	0.5	155.383	0.5	AX	n/a	n/a	dot_pattern_expectancy	-1.0	n/a	cue	AX	s556	False
157.894	0.5	158.293	1.5	AX	1.0	89.0	dot_pattern_expectancy	89.0	0.399	probe	AX	s556	False
159.395	0.5	159.394	0.5	AY	n/a	n/a	dot_pattern_expectancy	-1.0	n/a	cue	AY	s556	False
161.902	0.5	162.451	1.636	AY	0.0	71.0	dot_pattern_expectancy	89.0	0.549	probe	AY	s556	False
163.545	0.5	163.544	0.5	AX	n/a	n/a	dot_pattern_expectancy	-1.0	n/a	cue	AX	s556	False
166.051	0.5	166.66	1.636	AX	1.0	89.0	dot_pattern_expectancy	89.0	0.609	probe	AX	s556	False
178.209	0.5	178.208	0.5	AX	n/a	n/a	dot_pattern_expectancy	-1.0	n/a	cue	AX	s556	False
180.713	0.5	181.173	2.18	AX	1.0	89.0	dot_pattern_expectancy	89.0	0.46	probe	AX	s556	False
182.9	0.5	182.899	0.5	AY	n/a	n/a	dot_pattern_expectancy	-1.0	n/a	cue	AY	s556	False
185.406	0.5	186.079	2.316	AY	1.0	71.0	dot_pattern_expectancy	71.0	0.673	probe	AY	s556	False
187.726	0.5	187.725	0.5	AY	n/a	n/a	dot_pattern_expectancy	-1.0	n/a	cue	AY	s556	False
190.231	0.5	190.938	1.636	AY	1.0	71.0	dot_pattern_expectancy	71.0	0.707	probe	AY	s556	False
191.871	0.5	191.87	0.5	BX	n/a	n/a	dot_pattern_expectancy	-1.0	n/a	cue	BX	s556	False
194.377	0.5	195.193	1.908	BX	0.0	71.0	dot_pattern_expectancy	89.0	0.816	probe	BX	s556	False
196.287	0.5	196.286	0.5	AX	n/a	n/a	dot_pattern_expectancy	-1.0	n/a	cue	AX	s556	False
198.794	0.5	199.161	3.54	AX	1.0	89.0	dot_pattern_expectancy	89.0	0.367	probe	AX	s556	False
202.336	0.5	202.335	0.5	BX	n/a	n/a	dot_pattern_expectancy	-1.0	n/a	cue	BX	s556	False
204.842	0.5	205.085	1.636	BX	1.0	71.0	dot_pattern_expectancy	71.0	0.243	probe	BX	s556	False
206.481	0.5	206.48	0.5	BY	n/a	n/a	dot_pattern_expectancy	-1.0	n/a	cue	BY	s556	False
208.988	0.5	209.502	1.5	BY	1.0	71.0	dot_pattern_expectancy	71.0	0.514	probe	BY	s556	False
210.49	0.5	210.489	0.5	AX	n/a	n/a	dot_pattern_expectancy	-1.0	n/a	cue	AX	s556	False
213.0	0.5	213.423	1.5	AX	1.0	89.0	dot_pattern_expectancy	89.0	0.423	probe	AX	s556	False
214.503	0.5	214.502	0.5	AX	n/a	n/a	dot_pattern_expectancy	-1.0	n/a	cue	AX	s556	False
217.006	0.5	217.697	1.772	AX	1.0	89.0	dot_pattern_expectancy	89.0	0.691	probe	AX	s556	False
218.784	0.5	218.783	0.5	BY	n/a	n/a	dot_pattern_expectancy	-1.0	n/a	cue	BY	s556	False
221.29	0.5	221.488	2.452	BY	1.0	71.0	dot_pattern_expectancy	71.0	0.198	probe	BY	s556	False
223.744	0.5	223.743	0.5	AX	n/a	n/a	dot_pattern_expectancy	-1.0	n/a	cue	AX	s556	False
226.251	0.5	226.785	1.908	AX	1.0	89.0	dot_pattern_expectancy	89.0	0.534	probe	AX	s556	False
228.16	0.5	228.159	0.5	BX	n/a	n/a	dot_pattern_expectancy	-1.0	n/a	cue	BX	s556	False
230.667	0.5	230.904	1.636	BX	1.0	71.0	dot_pattern_expectancy	71.0	0.237	probe	BX	s556	False
232.31	0.5	232.309	0.5	AX	n/a	n/a	dot_pattern_expectancy	-1.0	n/a	cue	AX	s556	False
234.819	0.5	235.44	1.5	AX	1.0	89.0	dot_pattern_expectancy	89.0	0.621	probe	AX	s556	False
236.321	0.5	236.32	0.5	AX	n/a	n/a	dot_pattern_expectancy	-1.0	n/a	cue	AX	s556	False
238.827	0.5	239.279	1.636	AX	1.0	89.0	dot_pattern_expectancy	89.0	0.452	probe	AX	s556	False
240.47	0.5	240.469	0.5	AX	n/a	n/a	dot_pattern_expectancy	-1.0	n/a	cue	AX	s556	False
242.982	0.5	243.375	1.636	AX	1.0	89.0	dot_pattern_expectancy	89.0	0.393	probe	AX	s556	False
244.619	0.5	244.618	0.5	BY	n/a	n/a	dot_pattern_expectancy	-1.0	n/a	cue	BY	s556	False
247.126	0.5	247.571	2.452	BY	1.0	71.0	dot_pattern_expectancy	71.0	0.445	probe	BY	s556	False
249.579	0.5	249.578	0.5	AX	n/a	n/a	dot_pattern_expectancy	-1.0	n/a	cue	AX	s556	False
252.089	0.5	252.399	1.5	AX	1.0	89.0	dot_pattern_expectancy	89.0	0.31	probe	AX	s556	False
253.593	0.5	253.592	0.5	BY	n/a	n/a	dot_pattern_expectancy	-1.0	n/a	cue	BY	s556	False
256.099	0.5	257.166	1.5	BY	1.0	71.0	dot_pattern_expectancy	71.0	1.067	probe	BY	s556	False
257.602	0.5	257.601	0.5	AX	n/a	n/a	dot_pattern_expectancy	-1.0	n/a	cue	AX	s556	False
260.106	0.5	260.658	1.636	AX	1.0	89.0	dot_pattern_expectancy	89.0	0.552	probe	AX	s556	False
261.744	0.5	261.743	0.5	AX	n/a	n/a	dot_pattern_expectancy	-1.0	n/a	cue	AX	s556	False
264.246	0.5	265.086	1.636	AX	1.0	89.0	dot_pattern_expectancy	89.0	0.84	probe	AX	s556	False
265.884	0.5	265.883	0.5	AY	n/a	n/a	dot_pattern_expectancy	-1.0	n/a	cue	AY	s556	False
268.391	0.5	269.024	1.636	AY	1.0	71.0	dot_pattern_expectancy	71.0	0.633	probe	AY	s556	False
270.033	0.5	270.032	0.5	AX	n/a	n/a	dot_pattern_expectancy	-1.0	n/a	cue	AX	s556	False
272.538	0.5	273.027	1.5	AX	1.0	89.0	dot_pattern_expectancy	89.0	0.489	probe	AX	s556	False
274.043	0.5	274.042	0.5	AX	n/a	n/a	dot_pattern_expectancy	-1.0	n/a	cue	AX	s556	False
276.548	0.5	277.086	1.5	AX	1.0	89.0	dot_pattern_expectancy	89.0	0.538	probe	AX	s556	False
278.051	0.5	278.05	0.5	AX	n/a	n/a	dot_pattern_expectancy	-1.0	n/a	cue	AX	s556	False
280.559	0.5	281.119	1.772	AX	1.0	89.0	dot_pattern_expectancy	89.0	0.56	probe	AX	s556	False
282.333	0.5	282.332	0.5	AX	n/a	n/a	dot_pattern_expectancy	-1.0	n/a	cue	AX	s556	False
284.839	0.5	285.331	2.18	AX	1.0	89.0	dot_pattern_expectancy	89.0	0.492	probe	AX	s556	False
287.026	0.5	287.025	0.5	BX	n/a	n/a	dot_pattern_expectancy	-1.0	n/a	cue	BX	s556	False
289.53	0.5	289.827	1.772	BX	1.0	71.0	dot_pattern_expectancy	71.0	0.297	probe	BX	s556	False
291.304	0.5	291.303	0.5	BY	n/a	n/a	dot_pattern_expectancy	-1.0	n/a	cue	BY	s556	False
293.81	0.5	294.321	1.5	BY	1.0	71.0	dot_pattern_expectancy	71.0	0.511	probe	BY	s556	False
295.314	0.5	295.313	0.5	AX	n/a	n/a	dot_pattern_expectancy	-1.0	n/a	cue	AX	s556	False
297.824	0.5	298.363	1.5	AX	1.0	89.0	dot_pattern_expectancy	89.0	0.539	probe	AX	s556	False
299.329	0.5	299.328	0.5	AX	n/a	n/a	dot_pattern_expectancy	-1.0	n/a	cue	AX	s556	False
301.832	0.5	302.538	1.636	AX	1.0	89.0	dot_pattern_expectancy	89.0	0.706	probe	AX	s556	False
303.469	0.5	303.468	0.5	AY	n/a	n/a	dot_pattern_expectancy	-1.0	n/a	cue	AY	s556	False
305.976	0.5	306.581	2.18	AY	1.0	71.0	dot_pattern_expectancy	71.0	0.605	probe	AY	s556	False
308.159	0.5	308.158	0.5	AY	n/a	n/a	dot_pattern_expectancy	-1.0	n/a	cue	AY	s556	False
310.667	0.5	311.418	2.316	AY	1.0	71.0	dot_pattern_expectancy	71.0	0.751	probe	AY	s556	False
312.985	0.5	312.984	0.5	BX	n/a	n/a	dot_pattern_expectancy	-1.0	n/a	cue	BX	s556	False
315.496	0.5	316.563	1.636	BX	1.0	71.0	dot_pattern_expectancy	71.0	1.067	probe	BX	s556	False
317.134	0.5	317.133	0.5	BX	n/a	n/a	dot_pattern_expectancy	-1.0	n/a	cue	BX	s556	False
319.64	0.5	320.159	2.18	BX	1.0	71.0	dot_pattern_expectancy	71.0	0.519	probe	BX	s556	False
321.823	0.5	321.822	0.5	AY	n/a	n/a	dot_pattern_expectancy	-1.0	n/a	cue	AY	s556	False
324.331	0.5	325.119	2.044	AY	1.0	71.0	dot_pattern_expectancy	71.0	0.788	probe	AY	s556	False
326.377	0.5	326.376	0.5	AX	n/a	n/a	dot_pattern_expectancy	-1.0	n/a	cue	AX	s556	False
328.885	0.5	330.064	1.772	AX	1.0	89.0	dot_pattern_expectancy	89.0	1.179	probe	AX	s556	False
330.659	0.5	330.658	0.5	AX	n/a	n/a	dot_pattern_expectancy	-1.0	n/a	cue	AX	s556	False
333.163	0.5	334.303	1.5	AX	1.0	89.0	dot_pattern_expectancy	89.0	1.14	probe	AX	s556	False
334.665	0.5	334.664	0.5	AX	n/a	n/a	dot_pattern_expectancy	-1.0	n/a	cue	AX	s556	False
337.172	0.5	338.21	2.18	AX	1.0	89.0	dot_pattern_expectancy	89.0	1.038	probe	AX	s556	False
339.354	0.5	339.353	0.5	AY	n/a	n/a	dot_pattern_expectancy	-1.0	n/a	cue	AY	s556	False
341.86	0.5	342.436	2.452	AY	1.0	71.0	dot_pattern_expectancy	71.0	0.576	probe	AY	s556	False
344.318	0.5	344.317	0.5	AX	n/a	n/a	dot_pattern_expectancy	-1.0	n/a	cue	AX	s556	False
346.825	0.5	347.416	1.636	AX	1.0	89.0	dot_pattern_expectancy	89.0	0.591	probe	AX	s556	False
348.463	0.5	348.462	0.5	AX	n/a	n/a	dot_pattern_expectancy	-1.0	n/a	cue	AX	s556	False
350.969	0.5	351.764	1.908	AX	1.0	89.0	dot_pattern_expectancy	89.0	0.795	probe	AX	s556	False
363.391	0.5	363.39	0.5	AX	n/a	n/a	dot_pattern_expectancy	-1.0	n/a	cue	AX	s556	False
365.899	0.5	366.508	1.772	AX	1.0	89.0	dot_pattern_expectancy	89.0	0.609	probe	AX	s556	False
367.676	0.5	367.675	0.5	AX	n/a	n/a	dot_pattern_expectancy	-1.0	n/a	cue	AX	s556	False
370.183	0.5	370.831	1.5	AX	1.0	89.0	dot_pattern_expectancy	89.0	0.648	probe	AX	s556	False
371.685	0.5	371.684	0.5	AY	n/a	n/a	dot_pattern_expectancy	-1.0	n/a	cue	AY	s556	False
374.191	0.5	374.825	2.452	AY	1.0	71.0	dot_pattern_expectancy	71.0	0.634	probe	AY	s556	False
376.644	0.5	376.643	0.5	AY	n/a	n/a	dot_pattern_expectancy	-1.0	n/a	cue	AY	s556	False
379.154	0.5	380.578	1.772	AY	1.0	71.0	dot_pattern_expectancy	71.0	1.424	probe	AY	s556	False
380.932	0.5	380.931	0.5	AX	n/a	n/a	dot_pattern_expectancy	-1.0	n/a	cue	AX	s556	False
383.437	0.5	384.503	1.908	AX	1.0	89.0	dot_pattern_expectancy	89.0	1.066	probe	AX	s556	False
385.351	0.5	385.35	0.5	AX	n/a	n/a	dot_pattern_expectancy	-1.0	n/a	cue	AX	s556	False
387.854	0.5	388.552	1.908	AX	1.0	89.0	dot_pattern_expectancy	89.0	0.698	probe	AX	s556	False
389.765	0.5	389.764	0.5	AX	n/a	n/a	dot_pattern_expectancy	-1.0	n/a	cue	AX	s556	False
392.275	0.5	392.861	2.588	AX	1.0	89.0	dot_pattern_expectancy	89.0	0.586	probe	AX	s556	False
394.867	0.5	394.866	0.5	AY	n/a	n/a	dot_pattern_expectancy	-1.0	n/a	cue	AY	s556	False
397.373	0.5	397.968	1.5	AY	1.0	71.0	dot_pattern_expectancy	71.0	0.595	probe	AY	s556	False
398.875	0.5	398.874	0.5	BY	n/a	n/a	dot_pattern_expectancy	-1.0	n/a	cue	BY	s556	False
401.384	0.5	402.142	1.5	BY	1.0	71.0	dot_pattern_expectancy	71.0	0.758	probe	BY	s556	False
402.886	0.5	402.885	0.5	BY	n/a	n/a	dot_pattern_expectancy	-1.0	n/a	cue	BY	s556	False
405.39	0.5	405.723	1.5	BY	1.0	71.0	dot_pattern_expectancy	71.0	0.333	probe	BY	s556	False
406.897	0.5	406.896	0.5	AX	n/a	n/a	dot_pattern_expectancy	-1.0	n/a	cue	AX	s556	False
409.403	0.5	410.01	1.636	AX	1.0	89.0	dot_pattern_expectancy	89.0	0.607	probe	AX	s556	False
411.046	0.5	411.045	0.5	BX	n/a	n/a	dot_pattern_expectancy	-1.0	n/a	cue	BX	s556	False
413.551	0.5	413.814	2.044	BX	1.0	71.0	dot_pattern_expectancy	71.0	0.263	probe	BX	s556	False
415.598	0.5	415.597	0.5	AX	n/a	n/a	dot_pattern_expectancy	-1.0	n/a	cue	AX	s556	False
418.105	0.5	418.852	1.772	AX	1.0	89.0	dot_pattern_expectancy	89.0	0.747	probe	AX	s556	False
419.884	0.5	419.883	0.5	BX	n/a	n/a	dot_pattern_expectancy	-1.0	n/a	cue	BX	s556	False
422.389	0.5	422.77	2.588	BX	1.0	71.0	dot_pattern_expectancy	71.0	0.381	probe	BX	s556	False
424.983	0.5	424.982	0.5	AY	n/a	n/a	dot_pattern_expectancy	-1.0	n/a	cue	AY	s556	False
427.486	0.5	427.794	1.5	AY	0.0	71.0	dot_pattern_expectancy	89.0	0.308	probe	AY	s556	False
428.988	0.5	428.987	0.5	AX	n/a	n/a	dot_pattern_expectancy	-1.0	n/a	cue	AX	s556	False
431.494	0.5	432.092	2.452	AX	1.0	89.0	dot_pattern_expectancy	89.0	0.598	probe	AX	s556	False
433.948	0.5	433.947	0.5	BY	n/a	n/a	dot_pattern_expectancy	-1.0	n/a	cue	BY	s556	False
436.455	0.5	436.993	1.636	BY	1.0	71.0	dot_pattern_expectancy	71.0	0.538	probe	BY	s556	False
438.097	0.5	438.096	0.5	AX	n/a	n/a	dot_pattern_expectancy	-1.0	n/a	cue	AX	s556	False
440.606	0.5	441.268	1.636	AX	1.0	89.0	dot_pattern_expectancy	89.0	0.662	probe	AX	s556	False
442.247	0.5	442.246	0.5	AX	n/a	n/a	dot_pattern_expectancy	-1.0	n/a	cue	AX	s556	False
444.751	0.5	445.374	1.5	AX	1.0	89.0	dot_pattern_expectancy	89.0	0.623	probe	AX	s556	False
446.253	0.5	446.252	0.5	BY	n/a	n/a	dot_pattern_expectancy	-1.0	n/a	cue	BY	s556	False
448.759	0.5	449.002	1.636	BY	1.0	71.0	dot_pattern_expectancy	71.0	0.243	probe	BY	s556	False
450.402	0.5	450.401	0.5	AX	n/a	n/a	dot_pattern_expectancy	-1.0	n/a	cue	AX	s556	False
452.906	0.5	453.351	1.5	AX	1.0	89.0	dot_pattern_expectancy	89.0	0.445	probe	AX	s556	False
454.413	0.5	454.412	0.5	AY	n/a	n/a	dot_pattern_expectancy	-1.0	n/a	cue	AY	s556	False
456.919	0.5	457.731	2.18	AY	1.0	71.0	dot_pattern_expectancy	71.0	0.812	probe	AY	s556	False
459.103	0.5	459.102	0.5	AX	n/a	n/a	dot_pattern_expectancy	-1.0	n/a	cue	AX	s556	False
461.609	0.5	462.43	1.5	AX	1.0	89.0	dot_pattern_expectancy	89.0	0.821	probe	AX	s556	False
463.112	0.5	463.111	0.5	AX	n/a	n/a	dot_pattern_expectancy	-1.0	n/a	cue	AX	s556	False
465.618	0.5	466.298	1.908	AX	1.0	89.0	dot_pattern_expectancy	89.0	0.68	probe	AX	s556	False
467.528	0.5	467.527	0.5	BY	n/a	n/a	dot_pattern_expectancy	-1.0	n/a	cue	BY	s556	False
470.034	0.5	470.491	1.636	BY	1.0	71.0	dot_pattern_expectancy	71.0	0.457	probe	BY	s556	False
471.672	0.5	471.671	0.5	BY	n/a	n/a	dot_pattern_expectancy	-1.0	n/a	cue	BY	s556	False
474.179	0.5	474.754	1.636	BY	1.0	71.0	dot_pattern_expectancy	71.0	0.575	probe	BY	s556	False
475.818	0.5	475.817	0.5	AX	n/a	n/a	dot_pattern_expectancy	-1.0	n/a	cue	AX	s556	False
478.323	0.5	478.788	1.636	AX	1.0	89.0	dot_pattern_expectancy	89.0	0.465	probe	AX	s556	False
479.96	0.5	479.959	0.5	AX	n/a	n/a	dot_pattern_expectancy	-1.0	n/a	cue	AX	s556	False
482.464	0.5	482.954	1.5	AX	1.0	89.0	dot_pattern_expectancy	89.0	0.49	probe	AX	s556	False
483.968	0.5	483.967	0.5	BY	n/a	n/a	dot_pattern_expectancy	-1.0	n/a	cue	BY	s556	False
486.473	0.5	486.771	2.044	BY	1.0	71.0	dot_pattern_expectancy	71.0	0.298	probe	BY	s556	False
488.521	0.5	488.52	0.5	AY	n/a	n/a	dot_pattern_expectancy	-1.0	n/a	cue	AY	s556	False
491.027	0.5	491.711	2.18	AY	1.0	71.0	dot_pattern_expectancy	71.0	0.684	probe	AY	s556	False
493.212	0.5	493.211	0.5	AY	n/a	n/a	dot_pattern_expectancy	-1.0	n/a	cue	AY	s556	False
495.715	0.5	496.876	1.636	AY	0.0	71.0	dot_pattern_expectancy	89.0	1.161	probe	AY	s556	False
497.356	0.5	497.355	0.5	AY	n/a	n/a	dot_pattern_expectancy	-1.0	n/a	cue	AY	s556	False
499.862	0.5	500.753	1.772	AY	1.0	71.0	dot_pattern_expectancy	71.0	0.891	probe	AY	s556	False
501.636	0.5	501.635	0.5	BY	n/a	n/a	dot_pattern_expectancy	-1.0	n/a	cue	BY	s556	False
504.145	0.5	504.477	1.5	BY	1.0	71.0	dot_pattern_expectancy	71.0	0.332	probe	BY	s556	False
505.65	0.5	505.649	0.5	BX	n/a	n/a	dot_pattern_expectancy	-1.0	n/a	cue	BX	s556	False
508.153	0.5	508.689	1.908	BX	1.0	71.0	dot_pattern_expectancy	71.0	0.536	probe	BX	s556	False
510.063	0.5	510.062	0.5	AX	n/a	n/a	dot_pattern_expectancy	-1.0	n/a	cue	AX	s556	False
512.566	0.5	513.132	2.044	AX	1.0	89.0	dot_pattern_expectancy	89.0	0.566	probe	AX	s556	False
514.612	0.5	514.611	0.5	AX	n/a	n/a	dot_pattern_expectancy	-1.0	n/a	cue	AX	s556	False
517.119	0.5	517.715	1.636	AX	1.0	89.0	dot_pattern_expectancy	89.0	0.596	probe	AX	s556	False
518.761	0.5	518.76	0.5	AX	n/a	n/a	dot_pattern_expectancy	-1.0	n/a	cue	AX	s556	False
521.271	0.5	521.715	1.772	AX	1.0	89.0	dot_pattern_expectancy	89.0	0.444	probe	AX	s556	False
523.044	0.5	523.043	0.5	AX	n/a	n/a	dot_pattern_expectancy	-1.0	n/a	cue	AX	s556	False
525.551	0.5	526.063	1.636	AX	1.0	89.0	dot_pattern_expectancy	89.0	0.512	probe	AX	s556	False
527.188	0.5	527.187	0.5	BX	n/a	n/a	dot_pattern_expectancy	-1.0	n/a	cue	BX	s556	False
529.696	0.5	529.919	1.772	BX	1.0	71.0	dot_pattern_expectancy	71.0	0.223	probe	BX	s556	False
531.471	0.5	531.47	0.5	AX	n/a	n/a	dot_pattern_expectancy	-1.0	n/a	cue	AX	s556	False
533.975	0.5	534.488	1.5	AX	0.0	89.0	dot_pattern_expectancy	71.0	0.513	probe	AX	s556	False
545.989	0.5	545.988	0.5	BY	n/a	n/a	dot_pattern_expectancy	-1.0	n/a	cue	BY	s556	False
548.496	0.5	549.037	1.636	BY	1.0	71.0	dot_pattern_expectancy	71.0	0.541	probe	BY	s556	False
550.133	0.5	550.132	0.5	AY	n/a	n/a	dot_pattern_expectancy	-1.0	n/a	cue	AY	s556	False
552.642	0.5	553.413	1.5	AY	1.0	71.0	dot_pattern_expectancy	71.0	0.771	probe	AY	s556	False
554.144	0.5	554.143	0.5	AX	n/a	n/a	dot_pattern_expectancy	-1.0	n/a	cue	AX	s556	False
556.652	0.5	557.321	2.044	AX	1.0	89.0	dot_pattern_expectancy	89.0	0.669	probe	AX	s556	False
558.699	0.5	558.698	0.5	BY	n/a	n/a	dot_pattern_expectancy	-1.0	n/a	cue	BY	s556	False
561.205	0.5	561.559	1.772	BY	1.0	71.0	dot_pattern_expectancy	71.0	0.354	probe	BY	s556	False
562.979	0.5	562.978	0.5	BX	n/a	n/a	dot_pattern_expectancy	-1.0	n/a	cue	BX	s556	False
565.483	0.5	566.099	1.636	BX	1.0	71.0	dot_pattern_expectancy	71.0	0.616	probe	BX	s556	False
567.122	0.5	567.121	0.5	AX	n/a	n/a	dot_pattern_expectancy	-1.0	n/a	cue	AX	s556	False
569.627	0.5	570.173	1.636	AX	1.0	89.0	dot_pattern_expectancy	89.0	0.546	probe	AX	s556	False
571.27	0.5	571.269	0.5	AX	n/a	n/a	dot_pattern_expectancy	-1.0	n/a	cue	AX	s556	False
573.774	0.5	574.351	1.5	AX	1.0	89.0	dot_pattern_expectancy	89.0	0.577	probe	AX	s556	False
575.279	0.5	575.278	0.5	AX	n/a	n/a	dot_pattern_expectancy	-1.0	n/a	cue	AX	s556	False
577.784	0.5	578.22	1.5	AX	1.0	89.0	dot_pattern_expectancy	89.0	0.436	probe	AX	s556	False
579.286	0.5	579.285	0.5	AY	n/a	n/a	dot_pattern_expectancy	-1.0	n/a	cue	AY	s556	False
581.796	0.5	582.394	2.044	AY	1.0	71.0	dot_pattern_expectancy	71.0	0.598	probe	AY	s556	False
583.846	0.5	583.845	0.5	AX	n/a	n/a	dot_pattern_expectancy	-1.0	n/a	cue	AX	s556	False
586.35	0.5	586.791	2.452	AX	1.0	89.0	dot_pattern_expectancy	89.0	0.441	probe	AX	s556	False
588.805	0.5	588.804	0.5	AX	n/a	n/a	dot_pattern_expectancy	-1.0	n/a	cue	AX	s556	False
591.308	0.5	591.783	1.908	AX	1.0	89.0	dot_pattern_expectancy	89.0	0.475	probe	AX	s556	False
593.219	0.5	593.218	0.5	AX	n/a	n/a	dot_pattern_expectancy	-1.0	n/a	cue	AX	s556	False
595.726	0.5	596.299	1.5	AX	1.0	89.0	dot_pattern_expectancy	89.0	0.573	probe	AX	s556	False
597.231	0.5	597.23	0.5	AX	n/a	n/a	dot_pattern_expectancy	-1.0	n/a	cue	AX	s556	False
599.734	0.5	600.284	1.908	AX	1.0	89.0	dot_pattern_expectancy	89.0	0.55	probe	AX	s556	False
601.644	0.5	601.643	0.5	BX	n/a	n/a	dot_pattern_expectancy	-1.0	n/a	cue	BX	s556	False
604.151	0.5	604.593	2.18	BX	1.0	71.0	dot_pattern_expectancy	71.0	0.442	probe	BX	s556	False
606.333	0.5	606.332	0.5	AX	n/a	n/a	dot_pattern_expectancy	-1.0	n/a	cue	AX	s556	False
608.839	0.5	609.374	1.5	AX	1.0	89.0	dot_pattern_expectancy	89.0	0.535	probe	AX	s556	False
610.343	0.5	610.342	0.5	BY	n/a	n/a	dot_pattern_expectancy	-1.0	n/a	cue	BY	s556	False
612.85	0.5	613.458	1.908	BY	1.0	71.0	dot_pattern_expectancy	71.0	0.608	probe	BY	s556	False
614.759	0.5	614.758	0.5	BX	n/a	n/a	dot_pattern_expectancy	-1.0	n/a	cue	BX	s556	False
617.266	0.5	617.56	2.316	BX	1.0	71.0	dot_pattern_expectancy	71.0	0.294	probe	BX	s556	False
619.586	0.5	619.585	0.5	AY	n/a	n/a	dot_pattern_expectancy	-1.0	n/a	cue	AY	s556	False
622.093	0.5	622.789	2.316	AY	1.0	71.0	dot_pattern_expectancy	71.0	0.696	probe	AY	s556	False
624.413	0.5	624.412	0.5	BX	n/a	n/a	dot_pattern_expectancy	-1.0	n/a	cue	BX	s556	False
626.919	0.5	627.143	1.636	BX	1.0	71.0	dot_pattern_expectancy	71.0	0.224	probe	BX	s556	False
628.557	0.5	628.556	0.5	AY	n/a	n/a	dot_pattern_expectancy	-1.0	n/a	cue	AY	s556	False
631.061	0.5	631.869	1.5	AY	1.0	71.0	dot_pattern_expectancy	71.0	0.808	probe	AY	s556	False
632.566	0.5	632.565	0.5	BY	n/a	n/a	dot_pattern_expectancy	-1.0	n/a	cue	BY	s556	False
635.073	0.5	635.608	1.908	BY	1.0	71.0	dot_pattern_expectancy	71.0	0.535	probe	BY	s556	False
636.985	0.5	636.984	0.5	AX	n/a	n/a	dot_pattern_expectancy	-1.0	n/a	cue	AX	s556	False
639.493	0.5	639.772	1.5	AX	1.0	89.0	dot_pattern_expectancy	89.0	0.279	probe	AX	s556	False
640.995	0.5	640.994	0.5	AY	n/a	n/a	dot_pattern_expectancy	-1.0	n/a	cue	AY	s556	False
643.504	0.5	644.17	2.316	AY	1.0	71.0	dot_pattern_expectancy	71.0	0.666	probe	AY	s556	False
645.822	0.5	645.821	0.5	AX	n/a	n/a	dot_pattern_expectancy	-1.0	n/a	cue	AX	s556	False
648.328	0.5	648.964	1.5	AX	1.0	89.0	dot_pattern_expectancy	89.0	0.636	probe	AX	s556	False
649.832	0.5	649.831	0.5	AY	n/a	n/a	dot_pattern_expectancy	-1.0	n/a	cue	AY	s556	False
652.344	0.5	653.05	2.724	AY	1.0	71.0	dot_pattern_expectancy	71.0	0.706	probe	AY	s556	False
655.07	0.5	655.069	0.5	AX	n/a	n/a	dot_pattern_expectancy	-1.0	n/a	cue	AX	s556	False
657.579	0.5	658.063	1.5	AX	1.0	89.0	dot_pattern_expectancy	89.0	0.484	probe	AX	s556	False
659.086	0.5	659.085	0.5	AX	n/a	n/a	dot_pattern_expectancy	-1.0	n/a	cue	AX	s556	False
661.593	0.5	662.933	1.636	AX	1.0	89.0	dot_pattern_expectancy	89.0	1.34	probe	AX	s556	False
663.23	0.5	663.229	0.5	AX	n/a	n/a	dot_pattern_expectancy	-1.0	n/a	cue	AX	s556	False
665.737	0.5	666.332	1.636	AX	1.0	89.0	dot_pattern_expectancy	89.0	0.595	probe	AX	s556	False
667.374	0.5	667.373	0.5	AX	n/a	n/a	dot_pattern_expectancy	-1.0	n/a	cue	AX	s556	False
669.883	0.5	670.37	1.772	AX	1.0	89.0	dot_pattern_expectancy	89.0	0.487	probe	AX	s556	False
671.662	0.5	671.661	0.5	BY	n/a	n/a	dot_pattern_expectancy	-1.0	n/a	cue	BY	s556	False
674.168	0.5	674.653	1.772	BY	1.0	71.0	dot_pattern_expectancy	71.0	0.485	probe	BY	s556	False
675.945	0.5	675.944	0.5	AX	n/a	n/a	dot_pattern_expectancy	-1.0	n/a	cue	AX	s556	False
678.454	0.5	678.905	1.5	AX	1.0	89.0	dot_pattern_expectancy	89.0	0.451	probe	AX	s556	False
679.956	0.5	679.955	0.5	BY	n/a	n/a	dot_pattern_expectancy	-1.0	n/a	cue	BY	s556	False
682.468	0.5	682.704	2.452	BY	1.0	71.0	dot_pattern_expectancy	71.0	0.236	probe	BY	s556	False
684.922	0.5	684.921	0.5	AX	n/a	n/a	dot_pattern_expectancy	-1.0	n/a	cue	AX	s556	False
687.43	0.5	688.01	1.636	AX	1.0	89.0	dot_pattern_expectancy	89.0	0.58	probe	AX	s556	False
689.071	0.5	689.07	0.5	AX	n/a	n/a	dot_pattern_expectancy	-1.0	n/a	cue	AX	s556	False
691.577	0.5	692.146	1.636	AX	1.0	89.0	dot_pattern_expectancy	89.0	0.569	probe	AX	s556	False
693.22	0.5	693.219	0.5	BX	n/a	n/a	dot_pattern_expectancy	-1.0	n/a	cue	BX	s556	False
695.724	0.5	697.208	1.5	BX	1.0	71.0	dot_pattern_expectancy	71.0	1.484	probe	BX	s556	False
697.226	0.5	697.225	0.5	BX	n/a	n/a	dot_pattern_expectancy	-1.0	n/a	cue	BX	s556	False
699.735	0.5	700.319	1.5	BX	1.0	71.0	dot_pattern_expectancy	71.0	0.584	probe	BX	s556	False
701.237	0.5	701.236	0.5	AX	n/a	n/a	dot_pattern_expectancy	-1.0	n/a	cue	AX	s556	False
703.746	0.5	704.169	2.316	AX	1.0	89.0	dot_pattern_expectancy	89.0	0.423	probe	AX	s556	False
706.066	0.5	706.065	0.5	AY	n/a	n/a	dot_pattern_expectancy	-1.0	n/a	cue	AY	s556	False
708.572	0.5	709.217	2.044	AY	1.0	71.0	dot_pattern_expectancy	71.0	0.645	probe	AY	s556	False
710.618	0.5	710.617	0.5	AX	n/a	n/a	dot_pattern_expectancy	-1.0	n/a	cue	AX	s556	False
713.128	0.5	713.94	3.948	AX	1.0	89.0	dot_pattern_expectancy	89.0	0.812	probe	AX	s556	False
717.079	0.5	717.078	0.5	AX	n/a	n/a	dot_pattern_expectancy	-1.0	n/a	cue	AX	s556	False
719.584	0.5	720.198	1.636	AX	1.0	89.0	dot_pattern_expectancy	89.0	0.614	probe	AX	s556	False
