onset	duration	movement_onset	CTI	block_duration	correct	correct_response	cue	cue_switch	experiment_exp_id	key_press	response_time	stim_color	stim_number	switch_type	task	task_switch	trial_id	trial_type	worker_id	first_trial_of_block	junk
4.411	1.0	5.898	0.9	2.136	True	89.0	Color	switch	twobytwo	89.0	0.587	orange	1.0	cue_switch	color	stay	stim	poldrack-single-stim	s556	1	False
7.453	1.0	8.993	0.9	2.272	True	89.0	High-Low	n/a	twobytwo	89.0	0.64	blue	2.0	task_switch	magnitude	switch	stim	poldrack-single-stim	s556	0	False
10.629	1.0	12.086	0.9	2.136	True	89.0	Color	n/a	twobytwo	89.0	0.557	orange	2.0	task_switch	color	switch	stim	poldrack-single-stim	s556	0	False
13.669	1.0	15.115	0.9	2.272	True	89.0	Color	stay	twobytwo	89.0	0.546	orange	8.0	cue_stay	color	stay	stim	poldrack-single-stim	s556	0	False
16.045	1.0	17.156	0.1	2.0	True	71.0	Magnitude	n/a	twobytwo	71.0	1.011	blue	9.0	task_switch	magnitude	switch	stim	poldrack-single-stim	s556	0	False
18.949	1.0	21.325	0.9	2.816	True	71.0	Magnitude	stay	twobytwo	71.0	1.476	orange	8.0	cue_stay	magnitude	stay	stim	poldrack-single-stim	s556	0	False
22.669	1.0	24.444	0.9	2.408	True	89.0	High-Low	switch	twobytwo	89.0	0.875	orange	4.0	cue_switch	magnitude	stay	stim	poldrack-single-stim	s556	0	False
25.981	1.0	27.412	0.9	2.0	True	71.0	High-Low	stay	twobytwo	71.0	0.531	blue	7.0	cue_stay	magnitude	stay	stim	poldrack-single-stim	s556	0	False
28.886	1.0	30.559	0.9	2.544	True	71.0	High-Low	stay	twobytwo	71.0	0.773	orange	9.0	cue_stay	magnitude	stay	stim	poldrack-single-stim	s556	0	False
31.536	1.0	32.426	0.1	2.136	True	89.0	Orange-Blue	n/a	twobytwo	89.0	0.79	orange	7.0	task_switch	color	switch	stim	poldrack-single-stim	s556	0	False
33.776	1.0	34.729	0.1	2.0	True	89.0	High-Low	n/a	twobytwo	89.0	0.853	orange	3.0	task_switch	magnitude	switch	stim	poldrack-single-stim	s556	0	False
35.881	1.0	36.778	0.1	2.0	True	71.0	High-Low	stay	twobytwo	71.0	0.797	blue	8.0	cue_stay	magnitude	stay	stim	poldrack-single-stim	s556	0	False
38.785	1.0	40.343	0.9	2.136	True	71.0	Magnitude	switch	twobytwo	71.0	0.658	blue	9.0	cue_switch	magnitude	stay	stim	poldrack-single-stim	s556	0	False
41.025	1.0	41.758	0.1	2.136	True	89.0	Magnitude	stay	twobytwo	89.0	0.633	blue	2.0	cue_stay	magnitude	stay	stim	poldrack-single-stim	s556	0	False
44.064	1.0	45.506	0.9	2.272	True	89.0	Orange-Blue	n/a	twobytwo	89.0	0.542	orange	7.0	task_switch	color	switch	stim	poldrack-single-stim	s556	0	False
47.241	1.0	49.243	0.9	3.224	True	89.0	Color	switch	twobytwo	89.0	1.102	orange	6.0	cue_switch	color	stay	stim	poldrack-single-stim	s556	0	False
50.569	1.0	51.681	0.1	2.0	True	89.0	Orange-Blue	switch	twobytwo	89.0	1.012	orange	2.0	cue_switch	color	stay	stim	poldrack-single-stim	s556	0	False
52.673	1.0	53.413	0.1	2.0	True	89.0	High-Low	n/a	twobytwo	89.0	0.64	blue	1.0	task_switch	magnitude	switch	stim	poldrack-single-stim	s556	0	False
54.777	1.0	55.863	0.1	2.272	True	89.0	Orange-Blue	n/a	twobytwo	89.0	0.986	orange	6.0	task_switch	color	switch	stim	poldrack-single-stim	s556	0	False
57.154	1.0	58.293	0.1	2.136	True	71.0	High-Low	n/a	twobytwo	71.0	1.039	blue	7.0	task_switch	magnitude	switch	stim	poldrack-single-stim	s556	0	False
59.396	1.0	60.61	0.1	2.0	True	89.0	Magnitude	switch	twobytwo	89.0	1.114	orange	4.0	cue_switch	magnitude	stay	stim	poldrack-single-stim	s556	0	False
61.5	1.0	62.207	0.1	2.0	True	71.0	Magnitude	stay	twobytwo	71.0	0.607	blue	9.0	cue_stay	magnitude	stay	stim	poldrack-single-stim	s556	0	False
64.403	1.0	66.076	0.9	2.0	True	71.0	Magnitude	stay	twobytwo	71.0	0.773	orange	6.0	cue_stay	magnitude	stay	stim	poldrack-single-stim	s556	0	False
66.508	1.0	67.243	0.1	2.68	True	89.0	Magnitude	stay	twobytwo	89.0	0.635	orange	2.0	cue_stay	magnitude	stay	stim	poldrack-single-stim	s556	0	False
70.092	1.0	71.583	0.9	2.0	True	89.0	Orange-Blue	n/a	twobytwo	89.0	0.591	orange	3.0	task_switch	color	switch	stim	poldrack-single-stim	s556	0	False
72.997	1.0	74.401	0.9	2.272	True	89.0	High-Low	n/a	twobytwo	89.0	0.504	orange	2.0	task_switch	magnitude	switch	stim	poldrack-single-stim	s556	0	False
75.372	1.0	76.478	0.1	2.0	True	71.0	Color	n/a	twobytwo	71.0	1.006	blue	9.0	task_switch	color	switch	stim	poldrack-single-stim	s556	0	False
77.477	1.0	78.426	0.1	2.272	True	89.0	Orange-Blue	switch	twobytwo	89.0	0.849	orange	8.0	cue_switch	color	stay	stim	poldrack-single-stim	s556	0	False
79.853	1.0	80.933	0.1	2.952	True	89.0	Color	switch	twobytwo	89.0	0.98	orange	7.0	cue_switch	color	stay	stim	poldrack-single-stim	s556	0	False
82.908	1.0	83.815	0.1	2.0	True	89.0	Magnitude	n/a	twobytwo	89.0	0.807	orange	3.0	task_switch	magnitude	switch	stim	poldrack-single-stim	s556	0	False
85.813	1.0	87.299	0.9	2.0	True	71.0	High-Low	switch	twobytwo	71.0	0.586	orange	6.0	cue_switch	magnitude	stay	stim	poldrack-single-stim	s556	0	False
88.717	1.0	90.02	0.9	2.0	True	71.0	Color	n/a	twobytwo	71.0	0.403	blue	4.0	task_switch	color	switch	stim	poldrack-single-stim	s556	0	False
91.621	1.0	93.286	0.9	2.0	True	89.0	Color	stay	twobytwo	89.0	0.765	orange	4.0	cue_stay	color	stay	stim	poldrack-single-stim	s556	0	False
94.525	1.0	95.942	0.9	2.136	True	89.0	Orange-Blue	switch	twobytwo	89.0	0.517	orange	3.0	cue_switch	color	stay	stim	poldrack-single-stim	s556	0	False
97.565	1.0	99.009	0.9	2.0	True	71.0	Magnitude	n/a	twobytwo	71.0	0.544	blue	8.0	task_switch	magnitude	switch	stim	poldrack-single-stim	s556	0	False
100.471	1.0	101.862	0.9	2.0	True	71.0	Color	n/a	twobytwo	71.0	0.491	blue	7.0	task_switch	color	switch	stim	poldrack-single-stim	s556	0	False
102.575	1.0	103.611	0.1	2.0	True	89.0	Orange-Blue	switch	twobytwo	89.0	0.936	orange	3.0	cue_switch	color	stay	stim	poldrack-single-stim	s556	0	False
105.48	1.0	106.858	0.9	2.272	True	71.0	High-Low	n/a	twobytwo	71.0	0.478	orange	9.0	task_switch	magnitude	switch	stim	poldrack-single-stim	s556	0	False
107.856	1.0	108.91	0.1	2.136	True	71.0	Orange-Blue	n/a	twobytwo	71.0	0.954	blue	3.0	task_switch	color	switch	stim	poldrack-single-stim	s556	0	False
110.896	1.0	112.296	0.9	2.0	True	71.0	Magnitude	n/a	twobytwo	71.0	0.5	blue	7.0	task_switch	magnitude	switch	stim	poldrack-single-stim	s556	0	False
113.801	1.0	115.28	0.9	2.136	True	89.0	Color	n/a	twobytwo	89.0	0.579	orange	1.0	task_switch	color	switch	stim	poldrack-single-stim	s556	0	False
116.84	1.0	118.258	0.9	2.816	True	89.0	High-Low	n/a	twobytwo	89.0	0.518	orange	3.0	task_switch	magnitude	switch	stim	poldrack-single-stim	s556	0	False
119.761	1.0	120.775	0.1	2.408	True	71.0	Magnitude	switch	twobytwo	71.0	0.914	orange	7.0	cue_switch	magnitude	stay	stim	poldrack-single-stim	s556	0	False
122.273	1.0	123.398	0.1	2.0	True	71.0	Orange-Blue	n/a	twobytwo	71.0	1.025	blue	8.0	task_switch	color	switch	stim	poldrack-single-stim	s556	0	False
124.377	1.0	125.72	0.1	2.136	True	71.0	High-Low	n/a	twobytwo	71.0	1.243	blue	8.0	task_switch	magnitude	switch	stim	poldrack-single-stim	s556	0	False
127.417	1.0	128.959	0.9	2.136	True	71.0	High-Low	stay	twobytwo	71.0	0.642	blue	8.0	cue_stay	magnitude	stay	stim	poldrack-single-stim	s556	0	False
130.457	1.0	131.94	0.9	2.136	True	89.0	Magnitude	switch	twobytwo	89.0	0.583	orange	4.0	cue_switch	magnitude	stay	stim	poldrack-single-stim	s556	0	False
133.497	1.0	134.925	0.9	2.544	True	71.0	Orange-Blue	n/a	twobytwo	71.0	0.528	blue	9.0	task_switch	color	switch	stim	poldrack-single-stim	s556	0	False
136.946	1.0	138.464	0.9	2.136	True	89.0	High-Low	n/a	twobytwo	89.0	0.618	orange	3.0	task_switch	magnitude	switch	stim	poldrack-single-stim	s556	0	False
139.987	1.0	141.364	0.9	2.0	True	89.0	Orange-Blue	n/a	twobytwo	89.0	0.477	orange	8.0	task_switch	color	switch	stim	poldrack-single-stim	s556	0	False
142.892	1.0	144.241	0.9	2.0	True	89.0	Magnitude	n/a	twobytwo	89.0	0.449	orange	4.0	task_switch	magnitude	switch	stim	poldrack-single-stim	s556	0	False
145.796	1.0	148.038	0.9	2.0	True	89.0	Magnitude	stay	twobytwo	89.0	1.342	blue	4.0	cue_stay	magnitude	stay	stim	poldrack-single-stim	s556	0	False
147.901	1.0	148.85	0.1	2.0	True	89.0	Color	n/a	twobytwo	89.0	0.849	orange	1.0	task_switch	color	switch	stim	poldrack-single-stim	s556	0	False
150.004	1.0	150.88	0.1	2.136	True	71.0	Magnitude	n/a	twobytwo	71.0	0.776	orange	8.0	task_switch	magnitude	switch	stim	poldrack-single-stim	s556	0	False
152.244	1.0	153.088	0.1	2.0	True	71.0	High-Low	switch	twobytwo	71.0	0.744	orange	8.0	cue_switch	magnitude	stay	stim	poldrack-single-stim	s556	0	False
155.149	1.0	156.587	0.9	2.0	True	89.0	Magnitude	switch	twobytwo	89.0	0.538	blue	4.0	cue_switch	magnitude	stay	stim	poldrack-single-stim	s556	0	False
158.052	1.0	159.39	0.9	2.0	True	89.0	Magnitude	stay	twobytwo	89.0	0.438	orange	4.0	cue_stay	magnitude	stay	stim	poldrack-single-stim	s556	0	False
160.957	1.0	162.292	0.9	2.136	True	89.0	Color	n/a	twobytwo	89.0	0.435	orange	1.0	task_switch	color	switch	stim	poldrack-single-stim	s556	0	False
163.199	1.0	163.999	0.1	2.136	True	89.0	Magnitude	n/a	twobytwo	89.0	0.7	orange	4.0	task_switch	magnitude	switch	stim	poldrack-single-stim	s556	0	False
165.439	1.0	166.186	0.1	2.136	True	89.0	Magnitude	stay	twobytwo	89.0	0.647	orange	2.0	cue_stay	magnitude	stay	stim	poldrack-single-stim	s556	0	False
167.678	1.0	168.447	0.1	2.136	True	71.0	Color	n/a	twobytwo	71.0	0.669	blue	2.0	task_switch	color	switch	stim	poldrack-single-stim	s556	0	False
169.919	1.0	170.963	0.1	2.68	False	71.0	Color	stay	twobytwo	89.0	0.944	blue	1.0	cue_stay	color	stay	stim	poldrack-single-stim	s556	0	False
172.704	1.0	174.446	0.1	2.544	True	71.0	Orange-Blue	switch	twobytwo	71.0	1.642	blue	7.0	cue_switch	color	stay	stim	poldrack-single-stim	s556	0	False
175.352	1.0	176.295	0.1	2.272	True	71.0	Color	switch	twobytwo	71.0	0.843	blue	9.0	cue_switch	color	stay	stim	poldrack-single-stim	s556	0	False
178.528	1.0	180.047	0.9	2.272	True	89.0	Orange-Blue	switch	twobytwo	89.0	0.619	orange	1.0	cue_switch	color	stay	stim	poldrack-single-stim	s556	0	False
181.704	1.0	183.698	0.9	2.408	True	89.0	High-Low	n/a	twobytwo	89.0	1.094	blue	2.0	task_switch	magnitude	switch	stim	poldrack-single-stim	s556	0	False
184.217	1.0	184.998	0.1	2.136	True	71.0	High-Low	stay	twobytwo	71.0	0.681	blue	9.0	cue_stay	magnitude	stay	stim	poldrack-single-stim	s556	0	False
187.258	1.0	188.752	0.9	2.272	True	89.0	Orange-Blue	n/a	twobytwo	89.0	0.594	orange	4.0	task_switch	color	switch	stim	poldrack-single-stim	s556	0	False
189.635	1.0	190.579	0.1	2.0	True	71.0	Color	switch	twobytwo	71.0	0.844	blue	4.0	cue_switch	color	stay	stim	poldrack-single-stim	s556	0	False
192.538	1.0	194.453	0.9	2.136	True	71.0	Orange-Blue	switch	twobytwo	71.0	1.015	blue	1.0	cue_switch	color	stay	stim	poldrack-single-stim	s556	0	False
195.578	1.0	196.996	0.9	2.272	True	71.0	Orange-Blue	stay	twobytwo	71.0	0.518	blue	4.0	cue_stay	color	stay	stim	poldrack-single-stim	s556	0	False
197.955	1.0	199.007	0.1	2.0	True	71.0	Magnitude	n/a	twobytwo	71.0	0.952	blue	7.0	task_switch	magnitude	switch	stim	poldrack-single-stim	s556	0	False
200.059	1.0	201.042	0.1	2.68	False	71.0	Orange-Blue	n/a	twobytwo	89.0	0.883	blue	4.0	task_switch	color	switch	stim	poldrack-single-stim	s556	0	False
202.843	1.0	203.795	0.1	2.0	True	89.0	Color	switch	twobytwo	89.0	0.852	orange	4.0	cue_switch	color	stay	stim	poldrack-single-stim	s556	0	False
204.948	1.0	205.804	0.1	2.0	True	89.0	High-Low	n/a	twobytwo	89.0	0.756	blue	2.0	task_switch	magnitude	switch	stim	poldrack-single-stim	s556	0	False
207.852	1.0	209.327	0.9	2.0	True	89.0	High-Low	stay	twobytwo	89.0	0.575	blue	1.0	cue_stay	magnitude	stay	stim	poldrack-single-stim	s556	0	False
209.956	1.0	211.313	0.1	2.272	True	89.0	Orange-Blue	n/a	twobytwo	89.0	1.257	orange	2.0	task_switch	color	switch	stim	poldrack-single-stim	s556	0	False
212.332	1.0	213.188	0.1	2.0	True	71.0	Magnitude	n/a	twobytwo	71.0	0.756	blue	7.0	task_switch	magnitude	switch	stim	poldrack-single-stim	s556	0	False
215.238	1.0	216.615	0.9	2.0	True	89.0	Color	n/a	twobytwo	89.0	0.477	orange	4.0	task_switch	color	switch	stim	poldrack-single-stim	s556	0	False
217.342	1.0	218.257	0.1	2.0	True	71.0	Magnitude	n/a	twobytwo	71.0	0.815	blue	8.0	task_switch	magnitude	switch	stim	poldrack-single-stim	s556	0	False
233.756	1.0	235.129	0.9	2.68	True	89.0	High-Low	switch	twobytwo	89.0	0.473	orange	1.0	cue_switch	magnitude	stay	stim	poldrack-single-stim	s556	1	False
237.34	1.0	239.448	0.9	2.0	True	71.0	Orange-Blue	n/a	twobytwo	71.0	1.208	blue	2.0	task_switch	color	switch	stim	poldrack-single-stim	s556	0	False
240.245	1.0	242.048	0.9	2.136	True	89.0	Magnitude	n/a	twobytwo	89.0	0.903	orange	2.0	task_switch	magnitude	switch	stim	poldrack-single-stim	s556	0	False
243.286	1.0	244.857	0.9	2.408	True	71.0	Magnitude	stay	twobytwo	71.0	0.671	orange	8.0	cue_stay	magnitude	stay	stim	poldrack-single-stim	s556	0	False
245.799	1.0	246.758	0.1	2.136	True	71.0	Orange-Blue	n/a	twobytwo	71.0	0.859	blue	9.0	task_switch	color	switch	stim	poldrack-single-stim	s556	0	False
248.839	1.0	250.496	0.9	2.0	True	89.0	Orange-Blue	stay	twobytwo	89.0	0.757	orange	8.0	cue_stay	color	stay	stim	poldrack-single-stim	s556	0	False
251.744	1.0	253.129	0.9	2.0	True	89.0	Color	switch	twobytwo	89.0	0.485	orange	4.0	cue_switch	color	stay	stim	poldrack-single-stim	s556	0	False
254.648	1.0	256.094	0.9	2.544	True	71.0	Color	stay	twobytwo	71.0	0.546	blue	7.0	cue_stay	color	stay	stim	poldrack-single-stim	s556	0	False
258.097	1.0	259.596	0.9	2.136	False	89.0	Color	stay	twobytwo	71.0	0.599	orange	9.0	cue_stay	color	stay	stim	poldrack-single-stim	s556	0	False
260.336	1.0	261.461	0.1	2.544	True	71.0	High-Low	n/a	twobytwo	71.0	1.025	orange	7.0	task_switch	magnitude	switch	stim	poldrack-single-stim	s556	0	False
262.984	1.0	264.38	0.1	2.68	True	89.0	Orange-Blue	n/a	twobytwo	89.0	1.296	orange	3.0	task_switch	color	switch	stim	poldrack-single-stim	s556	0	False
265.768	1.0	266.787	0.1	2.0	True	71.0	Orange-Blue	stay	twobytwo	71.0	0.919	blue	8.0	cue_stay	color	stay	stim	poldrack-single-stim	s556	0	False
268.672	1.0	270.155	0.9	2.272	True	71.0	Color	switch	twobytwo	71.0	0.583	blue	9.0	cue_switch	color	stay	stim	poldrack-single-stim	s556	0	False
271.047	1.0	272.082	0.1	3.088	True	71.0	Color	stay	twobytwo	71.0	0.935	blue	2.0	cue_stay	color	stay	stim	poldrack-single-stim	s556	0	False
275.041	1.0	276.556	0.9	2.0	True	71.0	Magnitude	n/a	twobytwo	71.0	0.615	orange	7.0	task_switch	magnitude	switch	stim	poldrack-single-stim	s556	0	False
277.946	1.0	279.43	0.9	2.136	True	71.0	High-Low	switch	twobytwo	71.0	0.584	orange	6.0	cue_switch	magnitude	stay	stim	poldrack-single-stim	s556	0	False
280.185	1.0	281.122	0.1	2.136	True	89.0	Magnitude	switch	twobytwo	89.0	0.837	orange	2.0	cue_switch	magnitude	stay	stim	poldrack-single-stim	s556	0	False
282.424	1.0	283.522	0.1	2.0	False	71.0	Color	n/a	twobytwo	89.0	0.998	blue	1.0	task_switch	color	switch	stim	poldrack-single-stim	s556	0	False
284.529	1.0	285.592	0.1	2.272	True	71.0	High-Low	n/a	twobytwo	71.0	0.963	orange	6.0	task_switch	magnitude	switch	stim	poldrack-single-stim	s556	0	False
286.905	1.0	288.193	0.1	2.0	True	71.0	Color	n/a	twobytwo	71.0	1.188	blue	7.0	task_switch	color	switch	stim	poldrack-single-stim	s556	0	False
289.009	1.0	290.039	0.1	2.136	True	89.0	Orange-Blue	switch	twobytwo	89.0	0.93	orange	4.0	cue_switch	color	stay	stim	poldrack-single-stim	s556	0	False
291.251	1.0	292.035	0.1	2.136	True	71.0	Orange-Blue	stay	twobytwo	71.0	0.684	blue	9.0	cue_stay	color	stay	stim	poldrack-single-stim	s556	0	False
294.292	1.0	296.031	0.9	2.544	True	89.0	Orange-Blue	stay	twobytwo	89.0	0.839	orange	6.0	cue_stay	color	stay	stim	poldrack-single-stim	s556	0	False
296.94	1.0	297.729	0.1	2.0	True	89.0	Orange-Blue	stay	twobytwo	89.0	0.689	orange	2.0	cue_stay	color	stay	stim	poldrack-single-stim	s556	0	False
299.843	1.0	301.303	0.9	2.136	True	89.0	Magnitude	n/a	twobytwo	89.0	0.56	orange	3.0	task_switch	magnitude	switch	stim	poldrack-single-stim	s556	0	False
302.884	1.0	304.35	0.9	2.136	True	89.0	Orange-Blue	n/a	twobytwo	89.0	0.566	orange	2.0	task_switch	color	switch	stim	poldrack-single-stim	s556	0	False
305.124	1.0	306.184	0.1	2.136	True	71.0	High-Low	n/a	twobytwo	71.0	0.96	blue	9.0	task_switch	magnitude	switch	stim	poldrack-single-stim	s556	0	False
307.363	1.0	308.136	0.1	2.0	True	71.0	Magnitude	switch	twobytwo	71.0	0.673	orange	8.0	cue_switch	magnitude	stay	stim	poldrack-single-stim	s556	0	False
309.469	1.0	310.101	0.1	2.136	True	71.0	High-Low	switch	twobytwo	71.0	0.532	orange	7.0	cue_switch	magnitude	stay	stim	poldrack-single-stim	s556	0	False
311.71	1.0	312.808	0.1	2.0	True	89.0	Color	n/a	twobytwo	89.0	0.998	orange	3.0	task_switch	color	switch	stim	poldrack-single-stim	s556	0	False
314.615	1.0	316.045	0.9	2.136	True	89.0	Orange-Blue	switch	twobytwo	89.0	0.53	orange	6.0	cue_switch	color	stay	stim	poldrack-single-stim	s556	0	False
317.655	1.0	319.286	0.9	2.816	True	89.0	High-Low	n/a	twobytwo	89.0	0.731	blue	4.0	task_switch	magnitude	switch	stim	poldrack-single-stim	s556	0	False
321.375	1.0	322.756	0.9	2.136	True	89.0	High-Low	stay	twobytwo	89.0	0.481	orange	4.0	cue_stay	magnitude	stay	stim	poldrack-single-stim	s556	0	False
324.415	1.0	326.244	0.9	2.0	True	89.0	Magnitude	switch	twobytwo	89.0	0.929	orange	3.0	cue_switch	magnitude	stay	stim	poldrack-single-stim	s556	0	False
327.319	1.0	328.652	0.9	2.0	True	71.0	Color	n/a	twobytwo	71.0	0.433	blue	8.0	task_switch	color	switch	stim	poldrack-single-stim	s556	0	False
330.225	1.0	331.748	0.9	2.272	True	71.0	Magnitude	n/a	twobytwo	71.0	0.623	blue	7.0	task_switch	magnitude	switch	stim	poldrack-single-stim	s556	0	False
332.602	1.0	333.843	0.1	2.0	True	89.0	High-Low	switch	twobytwo	89.0	1.141	orange	3.0	cue_switch	magnitude	stay	stim	poldrack-single-stim	s556	0	False
335.506	1.0	337.209	0.9	2.0	True	89.0	Color	n/a	twobytwo	89.0	0.803	orange	9.0	task_switch	color	switch	stim	poldrack-single-stim	s556	0	False
337.61	1.0	338.779	0.1	2.0	True	89.0	Magnitude	n/a	twobytwo	89.0	1.069	blue	3.0	task_switch	magnitude	switch	stim	poldrack-single-stim	s556	0	False
340.515	1.0	342.047	0.9	2.408	True	71.0	Orange-Blue	n/a	twobytwo	71.0	0.632	blue	7.0	task_switch	color	switch	stim	poldrack-single-stim	s556	0	False
343.828	1.0	345.316	0.9	2.272	True	89.0	Magnitude	n/a	twobytwo	89.0	0.588	orange	1.0	task_switch	magnitude	switch	stim	poldrack-single-stim	s556	0	False
347.005	1.0	348.564	0.9	2.136	True	89.0	Color	n/a	twobytwo	89.0	0.659	orange	3.0	task_switch	color	switch	stim	poldrack-single-stim	s556	0	False
349.246	1.0	350.042	0.1	2.0	True	89.0	Orange-Blue	switch	twobytwo	89.0	0.696	orange	7.0	cue_switch	color	stay	stim	poldrack-single-stim	s556	0	False
351.35	1.0	352.397	0.1	2.0	True	71.0	High-Low	n/a	twobytwo	71.0	0.947	blue	8.0	task_switch	magnitude	switch	stim	poldrack-single-stim	s556	0	False
353.454	1.0	354.5	0.1	2.136	True	71.0	Orange-Blue	n/a	twobytwo	71.0	0.946	blue	8.0	task_switch	color	switch	stim	poldrack-single-stim	s556	0	False
356.495	1.0	357.851	0.9	2.0	True	71.0	Orange-Blue	stay	twobytwo	71.0	0.456	blue	8.0	cue_stay	color	stay	stim	poldrack-single-stim	s556	0	False
359.4	1.0	360.891	0.9	2.136	True	89.0	Color	switch	twobytwo	89.0	0.591	orange	4.0	cue_switch	color	stay	stim	poldrack-single-stim	s556	0	False
362.441	1.0	364.025	0.9	2.408	True	71.0	High-Low	n/a	twobytwo	71.0	0.684	blue	9.0	task_switch	magnitude	switch	stim	poldrack-single-stim	s556	0	False
365.754	1.0	367.354	0.9	2.136	True	89.0	Color	n/a	twobytwo	89.0	0.7	orange	3.0	task_switch	color	switch	stim	poldrack-single-stim	s556	0	False
368.795	1.0	370.445	0.9	2.0	True	71.0	High-Low	n/a	twobytwo	71.0	0.75	orange	8.0	task_switch	magnitude	switch	stim	poldrack-single-stim	s556	0	False
371.7	1.0	373.264	0.9	2.136	True	89.0	Orange-Blue	n/a	twobytwo	89.0	0.664	orange	4.0	task_switch	color	switch	stim	poldrack-single-stim	s556	0	False
374.742	1.0	375.973	0.9	2.272	True	71.0	Orange-Blue	stay	twobytwo	71.0	0.331	blue	4.0	cue_stay	color	stay	stim	poldrack-single-stim	s556	0	False
377.117	1.0	377.758	0.1	2.0	True	89.0	High-Low	n/a	twobytwo	89.0	0.541	orange	1.0	task_switch	magnitude	switch	stim	poldrack-single-stim	s556	0	False
379.222	1.0	380.293	0.1	2.408	True	89.0	Orange-Blue	n/a	twobytwo	89.0	0.971	orange	8.0	task_switch	color	switch	stim	poldrack-single-stim	s556	0	False
381.734	1.0	383.07	0.1	2.0	True	89.0	Color	switch	twobytwo	89.0	1.236	orange	8.0	cue_switch	color	stay	stim	poldrack-single-stim	s556	0	False
384.64	1.0	385.936	0.9	2.136	True	71.0	Orange-Blue	switch	twobytwo	71.0	0.396	blue	4.0	cue_switch	color	stay	stim	poldrack-single-stim	s556	0	False
387.68	1.0	389.211	0.9	2.408	True	89.0	Orange-Blue	stay	twobytwo	89.0	0.631	orange	4.0	cue_stay	color	stay	stim	poldrack-single-stim	s556	0	False
390.994	1.0	392.358	0.9	2.136	True	89.0	Magnitude	n/a	twobytwo	89.0	0.464	orange	1.0	task_switch	magnitude	switch	stim	poldrack-single-stim	s556	0	False
393.233	1.0	394.215	0.1	2.408	True	89.0	Color	n/a	twobytwo	89.0	0.882	orange	4.0	task_switch	color	switch	stim	poldrack-single-stim	s556	0	False
395.745	1.0	396.561	0.1	2.136	True	89.0	Color	stay	twobytwo	89.0	0.716	orange	2.0	cue_stay	color	stay	stim	poldrack-single-stim	s556	0	False
397.985	1.0	399.234	0.1	2.0	True	89.0	High-Low	n/a	twobytwo	89.0	1.149	blue	2.0	task_switch	magnitude	switch	stim	poldrack-single-stim	s556	0	False
400.09	1.0	401.092	0.1	2.272	True	89.0	High-Low	stay	twobytwo	89.0	0.902	blue	1.0	cue_stay	magnitude	stay	stim	poldrack-single-stim	s556	0	False
402.465	1.0	403.649	0.1	2.0	True	71.0	Magnitude	switch	twobytwo	71.0	1.084	blue	7.0	cue_switch	magnitude	stay	stim	poldrack-single-stim	s556	0	False
404.569	1.0	405.461	0.1	2.272	True	71.0	High-Low	switch	twobytwo	71.0	0.792	blue	9.0	cue_switch	magnitude	stay	stim	poldrack-single-stim	s556	0	False
407.745	1.0	409.312	0.9	2.272	True	89.0	Magnitude	switch	twobytwo	89.0	0.667	orange	1.0	cue_switch	magnitude	stay	stim	poldrack-single-stim	s556	0	False
410.922	1.0	412.185	0.9	2.952	True	71.0	Color	n/a	twobytwo	71.0	0.363	blue	2.0	task_switch	color	switch	stim	poldrack-single-stim	s556	0	False
413.979	1.0	414.801	0.1	2.68	True	71.0	Color	stay	twobytwo	71.0	0.722	blue	9.0	cue_stay	color	stay	stim	poldrack-single-stim	s556	0	False
417.563	1.0	419.268	0.9	2.136	True	89.0	Magnitude	n/a	twobytwo	89.0	0.805	orange	4.0	task_switch	magnitude	switch	stim	poldrack-single-stim	s556	0	False
419.802	1.0	421.008	0.1	2.272	True	89.0	High-Low	switch	twobytwo	89.0	1.106	blue	4.0	cue_switch	magnitude	stay	stim	poldrack-single-stim	s556	0	False
422.98	1.0	424.55	0.9	2.272	True	89.0	Magnitude	switch	twobytwo	89.0	0.67	blue	1.0	cue_switch	magnitude	stay	stim	poldrack-single-stim	s556	0	False
426.155	1.0	427.652	0.9	2.136	True	89.0	Magnitude	stay	twobytwo	89.0	0.597	blue	4.0	cue_stay	magnitude	stay	stim	poldrack-single-stim	s556	0	False
428.397	1.0	429.763	0.1	2.408	True	71.0	Orange-Blue	n/a	twobytwo	71.0	1.266	blue	7.0	task_switch	color	switch	stim	poldrack-single-stim	s556	0	False
430.908	1.0	432.056	0.1	2.136	True	89.0	High-Low	n/a	twobytwo	89.0	1.048	blue	4.0	task_switch	magnitude	switch	stim	poldrack-single-stim	s556	0	False
433.149	1.0	434.198	0.1	2.136	True	89.0	Magnitude	switch	twobytwo	89.0	0.949	orange	4.0	cue_switch	magnitude	stay	stim	poldrack-single-stim	s556	0	False
435.389	1.0	436.346	0.1	2.0	True	71.0	Color	n/a	twobytwo	71.0	0.857	blue	2.0	task_switch	color	switch	stim	poldrack-single-stim	s556	0	False
438.294	1.0	440.245	0.9	2.0	True	71.0	Color	stay	twobytwo	71.0	1.051	blue	1.0	cue_stay	color	stay	stim	poldrack-single-stim	s556	0	False
440.397	1.0	441.396	0.1	2.0	True	89.0	Magnitude	n/a	twobytwo	89.0	0.899	orange	2.0	task_switch	magnitude	switch	stim	poldrack-single-stim	s556	0	False
442.502	1.0	443.468	0.1	2.0	True	71.0	Color	n/a	twobytwo	71.0	0.866	blue	7.0	task_switch	color	switch	stim	poldrack-single-stim	s556	0	False
445.406	1.0	446.854	0.9	2.0	True	89.0	High-Low	n/a	twobytwo	89.0	0.548	orange	4.0	task_switch	magnitude	switch	stim	poldrack-single-stim	s556	0	False
447.51	1.0	448.707	0.1	2.272	True	71.0	Color	n/a	twobytwo	71.0	1.097	blue	8.0	task_switch	color	switch	stim	poldrack-single-stim	s556	0	False
464.194	1.0	465.611	0.9	2.408	True	89.0	High-Low	switch	twobytwo	89.0	0.517	orange	1.0	cue_switch	magnitude	stay	stim	poldrack-single-stim	s556	1	False
467.507	1.0	468.9	0.9	2.0	True	71.0	Orange-Blue	n/a	twobytwo	71.0	0.493	blue	2.0	task_switch	color	switch	stim	poldrack-single-stim	s556	0	False
470.411	1.0	471.808	0.9	2.136	True	89.0	Magnitude	n/a	twobytwo	89.0	0.497	orange	2.0	task_switch	magnitude	switch	stim	poldrack-single-stim	s556	0	False
473.451	1.0	474.908	0.9	2.0	True	71.0	Magnitude	stay	twobytwo	71.0	0.557	orange	8.0	cue_stay	magnitude	stay	stim	poldrack-single-stim	s556	0	False
475.556	1.0	476.575	0.1	2.136	True	71.0	Orange-Blue	n/a	twobytwo	71.0	0.919	blue	9.0	task_switch	color	switch	stim	poldrack-single-stim	s556	0	False
478.597	1.0	480.149	0.9	2.544	True	89.0	Orange-Blue	stay	twobytwo	89.0	0.652	orange	8.0	cue_stay	color	stay	stim	poldrack-single-stim	s556	0	False
482.046	1.0	483.533	0.9	2.68	True	89.0	Color	switch	twobytwo	89.0	0.587	orange	4.0	cue_switch	color	stay	stim	poldrack-single-stim	s556	0	False
485.631	1.0	486.921	0.9	3.088	True	71.0	Color	stay	twobytwo	71.0	0.39	blue	7.0	cue_stay	color	stay	stim	poldrack-single-stim	s556	0	False
489.623	1.0	491.058	0.9	2.136	True	89.0	Color	stay	twobytwo	89.0	0.535	orange	9.0	cue_stay	color	stay	stim	poldrack-single-stim	s556	0	False
491.862	1.0	492.943	0.1	2.544	True	71.0	High-Low	n/a	twobytwo	71.0	0.981	orange	7.0	task_switch	magnitude	switch	stim	poldrack-single-stim	s556	0	False
494.511	1.0	495.599	0.1	2.0	True	89.0	Orange-Blue	n/a	twobytwo	89.0	0.988	orange	3.0	task_switch	color	switch	stim	poldrack-single-stim	s556	0	False
496.616	1.0	497.506	0.1	2.136	True	71.0	Orange-Blue	stay	twobytwo	71.0	0.79	blue	8.0	cue_stay	color	stay	stim	poldrack-single-stim	s556	0	False
499.656	1.0	501.064	0.9	2.0	True	71.0	Color	switch	twobytwo	71.0	0.508	blue	9.0	cue_switch	color	stay	stim	poldrack-single-stim	s556	0	False
501.759	1.0	502.493	0.1	2.408	True	71.0	Color	stay	twobytwo	71.0	0.634	blue	2.0	cue_stay	color	stay	stim	poldrack-single-stim	s556	0	False
505.07	1.0	506.623	0.9	2.0	True	71.0	High-Low	n/a	twobytwo	71.0	0.653	orange	7.0	task_switch	magnitude	switch	stim	poldrack-single-stim	s556	0	False
507.975	1.0	509.625	0.9	2.0	True	71.0	Magnitude	switch	twobytwo	71.0	0.75	orange	6.0	cue_switch	magnitude	stay	stim	poldrack-single-stim	s556	0	False
510.08	1.0	511.049	0.1	2.0	True	89.0	High-Low	switch	twobytwo	89.0	0.869	orange	2.0	cue_switch	magnitude	stay	stim	poldrack-single-stim	s556	0	False
512.185	1.0	513.194	0.1	2.68	True	71.0	Color	n/a	twobytwo	71.0	0.909	blue	1.0	task_switch	color	switch	stim	poldrack-single-stim	s556	0	False
514.97	1.0	515.95	0.1	2.272	True	71.0	High-Low	n/a	twobytwo	71.0	0.88	orange	6.0	task_switch	magnitude	switch	stim	poldrack-single-stim	s556	0	False
517.346	1.0	518.146	0.1	2.408	True	71.0	Orange-Blue	n/a	twobytwo	71.0	0.7	blue	7.0	task_switch	color	switch	stim	poldrack-single-stim	s556	0	False
519.858	1.0	521.262	0.1	3.224	True	89.0	Color	switch	twobytwo	89.0	1.304	orange	4.0	cue_switch	color	stay	stim	poldrack-single-stim	s556	0	False
523.186	1.0	523.93	0.1	2.408	True	71.0	Color	stay	twobytwo	71.0	0.644	blue	9.0	cue_stay	color	stay	stim	poldrack-single-stim	s556	0	False
526.499	1.0	527.777	0.9	2.816	True	89.0	Color	stay	twobytwo	89.0	0.378	orange	6.0	cue_stay	color	stay	stim	poldrack-single-stim	s556	0	False
529.419	1.0	530.132	0.1	2.408	True	89.0	Color	stay	twobytwo	89.0	0.613	orange	2.0	cue_stay	color	stay	stim	poldrack-single-stim	s556	0	False
532.731	1.0	534.148	0.9	2.136	True	89.0	Magnitude	n/a	twobytwo	89.0	0.517	orange	3.0	task_switch	magnitude	switch	stim	poldrack-single-stim	s556	0	False
535.771	1.0	537.064	0.9	2.136	True	89.0	Color	n/a	twobytwo	89.0	0.393	orange	2.0	task_switch	color	switch	stim	poldrack-single-stim	s556	0	False
538.011	1.0	538.853	0.1	2.0	True	71.0	High-Low	n/a	twobytwo	71.0	0.742	blue	9.0	task_switch	magnitude	switch	stim	poldrack-single-stim	s556	0	False
540.116	1.0	541.162	0.1	2.0	True	71.0	Magnitude	switch	twobytwo	71.0	0.946	orange	8.0	cue_switch	magnitude	stay	stim	poldrack-single-stim	s556	0	False
542.219	1.0	543.128	0.1	2.272	True	71.0	High-Low	switch	twobytwo	71.0	0.809	orange	7.0	cue_switch	magnitude	stay	stim	poldrack-single-stim	s556	0	False
544.596	1.0	545.799	0.1	2.408	True	89.0	Orange-Blue	n/a	twobytwo	89.0	1.103	orange	3.0	task_switch	color	switch	stim	poldrack-single-stim	s556	0	False
547.908	1.0	550.065	0.9	2.0	True	89.0	Color	switch	twobytwo	89.0	1.257	orange	6.0	cue_switch	color	stay	stim	poldrack-single-stim	s556	0	False
550.811	1.0	552.883	0.9	2.136	True	89.0	High-Low	n/a	twobytwo	89.0	1.172	blue	4.0	task_switch	magnitude	switch	stim	poldrack-single-stim	s556	0	False
553.851	1.0	555.321	0.9	2.0	True	89.0	High-Low	stay	twobytwo	89.0	0.57	orange	4.0	cue_stay	magnitude	stay	stim	poldrack-single-stim	s556	0	False
556.756	1.0	558.124	0.9	2.408	True	89.0	Magnitude	switch	twobytwo	89.0	0.468	orange	3.0	cue_switch	magnitude	stay	stim	poldrack-single-stim	s556	0	False
560.068	1.0	561.489	0.9	2.272	True	71.0	Color	n/a	twobytwo	71.0	0.521	blue	8.0	task_switch	color	switch	stim	poldrack-single-stim	s556	0	False
563.244	1.0	564.949	0.9	2.0	True	71.0	High-Low	n/a	twobytwo	71.0	0.805	blue	7.0	task_switch	magnitude	switch	stim	poldrack-single-stim	s556	0	False
565.348	1.0	566.167	0.1	2.272	True	89.0	Magnitude	switch	twobytwo	89.0	0.719	orange	3.0	cue_switch	magnitude	stay	stim	poldrack-single-stim	s556	0	False
568.523	1.0	569.944	0.9	2.0	True	89.0	Color	n/a	twobytwo	89.0	0.521	orange	9.0	task_switch	color	switch	stim	poldrack-single-stim	s556	0	False
570.628	1.0	571.601	0.1	2.0	True	89.0	Magnitude	n/a	twobytwo	89.0	0.873	blue	3.0	task_switch	magnitude	switch	stim	poldrack-single-stim	s556	0	False
573.532	1.0	575.844	0.9	2.272	True	71.0	Orange-Blue	n/a	twobytwo	71.0	1.412	blue	7.0	task_switch	color	switch	stim	poldrack-single-stim	s556	0	False
576.71	1.0	578.285	0.9	2.136	True	89.0	High-Low	n/a	twobytwo	89.0	0.675	orange	1.0	task_switch	magnitude	switch	stim	poldrack-single-stim	s556	0	False
579.75	1.0	581.132	0.9	2.0	True	89.0	Color	n/a	twobytwo	89.0	0.482	orange	3.0	task_switch	color	switch	stim	poldrack-single-stim	s556	0	False
581.855	1.0	582.906	0.1	2.0	True	89.0	Orange-Blue	switch	twobytwo	89.0	0.951	orange	7.0	cue_switch	color	stay	stim	poldrack-single-stim	s556	0	False
583.959	1.0	584.942	0.1	2.0	True	71.0	High-Low	n/a	twobytwo	71.0	0.883	blue	8.0	task_switch	magnitude	switch	stim	poldrack-single-stim	s556	0	False
586.064	1.0	587.305	0.1	2.0	True	71.0	Orange-Blue	n/a	twobytwo	71.0	1.141	blue	8.0	task_switch	color	switch	stim	poldrack-single-stim	s556	0	False
588.968	1.0	590.594	0.9	2.0	True	71.0	Orange-Blue	stay	twobytwo	71.0	0.726	blue	8.0	cue_stay	color	stay	stim	poldrack-single-stim	s556	0	False
591.872	1.0	593.283	0.9	2.136	True	89.0	Color	switch	twobytwo	89.0	0.511	orange	4.0	cue_switch	color	stay	stim	poldrack-single-stim	s556	0	False
594.914	1.0	596.502	0.9	2.0	True	71.0	Magnitude	n/a	twobytwo	71.0	0.688	blue	9.0	task_switch	magnitude	switch	stim	poldrack-single-stim	s556	0	False
597.818	1.0	599.302	0.9	2.0	True	89.0	Orange-Blue	n/a	twobytwo	89.0	0.584	orange	3.0	task_switch	color	switch	stim	poldrack-single-stim	s556	0	False
600.723	1.0	602.425	0.9	2.136	True	71.0	High-Low	n/a	twobytwo	71.0	0.802	orange	8.0	task_switch	magnitude	switch	stim	poldrack-single-stim	s556	0	False
603.762	1.0	605.258	0.9	2.0	True	89.0	Orange-Blue	n/a	twobytwo	89.0	0.596	orange	4.0	task_switch	color	switch	stim	poldrack-single-stim	s556	0	False
606.667	1.0	608.23	0.9	2.136	True	71.0	Orange-Blue	stay	twobytwo	71.0	0.663	blue	4.0	cue_stay	color	stay	stim	poldrack-single-stim	s556	0	False
608.908	1.0	609.841	0.1	2.68	True	89.0	High-Low	n/a	twobytwo	89.0	0.833	orange	1.0	task_switch	magnitude	switch	stim	poldrack-single-stim	s556	0	False
611.693	1.0	612.647	0.1	2.272	True	89.0	Color	n/a	twobytwo	89.0	0.854	orange	8.0	task_switch	color	switch	stim	poldrack-single-stim	s556	0	False
614.069	1.0	615.054	0.1	2.136	True	89.0	Orange-Blue	switch	twobytwo	89.0	0.885	orange	8.0	cue_switch	color	stay	stim	poldrack-single-stim	s556	0	False
617.11	1.0	618.582	0.9	2.0	True	71.0	Color	switch	twobytwo	71.0	0.572	blue	4.0	cue_switch	color	stay	stim	poldrack-single-stim	s556	0	False
620.014	1.0	621.465	0.9	2.136	True	89.0	Color	stay	twobytwo	89.0	0.551	orange	4.0	cue_stay	color	stay	stim	poldrack-single-stim	s556	0	False
623.054	1.0	624.551	0.9	2.68	True	89.0	High-Low	n/a	twobytwo	89.0	0.597	orange	1.0	task_switch	magnitude	switch	stim	poldrack-single-stim	s556	0	False
625.838	1.0	626.864	0.1	2.272	True	89.0	Orange-Blue	n/a	twobytwo	89.0	0.926	orange	4.0	task_switch	color	switch	stim	poldrack-single-stim	s556	0	False
628.214	1.0	629.061	0.1	2.0	True	89.0	Orange-Blue	stay	twobytwo	89.0	0.747	orange	2.0	cue_stay	color	stay	stim	poldrack-single-stim	s556	0	False
630.318	1.0	631.263	0.1	2.0	True	89.0	Magnitude	n/a	twobytwo	89.0	0.845	blue	2.0	task_switch	magnitude	switch	stim	poldrack-single-stim	s556	0	False
632.422	1.0	633.192	0.1	2.136	True	89.0	Magnitude	stay	twobytwo	89.0	0.67	blue	1.0	cue_stay	magnitude	stay	stim	poldrack-single-stim	s556	0	False
634.662	1.0	635.997	0.1	2.0	True	71.0	High-Low	switch	twobytwo	71.0	1.235	blue	7.0	cue_switch	magnitude	stay	stim	poldrack-single-stim	s556	0	False
636.766	1.0	637.576	0.1	2.0	True	71.0	Magnitude	switch	twobytwo	71.0	0.71	blue	9.0	cue_switch	magnitude	stay	stim	poldrack-single-stim	s556	0	False
639.67	1.0	641.014	0.9	2.0	True	89.0	High-Low	switch	twobytwo	89.0	0.444	orange	1.0	cue_switch	magnitude	stay	stim	poldrack-single-stim	s556	0	False
642.574	1.0	643.888	0.9	2.272	True	71.0	Orange-Blue	n/a	twobytwo	71.0	0.414	blue	2.0	task_switch	color	switch	stim	poldrack-single-stim	s556	0	False
644.949	1.0	645.716	0.1	2.408	True	71.0	Orange-Blue	stay	twobytwo	71.0	0.667	blue	9.0	cue_stay	color	stay	stim	poldrack-single-stim	s556	0	False
648.262	1.0	649.788	0.9	2.0	True	89.0	High-Low	n/a	twobytwo	89.0	0.626	orange	4.0	task_switch	magnitude	switch	stim	poldrack-single-stim	s556	0	False
650.366	1.0	651.89	0.1	2.0	True	89.0	Magnitude	switch	twobytwo	89.0	1.424	blue	4.0	cue_switch	magnitude	stay	stim	poldrack-single-stim	s556	0	False
653.271	1.0	654.965	0.9	2.0	True	89.0	High-Low	switch	twobytwo	89.0	0.794	blue	1.0	cue_switch	magnitude	stay	stim	poldrack-single-stim	s556	0	False
656.176	1.0	657.987	0.9	2.272	True	89.0	High-Low	stay	twobytwo	89.0	0.911	blue	4.0	cue_stay	magnitude	stay	stim	poldrack-single-stim	s556	0	False
658.553	1.0	659.865	0.1	2.136	True	71.0	Orange-Blue	n/a	twobytwo	71.0	1.212	blue	7.0	task_switch	color	switch	stim	poldrack-single-stim	s556	0	False
660.793	1.0	661.695	0.1	2.0	True	89.0	High-Low	n/a	twobytwo	89.0	0.802	blue	4.0	task_switch	magnitude	switch	stim	poldrack-single-stim	s556	0	False
662.898	1.0	663.811	0.1	2.544	True	89.0	Magnitude	switch	twobytwo	89.0	0.813	orange	4.0	cue_switch	magnitude	stay	stim	poldrack-single-stim	s556	0	False
665.545	1.0	666.415	0.1	2.272	True	71.0	Color	n/a	twobytwo	71.0	0.77	blue	2.0	task_switch	color	switch	stim	poldrack-single-stim	s556	0	False
668.722	1.0	670.519	0.9	2.272	False	71.0	Color	stay	twobytwo	89.0	0.897	blue	1.0	cue_stay	color	stay	stim	poldrack-single-stim	s556	0	False
671.099	1.0	672.208	0.1	2.0	True	89.0	Magnitude	n/a	twobytwo	89.0	1.009	orange	2.0	task_switch	magnitude	switch	stim	poldrack-single-stim	s556	0	False
673.204	1.0	674.204	0.1	2.0	True	71.0	Orange-Blue	n/a	twobytwo	71.0	0.9	blue	7.0	task_switch	color	switch	stim	poldrack-single-stim	s556	0	False
676.108	1.0	678.382	0.9	2.136	True	89.0	Magnitude	n/a	twobytwo	89.0	1.374	orange	4.0	task_switch	magnitude	switch	stim	poldrack-single-stim	s556	0	False
678.349	1.0	679.328	0.1	2.0	True	71.0	Color	n/a	twobytwo	71.0	0.879	blue	8.0	task_switch	color	switch	stim	poldrack-single-stim	s556	0	False
