onset	duration	movement_onset	CTI	block_duration	correct	correct_response	cue	cue_switch	experiment_exp_id	key_press	response_time	stim_color	stim_number	switch_type	task	task_switch	trial_id	trial_type	worker_id	first_trial_of_block	junk
3.619	1.0	4.419	0.1	2.136	True	71.0	Color	switch	twobytwo	71.0	0.7	blue	8.0	cue_switch	color	stay	stim	poldrack-single-stim	s557	1	False
6.667	1.0	8.09	0.9	2.272	True	89.0	Magnitude	n/a	twobytwo	89.0	0.523	blue	9.0	task_switch	magnitude	switch	stim	poldrack-single-stim	s557	0	False
9.048	1.0	10.013	0.1	2.136	True	89.0	Color	n/a	twobytwo	89.0	0.865	orange	6.0	task_switch	color	switch	stim	poldrack-single-stim	s557	0	False
11.291	1.0	12.197	0.1	2.272	True	71.0	Color	stay	twobytwo	71.0	0.806	blue	7.0	cue_stay	color	stay	stim	poldrack-single-stim	s557	0	False
13.667	1.0	14.606	0.1	2.0	True	89.0	Magnitude	n/a	twobytwo	89.0	0.839	orange	8.0	task_switch	magnitude	switch	stim	poldrack-single-stim	s557	0	False
15.776	1.0	16.738	0.1	2.816	True	71.0	Magnitude	stay	twobytwo	71.0	0.862	blue	3.0	cue_stay	magnitude	stay	stim	poldrack-single-stim	s557	0	False
19.496	1.0	20.891	0.9	2.408	True	71.0	High-Low	switch	twobytwo	71.0	0.495	orange	1.0	cue_switch	magnitude	stay	stim	poldrack-single-stim	s557	0	False
22.017	1.0	22.912	0.1	2.0	True	71.0	High-Low	stay	twobytwo	71.0	0.795	blue	2.0	cue_stay	magnitude	stay	stim	poldrack-single-stim	s557	0	False
24.126	1.0	24.911	0.1	2.544	True	71.0	High-Low	stay	twobytwo	71.0	0.685	orange	2.0	cue_stay	magnitude	stay	stim	poldrack-single-stim	s557	0	False
27.577	1.0	29.26	0.9	2.136	True	71.0	Orange-Blue	n/a	twobytwo	71.0	0.783	blue	1.0	task_switch	color	switch	stim	poldrack-single-stim	s557	0	False
29.819	1.0	31.086	0.1	2.0	True	89.0	High-Low	n/a	twobytwo	89.0	1.167	blue	6.0	task_switch	magnitude	switch	stim	poldrack-single-stim	s557	0	False
31.926	1.0	32.818	0.1	2.0	True	71.0	High-Low	stay	twobytwo	71.0	0.792	orange	2.0	cue_stay	magnitude	stay	stim	poldrack-single-stim	s557	0	False
34.83	1.0	36.422	0.9	2.136	True	89.0	Magnitude	switch	twobytwo	89.0	0.692	orange	7.0	cue_switch	magnitude	stay	stim	poldrack-single-stim	s557	0	False
37.07	1.0	37.937	0.1	2.136	True	71.0	Magnitude	stay	twobytwo	71.0	0.767	orange	4.0	cue_stay	magnitude	stay	stim	poldrack-single-stim	s557	0	False
39.313	1.0	40.173	0.1	2.272	False	71.0	Color	n/a	twobytwo	89.0	0.76	blue	8.0	task_switch	color	switch	stim	poldrack-single-stim	s557	0	False
41.689	1.0	42.957	0.1	3.224	True	71.0	Orange-Blue	switch	twobytwo	71.0	1.168	blue	6.0	cue_switch	color	stay	stim	poldrack-single-stim	s557	0	False
45.82	1.0	47.238	0.9	2.0	True	71.0	Color	switch	twobytwo	71.0	0.518	blue	2.0	cue_switch	color	stay	stim	poldrack-single-stim	s557	0	False
48.727	1.0	50.198	0.9	2.0	True	71.0	High-Low	n/a	twobytwo	71.0	0.571	orange	1.0	task_switch	magnitude	switch	stim	poldrack-single-stim	s557	0	False
50.833	1.0	51.918	0.1	2.272	True	71.0	Color	n/a	twobytwo	71.0	0.985	blue	6.0	task_switch	color	switch	stim	poldrack-single-stim	s557	0	False
54.015	1.0	55.532	0.9	2.136	True	71.0	High-Low	n/a	twobytwo	71.0	0.617	orange	3.0	task_switch	magnitude	switch	stim	poldrack-single-stim	s557	0	False
56.257	1.0	57.54	0.1	2.0	True	71.0	Magnitude	switch	twobytwo	71.0	1.183	orange	3.0	cue_switch	magnitude	stay	stim	poldrack-single-stim	s557	0	False
58.366	1.0	59.323	0.1	2.0	True	89.0	Magnitude	stay	twobytwo	89.0	0.857	blue	6.0	cue_stay	magnitude	stay	stim	poldrack-single-stim	s557	0	False
61.276	1.0	62.985	0.9	2.0	True	89.0	Magnitude	stay	twobytwo	89.0	0.809	orange	9.0	cue_stay	magnitude	stay	stim	poldrack-single-stim	s557	0	False
63.386	1.0	64.428	0.1	2.68	True	89.0	Magnitude	stay	twobytwo	89.0	0.942	orange	6.0	cue_stay	magnitude	stay	stim	poldrack-single-stim	s557	0	False
66.178	1.0	67.185	0.1	2.0	False	89.0	Color	n/a	twobytwo	71.0	0.907	orange	8.0	task_switch	color	switch	stim	poldrack-single-stim	s557	0	False
68.284	1.0	69.409	0.1	2.272	True	71.0	High-Low	n/a	twobytwo	71.0	1.025	blue	4.0	task_switch	magnitude	switch	stim	poldrack-single-stim	s557	0	False
71.459	1.0	72.953	0.9	2.0	True	89.0	Color	n/a	twobytwo	89.0	0.594	orange	6.0	task_switch	color	switch	stim	poldrack-single-stim	s557	0	False
74.37	1.0	76.044	0.9	2.272	False	89.0	Orange-Blue	switch	twobytwo	71.0	0.774	orange	3.0	cue_switch	color	stay	stim	poldrack-single-stim	s557	0	False
77.546	1.0	79.234	0.9	2.952	True	89.0	Color	switch	twobytwo	89.0	0.788	orange	7.0	cue_switch	color	stay	stim	poldrack-single-stim	s557	0	False
81.405	1.0	82.886	0.9	2.0	True	89.0	Magnitude	n/a	twobytwo	89.0	0.581	orange	7.0	task_switch	magnitude	switch	stim	poldrack-single-stim	s557	0	False
84.311	1.0	85.936	0.9	2.0	False	71.0	High-Low	switch	twobytwo	89.0	0.725	orange	2.0	cue_switch	magnitude	stay	stim	poldrack-single-stim	s557	0	False
87.218	1.0	89.127	0.9	2.0	True	89.0	Color	n/a	twobytwo	89.0	1.009	orange	9.0	task_switch	color	switch	stim	poldrack-single-stim	s557	0	False
90.125	1.0	92.04	0.9	2.0	True	71.0	Color	stay	twobytwo	71.0	1.015	blue	1.0	cue_stay	color	stay	stim	poldrack-single-stim	s557	0	False
93.029	1.0	94.539	0.9	2.136	True	89.0	Orange-Blue	switch	twobytwo	89.0	0.61	orange	2.0	cue_switch	color	stay	stim	poldrack-single-stim	s557	0	False
95.27	1.0	96.47	0.1	2.0	True	71.0	Magnitude	n/a	twobytwo	71.0	1.1	blue	1.0	task_switch	magnitude	switch	stim	poldrack-single-stim	s557	0	False
98.178	1.0	100.011	0.9	2.0	True	71.0	Color	n/a	twobytwo	71.0	0.933	blue	4.0	task_switch	color	switch	stim	poldrack-single-stim	s557	0	False
101.086	1.0	102.488	0.9	2.0	True	71.0	Orange-Blue	switch	twobytwo	71.0	0.502	blue	3.0	cue_switch	color	stay	stim	poldrack-single-stim	s557	0	False
103.197	1.0	104.364	0.1	2.272	True	89.0	High-Low	n/a	twobytwo	89.0	1.067	orange	6.0	task_switch	magnitude	switch	stim	poldrack-single-stim	s557	0	False
106.379	1.0	107.71	0.9	2.136	True	89.0	Color	n/a	twobytwo	89.0	0.431	orange	6.0	task_switch	color	switch	stim	poldrack-single-stim	s557	0	False
108.621	1.0	109.604	0.1	2.0	True	89.0	Magnitude	n/a	twobytwo	89.0	0.883	orange	9.0	task_switch	magnitude	switch	stim	poldrack-single-stim	s557	0	False
111.525	1.0	113.254	0.9	2.136	True	71.0	Color	n/a	twobytwo	71.0	0.829	blue	2.0	task_switch	color	switch	stim	poldrack-single-stim	s557	0	False
114.568	1.0	116.156	0.9	2.816	True	71.0	High-Low	n/a	twobytwo	71.0	0.688	blue	2.0	task_switch	magnitude	switch	stim	poldrack-single-stim	s557	0	False
118.288	1.0	119.819	0.9	2.408	True	71.0	Magnitude	switch	twobytwo	71.0	0.631	blue	2.0	cue_switch	magnitude	stay	stim	poldrack-single-stim	s557	0	False
121.603	1.0	123.154	0.9	2.0	True	89.0	Orange-Blue	n/a	twobytwo	89.0	0.651	orange	4.0	task_switch	color	switch	stim	poldrack-single-stim	s557	0	False
124.507	1.0	126.595	0.9	2.136	True	89.0	High-Low	n/a	twobytwo	89.0	1.188	orange	6.0	task_switch	magnitude	switch	stim	poldrack-single-stim	s557	0	False
126.747	1.0	127.766	0.1	2.136	True	71.0	High-Low	stay	twobytwo	71.0	0.919	orange	3.0	cue_stay	magnitude	stay	stim	poldrack-single-stim	s557	0	False
129.787	1.0	131.377	0.9	2.136	True	89.0	Magnitude	switch	twobytwo	89.0	0.69	orange	9.0	cue_switch	magnitude	stay	stim	poldrack-single-stim	s557	0	False
132.03	1.0	132.975	0.1	2.544	True	71.0	Orange-Blue	n/a	twobytwo	71.0	0.845	blue	2.0	task_switch	color	switch	stim	poldrack-single-stim	s557	0	False
135.481	1.0	137.558	0.9	2.136	True	71.0	Magnitude	n/a	twobytwo	71.0	1.177	blue	2.0	task_switch	magnitude	switch	stim	poldrack-single-stim	s557	0	False
138.523	1.0	140.091	0.9	2.0	True	89.0	Color	n/a	twobytwo	89.0	0.668	orange	3.0	task_switch	color	switch	stim	poldrack-single-stim	s557	0	False
141.433	1.0	142.967	0.9	2.0	True	71.0	Magnitude	n/a	twobytwo	71.0	0.634	blue	1.0	task_switch	magnitude	switch	stim	poldrack-single-stim	s557	0	False
144.34	1.0	146.21	0.9	2.0	True	71.0	Magnitude	stay	twobytwo	71.0	0.97	orange	2.0	cue_stay	magnitude	stay	stim	poldrack-single-stim	s557	0	False
147.246	1.0	148.695	0.9	2.0	True	71.0	Orange-Blue	n/a	twobytwo	71.0	0.549	blue	2.0	task_switch	color	switch	stim	poldrack-single-stim	s557	0	False
149.351	1.0	150.293	0.1	2.136	True	71.0	High-Low	n/a	twobytwo	71.0	0.842	orange	2.0	task_switch	magnitude	switch	stim	poldrack-single-stim	s557	0	False
151.593	1.0	152.561	0.1	2.0	True	71.0	Magnitude	switch	twobytwo	71.0	0.868	blue	4.0	cue_switch	magnitude	stay	stim	poldrack-single-stim	s557	0	False
154.5	1.0	155.975	0.9	2.0	True	89.0	High-Low	switch	twobytwo	89.0	0.575	orange	8.0	cue_switch	magnitude	stay	stim	poldrack-single-stim	s557	0	False
156.607	1.0	157.51	0.1	2.0	True	71.0	High-Low	stay	twobytwo	71.0	0.803	blue	2.0	cue_stay	magnitude	stay	stim	poldrack-single-stim	s557	0	False
158.716	1.0	159.968	0.1	2.136	True	89.0	Orange-Blue	n/a	twobytwo	89.0	1.152	orange	1.0	task_switch	color	switch	stim	poldrack-single-stim	s557	0	False
160.956	1.0	162.234	0.1	2.136	True	89.0	High-Low	n/a	twobytwo	89.0	1.178	blue	9.0	task_switch	magnitude	switch	stim	poldrack-single-stim	s557	0	False
163.996	1.0	165.416	0.9	2.136	True	89.0	High-Low	stay	twobytwo	89.0	0.52	blue	9.0	cue_stay	magnitude	stay	stim	poldrack-single-stim	s557	0	False
166.236	1.0	167.541	0.1	2.136	True	71.0	Orange-Blue	n/a	twobytwo	71.0	1.205	blue	6.0	task_switch	color	switch	stim	poldrack-single-stim	s557	0	False
168.476	1.0	169.44	0.1	2.68	True	71.0	Orange-Blue	stay	twobytwo	71.0	0.864	blue	8.0	cue_stay	color	stay	stim	poldrack-single-stim	s557	0	False
172.063	1.0	173.427	0.9	2.544	True	71.0	Color	switch	twobytwo	71.0	0.464	blue	4.0	cue_switch	color	stay	stim	poldrack-single-stim	s557	0	False
175.514	1.0	177.271	0.9	2.272	True	71.0	Orange-Blue	switch	twobytwo	71.0	0.857	blue	1.0	cue_switch	color	stay	stim	poldrack-single-stim	s557	0	False
178.693	1.0	180.164	0.9	2.272	True	71.0	Color	switch	twobytwo	71.0	0.571	blue	1.0	cue_switch	color	stay	stim	poldrack-single-stim	s557	0	False
181.069	1.0	182.196	0.1	2.408	True	71.0	Magnitude	n/a	twobytwo	71.0	1.027	blue	4.0	task_switch	magnitude	switch	stim	poldrack-single-stim	s557	0	False
184.381	1.0	185.908	0.9	2.136	True	71.0	Magnitude	stay	twobytwo	71.0	0.627	orange	1.0	cue_stay	magnitude	stay	stim	poldrack-single-stim	s557	0	False
186.623	1.0	187.767	0.1	2.272	True	71.0	Color	n/a	twobytwo	71.0	1.044	blue	1.0	task_switch	color	switch	stim	poldrack-single-stim	s557	0	False
189.802	1.0	191.126	0.9	2.0	True	89.0	Orange-Blue	switch	twobytwo	89.0	0.424	orange	7.0	cue_switch	color	stay	stim	poldrack-single-stim	s557	0	False
192.706	1.0	194.044	0.9	2.136	True	89.0	Color	switch	twobytwo	89.0	0.438	orange	8.0	cue_switch	color	stay	stim	poldrack-single-stim	s557	0	False
195.747	1.0	197.124	0.9	2.272	True	89.0	Color	stay	twobytwo	89.0	0.477	orange	9.0	cue_stay	color	stay	stim	poldrack-single-stim	s557	0	False
198.928	1.0	200.537	0.9	2.0	True	89.0	High-Low	n/a	twobytwo	89.0	0.709	blue	9.0	task_switch	magnitude	switch	stim	poldrack-single-stim	s557	0	False
201.037	1.0	202.208	0.1	2.68	True	71.0	Color	n/a	twobytwo	71.0	1.071	blue	7.0	task_switch	color	switch	stim	poldrack-single-stim	s557	0	False
204.623	1.0	206.098	0.9	2.0	True	89.0	Orange-Blue	switch	twobytwo	89.0	0.575	orange	9.0	cue_switch	color	stay	stim	poldrack-single-stim	s557	0	False
206.731	1.0	208.031	0.1	2.0	True	89.0	High-Low	n/a	twobytwo	89.0	1.2	blue	6.0	task_switch	magnitude	switch	stim	poldrack-single-stim	s557	0	False
209.643	1.0	211.421	0.9	2.0	True	71.0	High-Low	stay	twobytwo	71.0	0.878	orange	1.0	cue_stay	magnitude	stay	stim	poldrack-single-stim	s557	0	False
211.749	1.0	212.916	0.1	2.272	True	89.0	Color	n/a	twobytwo	89.0	1.067	orange	7.0	task_switch	color	switch	stim	poldrack-single-stim	s557	0	False
214.128	1.0	215.389	0.1	2.0	False	71.0	High-Low	n/a	twobytwo	89.0	1.161	orange	4.0	task_switch	magnitude	switch	stim	poldrack-single-stim	s557	0	False
217.035	1.0	218.808	0.9	2.0	True	89.0	Color	n/a	twobytwo	89.0	0.873	orange	3.0	task_switch	color	switch	stim	poldrack-single-stim	s557	0	False
219.139	1.0	220.429	0.1	2.0	True	71.0	Magnitude	n/a	twobytwo	71.0	1.19	blue	3.0	task_switch	magnitude	switch	stim	poldrack-single-stim	s557	0	False
234.766	1.0	235.977	0.1	2.68	True	71.0	Orange-Blue	switch	twobytwo	71.0	1.111	blue	8.0	cue_switch	color	stay	stim	poldrack-single-stim	s557	1	False
238.353	1.0	240.102	0.9	2.0	True	89.0	High-Low	n/a	twobytwo	89.0	0.849	blue	9.0	task_switch	magnitude	switch	stim	poldrack-single-stim	s557	0	False
240.462	1.0	241.472	0.1	2.136	True	89.0	Orange-Blue	n/a	twobytwo	89.0	0.91	orange	6.0	task_switch	color	switch	stim	poldrack-single-stim	s557	0	False
242.701	1.0	243.549	0.1	2.408	True	71.0	Orange-Blue	stay	twobytwo	71.0	0.748	blue	7.0	cue_stay	color	stay	stim	poldrack-single-stim	s557	0	False
245.214	1.0	246.228	0.1	2.136	True	89.0	High-Low	n/a	twobytwo	89.0	0.914	orange	8.0	task_switch	magnitude	switch	stim	poldrack-single-stim	s557	0	False
247.457	1.0	248.24	0.1	2.0	True	71.0	High-Low	stay	twobytwo	71.0	0.683	blue	3.0	cue_stay	magnitude	stay	stim	poldrack-single-stim	s557	0	False
250.364	1.0	251.707	0.9	2.0	True	71.0	Magnitude	switch	twobytwo	71.0	0.443	orange	1.0	cue_switch	magnitude	stay	stim	poldrack-single-stim	s557	0	False
252.471	1.0	253.278	0.1	2.544	True	71.0	Magnitude	stay	twobytwo	71.0	0.707	blue	2.0	cue_stay	magnitude	stay	stim	poldrack-single-stim	s557	0	False
255.124	1.0	256.046	0.1	2.136	True	71.0	Magnitude	stay	twobytwo	71.0	0.822	orange	2.0	cue_stay	magnitude	stay	stim	poldrack-single-stim	s557	0	False
258.164	1.0	259.522	0.9	2.544	True	71.0	Orange-Blue	n/a	twobytwo	71.0	0.458	blue	1.0	task_switch	color	switch	stim	poldrack-single-stim	s557	0	False
260.815	1.0	261.88	0.1	2.68	True	89.0	High-Low	n/a	twobytwo	89.0	0.965	blue	6.0	task_switch	magnitude	switch	stim	poldrack-single-stim	s557	0	False
263.601	1.0	264.461	0.1	2.0	True	71.0	High-Low	stay	twobytwo	71.0	0.76	orange	2.0	cue_stay	magnitude	stay	stim	poldrack-single-stim	s557	0	False
266.508	1.0	268.239	0.9	2.272	True	89.0	Magnitude	switch	twobytwo	89.0	0.831	orange	7.0	cue_switch	magnitude	stay	stim	poldrack-single-stim	s557	0	False
268.887	1.0	270.254	0.1	3.088	False	71.0	Magnitude	stay	twobytwo	89.0	1.267	orange	4.0	cue_stay	magnitude	stay	stim	poldrack-single-stim	s557	0	False
272.079	1.0	273.511	0.1	2.0	True	71.0	Orange-Blue	n/a	twobytwo	71.0	1.332	blue	8.0	task_switch	color	switch	stim	poldrack-single-stim	s557	0	False
274.186	1.0	275.123	0.1	2.136	True	71.0	Color	switch	twobytwo	71.0	0.837	blue	6.0	cue_switch	color	stay	stim	poldrack-single-stim	s557	0	False
277.225	1.0	278.607	0.9	2.136	True	71.0	Orange-Blue	switch	twobytwo	71.0	0.482	blue	2.0	cue_switch	color	stay	stim	poldrack-single-stim	s557	0	False
280.269	1.0	282.277	0.9	2.0	True	71.0	Magnitude	n/a	twobytwo	71.0	1.108	orange	1.0	task_switch	magnitude	switch	stim	poldrack-single-stim	s557	0	False
282.375	1.0	283.299	0.1	2.272	False	71.0	Color	n/a	twobytwo	89.0	0.824	blue	6.0	task_switch	color	switch	stim	poldrack-single-stim	s557	0	False
285.554	1.0	287.543	0.9	2.0	True	71.0	Magnitude	n/a	twobytwo	71.0	1.089	orange	3.0	task_switch	magnitude	switch	stim	poldrack-single-stim	s557	0	False
287.658	1.0	288.718	0.1	2.136	True	71.0	High-Low	switch	twobytwo	71.0	0.96	orange	3.0	cue_switch	magnitude	stay	stim	poldrack-single-stim	s557	0	False
289.899	1.0	291.029	0.1	2.136	True	89.0	High-Low	stay	twobytwo	89.0	1.03	blue	6.0	cue_stay	magnitude	stay	stim	poldrack-single-stim	s557	0	False
292.946	1.0	294.391	0.9	2.544	True	89.0	High-Low	stay	twobytwo	89.0	0.545	orange	9.0	cue_stay	magnitude	stay	stim	poldrack-single-stim	s557	0	False
295.602	1.0	296.51	0.1	2.0	True	89.0	High-Low	stay	twobytwo	89.0	0.808	orange	6.0	cue_stay	magnitude	stay	stim	poldrack-single-stim	s557	0	False
297.712	1.0	298.851	0.1	2.136	False	89.0	Orange-Blue	n/a	twobytwo	71.0	1.039	orange	8.0	task_switch	color	switch	stim	poldrack-single-stim	s557	0	False
299.954	1.0	301.159	0.1	2.136	True	71.0	Magnitude	n/a	twobytwo	71.0	1.105	blue	4.0	task_switch	magnitude	switch	stim	poldrack-single-stim	s557	0	False
302.997	1.0	304.62	0.9	2.136	True	89.0	Color	n/a	twobytwo	89.0	0.723	orange	6.0	task_switch	color	switch	stim	poldrack-single-stim	s557	0	False
306.036	1.0	307.568	0.9	2.0	True	89.0	Orange-Blue	switch	twobytwo	89.0	0.632	orange	3.0	cue_switch	color	stay	stim	poldrack-single-stim	s557	0	False
308.944	1.0	310.436	0.9	2.136	True	89.0	Color	switch	twobytwo	89.0	0.592	orange	7.0	cue_switch	color	stay	stim	poldrack-single-stim	s557	0	False
311.987	1.0	313.58	0.9	2.0	True	89.0	High-Low	n/a	twobytwo	89.0	0.693	orange	7.0	task_switch	magnitude	switch	stim	poldrack-single-stim	s557	0	False
314.893	1.0	316.837	0.9	2.136	True	71.0	Magnitude	switch	twobytwo	71.0	1.044	orange	2.0	cue_switch	magnitude	stay	stim	poldrack-single-stim	s557	0	False
317.939	1.0	319.982	0.9	2.816	True	89.0	Orange-Blue	n/a	twobytwo	89.0	1.143	orange	9.0	task_switch	color	switch	stim	poldrack-single-stim	s557	0	False
321.662	1.0	323.523	0.9	2.136	True	71.0	Orange-Blue	stay	twobytwo	71.0	0.961	blue	1.0	cue_stay	color	stay	stim	poldrack-single-stim	s557	0	False
324.707	1.0	326.583	0.9	2.0	True	89.0	Color	switch	twobytwo	89.0	0.976	orange	2.0	cue_switch	color	stay	stim	poldrack-single-stim	s557	0	False
326.814	1.0	328.09	0.1	2.0	True	71.0	Magnitude	n/a	twobytwo	71.0	1.176	blue	1.0	task_switch	magnitude	switch	stim	poldrack-single-stim	s557	0	False
329.726	1.0	331.72	0.9	2.272	True	71.0	Color	n/a	twobytwo	71.0	1.094	blue	4.0	task_switch	color	switch	stim	poldrack-single-stim	s557	0	False
332.904	1.0	334.548	0.9	2.0	True	71.0	Orange-Blue	switch	twobytwo	71.0	0.744	blue	3.0	cue_switch	color	stay	stim	poldrack-single-stim	s557	0	False
335.011	1.0	336.184	0.1	2.0	True	89.0	High-Low	n/a	twobytwo	89.0	1.073	orange	6.0	task_switch	magnitude	switch	stim	poldrack-single-stim	s557	0	False
337.918	1.0	339.487	0.9	2.0	True	89.0	Orange-Blue	n/a	twobytwo	89.0	0.669	orange	6.0	task_switch	color	switch	stim	poldrack-single-stim	s557	0	False
340.022	1.0	341.025	0.1	2.408	True	89.0	High-Low	n/a	twobytwo	89.0	0.903	orange	9.0	task_switch	magnitude	switch	stim	poldrack-single-stim	s557	0	False
343.335	1.0	344.774	0.9	2.272	True	71.0	Orange-Blue	n/a	twobytwo	71.0	0.539	blue	2.0	task_switch	color	switch	stim	poldrack-single-stim	s557	0	False
346.513	1.0	348.293	0.9	2.136	True	71.0	Magnitude	n/a	twobytwo	71.0	0.88	blue	2.0	task_switch	magnitude	switch	stim	poldrack-single-stim	s557	0	False
349.555	1.0	351.189	0.9	2.0	True	71.0	High-Low	switch	twobytwo	71.0	0.734	blue	2.0	cue_switch	magnitude	stay	stim	poldrack-single-stim	s557	0	False
352.462	1.0	354.286	0.9	2.0	True	89.0	Color	n/a	twobytwo	89.0	0.924	orange	4.0	task_switch	color	switch	stim	poldrack-single-stim	s557	0	False
355.366	1.0	357.173	0.9	2.136	True	89.0	High-Low	n/a	twobytwo	89.0	0.907	orange	6.0	task_switch	magnitude	switch	stim	poldrack-single-stim	s557	0	False
357.609	1.0	358.794	0.1	2.0	True	71.0	High-Low	stay	twobytwo	71.0	1.085	orange	3.0	cue_stay	magnitude	stay	stim	poldrack-single-stim	s557	0	False
360.513	1.0	362.417	0.9	2.136	True	89.0	Magnitude	switch	twobytwo	89.0	1.004	orange	9.0	cue_switch	magnitude	stay	stim	poldrack-single-stim	s557	0	False
362.753	1.0	363.771	0.1	2.408	True	71.0	Color	n/a	twobytwo	71.0	0.918	blue	2.0	task_switch	color	switch	stim	poldrack-single-stim	s557	0	False
366.065	1.0	367.907	0.9	2.136	True	71.0	High-Low	n/a	twobytwo	71.0	0.942	blue	2.0	task_switch	magnitude	switch	stim	poldrack-single-stim	s557	0	False
369.108	1.0	370.757	0.9	2.0	True	89.0	Orange-Blue	n/a	twobytwo	89.0	0.749	orange	3.0	task_switch	color	switch	stim	poldrack-single-stim	s557	0	False
372.018	1.0	374.065	0.9	2.136	True	71.0	High-Low	n/a	twobytwo	71.0	1.147	blue	1.0	task_switch	magnitude	switch	stim	poldrack-single-stim	s557	0	False
375.06	1.0	377.032	0.9	2.272	True	71.0	High-Low	stay	twobytwo	71.0	1.072	orange	2.0	cue_stay	magnitude	stay	stim	poldrack-single-stim	s557	0	False
378.239	1.0	380.084	0.9	2.0	True	71.0	Orange-Blue	n/a	twobytwo	71.0	0.945	blue	2.0	task_switch	color	switch	stim	poldrack-single-stim	s557	0	False
380.348	1.0	381.561	0.1	2.408	True	71.0	Magnitude	n/a	twobytwo	71.0	1.113	orange	2.0	task_switch	magnitude	switch	stim	poldrack-single-stim	s557	0	False
382.863	1.0	384.057	0.1	2.0	True	71.0	High-Low	switch	twobytwo	71.0	1.094	blue	4.0	cue_switch	magnitude	stay	stim	poldrack-single-stim	s557	0	False
385.767	1.0	387.436	0.9	2.136	True	89.0	Magnitude	switch	twobytwo	89.0	0.769	orange	8.0	cue_switch	magnitude	stay	stim	poldrack-single-stim	s557	0	False
388.007	1.0	389.385	0.1	2.408	True	71.0	Magnitude	stay	twobytwo	71.0	1.278	blue	2.0	cue_stay	magnitude	stay	stim	poldrack-single-stim	s557	0	False
390.52	1.0	391.711	0.1	2.136	True	89.0	Color	n/a	twobytwo	89.0	1.091	orange	1.0	task_switch	color	switch	stim	poldrack-single-stim	s557	0	False
392.765	1.0	393.647	0.1	2.408	True	89.0	High-Low	n/a	twobytwo	89.0	0.782	blue	9.0	task_switch	magnitude	switch	stim	poldrack-single-stim	s557	0	False
396.077	1.0	397.785	0.9	2.136	True	89.0	High-Low	stay	twobytwo	89.0	0.808	blue	9.0	cue_stay	magnitude	stay	stim	poldrack-single-stim	s557	0	False
398.316	1.0	399.699	0.1	2.0	True	71.0	Color	n/a	twobytwo	71.0	1.283	blue	6.0	task_switch	color	switch	stim	poldrack-single-stim	s557	0	False
400.421	1.0	401.598	0.1	2.272	True	71.0	Color	stay	twobytwo	71.0	1.077	blue	8.0	cue_stay	color	stay	stim	poldrack-single-stim	s557	0	False
403.605	1.0	405.061	0.9	2.0	True	71.0	Orange-Blue	switch	twobytwo	71.0	0.556	blue	4.0	cue_switch	color	stay	stim	poldrack-single-stim	s557	0	False
406.512	1.0	408.036	0.9	2.272	True	71.0	Color	switch	twobytwo	71.0	0.624	blue	1.0	cue_switch	color	stay	stim	poldrack-single-stim	s557	0	False
409.69	1.0	411.692	0.9	2.272	True	71.0	Orange-Blue	switch	twobytwo	71.0	1.102	blue	1.0	cue_switch	color	stay	stim	poldrack-single-stim	s557	0	False
412.066	1.0	413.094	0.1	2.952	True	71.0	Magnitude	n/a	twobytwo	71.0	0.928	blue	4.0	task_switch	magnitude	switch	stim	poldrack-single-stim	s557	0	False
415.923	1.0	417.641	0.9	2.68	True	71.0	Magnitude	stay	twobytwo	71.0	0.818	orange	1.0	cue_stay	magnitude	stay	stim	poldrack-single-stim	s557	0	False
418.706	1.0	419.841	0.1	2.136	True	71.0	Orange-Blue	n/a	twobytwo	71.0	1.035	blue	1.0	task_switch	color	switch	stim	poldrack-single-stim	s557	0	False
421.749	1.0	423.347	0.9	2.272	True	89.0	Color	switch	twobytwo	89.0	0.698	orange	7.0	cue_switch	color	stay	stim	poldrack-single-stim	s557	0	False
424.932	1.0	426.438	0.9	2.272	True	89.0	Orange-Blue	switch	twobytwo	89.0	0.606	orange	8.0	cue_switch	color	stay	stim	poldrack-single-stim	s557	0	False
428.11	1.0	429.757	0.9	2.136	True	89.0	Orange-Blue	stay	twobytwo	89.0	0.747	orange	9.0	cue_stay	color	stay	stim	poldrack-single-stim	s557	0	False
431.154	1.0	433.814	0.9	2.408	False	89.0	High-Low	n/a	twobytwo	71.0	1.76	blue	9.0	task_switch	magnitude	switch	stim	poldrack-single-stim	s557	0	False
433.667	1.0	434.942	0.1	2.136	True	71.0	Orange-Blue	n/a	twobytwo	71.0	1.175	blue	7.0	task_switch	color	switch	stim	poldrack-single-stim	s557	0	False
436.707	1.0	438.411	0.9	2.136	True	89.0	Color	switch	twobytwo	89.0	0.804	orange	9.0	cue_switch	color	stay	stim	poldrack-single-stim	s557	0	False
438.947	1.0	440.09	0.1	2.0	False	89.0	High-Low	n/a	twobytwo	71.0	1.043	blue	6.0	task_switch	magnitude	switch	stim	poldrack-single-stim	s557	0	False
441.857	1.0	443.827	0.9	2.0	True	71.0	High-Low	stay	twobytwo	71.0	1.07	orange	1.0	cue_stay	magnitude	stay	stim	poldrack-single-stim	s557	0	False
443.963	1.0	445.093	0.1	2.0	True	89.0	Orange-Blue	n/a	twobytwo	89.0	1.03	orange	7.0	task_switch	color	switch	stim	poldrack-single-stim	s557	0	False
446.07	1.0	447.487	0.1	2.0	True	71.0	High-Low	n/a	twobytwo	71.0	1.317	orange	4.0	task_switch	magnitude	switch	stim	poldrack-single-stim	s557	0	False
448.982	1.0	451.147	0.9	2.0	True	89.0	Orange-Blue	n/a	twobytwo	89.0	1.265	orange	3.0	task_switch	color	switch	stim	poldrack-single-stim	s557	0	False
451.089	1.0	452.28	0.1	2.272	True	71.0	Magnitude	n/a	twobytwo	71.0	1.091	blue	3.0	task_switch	magnitude	switch	stim	poldrack-single-stim	s557	0	False
466.985	1.0	468.196	0.1	2.408	True	89.0	High-Low	switch	twobytwo	89.0	1.111	blue	8.0	cue_switch	magnitude	stay	stim	poldrack-single-stim	s557	1	False
470.3	1.0	471.842	0.9	2.0	True	71.0	Orange-Blue	n/a	twobytwo	71.0	0.642	blue	9.0	task_switch	color	switch	stim	poldrack-single-stim	s557	0	False
472.409	1.0	473.58	0.1	2.136	True	89.0	High-Low	n/a	twobytwo	89.0	1.071	orange	6.0	task_switch	magnitude	switch	stim	poldrack-single-stim	s557	0	False
474.652	1.0	475.518	0.1	2.0	True	89.0	High-Low	stay	twobytwo	89.0	0.766	blue	7.0	cue_stay	magnitude	stay	stim	poldrack-single-stim	s557	0	False
476.756	1.0	477.795	0.1	2.136	True	89.0	Orange-Blue	n/a	twobytwo	89.0	0.939	orange	8.0	task_switch	color	switch	stim	poldrack-single-stim	s557	0	False
478.997	1.0	479.888	0.1	2.544	True	71.0	Orange-Blue	stay	twobytwo	71.0	0.791	blue	3.0	cue_stay	color	stay	stim	poldrack-single-stim	s557	0	False
482.447	1.0	483.98	0.9	2.68	True	89.0	Color	switch	twobytwo	89.0	0.633	orange	1.0	cue_switch	color	stay	stim	poldrack-single-stim	s557	0	False
485.234	1.0	486.22	0.1	3.088	True	71.0	Color	stay	twobytwo	71.0	0.886	blue	2.0	cue_stay	color	stay	stim	poldrack-single-stim	s557	0	False
488.428	1.0	489.527	0.1	2.136	True	89.0	Color	stay	twobytwo	89.0	0.999	orange	2.0	cue_stay	color	stay	stim	poldrack-single-stim	s557	0	False
491.474	1.0	493.216	0.9	2.544	True	71.0	High-Low	n/a	twobytwo	71.0	0.842	blue	1.0	task_switch	magnitude	switch	stim	poldrack-single-stim	s557	0	False
494.125	1.0	495.531	0.1	2.0	True	71.0	Orange-Blue	n/a	twobytwo	71.0	1.306	blue	6.0	task_switch	color	switch	stim	poldrack-single-stim	s557	0	False
496.23	1.0	497.531	0.1	2.136	True	89.0	Orange-Blue	stay	twobytwo	89.0	1.201	orange	2.0	cue_stay	color	stay	stim	poldrack-single-stim	s557	0	False
499.277	1.0	500.7	0.9	2.0	True	89.0	Color	switch	twobytwo	89.0	0.523	orange	7.0	cue_switch	color	stay	stim	poldrack-single-stim	s557	0	False
501.386	1.0	502.296	0.1	2.408	True	89.0	Color	stay	twobytwo	89.0	0.81	orange	4.0	cue_stay	color	stay	stim	poldrack-single-stim	s557	0	False
503.901	1.0	504.805	0.1	2.0	False	89.0	Magnitude	n/a	twobytwo	71.0	0.804	blue	8.0	task_switch	magnitude	switch	stim	poldrack-single-stim	s557	0	False
506.008	1.0	506.883	0.1	2.0	False	89.0	High-Low	switch	twobytwo	71.0	0.775	blue	6.0	cue_switch	magnitude	stay	stim	poldrack-single-stim	s557	0	False
508.914	1.0	510.504	0.9	2.0	True	71.0	Magnitude	switch	twobytwo	71.0	0.69	blue	2.0	cue_switch	magnitude	stay	stim	poldrack-single-stim	s557	0	False
511.821	1.0	513.332	0.9	2.68	True	89.0	Orange-Blue	n/a	twobytwo	89.0	0.611	orange	1.0	task_switch	color	switch	stim	poldrack-single-stim	s557	0	False
514.61	1.0	515.433	0.1	2.272	False	89.0	High-Low	n/a	twobytwo	71.0	0.723	blue	6.0	task_switch	magnitude	switch	stim	poldrack-single-stim	s557	0	False
517.785	1.0	519.174	0.9	2.408	True	89.0	Orange-Blue	n/a	twobytwo	89.0	0.489	orange	3.0	task_switch	color	switch	stim	poldrack-single-stim	s557	0	False
520.299	1.0	521.247	0.1	3.224	True	89.0	Color	switch	twobytwo	89.0	0.848	orange	3.0	cue_switch	color	stay	stim	poldrack-single-stim	s557	0	False
523.627	1.0	524.339	0.1	2.408	True	71.0	Color	stay	twobytwo	71.0	0.612	blue	6.0	cue_stay	color	stay	stim	poldrack-single-stim	s557	0	False
526.947	1.0	528.416	0.9	2.816	True	89.0	Color	stay	twobytwo	89.0	0.569	orange	9.0	cue_stay	color	stay	stim	poldrack-single-stim	s557	0	False
529.865	1.0	530.577	0.1	2.408	True	89.0	Color	stay	twobytwo	89.0	0.612	orange	6.0	cue_stay	color	stay	stim	poldrack-single-stim	s557	0	False
532.379	1.0	533.598	0.1	2.136	True	89.0	High-Low	n/a	twobytwo	89.0	1.119	orange	8.0	task_switch	magnitude	switch	stim	poldrack-single-stim	s557	0	False
534.624	1.0	535.92	0.1	2.136	True	71.0	Orange-Blue	n/a	twobytwo	71.0	1.196	blue	4.0	task_switch	color	switch	stim	poldrack-single-stim	s557	0	False
537.667	1.0	539.229	0.9	2.0	True	89.0	Magnitude	n/a	twobytwo	89.0	0.662	orange	6.0	task_switch	magnitude	switch	stim	poldrack-single-stim	s557	0	False
540.574	1.0	542.386	0.9	2.0	True	71.0	High-Low	switch	twobytwo	71.0	0.912	orange	3.0	cue_switch	magnitude	stay	stim	poldrack-single-stim	s557	0	False
543.481	1.0	545.509	0.9	2.272	True	89.0	Magnitude	switch	twobytwo	89.0	1.128	orange	7.0	cue_switch	magnitude	stay	stim	poldrack-single-stim	s557	0	False
546.661	1.0	548.181	0.9	2.408	True	89.0	Orange-Blue	n/a	twobytwo	89.0	0.62	orange	7.0	task_switch	color	switch	stim	poldrack-single-stim	s557	0	False
549.975	1.0	551.467	0.9	2.0	True	89.0	Color	switch	twobytwo	89.0	0.592	orange	2.0	cue_switch	color	stay	stim	poldrack-single-stim	s557	0	False
552.881	1.0	554.412	0.9	2.136	True	89.0	Magnitude	n/a	twobytwo	89.0	0.631	orange	9.0	task_switch	magnitude	switch	stim	poldrack-single-stim	s557	0	False
555.929	1.0	557.619	0.9	2.0	True	71.0	Magnitude	stay	twobytwo	71.0	0.79	blue	1.0	cue_stay	magnitude	stay	stim	poldrack-single-stim	s557	0	False
558.833	1.0	560.745	0.9	2.408	True	71.0	High-Low	switch	twobytwo	71.0	1.012	orange	2.0	cue_switch	magnitude	stay	stim	poldrack-single-stim	s557	0	False
561.348	1.0	562.712	0.1	2.272	True	71.0	Color	n/a	twobytwo	71.0	1.264	blue	1.0	task_switch	color	switch	stim	poldrack-single-stim	s557	0	False
564.526	1.0	566.086	0.9	2.0	True	71.0	Magnitude	n/a	twobytwo	71.0	0.66	blue	4.0	task_switch	magnitude	switch	stim	poldrack-single-stim	s557	0	False
567.433	1.0	569.054	0.9	2.272	True	71.0	High-Low	switch	twobytwo	71.0	0.721	blue	3.0	cue_switch	magnitude	stay	stim	poldrack-single-stim	s557	0	False
569.812	1.0	570.797	0.1	2.0	True	89.0	Color	n/a	twobytwo	89.0	0.885	orange	6.0	task_switch	color	switch	stim	poldrack-single-stim	s557	0	False
572.719	1.0	574.758	0.9	2.0	False	89.0	Magnitude	n/a	twobytwo	71.0	1.139	orange	6.0	task_switch	magnitude	switch	stim	poldrack-single-stim	s557	0	False
574.825	1.0	576.45	0.1	2.272	True	89.0	Orange-Blue	n/a	twobytwo	89.0	1.525	orange	9.0	task_switch	color	switch	stim	poldrack-single-stim	s557	0	False
578.001	1.0	579.589	0.9	2.136	True	71.0	Magnitude	n/a	twobytwo	71.0	0.688	blue	2.0	task_switch	magnitude	switch	stim	poldrack-single-stim	s557	0	False
581.043	1.0	582.811	0.9	2.0	True	71.0	Color	n/a	twobytwo	71.0	0.868	blue	2.0	task_switch	color	switch	stim	poldrack-single-stim	s557	0	False
583.948	1.0	585.772	0.9	2.0	True	71.0	Orange-Blue	switch	twobytwo	71.0	0.924	blue	2.0	cue_switch	color	stay	stim	poldrack-single-stim	s557	0	False
586.858	1.0	588.66	0.9	2.0	True	71.0	High-Low	n/a	twobytwo	71.0	0.902	orange	4.0	task_switch	magnitude	switch	stim	poldrack-single-stim	s557	0	False
589.764	1.0	591.589	0.9	2.0	True	89.0	Color	n/a	twobytwo	89.0	0.925	orange	6.0	task_switch	color	switch	stim	poldrack-single-stim	s557	0	False
591.871	1.0	592.822	0.1	2.0	True	89.0	Color	stay	twobytwo	89.0	0.851	orange	3.0	cue_stay	color	stay	stim	poldrack-single-stim	s557	0	False
594.779	1.0	596.963	0.9	2.136	True	89.0	Orange-Blue	switch	twobytwo	89.0	1.284	orange	9.0	cue_switch	color	stay	stim	poldrack-single-stim	s557	0	False
597.023	1.0	598.03	0.1	2.0	True	71.0	Magnitude	n/a	twobytwo	71.0	0.907	blue	2.0	task_switch	magnitude	switch	stim	poldrack-single-stim	s557	0	False
599.93	1.0	601.765	0.9	2.0	True	71.0	Orange-Blue	n/a	twobytwo	71.0	0.935	blue	2.0	task_switch	color	switch	stim	poldrack-single-stim	s557	0	False
602.834	1.0	604.537	0.9	2.136	True	71.0	Magnitude	n/a	twobytwo	71.0	0.803	orange	3.0	task_switch	magnitude	switch	stim	poldrack-single-stim	s557	0	False
605.877	1.0	607.326	0.9	2.0	True	71.0	Orange-Blue	n/a	twobytwo	71.0	0.549	blue	1.0	task_switch	color	switch	stim	poldrack-single-stim	s557	0	False
608.786	1.0	610.159	0.9	2.136	True	89.0	Orange-Blue	stay	twobytwo	89.0	0.473	orange	2.0	cue_stay	color	stay	stim	poldrack-single-stim	s557	0	False
611.826	1.0	613.649	0.9	2.68	True	71.0	High-Low	n/a	twobytwo	71.0	0.923	blue	2.0	task_switch	magnitude	switch	stim	poldrack-single-stim	s557	0	False
614.609	1.0	615.734	0.1	2.272	True	89.0	Orange-Blue	n/a	twobytwo	89.0	1.025	orange	2.0	task_switch	color	switch	stim	poldrack-single-stim	s557	0	False
616.989	1.0	617.82	0.1	2.136	True	71.0	Color	switch	twobytwo	71.0	0.731	blue	4.0	cue_switch	color	stay	stim	poldrack-single-stim	s557	0	False
620.032	1.0	621.477	0.9	2.0	True	89.0	Orange-Blue	switch	twobytwo	89.0	0.545	orange	8.0	cue_switch	color	stay	stim	poldrack-single-stim	s557	0	False
622.14	1.0	623.166	0.1	2.136	True	71.0	Orange-Blue	stay	twobytwo	71.0	0.926	blue	2.0	cue_stay	color	stay	stim	poldrack-single-stim	s557	0	False
624.382	1.0	625.384	0.1	2.68	True	71.0	High-Low	n/a	twobytwo	71.0	0.902	orange	1.0	task_switch	magnitude	switch	stim	poldrack-single-stim	s557	0	False
627.17	1.0	628.044	0.1	2.272	True	71.0	Orange-Blue	n/a	twobytwo	71.0	0.774	blue	9.0	task_switch	color	switch	stim	poldrack-single-stim	s557	0	False
630.347	1.0	632.012	0.9	2.0	True	71.0	Orange-Blue	stay	twobytwo	71.0	0.765	blue	9.0	cue_stay	color	stay	stim	poldrack-single-stim	s557	0	False
632.452	1.0	633.567	0.1	2.0	False	89.0	High-Low	n/a	twobytwo	71.0	1.015	blue	6.0	task_switch	magnitude	switch	stim	poldrack-single-stim	s557	0	False
634.558	1.0	635.711	0.1	2.136	True	89.0	High-Low	stay	twobytwo	89.0	1.053	blue	8.0	cue_stay	magnitude	stay	stim	poldrack-single-stim	s557	0	False
637.6	1.0	639.206	0.9	2.0	True	71.0	Magnitude	switch	twobytwo	71.0	0.706	blue	4.0	cue_switch	magnitude	stay	stim	poldrack-single-stim	s557	0	False
640.507	1.0	642.13	0.9	2.0	True	71.0	High-Low	switch	twobytwo	71.0	0.723	blue	1.0	cue_switch	magnitude	stay	stim	poldrack-single-stim	s557	0	False
643.414	1.0	645.338	0.9	2.0	True	71.0	Magnitude	switch	twobytwo	71.0	1.024	blue	1.0	cue_switch	magnitude	stay	stim	poldrack-single-stim	s557	0	False
645.521	1.0	646.976	0.1	2.272	True	71.0	Color	n/a	twobytwo	71.0	1.355	blue	4.0	task_switch	color	switch	stim	poldrack-single-stim	s557	0	False
648.697	1.0	649.963	0.9	2.408	True	89.0	Color	stay	twobytwo	89.0	0.366	orange	1.0	cue_stay	color	stay	stim	poldrack-single-stim	s557	0	False
651.211	1.0	652.031	0.1	2.0	True	71.0	Magnitude	n/a	twobytwo	71.0	0.72	blue	1.0	task_switch	magnitude	switch	stim	poldrack-single-stim	s557	0	False
654.115	1.0	655.801	0.9	2.0	True	89.0	High-Low	switch	twobytwo	89.0	0.786	orange	7.0	cue_switch	magnitude	stay	stim	poldrack-single-stim	s557	0	False
657.025	1.0	658.507	0.9	2.0	True	89.0	Magnitude	switch	twobytwo	89.0	0.582	orange	8.0	cue_switch	magnitude	stay	stim	poldrack-single-stim	s557	0	False
659.937	1.0	661.576	0.9	2.272	True	89.0	Magnitude	stay	twobytwo	89.0	0.739	orange	9.0	cue_stay	magnitude	stay	stim	poldrack-single-stim	s557	0	False
663.113	1.0	664.512	0.9	2.136	True	71.0	Orange-Blue	n/a	twobytwo	71.0	0.499	blue	9.0	task_switch	color	switch	stim	poldrack-single-stim	s557	0	False
665.356	1.0	666.282	0.1	2.0	False	89.0	High-Low	n/a	twobytwo	71.0	0.826	blue	7.0	task_switch	magnitude	switch	stim	poldrack-single-stim	s557	0	False
668.262	1.0	669.914	0.9	2.544	True	89.0	Magnitude	switch	twobytwo	89.0	0.752	orange	9.0	cue_switch	magnitude	stay	stim	poldrack-single-stim	s557	0	False
670.913	1.0	671.777	0.1	2.272	True	71.0	Color	n/a	twobytwo	71.0	0.764	blue	6.0	task_switch	color	switch	stim	poldrack-single-stim	s557	0	False
674.092	1.0	676.316	0.9	2.272	True	89.0	Color	stay	twobytwo	89.0	1.324	orange	1.0	cue_stay	color	stay	stim	poldrack-single-stim	s557	0	False
676.471	1.0	677.408	0.1	2.0	True	89.0	Magnitude	n/a	twobytwo	89.0	0.837	orange	7.0	task_switch	magnitude	switch	stim	poldrack-single-stim	s557	0	False
678.577	1.0	679.376	0.1	2.0	True	89.0	Color	n/a	twobytwo	89.0	0.699	orange	4.0	task_switch	color	switch	stim	poldrack-single-stim	s557	0	False
681.487	1.0	682.993	0.9	2.136	True	71.0	Magnitude	n/a	twobytwo	71.0	0.606	orange	3.0	task_switch	magnitude	switch	stim	poldrack-single-stim	s557	0	False
683.728	1.0	684.696	0.1	2.0	True	71.0	Orange-Blue	n/a	twobytwo	71.0	0.868	blue	3.0	task_switch	color	switch	stim	poldrack-single-stim	s557	0	False
