onset	duration	movement_onset	EV	action	block_duration	experiment_exp_id	gain_amount	gain_probability	key_press	loss_amount	loss_probability	num_cards	num_click_in_round	num_loss_cards	risk	response_time	total_cards	trial_id	trial_type	worker_id	junk	feedback
3.01	6.226	9.236	-2.088455093033581	draw_card	6.226	columbia_card_task_fmri	12.0	0.8333333333333334	89.0	-70.0	0.1666666666666666	6.0	1.0	1.0	-0.6383515133711484	6.226	n/a	stim	poldrack-single-stim	s557	False	1
9.239	1.334	10.573	-4.821788426366914	end_round	1.334	columbia_card_task_fmri	12.0	0.8	71.0	-70.0	0.2	6.0	2.0	1.0	1.601853998713899	1.334	1.0	stim	poldrack-single-stim	s557	False	1
11.329	1.5	10.578	n/a	-1.0	2.454	columbia_card_task_fmri	n/a	n/a	-1.0	n/a	n/a	n/a	n/a	n/a	n/a	n/a	n/a	ITI	poldrack-single-stim	s557	False	0
13.036	4.986	18.022	-1.2551217597002475	draw_card	4.986	columbia_card_task_fmri	14.0	0.8333333333333334	89.0	-75.0	0.1666666666666666	6.0	1.0	1.0	1.970165551594583	4.986	1.0	stim	poldrack-single-stim	s557	False	0
18.777	1.5	18.026	n/a	-1.0	2.454	columbia_card_task_fmri	n/a	n/a	-1.0	n/a	n/a	n/a	n/a	n/a	n/a	n/a	n/a	ITI	poldrack-single-stim	s557	False	0
20.482	3.904	24.386	0.4115449069664186	end_round	3.904	columbia_card_task_fmri	15.0	0.8333333333333334	71.0	-70.0	0.1666666666666666	6.0	1.0	1.0	0.4795797555784737	3.904	0.0	stim	poldrack-single-stim	s557	False	1
25.141	1.5	24.39	n/a	-1.0	2.522	columbia_card_task_fmri	n/a	n/a	-1.0	n/a	n/a	n/a	n/a	n/a	n/a	n/a	n/a	ITI	poldrack-single-stim	s557	False	0
26.915	3.193	30.108	1.2448782402997525	end_round	3.193	columbia_card_task_fmri	17.0	0.8333333333333334	71.0	-75.0	0.1666666666666666	6.0	1.0	1.0	3.088112098759616	3.193	0.0	stim	poldrack-single-stim	s557	False	1
30.862	1.5	30.111	n/a	-1.0	2.386	columbia_card_task_fmri	n/a	n/a	-1.0	n/a	n/a	n/a	n/a	n/a	n/a	n/a	n/a	ITI	poldrack-single-stim	s557	False	0
32.499	7.018	39.517	2.5782115736330846	draw_card	7.018	columbia_card_task_fmri	24.0	0.75	89.0	-60.0	0.25	8.0	1.0	2.0	5.174654579895979	7.018	n/a	stim	poldrack-single-stim	s557	False	1
39.518	1.341	40.859	-0.4217884263669152	end_round	1.341	columbia_card_task_fmri	24.0	0.7142857142857143	71.0	-60.0	0.2857142857142857	8.0	2.0	2.0	6.748818097191915	1.341	1.0	stim	poldrack-single-stim	s557	False	1
41.614	1.5	40.863	n/a	-1.0	2.454	columbia_card_task_fmri	n/a	n/a	-1.0	n/a	n/a	n/a	n/a	n/a	n/a	n/a	n/a	ITI	poldrack-single-stim	s557	False	0
43.319	6.284	49.603	2.5782115736330846	draw_card	6.284	columbia_card_task_fmri	29.0	0.75	89.0	-75.0	0.25	8.0	1.0	2.0	13.834438355464762	6.284	n/a	stim	poldrack-single-stim	s557	False	1
49.604	0.79	50.394	-1.1360741406526271	end_round	0.79	columbia_card_task_fmri	29.0	0.7142857142857143	71.0	-75.0	0.2857142857142857	8.0	2.0	2.0	15.783446370017366	0.79	1.0	stim	poldrack-single-stim	s557	False	1
51.148	1.5	50.397	n/a	-1.0	2.522	columbia_card_task_fmri	n/a	n/a	-1.0	n/a	n/a	n/a	n/a	n/a	n/a	n/a	n/a	ITI	poldrack-single-stim	s557	False	0
52.921	6.685	59.606	-1.644010648589135	draw_card	6.685	columbia_card_task_fmri	17.0	0.7777777777777778	89.0	-65.0	0.2222222222222222	9.0	1.0	2.0	2.8924075275288885	6.685	n/a	stim	poldrack-single-stim	s557	False	1
59.608	0.804	60.412	-3.9217884263669154	end_round	0.804	columbia_card_task_fmri	17.0	0.75	71.0	-65.0	0.25	9.0	2.0	2.0	4.308688817901484	0.804	1.0	stim	poldrack-single-stim	s557	False	1
61.164	1.5	60.413	n/a	-1.0	2.522	columbia_card_task_fmri	n/a	n/a	-1.0	n/a	n/a	n/a	n/a	n/a	n/a	n/a	n/a	ITI	poldrack-single-stim	s557	False	0
62.938	2.232	65.17	2.6782115736330843	end_round	2.232	columbia_card_task_fmri	14.0	0.9	71.0	-95.0	0.1	10.0	1.0	1.0	1.5018622911799469	2.232	0.0	stim	poldrack-single-stim	s557	False	1
65.923	1.5	65.172	n/a	-1.0	2.59	columbia_card_task_fmri	n/a	n/a	-1.0	n/a	n/a	n/a	n/a	n/a	n/a	n/a	n/a	ITI	poldrack-single-stim	s557	False	0
67.765	5.513	73.278	-1.4217884263669154	draw_card	5.513	columbia_card_task_fmri	15.0	0.8	89.0	-65.0	0.2	10.0	1.0	2.0	0.801921789437678	5.513	1.0	stim	poldrack-single-stim	s557	False	0
74.032	1.5	73.281	n/a	-1.0	2.454	columbia_card_task_fmri	n/a	n/a	-1.0	n/a	n/a	n/a	n/a	n/a	n/a	n/a	n/a	ITI	poldrack-single-stim	s557	False	0
75.737	3.077	78.814	0.1782115736330861	end_round	3.077	columbia_card_task_fmri	17.0	0.8	71.0	-65.0	0.2	10.0	1.0	2.0	1.601853998713899	3.077	0.0	stim	poldrack-single-stim	s557	False	1
79.571	1.5	78.82	n/a	-1.0	2.318	columbia_card_task_fmri	n/a	n/a	-1.0	n/a	n/a	n/a	n/a	n/a	n/a	n/a	n/a	ITI	poldrack-single-stim	s557	False	0
81.14	1.862	83.002	-1.2551217597002475	end_round	1.862	columbia_card_task_fmri	13.0	0.8333333333333334	71.0	-70.0	0.1666666666666666	12.0	1.0	2.0	-0.2657085819986378	1.862	0.0	stim	poldrack-single-stim	s557	False	1
83.757	1.5	83.006	n/a	-1.0	2.25	columbia_card_task_fmri	n/a	n/a	-1.0	n/a	n/a	n/a	n/a	n/a	n/a	n/a	n/a	ITI	poldrack-single-stim	s557	False	0
85.258	2.474	87.732	-1.2551217597002475	end_round	2.474	columbia_card_task_fmri	15.0	0.8333333333333334	71.0	-80.0	0.1666666666666666	12.0	1.0	2.0	4.20606416794368	2.474	0.0	stim	poldrack-single-stim	s557	False	1
88.485	1.5	87.734	n/a	-1.0	2.658	columbia_card_task_fmri	n/a	n/a	-1.0	n/a	n/a	n/a	n/a	n/a	n/a	n/a	n/a	ITI	poldrack-single-stim	s557	False	0
90.394	4.096	94.49	-2.2217884263669143	end_round	4.096	columbia_card_task_fmri	14.0	0.8	71.0	-65.0	0.2	15.0	1.0	3.0	0.4019569717960607	4.096	0.0	stim	poldrack-single-stim	s557	False	1
95.243	1.5	94.492	n/a	-1.0	2.454	columbia_card_task_fmri	n/a	n/a	-1.0	n/a	n/a	n/a	n/a	n/a	n/a	n/a	n/a	ITI	poldrack-single-stim	s557	False	0
96.949	4.397	101.346	-2.2967884263669154	end_round	4.397	columbia_card_task_fmri	1.0	0.9375	71.0	-45.0	0.0625	16.0	1.0	1.0	-20.058044911206448	4.397	0.0	stim	poldrack-single-stim	s557	False	1
102.101	1.5	101.35	n/a	-1.0	2.386	columbia_card_task_fmri	n/a	n/a	-1.0	n/a	n/a	n/a	n/a	n/a	n/a	n/a	n/a	ITI	poldrack-single-stim	s557	False	0
103.739	2.895	106.634	-1.3592884263669154	draw_card	2.895	columbia_card_task_fmri	15.0	0.8125	89.0	-70.0	0.1875	16.0	1.0	3.0	1.978375088240668	2.895	1.0	stim	poldrack-single-stim	s557	False	0
107.39	1.5	106.639	n/a	-1.0	2.59	columbia_card_task_fmri	n/a	n/a	-1.0	n/a	n/a	n/a	n/a	n/a	n/a	n/a	n/a	ITI	poldrack-single-stim	s557	False	0
109.232	3.602	112.834	5.578211573633085	end_round	3.602	columbia_card_task_fmri	30.0	0.7	71.0	-50.0	0.3	10.0	1.0	3.0	5.462174001308938	3.602	0.0	stim	poldrack-single-stim	s557	False	1
113.588	1.5	112.837	n/a	-1.0	2.318	columbia_card_task_fmri	n/a	n/a	-1.0	n/a	n/a	n/a	n/a	n/a	n/a	n/a	n/a	ITI	poldrack-single-stim	s557	False	0
115.158	4.956	120.114	4.978211573633085	draw_card	4.956	columbia_card_task_fmri	17.0	0.8666666666666667	89.0	-70.0	0.1333333333333333	15.0	1.0	2.0	-1.6235370667879998	4.956	n/a	stim	poldrack-single-stim	s557	False	1
120.116	2.803	122.919	4.149640145061658	draw_card	2.803	columbia_card_task_fmri	17.0	0.8571428571428572	89.0	-70.0	0.1428571428571428	15.0	2.0	2.0	-0.754277890648325	2.803	n/a	stim	poldrack-single-stim	s557	False	1
122.92	4.164	127.084	3.1935961890177	draw_card	4.164	columbia_card_task_fmri	17.0	0.8461538461538461	89.0	-70.0	0.1538461538461538	15.0	3.0	2.0	0.1916812976002937	4.164	n/a	stim	poldrack-single-stim	s557	False	1
127.086	0.018	127.104	2.0782115736330864	draw_card	0.018	columbia_card_task_fmri	17.0	0.8333333333333334	89.0	-70.0	0.1666666666666666	15.0	4.0	2.0	1.2248712033225715	0.018	4.0	stim	poldrack-single-stim	s557	False	0
127.86	1.5	127.109	n/a	-1.0	2.59	columbia_card_task_fmri	n/a	n/a	-1.0	n/a	n/a	n/a	n/a	n/a	n/a	n/a	n/a	ITI	poldrack-single-stim	s557	False	0
129.702	1.463	131.165	0.2032115736330847	end_round	1.463	columbia_card_task_fmri	7.0	0.9375	71.0	-95.0	0.0625	16.0	1.0	1.0	-6.506986548822866	1.463	0.0	stim	poldrack-single-stim	s557	False	1
131.92	1.5	131.169	n/a	-1.0	2.386	columbia_card_task_fmri	n/a	n/a	-1.0	n/a	n/a	n/a	n/a	n/a	n/a	n/a	n/a	ITI	poldrack-single-stim	s557	False	0
133.559	2.078	135.637	1.7657115736330846	end_round	2.078	columbia_card_task_fmri	9.0	0.9375	71.0	-100.0	0.0625	16.0	1.0	1.0	-4.812787656343154	2.078	0.0	stim	poldrack-single-stim	s557	False	1
136.389	1.5	135.638	n/a	-1.0	2.318	columbia_card_task_fmri	n/a	n/a	-1.0	n/a	n/a	n/a	n/a	n/a	n/a	n/a	n/a	ITI	poldrack-single-stim	s557	False	0
137.959	2.708	140.667	2.7032115736330846	draw_card	2.708	columbia_card_task_fmri	15.0	0.875	89.0	-80.0	0.125	16.0	1.0	2.0	0.2202700684153917	2.708	n/a	stim	poldrack-single-stim	s557	False	1
140.668	1.828	142.496	1.9115449069664183	draw_card	1.828	columbia_card_task_fmri	15.0	0.8666666666666667	89.0	-80.0	0.1333333333333333	16.0	2.0	2.0	1.095686756686817	1.828	n/a	stim	poldrack-single-stim	s557	False	1
142.498	0.578	143.076	1.0067830022045152	end_round	0.578	columbia_card_task_fmri	15.0	0.8571428571428572	71.0	-80.0	0.1428571428571428	16.0	3.0	2.0	2.044892937651703	0.578	2.0	stim	poldrack-single-stim	s557	False	1
143.829	1.5	143.078	n/a	-1.0	2.318	columbia_card_task_fmri	n/a	n/a	-1.0	n/a	n/a	n/a	n/a	n/a	n/a	n/a	n/a	ITI	poldrack-single-stim	s557	False	0
145.399	2.46	147.859	4.828211573633085	draw_card	2.46	columbia_card_task_fmri	16.0	0.875	89.0	-70.0	0.125	16.0	1.0	2.0	-2.7559039083558226	2.46	n/a	stim	poldrack-single-stim	s557	False	1
147.861	1.868	149.729	4.111544906966418	end_round	1.868	columbia_card_task_fmri	16.0	0.8666666666666667	71.0	-70.0	0.1333333333333333	16.0	2.0	2.0	-1.9634367323520152	1.868	1.0	stim	poldrack-single-stim	s557	False	1
150.485	1.5	149.734	n/a	-1.0	2.318	columbia_card_task_fmri	n/a	n/a	-1.0	n/a	n/a	n/a	n/a	n/a	n/a	n/a	n/a	ITI	poldrack-single-stim	s557	False	0
152.054	3.184	155.238	6.140711573633085	draw_card	3.184	columbia_card_task_fmri	30.0	0.6875	89.0	-45.0	0.3125	16.0	1.0	5.0	3.565131253275481	3.184	n/a	stim	poldrack-single-stim	s557	False	1
155.24	4.483	159.723	4.578211573633088	end_round	4.483	columbia_card_task_fmri	30.0	0.6666666666666667	71.0	-45.0	0.3333333333333333	16.0	2.0	5.0	4.156997070283126	4.483	1.0	stim	poldrack-single-stim	s557	False	1
160.476	1.5	159.725	n/a	-1.0	2.386	columbia_card_task_fmri	n/a	n/a	-1.0	n/a	n/a	n/a	n/a	n/a	n/a	n/a	n/a	ITI	poldrack-single-stim	s557	False	0
162.114	2.787	164.901	-2.088455093033581	draw_card	2.787	columbia_card_task_fmri	13.0	0.8333333333333334	89.0	-75.0	0.1666666666666666	6.0	1.0	1.0	1.5975180272507288	2.787	n/a	stim	poldrack-single-stim	s557	False	1
164.902	0.902	165.804	-5.021788426366915	end_round	0.902	columbia_card_task_fmri	13.0	0.8	71.0	-75.0	0.2	6.0	2.0	1.0	4.001669112816174	0.902	1.0	stim	poldrack-single-stim	s557	False	1
166.559	1.5	165.808	n/a	-1.0	2.25	columbia_card_task_fmri	n/a	n/a	-1.0	n/a	n/a	n/a	n/a	n/a	n/a	n/a	n/a	ITI	poldrack-single-stim	s557	False	0
168.06	4.249	172.309	-0.4217884263669135	draw_card	4.249	columbia_card_task_fmri	14.0	0.8333333333333334	89.0	-70.0	0.1666666666666666	6.0	1.0	1.0	0.1069351841368657	4.249	n/a	stim	poldrack-single-stim	s557	False	1
172.31	2.032	174.342	-3.2217884263669143	end_round	2.032	columbia_card_task_fmri	14.0	0.8	71.0	-70.0	0.2	6.0	2.0	1.0	2.401789435728894	2.032	1.0	stim	poldrack-single-stim	s557	False	1
175.099	1.5	174.348	n/a	-1.0	2.386	columbia_card_task_fmri	n/a	n/a	-1.0	n/a	n/a	n/a	n/a	n/a	n/a	n/a	n/a	ITI	poldrack-single-stim	s557	False	0
176.737	6.577	183.314	-0.4217884263669135	draw_card	6.577	columbia_card_task_fmri	16.0	0.8333333333333334	89.0	-80.0	0.1666666666666666	6.0	1.0	1.0	4.5787159953227246	6.577	n/a	stim	poldrack-single-stim	s557	False	1
183.316	0.766	184.082	-3.6217884263669142	end_round	0.766	columbia_card_task_fmri	16.0	0.8	71.0	-80.0	0.2	6.0	2.0	1.0	7.20145854478524	0.766	1.0	stim	poldrack-single-stim	s557	False	1
184.838	1.5	184.087	n/a	-1.0	2.59	columbia_card_task_fmri	n/a	n/a	-1.0	n/a	n/a	n/a	n/a	n/a	n/a	n/a	n/a	ITI	poldrack-single-stim	s557	False	0
186.68	1.642	188.322	2.0782115736330864	draw_card	1.642	columbia_card_task_fmri	17.0	0.8333333333333334	89.0	-70.0	0.1666666666666666	6.0	1.0	1.0	1.2248712033225715	1.642	n/a	stim	poldrack-single-stim	s557	False	1
188.323	0.919	189.242	-0.8217884263669138	draw_card	0.919	columbia_card_task_fmri	17.0	0.8	89.0	-70.0	0.2	6.0	2.0	1.0	3.601698156393063	0.919	n/a	stim	poldrack-single-stim	s557	False	1
189.244	0.015	189.259	-5.171788426366915	draw_card	0.015	columbia_card_task_fmri	17.0	0.75	89.0	-70.0	0.25	6.0	3.0	1.0	6.473608363922416	0.015	n/a	stim	poldrack-single-stim	s557	False	1
189.26	0.89	190.15	-12.421788426366913	end_round	0.89	columbia_card_task_fmri	17.0	0.6666666666666667	71.0	-70.0	0.3333333333333333	6.0	4.0	1.0	9.813504322509232	0.89	3.0	stim	poldrack-single-stim	s557	False	1
190.903	1.5	190.152	n/a	-1.0	2.658	columbia_card_task_fmri	n/a	n/a	-1.0	n/a	n/a	n/a	n/a	n/a	n/a	n/a	n/a	ITI	poldrack-single-stim	s557	False	0
192.813	2.878	195.691	2.0782115736330846	draw_card	2.878	columbia_card_task_fmri	25.0	0.75	89.0	-65.0	0.25	8.0	1.0	2.0	7.772567768880961	2.878	1.0	stim	poldrack-single-stim	s557	False	0
196.445	1.5	195.694	n/a	-1.0	2.386	columbia_card_task_fmri	n/a	n/a	-1.0	n/a	n/a	n/a	n/a	n/a	n/a	n/a	n/a	ITI	poldrack-single-stim	s557	False	0
198.083	1.742	199.825	2.0782115736330846	end_round	1.742	columbia_card_task_fmri	30.0	0.75	71.0	-80.0	0.25	8.0	1.0	2.0	16.432406831804848	1.742	0.0	stim	poldrack-single-stim	s557	False	1
200.578	1.5	199.827	n/a	-1.0	2.386	columbia_card_task_fmri	n/a	n/a	-1.0	n/a	n/a	n/a	n/a	n/a	n/a	n/a	n/a	ITI	poldrack-single-stim	s557	False	0
202.216	2.962	205.178	1.7782115736330857	end_round	2.962	columbia_card_task_fmri	13.0	0.9	71.0	-95.0	0.1	10.0	1.0	1.0	1.2018874756677178	2.962	0.0	stim	poldrack-single-stim	s557	False	1
205.931	1.5	205.18	n/a	-1.0	2.25	columbia_card_task_fmri	n/a	n/a	-1.0	n/a	n/a	n/a	n/a	n/a	n/a	n/a	n/a	ITI	poldrack-single-stim	s557	False	0
207.433	1.526	208.959	3.1782115736330843	end_round	1.526	columbia_card_task_fmri	14.0	0.9	71.0	-90.0	0.1	10.0	1.0	1.0	0.0019930561441086	1.526	0.0	stim	poldrack-single-stim	s557	False	1
209.713	1.5	208.962	n/a	-1.0	2.318	columbia_card_task_fmri	n/a	n/a	-1.0	n/a	n/a	n/a	n/a	n/a	n/a	n/a	n/a	ITI	poldrack-single-stim	s557	False	0
211.282	4.843	216.125	-1.621788426366915	draw_card	4.843	columbia_card_task_fmri	16.0	0.8	89.0	-70.0	0.2	10.0	1.0	2.0	3.2017278753266893	4.843	n/a	stim	poldrack-single-stim	s557	False	1
216.127	1.415	217.542	-3.532899537478026	draw_card	1.415	columbia_card_task_fmri	16.0	0.7777777777777778	89.0	-70.0	0.2222222222222222	10.0	2.0	2.0	4.555245016613256	1.415	n/a	stim	poldrack-single-stim	s557	False	1
217.544	0.782	218.326	-5.921788426366915	end_round	0.782	columbia_card_task_fmri	16.0	0.75	71.0	-70.0	0.25	10.0	3.0	2.0	6.040623115653879	0.782	2.0	stim	poldrack-single-stim	s557	False	1
219.083	1.5	218.332	n/a	-1.0	2.25	columbia_card_task_fmri	n/a	n/a	-1.0	n/a	n/a	n/a	n/a	n/a	n/a	n/a	n/a	ITI	poldrack-single-stim	s557	False	0
220.585	1.266	221.851	-2.338455093033581	end_round	1.266	columbia_card_task_fmri	7.0	0.9166666666666666	71.0	-100.0	0.0833333333333333	12.0	1.0	1.0	-1.624612422259499	1.266	0.0	stim	poldrack-single-stim	s557	False	1
222.606	1.5	221.855	n/a	-1.0	2.25	columbia_card_task_fmri	n/a	n/a	-1.0	n/a	n/a	n/a	n/a	n/a	n/a	n/a	n/a	ITI	poldrack-single-stim	s557	False	0
224.108	1.581	225.689	-2.08845509303358	draw_card	1.581	columbia_card_task_fmri	14.0	0.8333333333333334	89.0	-80.0	0.1666666666666666	12.0	1.0	2.0	3.8334128972892287	1.581	n/a	stim	poldrack-single-stim	s557	False	1
225.691	2.083	227.774	-3.512697517276009	draw_card	2.083	columbia_card_task_fmri	14.0	0.8181818181818181	89.0	-80.0	0.1818181818181818	12.0	2.0	2.0	5.056888708939546	2.083	n/a	stim	poldrack-single-stim	s557	False	1
227.775	1.329	229.104	-5.221788426366914	end_round	1.329	columbia_card_task_fmri	14.0	0.8	71.0	-80.0	0.2	12.0	3.0	2.0	6.401507826986908	1.329	2.0	stim	poldrack-single-stim	s557	False	1
229.859	1.5	229.108	n/a	-1.0	2.386	columbia_card_task_fmri	n/a	n/a	-1.0	n/a	n/a	n/a	n/a	n/a	n/a	n/a	n/a	ITI	poldrack-single-stim	s557	False	0
231.497	2.513	234.01	-0.4217884263669152	draw_card	2.513	columbia_card_task_fmri	15.0	0.8333333333333334	89.0	-75.0	0.1666666666666666	12.0	1.0	2.0	2.342813753010695	2.513	1.0	stim	poldrack-single-stim	s557	False	0
234.766	1.5	234.015	n/a	-1.0	2.386	columbia_card_task_fmri	n/a	n/a	-1.0	n/a	n/a	n/a	n/a	n/a	n/a	n/a	n/a	ITI	poldrack-single-stim	s557	False	0
236.403	1.372	237.775	-1.4217884263669154	draw_card	1.372	columbia_card_task_fmri	15.0	0.8	89.0	-65.0	0.2	15.0	1.0	3.0	0.801921789437678	1.372	n/a	stim	poldrack-single-stim	s557	False	1
237.778	2.696	240.474	-2.5646455692240577	end_round	2.696	columbia_card_task_fmri	15.0	0.7857142857142857	71.0	-65.0	0.2142857142857142	15.0	2.0	3.0	1.6279241109142006	2.696	1.0	stim	poldrack-single-stim	s557	False	1
241.226	1.5	240.475	n/a	-1.0	2.726	columbia_card_task_fmri	n/a	n/a	-1.0	n/a	n/a	n/a	n/a	n/a	n/a	n/a	n/a	ITI	poldrack-single-stim	s557	False	0
243.205	0.993	244.198	-2.1717884263669154	draw_card	0.993	columbia_card_task_fmri	14.0	0.8125	89.0	-70.0	0.1875	16.0	1.0	3.0	1.5880946283898894	0.993	1.0	stim	poldrack-single-stim	s557	False	0
244.953	1.5	244.202	n/a	-1.0	2.454	columbia_card_task_fmri	n/a	n/a	-1.0	n/a	n/a	n/a	n/a	n/a	n/a	n/a	n/a	ITI	poldrack-single-stim	s557	False	0
246.66	0.943	247.603	-2.2342884263669154	end_round	0.943	columbia_card_task_fmri	11.0	0.6875	71.0	-30.0	0.3125	16.0	1.0	5.0	-12.192169080495855	0.943	0.0	stim	poldrack-single-stim	s557	False	1
248.36	1.5	247.609	n/a	-1.0	2.318	columbia_card_task_fmri	n/a	n/a	-1.0	n/a	n/a	n/a	n/a	n/a	n/a	n/a	n/a	ITI	poldrack-single-stim	s557	False	0
249.93	3.917	253.847	2.5782115736330846	draw_card	3.917	columbia_card_task_fmri	15.0	0.8666666666666667	89.0	-75.0	0.1333333333333333	15.0	1.0	2.0	-0.6038334082883701	3.917	n/a	stim	poldrack-single-stim	s557	False	1
253.848	1.451	255.299	1.7210687164902287	draw_card	1.451	columbia_card_task_fmri	15.0	0.8571428571428572	89.0	-75.0	0.1428571428571428	15.0	2.0	2.0	0.2954060452203464	1.451	n/a	stim	poldrack-single-stim	s557	False	1
255.302	3.013	258.315	0.732057727479238	end_round	3.013	columbia_card_task_fmri	15.0	0.8461538461538461	71.0	-75.0	0.1538461538461538	15.0	3.0	2.0	1.2739904862232976	3.013	2.0	stim	poldrack-single-stim	s557	False	1
259.069	1.5	258.318	n/a	-1.0	2.318	columbia_card_task_fmri	n/a	n/a	-1.0	n/a	n/a	n/a	n/a	n/a	n/a	n/a	n/a	ITI	poldrack-single-stim	s557	False	0
260.639	1.599	262.238	4.311544906966419	draw_card	1.599	columbia_card_task_fmri	17.0	0.8666666666666667	89.0	-75.0	0.1333333333333333	15.0	1.0	2.0	0.0759726622397387	1.599	n/a	stim	poldrack-single-stim	s557	False	1
262.24	2.868	265.108	3.435354430775944	draw_card	2.868	columbia_card_task_fmri	17.0	0.8571428571428572	89.0	-75.0	0.1428571428571428	15.0	2.0	2.0	0.995198863683477	2.868	n/a	stim	poldrack-single-stim	s557	False	1
265.109	2.778	267.887	2.4243654197869318	draw_card	2.778	columbia_card_task_fmri	17.0	0.8461538461538461	89.0	-75.0	0.1538461538461538	15.0	3.0	2.0	1.9955333669183304	2.778	3.0	stim	poldrack-single-stim	s557	False	0
268.644	1.5	267.893	n/a	-1.0	2.59	columbia_card_task_fmri	n/a	n/a	-1.0	n/a	n/a	n/a	n/a	n/a	n/a	n/a	n/a	ITI	poldrack-single-stim	s557	False	0
270.487	4.247	274.734	-0.1092884263669152	draw_card	4.247	columbia_card_task_fmri	2.0	0.9375	89.0	-25.0	0.0625	16.0	1.0	1.0	-24.651602239051837	4.247	n/a	stim	poldrack-single-stim	s557	False	1
274.735	2.192	276.927	-0.2217884263669153	draw_card	2.192	columbia_card_task_fmri	2.0	0.9333333333333332	89.0	-25.0	0.0666666666666666	16.0	2.0	1.0	-24.45267992537468	2.192	n/a	stim	poldrack-single-stim	s557	False	1
276.929	1.552	278.481	-0.3503598549383436	draw_card	1.552	columbia_card_task_fmri	2.0	0.9285714285714286	89.0	-25.0	0.0714285714285714	16.0	3.0	1.0	-24.23451403756189	1.552	n/a	stim	poldrack-single-stim	s557	False	1
278.484	1.501	279.985	-0.4987115032899921	draw_card	1.501	columbia_card_task_fmri	2.0	0.9230769230769232	89.0	-25.0	0.0769230769230769	16.0	4.0	1.0	-23.993832187493865	1.501	n/a	stim	poldrack-single-stim	s557	False	1
279.988	2.496	282.484	-0.671788426366915	end_round	2.496	columbia_card_task_fmri	2.0	0.9166666666666666	71.0	-25.0	0.0833333333333333	16.0	5.0	1.0	-23.72654147432697	2.496	4.0	stim	poldrack-single-stim	s557	False	1
283.238	1.5	282.487	n/a	-1.0	2.726	columbia_card_task_fmri	n/a	n/a	-1.0	n/a	n/a	n/a	n/a	n/a	n/a	n/a	n/a	ITI	poldrack-single-stim	s557	False	0
285.216	1.847	287.063	2.0782115736330846	end_round	1.847	columbia_card_task_fmri	9.0	0.9375	71.0	-95.0	0.0625	16.0	1.0	1.0	-6.022932899230071	1.847	0.0	stim	poldrack-single-stim	s557	False	1
287.821	1.5	287.07	n/a	-1.0	2.522	columbia_card_task_fmri	n/a	n/a	-1.0	n/a	n/a	n/a	n/a	n/a	n/a	n/a	n/a	ITI	poldrack-single-stim	s557	False	0
289.595	1.34	290.935	3.6407115736330846	end_round	1.34	columbia_card_task_fmri	11.0	0.9375	71.0	-100.0	0.0625	16.0	1.0	1.0	-4.328725472146846	1.34	0.0	stim	poldrack-single-stim	s557	False	1
291.689	1.5	290.938	n/a	-1.0	3.134	columbia_card_task_fmri	n/a	n/a	-1.0	n/a	n/a	n/a	n/a	n/a	n/a	n/a	n/a	ITI	poldrack-single-stim	s557	False	0
294.075	2.217	296.292	4.203211573633085	draw_card	2.217	columbia_card_task_fmri	16.0	0.875	89.0	-75.0	0.125	16.0	1.0	2.0	-1.1024811545771662	2.217	n/a	stim	poldrack-single-stim	s557	False	1
296.295	0.816	297.111	3.444878240299752	draw_card	0.816	columbia_card_task_fmri	16.0	0.8666666666666667	89.0	-75.0	0.1333333333333333	16.0	2.0	2.0	-0.2639307202173846	0.816	2.0	stim	poldrack-single-stim	s557	False	0
297.866	1.5	297.115	n/a	-1.0	2.386	columbia_card_task_fmri	n/a	n/a	-1.0	n/a	n/a	n/a	n/a	n/a	n/a	n/a	n/a	ITI	poldrack-single-stim	s557	False	0
299.504	2.054	301.558	4.453211573633085	draw_card	2.054	columbia_card_task_fmri	17.0	0.875	89.0	-80.0	0.125	16.0	1.0	2.0	0.8816495278273848	2.054	n/a	stim	poldrack-single-stim	s557	False	1
301.56	1.989	303.549	3.644878240299753	draw_card	1.989	columbia_card_task_fmri	17.0	0.8666666666666667	89.0	-80.0	0.1333333333333333	16.0	2.0	2.0	1.775499238791575	1.989	n/a	stim	poldrack-single-stim	s557	False	1
303.552	3.614	307.166	2.7210687164902305	draw_card	3.614	columbia_card_task_fmri	17.0	0.8571428571428572	89.0	-80.0	0.1428571428571428	16.0	3.0	2.0	2.744691984696189	3.614	3.0	stim	poldrack-single-stim	s557	False	0
307.919	1.5	307.168	n/a	-1.0	2.386	columbia_card_task_fmri	n/a	n/a	-1.0	n/a	n/a	n/a	n/a	n/a	n/a	n/a	n/a	ITI	poldrack-single-stim	s557	False	0
320.566	1.658	322.224	-1.2551217597002475	draw_card	1.658	columbia_card_task_fmri	13.0	0.8333333333333334	89.0	-70.0	0.1666666666666666	6.0	1.0	1.0	-0.2657085819986378	1.658	1.0	stim	poldrack-single-stim	s557	False	0
322.98	1.5	322.229	n/a	-1.0	2.318	columbia_card_task_fmri	n/a	n/a	-1.0	n/a	n/a	n/a	n/a	n/a	n/a	n/a	n/a	ITI	poldrack-single-stim	s557	False	0
324.551	1.207	325.758	-1.2551217597002475	draw_card	1.207	columbia_card_task_fmri	15.0	0.8333333333333334	89.0	-80.0	0.1666666666666666	6.0	1.0	1.0	4.20606416794368	1.207	n/a	stim	poldrack-single-stim	s557	False	1
325.761	0.886	326.647	-4.421788426366915	draw_card	0.886	columbia_card_task_fmri	15.0	0.8	89.0	-80.0	0.2	6.0	2.0	1.0	6.801482926530035	0.886	n/a	stim	poldrack-single-stim	s557	False	1
326.649	1.421	328.07	-9.171788426366914	draw_card	1.421	columbia_card_task_fmri	15.0	0.75	89.0	-80.0	0.25	6.0	3.0	1.0	9.937511155279664	1.421	3.0	stim	poldrack-single-stim	s557	False	0
328.826	1.5	328.075	n/a	-1.0	2.318	columbia_card_task_fmri	n/a	n/a	-1.0	n/a	n/a	n/a	n/a	n/a	n/a	n/a	n/a	ITI	poldrack-single-stim	s557	False	0
330.396	1.856	332.252	0.4115449069664186	draw_card	1.856	columbia_card_task_fmri	16.0	0.8333333333333334	89.0	-75.0	0.1666666666666666	6.0	1.0	1.0	2.7154626091815075	1.856	n/a	stim	poldrack-single-stim	s557	False	1
332.254	3.219	335.473	-2.6217884263669147	draw_card	3.219	columbia_card_task_fmri	16.0	0.8	89.0	-75.0	0.2	6.0	2.0	1.0	5.201585811611807	3.219	2.0	stim	poldrack-single-stim	s557	False	0
336.229	1.5	335.478	n/a	-1.0	2.862	columbia_card_task_fmri	n/a	n/a	-1.0	n/a	n/a	n/a	n/a	n/a	n/a	n/a	n/a	ITI	poldrack-single-stim	s557	False	0
338.343	2.649	340.992	1.5782115736330846	draw_card	2.649	columbia_card_task_fmri	21.0	0.75	89.0	-55.0	0.25	8.0	1.0	2.0	1.7108103639775791	2.649	n/a	stim	poldrack-single-stim	s557	False	1
340.994	4.458	345.452	-1.136074140652629	draw_card	4.458	columbia_card_task_fmri	21.0	0.7142857142857143	89.0	-55.0	0.2857142857142857	8.0	2.0	2.0	3.135033208690388	4.458	n/a	stim	poldrack-single-stim	s557	False	1
345.454	0.683	346.137	-4.755121759700246	end_round	0.683	columbia_card_task_fmri	21.0	0.6666666666666667	71.0	-55.0	0.3333333333333333	8.0	3.0	2.0	4.6283684897798665	0.683	2.0	stim	poldrack-single-stim	s557	False	1
346.892	1.5	346.141	n/a	-1.0	2.726	columbia_card_task_fmri	n/a	n/a	-1.0	n/a	n/a	n/a	n/a	n/a	n/a	n/a	n/a	ITI	poldrack-single-stim	s557	False	0
348.872	1.465	350.337	2.8282115736330846	draw_card	1.465	columbia_card_task_fmri	26.0	0.75	89.0	-65.0	0.25	8.0	1.0	2.0	8.20555539022358	1.465	n/a	stim	poldrack-single-stim	s557	False	1
350.338	2.816	353.154	-0.4217884263669117	draw_card	2.816	columbia_card_task_fmri	26.0	0.7142857142857143	89.0	-65.0	0.2857142857142857	8.0	2.0	2.0	9.910915456623997	2.816	n/a	stim	poldrack-single-stim	s557	False	1
353.157	0.897	354.054	-4.755121759700244	end_round	0.897	columbia_card_task_fmri	26.0	0.6666666666666667	71.0	-65.0	0.3333333333333333	8.0	3.0	2.0	11.699027075152197	0.897	2.0	stim	poldrack-single-stim	s557	False	1
354.809	1.5	354.058	n/a	-1.0	2.25	columbia_card_task_fmri	n/a	n/a	-1.0	n/a	n/a	n/a	n/a	n/a	n/a	n/a	n/a	ITI	poldrack-single-stim	s557	False	0
356.311	1.866	358.177	-2.088455093033581	draw_card	1.866	columbia_card_task_fmri	15.0	0.7777777777777778	89.0	-60.0	0.2222222222222222	9.0	1.0	2.0	-0.017526935971837	1.866	1.0	stim	poldrack-single-stim	s557	False	0
358.933	1.5	358.182	n/a	-1.0	2.318	columbia_card_task_fmri	n/a	n/a	-1.0	n/a	n/a	n/a	n/a	n/a	n/a	n/a	n/a	ITI	poldrack-single-stim	s557	False	0
360.504	1.678	362.182	2.2782115736330857	end_round	1.678	columbia_card_task_fmri	13.0	0.9	71.0	-90.0	0.1	10.0	1.0	1.0	-0.2979792675960162	1.678	0.0	stim	poldrack-single-stim	s557	False	1
362.938	1.5	362.187	n/a	-1.0	2.454	columbia_card_task_fmri	n/a	n/a	-1.0	n/a	n/a	n/a	n/a	n/a	n/a	n/a	n/a	ITI	poldrack-single-stim	s557	False	0
364.645	2.113	366.758	3.5782115736330846	draw_card	2.113	columbia_card_task_fmri	15.0	0.9	89.0	-95.0	0.1	10.0	1.0	1.0	1.80183756453534	2.113	n/a	stim	poldrack-single-stim	s557	False	1
366.76	2.095	368.855	2.3559893514108614	end_round	2.095	columbia_card_task_fmri	15.0	0.8888888888888888	71.0	-95.0	0.1111111111111111	10.0	2.0	1.0	3.3713800437079087	2.095	1.0	stim	poldrack-single-stim	s557	False	1
369.612	1.5	368.861	n/a	-1.0	2.522	columbia_card_task_fmri	n/a	n/a	-1.0	n/a	n/a	n/a	n/a	n/a	n/a	n/a	n/a	ITI	poldrack-single-stim	s557	False	0
371.386	1.961	373.347	-0.6217884263669146	draw_card	1.961	columbia_card_task_fmri	16.0	0.8	89.0	-65.0	0.2	10.0	1.0	2.0	1.2018874756677178	1.961	n/a	stim	poldrack-single-stim	s557	False	1
373.35	1.887	375.237	-2.4217884263669136	end_round	1.887	columbia_card_task_fmri	16.0	0.7777777777777778	71.0	-65.0	0.2222222222222222	10.0	2.0	2.0	2.4767000277198363	1.887	1.0	stim	poldrack-single-stim	s557	False	1
375.99	1.5	375.239	n/a	-1.0	2.318	columbia_card_task_fmri	n/a	n/a	-1.0	n/a	n/a	n/a	n/a	n/a	n/a	n/a	n/a	ITI	poldrack-single-stim	s557	False	0
377.559	2.026	379.585	-1.9217884263669156	end_round	2.026	columbia_card_task_fmri	7.0	0.9166666666666666	71.0	-95.0	0.0833333333333333	12.0	1.0	1.0	-3.006391996774028	2.026	0.0	stim	poldrack-single-stim	s557	False	1
380.34	1.5	379.589	n/a	-1.0	2.522	columbia_card_task_fmri	n/a	n/a	-1.0	n/a	n/a	n/a	n/a	n/a	n/a	n/a	n/a	ITI	poldrack-single-stim	s557	False	0
382.114	1.893	384.007	-1.2551217597002475	draw_card	1.893	columbia_card_task_fmri	14.0	0.8333333333333334	89.0	-75.0	0.1666666666666666	12.0	1.0	2.0	1.970165551594583	1.893	n/a	stim	poldrack-single-stim	s557	False	1
384.009	2.741	386.75	-2.603606608185099	draw_card	2.741	columbia_card_task_fmri	14.0	0.8181818181818181	89.0	-75.0	0.1818181818181818	12.0	2.0	2.0	3.128553492211175	2.741	n/a	stim	poldrack-single-stim	s557	False	1
386.752	0.685	387.437	-4.221788426366914	end_round	0.685	columbia_card_task_fmri	14.0	0.8	71.0	-75.0	0.2	12.0	3.0	2.0	4.401640721834447	0.685	2.0	stim	poldrack-single-stim	s557	False	1
388.195	1.5	387.444	n/a	-1.0	2.998	columbia_card_task_fmri	n/a	n/a	-1.0	n/a	n/a	n/a	n/a	n/a	n/a	n/a	n/a	ITI	poldrack-single-stim	s557	False	0
390.446	3.053	393.499	0.4115449069664186	draw_card	3.053	columbia_card_task_fmri	15.0	0.8333333333333334	89.0	-70.0	0.1666666666666666	12.0	1.0	2.0	0.4795797555784737	3.053	n/a	stim	poldrack-single-stim	s557	False	1
393.502	0.512	394.014	-0.8763338809123721	end_round	0.512	columbia_card_task_fmri	15.0	0.8181818181818181	71.0	-70.0	0.1818181818181818	12.0	2.0	2.0	1.5858969918552577	0.512	1.0	stim	poldrack-single-stim	s557	False	1
394.769	1.5	394.018	n/a	-1.0	2.318	columbia_card_task_fmri	n/a	n/a	-1.0	n/a	n/a	n/a	n/a	n/a	n/a	n/a	n/a	ITI	poldrack-single-stim	s557	False	0
396.34	2.116	398.456	-1.621788426366915	draw_card	2.116	columbia_card_task_fmri	16.0	0.8	89.0	-70.0	0.2	15.0	1.0	3.0	3.2017278753266893	2.116	n/a	stim	poldrack-single-stim	s557	False	1
398.458	2.705	401.163	-2.850359854938344	end_round	2.705	columbia_card_task_fmri	16.0	0.7857142857142857	71.0	-70.0	0.2142857142857142	15.0	2.0	3.0	4.089690495480703	2.705	1.0	stim	poldrack-single-stim	s557	False	1
401.92	1.5	401.169	n/a	-1.0	2.25	columbia_card_task_fmri	n/a	n/a	-1.0	n/a	n/a	n/a	n/a	n/a	n/a	n/a	n/a	ITI	poldrack-single-stim	s557	False	0
403.423	0.726	404.149	-1.2342884263669154	draw_card	0.726	columbia_card_task_fmri	14.0	0.8125	89.0	-65.0	0.1875	16.0	1.0	3.0	-0.3632955528519161	0.726	n/a	stim	poldrack-single-stim	s557	False	1
404.152	1.04	405.192	-2.2217884263669143	end_round	1.04	columbia_card_task_fmri	14.0	0.8	71.0	-65.0	0.2	16.0	2.0	3.0	0.4019569717960607	1.04	1.0	stim	poldrack-single-stim	s557	False	1
405.945	1.5	405.194	n/a	-1.0	2.454	columbia_card_task_fmri	n/a	n/a	-1.0	n/a	n/a	n/a	n/a	n/a	n/a	n/a	n/a	ITI	poldrack-single-stim	s557	False	0
407.652	0.626	408.278	-1.4842884263669154	draw_card	0.626	columbia_card_task_fmri	16.0	0.8125	89.0	-75.0	0.1875	16.0	1.0	3.0	4.320072575730393	0.626	1.0	stim	poldrack-single-stim	s557	False	0
409.031	1.5	408.28	n/a	-1.0	2.318	columbia_card_task_fmri	n/a	n/a	-1.0	n/a	n/a	n/a	n/a	n/a	n/a	n/a	n/a	ITI	poldrack-single-stim	s557	False	0
410.601	1.859	412.46	2.7782115736330857	draw_card	1.859	columbia_card_task_fmri	16.0	0.8666666666666667	89.0	-80.0	0.1333333333333333	15.0	1.0	2.0	1.435592702013885	1.859	n/a	stim	poldrack-single-stim	s557	False	1
412.462	1.018	413.48	1.8639258593473729	draw_card	1.018	columbia_card_task_fmri	16.0	0.8571428571428572	89.0	-80.0	0.1428571428571428	15.0	2.0	2.0	2.394792173889272	1.018	n/a	stim	poldrack-single-stim	s557	False	1
413.483	1.964	415.447	0.8089808044023147	draw_card	1.964	columbia_card_task_fmri	16.0	0.8461538461538461	89.0	-80.0	0.1538461538461538	15.0	3.0	2.0	3.4386265704369805	1.964	n/a	stim	poldrack-single-stim	s557	False	1
415.449	4.66	420.109	-0.4217884263669135	end_round	4.66	columbia_card_task_fmri	16.0	0.8333333333333334	71.0	-80.0	0.1666666666666666	15.0	4.0	2.0	4.5787159953227246	4.66	3.0	stim	poldrack-single-stim	s557	False	1
420.866	1.5	420.115	n/a	-1.0	2.318	columbia_card_task_fmri	n/a	n/a	-1.0	n/a	n/a	n/a	n/a	n/a	n/a	n/a	n/a	ITI	poldrack-single-stim	s557	False	0
422.436	1.715	424.151	3.644878240299753	draw_card	1.715	columbia_card_task_fmri	17.0	0.8666666666666667	89.0	-80.0	0.1333333333333333	15.0	1.0	2.0	1.775499238791575	1.715	n/a	stim	poldrack-single-stim	s557	False	1
424.154	1.079	425.233	2.7210687164902305	draw_card	1.079	columbia_card_task_fmri	17.0	0.8571428571428572	89.0	-80.0	0.1428571428571428	15.0	2.0	2.0	2.744691984696189	1.079	2.0	stim	poldrack-single-stim	s557	False	0
425.986	1.5	425.235	n/a	-1.0	2.59	columbia_card_task_fmri	n/a	n/a	-1.0	n/a	n/a	n/a	n/a	n/a	n/a	n/a	n/a	ITI	poldrack-single-stim	s557	False	0
427.829	1.198	429.027	-0.4217884263669152	draw_card	1.198	columbia_card_task_fmri	1.0	0.9375	89.0	-15.0	0.0625	16.0	1.0	1.0	-27.30497471827778	1.198	n/a	stim	poldrack-single-stim	s557	False	1
429.03	2.144	431.174	-0.4884550930335819	draw_card	2.144	columbia_card_task_fmri	1.0	0.9333333333333332	89.0	-15.0	0.0666666666666666	16.0	2.0	1.0	-27.18753076865034	2.144	n/a	stim	poldrack-single-stim	s557	False	1
431.178	2.307	433.485	-0.5646455692240581	draw_card	2.307	columbia_card_task_fmri	1.0	0.9285714285714286	89.0	-15.0	0.0714285714285714	16.0	3.0	1.0	-27.05869691560666	2.307	n/a	stim	poldrack-single-stim	s557	False	1
433.488	2.963	436.451	-0.6525576571361461	draw_card	2.963	columbia_card_task_fmri	1.0	0.9230769230769232	89.0	-15.0	0.0769230769230769	16.0	4.0	1.0	-26.91653524789487	2.963	n/a	stim	poldrack-single-stim	s557	False	1
436.454	1.603	438.057	-0.7551217597002486	draw_card	1.603	columbia_card_task_fmri	1.0	0.9166666666666666	89.0	-15.0	0.0833333333333333	16.0	5.0	1.0	-26.75862182323508	1.603	n/a	stim	poldrack-single-stim	s557	False	1
438.06	1.185	439.245	-0.87633388091237	draw_card	1.185	columbia_card_task_fmri	1.0	0.9090909090909092	89.0	-15.0	0.0909090909090909	16.0	6.0	1.0	-26.581882839160667	1.185	6.0	stim	poldrack-single-stim	s557	False	0
440.001	1.5	439.25	n/a	-1.0	2.25	columbia_card_task_fmri	n/a	n/a	-1.0	n/a	n/a	n/a	n/a	n/a	n/a	n/a	n/a	ITI	poldrack-single-stim	s557	False	0
441.504	2.042	443.546	2.7032115736330846	end_round	2.042	columbia_card_task_fmri	10.0	0.9375	71.0	-100.0	0.0625	16.0	1.0	1.0	-4.570756840257054	2.042	0.0	stim	poldrack-single-stim	s557	False	1
444.3	1.5	443.549	n/a	-1.0	2.25	columbia_card_task_fmri	n/a	n/a	-1.0	n/a	n/a	n/a	n/a	n/a	n/a	n/a	n/a	ITI	poldrack-single-stim	s557	False	0
445.802	2.565	448.367	3.3282115736330846	draw_card	2.565	columbia_card_task_fmri	15.0	0.875	89.0	-75.0	0.125	16.0	1.0	2.0	-1.4331672323503035	2.565	n/a	stim	poldrack-single-stim	s557	False	1
448.37	1.026	449.396	2.5782115736330846	draw_card	1.026	columbia_card_task_fmri	15.0	0.8666666666666667	89.0	-75.0	0.1333333333333333	16.0	2.0	2.0	-0.6038334082883701	1.026	n/a	stim	poldrack-single-stim	s557	False	1
449.399	1.624	451.023	1.7210687164902287	draw_card	1.624	columbia_card_task_fmri	15.0	0.8571428571428572	89.0	-75.0	0.1428571428571428	16.0	3.0	2.0	0.2954060452203464	1.624	n/a	stim	poldrack-single-stim	s557	False	1
451.026	1.504	452.53	0.732057727479238	end_round	1.504	columbia_card_task_fmri	15.0	0.8461538461538461	71.0	-75.0	0.1538461538461538	16.0	4.0	2.0	1.2739904862232976	1.504	3.0	stim	poldrack-single-stim	s557	False	1
453.286	1.5	452.535	n/a	-1.0	2.522	columbia_card_task_fmri	n/a	n/a	-1.0	n/a	n/a	n/a	n/a	n/a	n/a	n/a	n/a	ITI	poldrack-single-stim	s557	False	0
455.062	1.501	456.563	3.5782115736330846	draw_card	1.501	columbia_card_task_fmri	16.0	0.875	89.0	-80.0	0.125	16.0	1.0	2.0	0.5509594941597804	1.501	n/a	stim	poldrack-single-stim	s557	False	1
456.566	0.536	457.102	2.7782115736330857	draw_card	0.536	columbia_card_task_fmri	16.0	0.8666666666666667	89.0	-80.0	0.1333333333333333	16.0	2.0	2.0	1.435592702013885	0.536	n/a	stim	poldrack-single-stim	s557	False	1
457.104	1.737	458.841	1.8639258593473729	draw_card	1.737	columbia_card_task_fmri	16.0	0.8571428571428572	89.0	-80.0	0.1428571428571428	16.0	3.0	2.0	2.394792173889272	1.737	n/a	stim	poldrack-single-stim	s557	False	1
458.843	0.483	459.326	0.8089808044023147	end_round	0.483	columbia_card_task_fmri	16.0	0.8461538461538461	71.0	-80.0	0.1538461538461538	16.0	4.0	2.0	3.4386265704369805	0.483	3.0	stim	poldrack-single-stim	s557	False	1
460.085	1.5	459.334	n/a	-1.0	2.454	columbia_card_task_fmri	n/a	n/a	-1.0	n/a	n/a	n/a	n/a	n/a	n/a	n/a	n/a	ITI	poldrack-single-stim	s557	False	0
461.791	1.948	463.739	0.7657115736330847	end_round	1.948	columbia_card_task_fmri	4.0	0.6875	71.0	-5.0	0.3125	16.0	1.0	5.0	-27.007977083943064	1.948	0.0	stim	poldrack-single-stim	s557	False	1
464.497	1.5	463.746	n/a	-1.0	2.25	columbia_card_task_fmri	n/a	n/a	-1.0	n/a	n/a	n/a	n/a	n/a	n/a	n/a	n/a	ITI	poldrack-single-stim	s557	False	0
465.999	1.453	467.452	-2.08845509303358	draw_card	1.453	columbia_card_task_fmri	14.0	0.8333333333333334	89.0	-80.0	0.1666666666666666	6.0	1.0	1.0	3.8334128972892287	1.453	1.0	stim	poldrack-single-stim	s557	False	0
468.208	1.5	467.457	n/a	-1.0	2.454	columbia_card_task_fmri	n/a	n/a	-1.0	n/a	n/a	n/a	n/a	n/a	n/a	n/a	n/a	ITI	poldrack-single-stim	s557	False	0
469.916	1.25	471.166	-0.4217884263669152	end_round	1.25	columbia_card_task_fmri	15.0	0.8333333333333334	71.0	-75.0	0.1666666666666666	6.0	1.0	1.0	2.342813753010695	1.25	0.0	stim	poldrack-single-stim	s557	False	1
471.92	1.5	471.169	n/a	-1.0	2.454	columbia_card_task_fmri	n/a	n/a	-1.0	n/a	n/a	n/a	n/a	n/a	n/a	n/a	n/a	ITI	poldrack-single-stim	s557	False	0
473.627	1.081	474.708	1.2448782402997525	draw_card	1.081	columbia_card_task_fmri	16.0	0.8333333333333334	89.0	-70.0	0.1666666666666666	6.0	1.0	1.0	0.8522251042390607	1.081	n/a	stim	poldrack-single-stim	s557	False	1
474.712	1.288	476.0	-1.621788426366915	draw_card	1.288	columbia_card_task_fmri	16.0	0.8	89.0	-70.0	0.2	6.0	2.0	1.0	3.2017278753266893	1.288	n/a	stim	poldrack-single-stim	s557	False	1
476.003	1.152	477.155	-5.921788426366915	end_round	1.152	columbia_card_task_fmri	16.0	0.75	71.0	-70.0	0.25	6.0	3.0	1.0	6.040623115653879	1.152	2.0	stim	poldrack-single-stim	s557	False	1
477.911	1.5	477.16	n/a	-1.0	2.522	columbia_card_task_fmri	n/a	n/a	-1.0	n/a	n/a	n/a	n/a	n/a	n/a	n/a	n/a	ITI	poldrack-single-stim	s557	False	0
479.686	0.701	480.387	1.8282115736330848	draw_card	0.701	columbia_card_task_fmri	23.0	0.75	89.0	-60.0	0.25	8.0	1.0	2.0	4.741671339647951	0.701	1.0	stim	poldrack-single-stim	s557	False	0
481.14	1.5	480.389	n/a	-1.0	2.454	columbia_card_task_fmri	n/a	n/a	-1.0	n/a	n/a	n/a	n/a	n/a	n/a	n/a	n/a	ITI	poldrack-single-stim	s557	False	0
482.848	1.148	483.996	2.3282115736330846	end_round	1.148	columbia_card_task_fmri	27.0	0.75	71.0	-70.0	0.25	8.0	1.0	2.0	10.803491977038128	1.148	0.0	stim	poldrack-single-stim	s557	False	1
484.751	1.5	484.0	n/a	-1.0	2.658	columbia_card_task_fmri	n/a	n/a	-1.0	n/a	n/a	n/a	n/a	n/a	n/a	n/a	n/a	ITI	poldrack-single-stim	s557	False	0
486.662	1.507	488.169	-2.4217884263669136	end_round	1.507	columbia_card_task_fmri	16.0	0.7777777777777778	71.0	-65.0	0.2222222222222222	9.0	1.0	2.0	2.4767000277198363	1.507	0.0	stim	poldrack-single-stim	s557	False	1
488.922	1.5	488.171	n/a	-1.0	2.386	columbia_card_task_fmri	n/a	n/a	-1.0	n/a	n/a	n/a	n/a	n/a	n/a	n/a	n/a	ITI	poldrack-single-stim	s557	False	0
490.561	2.554	493.115	2.7782115736330857	draw_card	2.554	columbia_card_task_fmri	13.0	0.9	89.0	-85.0	0.1	10.0	1.0	1.0	-1.7978324152335254	2.554	n/a	stim	poldrack-single-stim	s557	False	1
493.118	1.331	494.449	1.6893226847441951	draw_card	1.331	columbia_card_task_fmri	13.0	0.8888888888888888	89.0	-85.0	0.1111111111111111	10.0	2.0	1.0	-0.3995410833751052	1.331	n/a	stim	poldrack-single-stim	s557	False	1
494.452	1.083	495.535	0.3282115736330847	end_round	1.083	columbia_card_task_fmri	13.0	0.875	71.0	-85.0	0.125	10.0	3.0	1.0	1.2123401508115066	1.083	2.0	stim	poldrack-single-stim	s557	False	1
496.29	1.5	495.539	n/a	-1.0	2.522	columbia_card_task_fmri	n/a	n/a	-1.0	n/a	n/a	n/a	n/a	n/a	n/a	n/a	n/a	ITI	poldrack-single-stim	s557	False	0
498.064	1.723	499.787	-2.2217884263669143	draw_card	1.723	columbia_card_task_fmri	14.0	0.8	89.0	-65.0	0.2	10.0	1.0	2.0	0.4019569717960607	1.723	1.0	stim	poldrack-single-stim	s557	False	0
500.542	1.5	499.791	n/a	-1.0	2.59	columbia_card_task_fmri	n/a	n/a	-1.0	n/a	n/a	n/a	n/a	n/a	n/a	n/a	n/a	ITI	poldrack-single-stim	s557	False	0
502.385	1.339	503.724	-0.8217884263669138	end_round	1.339	columbia_card_task_fmri	17.0	0.8	71.0	-70.0	0.2	10.0	1.0	2.0	3.601698156393063	1.339	0.0	stim	poldrack-single-stim	s557	False	1
504.479	1.5	503.728	n/a	-1.0	2.386	columbia_card_task_fmri	n/a	n/a	-1.0	n/a	n/a	n/a	n/a	n/a	n/a	n/a	n/a	ITI	poldrack-single-stim	s557	False	0
506.119	1.564	507.683	-2.088455093033581	draw_card	1.564	columbia_card_task_fmri	13.0	0.8333333333333334	89.0	-75.0	0.1666666666666666	12.0	1.0	2.0	1.5975180272507288	1.564	n/a	stim	poldrack-single-stim	s557	False	1
507.686	0.692	508.378	-3.421788426366917	draw_card	0.692	columbia_card_task_fmri	13.0	0.8181818181818181	89.0	-75.0	0.1818181818181818	12.0	2.0	2.0	2.7428883280560896	0.692	n/a	stim	poldrack-single-stim	s557	False	1
508.38	1.784	510.164	-5.021788426366915	end_round	1.784	columbia_card_task_fmri	13.0	0.8	71.0	-75.0	0.2	12.0	3.0	2.0	4.001669112816174	1.784	2.0	stim	poldrack-single-stim	s557	False	1
510.918	1.5	510.167	n/a	-1.0	2.59	columbia_card_task_fmri	n/a	n/a	-1.0	n/a	n/a	n/a	n/a	n/a	n/a	n/a	n/a	ITI	poldrack-single-stim	s557	False	0
512.761	1.035	513.796	-0.4217884263669135	draw_card	1.035	columbia_card_task_fmri	14.0	0.8333333333333334	89.0	-70.0	0.1666666666666666	12.0	1.0	2.0	0.1069351841368657	1.035	n/a	stim	poldrack-single-stim	s557	False	1
513.799	0.033	513.832	-1.6945156990941903	draw_card	0.033	columbia_card_task_fmri	14.0	0.8181818181818181	89.0	-70.0	0.1818181818181818	12.0	2.0	2.0	1.2002346809951092	0.033	n/a	stim	poldrack-single-stim	s557	False	1
513.836	2.93	516.766	-3.2217884263669143	end_round	2.93	columbia_card_task_fmri	14.0	0.8	71.0	-70.0	0.2	12.0	3.0	2.0	2.401789435728894	2.93	2.0	stim	poldrack-single-stim	s557	False	1
517.519	1.5	516.768	n/a	-1.0	2.318	columbia_card_task_fmri	n/a	n/a	-1.0	n/a	n/a	n/a	n/a	n/a	n/a	n/a	n/a	ITI	poldrack-single-stim	s557	False	0
519.09	1.69	520.78	-0.4217884263669135	draw_card	1.69	columbia_card_task_fmri	16.0	0.8333333333333334	89.0	-80.0	0.1666666666666666	12.0	1.0	2.0	4.5787159953227246	1.69	n/a	stim	poldrack-single-stim	s557	False	1
520.782	0.732	521.514	-1.876333880912372	draw_card	0.732	columbia_card_task_fmri	16.0	0.8181818181818181	89.0	-80.0	0.1818181818181818	12.0	2.0	2.0	5.82822681506044	0.732	n/a	stim	poldrack-single-stim	s557	False	1
521.517	1.712	523.229	-3.6217884263669142	draw_card	1.712	columbia_card_task_fmri	16.0	0.8	89.0	-80.0	0.2	12.0	3.0	2.0	7.20145854478524	1.712	n/a	stim	poldrack-single-stim	s557	False	1
523.233	0.517	523.75	-5.755121759700249	end_round	0.517	columbia_card_task_fmri	16.0	0.7777777777777778	71.0	-80.0	0.2222222222222222	12.0	4.0	2.0	8.712382977262735	0.517	3.0	stim	poldrack-single-stim	s557	False	1
524.504	1.5	523.753	n/a	-1.0	2.25	columbia_card_task_fmri	n/a	n/a	-1.0	n/a	n/a	n/a	n/a	n/a	n/a	n/a	n/a	ITI	poldrack-single-stim	s557	False	0
526.007	2.753	528.76	-0.6217884263669146	draw_card	2.753	columbia_card_task_fmri	16.0	0.8	89.0	-65.0	0.2	15.0	1.0	3.0	1.2018874756677178	2.753	n/a	stim	poldrack-single-stim	s557	False	1
528.764	1.878	530.642	-1.7789312835097713	draw_card	1.878	columbia_card_task_fmri	16.0	0.7857142857142857	89.0	-65.0	0.2142857142857142	15.0	2.0	3.0	2.038216563764827	1.878	2.0	stim	poldrack-single-stim	s557	False	0
531.398	1.5	530.647	n/a	-1.0	2.454	columbia_card_task_fmri	n/a	n/a	-1.0	n/a	n/a	n/a	n/a	n/a	n/a	n/a	n/a	ITI	poldrack-single-stim	s557	False	0
533.106	1.667	534.773	-2.2967884263669154	draw_card	1.667	columbia_card_task_fmri	15.0	0.8125	89.0	-75.0	0.1875	16.0	1.0	3.0	3.929788024644196	1.667	1.0	stim	poldrack-single-stim	s557	False	0
535.528	1.5	534.777	n/a	-1.0	3.27	columbia_card_task_fmri	n/a	n/a	-1.0	n/a	n/a	n/a	n/a	n/a	n/a	n/a	n/a	ITI	poldrack-single-stim	s557	False	0
538.052	1.245	539.297	-1.7342884263669154	end_round	1.245	columbia_card_task_fmri	14.0	0.6875	71.0	-35.0	0.3125	16.0	1.0	5.0	-8.484833800000374	1.245	0.0	stim	poldrack-single-stim	s557	False	1
540.051	1.5	539.3	n/a	-1.0	2.25	columbia_card_task_fmri	n/a	n/a	-1.0	n/a	n/a	n/a	n/a	n/a	n/a	n/a	n/a	ITI	poldrack-single-stim	s557	False	0
541.555	2.059	543.614	3.444878240299752	draw_card	2.059	columbia_card_task_fmri	16.0	0.8666666666666667	89.0	-75.0	0.1333333333333333	15.0	1.0	2.0	-0.2639307202173846	2.059	n/a	stim	poldrack-single-stim	s557	False	1
543.617	1.356	544.973	2.5782115736330864	draw_card	1.356	columbia_card_task_fmri	16.0	0.8571428571428572	89.0	-75.0	0.1428571428571428	15.0	2.0	2.0	0.6453021171679438	1.356	n/a	stim	poldrack-single-stim	s557	False	1
544.977	2.017	546.994	1.5782115736330846	draw_card	2.017	columbia_card_task_fmri	16.0	0.8461538461538461	89.0	-75.0	0.1538461538461538	15.0	3.0	2.0	1.634761599447053	2.017	n/a	stim	poldrack-single-stim	s557	False	1
546.997	1.554	548.551	0.4115449069664186	end_round	1.554	columbia_card_task_fmri	16.0	0.8333333333333334	71.0	-75.0	0.1666666666666666	15.0	4.0	2.0	2.7154626091815075	1.554	3.0	stim	poldrack-single-stim	s557	False	1
549.305	1.5	548.554	n/a	-1.0	2.25	columbia_card_task_fmri	n/a	n/a	-1.0	n/a	n/a	n/a	n/a	n/a	n/a	n/a	n/a	ITI	poldrack-single-stim	s557	False	0
550.809	1.821	552.63	4.111544906966418	draw_card	1.821	columbia_card_task_fmri	16.0	0.8666666666666667	89.0	-70.0	0.1333333333333333	15.0	1.0	2.0	-1.9634367323520152	1.821	n/a	stim	poldrack-single-stim	s557	False	1
552.634	1.127	553.761	3.2924972879188	end_round	1.127	columbia_card_task_fmri	16.0	0.8571428571428572	71.0	-70.0	0.1428571428571428	15.0	2.0	2.0	-1.1041710263504465	1.127	1.0	stim	poldrack-single-stim	s557	False	1
554.515	1.5	553.764	n/a	-1.0	2.318	columbia_card_task_fmri	n/a	n/a	-1.0	n/a	n/a	n/a	n/a	n/a	n/a	n/a	n/a	ITI	poldrack-single-stim	s557	False	0
556.087	0.784	556.871	1.4532115736330846	draw_card	0.784	columbia_card_task_fmri	8.0	0.9375	89.0	-90.0	0.0625	16.0	1.0	1.0	-7.475085368074509	0.784	n/a	stim	poldrack-single-stim	s557	False	1
556.874	1.593	558.467	1.0448782402997514	end_round	1.593	columbia_card_task_fmri	8.0	0.9333333333333332	71.0	-90.0	0.0666666666666666	16.0	2.0	1.0	-6.751724387489716	1.593	1.0	stim	poldrack-single-stim	s557	False	1
559.224	1.5	558.473	n/a	-1.0	2.726	columbia_card_task_fmri	n/a	n/a	-1.0	n/a	n/a	n/a	n/a	n/a	n/a	n/a	n/a	ITI	poldrack-single-stim	s557	False	0
561.204	1.76	562.964	3.0157115736330846	end_round	1.76	columbia_card_task_fmri	10.0	0.9375	71.0	-95.0	0.0625	16.0	1.0	1.0	-5.780905085088055	1.76	0.0	stim	poldrack-single-stim	s557	False	1
563.719	1.5	562.968	n/a	-1.0	2.386	columbia_card_task_fmri	n/a	n/a	-1.0	n/a	n/a	n/a	n/a	n/a	n/a	n/a	n/a	ITI	poldrack-single-stim	s557	False	0
565.357	2.029	567.386	3.9532115736330846	draw_card	2.029	columbia_card_task_fmri	15.0	0.875	89.0	-70.0	0.125	16.0	1.0	2.0	-3.0865860338779285	2.029	n/a	stim	poldrack-single-stim	s557	False	1
567.389	1.568	568.957	3.2448782402997507	draw_card	1.568	columbia_card_task_fmri	15.0	0.8666666666666667	89.0	-70.0	0.1333333333333333	16.0	2.0	2.0	-2.3033355752536124	1.568	n/a	stim	poldrack-single-stim	s557	False	1
568.96	1.697	570.657	2.4353544307759423	draw_card	1.697	columbia_card_task_fmri	15.0	0.8571428571428572	89.0	-70.0	0.1428571428571428	16.0	3.0	2.0	-1.4540633628679522	1.697	n/a	stim	poldrack-single-stim	s557	False	1
570.66	2.488	573.148	1.5012884967100062	end_round	2.488	columbia_card_task_fmri	15.0	0.8461538461538461	71.0	-70.0	0.1538461538461538	16.0	4.0	2.0	-0.529854458140008	2.488	3.0	stim	poldrack-single-stim	s557	False	1
573.904	1.5	573.153	n/a	-1.0	2.318	columbia_card_task_fmri	n/a	n/a	-1.0	n/a	n/a	n/a	n/a	n/a	n/a	n/a	n/a	ITI	poldrack-single-stim	s557	False	0
575.475	1.264	576.739	2.9532115736330846	draw_card	1.264	columbia_card_task_fmri	16.0	0.875	89.0	-85.0	0.125	16.0	1.0	2.0	2.2044153806472693	1.264	n/a	stim	poldrack-single-stim	s557	False	1
576.743	1.991	578.734	2.111544906966418	draw_card	1.991	columbia_card_task_fmri	16.0	0.8666666666666667	89.0	-85.0	0.1333333333333333	16.0	2.0	2.0	3.1351309491068733	1.991	n/a	stim	poldrack-single-stim	s557	False	1
578.739	1.417	580.156	1.1496401450616576	draw_card	1.417	columbia_card_task_fmri	16.0	0.8571428571428572	89.0	-85.0	0.1428571428571428	16.0	3.0	2.0	4.144296632339497	1.417	n/a	stim	poldrack-single-stim	s557	False	1
580.159	1.906	582.065	0.0397500351715446	end_round	1.906	columbia_card_task_fmri	16.0	0.8461538461538461	71.0	-85.0	0.1538461538461538	16.0	4.0	2.0	5.242505509302227	1.906	3.0	stim	poldrack-single-stim	s557	False	1
582.821	1.5	582.07	n/a	-1.0	2.25	columbia_card_task_fmri	n/a	n/a	-1.0	n/a	n/a	n/a	n/a	n/a	n/a	n/a	n/a	ITI	poldrack-single-stim	s557	False	0
