duration	onset	block_duration	movement_onset	planning	condition	exp_stage	experiment_exp_id	key_press	problem_id	response_time	trial_id	trial_type	worker_id	junk
4.48	3.014	4.48	7.494	1	UA_with_intermediate	practice	ward_and_allport	71	0.0	4.48	to_hand	poldrack-single-stim	s557	False
0.1	7.496	0.52	8.016	0	UA_with_intermediate	practice	ward_and_allport	82	0.0	0.52	to_board	poldrack-single-stim	s557	False
0.1	8.018	1.681	9.699	0	UA_with_intermediate	practice	ward_and_allport	71	0.0	1.681	to_hand	poldrack-single-stim	s557	False
0.1	9.7	0.446	10.146	0	UA_with_intermediate	practice	ward_and_allport	89	0.0	0.446	to_board	poldrack-single-stim	s557	False
0.1	10.146	1.731	11.877	0	UA_with_intermediate	practice	ward_and_allport	82	0.0	1.731	to_hand	poldrack-single-stim	s557	False
0.1	11.878	0.588	12.466	0	UA_with_intermediate	practice	ward_and_allport	89	0.0	0.588	to_board	poldrack-single-stim	s557	False
1.0	12.47	2.5	12.469	0	UA_with_intermediate	practice	ward_and_allport	-1	0.0	n/a	feedback	poldrack-single-stim	s557	False
6.468	14.973	6.468	21.441	1	UA_with_intermediate	practice	ward_and_allport	89	1.0	6.468	to_hand	poldrack-single-stim	s557	False
0.1	21.442	0.523	21.965	0	UA_with_intermediate	practice	ward_and_allport	82	1.0	0.523	to_board	poldrack-single-stim	s557	False
0.1	21.966	0.556	22.522	0	UA_with_intermediate	practice	ward_and_allport	71	1.0	0.556	to_hand	poldrack-single-stim	s557	False
0.1	22.523	0.532	23.055	0	UA_with_intermediate	practice	ward_and_allport	89	1.0	0.532	to_board	poldrack-single-stim	s557	False
0.1	23.057	0.542	23.599	0	UA_with_intermediate	practice	ward_and_allport	82	1.0	0.542	to_hand	poldrack-single-stim	s557	False
0.1	23.601	0.459	24.06	0	UA_with_intermediate	practice	ward_and_allport	89	1.0	0.459	to_board	poldrack-single-stim	s557	False
1.0	24.064	2.1	24.063	0	UA_with_intermediate	practice	ward_and_allport	-1	1.0	n/a	feedback	poldrack-single-stim	s557	False
5.384	26.165	5.384	31.549	1	UA_without_intermediate	practice	ward_and_allport	82	2.0	5.384	to_hand	poldrack-single-stim	s557	False
0.1	31.551	0.476	32.027	0	UA_without_intermediate	practice	ward_and_allport	89	2.0	0.476	to_board	poldrack-single-stim	s557	False
0.1	32.028	0.701	32.729	0	UA_without_intermediate	practice	ward_and_allport	71	2.0	0.701	to_hand	poldrack-single-stim	s557	False
0.1	32.73	0.435	33.165	0	UA_without_intermediate	practice	ward_and_allport	89	2.0	0.435	to_board	poldrack-single-stim	s557	False
0.1	33.168	0.647	33.815	0	UA_without_intermediate	practice	ward_and_allport	71	2.0	0.647	to_hand	poldrack-single-stim	s557	False
0.1	33.816	0.413	34.229	0	UA_without_intermediate	practice	ward_and_allport	89	2.0	0.413	to_board	poldrack-single-stim	s557	False
1.0	34.232	2.2	34.231	0	UA_without_intermediate	practice	ward_and_allport	-1	2.0	n/a	feedback	poldrack-single-stim	s557	False
4.877	36.434	4.877	41.311	1	UA_without_intermediate	practice	ward_and_allport	71	3.0	4.877	to_hand	poldrack-single-stim	s557	False
0.1	41.311	0.451	41.762	0	UA_without_intermediate	practice	ward_and_allport	89	3.0	0.451	to_board	poldrack-single-stim	s557	False
0.1	41.765	0.975	42.74	0	UA_without_intermediate	practice	ward_and_allport	82	3.0	0.975	to_hand	poldrack-single-stim	s557	False
0.1	42.741	0.499	43.24	0	UA_without_intermediate	practice	ward_and_allport	89	3.0	0.499	to_board	poldrack-single-stim	s557	False
0.1	43.241	0.483	43.724	0	UA_without_intermediate	practice	ward_and_allport	71	3.0	0.483	to_hand	poldrack-single-stim	s557	False
0.1	43.725	0.461	44.186	0	UA_without_intermediate	practice	ward_and_allport	89	3.0	0.461	to_board	poldrack-single-stim	s557	False
1.0	44.192	2.0	44.191	0	UA_without_intermediate	practice	ward_and_allport	-1	3.0	n/a	feedback	poldrack-single-stim	s557	False
7.783	48.198	7.783	55.981	1	PA_with_intermediate	test	ward_and_allport	89	0.0	7.783	to_hand	poldrack-single-stim	s557	False
0.1	55.982	0.471	56.453	0	PA_with_intermediate	test	ward_and_allport	82	0.0	0.471	to_board	poldrack-single-stim	s557	False
0.1	56.455	1.575	58.03	0	PA_with_intermediate	test	ward_and_allport	89	0.0	1.575	to_hand	poldrack-single-stim	s557	False
0.1	58.031	1.07	59.101	0	PA_with_intermediate	test	ward_and_allport	71	0.0	1.07	to_board	poldrack-single-stim	s557	False
0.1	59.102	2.081	61.183	0	PA_with_intermediate	test	ward_and_allport	82	0.0	2.081	to_hand	poldrack-single-stim	s557	False
0.1	61.185	0.403	61.588	0	PA_with_intermediate	test	ward_and_allport	89	0.0	0.403	to_board	poldrack-single-stim	s557	False
1.0	61.593	3.768	61.592	0	PA_with_intermediate	test	ward_and_allport	-1	0.0	n/a	feedback	poldrack-single-stim	s557	False
4.371	65.363	4.371	69.734	1	PA_with_intermediate	test	ward_and_allport	89	1.0	4.371	to_hand	poldrack-single-stim	s557	False
0.1	69.734	0.651	70.385	0	PA_with_intermediate	test	ward_and_allport	71	1.0	0.651	to_board	poldrack-single-stim	s557	False
0.1	70.388	0.674	71.062	0	PA_with_intermediate	test	ward_and_allport	89	1.0	0.674	to_hand	poldrack-single-stim	s557	False
0.1	71.063	0.49	71.553	0	PA_with_intermediate	test	ward_and_allport	82	1.0	0.49	to_board	poldrack-single-stim	s557	False
0.1	71.554	0.633	72.187	0	PA_with_intermediate	test	ward_and_allport	71	1.0	0.633	to_hand	poldrack-single-stim	s557	False
0.1	72.189	0.439	72.628	0	PA_with_intermediate	test	ward_and_allport	89	1.0	0.439	to_board	poldrack-single-stim	s557	False
1.0	72.633	2.68	72.632	0	PA_with_intermediate	test	ward_and_allport	-1	1.0	n/a	feedback	poldrack-single-stim	s557	False
4.785	75.314	4.785	80.099	1	PA_without_intermediate	test	ward_and_allport	82	2.0	4.785	to_hand	poldrack-single-stim	s557	False
0.1	80.101	0.486	80.587	0	PA_without_intermediate	test	ward_and_allport	71	2.0	0.486	to_board	poldrack-single-stim	s557	False
0.1	80.589	0.723	81.312	0	PA_without_intermediate	test	ward_and_allport	82	2.0	0.723	to_hand	poldrack-single-stim	s557	False
0.1	81.314	0.604	81.918	0	PA_without_intermediate	test	ward_and_allport	71	2.0	0.604	to_board	poldrack-single-stim	s557	False
0.1	81.92	1.204	83.124	0	PA_without_intermediate	test	ward_and_allport	82	2.0	1.204	to_hand	poldrack-single-stim	s557	False
0.1	83.125	0.437	83.562	0	PA_without_intermediate	test	ward_and_allport	89	2.0	0.437	to_board	poldrack-single-stim	s557	False
1.0	83.567	3.224	83.566	0	PA_without_intermediate	test	ward_and_allport	-1	2.0	n/a	feedback	poldrack-single-stim	s557	False
2.081	86.793	2.081	88.874	1	PA_without_intermediate	test	ward_and_allport	71	3.0	2.081	to_hand	poldrack-single-stim	s557	False
0.1	88.875	0.488	89.363	0	PA_without_intermediate	test	ward_and_allport	89	3.0	0.488	to_board	poldrack-single-stim	s557	False
0.1	89.366	0.626	89.992	0	PA_without_intermediate	test	ward_and_allport	71	3.0	0.626	to_hand	poldrack-single-stim	s557	False
0.1	89.993	0.551	90.544	0	PA_without_intermediate	test	ward_and_allport	89	3.0	0.551	to_board	poldrack-single-stim	s557	False
0.1	90.547	1.029	91.576	0	PA_without_intermediate	test	ward_and_allport	71	3.0	1.029	to_hand	poldrack-single-stim	s557	False
0.1	91.576	0.453	92.029	0	PA_without_intermediate	test	ward_and_allport	82	3.0	0.453	to_board	poldrack-single-stim	s557	False
1.0	92.033	3.36	92.032	0	PA_without_intermediate	test	ward_and_allport	-1	3.0	n/a	feedback	poldrack-single-stim	s557	False
3.066	95.395	3.066	98.461	1	PA_without_intermediate	test	ward_and_allport	89	4.0	3.066	to_hand	poldrack-single-stim	s557	False
0.1	98.463	0.484	98.947	0	PA_without_intermediate	test	ward_and_allport	71	4.0	0.484	to_board	poldrack-single-stim	s557	False
0.1	98.949	1.155	100.104	0	PA_without_intermediate	test	ward_and_allport	89	4.0	1.155	to_hand	poldrack-single-stim	s557	False
0.1	100.105	0.499	100.604	0	PA_without_intermediate	test	ward_and_allport	82	4.0	0.499	to_board	poldrack-single-stim	s557	False
0.1	100.608	0.613	101.221	0	PA_without_intermediate	test	ward_and_allport	89	4.0	0.613	to_hand	poldrack-single-stim	s557	False
0.1	101.221	0.382	101.603	0	PA_without_intermediate	test	ward_and_allport	71	4.0	0.382	to_board	poldrack-single-stim	s557	False
1.0	101.607	2.0	101.606	0	PA_without_intermediate	test	ward_and_allport	-1	4.0	n/a	feedback	poldrack-single-stim	s557	False
2.326	103.609	2.326	105.935	1	PA_without_intermediate	test	ward_and_allport	71	5.0	2.326	to_hand	poldrack-single-stim	s557	False
0.1	105.936	0.48	106.416	0	PA_without_intermediate	test	ward_and_allport	82	5.0	0.48	to_board	poldrack-single-stim	s557	False
0.1	106.418	2.616	109.034	0	PA_without_intermediate	test	ward_and_allport	71	5.0	2.616	to_hand	poldrack-single-stim	s557	False
0.1	109.035	0.324	109.359	0	PA_without_intermediate	test	ward_and_allport	89	5.0	0.324	to_board	poldrack-single-stim	s557	False
0.1	109.362	0.615	109.977	0	PA_without_intermediate	test	ward_and_allport	71	5.0	0.615	to_hand	poldrack-single-stim	s557	False
0.1	109.978	0.622	110.6	0	PA_without_intermediate	test	ward_and_allport	82	5.0	0.622	to_board	poldrack-single-stim	s557	False
1.0	110.607	2.408	110.606	0	PA_without_intermediate	test	ward_and_allport	-1	5.0	n/a	feedback	poldrack-single-stim	s557	False
3.98	113.019	3.98	116.999	1	PA_with_intermediate	test	ward_and_allport	71	6.0	3.98	to_hand	poldrack-single-stim	s557	False
0.1	116.999	0.567	117.566	0	PA_with_intermediate	test	ward_and_allport	89	6.0	0.567	to_board	poldrack-single-stim	s557	False
0.1	117.568	0.629	118.197	0	PA_with_intermediate	test	ward_and_allport	71	6.0	0.629	to_hand	poldrack-single-stim	s557	False
0.1	118.199	0.387	118.586	0	PA_with_intermediate	test	ward_and_allport	82	6.0	0.387	to_board	poldrack-single-stim	s557	False
0.1	118.589	1.183	119.772	0	PA_with_intermediate	test	ward_and_allport	89	6.0	1.183	to_hand	poldrack-single-stim	s557	False
0.1	119.772	0.557	120.329	0	PA_with_intermediate	test	ward_and_allport	82	6.0	0.557	to_board	poldrack-single-stim	s557	False
1.0	120.335	2.136	120.334	0	PA_with_intermediate	test	ward_and_allport	-1	6.0	n/a	feedback	poldrack-single-stim	s557	False
4.619	122.475	4.619	127.094	1	PA_without_intermediate	test	ward_and_allport	82	7.0	4.619	to_hand	poldrack-single-stim	s557	False
0.1	127.095	0.461	127.556	0	PA_without_intermediate	test	ward_and_allport	89	7.0	0.461	to_board	poldrack-single-stim	s557	False
0.1	127.559	1.012	128.571	0	PA_without_intermediate	test	ward_and_allport	82	7.0	1.012	to_hand	poldrack-single-stim	s557	False
0.1	128.572	0.622	129.194	0	PA_without_intermediate	test	ward_and_allport	71	7.0	0.622	to_board	poldrack-single-stim	s557	False
0.1	129.198	0.521	129.719	0	PA_without_intermediate	test	ward_and_allport	82	7.0	0.521	to_hand	poldrack-single-stim	s557	False
0.1	129.721	0.481	130.202	0	PA_without_intermediate	test	ward_and_allport	89	7.0	0.481	to_board	poldrack-single-stim	s557	False
1.0	130.208	5.128	130.207	0	PA_without_intermediate	test	ward_and_allport	-1	7.0	n/a	feedback	poldrack-single-stim	s557	False
1.807	135.34	1.807	137.147	1	PA_without_intermediate	test	ward_and_allport	89	8.0	1.807	to_hand	poldrack-single-stim	s557	False
0.1	137.148	0.298	137.446	0	PA_without_intermediate	test	ward_and_allport	82	8.0	0.298	to_board	poldrack-single-stim	s557	False
0.1	137.449	1.28	138.729	0	PA_without_intermediate	test	ward_and_allport	89	8.0	1.28	to_hand	poldrack-single-stim	s557	False
0.1	138.73	0.687	139.417	0	PA_without_intermediate	test	ward_and_allport	71	8.0	0.687	to_board	poldrack-single-stim	s557	False
0.1	139.42	0.44	139.86	0	PA_without_intermediate	test	ward_and_allport	89	8.0	0.44	to_hand	poldrack-single-stim	s557	False
0.1	139.86	0.844	140.704	0	PA_without_intermediate	test	ward_and_allport	82	8.0	0.844	to_board	poldrack-single-stim	s557	False
1.0	140.709	2.136	140.708	0	PA_without_intermediate	test	ward_and_allport	-1	8.0	n/a	feedback	poldrack-single-stim	s557	False
1.915	142.847	1.915	144.762	1	PA_without_intermediate	test	ward_and_allport	82	9.0	1.915	to_hand	poldrack-single-stim	s557	False
0.1	144.763	0.372	145.135	0	PA_without_intermediate	test	ward_and_allport	71	9.0	0.372	to_board	poldrack-single-stim	s557	False
0.1	145.139	1.328	146.467	0	PA_without_intermediate	test	ward_and_allport	82	9.0	1.328	to_hand	poldrack-single-stim	s557	False
0.1	146.467	0.332	146.799	0	PA_without_intermediate	test	ward_and_allport	89	9.0	0.332	to_board	poldrack-single-stim	s557	False
0.1	146.803	1.12	147.923	0	PA_without_intermediate	test	ward_and_allport	82	9.0	1.12	to_hand	poldrack-single-stim	s557	False
0.1	147.924	0.33	148.254	0	PA_without_intermediate	test	ward_and_allport	71	9.0	0.33	to_board	poldrack-single-stim	s557	False
1.0	148.261	5.264	148.26	0	PA_without_intermediate	test	ward_and_allport	-1	9.0	n/a	feedback	poldrack-single-stim	s557	False
3.297	153.528	3.297	156.825	1	PA_with_intermediate	test	ward_and_allport	89	10.0	3.297	to_hand	poldrack-single-stim	s557	False
0.1	156.827	0.469	157.296	0	PA_with_intermediate	test	ward_and_allport	71	10.0	0.469	to_board	poldrack-single-stim	s557	False
0.1	157.298	0.607	157.905	0	PA_with_intermediate	test	ward_and_allport	89	10.0	0.607	to_hand	poldrack-single-stim	s557	False
0.1	157.907	0.512	158.419	0	PA_with_intermediate	test	ward_and_allport	82	10.0	0.512	to_board	poldrack-single-stim	s557	False
0.1	158.424	0.573	158.997	0	PA_with_intermediate	test	ward_and_allport	71	10.0	0.573	to_hand	poldrack-single-stim	s557	False
0.1	158.997	0.405	159.402	0	PA_with_intermediate	test	ward_and_allport	89	10.0	0.405	to_board	poldrack-single-stim	s557	False
1.0	159.408	4.04	159.407	0	PA_with_intermediate	test	ward_and_allport	-1	10.0	n/a	feedback	poldrack-single-stim	s557	False
1.387	163.452	1.387	164.839	1	PA_with_intermediate	test	ward_and_allport	71	11.0	1.387	to_hand	poldrack-single-stim	s557	False
0.1	164.841	2.002	166.843	0	PA_with_intermediate	test	ward_and_allport	82	11.0	2.002	to_board	poldrack-single-stim	s557	False
0.1	166.848	0.789	167.637	0	PA_with_intermediate	test	ward_and_allport	71	11.0	0.789	to_hand	poldrack-single-stim	s557	False
0.1	167.638	0.669	168.307	0	PA_with_intermediate	test	ward_and_allport	89	11.0	0.669	to_board	poldrack-single-stim	s557	False
0.1	168.31	0.653	168.963	0	PA_with_intermediate	test	ward_and_allport	82	11.0	0.653	to_hand	poldrack-single-stim	s557	False
0.1	168.965	1.009	169.974	0	PA_with_intermediate	test	ward_and_allport	89	11.0	1.009	to_board	poldrack-single-stim	s557	False
1.0	169.979	2.136	169.978	0	PA_with_intermediate	test	ward_and_allport	-1	11.0	n/a	feedback	poldrack-single-stim	s557	False
3.568	172.12	3.568	175.688	1	PA_with_intermediate	test	ward_and_allport	71	12.0	3.568	to_hand	poldrack-single-stim	s557	False
0.1	175.69	0.495	176.185	0	PA_with_intermediate	test	ward_and_allport	89	12.0	0.495	to_board	poldrack-single-stim	s557	False
0.1	176.188	0.813	177.001	0	PA_with_intermediate	test	ward_and_allport	71	12.0	0.813	to_hand	poldrack-single-stim	s557	False
0.1	177.003	0.514	177.517	0	PA_with_intermediate	test	ward_and_allport	82	12.0	0.514	to_board	poldrack-single-stim	s557	False
0.1	177.521	1.185	178.706	0	PA_with_intermediate	test	ward_and_allport	89	12.0	1.185	to_hand	poldrack-single-stim	s557	False
0.1	178.707	0.468	179.175	0	PA_with_intermediate	test	ward_and_allport	82	12.0	0.468	to_board	poldrack-single-stim	s557	False
1.0	179.18	2.408	179.179	0	PA_with_intermediate	test	ward_and_allport	-1	12.0	n/a	feedback	poldrack-single-stim	s557	False
1.72	181.591	1.72	183.311	1	PA_without_intermediate	test	ward_and_allport	82	13.0	1.72	to_hand	poldrack-single-stim	s557	False
0.1	183.313	0.313	183.626	0	PA_without_intermediate	test	ward_and_allport	89	13.0	0.313	to_board	poldrack-single-stim	s557	False
0.1	183.629	0.473	184.102	0	PA_without_intermediate	test	ward_and_allport	82	13.0	0.473	to_hand	poldrack-single-stim	s557	False
0.1	184.104	1.181	185.285	0	PA_without_intermediate	test	ward_and_allport	89	13.0	1.181	to_board	poldrack-single-stim	s557	False
0.1	185.288	1.277	186.565	0	PA_without_intermediate	test	ward_and_allport	82	13.0	1.277	to_hand	poldrack-single-stim	s557	False
0.1	186.568	0.316	186.884	0	PA_without_intermediate	test	ward_and_allport	71	13.0	0.316	to_board	poldrack-single-stim	s557	False
1.0	186.889	2.68	186.888	0	PA_without_intermediate	test	ward_and_allport	-1	13.0	n/a	feedback	poldrack-single-stim	s557	False
4.331	189.573	4.331	193.904	1	PA_with_intermediate	test	ward_and_allport	82	14.0	4.331	to_hand	poldrack-single-stim	s557	False
0.1	193.905	0.421	194.326	0	PA_with_intermediate	test	ward_and_allport	89	14.0	0.421	to_board	poldrack-single-stim	s557	False
0.1	194.329	0.515	194.844	0	PA_with_intermediate	test	ward_and_allport	82	14.0	0.515	to_hand	poldrack-single-stim	s557	False
0.1	194.846	3.003	197.849	0	PA_with_intermediate	test	ward_and_allport	71	14.0	3.003	to_board	poldrack-single-stim	s557	False
0.1	197.855	0.496	198.351	0	PA_with_intermediate	test	ward_and_allport	89	14.0	0.496	to_hand	poldrack-single-stim	s557	False
0.1	198.352	0.395	198.747	0	PA_with_intermediate	test	ward_and_allport	82	14.0	0.395	to_board	poldrack-single-stim	s557	False
0.1	198.751	0.503	199.254	0	PA_with_intermediate	test	ward_and_allport	71	14.0	0.503	to_hand	poldrack-single-stim	s557	False
0.1	199.256	0.304	199.56	0	PA_with_intermediate	test	ward_and_allport	89	14.0	0.304	to_board	poldrack-single-stim	s557	False
0.1	199.564	1.162	200.726	0	PA_with_intermediate	test	ward_and_allport	82	14.0	1.162	to_hand	poldrack-single-stim	s557	False
0.1	200.727	0.424	201.151	0	PA_with_intermediate	test	ward_and_allport	89	14.0	0.424	to_board	poldrack-single-stim	s557	False
1.0	201.156	4.72	201.155	0	PA_with_intermediate	test	ward_and_allport	-1	14.0	n/a	feedback	poldrack-single-stim	s557	False
4.045	210.883	4.045	214.928	1	PA_without_intermediate	test	ward_and_allport	71	15.0	4.045	to_hand	poldrack-single-stim	s557	False
0.1	214.929	0.235	215.164	0	PA_without_intermediate	test	ward_and_allport	82	15.0	0.235	to_board	poldrack-single-stim	s557	False
0.1	215.167	0.479	215.646	0	PA_without_intermediate	test	ward_and_allport	71	15.0	0.479	to_hand	poldrack-single-stim	s557	False
0.1	215.647	0.284	215.931	0	PA_without_intermediate	test	ward_and_allport	82	15.0	0.284	to_board	poldrack-single-stim	s557	False
0.1	215.934	0.576	216.51	0	PA_without_intermediate	test	ward_and_allport	71	15.0	0.576	to_hand	poldrack-single-stim	s557	False
0.1	216.511	0.175	216.686	0	PA_without_intermediate	test	ward_and_allport	89	15.0	0.175	to_board	poldrack-single-stim	s557	False
1.0	216.695	3.224	216.694	0	PA_without_intermediate	test	ward_and_allport	-1	15.0	n/a	feedback	poldrack-single-stim	s557	False
2.06	219.922	2.06	221.982	1	PA_without_intermediate	test	ward_and_allport	82	16.0	2.06	to_hand	poldrack-single-stim	s557	False
0.1	221.984	0.405	222.389	0	PA_without_intermediate	test	ward_and_allport	71	16.0	0.405	to_board	poldrack-single-stim	s557	False
0.1	222.392	0.658	223.05	0	PA_without_intermediate	test	ward_and_allport	82	16.0	0.658	to_hand	poldrack-single-stim	s557	False
0.1	223.051	0.375	223.426	0	PA_without_intermediate	test	ward_and_allport	71	16.0	0.375	to_board	poldrack-single-stim	s557	False
0.1	223.429	0.701	224.13	0	PA_without_intermediate	test	ward_and_allport	82	16.0	0.701	to_hand	poldrack-single-stim	s557	False
0.1	224.132	0.301	224.433	0	PA_without_intermediate	test	ward_and_allport	89	16.0	0.301	to_board	poldrack-single-stim	s557	False
1.0	224.439	2.272	224.438	0	PA_without_intermediate	test	ward_and_allport	-1	16.0	n/a	feedback	poldrack-single-stim	s557	False
1.233	226.716	1.233	227.949	1	PA_with_intermediate	test	ward_and_allport	71	17.0	1.233	to_hand	poldrack-single-stim	s557	False
0.1	227.951	1.421	229.372	0	PA_with_intermediate	test	ward_and_allport	82	17.0	1.421	to_board	poldrack-single-stim	s557	False
0.1	229.375	1.175	230.55	0	PA_with_intermediate	test	ward_and_allport	71	17.0	1.175	to_hand	poldrack-single-stim	s557	False
0.1	230.551	0.357	230.908	0	PA_with_intermediate	test	ward_and_allport	89	17.0	0.357	to_board	poldrack-single-stim	s557	False
0.1	230.913	1.55	232.463	0	PA_with_intermediate	test	ward_and_allport	82	17.0	1.55	to_hand	poldrack-single-stim	s557	False
0.1	232.463	0.292	232.755	0	PA_with_intermediate	test	ward_and_allport	71	17.0	0.292	to_board	poldrack-single-stim	s557	False
1.0	232.762	3.632	232.761	0	PA_with_intermediate	test	ward_and_allport	-1	17.0	n/a	feedback	poldrack-single-stim	s557	False
3.47	236.399	3.47	239.869	1	PA_without_intermediate	test	ward_and_allport	71	18.0	3.47	to_hand	poldrack-single-stim	s557	False
0.1	239.87	0.345	240.215	0	PA_without_intermediate	test	ward_and_allport	82	18.0	0.345	to_board	poldrack-single-stim	s557	False
0.1	240.219	0.342	240.561	0	PA_without_intermediate	test	ward_and_allport	71	18.0	0.342	to_hand	poldrack-single-stim	s557	False
0.1	240.562	0.423	240.985	0	PA_without_intermediate	test	ward_and_allport	89	18.0	0.423	to_board	poldrack-single-stim	s557	False
0.1	240.989	0.393	241.382	0	PA_without_intermediate	test	ward_and_allport	71	18.0	0.393	to_hand	poldrack-single-stim	s557	False
0.1	241.383	0.384	241.767	0	PA_without_intermediate	test	ward_and_allport	82	18.0	0.384	to_board	poldrack-single-stim	s557	False
1.0	241.773	2.408	241.772	0	PA_without_intermediate	test	ward_and_allport	-1	18.0	n/a	feedback	poldrack-single-stim	s557	False
2.663	244.186	2.663	246.849	1	PA_without_intermediate	test	ward_and_allport	82	19.0	2.663	to_hand	poldrack-single-stim	s557	False
0.1	246.851	0.25	247.101	0	PA_without_intermediate	test	ward_and_allport	89	19.0	0.25	to_board	poldrack-single-stim	s557	False
0.1	247.105	0.58	247.685	0	PA_without_intermediate	test	ward_and_allport	82	19.0	0.58	to_hand	poldrack-single-stim	s557	False
0.1	247.687	0.299	247.986	0	PA_without_intermediate	test	ward_and_allport	89	19.0	0.299	to_board	poldrack-single-stim	s557	False
0.1	247.99	0.862	248.852	0	PA_without_intermediate	test	ward_and_allport	82	19.0	0.862	to_hand	poldrack-single-stim	s557	False
0.1	248.853	0.225	249.078	0	PA_without_intermediate	test	ward_and_allport	71	19.0	0.225	to_board	poldrack-single-stim	s557	False
1.0	249.083	2.0	249.082	0	PA_without_intermediate	test	ward_and_allport	-1	19.0	n/a	feedback	poldrack-single-stim	s557	False
5.001	251.087	5.001	256.088	1	PA_with_intermediate	test	ward_and_allport	82	20.0	5.001	to_hand	poldrack-single-stim	s557	False
0.1	256.089	0.375	256.464	0	PA_with_intermediate	test	ward_and_allport	89	20.0	0.375	to_board	poldrack-single-stim	s557	False
0.1	256.469	0.87	257.339	0	PA_with_intermediate	test	ward_and_allport	82	20.0	0.87	to_hand	poldrack-single-stim	s557	False
0.1	257.34	0.359	257.699	0	PA_with_intermediate	test	ward_and_allport	71	20.0	0.359	to_board	poldrack-single-stim	s557	False
0.1	257.703	1.934	259.637	0	PA_with_intermediate	test	ward_and_allport	89	20.0	1.934	to_hand	poldrack-single-stim	s557	False
0.1	259.639	0.204	259.843	0	PA_with_intermediate	test	ward_and_allport	82	20.0	0.204	to_board	poldrack-single-stim	s557	False
1.0	259.851	2.0	259.85	0	PA_with_intermediate	test	ward_and_allport	-1	20.0	n/a	feedback	poldrack-single-stim	s557	False
3.181	261.856	3.181	265.037	1	PA_with_intermediate	test	ward_and_allport	71	21.0	3.181	to_hand	poldrack-single-stim	s557	False
0.1	265.039	0.391	265.43	0	PA_with_intermediate	test	ward_and_allport	89	21.0	0.391	to_board	poldrack-single-stim	s557	False
0.1	265.434	0.453	265.887	0	PA_with_intermediate	test	ward_and_allport	71	21.0	0.453	to_hand	poldrack-single-stim	s557	False
0.1	265.887	0.42	266.307	0	PA_with_intermediate	test	ward_and_allport	82	21.0	0.42	to_board	poldrack-single-stim	s557	False
0.1	266.311	0.687	266.998	0	PA_with_intermediate	test	ward_and_allport	89	21.0	0.687	to_hand	poldrack-single-stim	s557	False
0.1	266.999	0.345	267.344	0	PA_with_intermediate	test	ward_and_allport	71	21.0	0.345	to_board	poldrack-single-stim	s557	False
1.0	267.35	2.0	267.349	0	PA_with_intermediate	test	ward_and_allport	-1	21.0	n/a	feedback	poldrack-single-stim	s557	False
2.781	269.354	2.781	272.135	1	PA_with_intermediate	test	ward_and_allport	71	22.0	2.781	to_hand	poldrack-single-stim	s557	False
0.1	272.135	0.769	272.904	0	PA_with_intermediate	test	ward_and_allport	82	22.0	0.769	to_board	poldrack-single-stim	s557	False
0.1	272.909	0.614	273.523	0	PA_with_intermediate	test	ward_and_allport	71	22.0	0.614	to_hand	poldrack-single-stim	s557	False
0.1	273.525	0.427	273.952	0	PA_with_intermediate	test	ward_and_allport	89	22.0	0.427	to_board	poldrack-single-stim	s557	False
0.1	273.958	0.625	274.583	0	PA_with_intermediate	test	ward_and_allport	82	22.0	0.625	to_hand	poldrack-single-stim	s557	False
0.1	274.583	0.331	274.914	0	PA_with_intermediate	test	ward_and_allport	71	22.0	0.331	to_board	poldrack-single-stim	s557	False
1.0	274.921	2.408	274.92	0	PA_with_intermediate	test	ward_and_allport	-1	22.0	n/a	feedback	poldrack-single-stim	s557	False
5.344	277.335	5.344	282.679	1	PA_without_intermediate	test	ward_and_allport	71	23.0	5.344	to_hand	poldrack-single-stim	s557	False
0.1	282.679	0.384	283.063	0	PA_without_intermediate	test	ward_and_allport	89	23.0	0.384	to_board	poldrack-single-stim	s557	False
0.1	283.068	0.479	283.547	0	PA_without_intermediate	test	ward_and_allport	71	23.0	0.479	to_hand	poldrack-single-stim	s557	False
0.1	283.548	0.411	283.959	0	PA_without_intermediate	test	ward_and_allport	82	23.0	0.411	to_board	poldrack-single-stim	s557	False
0.1	283.965	0.809	284.774	0	PA_without_intermediate	test	ward_and_allport	71	23.0	0.809	to_hand	poldrack-single-stim	s557	False
0.1	284.774	0.352	285.126	0	PA_without_intermediate	test	ward_and_allport	89	23.0	0.352	to_board	poldrack-single-stim	s557	False
1.0	285.137	2.816	285.136	0	PA_without_intermediate	test	ward_and_allport	-1	23.0	n/a	feedback	poldrack-single-stim	s557	False
3.412	287.959	3.412	291.371	1	PA_with_intermediate	test	ward_and_allport	82	24.0	3.412	to_hand	poldrack-single-stim	s557	False
0.1	291.372	0.395	291.767	0	PA_with_intermediate	test	ward_and_allport	89	24.0	0.395	to_board	poldrack-single-stim	s557	False
0.1	291.773	1.619	293.392	0	PA_with_intermediate	test	ward_and_allport	82	24.0	1.619	to_hand	poldrack-single-stim	s557	False
0.1	293.394	0.395	293.789	0	PA_with_intermediate	test	ward_and_allport	71	24.0	0.395	to_board	poldrack-single-stim	s557	False
0.1	293.794	1.259	295.053	0	PA_with_intermediate	test	ward_and_allport	89	24.0	1.259	to_hand	poldrack-single-stim	s557	False
0.1	295.055	0.372	295.427	0	PA_with_intermediate	test	ward_and_allport	82	24.0	0.372	to_board	poldrack-single-stim	s557	False
1.0	295.436	4.176	295.435	0	PA_with_intermediate	test	ward_and_allport	-1	24.0	n/a	feedback	poldrack-single-stim	s557	False
2.774	299.618	2.774	302.392	1	PA_with_intermediate	test	ward_and_allport	89	25.0	2.774	to_hand	poldrack-single-stim	s557	False
0.1	302.392	0.371	302.763	0	PA_with_intermediate	test	ward_and_allport	82	25.0	0.371	to_board	poldrack-single-stim	s557	False
0.1	302.77	1.028	303.798	0	PA_with_intermediate	test	ward_and_allport	89	25.0	1.028	to_hand	poldrack-single-stim	s557	False
0.1	303.799	0.373	304.172	0	PA_with_intermediate	test	ward_and_allport	71	25.0	0.373	to_board	poldrack-single-stim	s557	False
0.1	304.177	0.699	304.876	0	PA_with_intermediate	test	ward_and_allport	82	25.0	0.699	to_hand	poldrack-single-stim	s557	False
0.1	304.877	0.272	305.149	0	PA_with_intermediate	test	ward_and_allport	89	25.0	0.272	to_board	poldrack-single-stim	s557	False
1.0	305.159	3.36	305.158	0	PA_with_intermediate	test	ward_and_allport	-1	25.0	n/a	feedback	poldrack-single-stim	s557	False
1.304	308.524	1.304	309.828	1	PA_with_intermediate	test	ward_and_allport	89	26.0	1.304	to_hand	poldrack-single-stim	s557	False
0.1	309.83	1.64	311.47	0	PA_with_intermediate	test	ward_and_allport	71	26.0	1.64	to_board	poldrack-single-stim	s557	False
0.1	311.475	0.65	312.125	0	PA_with_intermediate	test	ward_and_allport	89	26.0	0.65	to_hand	poldrack-single-stim	s557	False
0.1	312.125	0.342	312.467	0	PA_with_intermediate	test	ward_and_allport	82	26.0	0.342	to_board	poldrack-single-stim	s557	False
0.1	312.473	0.539	313.012	0	PA_with_intermediate	test	ward_and_allport	71	26.0	0.539	to_hand	poldrack-single-stim	s557	False
0.1	313.013	0.393	313.406	0	PA_with_intermediate	test	ward_and_allport	82	26.0	0.393	to_board	poldrack-single-stim	s557	False
1.0	313.415	2.0	313.414	0	PA_with_intermediate	test	ward_and_allport	-1	26.0	n/a	feedback	poldrack-single-stim	s557	False
1.717	315.422	1.717	317.139	1	PA_without_intermediate	test	ward_and_allport	89	27.0	1.717	to_hand	poldrack-single-stim	s557	False
0.1	317.14	0.351	317.491	0	PA_without_intermediate	test	ward_and_allport	82	27.0	0.351	to_board	poldrack-single-stim	s557	False
0.1	317.498	1.32	318.818	0	PA_without_intermediate	test	ward_and_allport	89	27.0	1.32	to_hand	poldrack-single-stim	s557	False
0.1	318.819	0.324	319.143	0	PA_without_intermediate	test	ward_and_allport	71	27.0	0.324	to_board	poldrack-single-stim	s557	False
0.1	319.149	0.748	319.897	0	PA_without_intermediate	test	ward_and_allport	89	27.0	0.748	to_hand	poldrack-single-stim	s557	False
0.1	319.898	0.397	320.295	0	PA_without_intermediate	test	ward_and_allport	82	27.0	0.397	to_board	poldrack-single-stim	s557	False
1.0	320.303	2.408	320.302	0	PA_without_intermediate	test	ward_and_allport	-1	27.0	n/a	feedback	poldrack-single-stim	s557	False
2.426	322.718	2.426	325.144	1	PA_with_intermediate	test	ward_and_allport	82	28.0	2.426	to_hand	poldrack-single-stim	s557	False
0.1	325.145	1.075	326.22	0	PA_with_intermediate	test	ward_and_allport	71	28.0	1.075	to_board	poldrack-single-stim	s557	False
0.1	326.226	0.547	326.773	0	PA_with_intermediate	test	ward_and_allport	82	28.0	0.547	to_hand	poldrack-single-stim	s557	False
0.1	326.774	0.464	327.238	0	PA_with_intermediate	test	ward_and_allport	89	28.0	0.464	to_board	poldrack-single-stim	s557	False
0.1	327.246	0.785	328.031	0	PA_with_intermediate	test	ward_and_allport	71	28.0	0.785	to_hand	poldrack-single-stim	s557	False
0.1	328.032	0.421	328.453	0	PA_with_intermediate	test	ward_and_allport	89	28.0	0.421	to_board	poldrack-single-stim	s557	False
1.0	328.461	2.816	328.46	0	PA_with_intermediate	test	ward_and_allport	-1	28.0	n/a	feedback	poldrack-single-stim	s557	False
1.51	331.284	1.51	332.794	1	PA_without_intermediate	test	ward_and_allport	89	29.0	1.51	to_hand	poldrack-single-stim	s557	False
0.1	332.794	0.435	333.229	0	PA_without_intermediate	test	ward_and_allport	82	29.0	0.435	to_board	poldrack-single-stim	s557	False
0.1	333.235	0.938	334.173	0	PA_without_intermediate	test	ward_and_allport	89	29.0	0.938	to_hand	poldrack-single-stim	s557	False
0.1	334.175	3.237	337.412	0	PA_without_intermediate	test	ward_and_allport	89	29.0	3.237	to_board	poldrack-single-stim	s557	False
0.1	337.418	0.8	338.218	0	PA_without_intermediate	test	ward_and_allport	82	29.0	0.8	to_hand	poldrack-single-stim	s557	False
0.1	338.22	1.815	340.035	0	PA_without_intermediate	test	ward_and_allport	71	29.0	1.815	to_board	poldrack-single-stim	s557	False
0.1	340.042	0.749	340.791	0	PA_without_intermediate	test	ward_and_allport	89	29.0	0.749	to_hand	poldrack-single-stim	s557	False
0.1	340.792	0.348	341.14	0	PA_without_intermediate	test	ward_and_allport	82	29.0	0.348	to_board	poldrack-single-stim	s557	False
0.1	341.146	1.117	342.263	0	PA_without_intermediate	test	ward_and_allport	82	29.0	1.117	to_hand	poldrack-single-stim	s557	False
0.1	342.265	0.255	342.52	0	PA_without_intermediate	test	ward_and_allport	71	29.0	0.255	to_board	poldrack-single-stim	s557	False
0.1	342.527	0.426	342.953	0	PA_without_intermediate	test	ward_and_allport	89	29.0	0.426	to_hand	poldrack-single-stim	s557	False
0.1	342.953	0.193	343.146	0	PA_without_intermediate	test	ward_and_allport	82	29.0	0.193	to_board	poldrack-single-stim	s557	False
1.0	343.154	3.088	343.153	0	PA_without_intermediate	test	ward_and_allport	-1	29.0	n/a	feedback	poldrack-single-stim	s557	False
3.586	351.255	3.586	354.841	1	PA_without_intermediate	test	ward_and_allport	89	30.0	3.586	to_hand	poldrack-single-stim	s557	False
0.1	354.842	0.318	355.16	0	PA_without_intermediate	test	ward_and_allport	82	30.0	0.318	to_board	poldrack-single-stim	s557	False
0.1	355.167	0.452	355.619	0	PA_without_intermediate	test	ward_and_allport	89	30.0	0.452	to_hand	poldrack-single-stim	s557	False
0.1	355.62	0.309	355.929	0	PA_without_intermediate	test	ward_and_allport	82	30.0	0.309	to_board	poldrack-single-stim	s557	False
0.1	355.937	0.71	356.647	0	PA_without_intermediate	test	ward_and_allport	89	30.0	0.71	to_hand	poldrack-single-stim	s557	False
0.1	356.649	0.211	356.86	0	PA_without_intermediate	test	ward_and_allport	71	30.0	0.211	to_board	poldrack-single-stim	s557	False
1.0	356.87	2.136	356.869	0	PA_without_intermediate	test	ward_and_allport	-1	30.0	n/a	feedback	poldrack-single-stim	s557	False
4.898	359.014	4.898	363.912	1	PA_without_intermediate	test	ward_and_allport	71	31.0	4.898	to_hand	poldrack-single-stim	s557	False
0.1	363.913	0.276	364.189	0	PA_without_intermediate	test	ward_and_allport	89	31.0	0.276	to_board	poldrack-single-stim	s557	False
0.1	364.198	0.458	364.656	0	PA_without_intermediate	test	ward_and_allport	71	31.0	0.458	to_hand	poldrack-single-stim	s557	False
0.1	364.657	0.367	365.024	0	PA_without_intermediate	test	ward_and_allport	82	31.0	0.367	to_board	poldrack-single-stim	s557	False
0.1	365.03	0.627	365.657	0	PA_without_intermediate	test	ward_and_allport	71	31.0	0.627	to_hand	poldrack-single-stim	s557	False
0.1	365.658	0.301	365.959	0	PA_without_intermediate	test	ward_and_allport	89	31.0	0.301	to_board	poldrack-single-stim	s557	False
1.0	365.971	7.168	365.97	0	PA_without_intermediate	test	ward_and_allport	-1	31.0	n/a	feedback	poldrack-single-stim	s557	False
1.891	373.147	1.891	375.038	1	PA_without_intermediate	test	ward_and_allport	71	32.0	1.891	to_hand	poldrack-single-stim	s557	False
0.1	375.039	0.268	375.307	0	PA_without_intermediate	test	ward_and_allport	89	32.0	0.268	to_board	poldrack-single-stim	s557	False
0.1	375.313	0.406	375.719	0	PA_without_intermediate	test	ward_and_allport	71	32.0	0.406	to_hand	poldrack-single-stim	s557	False
0.1	375.72	0.254	375.974	0	PA_without_intermediate	test	ward_and_allport	89	32.0	0.254	to_board	poldrack-single-stim	s557	False
0.1	375.982	0.753	376.735	0	PA_without_intermediate	test	ward_and_allport	71	32.0	0.753	to_hand	poldrack-single-stim	s557	False
0.1	376.736	0.284	377.02	0	PA_without_intermediate	test	ward_and_allport	82	32.0	0.284	to_board	poldrack-single-stim	s557	False
1.0	377.033	2.816	377.032	0	PA_without_intermediate	test	ward_and_allport	-1	32.0	n/a	feedback	poldrack-single-stim	s557	False
2.104	379.855	2.104	381.959	1	PA_with_intermediate	test	ward_and_allport	89	33.0	2.104	to_hand	poldrack-single-stim	s557	False
0.1	381.96	2.316	384.276	0	PA_with_intermediate	test	ward_and_allport	82	33.0	2.316	to_board	poldrack-single-stim	s557	False
0.1	384.281	0.721	385.002	0	PA_with_intermediate	test	ward_and_allport	89	33.0	0.721	to_hand	poldrack-single-stim	s557	False
0.1	385.003	0.433	385.436	0	PA_with_intermediate	test	ward_and_allport	71	33.0	0.433	to_board	poldrack-single-stim	s557	False
0.1	385.445	0.458	385.903	0	PA_with_intermediate	test	ward_and_allport	82	33.0	0.458	to_hand	poldrack-single-stim	s557	False
0.1	385.904	0.181	386.085	0	PA_with_intermediate	test	ward_and_allport	71	33.0	0.181	to_board	poldrack-single-stim	s557	False
1.0	386.097	2.952	386.096	0	PA_with_intermediate	test	ward_and_allport	-1	33.0	n/a	feedback	poldrack-single-stim	s557	False
3.665	389.055	3.665	392.72	1	PA_with_intermediate	test	ward_and_allport	71	34.0	3.665	to_hand	poldrack-single-stim	s557	False
0.1	392.722	0.348	393.07	0	PA_with_intermediate	test	ward_and_allport	89	34.0	0.348	to_board	poldrack-single-stim	s557	False
0.1	393.078	0.445	393.523	0	PA_with_intermediate	test	ward_and_allport	71	34.0	0.445	to_hand	poldrack-single-stim	s557	False
0.1	393.525	0.332	393.857	0	PA_with_intermediate	test	ward_and_allport	82	34.0	0.332	to_board	poldrack-single-stim	s557	False
0.1	393.864	0.365	394.229	0	PA_with_intermediate	test	ward_and_allport	89	34.0	0.365	to_hand	poldrack-single-stim	s557	False
0.1	394.231	0.213	394.444	0	PA_with_intermediate	test	ward_and_allport	71	34.0	0.213	to_board	poldrack-single-stim	s557	False
1.0	394.454	2.136	394.453	0	PA_with_intermediate	test	ward_and_allport	-1	34.0	n/a	feedback	poldrack-single-stim	s557	False
1.647	396.598	1.647	398.245	1	PA_without_intermediate	test	ward_and_allport	89	35.0	1.647	to_hand	poldrack-single-stim	s557	False
0.1	398.246	0.268	398.514	0	PA_without_intermediate	test	ward_and_allport	82	35.0	0.268	to_board	poldrack-single-stim	s557	False
0.1	398.518	0.631	399.149	0	PA_without_intermediate	test	ward_and_allport	89	35.0	0.631	to_hand	poldrack-single-stim	s557	False
0.1	399.15	0.913	400.063	0	PA_without_intermediate	test	ward_and_allport	82	35.0	0.913	to_board	poldrack-single-stim	s557	False
0.1	400.069	0.532	400.601	0	PA_without_intermediate	test	ward_and_allport	89	35.0	0.532	to_hand	poldrack-single-stim	s557	False
0.1	400.603	0.213	400.816	0	PA_without_intermediate	test	ward_and_allport	71	35.0	0.213	to_board	poldrack-single-stim	s557	False
1.0	400.823	2.68	400.822	0	PA_without_intermediate	test	ward_and_allport	-1	35.0	n/a	feedback	poldrack-single-stim	s557	False
1.869	403.51	1.869	405.379	1	PA_without_intermediate	test	ward_and_allport	71	36.0	1.869	to_hand	poldrack-single-stim	s557	False
0.1	405.381	0.364	405.745	0	PA_without_intermediate	test	ward_and_allport	82	36.0	0.364	to_board	poldrack-single-stim	s557	False
0.1	405.753	0.714	406.467	0	PA_without_intermediate	test	ward_and_allport	71	36.0	0.714	to_hand	poldrack-single-stim	s557	False
0.1	406.468	0.797	407.265	0	PA_without_intermediate	test	ward_and_allport	82	36.0	0.797	to_board	poldrack-single-stim	s557	False
0.1	407.273	0.417	407.69	0	PA_without_intermediate	test	ward_and_allport	71	36.0	0.417	to_hand	poldrack-single-stim	s557	False
0.1	407.691	0.216	407.907	0	PA_without_intermediate	test	ward_and_allport	89	36.0	0.216	to_board	poldrack-single-stim	s557	False
1.0	407.919	3.088	407.918	0	PA_without_intermediate	test	ward_and_allport	-1	36.0	n/a	feedback	poldrack-single-stim	s557	False
3.168	411.013	3.168	414.181	1	PA_with_intermediate	test	ward_and_allport	89	37.0	3.168	to_hand	poldrack-single-stim	s557	False
0.1	414.183	0.287	414.47	0	PA_with_intermediate	test	ward_and_allport	82	37.0	0.287	to_board	poldrack-single-stim	s557	False
0.1	414.475	0.841	415.316	0	PA_with_intermediate	test	ward_and_allport	89	37.0	0.841	to_hand	poldrack-single-stim	s557	False
0.1	415.317	0.213	415.53	0	PA_with_intermediate	test	ward_and_allport	71	37.0	0.213	to_board	poldrack-single-stim	s557	False
0.1	415.538	1.209	416.747	0	PA_with_intermediate	test	ward_and_allport	82	37.0	1.209	to_hand	poldrack-single-stim	s557	False
0.1	416.747	0.297	417.044	0	PA_with_intermediate	test	ward_and_allport	71	37.0	0.297	to_board	poldrack-single-stim	s557	False
1.0	417.055	2.0	417.054	0	PA_with_intermediate	test	ward_and_allport	-1	37.0	n/a	feedback	poldrack-single-stim	s557	False
2.022	419.062	2.022	421.084	1	PA_without_intermediate	test	ward_and_allport	89	38.0	2.022	to_hand	poldrack-single-stim	s557	False
0.1	421.085	0.39	421.475	0	PA_without_intermediate	test	ward_and_allport	82	38.0	0.39	to_board	poldrack-single-stim	s557	False
0.1	421.483	2.932	424.415	0	PA_without_intermediate	test	ward_and_allport	82	38.0	2.932	to_hand	poldrack-single-stim	s557	False
0.1	424.416	0.188	424.604	0	PA_without_intermediate	test	ward_and_allport	71	38.0	0.188	to_board	poldrack-single-stim	s557	False
0.1	424.612	0.892	425.504	0	PA_without_intermediate	test	ward_and_allport	89	38.0	0.892	to_hand	poldrack-single-stim	s557	False
0.1	425.504	0.368	425.872	0	PA_without_intermediate	test	ward_and_allport	71	38.0	0.368	to_board	poldrack-single-stim	s557	False
0.1	425.883	0.667	426.55	0	PA_without_intermediate	test	ward_and_allport	89	38.0	0.667	to_hand	poldrack-single-stim	s557	False
0.1	426.55	0.272	426.822	0	PA_without_intermediate	test	ward_and_allport	82	38.0	0.272	to_board	poldrack-single-stim	s557	False
1.0	426.831	2.0	426.83	0	PA_without_intermediate	test	ward_and_allport	-1	38.0	n/a	feedback	poldrack-single-stim	s557	False
4.895	428.839	4.895	433.734	1	PA_without_intermediate	test	ward_and_allport	82	39.0	4.895	to_hand	poldrack-single-stim	s557	False
0.1	433.735	0.323	434.058	0	PA_without_intermediate	test	ward_and_allport	89	39.0	0.323	to_board	poldrack-single-stim	s557	False
0.1	434.067	0.49	434.557	0	PA_without_intermediate	test	ward_and_allport	82	39.0	0.49	to_hand	poldrack-single-stim	s557	False
0.1	434.558	0.341	434.899	0	PA_without_intermediate	test	ward_and_allport	71	39.0	0.341	to_board	poldrack-single-stim	s557	False
0.1	434.909	0.377	435.286	0	PA_without_intermediate	test	ward_and_allport	82	39.0	0.377	to_hand	poldrack-single-stim	s557	False
0.1	435.286	0.298	435.584	0	PA_without_intermediate	test	ward_and_allport	89	39.0	0.298	to_board	poldrack-single-stim	s557	False
1.0	435.594	2.0	435.593	0	PA_without_intermediate	test	ward_and_allport	-1	39.0	n/a	feedback	poldrack-single-stim	s557	False
2.746	437.601	2.746	440.347	1	PA_with_intermediate	test	ward_and_allport	82	40.0	2.746	to_hand	poldrack-single-stim	s557	False
0.1	440.348	0.355	440.703	0	PA_with_intermediate	test	ward_and_allport	89	40.0	0.355	to_board	poldrack-single-stim	s557	False
0.1	440.709	1.008	441.717	0	PA_with_intermediate	test	ward_and_allport	89	40.0	1.008	to_hand	poldrack-single-stim	s557	False
0.1	441.719	0.141	441.86	0	PA_with_intermediate	test	ward_and_allport	71	40.0	0.141	to_board	poldrack-single-stim	s557	False
0.1	441.867	0.623	442.49	0	PA_with_intermediate	test	ward_and_allport	82	40.0	0.623	to_hand	poldrack-single-stim	s557	False
0.1	442.492	0.261	442.753	0	PA_with_intermediate	test	ward_and_allport	71	40.0	0.261	to_board	poldrack-single-stim	s557	False
0.1	442.763	0.567	443.33	0	PA_with_intermediate	test	ward_and_allport	82	40.0	0.567	to_hand	poldrack-single-stim	s557	False
0.1	443.331	0.276	443.607	0	PA_with_intermediate	test	ward_and_allport	89	40.0	0.276	to_board	poldrack-single-stim	s557	False
0.1	443.615	0.95	444.565	0	PA_with_intermediate	test	ward_and_allport	89	40.0	0.95	to_hand	poldrack-single-stim	s557	False
0.1	444.565	0.24	444.805	0	PA_with_intermediate	test	ward_and_allport	82	40.0	0.24	to_board	poldrack-single-stim	s557	False
0.1	444.811	3.396	448.207	0	PA_with_intermediate	test	ward_and_allport	71	40.0	3.396	to_hand	poldrack-single-stim	s557	False
0.1	448.208	0.347	448.555	0	PA_with_intermediate	test	ward_and_allport	89	40.0	0.347	to_board	poldrack-single-stim	s557	False
0.1	448.562	2.658	451.22	0	PA_with_intermediate	test	ward_and_allport	71	40.0	2.658	to_hand	poldrack-single-stim	s557	False
0.1	451.221	0.353	451.574	0	PA_with_intermediate	test	ward_and_allport	82	40.0	0.353	to_board	poldrack-single-stim	s557	False
0.1	451.58	0.393	451.973	0	PA_with_intermediate	test	ward_and_allport	89	40.0	0.393	to_hand	poldrack-single-stim	s557	False
0.1	451.974	0.256	452.23	0	PA_with_intermediate	test	ward_and_allport	71	40.0	0.256	to_board	poldrack-single-stim	s557	False
0.1	452.238	0.749	452.987	0	PA_with_intermediate	test	ward_and_allport	82	40.0	0.749	to_hand	poldrack-single-stim	s557	False
0.1	452.989	0.18	453.169	0	PA_with_intermediate	test	ward_and_allport	71	40.0	0.18	to_board	poldrack-single-stim	s557	False
1.0	453.179	2.544	453.178	0	PA_with_intermediate	test	ward_and_allport	-1	40.0	n/a	feedback	poldrack-single-stim	s557	False
4.138	455.731	4.138	459.869	1	PA_without_intermediate	test	ward_and_allport	89	41.0	4.138	to_hand	poldrack-single-stim	s557	False
0.1	459.87	2.078	461.948	0	PA_without_intermediate	test	ward_and_allport	71	41.0	2.078	to_board	poldrack-single-stim	s557	False
0.1	461.954	1.064	463.018	0	PA_without_intermediate	test	ward_and_allport	89	41.0	1.064	to_hand	poldrack-single-stim	s557	False
0.1	463.019	0.473	463.492	0	PA_without_intermediate	test	ward_and_allport	82	41.0	0.473	to_board	poldrack-single-stim	s557	False
0.1	463.5	0.897	464.397	0	PA_without_intermediate	test	ward_and_allport	89	41.0	0.897	to_hand	poldrack-single-stim	s557	False
0.1	464.398	1.077	465.475	0	PA_without_intermediate	test	ward_and_allport	71	41.0	1.077	to_board	poldrack-single-stim	s557	False
1.0	465.488	2.272	465.487	0	PA_without_intermediate	test	ward_and_allport	-1	41.0	n/a	feedback	poldrack-single-stim	s557	False
2.787	467.769	2.787	470.556	1	PA_with_intermediate	test	ward_and_allport	82	42.0	2.787	to_hand	poldrack-single-stim	s557	False
0.1	470.557	0.645	471.202	0	PA_with_intermediate	test	ward_and_allport	71	42.0	0.645	to_board	poldrack-single-stim	s557	False
0.1	471.213	0.76	471.973	0	PA_with_intermediate	test	ward_and_allport	82	42.0	0.76	to_hand	poldrack-single-stim	s557	False
0.1	471.974	0.346	472.32	0	PA_with_intermediate	test	ward_and_allport	89	42.0	0.346	to_board	poldrack-single-stim	s557	False
0.1	472.328	0.435	472.763	0	PA_with_intermediate	test	ward_and_allport	71	42.0	0.435	to_hand	poldrack-single-stim	s557	False
0.1	472.764	0.273	473.037	0	PA_with_intermediate	test	ward_and_allport	82	42.0	0.273	to_board	poldrack-single-stim	s557	False
1.0	473.049	4.04	473.048	0	PA_with_intermediate	test	ward_and_allport	-1	42.0	n/a	feedback	poldrack-single-stim	s557	False
4.963	477.096	4.963	482.059	1	PA_with_intermediate	test	ward_and_allport	82	43.0	4.963	to_hand	poldrack-single-stim	s557	False
0.1	482.06	0.339	482.399	0	PA_with_intermediate	test	ward_and_allport	89	43.0	0.339	to_board	poldrack-single-stim	s557	False
0.1	482.409	0.645	483.054	0	PA_with_intermediate	test	ward_and_allport	82	43.0	0.645	to_hand	poldrack-single-stim	s557	False
0.1	483.055	0.354	483.409	0	PA_with_intermediate	test	ward_and_allport	71	43.0	0.354	to_board	poldrack-single-stim	s557	False
0.1	483.42	0.756	484.176	0	PA_with_intermediate	test	ward_and_allport	89	43.0	0.756	to_hand	poldrack-single-stim	s557	False
0.1	484.177	0.403	484.58	0	PA_with_intermediate	test	ward_and_allport	71	43.0	0.403	to_board	poldrack-single-stim	s557	False
1.0	484.593	2.272	484.592	0	PA_with_intermediate	test	ward_and_allport	-1	43.0	n/a	feedback	poldrack-single-stim	s557	False
3.715	486.874	3.715	490.589	1	PA_with_intermediate	test	ward_and_allport	89	44.0	3.715	to_hand	poldrack-single-stim	s557	False
0.1	490.591	0.426	491.017	0	PA_with_intermediate	test	ward_and_allport	71	44.0	0.426	to_board	poldrack-single-stim	s557	False
0.1	491.024	0.613	491.637	0	PA_with_intermediate	test	ward_and_allport	89	44.0	0.613	to_hand	poldrack-single-stim	s557	False
0.1	491.638	0.336	491.974	0	PA_with_intermediate	test	ward_and_allport	82	44.0	0.336	to_board	poldrack-single-stim	s557	False
0.1	491.981	0.575	492.556	0	PA_with_intermediate	test	ward_and_allport	71	44.0	0.575	to_hand	poldrack-single-stim	s557	False
0.1	492.558	0.41	492.968	0	PA_with_intermediate	test	ward_and_allport	82	44.0	0.41	to_board	poldrack-single-stim	s557	False
1.0	492.98	2.136	492.979	0	PA_with_intermediate	test	ward_and_allport	-1	44.0	n/a	feedback	poldrack-single-stim	s557	False
4.303	500.127	4.303	504.43	1	PA_with_intermediate	test	ward_and_allport	71	45.0	4.303	to_hand	poldrack-single-stim	s557	False
0.1	504.431	0.389	504.82	0	PA_with_intermediate	test	ward_and_allport	89	45.0	0.389	to_board	poldrack-single-stim	s557	False
0.1	504.831	3.159	507.99	0	PA_with_intermediate	test	ward_and_allport	71	45.0	3.159	to_hand	poldrack-single-stim	s557	False
0.1	507.99	0.328	508.318	0	PA_with_intermediate	test	ward_and_allport	82	45.0	0.328	to_board	poldrack-single-stim	s557	False
0.1	508.33	2.276	510.606	0	PA_with_intermediate	test	ward_and_allport	89	45.0	2.276	to_hand	poldrack-single-stim	s557	False
0.1	510.606	0.309	510.915	0	PA_with_intermediate	test	ward_and_allport	71	45.0	0.309	to_board	poldrack-single-stim	s557	False
0.1	510.927	0.658	511.585	0	PA_with_intermediate	test	ward_and_allport	82	45.0	0.658	to_hand	poldrack-single-stim	s557	False
0.1	511.587	0.414	512.001	0	PA_with_intermediate	test	ward_and_allport	89	45.0	0.414	to_board	poldrack-single-stim	s557	False
0.1	512.01	0.747	512.757	0	PA_with_intermediate	test	ward_and_allport	71	45.0	0.747	to_hand	poldrack-single-stim	s557	False
0.1	512.758	0.185	512.943	0	PA_with_intermediate	test	ward_and_allport	89	45.0	0.185	to_board	poldrack-single-stim	s557	False
1.0	512.956	2.0	512.955	0	PA_with_intermediate	test	ward_and_allport	-1	45.0	n/a	feedback	poldrack-single-stim	s557	False
4.084	514.964	4.084	519.048	1	PA_with_intermediate	test	ward_and_allport	82	46.0	4.084	to_hand	poldrack-single-stim	s557	False
0.1	519.048	0.245	519.293	0	PA_with_intermediate	test	ward_and_allport	71	46.0	0.245	to_board	poldrack-single-stim	s557	False
0.1	519.303	0.849	520.152	0	PA_with_intermediate	test	ward_and_allport	82	46.0	0.849	to_hand	poldrack-single-stim	s557	False
0.1	520.153	0.254	520.407	0	PA_with_intermediate	test	ward_and_allport	89	46.0	0.254	to_board	poldrack-single-stim	s557	False
0.1	520.417	0.578	520.995	0	PA_with_intermediate	test	ward_and_allport	71	46.0	0.578	to_hand	poldrack-single-stim	s557	False
0.1	520.997	0.262	521.259	0	PA_with_intermediate	test	ward_and_allport	82	46.0	0.262	to_board	poldrack-single-stim	s557	False
1.0	521.271	2.0	521.27	0	PA_with_intermediate	test	ward_and_allport	-1	46.0	n/a	feedback	poldrack-single-stim	s557	False
4.118	523.278	4.118	527.396	1	PA_without_intermediate	test	ward_and_allport	82	47.0	4.118	to_hand	poldrack-single-stim	s557	False
0.1	527.398	0.223	527.621	0	PA_without_intermediate	test	ward_and_allport	71	47.0	0.223	to_board	poldrack-single-stim	s557	False
0.1	527.63	0.607	528.237	0	PA_without_intermediate	test	ward_and_allport	82	47.0	0.607	to_hand	poldrack-single-stim	s557	False
0.1	528.238	0.336	528.574	0	PA_without_intermediate	test	ward_and_allport	89	47.0	0.336	to_board	poldrack-single-stim	s557	False
0.1	528.585	0.584	529.169	0	PA_without_intermediate	test	ward_and_allport	82	47.0	0.584	to_hand	poldrack-single-stim	s557	False
0.1	529.17	0.251	529.421	0	PA_without_intermediate	test	ward_and_allport	71	47.0	0.251	to_board	poldrack-single-stim	s557	False
1.0	529.434	2.408	529.433	0	PA_without_intermediate	test	ward_and_allport	-1	47.0	n/a	feedback	poldrack-single-stim	s557	False
