onset	duration	SS_delay	block_duration	correct	correct_response	experiment_exp_id	key_press	passed_check	response_time	stop_response	stopped	trial_id	trial_type	worker_id	junk
3.01	0.85	0.4	2.65	1.0	71.0	motor_selective_stop_signal	71.0	False	0.936	89.0	False	stim	noncrit_nosignal	s557	False
5.662	0.85	0.4	2.25	1.0	89.0	motor_selective_stop_signal	89.0	False	0.594	89.0	False	stim	crit_stop_failure	s557	False
7.915	0.85	0.35	2.65	1.0	71.0	motor_selective_stop_signal	71.0	False	1.07	89.0	False	stim	noncrit_signal	s557	False
10.567	0.85	0.35	2.35	1.0	89.0	motor_selective_stop_signal	89.0	False	0.759	89.0	False	stim	crit_go	s557	False
12.92	0.85	0.35	2.25	1.0	71.0	motor_selective_stop_signal	71.0	False	0.617	89.0	False	stim	noncrit_nosignal	s557	False
15.172	0.85	0.35	2.25	1.0	89.0	motor_selective_stop_signal	89.0	False	0.688	89.0	False	stim	crit_go	s557	False
17.424	0.85	0.35	2.25	1.0	89.0	motor_selective_stop_signal	89.0	False	0.93	89.0	False	stim	crit_go	s557	False
19.676	0.85	0.35	2.35	1.0	89.0	motor_selective_stop_signal	89.0	False	0.964	89.0	False	stim	crit_go	s557	False
22.028	0.85	0.35	2.55	1.0	71.0	motor_selective_stop_signal	71.0	False	0.491	89.0	False	stim	noncrit_signal	s557	False
24.58	0.85	0.35	2.35	1.0	89.0	motor_selective_stop_signal	89.0	False	0.775	89.0	False	stim	crit_go	s557	False
26.932	0.85	0.35	2.45	1.0	89.0	motor_selective_stop_signal	-1.0	False	n/a	89.0	True	stim	crit_stop_success	s557	False
29.385	0.85	0.4	2.45	1.0	71.0	motor_selective_stop_signal	71.0	False	0.723	89.0	False	stim	noncrit_nosignal	s557	False
31.838	0.85	0.4	2.35	1.0	89.0	motor_selective_stop_signal	-1.0	False	n/a	89.0	True	stim	crit_stop_success	s557	False
34.19	0.85	0.45	2.25	1.0	71.0	motor_selective_stop_signal	71.0	False	0.654	89.0	False	stim	noncrit_signal	s557	False
36.442	0.85	0.45	2.55	1.0	71.0	motor_selective_stop_signal	71.0	False	0.875	89.0	False	stim	noncrit_nosignal	s557	False
38.994	0.85	0.45	2.55	1.0	71.0	motor_selective_stop_signal	71.0	False	0.638	89.0	False	stim	noncrit_nosignal	s557	False
41.546	0.85	0.45	2.25	1.0	71.0	motor_selective_stop_signal	71.0	False	0.948	89.0	False	stim	noncrit_signal	s557	False
43.798	0.85	0.45	2.25	1.0	89.0	motor_selective_stop_signal	89.0	False	0.968	89.0	False	stim	crit_go	s557	False
46.052	0.85	0.45	2.45	1.0	89.0	motor_selective_stop_signal	-1.0	False	n/a	89.0	True	stim	crit_stop_success	s557	False
48.505	0.85	0.5	2.35	1.0	71.0	motor_selective_stop_signal	71.0	False	0.786	89.0	False	stim	noncrit_nosignal	s557	False
50.857	0.85	0.5	2.25	1.0	71.0	motor_selective_stop_signal	71.0	False	0.73	89.0	False	stim	noncrit_nosignal	s557	False
53.109	0.85	0.5	3.15	1.0	71.0	motor_selective_stop_signal	71.0	False	1.001	89.0	False	stim	noncrit_nosignal	s557	False
56.261	0.85	0.5	2.65	1.0	71.0	motor_selective_stop_signal	71.0	False	0.917	89.0	False	stim	noncrit_nosignal	s557	False
58.913	0.85	0.5	2.25	1.0	71.0	motor_selective_stop_signal	71.0	False	1.031	89.0	False	stim	noncrit_signal	s557	False
61.166	0.85	0.5	2.45	1.0	89.0	motor_selective_stop_signal	-1.0	False	n/a	89.0	True	stim	crit_stop_success	s557	False
63.618	0.85	0.55	2.85	1.0	71.0	motor_selective_stop_signal	71.0	False	0.618	89.0	False	stim	noncrit_signal	s557	False
66.471	0.85	0.55	2.45	1.0	89.0	motor_selective_stop_signal	89.0	False	0.916	89.0	False	stim	crit_go	s557	False
68.923	0.85	0.55	2.25	1.0	89.0	motor_selective_stop_signal	89.0	False	1.064	89.0	False	stim	crit_go	s557	False
71.175	0.85	0.55	2.25	1.0	71.0	motor_selective_stop_signal	71.0	False	0.661	89.0	False	stim	noncrit_nosignal	s557	False
73.427	0.85	0.55	2.55	1.0	71.0	motor_selective_stop_signal	71.0	False	0.565	89.0	False	stim	noncrit_signal	s557	False
75.98	0.85	0.55	2.25	1.0	89.0	motor_selective_stop_signal	-1.0	False	n/a	89.0	True	stim	crit_stop_success	s557	False
78.232	0.85	0.6	2.35	1.0	71.0	motor_selective_stop_signal	71.0	False	0.824	89.0	False	stim	noncrit_nosignal	s557	False
80.585	0.85	0.6	2.35	1.0	89.0	motor_selective_stop_signal	-1.0	False	n/a	89.0	True	stim	crit_stop_success	s557	False
82.938	0.85	0.65	2.25	1.0	89.0	motor_selective_stop_signal	89.0	False	1.169	89.0	False	stim	crit_go	s557	False
85.19	0.85	0.65	2.35	1.0	71.0	motor_selective_stop_signal	71.0	False	1.528	89.0	False	stim	noncrit_signal	s557	False
87.542	0.85	0.65	2.25	1.0	89.0	motor_selective_stop_signal	89.0	False	1.309	89.0	False	stim	crit_go	s557	False
89.794	0.85	0.65	2.45	1.0	71.0	motor_selective_stop_signal	71.0	False	0.803	89.0	False	stim	noncrit_nosignal	s557	False
92.246	0.85	0.65	2.25	1.0	89.0	motor_selective_stop_signal	89.0	False	1.086	89.0	False	stim	crit_go	s557	False
94.498	0.85	0.65	2.35	1.0	89.0	motor_selective_stop_signal	89.0	False	1.167	89.0	False	stim	crit_go	s557	False
96.849	0.85	0.65	2.45	1.0	71.0	motor_selective_stop_signal	71.0	False	1.853	89.0	False	stim	noncrit_signal	s557	False
99.301	0.85	0.65	2.25	1.0	89.0	motor_selective_stop_signal	-1.0	False	n/a	89.0	True	stim	crit_stop_success	s557	False
101.553	0.85	0.7	2.25	1.0	71.0	motor_selective_stop_signal	71.0	False	1.188	89.0	False	stim	noncrit_nosignal	s557	False
103.805	0.85	0.7	2.85	1.0	89.0	motor_selective_stop_signal	89.0	False	1.124	89.0	False	stim	crit_go	s557	False
106.657	0.85	0.7	2.25	1.0	71.0	motor_selective_stop_signal	71.0	False	0.629	89.0	False	stim	noncrit_nosignal	s557	False
108.91	0.85	0.7	3.45	1.0	71.0	motor_selective_stop_signal	71.0	False	0.767	89.0	False	stim	noncrit_nosignal	s557	False
112.362	0.85	0.7	2.35	1.0	71.0	motor_selective_stop_signal	71.0	False	0.634	89.0	False	stim	noncrit_signal	s557	False
114.715	0.85	0.7	2.35	1.0	71.0	motor_selective_stop_signal	71.0	False	0.708	89.0	False	stim	noncrit_signal	s557	False
117.067	0.85	0.7	2.35	1.0	71.0	motor_selective_stop_signal	71.0	False	1.226	89.0	False	stim	noncrit_nosignal	s557	False
119.419	0.85	0.7	2.45	1.0	89.0	motor_selective_stop_signal	-1.0	False	n/a	89.0	True	stim	crit_stop_success	s557	False
121.871	0.85	0.75	2.55	1.0	71.0	motor_selective_stop_signal	71.0	False	0.687	89.0	False	stim	noncrit_signal	s557	False
134.93	0.85	0.75	2.35	1.0	89.0	motor_selective_stop_signal	89.0	False	1.286	89.0	False	stim	crit_go	s557	False
137.282	0.85	0.75	2.25	1.0	89.0	motor_selective_stop_signal	89.0	False	0.843	89.0	False	stim	crit_stop_failure	s557	False
139.535	0.85	0.7	2.25	1.0	89.0	motor_selective_stop_signal	89.0	False	0.966	89.0	False	stim	crit_go	s557	False
141.787	0.85	0.7	3.05	1.0	71.0	motor_selective_stop_signal	71.0	False	0.459	89.0	False	stim	noncrit_nosignal	s557	False
144.84	0.85	0.7	2.45	1.0	89.0	motor_selective_stop_signal	89.0	False	1.121	89.0	False	stim	crit_go	s557	False
147.292	0.85	0.7	2.35	1.0	71.0	motor_selective_stop_signal	71.0	False	0.612	89.0	False	stim	noncrit_nosignal	s557	False
149.644	0.85	0.7	2.25	1.0	89.0	motor_selective_stop_signal	89.0	False	0.972	89.0	False	stim	crit_stop_failure	s557	False
151.897	0.85	0.65	3.25	1.0	89.0	motor_selective_stop_signal	-1.0	False	n/a	89.0	True	stim	crit_stop_success	s557	False
155.15	0.85	0.7	2.95	1.0	89.0	motor_selective_stop_signal	89.0	False	1.052	89.0	False	stim	crit_go	s557	False
158.102	0.85	0.7	2.55	1.0	89.0	motor_selective_stop_signal	89.0	False	0.988	89.0	False	stim	crit_stop_failure	s557	False
160.654	0.85	0.65	2.35	1.0	71.0	motor_selective_stop_signal	71.0	False	0.902	89.0	False	stim	noncrit_nosignal	s557	False
163.007	0.85	0.65	2.55	1.0	89.0	motor_selective_stop_signal	-1.0	False	n/a	89.0	True	stim	crit_stop_success	s557	False
165.559	0.85	0.7	2.35	1.0	89.0	motor_selective_stop_signal	89.0	False	1.096	89.0	False	stim	crit_go	s557	False
167.911	0.85	0.7	2.25	1.0	71.0	motor_selective_stop_signal	71.0	False	1.214	89.0	False	stim	noncrit_nosignal	s557	False
170.164	0.85	0.7	2.45	1.0	71.0	motor_selective_stop_signal	71.0	False	1.354	89.0	False	stim	noncrit_signal	s557	False
172.617	0.85	0.7	2.35	1.0	89.0	motor_selective_stop_signal	89.0	False	0.994	89.0	False	stim	crit_go	s557	False
174.969	0.85	0.7	2.65	1.0	71.0	motor_selective_stop_signal	71.0	False	1.032	89.0	False	stim	noncrit_signal	s557	False
177.622	0.85	0.7	2.25	1.0	71.0	motor_selective_stop_signal	71.0	False	0.83	89.0	False	stim	noncrit_nosignal	s557	False
179.873	0.85	0.7	2.25	1.0	89.0	motor_selective_stop_signal	-1.0	False	n/a	89.0	True	stim	crit_stop_success	s557	False
182.126	0.85	0.75	2.45	1.0	89.0	motor_selective_stop_signal	89.0	False	1.193	89.0	False	stim	crit_go	s557	False
184.578	0.85	0.75	2.25	1.0	71.0	motor_selective_stop_signal	71.0	False	1.099	89.0	False	stim	noncrit_nosignal	s557	False
186.831	0.85	0.75	2.55	1.0	89.0	motor_selective_stop_signal	-1.0	False	n/a	89.0	True	stim	crit_stop_success	s557	False
189.384	0.85	0.8	2.25	1.0	89.0	motor_selective_stop_signal	89.0	False	1.206	89.0	False	stim	crit_go	s557	False
191.636	0.85	0.8	2.35	1.0	71.0	motor_selective_stop_signal	71.0	False	0.395	89.0	False	stim	noncrit_signal	s557	False
193.989	0.85	0.8	2.25	1.0	89.0	motor_selective_stop_signal	-1.0	False	n/a	89.0	True	stim	crit_stop_success	s557	False
196.241	0.85	0.85	2.55	1.0	89.0	motor_selective_stop_signal	-1.0	False	n/a	89.0	True	stim	crit_stop_success	s557	False
198.794	0.85	0.9	2.55	1.0	89.0	motor_selective_stop_signal	89.0	False	1.393	89.0	False	stim	crit_go	s557	False
201.346	0.85	0.9	2.35	1.0	71.0	motor_selective_stop_signal	71.0	False	1.077	89.0	False	stim	noncrit_nosignal	s557	False
203.698	0.85	0.9	2.35	1.0	89.0	motor_selective_stop_signal	89.0	False	1.349	89.0	False	stim	crit_go	s557	False
206.051	0.85	0.9	2.25	1.0	89.0	motor_selective_stop_signal	89.0	False	1.409	89.0	False	stim	crit_go	s557	False
208.303	0.85	0.9	2.45	1.0	71.0	motor_selective_stop_signal	71.0	False	1.105	89.0	False	stim	noncrit_signal	s557	False
210.756	0.85	0.9	2.25	1.0	71.0	motor_selective_stop_signal	71.0	False	1.177	89.0	False	stim	noncrit_nosignal	s557	False
213.008	0.85	0.9	2.45	1.0	71.0	motor_selective_stop_signal	71.0	False	0.658	89.0	False	stim	noncrit_signal	s557	False
215.46	0.85	0.9	2.65	1.0	89.0	motor_selective_stop_signal	-1.0	False	n/a	89.0	True	stim	crit_stop_success	s557	False
218.112	0.85	0.95	2.45	1.0	71.0	motor_selective_stop_signal	71.0	False	1.413	89.0	False	stim	noncrit_nosignal	s557	False
220.565	0.85	0.95	2.35	1.0	89.0	motor_selective_stop_signal	89.0	False	1.33	89.0	False	stim	crit_go	s557	False
222.916	0.85	0.95	2.25	1.0	71.0	motor_selective_stop_signal	71.0	False	1.435	89.0	False	stim	noncrit_signal	s557	False
225.168	0.85	0.95	2.55	1.0	71.0	motor_selective_stop_signal	71.0	False	1.787	89.0	False	stim	noncrit_nosignal	s557	False
227.72	0.85	0.95	2.25	1.0	71.0	motor_selective_stop_signal	71.0	False	0.761	89.0	False	stim	noncrit_nosignal	s557	False
229.972	0.85	0.95	2.25	1.0	89.0	motor_selective_stop_signal	89.0	False	1.287	89.0	False	stim	crit_go	s557	False
232.224	0.85	0.95	2.35	1.0	89.0	motor_selective_stop_signal	89.0	False	1.264	89.0	False	stim	crit_go	s557	False
234.576	0.85	0.95	2.25	1.0	89.0	motor_selective_stop_signal	89.0	False	1.315	89.0	False	stim	crit_go	s557	False
236.829	0.85	0.95	2.65	1.0	71.0	motor_selective_stop_signal	71.0	False	0.587	89.0	False	stim	noncrit_signal	s557	False
239.482	0.85	0.95	2.35	1.0	71.0	motor_selective_stop_signal	71.0	False	0.594	89.0	False	stim	noncrit_signal	s557	False
241.834	0.85	0.95	2.45	1.0	89.0	motor_selective_stop_signal	89.0	False	1.401	89.0	False	stim	crit_go	s557	False
244.287	0.85	0.95	2.35	1.0	71.0	motor_selective_stop_signal	71.0	False	1.476	89.0	False	stim	noncrit_signal	s557	False
246.639	0.85	0.95	2.25	1.0	89.0	motor_selective_stop_signal	89.0	False	1.438	89.0	False	stim	crit_stop_failure	s557	False
248.89	0.85	0.9	2.25	1.0	89.0	motor_selective_stop_signal	89.0	False	1.435	89.0	False	stim	crit_go	s557	False
251.142	0.85	0.9	2.25	1.0	89.0	motor_selective_stop_signal	-1.0	False	n/a	89.0	True	stim	crit_stop_success	s557	False
253.395	0.85	0.95	2.25	1.0	71.0	motor_selective_stop_signal	71.0	False	1.228	89.0	False	stim	noncrit_nosignal	s557	False
266.154	0.85	0.95	2.35	1.0	89.0	motor_selective_stop_signal	-1.0	False	n/a	89.0	True	stim	crit_stop_success	s557	False
268.505	0.85	1.0	3.35	1.0	71.0	motor_selective_stop_signal	71.0	False	1.329	89.0	False	stim	noncrit_nosignal	s557	False
271.858	0.85	1.0	2.55	1.0	71.0	motor_selective_stop_signal	71.0	False	1.414	89.0	False	stim	noncrit_nosignal	s557	False
274.41	0.85	1.0	2.75	1.0	89.0	motor_selective_stop_signal	-1.0	False	n/a	89.0	True	stim	crit_stop_success	s557	False
277.163	0.85	1.0	2.75	1.0	71.0	motor_selective_stop_signal	71.0	False	1.682	89.0	False	stim	noncrit_nosignal	s557	False
279.915	0.85	1.0	2.65	1.0	71.0	motor_selective_stop_signal	71.0	False	0.833	89.0	False	stim	noncrit_nosignal	s557	False
282.568	0.85	1.0	2.45	1.0	89.0	motor_selective_stop_signal	-1.0	False	n/a	89.0	True	stim	crit_stop_success	s557	False
285.019	0.85	1.0	2.25	1.0	71.0	motor_selective_stop_signal	71.0	False	1.155	89.0	False	stim	noncrit_nosignal	s557	False
287.271	0.85	1.0	2.35	1.0	71.0	motor_selective_stop_signal	71.0	False	1.616	89.0	False	stim	noncrit_nosignal	s557	False
289.624	0.85	1.0	2.45	1.0	71.0	motor_selective_stop_signal	71.0	False	1.085	89.0	False	stim	noncrit_nosignal	s557	False
292.076	0.85	1.0	3.05	1.0	71.0	motor_selective_stop_signal	71.0	False	1.558	89.0	False	stim	noncrit_nosignal	s557	False
295.127	0.85	1.0	2.35	1.0	89.0	motor_selective_stop_signal	89.0	False	1.458	89.0	False	stim	crit_go	s557	False
297.48	0.85	1.0	2.25	1.0	71.0	motor_selective_stop_signal	71.0	False	1.442	89.0	False	stim	noncrit_signal	s557	False
299.733	0.85	1.0	2.35	1.0	71.0	motor_selective_stop_signal	71.0	False	0.657	89.0	False	stim	noncrit_nosignal	s557	False
302.085	0.85	1.0	2.35	1.0	89.0	motor_selective_stop_signal	89.0	False	1.472	89.0	False	stim	crit_go	s557	False
304.437	0.85	1.0	2.35	1.0	89.0	motor_selective_stop_signal	89.0	False	1.367	89.0	False	stim	crit_go	s557	False
306.789	0.85	1.0	2.35	1.0	71.0	motor_selective_stop_signal	71.0	False	0.759	89.0	False	stim	noncrit_signal	s557	False
309.141	0.85	1.0	2.35	1.0	71.0	motor_selective_stop_signal	71.0	False	0.646	89.0	False	stim	noncrit_nosignal	s557	False
311.494	0.85	1.0	2.25	1.0	71.0	motor_selective_stop_signal	71.0	False	1.361	89.0	False	stim	noncrit_nosignal	s557	False
313.746	0.85	1.0	2.35	1.0	89.0	motor_selective_stop_signal	-1.0	False	n/a	89.0	True	stim	crit_stop_success	s557	False
316.098	0.85	1.0	2.45	1.0	89.0	motor_selective_stop_signal	89.0	False	1.921	89.0	False	stim	crit_go	s557	False
318.55	0.85	1.0	2.35	1.0	89.0	motor_selective_stop_signal	89.0	False	1.811	89.0	False	stim	crit_go	s557	False
320.902	0.85	1.0	2.85	1.0	71.0	motor_selective_stop_signal	71.0	False	1.018	89.0	False	stim	noncrit_nosignal	s557	False
323.755	0.85	1.0	2.55	1.0	71.0	motor_selective_stop_signal	71.0	False	0.833	89.0	False	stim	noncrit_nosignal	s557	False
326.307	0.85	1.0	2.75	1.0	71.0	motor_selective_stop_signal	71.0	False	0.594	89.0	False	stim	noncrit_nosignal	s557	False
329.06	0.85	1.0	2.25	1.0	71.0	motor_selective_stop_signal	71.0	False	0.74	89.0	False	stim	noncrit_signal	s557	False
331.312	0.85	1.0	2.25	1.0	89.0	motor_selective_stop_signal	89.0	False	1.406	89.0	False	stim	crit_go	s557	False
333.564	0.85	1.0	2.85	1.0	89.0	motor_selective_stop_signal	-1.0	False	n/a	89.0	True	stim	crit_stop_success	s557	False
336.416	0.85	1.0	2.35	1.0	89.0	motor_selective_stop_signal	89.0	False	1.205	89.0	False	stim	crit_go	s557	False
338.768	0.85	1.0	2.25	1.0	71.0	motor_selective_stop_signal	71.0	False	1.497	89.0	False	stim	noncrit_nosignal	s557	False
341.02	0.85	1.0	2.25	1.0	89.0	motor_selective_stop_signal	-1.0	False	n/a	89.0	True	stim	crit_stop_success	s557	False
343.272	0.85	1.0	2.25	1.0	89.0	motor_selective_stop_signal	89.0	False	1.407	89.0	False	stim	crit_go	s557	False
345.524	0.85	1.0	2.35	1.0	89.0	motor_selective_stop_signal	89.0	False	2.313	89.0	False	stim	crit_go	s557	False
347.876	0.85	1.0	2.65	1.0	89.0	motor_selective_stop_signal	89.0	False	1.684	89.0	False	stim	crit_go	s557	False
350.528	0.85	1.0	2.75	1.0	89.0	motor_selective_stop_signal	-1.0	False	n/a	89.0	True	stim	crit_stop_success	s557	False
353.28	0.85	1.0	2.25	1.0	89.0	motor_selective_stop_signal	89.0	False	1.46	89.0	False	stim	crit_go	s557	False
355.533	0.85	1.0	2.75	1.0	89.0	motor_selective_stop_signal	-1.0	False	n/a	89.0	True	stim	crit_stop_success	s557	False
358.286	0.85	1.0	2.25	1.0	71.0	motor_selective_stop_signal	71.0	False	1.585	89.0	False	stim	noncrit_signal	s557	False
360.538	0.85	1.0	2.35	1.0	71.0	motor_selective_stop_signal	71.0	False	1.878	89.0	False	stim	noncrit_nosignal	s557	False
362.89	0.85	1.0	2.35	1.0	89.0	motor_selective_stop_signal	89.0	False	1.515	89.0	False	stim	crit_go	s557	False
365.242	0.85	1.0	2.55	1.0	71.0	motor_selective_stop_signal	71.0	False	1.5	89.0	False	stim	noncrit_nosignal	s557	False
367.795	0.85	1.0	2.25	1.0	71.0	motor_selective_stop_signal	71.0	False	1.329	89.0	False	stim	noncrit_nosignal	s557	False
370.047	0.85	1.0	2.25	1.0	71.0	motor_selective_stop_signal	71.0	False	1.106	89.0	False	stim	noncrit_signal	s557	False
372.3	0.85	1.0	2.25	1.0	71.0	motor_selective_stop_signal	71.0	False	0.499	89.0	False	stim	noncrit_nosignal	s557	False
374.552	0.85	1.0	2.35	1.0	71.0	motor_selective_stop_signal	71.0	False	0.659	89.0	False	stim	noncrit_nosignal	s557	False
376.905	0.85	1.0	2.65	1.0	89.0	motor_selective_stop_signal	-1.0	False	n/a	89.0	True	stim	crit_stop_success	s557	False
379.557	0.85	1.0	2.35	1.0	89.0	motor_selective_stop_signal	89.0	False	1.355	89.0	False	stim	crit_go	s557	False
381.909	0.85	1.0	2.25	1.0	71.0	motor_selective_stop_signal	71.0	False	1.368	89.0	False	stim	noncrit_signal	s557	False
384.161	0.85	1.0	2.35	1.0	71.0	motor_selective_stop_signal	71.0	False	0.751	89.0	False	stim	noncrit_nosignal	s557	False
386.513	0.85	1.0	2.35	1.0	89.0	motor_selective_stop_signal	-1.0	False	n/a	89.0	True	stim	crit_stop_success	s557	False
399.372	0.85	1.0	2.85	1.0	89.0	motor_selective_stop_signal	89.0	False	1.339	89.0	False	stim	crit_go	s557	False
402.225	0.85	1.0	2.45	1.0	71.0	motor_selective_stop_signal	71.0	False	0.891	89.0	False	stim	noncrit_nosignal	s557	False
404.676	0.85	1.0	2.35	1.0	89.0	motor_selective_stop_signal	89.0	False	1.766	89.0	False	stim	crit_go	s557	False
407.029	0.85	1.0	2.65	1.0	89.0	motor_selective_stop_signal	89.0	False	1.468	89.0	False	stim	crit_go	s557	False
409.681	0.85	1.0	2.25	1.0	89.0	motor_selective_stop_signal	89.0	False	1.521	89.0	False	stim	crit_go	s557	False
411.933	0.85	1.0	2.25	1.0	71.0	motor_selective_stop_signal	71.0	False	0.693	89.0	False	stim	noncrit_signal	s557	False
414.186	0.85	1.0	2.25	1.0	89.0	motor_selective_stop_signal	89.0	False	1.671	89.0	False	stim	crit_go	s557	False
416.438	0.85	1.0	2.45	0.0	89.0	motor_selective_stop_signal	-1.0	False	n/a	89.0	True	stim	crit_go	s557	False
418.89	0.85	1.0	2.35	1.0	89.0	motor_selective_stop_signal	89.0	False	0.373	89.0	False	stim	crit_go	s557	False
421.242	0.85	1.0	2.25	1.0	89.0	motor_selective_stop_signal	89.0	False	0.538	89.0	False	stim	crit_stop_failure	s557	False
423.495	0.85	0.95	2.35	1.0	89.0	motor_selective_stop_signal	89.0	False	1.168	89.0	False	stim	crit_stop_failure	s557	False
425.847	0.85	0.9	2.45	1.0	71.0	motor_selective_stop_signal	71.0	False	1.066	89.0	False	stim	noncrit_signal	s557	False
428.3	0.85	0.9	2.35	1.0	89.0	motor_selective_stop_signal	89.0	False	1.476	89.0	False	stim	crit_go	s557	False
430.652	0.85	0.9	2.25	1.0	71.0	motor_selective_stop_signal	71.0	False	0.723	89.0	False	stim	noncrit_nosignal	s557	False
432.904	0.85	0.9	2.25	1.0	89.0	motor_selective_stop_signal	89.0	False	1.38	89.0	False	stim	crit_go	s557	False
435.158	0.85	0.9	2.35	1.0	71.0	motor_selective_stop_signal	71.0	False	2.037	89.0	False	stim	noncrit_signal	s557	False
437.51	0.85	0.9	2.35	1.0	89.0	motor_selective_stop_signal	-1.0	False	n/a	89.0	True	stim	crit_stop_success	s557	False
439.863	0.85	0.95	2.35	1.0	71.0	motor_selective_stop_signal	71.0	False	1.297	89.0	False	stim	noncrit_nosignal	s557	False
442.215	0.85	0.95	2.95	1.0	89.0	motor_selective_stop_signal	89.0	False	1.314	89.0	False	stim	crit_go	s557	False
445.168	0.85	0.95	2.25	1.0	89.0	motor_selective_stop_signal	89.0	False	1.261	89.0	False	stim	crit_go	s557	False
447.42	0.85	0.95	2.35	1.0	71.0	motor_selective_stop_signal	71.0	False	1.072	89.0	False	stim	noncrit_nosignal	s557	False
449.771	0.85	0.95	2.25	1.0	71.0	motor_selective_stop_signal	71.0	False	0.95	89.0	False	stim	noncrit_nosignal	s557	False
452.025	0.85	0.95	2.45	1.0	71.0	motor_selective_stop_signal	71.0	False	1.021	89.0	False	stim	noncrit_signal	s557	False
454.477	0.85	0.95	2.35	1.0	71.0	motor_selective_stop_signal	71.0	False	0.861	89.0	False	stim	noncrit_signal	s557	False
456.829	0.85	0.95	2.55	1.0	71.0	motor_selective_stop_signal	71.0	False	0.717	89.0	False	stim	noncrit_signal	s557	False
459.381	0.85	0.95	2.55	1.0	89.0	motor_selective_stop_signal	89.0	False	1.326	89.0	False	stim	crit_go	s557	False
461.933	0.85	0.95	2.25	1.0	89.0	motor_selective_stop_signal	89.0	False	1.305	89.0	False	stim	crit_go	s557	False
464.185	0.85	0.95	2.25	1.0	71.0	motor_selective_stop_signal	71.0	False	0.768	89.0	False	stim	noncrit_nosignal	s557	False
466.438	0.85	0.95	2.75	1.0	89.0	motor_selective_stop_signal	-1.0	False	n/a	89.0	True	stim	crit_stop_success	s557	False
469.19	0.85	1.0	2.35	1.0	89.0	motor_selective_stop_signal	-1.0	False	n/a	89.0	True	stim	crit_stop_success	s557	False
471.543	0.85	1.0	2.25	1.0	89.0	motor_selective_stop_signal	-1.0	False	n/a	89.0	True	stim	crit_stop_success	s557	False
473.795	0.85	1.0	2.45	1.0	71.0	motor_selective_stop_signal	71.0	False	0.705	89.0	False	stim	noncrit_nosignal	s557	False
476.247	0.85	1.0	2.25	1.0	71.0	motor_selective_stop_signal	71.0	False	0.764	89.0	False	stim	noncrit_nosignal	s557	False
478.499	0.85	1.0	2.35	1.0	89.0	motor_selective_stop_signal	89.0	False	1.41	89.0	False	stim	crit_go	s557	False
480.851	0.85	1.0	2.25	1.0	71.0	motor_selective_stop_signal	71.0	False	1.353	89.0	False	stim	noncrit_nosignal	s557	False
483.105	0.85	1.0	2.25	1.0	89.0	motor_selective_stop_signal	-1.0	False	n/a	89.0	True	stim	crit_stop_success	s557	False
485.357	0.85	1.0	2.25	1.0	89.0	motor_selective_stop_signal	-1.0	False	n/a	89.0	True	stim	crit_stop_success	s557	False
487.609	0.85	1.0	2.25	1.0	71.0	motor_selective_stop_signal	71.0	False	1.675	89.0	False	stim	noncrit_nosignal	s557	False
489.861	0.85	1.0	2.25	1.0	71.0	motor_selective_stop_signal	71.0	False	1.396	89.0	False	stim	noncrit_nosignal	s557	False
492.113	0.85	1.0	2.35	1.0	71.0	motor_selective_stop_signal	71.0	False	1.105	89.0	False	stim	noncrit_signal	s557	False
494.465	0.85	1.0	2.55	1.0	89.0	motor_selective_stop_signal	-1.0	False	n/a	89.0	True	stim	crit_stop_success	s557	False
497.017	0.85	1.0	2.95	1.0	71.0	motor_selective_stop_signal	71.0	False	1.388	89.0	False	stim	noncrit_nosignal	s557	False
499.97	0.85	1.0	2.25	1.0	89.0	motor_selective_stop_signal	-1.0	False	n/a	89.0	True	stim	crit_stop_success	s557	False
502.222	0.85	1.0	2.35	1.0	89.0	motor_selective_stop_signal	89.0	False	1.541	89.0	False	stim	crit_go	s557	False
504.575	0.85	1.0	2.55	1.0	89.0	motor_selective_stop_signal	89.0	False	1.483	89.0	False	stim	crit_go	s557	False
507.127	0.85	1.0	2.25	1.0	71.0	motor_selective_stop_signal	71.0	False	1.566	89.0	False	stim	noncrit_signal	s557	False
509.38	0.85	1.0	2.35	1.0	71.0	motor_selective_stop_signal	71.0	False	1.936	89.0	False	stim	noncrit_signal	s557	False
511.733	0.85	1.0	2.55	1.0	71.0	motor_selective_stop_signal	71.0	False	1.699	89.0	False	stim	noncrit_signal	s557	False
514.285	0.85	1.0	2.45	1.0	71.0	motor_selective_stop_signal	71.0	False	1.329	89.0	False	stim	noncrit_signal	s557	False
516.738	0.85	1.0	2.35	1.0	89.0	motor_selective_stop_signal	89.0	False	1.419	89.0	False	stim	crit_go	s557	False
529.598	0.85	1.0	2.65	1.0	71.0	motor_selective_stop_signal	71.0	False	0.618	89.0	False	stim	noncrit_nosignal	s557	False
532.25	0.85	1.0	2.55	1.0	71.0	motor_selective_stop_signal	71.0	False	0.529	89.0	False	stim	noncrit_nosignal	s557	False
534.803	0.85	1.0	2.75	1.0	89.0	motor_selective_stop_signal	89.0	False	1.27	89.0	False	stim	crit_stop_failure	s557	False
537.554	0.85	0.95	2.55	1.0	89.0	motor_selective_stop_signal	-1.0	False	n/a	89.0	True	stim	crit_stop_success	s557	False
540.107	0.85	1.0	2.45	1.0	71.0	motor_selective_stop_signal	71.0	False	1.629	89.0	False	stim	noncrit_signal	s557	False
542.56	0.85	1.0	2.75	1.0	71.0	motor_selective_stop_signal	71.0	False	0.813	89.0	False	stim	noncrit_nosignal	s557	False
545.312	0.85	1.0	2.55	1.0	71.0	motor_selective_stop_signal	71.0	False	1.204	89.0	False	stim	noncrit_nosignal	s557	False
547.864	0.85	1.0	2.35	1.0	89.0	motor_selective_stop_signal	89.0	False	1.202	89.0	False	stim	crit_stop_failure	s557	False
550.217	0.85	0.95	2.25	1.0	89.0	motor_selective_stop_signal	89.0	False	1.475	89.0	False	stim	crit_go	s557	False
552.468	0.85	0.95	2.65	1.0	89.0	motor_selective_stop_signal	89.0	False	1.401	89.0	False	stim	crit_go	s557	False
555.12	0.85	0.95	2.25	1.0	89.0	motor_selective_stop_signal	-1.0	False	n/a	89.0	True	stim	crit_stop_success	s557	False
557.373	0.85	1.0	2.35	1.0	71.0	motor_selective_stop_signal	71.0	False	1.44	89.0	False	stim	noncrit_nosignal	s557	False
559.725	0.85	1.0	2.25	1.0	89.0	motor_selective_stop_signal	89.0	False	1.648	89.0	False	stim	crit_go	s557	False
561.976	0.85	1.0	2.35	1.0	71.0	motor_selective_stop_signal	71.0	False	1.457	89.0	False	stim	noncrit_nosignal	s557	False
564.329	0.85	1.0	2.35	1.0	89.0	motor_selective_stop_signal	89.0	False	2.014	89.0	False	stim	crit_go	s557	False
566.681	0.85	1.0	2.25	1.0	71.0	motor_selective_stop_signal	71.0	False	1.36	89.0	False	stim	noncrit_nosignal	s557	False
568.934	0.85	1.0	2.85	1.0	71.0	motor_selective_stop_signal	71.0	False	1.038	89.0	False	stim	noncrit_signal	s557	False
571.786	0.85	1.0	2.35	1.0	89.0	motor_selective_stop_signal	89.0	False	1.579	89.0	False	stim	crit_go	s557	False
574.139	0.85	1.0	2.25	1.0	89.0	motor_selective_stop_signal	89.0	False	1.593	89.0	False	stim	crit_go	s557	False
576.39	0.85	1.0	2.35	1.0	89.0	motor_selective_stop_signal	89.0	False	1.408	89.0	False	stim	crit_go	s557	False
578.743	0.85	1.0	2.45	1.0	71.0	motor_selective_stop_signal	71.0	False	1.441	89.0	False	stim	noncrit_nosignal	s557	False
581.194	0.85	1.0	2.25	1.0	89.0	motor_selective_stop_signal	-1.0	False	n/a	89.0	True	stim	crit_stop_success	s557	False
583.447	0.85	1.0	2.25	1.0	71.0	motor_selective_stop_signal	71.0	False	1.39	89.0	False	stim	noncrit_signal	s557	False
585.699	0.85	1.0	2.75	1.0	71.0	motor_selective_stop_signal	71.0	False	1.553	89.0	False	stim	noncrit_nosignal	s557	False
588.452	0.85	1.0	2.35	1.0	71.0	motor_selective_stop_signal	71.0	False	1.318	89.0	False	stim	noncrit_signal	s557	False
590.804	0.85	1.0	2.75	1.0	71.0	motor_selective_stop_signal	71.0	False	1.283	89.0	False	stim	noncrit_nosignal	s557	False
593.556	0.85	1.0	2.45	1.0	71.0	motor_selective_stop_signal	71.0	False	1.378	89.0	False	stim	noncrit_nosignal	s557	False
596.009	0.85	1.0	2.25	1.0	71.0	motor_selective_stop_signal	71.0	False	1.4	89.0	False	stim	noncrit_nosignal	s557	False
598.26	0.85	1.0	2.35	1.0	89.0	motor_selective_stop_signal	-1.0	False	n/a	89.0	True	stim	crit_stop_success	s557	False
600.613	0.85	1.0	2.65	1.0	89.0	motor_selective_stop_signal	89.0	False	1.498	89.0	False	stim	crit_go	s557	False
603.266	0.85	1.0	2.45	1.0	89.0	motor_selective_stop_signal	-1.0	False	n/a	89.0	True	stim	crit_stop_success	s557	False
605.718	0.85	1.0	2.25	1.0	89.0	motor_selective_stop_signal	89.0	False	1.429	89.0	False	stim	crit_go	s557	False
607.97	0.85	1.0	2.35	1.0	71.0	motor_selective_stop_signal	71.0	False	1.71	89.0	False	stim	noncrit_signal	s557	False
610.322	0.85	1.0	2.95	1.0	71.0	motor_selective_stop_signal	71.0	False	1.743	89.0	False	stim	noncrit_signal	s557	False
613.275	0.85	1.0	2.25	1.0	89.0	motor_selective_stop_signal	89.0	False	1.667	89.0	False	stim	crit_go	s557	False
615.527	0.85	1.0	2.95	1.0	89.0	motor_selective_stop_signal	89.0	False	1.347	89.0	False	stim	crit_go	s557	False
618.48	0.85	1.0	2.45	1.0	71.0	motor_selective_stop_signal	71.0	False	1.615	89.0	False	stim	noncrit_signal	s557	False
620.932	0.85	1.0	2.25	1.0	89.0	motor_selective_stop_signal	-1.0	False	n/a	89.0	True	stim	crit_stop_success	s557	False
623.185	0.85	1.0	2.35	1.0	89.0	motor_selective_stop_signal	89.0	False	1.49	89.0	False	stim	crit_go	s557	False
625.538	0.85	1.0	2.45	1.0	71.0	motor_selective_stop_signal	71.0	False	1.425	89.0	False	stim	noncrit_nosignal	s557	False
627.99	0.85	1.0	2.25	1.0	89.0	motor_selective_stop_signal	-1.0	False	n/a	89.0	True	stim	crit_stop_success	s557	False
630.243	0.85	1.0	2.45	1.0	71.0	motor_selective_stop_signal	71.0	False	1.632	89.0	False	stim	noncrit_signal	s557	False
632.696	0.85	1.0	2.75	1.0	89.0	motor_selective_stop_signal	89.0	False	1.734	89.0	False	stim	crit_go	s557	False
635.447	0.85	1.0	2.25	1.0	71.0	motor_selective_stop_signal	71.0	False	1.603	89.0	False	stim	noncrit_signal	s557	False
637.699	0.85	1.0	2.35	1.0	71.0	motor_selective_stop_signal	71.0	False	2.069	89.0	False	stim	noncrit_nosignal	s557	False
640.051	0.85	1.0	2.45	1.0	71.0	motor_selective_stop_signal	71.0	False	1.814	89.0	False	stim	noncrit_signal	s557	False
642.504	0.85	1.0	2.35	1.0	89.0	motor_selective_stop_signal	89.0	False	1.801	89.0	False	stim	crit_go	s557	False
644.855	0.85	1.0	2.25	1.0	71.0	motor_selective_stop_signal	71.0	False	1.86	89.0	False	stim	noncrit_signal	s557	False
647.108	0.85	1.0	2.55	1.0	71.0	motor_selective_stop_signal	71.0	False	1.909	89.0	False	stim	noncrit_nosignal	s557	False
649.66	0.85	1.0	2.45	1.0	89.0	motor_selective_stop_signal	89.0	False	1.743	89.0	False	stim	crit_go	s557	False
