onset	duration	movement_onset	CTI	block_duration	correct	correct_response	cue	cue_switch	experiment_exp_id	key_press	response_time	stim_color	stim_number	switch_type	task	task_switch	trial_id	trial_type	worker_id	first_trial_of_block	junk
3.614	1.0	4.435	0.1	2.136	True	89.0	Magnitude	switch	twobytwo	89.0	0.721	blue	9.0	cue_switch	magnitude	stay	stim	poldrack-single-stim	s558	1	False
5.856	1.0	6.962	0.1	2.272	True	71.0	Orange-Blue	n/a	twobytwo	71.0	1.006	blue	8.0	task_switch	color	switch	stim	poldrack-single-stim	s558	0	False
9.033	1.0	10.486	0.9	2.136	True	71.0	Magnitude	n/a	twobytwo	71.0	0.553	orange	2.0	task_switch	magnitude	switch	stim	poldrack-single-stim	s558	0	False
11.272	1.0	12.242	0.1	2.272	True	89.0	Magnitude	stay	twobytwo	89.0	0.87	orange	7.0	cue_stay	magnitude	stay	stim	poldrack-single-stim	s558	0	False
14.449	1.0	16.342	0.9	2.0	True	71.0	Orange-Blue	n/a	twobytwo	71.0	0.993	blue	4.0	task_switch	color	switch	stim	poldrack-single-stim	s558	0	False
16.553	1.0	17.46	0.1	2.816	True	89.0	Orange-Blue	stay	twobytwo	89.0	0.807	orange	3.0	cue_stay	color	stay	stim	poldrack-single-stim	s558	0	False
19.474	1.0	20.37	0.1	2.408	False	71.0	Color	switch	twobytwo	89.0	0.796	blue	3.0	cue_switch	color	stay	stim	poldrack-single-stim	s558	0	False
22.787	1.0	24.383	0.9	2.0	True	89.0	Color	stay	twobytwo	89.0	0.696	orange	2.0	cue_stay	color	stay	stim	poldrack-single-stim	s558	0	False
24.892	1.0	25.95	0.1	2.544	True	89.0	Color	stay	twobytwo	89.0	0.958	orange	2.0	cue_stay	color	stay	stim	poldrack-single-stim	s558	0	False
27.54	1.0	28.61	0.1	2.136	True	71.0	Magnitude	n/a	twobytwo	71.0	0.97	orange	1.0	task_switch	magnitude	switch	stim	poldrack-single-stim	s558	0	False
30.58	1.0	32.106	0.9	2.0	True	89.0	Orange-Blue	n/a	twobytwo	89.0	0.626	orange	3.0	task_switch	color	switch	stim	poldrack-single-stim	s558	0	False
32.684	1.0	33.713	0.1	2.0	True	89.0	Orange-Blue	stay	twobytwo	89.0	0.929	orange	4.0	cue_stay	color	stay	stim	poldrack-single-stim	s558	0	False
34.788	1.0	35.561	0.1	2.136	True	71.0	Color	switch	twobytwo	71.0	0.673	blue	4.0	cue_switch	color	stay	stim	poldrack-single-stim	s558	0	False
37.027	1.0	37.984	0.1	2.136	True	89.0	Color	stay	twobytwo	89.0	0.857	orange	3.0	cue_stay	color	stay	stim	poldrack-single-stim	s558	0	False
40.068	1.0	41.517	0.9	2.272	True	71.0	High-Low	n/a	twobytwo	71.0	0.549	orange	2.0	task_switch	magnitude	switch	stim	poldrack-single-stim	s558	0	False
43.245	1.0	44.8	0.9	3.224	True	89.0	Magnitude	switch	twobytwo	89.0	0.655	orange	6.0	cue_switch	magnitude	stay	stim	poldrack-single-stim	s558	0	False
47.373	1.0	48.963	0.9	2.0	True	89.0	High-Low	switch	twobytwo	89.0	0.69	blue	9.0	cue_switch	magnitude	stay	stim	poldrack-single-stim	s558	0	False
49.477	1.0	50.424	0.1	2.0	True	89.0	Color	n/a	twobytwo	89.0	0.847	orange	8.0	task_switch	color	switch	stim	poldrack-single-stim	s558	0	False
51.581	1.0	52.924	0.1	2.272	True	89.0	Magnitude	n/a	twobytwo	89.0	1.243	orange	6.0	task_switch	magnitude	switch	stim	poldrack-single-stim	s558	0	False
54.759	1.0	56.609	0.9	2.136	True	89.0	Orange-Blue	n/a	twobytwo	89.0	0.95	orange	8.0	task_switch	color	switch	stim	poldrack-single-stim	s558	0	False
57.801	1.0	59.513	0.9	2.0	True	71.0	Color	switch	twobytwo	71.0	0.812	blue	8.0	cue_switch	color	stay	stim	poldrack-single-stim	s558	0	False
59.906	1.0	60.723	0.1	2.0	True	89.0	Color	stay	twobytwo	89.0	0.717	orange	8.0	cue_stay	color	stay	stim	poldrack-single-stim	s558	0	False
62.81	1.0	64.705	0.9	2.0	False	71.0	Color	stay	twobytwo	89.0	0.995	blue	2.0	cue_stay	color	stay	stim	poldrack-single-stim	s558	0	False
64.916	1.0	65.678	0.1	2.68	True	71.0	Color	stay	twobytwo	71.0	0.662	blue	8.0	cue_stay	color	stay	stim	poldrack-single-stim	s558	0	False
68.501	1.0	70.84	0.9	2.0	True	71.0	Magnitude	n/a	twobytwo	71.0	1.439	blue	4.0	task_switch	magnitude	switch	stim	poldrack-single-stim	s558	0	False
71.404	1.0	73.087	0.9	2.272	True	71.0	Color	n/a	twobytwo	71.0	0.783	blue	3.0	task_switch	color	switch	stim	poldrack-single-stim	s558	0	False
73.781	1.0	74.585	0.1	2.0	True	71.0	High-Low	n/a	twobytwo	71.0	0.704	blue	2.0	task_switch	magnitude	switch	stim	poldrack-single-stim	s558	0	False
76.686	1.0	78.383	0.9	2.272	True	71.0	Magnitude	switch	twobytwo	71.0	0.797	blue	1.0	cue_switch	magnitude	stay	stim	poldrack-single-stim	s558	0	False
79.062	1.0	80.145	0.1	2.952	True	89.0	High-Low	switch	twobytwo	89.0	0.983	orange	9.0	cue_switch	magnitude	stay	stim	poldrack-single-stim	s558	0	False
82.118	1.0	83.03	0.1	2.0	True	71.0	Color	n/a	twobytwo	71.0	0.812	blue	4.0	task_switch	color	switch	stim	poldrack-single-stim	s558	0	False
84.222	1.0	85.193	0.1	2.0	True	89.0	Orange-Blue	switch	twobytwo	89.0	0.871	orange	8.0	cue_switch	color	stay	stim	poldrack-single-stim	s558	0	False
86.326	1.0	87.67	0.1	2.0	True	71.0	Magnitude	n/a	twobytwo	71.0	1.244	orange	1.0	task_switch	magnitude	switch	stim	poldrack-single-stim	s558	0	False
88.43	1.0	89.402	0.1	2.0	True	89.0	Magnitude	stay	twobytwo	89.0	0.872	blue	8.0	cue_stay	magnitude	stay	stim	poldrack-single-stim	s558	0	False
91.334	1.0	93.392	0.9	2.136	True	71.0	High-Low	switch	twobytwo	71.0	1.158	orange	3.0	cue_switch	magnitude	stay	stim	poldrack-single-stim	s558	0	False
93.574	1.0	94.624	0.1	2.0	True	89.0	Orange-Blue	n/a	twobytwo	89.0	0.95	orange	7.0	task_switch	color	switch	stim	poldrack-single-stim	s558	0	False
96.479	1.0	98.045	0.9	2.0	True	89.0	High-Low	n/a	twobytwo	89.0	0.666	blue	8.0	task_switch	magnitude	switch	stim	poldrack-single-stim	s558	0	False
99.382	1.0	100.826	0.9	2.0	True	71.0	Magnitude	switch	twobytwo	71.0	0.544	orange	4.0	cue_switch	magnitude	stay	stim	poldrack-single-stim	s558	0	False
102.287	1.0	104.218	0.9	2.272	True	71.0	Orange-Blue	n/a	twobytwo	71.0	1.031	blue	2.0	task_switch	color	switch	stim	poldrack-single-stim	s558	0	False
105.463	1.0	107.132	0.9	2.136	True	71.0	Magnitude	n/a	twobytwo	71.0	0.769	orange	2.0	task_switch	magnitude	switch	stim	poldrack-single-stim	s558	0	False
108.504	1.0	109.915	0.9	2.0	True	71.0	Orange-Blue	n/a	twobytwo	71.0	0.511	blue	8.0	task_switch	color	switch	stim	poldrack-single-stim	s558	0	False
111.409	1.0	113.284	0.9	2.136	True	71.0	High-Low	n/a	twobytwo	71.0	0.975	blue	1.0	task_switch	magnitude	switch	stim	poldrack-single-stim	s558	0	False
113.649	1.0	114.561	0.1	2.816	True	89.0	Orange-Blue	n/a	twobytwo	89.0	0.812	orange	3.0	task_switch	color	switch	stim	poldrack-single-stim	s558	0	False
117.371	1.0	118.831	0.9	2.408	True	71.0	Color	switch	twobytwo	71.0	0.56	blue	3.0	cue_switch	color	stay	stim	poldrack-single-stim	s558	0	False
119.882	1.0	120.855	0.1	2.0	True	89.0	Magnitude	n/a	twobytwo	89.0	0.873	orange	8.0	task_switch	magnitude	switch	stim	poldrack-single-stim	s558	0	False
122.786	1.0	124.605	0.9	2.136	True	71.0	Orange-Blue	n/a	twobytwo	71.0	0.919	blue	2.0	task_switch	color	switch	stim	poldrack-single-stim	s558	0	False
125.025	1.0	125.946	0.1	2.136	True	89.0	Orange-Blue	stay	twobytwo	89.0	0.821	orange	6.0	cue_stay	color	stay	stim	poldrack-single-stim	s558	0	False
127.265	1.0	128.615	0.1	2.136	True	71.0	Color	switch	twobytwo	71.0	1.25	blue	1.0	cue_switch	color	stay	stim	poldrack-single-stim	s558	0	False
130.306	1.0	131.923	0.9	2.544	True	71.0	High-Low	n/a	twobytwo	71.0	0.717	blue	3.0	task_switch	magnitude	switch	stim	poldrack-single-stim	s558	0	False
132.955	1.0	133.813	0.1	2.136	True	89.0	Orange-Blue	n/a	twobytwo	89.0	0.758	orange	6.0	task_switch	color	switch	stim	poldrack-single-stim	s558	0	False
135.196	1.0	136.027	0.1	2.0	False	71.0	High-Low	n/a	twobytwo	89.0	0.731	orange	4.0	task_switch	magnitude	switch	stim	poldrack-single-stim	s558	0	False
137.301	1.0	138.555	0.1	2.0	True	89.0	Orange-Blue	n/a	twobytwo	89.0	1.154	orange	1.0	task_switch	color	switch	stim	poldrack-single-stim	s558	0	False
139.405	1.0	140.311	0.1	2.0	True	71.0	Orange-Blue	stay	twobytwo	71.0	0.806	blue	6.0	cue_stay	color	stay	stim	poldrack-single-stim	s558	0	False
142.31	1.0	143.737	0.9	2.0	True	89.0	High-Low	n/a	twobytwo	89.0	0.527	blue	9.0	task_switch	magnitude	switch	stim	poldrack-single-stim	s558	0	False
145.213	1.0	146.921	0.9	2.136	True	71.0	Color	n/a	twobytwo	71.0	0.808	blue	1.0	task_switch	color	switch	stim	poldrack-single-stim	s558	0	False
148.253	1.0	149.938	0.9	2.0	True	89.0	Orange-Blue	switch	twobytwo	89.0	0.785	orange	3.0	cue_switch	color	stay	stim	poldrack-single-stim	s558	0	False
150.358	1.0	151.187	0.1	2.0	True	89.0	Color	switch	twobytwo	89.0	0.729	orange	6.0	cue_switch	color	stay	stim	poldrack-single-stim	s558	0	False
152.462	1.0	153.289	0.1	2.0	True	71.0	Color	stay	twobytwo	71.0	0.727	blue	4.0	cue_stay	color	stay	stim	poldrack-single-stim	s558	0	False
154.566	1.0	155.412	0.1	2.136	True	71.0	High-Low	n/a	twobytwo	71.0	0.746	orange	2.0	task_switch	magnitude	switch	stim	poldrack-single-stim	s558	0	False
156.809	1.0	157.756	0.1	2.136	False	71.0	Orange-Blue	n/a	twobytwo	89.0	0.847	blue	9.0	task_switch	color	switch	stim	poldrack-single-stim	s558	0	False
159.849	1.0	161.551	0.9	2.136	False	71.0	Orange-Blue	stay	twobytwo	89.0	0.802	blue	1.0	cue_stay	color	stay	stim	poldrack-single-stim	s558	0	False
162.089	1.0	163.103	0.1	2.136	False	71.0	High-Low	n/a	twobytwo	89.0	0.914	orange	3.0	task_switch	magnitude	switch	stim	poldrack-single-stim	s558	0	False
164.329	1.0	165.217	0.1	2.68	True	89.0	High-Low	stay	twobytwo	89.0	0.788	orange	8.0	cue_stay	magnitude	stay	stim	poldrack-single-stim	s558	0	False
167.913	1.0	169.463	0.9	2.544	True	89.0	Magnitude	switch	twobytwo	89.0	0.65	blue	9.0	cue_switch	magnitude	stay	stim	poldrack-single-stim	s558	0	False
170.561	1.0	172.246	0.1	2.272	False	89.0	High-Low	switch	twobytwo	71.0	1.585	blue	6.0	cue_switch	magnitude	stay	stim	poldrack-single-stim	s558	0	False
173.737	1.0	175.241	0.9	2.272	True	71.0	Magnitude	switch	twobytwo	71.0	0.604	orange	3.0	cue_switch	magnitude	stay	stim	poldrack-single-stim	s558	0	False
176.915	1.0	178.266	0.9	2.408	False	71.0	Color	n/a	twobytwo	89.0	0.451	blue	8.0	task_switch	color	switch	stim	poldrack-single-stim	s558	0	False
180.227	1.0	181.821	0.9	2.136	True	89.0	Color	stay	twobytwo	89.0	0.694	orange	6.0	cue_stay	color	stay	stim	poldrack-single-stim	s558	0	False
183.268	1.0	184.87	0.9	2.272	True	71.0	High-Low	n/a	twobytwo	71.0	0.702	orange	1.0	task_switch	magnitude	switch	stim	poldrack-single-stim	s558	0	False
185.645	1.0	186.867	0.1	2.0	True	89.0	Magnitude	switch	twobytwo	89.0	1.122	blue	9.0	cue_switch	magnitude	stay	stim	poldrack-single-stim	s558	0	False
187.748	1.0	188.571	0.1	2.136	True	89.0	High-Low	switch	twobytwo	89.0	0.723	orange	8.0	cue_switch	magnitude	stay	stim	poldrack-single-stim	s558	0	False
189.988	1.0	190.837	0.1	2.272	True	89.0	High-Low	stay	twobytwo	89.0	0.749	orange	7.0	cue_stay	magnitude	stay	stim	poldrack-single-stim	s558	0	False
192.363	1.0	193.722	0.1	2.0	True	71.0	Color	n/a	twobytwo	71.0	1.259	blue	7.0	task_switch	color	switch	stim	poldrack-single-stim	s558	0	False
195.267	1.0	196.78	0.9	2.68	True	89.0	High-Low	n/a	twobytwo	89.0	0.613	blue	8.0	task_switch	magnitude	switch	stim	poldrack-single-stim	s558	0	False
198.852	1.0	200.466	0.9	2.0	True	89.0	Magnitude	switch	twobytwo	89.0	0.714	blue	8.0	cue_switch	magnitude	stay	stim	poldrack-single-stim	s558	0	False
200.957	1.0	202.79	0.1	2.0	True	89.0	Orange-Blue	n/a	twobytwo	89.0	1.733	orange	2.0	task_switch	color	switch	stim	poldrack-single-stim	s558	0	False
203.061	1.0	203.98	0.1	2.0	True	89.0	Orange-Blue	stay	twobytwo	89.0	0.819	orange	7.0	cue_stay	color	stay	stim	poldrack-single-stim	s558	0	False
205.965	1.0	207.69	0.9	2.272	True	71.0	Magnitude	n/a	twobytwo	71.0	0.825	blue	2.0	task_switch	magnitude	switch	stim	poldrack-single-stim	s558	0	False
209.142	1.0	210.651	0.9	2.0	True	89.0	Color	n/a	twobytwo	89.0	0.609	orange	8.0	task_switch	color	switch	stim	poldrack-single-stim	s558	0	False
212.047	1.0	213.743	0.9	2.0	True	71.0	Magnitude	n/a	twobytwo	71.0	0.796	orange	4.0	task_switch	magnitude	switch	stim	poldrack-single-stim	s558	0	False
214.152	1.0	215.016	0.1	2.0	True	71.0	Orange-Blue	n/a	twobytwo	71.0	0.764	blue	3.0	task_switch	color	switch	stim	poldrack-single-stim	s558	0	False
229.766	1.0	230.636	0.1	2.68	True	89.0	Magnitude	switch	twobytwo	89.0	0.77	blue	9.0	cue_switch	magnitude	stay	stim	poldrack-single-stim	s558	1	False
232.55	1.0	233.63	0.1	2.0	True	71.0	Orange-Blue	n/a	twobytwo	71.0	0.98	blue	8.0	task_switch	color	switch	stim	poldrack-single-stim	s558	0	False
235.455	1.0	236.999	0.9	2.136	True	71.0	High-Low	n/a	twobytwo	71.0	0.644	orange	2.0	task_switch	magnitude	switch	stim	poldrack-single-stim	s558	0	False
237.697	1.0	238.796	0.1	2.408	True	89.0	High-Low	stay	twobytwo	89.0	0.999	orange	7.0	cue_stay	magnitude	stay	stim	poldrack-single-stim	s558	0	False
241.009	1.0	242.682	0.9	2.136	True	71.0	Orange-Blue	n/a	twobytwo	71.0	0.773	blue	4.0	task_switch	color	switch	stim	poldrack-single-stim	s558	0	False
243.249	1.0	244.024	0.1	2.0	True	89.0	Orange-Blue	stay	twobytwo	89.0	0.675	orange	3.0	cue_stay	color	stay	stim	poldrack-single-stim	s558	0	False
245.353	1.0	246.244	0.1	2.0	True	71.0	Color	switch	twobytwo	71.0	0.791	blue	3.0	cue_switch	color	stay	stim	poldrack-single-stim	s558	0	False
248.258	1.0	249.733	0.9	2.544	True	89.0	Color	stay	twobytwo	89.0	0.575	orange	2.0	cue_stay	color	stay	stim	poldrack-single-stim	s558	0	False
250.907	1.0	251.706	0.1	2.136	True	89.0	Color	stay	twobytwo	89.0	0.699	orange	2.0	cue_stay	color	stay	stim	poldrack-single-stim	s558	0	False
253.148	1.0	253.941	0.1	2.544	False	71.0	Magnitude	n/a	twobytwo	89.0	0.693	orange	1.0	task_switch	magnitude	switch	stim	poldrack-single-stim	s558	0	False
256.597	1.0	258.24	0.9	2.68	True	89.0	Orange-Blue	n/a	twobytwo	89.0	0.743	orange	3.0	task_switch	color	switch	stim	poldrack-single-stim	s558	0	False
259.381	1.0	260.822	0.1	2.0	True	89.0	Orange-Blue	stay	twobytwo	89.0	1.341	orange	4.0	cue_stay	color	stay	stim	poldrack-single-stim	s558	0	False
261.486	1.0	262.277	0.1	2.272	True	71.0	Color	switch	twobytwo	71.0	0.691	blue	4.0	cue_switch	color	stay	stim	poldrack-single-stim	s558	0	False
263.862	1.0	264.836	0.1	3.088	True	89.0	Color	stay	twobytwo	89.0	0.874	orange	3.0	cue_stay	color	stay	stim	poldrack-single-stim	s558	0	False
267.855	1.0	269.799	0.9	2.0	True	71.0	Magnitude	n/a	twobytwo	71.0	1.044	orange	2.0	task_switch	magnitude	switch	stim	poldrack-single-stim	s558	0	False
270.762	1.0	272.299	0.9	2.136	True	89.0	High-Low	switch	twobytwo	89.0	0.637	orange	6.0	cue_switch	magnitude	stay	stim	poldrack-single-stim	s558	0	False
273.803	1.0	276.045	0.9	2.136	False	89.0	Magnitude	switch	twobytwo	71.0	1.342	blue	9.0	cue_switch	magnitude	stay	stim	poldrack-single-stim	s558	0	False
276.044	1.0	277.355	0.1	2.0	True	89.0	Orange-Blue	n/a	twobytwo	89.0	1.211	orange	8.0	task_switch	color	switch	stim	poldrack-single-stim	s558	0	False
278.148	1.0	279.276	0.1	2.272	True	89.0	Magnitude	n/a	twobytwo	89.0	1.028	orange	6.0	task_switch	magnitude	switch	stim	poldrack-single-stim	s558	0	False
281.325	1.0	282.907	0.9	2.0	True	89.0	Color	n/a	twobytwo	89.0	0.682	orange	8.0	task_switch	color	switch	stim	poldrack-single-stim	s558	0	False
284.231	1.0	285.666	0.9	2.136	True	71.0	Orange-Blue	switch	twobytwo	71.0	0.535	blue	8.0	cue_switch	color	stay	stim	poldrack-single-stim	s558	0	False
286.472	1.0	287.383	0.1	2.136	True	89.0	Orange-Blue	stay	twobytwo	89.0	0.811	orange	8.0	cue_stay	color	stay	stim	poldrack-single-stim	s558	0	False
289.512	1.0	291.292	0.9	2.544	True	71.0	Orange-Blue	stay	twobytwo	71.0	0.88	blue	2.0	cue_stay	color	stay	stim	poldrack-single-stim	s558	0	False
292.161	1.0	292.923	0.1	2.0	True	71.0	Orange-Blue	stay	twobytwo	71.0	0.662	blue	8.0	cue_stay	color	stay	stim	poldrack-single-stim	s558	0	False
295.064	1.0	296.611	0.9	2.136	True	71.0	Magnitude	n/a	twobytwo	71.0	0.647	blue	4.0	task_switch	magnitude	switch	stim	poldrack-single-stim	s558	0	False
298.105	1.0	299.439	0.9	2.136	True	71.0	Color	n/a	twobytwo	71.0	0.434	blue	3.0	task_switch	color	switch	stim	poldrack-single-stim	s558	0	False
300.345	1.0	301.899	0.1	2.136	True	71.0	High-Low	n/a	twobytwo	71.0	1.454	blue	2.0	task_switch	magnitude	switch	stim	poldrack-single-stim	s558	0	False
303.385	1.0	305.054	0.9	2.0	True	71.0	Magnitude	switch	twobytwo	71.0	0.769	blue	1.0	cue_switch	magnitude	stay	stim	poldrack-single-stim	s558	0	False
305.49	1.0	306.354	0.1	2.136	True	89.0	High-Low	switch	twobytwo	89.0	0.764	orange	9.0	cue_switch	magnitude	stay	stim	poldrack-single-stim	s558	0	False
307.731	1.0	308.865	0.1	2.0	True	71.0	Orange-Blue	n/a	twobytwo	71.0	1.034	blue	4.0	task_switch	color	switch	stim	poldrack-single-stim	s558	0	False
309.836	1.0	310.75	0.1	2.136	True	89.0	Color	switch	twobytwo	89.0	0.814	orange	8.0	cue_switch	color	stay	stim	poldrack-single-stim	s558	0	False
312.076	1.0	313.723	0.1	2.816	True	71.0	High-Low	n/a	twobytwo	71.0	1.547	orange	1.0	task_switch	magnitude	switch	stim	poldrack-single-stim	s558	0	False
314.996	1.0	315.828	0.1	2.136	True	89.0	High-Low	stay	twobytwo	89.0	0.732	blue	8.0	cue_stay	magnitude	stay	stim	poldrack-single-stim	s558	0	False
318.036	1.0	319.533	0.9	2.0	True	71.0	Magnitude	switch	twobytwo	71.0	0.597	orange	3.0	cue_switch	magnitude	stay	stim	poldrack-single-stim	s558	0	False
320.14	1.0	321.045	0.1	2.0	True	89.0	Orange-Blue	n/a	twobytwo	89.0	0.805	orange	7.0	task_switch	color	switch	stim	poldrack-single-stim	s558	0	False
323.044	1.0	324.558	0.9	2.272	True	89.0	High-Low	n/a	twobytwo	89.0	0.614	blue	8.0	task_switch	magnitude	switch	stim	poldrack-single-stim	s558	0	False
326.221	1.0	327.834	0.9	2.0	True	71.0	Magnitude	switch	twobytwo	71.0	0.713	orange	4.0	cue_switch	magnitude	stay	stim	poldrack-single-stim	s558	0	False
329.125	1.0	331.017	0.9	2.0	True	71.0	Orange-Blue	n/a	twobytwo	71.0	0.992	blue	2.0	task_switch	color	switch	stim	poldrack-single-stim	s558	0	False
332.03	1.0	333.776	0.9	2.0	False	71.0	Magnitude	n/a	twobytwo	89.0	0.846	orange	2.0	task_switch	magnitude	switch	stim	poldrack-single-stim	s558	0	False
334.935	1.0	337.38	0.9	2.408	False	71.0	Orange-Blue	n/a	twobytwo	89.0	1.545	blue	8.0	task_switch	color	switch	stim	poldrack-single-stim	s558	0	False
338.248	1.0	338.247	0.9	2.272	False	71.0	Magnitude	n/a	twobytwo	-1.0	n/a	blue	1.0	task_switch	magnitude	switch	stim	poldrack-single-stim	s558	0	False
340.623	1.0	341.496	0.1	2.136	True	89.0	Orange-Blue	n/a	twobytwo	89.0	0.773	orange	3.0	task_switch	color	switch	stim	poldrack-single-stim	s558	0	False
343.663	1.0	345.713	0.9	2.0	False	71.0	Color	switch	twobytwo	89.0	1.15	blue	3.0	cue_switch	color	stay	stim	poldrack-single-stim	s558	0	False
345.768	1.0	346.916	0.1	2.0	True	89.0	Magnitude	n/a	twobytwo	89.0	1.048	orange	8.0	task_switch	magnitude	switch	stim	poldrack-single-stim	s558	0	False
348.672	1.0	350.356	0.9	2.136	True	71.0	Color	n/a	twobytwo	71.0	0.784	blue	2.0	task_switch	color	switch	stim	poldrack-single-stim	s558	0	False
350.911	1.0	351.795	0.1	2.0	True	89.0	Color	stay	twobytwo	89.0	0.784	orange	6.0	cue_stay	color	stay	stim	poldrack-single-stim	s558	0	False
353.017	1.0	354.067	0.1	2.136	True	71.0	Orange-Blue	switch	twobytwo	71.0	0.95	blue	1.0	cue_switch	color	stay	stim	poldrack-single-stim	s558	0	False
356.058	1.0	357.569	0.9	2.408	True	71.0	High-Low	n/a	twobytwo	71.0	0.611	blue	3.0	task_switch	magnitude	switch	stim	poldrack-single-stim	s558	0	False
358.571	1.0	360.362	0.1	2.136	False	89.0	Orange-Blue	n/a	twobytwo	71.0	1.691	orange	6.0	task_switch	color	switch	stim	poldrack-single-stim	s558	0	False
360.811	1.0	362.233	0.1	2.0	True	71.0	Magnitude	n/a	twobytwo	71.0	1.322	orange	4.0	task_switch	magnitude	switch	stim	poldrack-single-stim	s558	0	False
362.916	1.0	364.04	0.1	2.136	True	89.0	Orange-Blue	n/a	twobytwo	89.0	1.024	orange	1.0	task_switch	color	switch	stim	poldrack-single-stim	s558	0	False
365.158	1.0	366.061	0.1	2.272	True	71.0	Orange-Blue	stay	twobytwo	71.0	0.803	blue	6.0	cue_stay	color	stay	stim	poldrack-single-stim	s558	0	False
368.335	1.0	370.7	0.9	2.0	True	89.0	Magnitude	n/a	twobytwo	89.0	1.465	blue	9.0	task_switch	magnitude	switch	stim	poldrack-single-stim	s558	0	False
371.24	1.0	372.927	0.9	2.408	True	71.0	Orange-Blue	n/a	twobytwo	71.0	0.787	blue	1.0	task_switch	color	switch	stim	poldrack-single-stim	s558	0	False
374.553	1.0	376.233	0.9	2.0	True	89.0	Color	switch	twobytwo	89.0	0.78	orange	3.0	cue_switch	color	stay	stim	poldrack-single-stim	s558	0	False
376.656	1.0	377.509	0.1	2.136	True	89.0	Orange-Blue	switch	twobytwo	89.0	0.753	orange	6.0	cue_switch	color	stay	stim	poldrack-single-stim	s558	0	False
378.897	1.0	379.643	0.1	2.408	True	71.0	Orange-Blue	stay	twobytwo	71.0	0.646	blue	4.0	cue_stay	color	stay	stim	poldrack-single-stim	s558	0	False
381.409	1.0	382.435	0.1	2.136	True	71.0	Magnitude	n/a	twobytwo	71.0	0.926	orange	2.0	task_switch	magnitude	switch	stim	poldrack-single-stim	s558	0	False
383.649	1.0	384.54	0.1	2.408	True	71.0	Color	n/a	twobytwo	71.0	0.791	blue	9.0	task_switch	color	switch	stim	poldrack-single-stim	s558	0	False
386.961	1.0	388.386	0.9	2.136	True	71.0	Color	stay	twobytwo	71.0	0.525	blue	1.0	cue_stay	color	stay	stim	poldrack-single-stim	s558	0	False
389.201	1.0	390.204	0.1	2.0	True	71.0	High-Low	n/a	twobytwo	71.0	0.903	orange	3.0	task_switch	magnitude	switch	stim	poldrack-single-stim	s558	0	False
391.305	1.0	392.174	0.1	2.272	True	89.0	High-Low	stay	twobytwo	89.0	0.769	orange	8.0	cue_stay	magnitude	stay	stim	poldrack-single-stim	s558	0	False
394.481	1.0	396.577	0.9	2.0	True	89.0	Magnitude	switch	twobytwo	89.0	1.196	blue	9.0	cue_switch	magnitude	stay	stim	poldrack-single-stim	s558	0	False
396.586	1.0	397.931	0.1	2.272	False	89.0	High-Low	switch	twobytwo	71.0	1.245	blue	6.0	cue_switch	magnitude	stay	stim	poldrack-single-stim	s558	0	False
399.763	1.0	401.258	0.9	2.272	True	71.0	Magnitude	switch	twobytwo	71.0	0.595	orange	3.0	cue_switch	magnitude	stay	stim	poldrack-single-stim	s558	0	False
402.941	1.0	404.57	0.9	2.952	True	71.0	Orange-Blue	n/a	twobytwo	71.0	0.729	blue	8.0	task_switch	color	switch	stim	poldrack-single-stim	s558	0	False
406.797	1.0	408.4	0.9	2.68	True	89.0	Orange-Blue	stay	twobytwo	89.0	0.703	orange	6.0	cue_stay	color	stay	stim	poldrack-single-stim	s558	0	False
410.38	1.0	412.56	0.9	2.136	True	71.0	Magnitude	n/a	twobytwo	71.0	1.28	orange	1.0	task_switch	magnitude	switch	stim	poldrack-single-stim	s558	0	False
412.621	1.0	413.487	0.1	2.272	True	89.0	High-Low	switch	twobytwo	89.0	0.766	blue	9.0	cue_switch	magnitude	stay	stim	poldrack-single-stim	s558	0	False
414.997	1.0	415.941	0.1	2.272	True	89.0	Magnitude	switch	twobytwo	89.0	0.844	orange	8.0	cue_switch	magnitude	stay	stim	poldrack-single-stim	s558	0	False
417.373	1.0	418.258	0.1	2.136	True	89.0	Magnitude	stay	twobytwo	89.0	0.785	orange	7.0	cue_stay	magnitude	stay	stim	poldrack-single-stim	s558	0	False
419.613	1.0	420.458	0.1	2.408	True	71.0	Orange-Blue	n/a	twobytwo	71.0	0.745	blue	7.0	task_switch	color	switch	stim	poldrack-single-stim	s558	0	False
422.925	1.0	424.518	0.9	2.136	True	89.0	High-Low	n/a	twobytwo	89.0	0.693	blue	8.0	task_switch	magnitude	switch	stim	poldrack-single-stim	s558	0	False
425.965	1.0	427.595	0.9	2.136	True	89.0	Magnitude	switch	twobytwo	89.0	0.73	blue	8.0	cue_switch	magnitude	stay	stim	poldrack-single-stim	s558	0	False
428.205	1.0	429.196	0.1	2.0	False	89.0	Orange-Blue	n/a	twobytwo	71.0	0.891	orange	2.0	task_switch	color	switch	stim	poldrack-single-stim	s558	0	False
430.31	1.0	431.122	0.1	2.0	True	89.0	Orange-Blue	stay	twobytwo	89.0	0.712	orange	7.0	cue_stay	color	stay	stim	poldrack-single-stim	s558	0	False
433.214	1.0	434.727	0.9	2.0	True	71.0	High-Low	n/a	twobytwo	71.0	0.613	blue	2.0	task_switch	magnitude	switch	stim	poldrack-single-stim	s558	0	False
436.118	1.0	437.661	0.9	2.0	True	89.0	Orange-Blue	n/a	twobytwo	89.0	0.643	orange	8.0	task_switch	color	switch	stim	poldrack-single-stim	s558	0	False
439.023	1.0	440.472	0.9	2.0	True	71.0	Magnitude	n/a	twobytwo	71.0	0.549	orange	4.0	task_switch	magnitude	switch	stim	poldrack-single-stim	s558	0	False
441.128	1.0	442.215	0.1	2.272	True	71.0	Orange-Blue	n/a	twobytwo	71.0	0.987	blue	3.0	task_switch	color	switch	stim	poldrack-single-stim	s558	0	False
457.012	1.0	457.839	0.1	2.408	True	89.0	Magnitude	switch	twobytwo	89.0	0.727	blue	9.0	cue_switch	magnitude	stay	stim	poldrack-single-stim	s558	1	False
459.524	1.0	460.542	0.1	2.0	False	71.0	Color	n/a	twobytwo	89.0	0.918	blue	8.0	task_switch	color	switch	stim	poldrack-single-stim	s558	0	False
462.427	1.0	463.822	0.9	2.136	True	71.0	High-Low	n/a	twobytwo	71.0	0.495	orange	2.0	task_switch	magnitude	switch	stim	poldrack-single-stim	s558	0	False
464.668	1.0	465.936	0.1	2.0	True	89.0	High-Low	stay	twobytwo	89.0	1.168	orange	7.0	cue_stay	magnitude	stay	stim	poldrack-single-stim	s558	0	False
467.572	1.0	469.45	0.9	2.136	True	71.0	Orange-Blue	n/a	twobytwo	71.0	0.978	blue	4.0	task_switch	color	switch	stim	poldrack-single-stim	s558	0	False
469.813	1.0	470.619	0.1	2.544	True	89.0	Orange-Blue	stay	twobytwo	89.0	0.706	orange	3.0	cue_stay	color	stay	stim	poldrack-single-stim	s558	0	False
472.462	1.0	473.444	0.1	2.68	True	71.0	Color	switch	twobytwo	71.0	0.882	blue	3.0	cue_switch	color	stay	stim	poldrack-single-stim	s558	0	False
476.047	1.0	477.49	0.9	3.088	True	89.0	Color	stay	twobytwo	89.0	0.543	orange	2.0	cue_stay	color	stay	stim	poldrack-single-stim	s558	0	False
479.24	1.0	480.065	0.1	2.136	True	89.0	Color	stay	twobytwo	89.0	0.725	orange	2.0	cue_stay	color	stay	stim	poldrack-single-stim	s558	0	False
481.48	1.0	483.565	0.1	2.544	False	71.0	High-Low	n/a	twobytwo	89.0	1.985	orange	1.0	task_switch	magnitude	switch	stim	poldrack-single-stim	s558	0	False
484.929	1.0	486.994	0.9	2.0	True	89.0	Orange-Blue	n/a	twobytwo	89.0	1.165	orange	3.0	task_switch	color	switch	stim	poldrack-single-stim	s558	0	False
487.034	1.0	488.068	0.1	2.136	True	89.0	Orange-Blue	stay	twobytwo	89.0	0.934	orange	4.0	cue_stay	color	stay	stim	poldrack-single-stim	s558	0	False
489.274	1.0	490.539	0.1	2.0	True	71.0	Color	switch	twobytwo	71.0	1.165	blue	4.0	cue_switch	color	stay	stim	poldrack-single-stim	s558	0	False
491.379	1.0	492.236	0.1	2.408	True	89.0	Color	stay	twobytwo	89.0	0.757	orange	3.0	cue_stay	color	stay	stim	poldrack-single-stim	s558	0	False
494.692	1.0	496.329	0.9	2.0	True	71.0	Magnitude	n/a	twobytwo	71.0	0.737	orange	2.0	task_switch	magnitude	switch	stim	poldrack-single-stim	s558	0	False
497.597	1.0	500.022	0.9	2.0	True	89.0	High-Low	switch	twobytwo	89.0	1.525	orange	6.0	cue_switch	magnitude	stay	stim	poldrack-single-stim	s558	0	False
500.502	1.0	501.944	0.9	2.0	True	89.0	Magnitude	switch	twobytwo	89.0	0.542	blue	9.0	cue_switch	magnitude	stay	stim	poldrack-single-stim	s558	0	False
502.607	1.0	503.881	0.1	2.68	True	89.0	Color	n/a	twobytwo	89.0	1.174	orange	8.0	task_switch	color	switch	stim	poldrack-single-stim	s558	0	False
505.392	1.0	506.548	0.1	2.272	True	89.0	Magnitude	n/a	twobytwo	89.0	1.056	orange	6.0	task_switch	magnitude	switch	stim	poldrack-single-stim	s558	0	False
508.569	1.0	510.751	0.9	2.408	True	89.0	Color	n/a	twobytwo	89.0	1.282	orange	8.0	task_switch	color	switch	stim	poldrack-single-stim	s558	0	False
511.883	1.0	513.349	0.9	3.224	True	71.0	Orange-Blue	switch	twobytwo	71.0	0.566	blue	8.0	cue_switch	color	stay	stim	poldrack-single-stim	s558	0	False
515.212	1.0	516.323	0.1	2.408	True	89.0	Orange-Blue	stay	twobytwo	89.0	1.011	orange	8.0	cue_stay	color	stay	stim	poldrack-single-stim	s558	0	False
518.523	1.0	519.888	0.9	2.816	True	71.0	Orange-Blue	stay	twobytwo	71.0	0.465	blue	2.0	cue_stay	color	stay	stim	poldrack-single-stim	s558	0	False
521.444	1.0	522.444	0.1	2.408	False	71.0	Orange-Blue	stay	twobytwo	89.0	0.9	blue	8.0	cue_stay	color	stay	stim	poldrack-single-stim	s558	0	False
524.756	1.0	526.672	0.9	2.136	False	71.0	High-Low	n/a	twobytwo	89.0	1.016	blue	4.0	task_switch	magnitude	switch	stim	poldrack-single-stim	s558	0	False
527.797	1.0	529.255	0.9	2.136	True	71.0	Color	n/a	twobytwo	71.0	0.558	blue	3.0	task_switch	color	switch	stim	poldrack-single-stim	s558	0	False
530.038	1.0	531.579	0.1	2.0	True	71.0	Magnitude	n/a	twobytwo	71.0	1.441	blue	2.0	task_switch	magnitude	switch	stim	poldrack-single-stim	s558	0	False
532.943	1.0	534.365	0.9	2.0	True	71.0	High-Low	switch	twobytwo	71.0	0.522	blue	1.0	cue_switch	magnitude	stay	stim	poldrack-single-stim	s558	0	False
535.047	1.0	536.114	0.1	2.272	True	89.0	Magnitude	switch	twobytwo	89.0	0.967	orange	9.0	cue_switch	magnitude	stay	stim	poldrack-single-stim	s558	0	False
537.423	1.0	538.193	0.1	2.408	True	71.0	Color	n/a	twobytwo	71.0	0.67	blue	4.0	task_switch	color	switch	stim	poldrack-single-stim	s558	0	False
539.935	1.0	540.933	0.1	2.0	True	89.0	Orange-Blue	switch	twobytwo	89.0	0.898	orange	8.0	cue_switch	color	stay	stim	poldrack-single-stim	s558	0	False
542.039	1.0	543.062	0.1	2.136	True	71.0	Magnitude	n/a	twobytwo	71.0	0.923	orange	1.0	task_switch	magnitude	switch	stim	poldrack-single-stim	s558	0	False
544.279	1.0	545.052	0.1	2.0	True	89.0	Magnitude	stay	twobytwo	89.0	0.673	blue	8.0	cue_stay	magnitude	stay	stim	poldrack-single-stim	s558	0	False
547.184	1.0	548.72	0.9	2.408	True	71.0	High-Low	switch	twobytwo	71.0	0.636	orange	3.0	cue_switch	magnitude	stay	stim	poldrack-single-stim	s558	0	False
549.697	1.0	550.693	0.1	2.272	True	89.0	Orange-Blue	n/a	twobytwo	89.0	0.896	orange	7.0	task_switch	color	switch	stim	poldrack-single-stim	s558	0	False
552.874	1.0	554.32	0.9	2.0	True	89.0	High-Low	n/a	twobytwo	89.0	0.546	blue	8.0	task_switch	magnitude	switch	stim	poldrack-single-stim	s558	0	False
555.778	1.0	557.16	0.9	2.272	True	71.0	Magnitude	switch	twobytwo	71.0	0.482	orange	4.0	cue_switch	magnitude	stay	stim	poldrack-single-stim	s558	0	False
558.954	1.0	560.575	0.9	2.0	True	71.0	Color	n/a	twobytwo	71.0	0.721	blue	2.0	task_switch	color	switch	stim	poldrack-single-stim	s558	0	False
561.861	1.0	563.377	0.9	2.0	True	71.0	Magnitude	n/a	twobytwo	71.0	0.616	orange	2.0	task_switch	magnitude	switch	stim	poldrack-single-stim	s558	0	False
564.765	1.0	566.506	0.9	2.272	True	71.0	Color	n/a	twobytwo	71.0	0.841	blue	8.0	task_switch	color	switch	stim	poldrack-single-stim	s558	0	False
567.942	1.0	569.34	0.9	2.136	True	71.0	High-Low	n/a	twobytwo	71.0	0.498	blue	1.0	task_switch	magnitude	switch	stim	poldrack-single-stim	s558	0	False
570.183	1.0	571.299	0.1	2.0	True	89.0	Color	n/a	twobytwo	89.0	1.016	orange	3.0	task_switch	color	switch	stim	poldrack-single-stim	s558	0	False
573.088	1.0	574.802	0.9	2.0	True	71.0	Orange-Blue	switch	twobytwo	71.0	0.814	blue	3.0	cue_switch	color	stay	stim	poldrack-single-stim	s558	0	False
575.192	1.0	576.325	0.1	2.0	True	89.0	High-Low	n/a	twobytwo	89.0	1.033	orange	8.0	task_switch	magnitude	switch	stim	poldrack-single-stim	s558	0	False
578.097	1.0	579.572	0.9	2.0	True	71.0	Orange-Blue	n/a	twobytwo	71.0	0.575	blue	2.0	task_switch	color	switch	stim	poldrack-single-stim	s558	0	False
580.201	1.0	580.2	0.1	2.0	False	89.0	Orange-Blue	stay	twobytwo	-1.0	n/a	orange	6.0	cue_stay	color	stay	stim	poldrack-single-stim	s558	0	False
582.306	1.0	582.459	0.1	2.136	False	71.0	Color	switch	twobytwo	89.0	0.053	blue	1.0	cue_switch	color	stay	stim	poldrack-single-stim	s558	0	False
585.347	1.0	586.848	0.9	2.0	True	71.0	High-Low	n/a	twobytwo	71.0	0.601	blue	3.0	task_switch	magnitude	switch	stim	poldrack-single-stim	s558	0	False
587.451	1.0	588.817	0.1	2.0	True	89.0	Orange-Blue	n/a	twobytwo	89.0	1.266	orange	6.0	task_switch	color	switch	stim	poldrack-single-stim	s558	0	False
589.555	1.0	590.319	0.1	2.136	True	71.0	Magnitude	n/a	twobytwo	71.0	0.664	orange	4.0	task_switch	magnitude	switch	stim	poldrack-single-stim	s558	0	False
591.795	1.0	592.777	0.1	2.0	True	89.0	Color	n/a	twobytwo	89.0	0.882	orange	1.0	task_switch	color	switch	stim	poldrack-single-stim	s558	0	False
593.901	1.0	595.24	0.1	2.136	True	71.0	Color	stay	twobytwo	71.0	1.239	blue	6.0	cue_stay	color	stay	stim	poldrack-single-stim	s558	0	False
596.942	1.0	598.584	0.9	2.68	True	89.0	Magnitude	n/a	twobytwo	89.0	0.742	blue	9.0	task_switch	magnitude	switch	stim	poldrack-single-stim	s558	0	False
600.526	1.0	602.666	0.9	2.272	True	71.0	Color	n/a	twobytwo	71.0	1.24	blue	1.0	task_switch	color	switch	stim	poldrack-single-stim	s558	0	False
603.703	1.0	605.203	0.9	2.136	True	89.0	Orange-Blue	switch	twobytwo	89.0	0.6	orange	3.0	cue_switch	color	stay	stim	poldrack-single-stim	s558	0	False
605.943	1.0	607.289	0.1	2.0	True	89.0	Color	switch	twobytwo	89.0	1.246	orange	6.0	cue_switch	color	stay	stim	poldrack-single-stim	s558	0	False
608.047	1.0	608.726	0.1	2.136	True	71.0	Color	stay	twobytwo	71.0	0.579	blue	4.0	cue_stay	color	stay	stim	poldrack-single-stim	s558	0	False
610.287	1.0	611.139	0.1	2.68	True	71.0	High-Low	n/a	twobytwo	71.0	0.752	orange	2.0	task_switch	magnitude	switch	stim	poldrack-single-stim	s558	0	False
613.071	1.0	614.192	0.1	2.272	True	71.0	Orange-Blue	n/a	twobytwo	71.0	1.021	blue	9.0	task_switch	color	switch	stim	poldrack-single-stim	s558	0	False
616.247	1.0	617.886	0.9	2.0	True	71.0	Orange-Blue	stay	twobytwo	71.0	0.739	blue	1.0	cue_stay	color	stay	stim	poldrack-single-stim	s558	0	False
618.351	1.0	619.412	0.1	2.0	False	71.0	High-Low	n/a	twobytwo	89.0	0.961	orange	3.0	task_switch	magnitude	switch	stim	poldrack-single-stim	s558	0	False
620.456	1.0	621.359	0.1	2.136	True	89.0	High-Low	stay	twobytwo	89.0	0.803	orange	8.0	cue_stay	magnitude	stay	stim	poldrack-single-stim	s558	0	False
623.496	1.0	625.051	0.9	2.0	True	89.0	Magnitude	switch	twobytwo	89.0	0.655	blue	9.0	cue_switch	magnitude	stay	stim	poldrack-single-stim	s558	0	False
625.599	1.0	626.43	0.1	2.0	True	89.0	High-Low	switch	twobytwo	89.0	0.731	blue	6.0	cue_switch	magnitude	stay	stim	poldrack-single-stim	s558	0	False
628.504	1.0	629.982	0.9	2.0	True	71.0	Magnitude	switch	twobytwo	71.0	0.578	orange	3.0	cue_switch	magnitude	stay	stim	poldrack-single-stim	s558	0	False
631.408	1.0	632.947	0.9	2.272	False	71.0	Color	n/a	twobytwo	89.0	0.639	blue	8.0	task_switch	color	switch	stim	poldrack-single-stim	s558	0	False
634.585	1.0	636.036	0.9	2.408	True	89.0	Color	stay	twobytwo	89.0	0.551	orange	6.0	cue_stay	color	stay	stim	poldrack-single-stim	s558	0	False
637.898	1.0	639.497	0.9	2.0	True	71.0	High-Low	n/a	twobytwo	71.0	0.699	orange	1.0	task_switch	magnitude	switch	stim	poldrack-single-stim	s558	0	False
640.003	1.0	640.791	0.1	2.0	True	89.0	Magnitude	switch	twobytwo	89.0	0.688	blue	9.0	cue_switch	magnitude	stay	stim	poldrack-single-stim	s558	0	False
642.107	1.0	642.936	0.1	2.0	True	89.0	High-Low	switch	twobytwo	89.0	0.729	orange	8.0	cue_switch	magnitude	stay	stim	poldrack-single-stim	s558	0	False
644.211	1.0	644.98	0.1	2.272	True	89.0	High-Low	stay	twobytwo	89.0	0.669	orange	7.0	cue_stay	magnitude	stay	stim	poldrack-single-stim	s558	0	False
646.586	1.0	647.484	0.1	2.136	True	71.0	Color	n/a	twobytwo	71.0	0.798	blue	7.0	task_switch	color	switch	stim	poldrack-single-stim	s558	0	False
649.626	1.0	651.432	0.9	2.0	True	89.0	Magnitude	n/a	twobytwo	89.0	0.906	blue	8.0	task_switch	magnitude	switch	stim	poldrack-single-stim	s558	0	False
652.531	1.0	653.91	0.9	2.544	True	89.0	High-Low	switch	twobytwo	89.0	0.479	blue	8.0	cue_switch	magnitude	stay	stim	poldrack-single-stim	s558	0	False
655.179	1.0	656.141	0.1	2.272	True	89.0	Color	n/a	twobytwo	89.0	0.862	orange	2.0	task_switch	color	switch	stim	poldrack-single-stim	s558	0	False
657.556	1.0	658.268	0.1	2.272	True	89.0	Color	stay	twobytwo	89.0	0.612	orange	7.0	cue_stay	color	stay	stim	poldrack-single-stim	s558	0	False
660.731	1.0	662.242	0.9	2.0	True	71.0	Magnitude	n/a	twobytwo	71.0	0.611	blue	2.0	task_switch	magnitude	switch	stim	poldrack-single-stim	s558	0	False
663.636	1.0	665.658	0.9	2.0	True	89.0	Color	n/a	twobytwo	89.0	1.122	orange	8.0	task_switch	color	switch	stim	poldrack-single-stim	s558	0	False
666.54	1.0	669.198	0.9	2.136	True	71.0	Magnitude	n/a	twobytwo	71.0	1.758	orange	4.0	task_switch	magnitude	switch	stim	poldrack-single-stim	s558	0	False
668.78	1.0	669.912	0.1	2.0	True	71.0	Orange-Blue	n/a	twobytwo	71.0	1.032	blue	3.0	task_switch	color	switch	stim	poldrack-single-stim	s558	0	False
