onset	duration	movement_onset	block_duration	condition	correct	correct_response	experiment_exp_id	key_press	response_time	trial_id	trial_type	worker_id	junk
3.006	0.5	3.005	0.5	AY	n/a	n/a	dot_pattern_expectancy	-1.0	n/a	cue	AY	s558	False
5.511	0.5	6.238	1.636	AY	1.0	71.0	dot_pattern_expectancy	71.0	0.727	probe	AY	s558	False
7.15	0.5	7.149	0.5	AX	n/a	n/a	dot_pattern_expectancy	-1.0	n/a	cue	AX	s558	False
9.654	0.5	10.133	1.636	AX	1.0	89.0	dot_pattern_expectancy	89.0	0.479	probe	AX	s558	False
11.292	0.5	11.291	0.5	AX	n/a	n/a	dot_pattern_expectancy	-1.0	n/a	cue	AX	s558	False
13.797	0.5	14.283	1.5	AX	1.0	89.0	dot_pattern_expectancy	89.0	0.486	probe	AX	s558	False
15.3	0.5	15.299	0.5	AX	n/a	n/a	dot_pattern_expectancy	-1.0	n/a	cue	AX	s558	False
17.804	0.5	18.249	1.5	AX	0.0	89.0	dot_pattern_expectancy	71.0	0.445	probe	AX	s558	False
19.306	0.5	19.305	0.5	AX	n/a	n/a	dot_pattern_expectancy	-1.0	n/a	cue	AX	s558	False
21.81	0.5	22.249	1.908	AX	1.0	89.0	dot_pattern_expectancy	89.0	0.439	probe	AX	s558	False
23.721	0.5	23.72	0.5	BX	n/a	n/a	dot_pattern_expectancy	-1.0	n/a	cue	BX	s558	False
26.223	0.5	26.57	1.636	BX	1.0	71.0	dot_pattern_expectancy	71.0	0.347	probe	BX	s558	False
27.861	0.5	27.86	0.5	AX	n/a	n/a	dot_pattern_expectancy	-1.0	n/a	cue	AX	s558	False
30.364	0.5	30.791	2.044	AX	1.0	89.0	dot_pattern_expectancy	89.0	0.427	probe	AX	s558	False
32.41	0.5	32.409	0.5	AX	n/a	n/a	dot_pattern_expectancy	-1.0	n/a	cue	AX	s558	False
34.914	0.5	35.35	1.772	AX	1.0	89.0	dot_pattern_expectancy	89.0	0.436	probe	AX	s558	False
36.688	0.5	36.687	0.5	AX	n/a	n/a	dot_pattern_expectancy	-1.0	n/a	cue	AX	s558	False
39.191	0.5	39.63	1.5	AX	1.0	89.0	dot_pattern_expectancy	89.0	0.439	probe	AX	s558	False
40.693	0.5	40.692	0.5	AX	n/a	n/a	dot_pattern_expectancy	-1.0	n/a	cue	AX	s558	False
43.197	0.5	43.644	2.18	AX	1.0	89.0	dot_pattern_expectancy	89.0	0.447	probe	AX	s558	False
45.379	0.5	45.378	0.5	AX	n/a	n/a	dot_pattern_expectancy	-1.0	n/a	cue	AX	s558	False
47.883	0.5	48.35	1.5	AX	1.0	89.0	dot_pattern_expectancy	89.0	0.467	probe	AX	s558	False
49.385	0.5	49.384	0.5	BX	n/a	n/a	dot_pattern_expectancy	-1.0	n/a	cue	BX	s558	False
51.888	0.5	52.288	3.676	BX	1.0	71.0	dot_pattern_expectancy	71.0	0.4	probe	BX	s558	False
55.566	0.5	55.565	0.5	BY	n/a	n/a	dot_pattern_expectancy	-1.0	n/a	cue	BY	s558	False
58.069	0.5	58.453	1.636	BY	1.0	71.0	dot_pattern_expectancy	71.0	0.384	probe	BY	s558	False
59.707	0.5	59.706	0.5	BY	n/a	n/a	dot_pattern_expectancy	-1.0	n/a	cue	BY	s558	False
62.212	0.5	62.519	1.636	BY	1.0	71.0	dot_pattern_expectancy	71.0	0.307	probe	BY	s558	False
63.851	0.5	63.85	0.5	BX	n/a	n/a	dot_pattern_expectancy	-1.0	n/a	cue	BX	s558	False
66.355	0.5	66.825	1.5	BX	1.0	71.0	dot_pattern_expectancy	71.0	0.47	probe	BX	s558	False
67.856	0.5	67.855	0.5	AX	n/a	n/a	dot_pattern_expectancy	-1.0	n/a	cue	AX	s558	False
70.361	0.5	70.823	1.908	AX	1.0	89.0	dot_pattern_expectancy	89.0	0.462	probe	AX	s558	False
72.272	0.5	72.271	0.5	AX	n/a	n/a	dot_pattern_expectancy	-1.0	n/a	cue	AX	s558	False
74.776	0.5	75.235	1.636	AX	1.0	89.0	dot_pattern_expectancy	89.0	0.459	probe	AX	s558	False
76.414	0.5	76.413	0.5	BX	n/a	n/a	dot_pattern_expectancy	-1.0	n/a	cue	BX	s558	False
78.919	0.5	79.221	1.5	BX	1.0	71.0	dot_pattern_expectancy	71.0	0.302	probe	BX	s558	False
80.42	0.5	80.419	0.5	AX	n/a	n/a	dot_pattern_expectancy	-1.0	n/a	cue	AX	s558	False
82.923	0.5	83.329	1.908	AX	1.0	89.0	dot_pattern_expectancy	89.0	0.406	probe	AX	s558	False
84.833	0.5	84.832	0.5	BY	n/a	n/a	dot_pattern_expectancy	-1.0	n/a	cue	BY	s558	False
87.338	0.5	87.739	2.18	BY	1.0	71.0	dot_pattern_expectancy	71.0	0.401	probe	BY	s558	False
89.521	0.5	89.52	0.5	AX	n/a	n/a	dot_pattern_expectancy	-1.0	n/a	cue	AX	s558	False
92.025	0.5	92.567	1.772	AX	1.0	89.0	dot_pattern_expectancy	89.0	0.542	probe	AX	s558	False
93.799	0.5	93.798	0.5	AX	n/a	n/a	dot_pattern_expectancy	-1.0	n/a	cue	AX	s558	False
96.303	0.5	96.741	1.5	AX	1.0	89.0	dot_pattern_expectancy	89.0	0.438	probe	AX	s558	False
97.804	0.5	97.803	0.5	AX	n/a	n/a	dot_pattern_expectancy	-1.0	n/a	cue	AX	s558	False
100.308	0.5	100.785	1.5	AX	1.0	89.0	dot_pattern_expectancy	89.0	0.477	probe	AX	s558	False
101.81	0.5	101.809	0.5	AX	n/a	n/a	dot_pattern_expectancy	-1.0	n/a	cue	AX	s558	False
104.314	0.5	104.765	2.044	AX	1.0	89.0	dot_pattern_expectancy	89.0	0.451	probe	AX	s558	False
106.359	0.5	106.358	0.5	AX	n/a	n/a	dot_pattern_expectancy	-1.0	n/a	cue	AX	s558	False
108.863	0.5	109.368	2.86	AX	1.0	89.0	dot_pattern_expectancy	89.0	0.505	probe	AX	s558	False
111.725	0.5	111.724	0.5	BX	n/a	n/a	dot_pattern_expectancy	-1.0	n/a	cue	BX	s558	False
114.23	0.5	114.547	1.5	BX	1.0	71.0	dot_pattern_expectancy	71.0	0.317	probe	BX	s558	False
115.732	0.5	115.731	0.5	BY	n/a	n/a	dot_pattern_expectancy	-1.0	n/a	cue	BY	s558	False
118.237	0.5	118.644	1.772	BY	1.0	71.0	dot_pattern_expectancy	71.0	0.407	probe	BY	s558	False
120.012	0.5	120.011	0.5	AX	n/a	n/a	dot_pattern_expectancy	-1.0	n/a	cue	AX	s558	False
122.517	0.5	122.975	1.772	AX	1.0	89.0	dot_pattern_expectancy	89.0	0.458	probe	AX	s558	False
124.29	0.5	124.289	0.5	AX	n/a	n/a	dot_pattern_expectancy	-1.0	n/a	cue	AX	s558	False
126.794	0.5	127.105	2.86	AX	1.0	89.0	dot_pattern_expectancy	89.0	0.311	probe	AX	s558	False
129.656	0.5	129.655	0.5	AX	n/a	n/a	dot_pattern_expectancy	-1.0	n/a	cue	AX	s558	False
132.16	0.5	132.591	1.772	AX	1.0	89.0	dot_pattern_expectancy	89.0	0.431	probe	AX	s558	False
133.933	0.5	133.932	0.5	BX	n/a	n/a	dot_pattern_expectancy	-1.0	n/a	cue	BX	s558	False
136.438	0.5	136.772	1.636	BX	1.0	71.0	dot_pattern_expectancy	71.0	0.334	probe	BX	s558	False
138.076	0.5	138.075	0.5	BX	n/a	n/a	dot_pattern_expectancy	-1.0	n/a	cue	BX	s558	False
140.579	0.5	140.857	2.452	BX	1.0	71.0	dot_pattern_expectancy	71.0	0.278	probe	BX	s558	False
143.032	0.5	143.031	0.5	AX	n/a	n/a	dot_pattern_expectancy	-1.0	n/a	cue	AX	s558	False
145.537	0.5	145.93	1.636	AX	1.0	89.0	dot_pattern_expectancy	89.0	0.393	probe	AX	s558	False
147.175	0.5	147.174	0.5	BX	n/a	n/a	dot_pattern_expectancy	-1.0	n/a	cue	BX	s558	False
149.679	0.5	149.999	1.5	BX	1.0	71.0	dot_pattern_expectancy	71.0	0.32	probe	BX	s558	False
151.181	0.5	151.18	0.5	AX	n/a	n/a	dot_pattern_expectancy	-1.0	n/a	cue	AX	s558	False
153.684	0.5	154.159	1.636	AX	1.0	89.0	dot_pattern_expectancy	89.0	0.475	probe	AX	s558	False
155.321	0.5	155.32	0.5	AX	n/a	n/a	dot_pattern_expectancy	-1.0	n/a	cue	AX	s558	False
157.825	0.5	158.376	1.636	AX	1.0	89.0	dot_pattern_expectancy	89.0	0.551	probe	AX	s558	False
159.463	0.5	159.462	0.5	BY	n/a	n/a	dot_pattern_expectancy	-1.0	n/a	cue	BY	s558	False
161.966	0.5	162.326	2.18	BY	1.0	71.0	dot_pattern_expectancy	71.0	0.36	probe	BY	s558	False
164.148	0.5	164.147	0.5	AX	n/a	n/a	dot_pattern_expectancy	-1.0	n/a	cue	AX	s558	False
166.651	0.5	167.045	1.5	AX	1.0	89.0	dot_pattern_expectancy	89.0	0.394	probe	AX	s558	False
168.153	0.5	168.152	0.5	AY	n/a	n/a	dot_pattern_expectancy	-1.0	n/a	cue	AY	s558	False
170.657	0.5	171.447	1.636	AY	1.0	71.0	dot_pattern_expectancy	71.0	0.79	probe	AY	s558	False
172.296	0.5	172.295	0.5	AX	n/a	n/a	dot_pattern_expectancy	-1.0	n/a	cue	AX	s558	False
174.799	0.5	175.457	1.636	AX	1.0	89.0	dot_pattern_expectancy	89.0	0.658	probe	AX	s558	False
186.943	0.5	186.942	0.5	AX	n/a	n/a	dot_pattern_expectancy	-1.0	n/a	cue	AX	s558	False
189.447	0.5	189.897	2.18	AX	1.0	89.0	dot_pattern_expectancy	89.0	0.45	probe	AX	s558	False
191.63	0.5	191.629	0.5	AY	n/a	n/a	dot_pattern_expectancy	-1.0	n/a	cue	AY	s558	False
194.133	0.5	194.783	2.316	AY	1.0	71.0	dot_pattern_expectancy	71.0	0.65	probe	AY	s558	False
196.452	0.5	196.451	0.5	AY	n/a	n/a	dot_pattern_expectancy	-1.0	n/a	cue	AY	s558	False
198.954	0.5	199.946	1.636	AY	1.0	71.0	dot_pattern_expectancy	71.0	0.992	probe	AY	s558	False
200.592	0.5	200.591	0.5	BX	n/a	n/a	dot_pattern_expectancy	-1.0	n/a	cue	BX	s558	False
203.096	0.5	203.407	1.908	BX	1.0	71.0	dot_pattern_expectancy	71.0	0.311	probe	BX	s558	False
205.006	0.5	205.005	0.5	AX	n/a	n/a	dot_pattern_expectancy	-1.0	n/a	cue	AX	s558	False
207.509	0.5	207.929	3.54	AX	1.0	89.0	dot_pattern_expectancy	89.0	0.42	probe	AX	s558	False
211.051	0.5	211.05	0.5	BX	n/a	n/a	dot_pattern_expectancy	-1.0	n/a	cue	BX	s558	False
213.555	0.5	213.869	1.636	BX	1.0	71.0	dot_pattern_expectancy	71.0	0.314	probe	BX	s558	False
215.193	0.5	215.192	0.5	BY	n/a	n/a	dot_pattern_expectancy	-1.0	n/a	cue	BY	s558	False
217.697	0.5	218.031	1.5	BY	1.0	71.0	dot_pattern_expectancy	71.0	0.334	probe	BY	s558	False
219.2	0.5	219.199	0.5	AX	n/a	n/a	dot_pattern_expectancy	-1.0	n/a	cue	AX	s558	False
221.703	0.5	222.217	1.5	AX	1.0	89.0	dot_pattern_expectancy	89.0	0.514	probe	AX	s558	False
223.206	0.5	223.205	0.5	AX	n/a	n/a	dot_pattern_expectancy	-1.0	n/a	cue	AX	s558	False
225.71	0.5	226.167	1.772	AX	1.0	89.0	dot_pattern_expectancy	89.0	0.457	probe	AX	s558	False
227.483	0.5	227.482	0.5	BY	n/a	n/a	dot_pattern_expectancy	-1.0	n/a	cue	BY	s558	False
229.987	0.5	230.316	2.452	BY	1.0	71.0	dot_pattern_expectancy	71.0	0.329	probe	BY	s558	False
232.442	0.5	232.441	0.5	AX	n/a	n/a	dot_pattern_expectancy	-1.0	n/a	cue	AX	s558	False
234.945	0.5	235.377	1.908	AX	1.0	89.0	dot_pattern_expectancy	89.0	0.432	probe	AX	s558	False
236.854	0.5	236.853	0.5	BX	n/a	n/a	dot_pattern_expectancy	-1.0	n/a	cue	BX	s558	False
239.358	0.5	239.712	1.636	BX	1.0	71.0	dot_pattern_expectancy	71.0	0.354	probe	BX	s558	False
240.997	0.5	240.996	0.5	AX	n/a	n/a	dot_pattern_expectancy	-1.0	n/a	cue	AX	s558	False
243.501	0.5	243.914	1.5	AX	1.0	89.0	dot_pattern_expectancy	89.0	0.413	probe	AX	s558	False
245.003	0.5	245.002	0.5	AX	n/a	n/a	dot_pattern_expectancy	-1.0	n/a	cue	AX	s558	False
247.505	0.5	247.897	1.636	AX	1.0	89.0	dot_pattern_expectancy	89.0	0.392	probe	AX	s558	False
249.143	0.5	249.142	0.5	AX	n/a	n/a	dot_pattern_expectancy	-1.0	n/a	cue	AX	s558	False
251.647	0.5	252.261	1.636	AX	1.0	89.0	dot_pattern_expectancy	89.0	0.614	probe	AX	s558	False
253.285	0.5	253.284	0.5	BY	n/a	n/a	dot_pattern_expectancy	-1.0	n/a	cue	BY	s558	False
255.788	0.5	256.092	2.452	BY	1.0	71.0	dot_pattern_expectancy	71.0	0.304	probe	BY	s558	False
258.242	0.5	258.241	0.5	AX	n/a	n/a	dot_pattern_expectancy	-1.0	n/a	cue	AX	s558	False
260.746	0.5	261.177	1.5	AX	1.0	89.0	dot_pattern_expectancy	89.0	0.431	probe	AX	s558	False
262.247	0.5	262.246	0.5	BY	n/a	n/a	dot_pattern_expectancy	-1.0	n/a	cue	BY	s558	False
264.751	0.5	265.06	1.5	BY	1.0	71.0	dot_pattern_expectancy	71.0	0.309	probe	BY	s558	False
266.252	0.5	266.251	0.5	AX	n/a	n/a	dot_pattern_expectancy	-1.0	n/a	cue	AX	s558	False
268.756	0.5	269.17	1.636	AX	1.0	89.0	dot_pattern_expectancy	89.0	0.414	probe	AX	s558	False
270.395	0.5	270.394	0.5	AX	n/a	n/a	dot_pattern_expectancy	-1.0	n/a	cue	AX	s558	False
272.9	0.5	273.376	1.636	AX	1.0	89.0	dot_pattern_expectancy	89.0	0.476	probe	AX	s558	False
274.538	0.5	274.537	0.5	AY	n/a	n/a	dot_pattern_expectancy	-1.0	n/a	cue	AY	s558	False
277.042	0.5	277.679	1.636	AY	1.0	71.0	dot_pattern_expectancy	71.0	0.637	probe	AY	s558	False
278.68	0.5	278.679	0.5	AX	n/a	n/a	dot_pattern_expectancy	-1.0	n/a	cue	AX	s558	False
281.183	0.5	281.671	1.5	AX	1.0	89.0	dot_pattern_expectancy	89.0	0.488	probe	AX	s558	False
282.685	0.5	282.684	0.5	AX	n/a	n/a	dot_pattern_expectancy	-1.0	n/a	cue	AX	s558	False
285.189	0.5	285.715	1.5	AX	1.0	89.0	dot_pattern_expectancy	89.0	0.526	probe	AX	s558	False
286.69	0.5	286.689	0.5	AX	n/a	n/a	dot_pattern_expectancy	-1.0	n/a	cue	AX	s558	False
289.194	0.5	289.579	1.772	AX	1.0	89.0	dot_pattern_expectancy	89.0	0.385	probe	AX	s558	False
290.968	0.5	290.967	0.5	AX	n/a	n/a	dot_pattern_expectancy	-1.0	n/a	cue	AX	s558	False
293.472	0.5	293.913	2.18	AX	1.0	89.0	dot_pattern_expectancy	89.0	0.441	probe	AX	s558	False
295.654	0.5	295.653	0.5	BX	n/a	n/a	dot_pattern_expectancy	-1.0	n/a	cue	BX	s558	False
298.158	0.5	298.542	1.772	BX	1.0	71.0	dot_pattern_expectancy	71.0	0.384	probe	BX	s558	False
299.933	0.5	299.932	0.5	BY	n/a	n/a	dot_pattern_expectancy	-1.0	n/a	cue	BY	s558	False
302.437	0.5	302.735	1.5	BY	1.0	71.0	dot_pattern_expectancy	71.0	0.298	probe	BY	s558	False
303.939	0.5	303.938	0.5	AX	n/a	n/a	dot_pattern_expectancy	-1.0	n/a	cue	AX	s558	False
306.443	0.5	306.866	1.5	AX	1.0	89.0	dot_pattern_expectancy	89.0	0.423	probe	AX	s558	False
307.944	0.5	307.943	0.5	AX	n/a	n/a	dot_pattern_expectancy	-1.0	n/a	cue	AX	s558	False
310.449	0.5	310.813	1.636	AX	1.0	89.0	dot_pattern_expectancy	89.0	0.364	probe	AX	s558	False
312.086	0.5	312.085	0.5	AY	n/a	n/a	dot_pattern_expectancy	-1.0	n/a	cue	AY	s558	False
314.59	0.5	315.198	2.18	AY	1.0	71.0	dot_pattern_expectancy	71.0	0.608	probe	AY	s558	False
316.772	0.5	316.771	0.5	AY	n/a	n/a	dot_pattern_expectancy	-1.0	n/a	cue	AY	s558	False
319.275	0.5	319.583	2.316	AY	0.0	71.0	dot_pattern_expectancy	89.0	0.308	probe	AY	s558	False
321.593	0.5	321.592	0.5	BX	n/a	n/a	dot_pattern_expectancy	-1.0	n/a	cue	BX	s558	False
324.097	0.5	324.437	1.636	BX	1.0	71.0	dot_pattern_expectancy	71.0	0.34	probe	BX	s558	False
325.735	0.5	325.734	0.5	BX	n/a	n/a	dot_pattern_expectancy	-1.0	n/a	cue	BX	s558	False
328.238	0.5	329.13	2.18	BX	1.0	71.0	dot_pattern_expectancy	71.0	0.892	probe	BX	s558	False
330.42	0.5	330.419	0.5	AY	n/a	n/a	dot_pattern_expectancy	-1.0	n/a	cue	AY	s558	False
332.924	0.5	333.613	2.044	AY	1.0	71.0	dot_pattern_expectancy	71.0	0.689	probe	AY	s558	False
334.969	0.5	334.968	0.5	AX	n/a	n/a	dot_pattern_expectancy	-1.0	n/a	cue	AX	s558	False
337.473	0.5	337.968	1.772	AX	1.0	89.0	dot_pattern_expectancy	89.0	0.495	probe	AX	s558	False
339.247	0.5	339.246	0.5	AX	n/a	n/a	dot_pattern_expectancy	-1.0	n/a	cue	AX	s558	False
341.751	0.5	342.219	1.5	AX	1.0	89.0	dot_pattern_expectancy	89.0	0.468	probe	AX	s558	False
343.254	0.5	343.253	0.5	AX	n/a	n/a	dot_pattern_expectancy	-1.0	n/a	cue	AX	s558	False
345.759	0.5	346.199	2.18	AX	1.0	89.0	dot_pattern_expectancy	89.0	0.44	probe	AX	s558	False
347.94	0.5	347.939	0.5	AY	n/a	n/a	dot_pattern_expectancy	-1.0	n/a	cue	AY	s558	False
350.445	0.5	351.036	2.452	AY	1.0	71.0	dot_pattern_expectancy	71.0	0.591	probe	AY	s558	False
352.899	0.5	352.898	0.5	AX	n/a	n/a	dot_pattern_expectancy	-1.0	n/a	cue	AX	s558	False
355.402	0.5	355.834	1.636	AX	1.0	89.0	dot_pattern_expectancy	89.0	0.432	probe	AX	s558	False
357.039	0.5	357.038	0.5	AX	n/a	n/a	dot_pattern_expectancy	-1.0	n/a	cue	AX	s558	False
359.544	0.5	360.195	1.908	AX	1.0	89.0	dot_pattern_expectancy	89.0	0.651	probe	AX	s558	False
371.96	0.5	371.959	0.5	AX	n/a	n/a	dot_pattern_expectancy	-1.0	n/a	cue	AX	s558	False
374.464	0.5	374.981	1.772	AX	1.0	89.0	dot_pattern_expectancy	89.0	0.517	probe	AX	s558	False
376.239	0.5	376.238	0.5	AX	n/a	n/a	dot_pattern_expectancy	-1.0	n/a	cue	AX	s558	False
378.742	0.5	379.175	1.5	AX	1.0	89.0	dot_pattern_expectancy	89.0	0.433	probe	AX	s558	False
380.245	0.5	380.244	0.5	AY	n/a	n/a	dot_pattern_expectancy	-1.0	n/a	cue	AY	s558	False
382.749	0.5	383.408	2.452	AY	1.0	71.0	dot_pattern_expectancy	71.0	0.659	probe	AY	s558	False
385.204	0.5	385.203	0.5	AY	n/a	n/a	dot_pattern_expectancy	-1.0	n/a	cue	AY	s558	False
387.708	0.5	388.309	1.772	AY	1.0	71.0	dot_pattern_expectancy	71.0	0.601	probe	AY	s558	False
389.483	0.5	389.482	0.5	AX	n/a	n/a	dot_pattern_expectancy	-1.0	n/a	cue	AX	s558	False
391.987	0.5	392.458	1.908	AX	1.0	89.0	dot_pattern_expectancy	89.0	0.471	probe	AX	s558	False
393.897	0.5	393.896	0.5	AX	n/a	n/a	dot_pattern_expectancy	-1.0	n/a	cue	AX	s558	False
396.401	0.5	396.881	1.908	AX	1.0	89.0	dot_pattern_expectancy	89.0	0.48	probe	AX	s558	False
398.31	0.5	398.309	0.5	AX	n/a	n/a	dot_pattern_expectancy	-1.0	n/a	cue	AX	s558	False
400.814	0.5	401.32	2.588	AX	1.0	89.0	dot_pattern_expectancy	89.0	0.506	probe	AX	s558	False
403.404	0.5	403.403	0.5	AY	n/a	n/a	dot_pattern_expectancy	-1.0	n/a	cue	AY	s558	False
405.908	0.5	406.451	1.5	AY	1.0	71.0	dot_pattern_expectancy	71.0	0.543	probe	AY	s558	False
407.409	0.5	407.408	0.5	BY	n/a	n/a	dot_pattern_expectancy	-1.0	n/a	cue	BY	s558	False
409.913	0.5	410.613	1.5	BY	1.0	71.0	dot_pattern_expectancy	71.0	0.7	probe	BY	s558	False
411.414	0.5	411.413	0.5	BY	n/a	n/a	dot_pattern_expectancy	-1.0	n/a	cue	BY	s558	False
413.919	0.5	414.451	1.5	BY	1.0	71.0	dot_pattern_expectancy	71.0	0.532	probe	BY	s558	False
415.42	0.5	415.419	0.5	AX	n/a	n/a	dot_pattern_expectancy	-1.0	n/a	cue	AX	s558	False
417.924	0.5	418.324	1.636	AX	1.0	89.0	dot_pattern_expectancy	89.0	0.4	probe	AX	s558	False
419.562	0.5	419.561	0.5	BX	n/a	n/a	dot_pattern_expectancy	-1.0	n/a	cue	BX	s558	False
422.066	0.5	422.518	2.044	BX	1.0	71.0	dot_pattern_expectancy	71.0	0.452	probe	BX	s558	False
424.114	0.5	424.113	0.5	AX	n/a	n/a	dot_pattern_expectancy	-1.0	n/a	cue	AX	s558	False
426.618	0.5	427.078	1.772	AX	1.0	89.0	dot_pattern_expectancy	89.0	0.46	probe	AX	s558	False
428.391	0.5	428.39	0.5	BX	n/a	n/a	dot_pattern_expectancy	-1.0	n/a	cue	BX	s558	False
430.895	0.5	431.444	2.588	BX	1.0	71.0	dot_pattern_expectancy	71.0	0.549	probe	BX	s558	False
433.485	0.5	433.484	0.5	AY	n/a	n/a	dot_pattern_expectancy	-1.0	n/a	cue	AY	s558	False
435.989	0.5	436.629	1.5	AY	1.0	71.0	dot_pattern_expectancy	71.0	0.64	probe	AY	s558	False
437.49	0.5	437.489	0.5	AX	n/a	n/a	dot_pattern_expectancy	-1.0	n/a	cue	AX	s558	False
439.994	0.5	440.485	2.452	AX	1.0	89.0	dot_pattern_expectancy	89.0	0.491	probe	AX	s558	False
442.449	0.5	442.448	0.5	BY	n/a	n/a	dot_pattern_expectancy	-1.0	n/a	cue	BY	s558	False
444.952	0.5	445.333	1.636	BY	1.0	71.0	dot_pattern_expectancy	71.0	0.381	probe	BY	s558	False
446.589	0.5	446.588	0.5	AX	n/a	n/a	dot_pattern_expectancy	-1.0	n/a	cue	AX	s558	False
449.094	0.5	449.093	1.636	AX	0.0	89.0	dot_pattern_expectancy	-1.0	n/a	probe	AX	s558	False
450.732	0.5	450.731	0.5	AX	n/a	n/a	dot_pattern_expectancy	-1.0	n/a	cue	AX	s558	False
453.237	0.5	453.716	1.5	AX	1.0	89.0	dot_pattern_expectancy	89.0	0.479	probe	AX	s558	False
454.739	0.5	454.738	0.5	BY	n/a	n/a	dot_pattern_expectancy	-1.0	n/a	cue	BY	s558	False
457.243	0.5	457.651	1.636	BY	1.0	71.0	dot_pattern_expectancy	71.0	0.408	probe	BY	s558	False
458.881	0.5	458.88	0.5	AX	n/a	n/a	dot_pattern_expectancy	-1.0	n/a	cue	AX	s558	False
461.385	0.5	461.832	1.5	AX	1.0	89.0	dot_pattern_expectancy	89.0	0.447	probe	AX	s558	False
462.887	0.5	462.886	0.5	AY	n/a	n/a	dot_pattern_expectancy	-1.0	n/a	cue	AY	s558	False
465.39	0.5	465.991	2.18	AY	1.0	71.0	dot_pattern_expectancy	71.0	0.601	probe	AY	s558	False
467.571	0.5	467.57	0.5	AX	n/a	n/a	dot_pattern_expectancy	-1.0	n/a	cue	AX	s558	False
470.075	0.5	470.598	1.5	AX	1.0	89.0	dot_pattern_expectancy	89.0	0.523	probe	AX	s558	False
471.577	0.5	471.576	0.5	AX	n/a	n/a	dot_pattern_expectancy	-1.0	n/a	cue	AX	s558	False
474.081	0.5	474.616	1.908	AX	1.0	89.0	dot_pattern_expectancy	89.0	0.535	probe	AX	s558	False
475.991	0.5	475.99	0.5	BY	n/a	n/a	dot_pattern_expectancy	-1.0	n/a	cue	BY	s558	False
478.494	0.5	478.967	1.636	BY	1.0	71.0	dot_pattern_expectancy	71.0	0.473	probe	BY	s558	False
480.131	0.5	480.13	0.5	BY	n/a	n/a	dot_pattern_expectancy	-1.0	n/a	cue	BY	s558	False
482.635	0.5	483.204	1.636	BY	1.0	71.0	dot_pattern_expectancy	71.0	0.569	probe	BY	s558	False
484.274	0.5	484.273	0.5	AX	n/a	n/a	dot_pattern_expectancy	-1.0	n/a	cue	AX	s558	False
486.777	0.5	487.236	1.636	AX	1.0	89.0	dot_pattern_expectancy	89.0	0.459	probe	AX	s558	False
488.414	0.5	488.413	0.5	AX	n/a	n/a	dot_pattern_expectancy	-1.0	n/a	cue	AX	s558	False
490.918	0.5	491.315	1.5	AX	1.0	89.0	dot_pattern_expectancy	89.0	0.397	probe	AX	s558	False
492.42	0.5	492.419	0.5	BY	n/a	n/a	dot_pattern_expectancy	-1.0	n/a	cue	BY	s558	False
494.924	0.5	495.458	2.044	BY	1.0	71.0	dot_pattern_expectancy	71.0	0.534	probe	BY	s558	False
496.971	0.5	496.97	0.5	AY	n/a	n/a	dot_pattern_expectancy	-1.0	n/a	cue	AY	s558	False
499.476	0.5	500.086	2.18	AY	1.0	71.0	dot_pattern_expectancy	71.0	0.61	probe	AY	s558	False
501.658	0.5	501.657	0.5	AY	n/a	n/a	dot_pattern_expectancy	-1.0	n/a	cue	AY	s558	False
504.162	0.5	504.806	1.636	AY	1.0	71.0	dot_pattern_expectancy	71.0	0.644	probe	AY	s558	False
505.8	0.5	505.799	0.5	AY	n/a	n/a	dot_pattern_expectancy	-1.0	n/a	cue	AY	s558	False
508.304	0.5	508.953	1.772	AY	1.0	71.0	dot_pattern_expectancy	71.0	0.649	probe	AY	s558	False
510.079	0.5	510.078	0.5	BY	n/a	n/a	dot_pattern_expectancy	-1.0	n/a	cue	BY	s558	False
512.583	0.5	513.01	1.5	BY	1.0	71.0	dot_pattern_expectancy	71.0	0.427	probe	BY	s558	False
514.084	0.5	514.083	0.5	BX	n/a	n/a	dot_pattern_expectancy	-1.0	n/a	cue	BX	s558	False
516.589	0.5	516.939	1.908	BX	1.0	71.0	dot_pattern_expectancy	71.0	0.35	probe	BX	s558	False
518.499	0.5	518.498	0.5	AX	n/a	n/a	dot_pattern_expectancy	-1.0	n/a	cue	AX	s558	False
521.003	0.5	521.469	2.044	AX	1.0	89.0	dot_pattern_expectancy	89.0	0.466	probe	AX	s558	False
523.05	0.5	523.049	0.5	AX	n/a	n/a	dot_pattern_expectancy	-1.0	n/a	cue	AX	s558	False
525.553	0.5	525.935	1.636	AX	1.0	89.0	dot_pattern_expectancy	89.0	0.382	probe	AX	s558	False
527.192	0.5	527.191	0.5	AX	n/a	n/a	dot_pattern_expectancy	-1.0	n/a	cue	AX	s558	False
529.696	0.5	530.067	1.772	AX	1.0	89.0	dot_pattern_expectancy	89.0	0.371	probe	AX	s558	False
531.471	0.5	531.47	0.5	AX	n/a	n/a	dot_pattern_expectancy	-1.0	n/a	cue	AX	s558	False
533.975	0.5	534.467	1.636	AX	1.0	89.0	dot_pattern_expectancy	89.0	0.492	probe	AX	s558	False
535.613	0.5	535.612	0.5	BX	n/a	n/a	dot_pattern_expectancy	-1.0	n/a	cue	BX	s558	False
538.118	0.5	538.448	1.772	BX	1.0	71.0	dot_pattern_expectancy	71.0	0.33	probe	BX	s558	False
539.893	0.5	539.892	0.5	AX	n/a	n/a	dot_pattern_expectancy	-1.0	n/a	cue	AX	s558	False
542.397	0.5	542.786	1.5	AX	1.0	89.0	dot_pattern_expectancy	89.0	0.389	probe	AX	s558	False
554.406	0.5	554.405	0.5	BY	n/a	n/a	dot_pattern_expectancy	-1.0	n/a	cue	BY	s558	False
556.91	0.5	557.461	1.636	BY	1.0	71.0	dot_pattern_expectancy	71.0	0.551	probe	BY	s558	False
558.549	0.5	558.548	0.5	AY	n/a	n/a	dot_pattern_expectancy	-1.0	n/a	cue	AY	s558	False
561.053	0.5	561.635	1.5	AY	1.0	71.0	dot_pattern_expectancy	71.0	0.582	probe	AY	s558	False
562.555	0.5	562.554	0.5	AX	n/a	n/a	dot_pattern_expectancy	-1.0	n/a	cue	AX	s558	False
565.059	0.5	565.527	2.044	AX	1.0	89.0	dot_pattern_expectancy	89.0	0.468	probe	AX	s558	False
567.105	0.5	567.104	0.5	BY	n/a	n/a	dot_pattern_expectancy	-1.0	n/a	cue	BY	s558	False
569.609	0.5	569.933	1.772	BY	1.0	71.0	dot_pattern_expectancy	71.0	0.324	probe	BY	s558	False
571.382	0.5	571.381	0.5	BX	n/a	n/a	dot_pattern_expectancy	-1.0	n/a	cue	BX	s558	False
573.886	0.5	574.221	1.636	BX	1.0	71.0	dot_pattern_expectancy	71.0	0.335	probe	BX	s558	False
575.525	0.5	575.524	0.5	AX	n/a	n/a	dot_pattern_expectancy	-1.0	n/a	cue	AX	s558	False
578.03	0.5	578.421	1.636	AX	1.0	89.0	dot_pattern_expectancy	89.0	0.391	probe	AX	s558	False
579.668	0.5	579.667	0.5	AX	n/a	n/a	dot_pattern_expectancy	-1.0	n/a	cue	AX	s558	False
582.173	0.5	582.608	1.5	AX	1.0	89.0	dot_pattern_expectancy	89.0	0.435	probe	AX	s558	False
583.675	0.5	583.674	0.5	AX	n/a	n/a	dot_pattern_expectancy	-1.0	n/a	cue	AX	s558	False
586.178	0.5	586.722	1.5	AX	1.0	89.0	dot_pattern_expectancy	89.0	0.544	probe	AX	s558	False
587.681	0.5	587.68	0.5	AY	n/a	n/a	dot_pattern_expectancy	-1.0	n/a	cue	AY	s558	False
590.185	0.5	590.774	2.044	AY	1.0	71.0	dot_pattern_expectancy	71.0	0.589	probe	AY	s558	False
592.231	0.5	592.23	0.5	AX	n/a	n/a	dot_pattern_expectancy	-1.0	n/a	cue	AX	s558	False
594.735	0.5	595.196	2.452	AX	1.0	89.0	dot_pattern_expectancy	89.0	0.461	probe	AX	s558	False
597.189	0.5	597.188	0.5	AX	n/a	n/a	dot_pattern_expectancy	-1.0	n/a	cue	AX	s558	False
599.692	0.5	600.135	1.908	AX	1.0	89.0	dot_pattern_expectancy	89.0	0.443	probe	AX	s558	False
601.602	0.5	601.601	0.5	AX	n/a	n/a	dot_pattern_expectancy	-1.0	n/a	cue	AX	s558	False
604.106	0.5	604.8	1.5	AX	1.0	89.0	dot_pattern_expectancy	89.0	0.694	probe	AX	s558	False
605.608	0.5	605.607	0.5	AX	n/a	n/a	dot_pattern_expectancy	-1.0	n/a	cue	AX	s558	False
608.112	0.5	608.643	1.908	AX	1.0	89.0	dot_pattern_expectancy	89.0	0.531	probe	AX	s558	False
610.022	0.5	610.021	0.5	BX	n/a	n/a	dot_pattern_expectancy	-1.0	n/a	cue	BX	s558	False
612.525	0.5	613.014	2.18	BX	1.0	71.0	dot_pattern_expectancy	71.0	0.489	probe	BX	s558	False
614.706	0.5	614.705	0.5	AX	n/a	n/a	dot_pattern_expectancy	-1.0	n/a	cue	AX	s558	False
617.21	0.5	617.603	1.5	AX	1.0	89.0	dot_pattern_expectancy	89.0	0.393	probe	AX	s558	False
618.712	0.5	618.711	0.5	BY	n/a	n/a	dot_pattern_expectancy	-1.0	n/a	cue	BY	s558	False
621.217	0.5	621.79	1.908	BY	1.0	71.0	dot_pattern_expectancy	71.0	0.573	probe	BY	s558	False
623.127	0.5	623.126	0.5	BX	n/a	n/a	dot_pattern_expectancy	-1.0	n/a	cue	BX	s558	False
625.632	0.5	626.024	2.316	BX	1.0	71.0	dot_pattern_expectancy	71.0	0.392	probe	BX	s558	False
627.95	0.5	627.949	0.5	AY	n/a	n/a	dot_pattern_expectancy	-1.0	n/a	cue	AY	s558	False
630.454	0.5	630.941	2.316	AY	0.0	71.0	dot_pattern_expectancy	89.0	0.487	probe	AY	s558	False
632.771	0.5	632.77	0.5	BX	n/a	n/a	dot_pattern_expectancy	-1.0	n/a	cue	BX	s558	False
635.275	0.5	635.617	1.636	BX	1.0	71.0	dot_pattern_expectancy	71.0	0.342	probe	BX	s558	False
636.914	0.5	636.913	0.5	AY	n/a	n/a	dot_pattern_expectancy	-1.0	n/a	cue	AY	s558	False
639.417	0.5	640.101	1.5	AY	1.0	71.0	dot_pattern_expectancy	71.0	0.684	probe	AY	s558	False
640.92	0.5	640.919	0.5	BY	n/a	n/a	dot_pattern_expectancy	-1.0	n/a	cue	BY	s558	False
643.424	0.5	643.818	1.908	BY	1.0	71.0	dot_pattern_expectancy	71.0	0.394	probe	BY	s558	False
645.335	0.5	645.334	0.5	AX	n/a	n/a	dot_pattern_expectancy	-1.0	n/a	cue	AX	s558	False
647.839	0.5	648.368	1.5	AX	1.0	89.0	dot_pattern_expectancy	89.0	0.529	probe	AX	s558	False
649.342	0.5	649.341	0.5	AY	n/a	n/a	dot_pattern_expectancy	-1.0	n/a	cue	AY	s558	False
651.847	0.5	652.656	2.316	AY	1.0	71.0	dot_pattern_expectancy	71.0	0.809	probe	AY	s558	False
654.165	0.5	654.164	0.5	AX	n/a	n/a	dot_pattern_expectancy	-1.0	n/a	cue	AX	s558	False
656.669	0.5	657.168	1.5	AX	1.0	89.0	dot_pattern_expectancy	89.0	0.499	probe	AX	s558	False
658.172	0.5	658.171	0.5	AY	n/a	n/a	dot_pattern_expectancy	-1.0	n/a	cue	AY	s558	False
660.676	0.5	661.446	2.724	AY	1.0	71.0	dot_pattern_expectancy	71.0	0.77	probe	AY	s558	False
663.401	0.5	663.4	0.5	AX	n/a	n/a	dot_pattern_expectancy	-1.0	n/a	cue	AX	s558	False
665.905	0.5	666.559	1.5	AX	1.0	89.0	dot_pattern_expectancy	89.0	0.654	probe	AX	s558	False
667.407	0.5	667.406	0.5	AX	n/a	n/a	dot_pattern_expectancy	-1.0	n/a	cue	AX	s558	False
669.911	0.5	670.59	1.636	AX	1.0	89.0	dot_pattern_expectancy	89.0	0.679	probe	AX	s558	False
671.549	0.5	671.548	0.5	AX	n/a	n/a	dot_pattern_expectancy	-1.0	n/a	cue	AX	s558	False
674.052	0.5	674.562	1.636	AX	1.0	89.0	dot_pattern_expectancy	89.0	0.51	probe	AX	s558	False
675.69	0.5	675.689	0.5	AX	n/a	n/a	dot_pattern_expectancy	-1.0	n/a	cue	AX	s558	False
678.194	0.5	678.736	1.772	AX	1.0	89.0	dot_pattern_expectancy	89.0	0.542	probe	AX	s558	False
679.967	0.5	679.966	0.5	BY	n/a	n/a	dot_pattern_expectancy	-1.0	n/a	cue	BY	s558	False
682.471	0.5	682.814	1.772	BY	1.0	71.0	dot_pattern_expectancy	71.0	0.343	probe	BY	s558	False
684.245	0.5	684.244	0.5	AX	n/a	n/a	dot_pattern_expectancy	-1.0	n/a	cue	AX	s558	False
686.749	0.5	687.417	1.5	AX	1.0	89.0	dot_pattern_expectancy	89.0	0.668	probe	AX	s558	False
688.25	0.5	688.249	0.5	BY	n/a	n/a	dot_pattern_expectancy	-1.0	n/a	cue	BY	s558	False
690.756	0.5	691.104	2.452	BY	1.0	71.0	dot_pattern_expectancy	71.0	0.348	probe	BY	s558	False
693.21	0.5	693.209	0.5	AX	n/a	n/a	dot_pattern_expectancy	-1.0	n/a	cue	AX	s558	False
695.714	0.5	696.198	1.636	AX	1.0	89.0	dot_pattern_expectancy	89.0	0.484	probe	AX	s558	False
697.353	0.5	697.352	0.5	AX	n/a	n/a	dot_pattern_expectancy	-1.0	n/a	cue	AX	s558	False
699.856	0.5	700.269	1.636	AX	1.0	89.0	dot_pattern_expectancy	89.0	0.413	probe	AX	s558	False
701.493	0.5	701.492	0.5	BX	n/a	n/a	dot_pattern_expectancy	-1.0	n/a	cue	BX	s558	False
703.997	0.5	704.462	1.5	BX	1.0	71.0	dot_pattern_expectancy	71.0	0.465	probe	BX	s558	False
705.499	0.5	705.498	0.5	BX	n/a	n/a	dot_pattern_expectancy	-1.0	n/a	cue	BX	s558	False
708.003	0.5	708.343	1.5	BX	1.0	71.0	dot_pattern_expectancy	71.0	0.34	probe	BX	s558	False
709.504	0.5	709.503	0.5	AX	n/a	n/a	dot_pattern_expectancy	-1.0	n/a	cue	AX	s558	False
712.008	0.5	712.446	2.316	AX	1.0	89.0	dot_pattern_expectancy	89.0	0.438	probe	AX	s558	False
714.326	0.5	714.325	0.5	AY	n/a	n/a	dot_pattern_expectancy	-1.0	n/a	cue	AY	s558	False
716.83	0.5	717.414	2.044	AY	1.0	71.0	dot_pattern_expectancy	71.0	0.584	probe	AY	s558	False
718.875	0.5	718.874	0.5	AX	n/a	n/a	dot_pattern_expectancy	-1.0	n/a	cue	AX	s558	False
721.379	0.5	721.875	3.948	AX	1.0	89.0	dot_pattern_expectancy	89.0	0.496	probe	AX	s558	False
725.329	0.5	725.328	0.5	AX	n/a	n/a	dot_pattern_expectancy	-1.0	n/a	cue	AX	s558	False
727.834	0.5	728.322	1.636	AX	1.0	89.0	dot_pattern_expectancy	89.0	0.488	probe	AX	s558	False
