duration	onset	block_duration	movement_onset	planning	condition	exp_stage	experiment_exp_id	key_press	problem_id	response_time	trial_id	trial_type	worker_id	junk
4.956	3.008	4.956	7.964	1	UA_with_intermediate	practice	ward_and_allport	71	0.0	4.956	to_hand	poldrack-single-stim	s558	False
0.1	7.965	0.881	8.846	0	UA_with_intermediate	practice	ward_and_allport	82	0.0	0.881	to_board	poldrack-single-stim	s558	False
0.1	8.848	1.388	10.236	0	UA_with_intermediate	practice	ward_and_allport	71	0.0	1.388	to_hand	poldrack-single-stim	s558	False
0.1	10.237	0.963	11.2	0	UA_with_intermediate	practice	ward_and_allport	89	0.0	0.963	to_board	poldrack-single-stim	s558	False
0.1	11.201	0.852	12.053	0	UA_with_intermediate	practice	ward_and_allport	82	0.0	0.852	to_hand	poldrack-single-stim	s558	False
0.1	12.054	0.483	12.537	0	UA_with_intermediate	practice	ward_and_allport	89	0.0	0.483	to_board	poldrack-single-stim	s558	False
1.0	12.541	2.5	12.54	0	UA_with_intermediate	practice	ward_and_allport	-1	0.0	n/a	feedback	poldrack-single-stim	s558	False
5.386	15.043	5.386	20.429	1	UA_with_intermediate	practice	ward_and_allport	89	1.0	5.386	to_hand	poldrack-single-stim	s558	False
0.1	20.43	0.611	21.041	0	UA_with_intermediate	practice	ward_and_allport	82	1.0	0.611	to_board	poldrack-single-stim	s558	False
0.1	21.042	0.497	21.539	0	UA_with_intermediate	practice	ward_and_allport	71	1.0	0.497	to_hand	poldrack-single-stim	s558	False
0.1	21.541	0.541	22.082	0	UA_with_intermediate	practice	ward_and_allport	89	1.0	0.541	to_board	poldrack-single-stim	s558	False
0.1	22.083	0.583	22.666	0	UA_with_intermediate	practice	ward_and_allport	82	1.0	0.583	to_hand	poldrack-single-stim	s558	False
0.1	22.667	0.412	23.079	0	UA_with_intermediate	practice	ward_and_allport	89	1.0	0.412	to_board	poldrack-single-stim	s558	False
1.0	23.081	2.1	23.08	0	UA_with_intermediate	practice	ward_and_allport	-1	1.0	n/a	feedback	poldrack-single-stim	s558	False
6.815	25.183	6.815	31.998	1	UA_without_intermediate	practice	ward_and_allport	82	2.0	6.815	to_hand	poldrack-single-stim	s558	False
0.1	32.0	0.438	32.438	0	UA_without_intermediate	practice	ward_and_allport	89	2.0	0.438	to_board	poldrack-single-stim	s558	False
0.1	32.441	0.769	33.21	0	UA_without_intermediate	practice	ward_and_allport	71	2.0	0.769	to_hand	poldrack-single-stim	s558	False
0.1	33.21	0.417	33.627	0	UA_without_intermediate	practice	ward_and_allport	89	2.0	0.417	to_board	poldrack-single-stim	s558	False
0.1	33.628	1.276	34.904	0	UA_without_intermediate	practice	ward_and_allport	71	2.0	1.276	to_hand	poldrack-single-stim	s558	False
0.1	34.905	0.281	35.186	0	UA_without_intermediate	practice	ward_and_allport	89	2.0	0.281	to_board	poldrack-single-stim	s558	False
1.0	35.19	2.2	35.189	0	UA_without_intermediate	practice	ward_and_allport	-1	2.0	n/a	feedback	poldrack-single-stim	s558	False
5.57	37.392	5.57	42.962	1	UA_without_intermediate	practice	ward_and_allport	71	3.0	5.57	to_hand	poldrack-single-stim	s558	False
0.1	42.963	0.588	43.551	0	UA_without_intermediate	practice	ward_and_allport	89	3.0	0.588	to_board	poldrack-single-stim	s558	False
0.1	43.553	0.918	44.471	0	UA_without_intermediate	practice	ward_and_allport	82	3.0	0.918	to_hand	poldrack-single-stim	s558	False
0.1	44.472	0.402	44.874	0	UA_without_intermediate	practice	ward_and_allport	89	3.0	0.402	to_board	poldrack-single-stim	s558	False
0.1	44.876	0.4	45.276	0	UA_without_intermediate	practice	ward_and_allport	71	3.0	0.4	to_hand	poldrack-single-stim	s558	False
0.1	45.277	0.463	45.74	0	UA_without_intermediate	practice	ward_and_allport	89	3.0	0.463	to_board	poldrack-single-stim	s558	False
1.0	45.744	2.0	45.743	0	UA_without_intermediate	practice	ward_and_allport	-1	3.0	n/a	feedback	poldrack-single-stim	s558	False
7.603	49.748	7.603	57.351	1	PA_with_intermediate	test	ward_and_allport	89	0.0	7.603	to_hand	poldrack-single-stim	s558	False
0.1	57.352	0.58	57.932	0	PA_with_intermediate	test	ward_and_allport	82	0.0	0.58	to_board	poldrack-single-stim	s558	False
0.1	57.934	1.165	59.099	0	PA_with_intermediate	test	ward_and_allport	89	0.0	1.165	to_hand	poldrack-single-stim	s558	False
0.1	59.099	0.82	59.919	0	PA_with_intermediate	test	ward_and_allport	71	0.0	0.82	to_board	poldrack-single-stim	s558	False
0.1	59.922	1.716	61.638	0	PA_with_intermediate	test	ward_and_allport	82	0.0	1.716	to_hand	poldrack-single-stim	s558	False
0.1	61.639	0.405	62.044	0	PA_with_intermediate	test	ward_and_allport	71	0.0	0.405	to_board	poldrack-single-stim	s558	False
1.0	62.046	3.768	62.045	0	PA_with_intermediate	test	ward_and_allport	-1	0.0	n/a	feedback	poldrack-single-stim	s558	False
5.505	65.816	5.505	71.321	1	PA_with_intermediate	test	ward_and_allport	89	1.0	5.505	to_hand	poldrack-single-stim	s558	False
0.1	71.322	0.619	71.941	0	PA_with_intermediate	test	ward_and_allport	71	1.0	0.619	to_board	poldrack-single-stim	s558	False
0.1	71.943	0.864	72.807	0	PA_with_intermediate	test	ward_and_allport	89	1.0	0.864	to_hand	poldrack-single-stim	s558	False
0.1	72.808	0.356	73.164	0	PA_with_intermediate	test	ward_and_allport	82	1.0	0.356	to_board	poldrack-single-stim	s558	False
0.1	73.167	0.521	73.688	0	PA_with_intermediate	test	ward_and_allport	71	1.0	0.521	to_hand	poldrack-single-stim	s558	False
0.1	73.688	0.442	74.13	0	PA_with_intermediate	test	ward_and_allport	82	1.0	0.442	to_board	poldrack-single-stim	s558	False
1.0	74.133	2.68	74.132	0	PA_with_intermediate	test	ward_and_allport	-1	1.0	n/a	feedback	poldrack-single-stim	s558	False
5.872	76.815	5.872	82.687	1	PA_without_intermediate	test	ward_and_allport	82	2.0	5.872	to_hand	poldrack-single-stim	s558	False
0.1	82.688	0.57	83.258	0	PA_without_intermediate	test	ward_and_allport	89	2.0	0.57	to_board	poldrack-single-stim	s558	False
0.1	83.261	2.629	85.89	0	PA_without_intermediate	test	ward_and_allport	82	2.0	2.629	to_hand	poldrack-single-stim	s558	False
0.1	85.891	0.389	86.28	0	PA_without_intermediate	test	ward_and_allport	71	2.0	0.389	to_board	poldrack-single-stim	s558	False
0.1	86.283	0.866	87.149	0	PA_without_intermediate	test	ward_and_allport	82	2.0	0.866	to_hand	poldrack-single-stim	s558	False
0.1	87.15	0.446	87.596	0	PA_without_intermediate	test	ward_and_allport	89	2.0	0.446	to_board	poldrack-single-stim	s558	False
1.0	87.599	3.224	87.598	0	PA_without_intermediate	test	ward_and_allport	-1	2.0	n/a	feedback	poldrack-single-stim	s558	False
5.721	90.826	5.721	96.547	1	PA_without_intermediate	test	ward_and_allport	89	3.0	5.721	to_hand	poldrack-single-stim	s558	False
0.1	96.548	0.594	97.142	0	PA_without_intermediate	test	ward_and_allport	82	3.0	0.594	to_board	poldrack-single-stim	s558	False
0.1	97.145	0.681	97.826	0	PA_without_intermediate	test	ward_and_allport	89	3.0	0.681	to_hand	poldrack-single-stim	s558	False
0.1	97.827	0.77	98.597	0	PA_without_intermediate	test	ward_and_allport	71	3.0	0.77	to_board	poldrack-single-stim	s558	False
0.1	98.599	0.849	99.448	0	PA_without_intermediate	test	ward_and_allport	89	3.0	0.849	to_hand	poldrack-single-stim	s558	False
0.1	99.449	0.392	99.841	0	PA_without_intermediate	test	ward_and_allport	82	3.0	0.392	to_board	poldrack-single-stim	s558	False
1.0	99.844	3.36	99.843	0	PA_without_intermediate	test	ward_and_allport	-1	3.0	n/a	feedback	poldrack-single-stim	s558	False
5.862	103.207	5.862	109.069	1	PA_without_intermediate	test	ward_and_allport	89	4.0	5.862	to_hand	poldrack-single-stim	s558	False
0.1	109.069	0.506	109.575	0	PA_without_intermediate	test	ward_and_allport	71	4.0	0.506	to_board	poldrack-single-stim	s558	False
0.1	109.578	1.005	110.583	0	PA_without_intermediate	test	ward_and_allport	89	4.0	1.005	to_hand	poldrack-single-stim	s558	False
0.1	110.583	0.367	110.95	0	PA_without_intermediate	test	ward_and_allport	82	4.0	0.367	to_board	poldrack-single-stim	s558	False
0.1	110.952	0.439	111.391	0	PA_without_intermediate	test	ward_and_allport	89	4.0	0.439	to_hand	poldrack-single-stim	s558	False
0.1	111.392	0.341	111.733	0	PA_without_intermediate	test	ward_and_allport	71	4.0	0.341	to_board	poldrack-single-stim	s558	False
1.0	111.737	2.0	111.736	0	PA_without_intermediate	test	ward_and_allport	-1	4.0	n/a	feedback	poldrack-single-stim	s558	False
4.203	113.74	4.203	117.943	1	PA_without_intermediate	test	ward_and_allport	89	5.0	4.203	to_hand	poldrack-single-stim	s558	False
0.1	117.944	0.47	118.414	0	PA_without_intermediate	test	ward_and_allport	71	5.0	0.47	to_board	poldrack-single-stim	s558	False
0.1	118.418	0.386	118.804	0	PA_without_intermediate	test	ward_and_allport	89	5.0	0.386	to_hand	poldrack-single-stim	s558	False
0.1	118.805	0.502	119.307	0	PA_without_intermediate	test	ward_and_allport	82	5.0	0.502	to_board	poldrack-single-stim	s558	False
0.1	119.31	0.378	119.688	0	PA_without_intermediate	test	ward_and_allport	89	5.0	0.378	to_hand	poldrack-single-stim	s558	False
0.1	119.69	0.322	120.012	0	PA_without_intermediate	test	ward_and_allport	71	5.0	0.322	to_board	poldrack-single-stim	s558	False
1.0	120.016	2.408	120.015	0	PA_without_intermediate	test	ward_and_allport	-1	5.0	n/a	feedback	poldrack-single-stim	s558	False
6.178	122.427	6.178	128.605	1	PA_with_intermediate	test	ward_and_allport	82	6.0	6.178	to_hand	poldrack-single-stim	s558	False
0.1	128.606	0.475	129.081	0	PA_with_intermediate	test	ward_and_allport	89	6.0	0.475	to_board	poldrack-single-stim	s558	False
0.1	129.085	0.878	129.963	0	PA_with_intermediate	test	ward_and_allport	82	6.0	0.878	to_hand	poldrack-single-stim	s558	False
0.1	129.964	0.308	130.272	0	PA_with_intermediate	test	ward_and_allport	71	6.0	0.308	to_board	poldrack-single-stim	s558	False
0.1	130.275	0.405	130.68	0	PA_with_intermediate	test	ward_and_allport	89	6.0	0.405	to_hand	poldrack-single-stim	s558	False
0.1	130.681	0.204	130.885	0	PA_with_intermediate	test	ward_and_allport	71	6.0	0.204	to_board	poldrack-single-stim	s558	False
1.0	130.89	2.136	130.889	0	PA_with_intermediate	test	ward_and_allport	-1	6.0	n/a	feedback	poldrack-single-stim	s558	False
7.139	133.03	7.139	140.169	1	PA_without_intermediate	test	ward_and_allport	82	7.0	7.139	to_hand	poldrack-single-stim	s558	False
0.1	140.17	0.331	140.501	0	PA_without_intermediate	test	ward_and_allport	89	7.0	0.331	to_board	poldrack-single-stim	s558	False
0.1	140.505	2.044	142.549	0	PA_without_intermediate	test	ward_and_allport	82	7.0	2.044	to_hand	poldrack-single-stim	s558	False
0.1	142.55	0.257	142.807	0	PA_without_intermediate	test	ward_and_allport	89	7.0	0.257	to_board	poldrack-single-stim	s558	False
0.1	142.811	1.347	144.158	0	PA_without_intermediate	test	ward_and_allport	82	7.0	1.347	to_hand	poldrack-single-stim	s558	False
0.1	144.159	0.246	144.405	0	PA_without_intermediate	test	ward_and_allport	71	7.0	0.246	to_board	poldrack-single-stim	s558	False
1.0	144.409	5.128	144.408	0	PA_without_intermediate	test	ward_and_allport	-1	7.0	n/a	feedback	poldrack-single-stim	s558	False
5.456	149.541	5.456	154.997	1	PA_without_intermediate	test	ward_and_allport	71	8.0	5.456	to_hand	poldrack-single-stim	s558	False
0.1	154.998	0.427	155.425	0	PA_without_intermediate	test	ward_and_allport	82	8.0	0.427	to_board	poldrack-single-stim	s558	False
0.1	155.428	0.465	155.893	0	PA_without_intermediate	test	ward_and_allport	71	8.0	0.465	to_hand	poldrack-single-stim	s558	False
0.1	155.894	0.371	156.265	0	PA_without_intermediate	test	ward_and_allport	82	8.0	0.371	to_board	poldrack-single-stim	s558	False
0.1	156.269	1.029	157.298	0	PA_without_intermediate	test	ward_and_allport	71	8.0	1.029	to_hand	poldrack-single-stim	s558	False
0.1	157.299	0.256	157.555	0	PA_without_intermediate	test	ward_and_allport	89	8.0	0.256	to_board	poldrack-single-stim	s558	False
1.0	157.559	2.136	157.558	0	PA_without_intermediate	test	ward_and_allport	-1	8.0	n/a	feedback	poldrack-single-stim	s558	False
5.924	159.698	5.924	165.622	1	PA_without_intermediate	test	ward_and_allport	71	9.0	5.924	to_hand	poldrack-single-stim	s558	False
0.1	165.623	0.377	166.0	0	PA_without_intermediate	test	ward_and_allport	82	9.0	0.377	to_board	poldrack-single-stim	s558	False
0.1	166.003	0.637	166.64	0	PA_without_intermediate	test	ward_and_allport	71	9.0	0.637	to_hand	poldrack-single-stim	s558	False
0.1	166.641	0.319	166.96	0	PA_without_intermediate	test	ward_and_allport	89	9.0	0.319	to_board	poldrack-single-stim	s558	False
0.1	166.964	0.331	167.295	0	PA_without_intermediate	test	ward_and_allport	71	9.0	0.331	to_hand	poldrack-single-stim	s558	False
0.1	167.295	0.433	167.728	0	PA_without_intermediate	test	ward_and_allport	82	9.0	0.433	to_board	poldrack-single-stim	s558	False
1.0	167.733	5.264	167.732	0	PA_without_intermediate	test	ward_and_allport	-1	9.0	n/a	feedback	poldrack-single-stim	s558	False
10.441	173.0	10.441	183.441	1	PA_with_intermediate	test	ward_and_allport	89	10.0	10.441	to_hand	poldrack-single-stim	s558	False
0.1	183.442	0.209	183.651	0	PA_with_intermediate	test	ward_and_allport	71	10.0	0.209	to_board	poldrack-single-stim	s558	False
0.1	183.656	0.33	183.986	0	PA_with_intermediate	test	ward_and_allport	89	10.0	0.33	to_hand	poldrack-single-stim	s558	False
0.1	183.987	0.383	184.37	0	PA_with_intermediate	test	ward_and_allport	82	10.0	0.383	to_board	poldrack-single-stim	s558	False
0.1	184.374	0.456	184.83	0	PA_with_intermediate	test	ward_and_allport	71	10.0	0.456	to_hand	poldrack-single-stim	s558	False
0.1	184.83	0.227	185.057	0	PA_with_intermediate	test	ward_and_allport	89	10.0	0.227	to_board	poldrack-single-stim	s558	False
1.0	185.063	4.04	185.062	0	PA_with_intermediate	test	ward_and_allport	-1	10.0	n/a	feedback	poldrack-single-stim	s558	False
4.584	189.106	4.584	193.69	1	PA_with_intermediate	test	ward_and_allport	82	11.0	4.584	to_hand	poldrack-single-stim	s558	False
0.1	193.692	0.239	193.931	0	PA_with_intermediate	test	ward_and_allport	89	11.0	0.239	to_board	poldrack-single-stim	s558	False
0.1	193.938	0.324	194.262	0	PA_with_intermediate	test	ward_and_allport	82	11.0	0.324	to_hand	poldrack-single-stim	s558	False
0.1	194.262	0.335	194.597	0	PA_with_intermediate	test	ward_and_allport	71	11.0	0.335	to_board	poldrack-single-stim	s558	False
0.1	194.602	0.37	194.972	0	PA_with_intermediate	test	ward_and_allport	89	11.0	0.37	to_hand	poldrack-single-stim	s558	False
0.1	194.973	0.217	195.19	0	PA_with_intermediate	test	ward_and_allport	71	11.0	0.217	to_board	poldrack-single-stim	s558	False
1.0	195.195	2.136	195.194	0	PA_with_intermediate	test	ward_and_allport	-1	11.0	n/a	feedback	poldrack-single-stim	s558	False
5.157	197.337	5.157	202.494	1	PA_with_intermediate	test	ward_and_allport	71	12.0	5.157	to_hand	poldrack-single-stim	s558	False
0.1	202.495	0.297	202.792	0	PA_with_intermediate	test	ward_and_allport	89	12.0	0.297	to_board	poldrack-single-stim	s558	False
0.1	202.796	0.484	203.28	0	PA_with_intermediate	test	ward_and_allport	71	12.0	0.484	to_hand	poldrack-single-stim	s558	False
0.1	203.281	0.316	203.597	0	PA_with_intermediate	test	ward_and_allport	82	12.0	0.316	to_board	poldrack-single-stim	s558	False
0.1	203.601	0.315	203.916	0	PA_with_intermediate	test	ward_and_allport	89	12.0	0.315	to_hand	poldrack-single-stim	s558	False
0.1	203.917	0.251	204.168	0	PA_with_intermediate	test	ward_and_allport	82	12.0	0.251	to_board	poldrack-single-stim	s558	False
1.0	204.174	2.408	204.173	0	PA_with_intermediate	test	ward_and_allport	-1	12.0	n/a	feedback	poldrack-single-stim	s558	False
3.79	206.586	3.79	210.376	1	PA_without_intermediate	test	ward_and_allport	82	13.0	3.79	to_hand	poldrack-single-stim	s558	False
0.1	210.377	0.528	210.905	0	PA_without_intermediate	test	ward_and_allport	89	13.0	0.528	to_board	poldrack-single-stim	s558	False
0.1	210.91	0.874	211.784	0	PA_without_intermediate	test	ward_and_allport	82	13.0	0.874	to_hand	poldrack-single-stim	s558	False
0.1	211.786	0.168	211.954	0	PA_without_intermediate	test	ward_and_allport	89	13.0	0.168	to_board	poldrack-single-stim	s558	False
0.1	211.958	1.048	213.006	0	PA_without_intermediate	test	ward_and_allport	82	13.0	1.048	to_hand	poldrack-single-stim	s558	False
0.1	213.008	0.153	213.161	0	PA_without_intermediate	test	ward_and_allport	71	13.0	0.153	to_board	poldrack-single-stim	s558	False
1.0	213.166	2.68	213.165	0	PA_without_intermediate	test	ward_and_allport	-1	13.0	n/a	feedback	poldrack-single-stim	s558	False
4.383	215.85	4.383	220.233	1	PA_with_intermediate	test	ward_and_allport	82	14.0	4.383	to_hand	poldrack-single-stim	s558	False
0.1	220.234	0.203	220.437	0	PA_with_intermediate	test	ward_and_allport	71	14.0	0.203	to_board	poldrack-single-stim	s558	False
0.1	220.441	0.395	220.836	0	PA_with_intermediate	test	ward_and_allport	82	14.0	0.395	to_hand	poldrack-single-stim	s558	False
0.1	220.838	0.475	221.313	0	PA_with_intermediate	test	ward_and_allport	89	14.0	0.475	to_board	poldrack-single-stim	s558	False
0.1	221.317	2.04	223.357	0	PA_with_intermediate	test	ward_and_allport	71	14.0	2.04	to_hand	poldrack-single-stim	s558	False
0.1	223.358	0.18	223.538	0	PA_with_intermediate	test	ward_and_allport	89	14.0	0.18	to_board	poldrack-single-stim	s558	False
1.0	223.543	4.72	223.542	0	PA_with_intermediate	test	ward_and_allport	-1	14.0	n/a	feedback	poldrack-single-stim	s558	False
3.433	233.268	3.433	236.701	1	PA_without_intermediate	test	ward_and_allport	71	15.0	3.433	to_hand	poldrack-single-stim	s558	False
0.1	236.701	0.256	236.957	0	PA_without_intermediate	test	ward_and_allport	89	15.0	0.256	to_board	poldrack-single-stim	s558	False
0.1	236.961	0.769	237.73	0	PA_without_intermediate	test	ward_and_allport	71	15.0	0.769	to_hand	poldrack-single-stim	s558	False
0.1	237.731	0.282	238.013	0	PA_without_intermediate	test	ward_and_allport	82	15.0	0.282	to_board	poldrack-single-stim	s558	False
0.1	238.018	0.386	238.404	0	PA_without_intermediate	test	ward_and_allport	71	15.0	0.386	to_hand	poldrack-single-stim	s558	False
0.1	238.405	0.207	238.612	0	PA_without_intermediate	test	ward_and_allport	89	15.0	0.207	to_board	poldrack-single-stim	s558	False
1.0	238.618	3.224	238.617	0	PA_without_intermediate	test	ward_and_allport	-1	15.0	n/a	feedback	poldrack-single-stim	s558	False
3.217	241.846	3.217	245.063	1	PA_without_intermediate	test	ward_and_allport	71	16.0	3.217	to_hand	poldrack-single-stim	s558	False
0.1	245.063	0.239	245.302	0	PA_without_intermediate	test	ward_and_allport	82	16.0	0.239	to_board	poldrack-single-stim	s558	False
0.1	245.306	0.25	245.556	0	PA_without_intermediate	test	ward_and_allport	71	16.0	0.25	to_hand	poldrack-single-stim	s558	False
0.1	245.557	0.263	245.82	0	PA_without_intermediate	test	ward_and_allport	82	16.0	0.263	to_board	poldrack-single-stim	s558	False
0.1	245.825	0.544	246.369	0	PA_without_intermediate	test	ward_and_allport	71	16.0	0.544	to_hand	poldrack-single-stim	s558	False
0.1	246.369	0.164	246.533	0	PA_without_intermediate	test	ward_and_allport	89	16.0	0.164	to_board	poldrack-single-stim	s558	False
1.0	246.539	2.272	246.538	0	PA_without_intermediate	test	ward_and_allport	-1	16.0	n/a	feedback	poldrack-single-stim	s558	False
4.666	248.815	4.666	253.481	1	PA_with_intermediate	test	ward_and_allport	89	17.0	4.666	to_hand	poldrack-single-stim	s558	False
0.1	253.482	0.212	253.694	0	PA_with_intermediate	test	ward_and_allport	71	17.0	0.212	to_board	poldrack-single-stim	s558	False
0.1	253.698	0.264	253.962	0	PA_with_intermediate	test	ward_and_allport	89	17.0	0.264	to_hand	poldrack-single-stim	s558	False
0.1	253.964	0.277	254.241	0	PA_with_intermediate	test	ward_and_allport	82	17.0	0.277	to_board	poldrack-single-stim	s558	False
0.1	254.245	0.351	254.596	0	PA_with_intermediate	test	ward_and_allport	71	17.0	0.351	to_hand	poldrack-single-stim	s558	False
0.1	254.598	0.22	254.818	0	PA_with_intermediate	test	ward_and_allport	82	17.0	0.22	to_board	poldrack-single-stim	s558	False
1.0	254.824	3.632	254.823	0	PA_with_intermediate	test	ward_and_allport	-1	17.0	n/a	feedback	poldrack-single-stim	s558	False
3.299	258.459	3.299	261.758	1	PA_without_intermediate	test	ward_and_allport	82	18.0	3.299	to_hand	poldrack-single-stim	s558	False
0.1	261.759	0.571	262.33	0	PA_without_intermediate	test	ward_and_allport	71	18.0	0.571	to_board	poldrack-single-stim	s558	False
0.1	262.335	1.296	263.631	0	PA_without_intermediate	test	ward_and_allport	82	18.0	1.296	to_hand	poldrack-single-stim	s558	False
0.1	263.631	0.228	263.859	0	PA_without_intermediate	test	ward_and_allport	71	18.0	0.228	to_board	poldrack-single-stim	s558	False
0.1	263.864	0.926	264.79	0	PA_without_intermediate	test	ward_and_allport	82	18.0	0.926	to_hand	poldrack-single-stim	s558	False
0.1	264.791	0.187	264.978	0	PA_without_intermediate	test	ward_and_allport	89	18.0	0.187	to_board	poldrack-single-stim	s558	False
1.0	264.984	2.408	264.983	0	PA_without_intermediate	test	ward_and_allport	-1	18.0	n/a	feedback	poldrack-single-stim	s558	False
4.605	267.397	4.605	272.002	1	PA_without_intermediate	test	ward_and_allport	82	19.0	4.605	to_hand	poldrack-single-stim	s558	False
0.1	272.003	0.202	272.205	0	PA_without_intermediate	test	ward_and_allport	89	19.0	0.202	to_board	poldrack-single-stim	s558	False
0.1	272.21	0.847	273.057	0	PA_without_intermediate	test	ward_and_allport	82	19.0	0.847	to_hand	poldrack-single-stim	s558	False
0.1	273.058	0.402	273.46	0	PA_without_intermediate	test	ward_and_allport	71	19.0	0.402	to_board	poldrack-single-stim	s558	False
0.1	273.465	0.84	274.305	0	PA_without_intermediate	test	ward_and_allport	82	19.0	0.84	to_hand	poldrack-single-stim	s558	False
0.1	274.305	0.296	274.601	0	PA_without_intermediate	test	ward_and_allport	89	19.0	0.296	to_board	poldrack-single-stim	s558	False
1.0	274.607	2.0	274.606	0	PA_without_intermediate	test	ward_and_allport	-1	19.0	n/a	feedback	poldrack-single-stim	s558	False
5.83	276.612	5.83	282.442	1	PA_with_intermediate	test	ward_and_allport	89	20.0	5.83	to_hand	poldrack-single-stim	s558	False
0.1	282.443	0.265	282.708	0	PA_with_intermediate	test	ward_and_allport	82	20.0	0.265	to_board	poldrack-single-stim	s558	False
0.1	282.713	0.261	282.974	0	PA_with_intermediate	test	ward_and_allport	89	20.0	0.261	to_hand	poldrack-single-stim	s558	False
0.1	282.975	0.256	283.231	0	PA_with_intermediate	test	ward_and_allport	71	20.0	0.256	to_board	poldrack-single-stim	s558	False
0.1	283.235	0.584	283.819	0	PA_with_intermediate	test	ward_and_allport	82	20.0	0.584	to_hand	poldrack-single-stim	s558	False
0.1	283.821	0.183	284.004	0	PA_with_intermediate	test	ward_and_allport	89	20.0	0.183	to_board	poldrack-single-stim	s558	False
1.0	284.01	2.0	284.009	0	PA_with_intermediate	test	ward_and_allport	-1	20.0	n/a	feedback	poldrack-single-stim	s558	False
5.309	286.015	5.309	291.324	1	PA_with_intermediate	test	ward_and_allport	71	21.0	5.309	to_hand	poldrack-single-stim	s558	False
0.1	291.325	0.268	291.593	0	PA_with_intermediate	test	ward_and_allport	82	21.0	0.268	to_board	poldrack-single-stim	s558	False
0.1	291.599	0.307	291.906	0	PA_with_intermediate	test	ward_and_allport	71	21.0	0.307	to_hand	poldrack-single-stim	s558	False
0.1	291.907	0.273	292.18	0	PA_with_intermediate	test	ward_and_allport	89	21.0	0.273	to_board	poldrack-single-stim	s558	False
0.1	292.185	0.37	292.555	0	PA_with_intermediate	test	ward_and_allport	82	21.0	0.37	to_hand	poldrack-single-stim	s558	False
0.1	292.555	0.235	292.79	0	PA_with_intermediate	test	ward_and_allport	89	21.0	0.235	to_board	poldrack-single-stim	s558	False
1.0	292.797	2.0	292.796	0	PA_with_intermediate	test	ward_and_allport	-1	21.0	n/a	feedback	poldrack-single-stim	s558	False
10.344	294.802	10.344	305.146	1	PA_with_intermediate	test	ward_and_allport	82	22.0	10.344	to_hand	poldrack-single-stim	s558	False
0.1	305.147	0.223	305.37	0	PA_with_intermediate	test	ward_and_allport	71	22.0	0.223	to_board	poldrack-single-stim	s558	False
0.1	305.376	0.325	305.701	0	PA_with_intermediate	test	ward_and_allport	82	22.0	0.325	to_hand	poldrack-single-stim	s558	False
0.1	305.703	0.22	305.923	0	PA_with_intermediate	test	ward_and_allport	89	22.0	0.22	to_board	poldrack-single-stim	s558	False
0.1	305.928	0.75	306.678	0	PA_with_intermediate	test	ward_and_allport	71	22.0	0.75	to_hand	poldrack-single-stim	s558	False
0.1	306.679	0.24	306.919	0	PA_with_intermediate	test	ward_and_allport	82	22.0	0.24	to_board	poldrack-single-stim	s558	False
1.0	306.927	2.408	306.926	0	PA_with_intermediate	test	ward_and_allport	-1	22.0	n/a	feedback	poldrack-single-stim	s558	False
4.11	309.341	4.11	313.451	1	PA_without_intermediate	test	ward_and_allport	71	23.0	4.11	to_hand	poldrack-single-stim	s558	False
0.1	313.452	0.239	313.691	0	PA_without_intermediate	test	ward_and_allport	82	23.0	0.239	to_board	poldrack-single-stim	s558	False
0.1	313.696	0.245	313.941	0	PA_without_intermediate	test	ward_and_allport	71	23.0	0.245	to_hand	poldrack-single-stim	s558	False
0.1	313.942	0.27	314.212	0	PA_without_intermediate	test	ward_and_allport	89	23.0	0.27	to_board	poldrack-single-stim	s558	False
0.1	314.218	0.581	314.799	0	PA_without_intermediate	test	ward_and_allport	71	23.0	0.581	to_hand	poldrack-single-stim	s558	False
0.1	314.8	0.159	314.959	0	PA_without_intermediate	test	ward_and_allport	82	23.0	0.159	to_board	poldrack-single-stim	s558	False
1.0	314.966	2.816	314.965	0	PA_without_intermediate	test	ward_and_allport	-1	23.0	n/a	feedback	poldrack-single-stim	s558	False
6.664	317.788	6.664	324.452	1	PA_with_intermediate	test	ward_and_allport	71	24.0	6.664	to_hand	poldrack-single-stim	s558	False
0.1	324.454	0.197	324.651	0	PA_with_intermediate	test	ward_and_allport	89	24.0	0.197	to_board	poldrack-single-stim	s558	False
0.1	324.656	0.276	324.932	0	PA_with_intermediate	test	ward_and_allport	71	24.0	0.276	to_hand	poldrack-single-stim	s558	False
0.1	324.934	0.258	325.192	0	PA_with_intermediate	test	ward_and_allport	82	24.0	0.258	to_board	poldrack-single-stim	s558	False
0.1	325.199	0.694	325.893	0	PA_with_intermediate	test	ward_and_allport	89	24.0	0.694	to_hand	poldrack-single-stim	s558	False
0.1	325.893	0.165	326.058	0	PA_with_intermediate	test	ward_and_allport	71	24.0	0.165	to_board	poldrack-single-stim	s558	False
1.0	326.065	4.176	326.064	0	PA_with_intermediate	test	ward_and_allport	-1	24.0	n/a	feedback	poldrack-single-stim	s558	False
4.404	330.248	4.404	334.652	1	PA_with_intermediate	test	ward_and_allport	89	25.0	4.404	to_hand	poldrack-single-stim	s558	False
0.1	334.653	0.185	334.838	0	PA_with_intermediate	test	ward_and_allport	71	25.0	0.185	to_board	poldrack-single-stim	s558	False
0.1	334.844	0.252	335.096	0	PA_with_intermediate	test	ward_and_allport	89	25.0	0.252	to_hand	poldrack-single-stim	s558	False
0.1	335.097	0.248	335.345	0	PA_with_intermediate	test	ward_and_allport	82	25.0	0.248	to_board	poldrack-single-stim	s558	False
0.1	335.352	0.558	335.91	0	PA_with_intermediate	test	ward_and_allport	71	25.0	0.558	to_hand	poldrack-single-stim	s558	False
0.1	335.911	0.149	336.06	0	PA_with_intermediate	test	ward_and_allport	89	25.0	0.149	to_board	poldrack-single-stim	s558	False
1.0	336.067	3.36	336.066	0	PA_with_intermediate	test	ward_and_allport	-1	25.0	n/a	feedback	poldrack-single-stim	s558	False
4.986	339.435	4.986	344.421	1	PA_with_intermediate	test	ward_and_allport	82	26.0	4.986	to_hand	poldrack-single-stim	s558	False
0.1	344.422	0.196	344.618	0	PA_with_intermediate	test	ward_and_allport	89	26.0	0.196	to_board	poldrack-single-stim	s558	False
0.1	344.624	0.482	345.106	0	PA_with_intermediate	test	ward_and_allport	82	26.0	0.482	to_hand	poldrack-single-stim	s558	False
0.1	345.108	0.197	345.305	0	PA_with_intermediate	test	ward_and_allport	71	26.0	0.197	to_board	poldrack-single-stim	s558	False
0.1	345.311	0.792	346.103	0	PA_with_intermediate	test	ward_and_allport	89	26.0	0.792	to_hand	poldrack-single-stim	s558	False
0.1	346.105	0.212	346.317	0	PA_with_intermediate	test	ward_and_allport	82	26.0	0.212	to_board	poldrack-single-stim	s558	False
1.0	346.325	2.0	346.324	0	PA_with_intermediate	test	ward_and_allport	-1	26.0	n/a	feedback	poldrack-single-stim	s558	False
2.749	348.332	2.749	351.081	1	PA_without_intermediate	test	ward_and_allport	89	27.0	2.749	to_hand	poldrack-single-stim	s558	False
0.1	351.081	0.255	351.336	0	PA_without_intermediate	test	ward_and_allport	82	27.0	0.255	to_board	poldrack-single-stim	s558	False
0.1	351.342	0.32	351.662	0	PA_without_intermediate	test	ward_and_allport	89	27.0	0.32	to_hand	poldrack-single-stim	s558	False
0.1	351.663	0.292	351.955	0	PA_without_intermediate	test	ward_and_allport	71	27.0	0.292	to_board	poldrack-single-stim	s558	False
0.1	351.961	0.722	352.683	0	PA_without_intermediate	test	ward_and_allport	89	27.0	0.722	to_hand	poldrack-single-stim	s558	False
0.1	352.684	0.219	352.903	0	PA_without_intermediate	test	ward_and_allport	82	27.0	0.219	to_board	poldrack-single-stim	s558	False
1.0	352.912	2.408	352.911	0	PA_without_intermediate	test	ward_and_allport	-1	27.0	n/a	feedback	poldrack-single-stim	s558	False
3.706	355.327	3.706	359.033	1	PA_with_intermediate	test	ward_and_allport	89	28.0	3.706	to_hand	poldrack-single-stim	s558	False
0.1	359.035	0.247	359.282	0	PA_with_intermediate	test	ward_and_allport	82	28.0	0.247	to_board	poldrack-single-stim	s558	False
0.1	359.289	0.923	360.212	0	PA_with_intermediate	test	ward_and_allport	89	28.0	0.923	to_hand	poldrack-single-stim	s558	False
0.1	360.212	0.199	360.411	0	PA_with_intermediate	test	ward_and_allport	71	28.0	0.199	to_board	poldrack-single-stim	s558	False
0.1	360.417	0.624	361.041	0	PA_with_intermediate	test	ward_and_allport	82	28.0	0.624	to_hand	poldrack-single-stim	s558	False
0.1	361.042	0.135	361.177	0	PA_with_intermediate	test	ward_and_allport	71	28.0	0.135	to_board	poldrack-single-stim	s558	False
1.0	361.186	2.816	361.185	0	PA_with_intermediate	test	ward_and_allport	-1	28.0	n/a	feedback	poldrack-single-stim	s558	False
5.622	364.009	5.622	369.631	1	PA_without_intermediate	test	ward_and_allport	89	29.0	5.622	to_hand	poldrack-single-stim	s558	False
0.1	369.632	0.196	369.828	0	PA_without_intermediate	test	ward_and_allport	71	29.0	0.196	to_board	poldrack-single-stim	s558	False
0.1	369.836	0.899	370.735	0	PA_without_intermediate	test	ward_and_allport	89	29.0	0.899	to_hand	poldrack-single-stim	s558	False
0.1	370.735	0.159	370.894	0	PA_without_intermediate	test	ward_and_allport	71	29.0	0.159	to_board	poldrack-single-stim	s558	False
0.1	370.901	0.366	371.267	0	PA_without_intermediate	test	ward_and_allport	89	29.0	0.366	to_hand	poldrack-single-stim	s558	False
0.1	371.268	0.208	371.476	0	PA_without_intermediate	test	ward_and_allport	82	29.0	0.208	to_board	poldrack-single-stim	s558	False
1.0	371.484	3.088	371.483	0	PA_without_intermediate	test	ward_and_allport	-1	29.0	n/a	feedback	poldrack-single-stim	s558	False
3.387	379.582	3.387	382.969	1	PA_without_intermediate	test	ward_and_allport	82	30.0	3.387	to_hand	poldrack-single-stim	s558	False
0.1	382.969	0.209	383.178	0	PA_without_intermediate	test	ward_and_allport	71	30.0	0.209	to_board	poldrack-single-stim	s558	False
0.1	383.185	1.066	384.251	0	PA_without_intermediate	test	ward_and_allport	82	30.0	1.066	to_hand	poldrack-single-stim	s558	False
0.1	384.252	0.202	384.454	0	PA_without_intermediate	test	ward_and_allport	89	30.0	0.202	to_board	poldrack-single-stim	s558	False
0.1	384.461	0.964	385.425	0	PA_without_intermediate	test	ward_and_allport	82	30.0	0.964	to_hand	poldrack-single-stim	s558	False
0.1	385.426	0.158	385.584	0	PA_without_intermediate	test	ward_and_allport	71	30.0	0.158	to_board	poldrack-single-stim	s558	False
1.0	385.592	2.136	385.591	0	PA_without_intermediate	test	ward_and_allport	-1	30.0	n/a	feedback	poldrack-single-stim	s558	False
3.218	387.736	3.218	390.954	1	PA_without_intermediate	test	ward_and_allport	71	31.0	3.218	to_hand	poldrack-single-stim	s558	False
0.1	390.954	0.223	391.177	0	PA_without_intermediate	test	ward_and_allport	89	31.0	0.223	to_board	poldrack-single-stim	s558	False
0.1	391.184	0.302	391.486	0	PA_without_intermediate	test	ward_and_allport	71	31.0	0.302	to_hand	poldrack-single-stim	s558	False
0.1	391.488	0.276	391.764	0	PA_without_intermediate	test	ward_and_allport	89	31.0	0.276	to_board	poldrack-single-stim	s558	False
0.1	391.771	0.422	392.193	0	PA_without_intermediate	test	ward_and_allport	71	31.0	0.422	to_hand	poldrack-single-stim	s558	False
0.1	392.194	0.248	392.442	0	PA_without_intermediate	test	ward_and_allport	82	31.0	0.248	to_board	poldrack-single-stim	s558	False
1.0	392.451	7.168	392.45	0	PA_without_intermediate	test	ward_and_allport	-1	31.0	n/a	feedback	poldrack-single-stim	s558	False
2.939	399.626	2.939	402.565	1	PA_without_intermediate	test	ward_and_allport	89	32.0	2.939	to_hand	poldrack-single-stim	s558	False
0.1	402.565	0.212	402.777	0	PA_without_intermediate	test	ward_and_allport	82	32.0	0.212	to_board	poldrack-single-stim	s558	False
0.1	402.785	0.287	403.072	0	PA_without_intermediate	test	ward_and_allport	89	32.0	0.287	to_hand	poldrack-single-stim	s558	False
0.1	403.072	0.26	403.332	0	PA_without_intermediate	test	ward_and_allport	82	32.0	0.26	to_board	poldrack-single-stim	s558	False
0.1	403.341	0.542	403.883	0	PA_without_intermediate	test	ward_and_allport	89	32.0	0.542	to_hand	poldrack-single-stim	s558	False
0.1	403.883	0.154	404.037	0	PA_without_intermediate	test	ward_and_allport	71	32.0	0.154	to_board	poldrack-single-stim	s558	False
1.0	404.047	2.816	404.046	0	PA_without_intermediate	test	ward_and_allport	-1	32.0	n/a	feedback	poldrack-single-stim	s558	False
6.604	406.872	6.604	413.476	1	PA_with_intermediate	test	ward_and_allport	82	33.0	6.604	to_hand	poldrack-single-stim	s558	False
0.1	413.476	0.169	413.645	0	PA_with_intermediate	test	ward_and_allport	71	33.0	0.169	to_board	poldrack-single-stim	s558	False
0.1	413.651	0.291	413.942	0	PA_with_intermediate	test	ward_and_allport	82	33.0	0.291	to_hand	poldrack-single-stim	s558	False
0.1	413.943	0.26	414.203	0	PA_with_intermediate	test	ward_and_allport	89	33.0	0.26	to_board	poldrack-single-stim	s558	False
0.1	414.21	1.325	415.535	0	PA_with_intermediate	test	ward_and_allport	71	33.0	1.325	to_hand	poldrack-single-stim	s558	False
0.1	415.536	0.167	415.703	0	PA_with_intermediate	test	ward_and_allport	82	33.0	0.167	to_board	poldrack-single-stim	s558	False
1.0	415.714	2.952	415.713	0	PA_with_intermediate	test	ward_and_allport	-1	33.0	n/a	feedback	poldrack-single-stim	s558	False
3.513	418.675	3.513	422.188	1	PA_with_intermediate	test	ward_and_allport	71	34.0	3.513	to_hand	poldrack-single-stim	s558	False
0.1	422.189	0.216	422.405	0	PA_with_intermediate	test	ward_and_allport	82	34.0	0.216	to_board	poldrack-single-stim	s558	False
0.1	422.412	0.269	422.681	0	PA_with_intermediate	test	ward_and_allport	71	34.0	0.269	to_hand	poldrack-single-stim	s558	False
0.1	422.682	0.241	422.923	0	PA_with_intermediate	test	ward_and_allport	89	34.0	0.241	to_board	poldrack-single-stim	s558	False
0.1	422.93	0.476	423.406	0	PA_with_intermediate	test	ward_and_allport	82	34.0	0.476	to_hand	poldrack-single-stim	s558	False
0.1	423.407	0.147	423.554	0	PA_with_intermediate	test	ward_and_allport	71	34.0	0.147	to_board	poldrack-single-stim	s558	False
1.0	423.564	2.136	423.563	0	PA_with_intermediate	test	ward_and_allport	-1	34.0	n/a	feedback	poldrack-single-stim	s558	False
3.523	425.71	3.523	429.233	1	PA_without_intermediate	test	ward_and_allport	71	35.0	3.523	to_hand	poldrack-single-stim	s558	False
0.1	429.233	0.201	429.434	0	PA_without_intermediate	test	ward_and_allport	89	35.0	0.201	to_board	poldrack-single-stim	s558	False
0.1	429.441	0.973	430.414	0	PA_without_intermediate	test	ward_and_allport	71	35.0	0.973	to_hand	poldrack-single-stim	s558	False
0.1	430.414	0.194	430.608	0	PA_without_intermediate	test	ward_and_allport	89	35.0	0.194	to_board	poldrack-single-stim	s558	False
0.1	430.616	0.349	430.965	0	PA_without_intermediate	test	ward_and_allport	71	35.0	0.349	to_hand	poldrack-single-stim	s558	False
0.1	430.965	0.255	431.22	0	PA_without_intermediate	test	ward_and_allport	82	35.0	0.255	to_board	poldrack-single-stim	s558	False
1.0	431.231	2.68	431.23	0	PA_without_intermediate	test	ward_and_allport	-1	35.0	n/a	feedback	poldrack-single-stim	s558	False
2.829	433.92	2.829	436.749	1	PA_without_intermediate	test	ward_and_allport	89	36.0	2.829	to_hand	poldrack-single-stim	s558	False
0.1	436.75	0.215	436.965	0	PA_without_intermediate	test	ward_and_allport	82	36.0	0.215	to_board	poldrack-single-stim	s558	False
0.1	436.973	0.254	437.227	0	PA_without_intermediate	test	ward_and_allport	89	36.0	0.254	to_hand	poldrack-single-stim	s558	False
0.1	437.228	0.257	437.485	0	PA_without_intermediate	test	ward_and_allport	82	36.0	0.257	to_board	poldrack-single-stim	s558	False
0.1	437.493	0.652	438.145	0	PA_without_intermediate	test	ward_and_allport	89	36.0	0.652	to_hand	poldrack-single-stim	s558	False
0.1	438.147	0.151	438.298	0	PA_without_intermediate	test	ward_and_allport	71	36.0	0.151	to_board	poldrack-single-stim	s558	False
1.0	438.307	3.088	438.306	0	PA_without_intermediate	test	ward_and_allport	-1	36.0	n/a	feedback	poldrack-single-stim	s558	False
3.601	441.403	3.601	445.004	1	PA_with_intermediate	test	ward_and_allport	71	37.0	3.601	to_hand	poldrack-single-stim	s558	False
0.1	445.005	0.223	445.228	0	PA_with_intermediate	test	ward_and_allport	82	37.0	0.223	to_board	poldrack-single-stim	s558	False
0.1	445.234	0.283	445.517	0	PA_with_intermediate	test	ward_and_allport	71	37.0	0.283	to_hand	poldrack-single-stim	s558	False
0.1	445.519	0.241	445.76	0	PA_with_intermediate	test	ward_and_allport	89	37.0	0.241	to_board	poldrack-single-stim	s558	False
0.1	445.768	0.409	446.177	0	PA_with_intermediate	test	ward_and_allport	82	37.0	0.409	to_hand	poldrack-single-stim	s558	False
0.1	446.178	0.159	446.337	0	PA_with_intermediate	test	ward_and_allport	71	37.0	0.159	to_board	poldrack-single-stim	s558	False
1.0	446.347	2.0	446.346	0	PA_with_intermediate	test	ward_and_allport	-1	37.0	n/a	feedback	poldrack-single-stim	s558	False
3.342	448.357	3.342	451.699	1	PA_without_intermediate	test	ward_and_allport	71	38.0	3.342	to_hand	poldrack-single-stim	s558	False
0.1	451.7	0.214	451.914	0	PA_without_intermediate	test	ward_and_allport	89	38.0	0.214	to_board	poldrack-single-stim	s558	False
0.1	451.922	0.287	452.209	0	PA_without_intermediate	test	ward_and_allport	71	38.0	0.287	to_hand	poldrack-single-stim	s558	False
0.1	452.21	0.207	452.417	0	PA_without_intermediate	test	ward_and_allport	82	38.0	0.207	to_board	poldrack-single-stim	s558	False
0.1	452.427	0.437	452.864	0	PA_without_intermediate	test	ward_and_allport	71	38.0	0.437	to_hand	poldrack-single-stim	s558	False
0.1	452.866	0.168	453.034	0	PA_without_intermediate	test	ward_and_allport	89	38.0	0.168	to_board	poldrack-single-stim	s558	False
1.0	453.044	2.0	453.043	0	PA_without_intermediate	test	ward_and_allport	-1	38.0	n/a	feedback	poldrack-single-stim	s558	False
3.693	455.05	3.693	458.743	1	PA_without_intermediate	test	ward_and_allport	89	39.0	3.693	to_hand	poldrack-single-stim	s558	False
0.1	458.745	0.184	458.929	0	PA_without_intermediate	test	ward_and_allport	71	39.0	0.184	to_board	poldrack-single-stim	s558	False
0.1	458.935	0.599	459.534	0	PA_without_intermediate	test	ward_and_allport	89	39.0	0.599	to_hand	poldrack-single-stim	s558	False
0.1	459.535	0.174	459.709	0	PA_without_intermediate	test	ward_and_allport	71	39.0	0.174	to_board	poldrack-single-stim	s558	False
0.1	459.717	0.663	460.38	0	PA_without_intermediate	test	ward_and_allport	89	39.0	0.663	to_hand	poldrack-single-stim	s558	False
0.1	460.381	0.162	460.543	0	PA_without_intermediate	test	ward_and_allport	82	39.0	0.162	to_board	poldrack-single-stim	s558	False
1.0	460.554	2.0	460.553	0	PA_without_intermediate	test	ward_and_allport	-1	39.0	n/a	feedback	poldrack-single-stim	s558	False
3.726	462.564	3.726	466.29	1	PA_with_intermediate	test	ward_and_allport	89	40.0	3.726	to_hand	poldrack-single-stim	s558	False
0.1	466.291	0.191	466.482	0	PA_with_intermediate	test	ward_and_allport	82	40.0	0.191	to_board	poldrack-single-stim	s558	False
0.1	466.492	0.246	466.738	0	PA_with_intermediate	test	ward_and_allport	89	40.0	0.246	to_hand	poldrack-single-stim	s558	False
0.1	466.738	0.197	466.935	0	PA_with_intermediate	test	ward_and_allport	71	40.0	0.197	to_board	poldrack-single-stim	s558	False
0.1	466.944	1.463	468.407	0	PA_with_intermediate	test	ward_and_allport	82	40.0	1.463	to_hand	poldrack-single-stim	s558	False
0.1	468.408	0.133	468.541	0	PA_with_intermediate	test	ward_and_allport	89	40.0	0.133	to_board	poldrack-single-stim	s558	False
1.0	468.549	2.544	468.548	0	PA_with_intermediate	test	ward_and_allport	-1	40.0	n/a	feedback	poldrack-single-stim	s558	False
12.155	471.1	12.155	483.255	1	PA_without_intermediate	test	ward_and_allport	82	41.0	12.155	to_hand	poldrack-single-stim	s558	False
0.1	483.255	0.186	483.441	0	PA_without_intermediate	test	ward_and_allport	71	41.0	0.186	to_board	poldrack-single-stim	s558	False
0.1	483.448	0.536	483.984	0	PA_without_intermediate	test	ward_and_allport	82	41.0	0.536	to_hand	poldrack-single-stim	s558	False
0.1	483.984	0.191	484.175	0	PA_without_intermediate	test	ward_and_allport	89	41.0	0.191	to_board	poldrack-single-stim	s558	False
0.1	484.185	1.382	485.567	0	PA_without_intermediate	test	ward_and_allport	71	41.0	1.382	to_hand	poldrack-single-stim	s558	False
0.1	485.568	0.03	485.598	0	PA_without_intermediate	test	ward_and_allport	82	41.0	0.03	to_board	poldrack-single-stim	s558	False
0.1	485.607	2.543	488.15	0	PA_without_intermediate	test	ward_and_allport	82	41.0	2.543	to_hand	poldrack-single-stim	s558	False
0.1	488.151	0.157	488.308	0	PA_without_intermediate	test	ward_and_allport	71	41.0	0.157	to_board	poldrack-single-stim	s558	False
0.1	488.317	0.474	488.791	0	PA_without_intermediate	test	ward_and_allport	82	41.0	0.474	to_hand	poldrack-single-stim	s558	False
0.1	488.792	0.197	488.989	0	PA_without_intermediate	test	ward_and_allport	71	41.0	0.197	to_board	poldrack-single-stim	s558	False
1.0	488.999	2.272	488.998	0	PA_without_intermediate	test	ward_and_allport	-1	41.0	n/a	feedback	poldrack-single-stim	s558	False
4.15	491.278	4.15	495.428	1	PA_with_intermediate	test	ward_and_allport	82	42.0	4.15	to_hand	poldrack-single-stim	s558	False
0.1	495.429	0.26	495.689	0	PA_with_intermediate	test	ward_and_allport	71	42.0	0.26	to_board	poldrack-single-stim	s558	False
0.1	495.696	0.581	496.277	0	PA_with_intermediate	test	ward_and_allport	82	42.0	0.581	to_hand	poldrack-single-stim	s558	False
0.1	496.278	0.2	496.478	0	PA_with_intermediate	test	ward_and_allport	89	42.0	0.2	to_board	poldrack-single-stim	s558	False
0.1	496.487	0.561	497.048	0	PA_with_intermediate	test	ward_and_allport	71	42.0	0.561	to_hand	poldrack-single-stim	s558	False
0.1	497.049	0.17	497.219	0	PA_with_intermediate	test	ward_and_allport	89	42.0	0.17	to_board	poldrack-single-stim	s558	False
1.0	497.231	4.04	497.23	0	PA_with_intermediate	test	ward_and_allport	-1	42.0	n/a	feedback	poldrack-single-stim	s558	False
3.439	501.281	3.439	504.72	1	PA_with_intermediate	test	ward_and_allport	71	43.0	3.439	to_hand	poldrack-single-stim	s558	False
0.1	504.721	0.266	504.987	0	PA_with_intermediate	test	ward_and_allport	82	43.0	0.266	to_board	poldrack-single-stim	s558	False
0.1	504.994	0.822	505.816	0	PA_with_intermediate	test	ward_and_allport	71	43.0	0.822	to_hand	poldrack-single-stim	s558	False
0.1	505.817	0.227	506.044	0	PA_with_intermediate	test	ward_and_allport	89	43.0	0.227	to_board	poldrack-single-stim	s558	False
0.1	506.051	1.036	507.087	0	PA_with_intermediate	test	ward_and_allport	82	43.0	1.036	to_hand	poldrack-single-stim	s558	False
0.1	507.087	0.104	507.191	0	PA_with_intermediate	test	ward_and_allport	89	43.0	0.104	to_board	poldrack-single-stim	s558	False
1.0	507.202	2.272	507.201	0	PA_with_intermediate	test	ward_and_allport	-1	43.0	n/a	feedback	poldrack-single-stim	s558	False
6.409	509.484	6.409	515.893	1	PA_with_intermediate	test	ward_and_allport	82	44.0	6.409	to_hand	poldrack-single-stim	s558	False
0.1	515.894	0.176	516.07	0	PA_with_intermediate	test	ward_and_allport	89	44.0	0.176	to_board	poldrack-single-stim	s558	False
0.1	516.08	0.491	516.571	0	PA_with_intermediate	test	ward_and_allport	82	44.0	0.491	to_hand	poldrack-single-stim	s558	False
0.1	516.572	0.164	516.736	0	PA_with_intermediate	test	ward_and_allport	71	44.0	0.164	to_board	poldrack-single-stim	s558	False
0.1	516.747	0.38	517.127	0	PA_with_intermediate	test	ward_and_allport	89	44.0	0.38	to_hand	poldrack-single-stim	s558	False
0.1	517.127	0.227	517.354	0	PA_with_intermediate	test	ward_and_allport	82	44.0	0.227	to_board	poldrack-single-stim	s558	False
1.0	517.366	2.136	517.365	0	PA_with_intermediate	test	ward_and_allport	-1	44.0	n/a	feedback	poldrack-single-stim	s558	False
5.128	524.514	5.128	529.642	1	PA_with_intermediate	test	ward_and_allport	71	45.0	5.128	to_hand	poldrack-single-stim	s558	False
0.1	529.643	0.245	529.888	0	PA_with_intermediate	test	ward_and_allport	89	45.0	0.245	to_board	poldrack-single-stim	s558	False
0.1	529.898	0.389	530.287	0	PA_with_intermediate	test	ward_and_allport	71	45.0	0.389	to_hand	poldrack-single-stim	s558	False
0.1	530.288	0.281	530.569	0	PA_with_intermediate	test	ward_and_allport	82	45.0	0.281	to_board	poldrack-single-stim	s558	False
0.1	530.581	0.31	530.891	0	PA_with_intermediate	test	ward_and_allport	89	45.0	0.31	to_hand	poldrack-single-stim	s558	False
0.1	530.891	0.222	531.113	0	PA_with_intermediate	test	ward_and_allport	71	45.0	0.222	to_board	poldrack-single-stim	s558	False
1.0	531.126	2.0	531.125	0	PA_with_intermediate	test	ward_and_allport	-1	45.0	n/a	feedback	poldrack-single-stim	s558	False
4.303	533.137	4.303	537.44	1	PA_with_intermediate	test	ward_and_allport	71	46.0	4.303	to_hand	poldrack-single-stim	s558	False
0.1	537.441	0.24	537.681	0	PA_with_intermediate	test	ward_and_allport	89	46.0	0.24	to_board	poldrack-single-stim	s558	False
0.1	537.689	0.254	537.943	0	PA_with_intermediate	test	ward_and_allport	71	46.0	0.254	to_hand	poldrack-single-stim	s558	False
0.1	537.943	0.248	538.191	0	PA_with_intermediate	test	ward_and_allport	82	46.0	0.248	to_board	poldrack-single-stim	s558	False
0.1	538.199	0.272	538.471	0	PA_with_intermediate	test	ward_and_allport	89	46.0	0.272	to_hand	poldrack-single-stim	s558	False
0.1	538.471	0.228	538.699	0	PA_with_intermediate	test	ward_and_allport	82	46.0	0.228	to_board	poldrack-single-stim	s558	False
1.0	538.71	2.0	538.709	0	PA_with_intermediate	test	ward_and_allport	-1	46.0	n/a	feedback	poldrack-single-stim	s558	False
3.315	540.721	3.315	544.036	1	PA_without_intermediate	test	ward_and_allport	82	47.0	3.315	to_hand	poldrack-single-stim	s558	False
0.1	544.036	0.177	544.213	0	PA_without_intermediate	test	ward_and_allport	71	47.0	0.177	to_board	poldrack-single-stim	s558	False
0.1	544.224	0.373	544.597	0	PA_without_intermediate	test	ward_and_allport	82	47.0	0.373	to_hand	poldrack-single-stim	s558	False
0.1	544.598	0.197	544.795	0	PA_without_intermediate	test	ward_and_allport	71	47.0	0.197	to_board	poldrack-single-stim	s558	False
0.1	544.806	0.307	545.113	0	PA_without_intermediate	test	ward_and_allport	82	47.0	0.307	to_hand	poldrack-single-stim	s558	False
0.1	545.114	0.181	545.295	0	PA_without_intermediate	test	ward_and_allport	89	47.0	0.181	to_board	poldrack-single-stim	s558	False
1.0	545.308	2.408	545.307	0	PA_without_intermediate	test	ward_and_allport	-1	47.0	n/a	feedback	poldrack-single-stim	s558	False
