onset	duration	movement_onset	EV	action	block_duration	experiment_exp_id	gain_amount	gain_probability	key_press	loss_amount	loss_probability	num_cards	num_click_in_round	num_loss_cards	risk	response_time	total_cards	trial_id	trial_type	worker_id	junk	feedback
0.429	1.5	-0.322	n/a	-1.0	2.454	columbia_card_task_fmri	n/a	n/a	-1.0	n/a	n/a	n/a	n/a	n/a	n/a	n/a	n/a	ITI	poldrack-single-stim	s561	False	0
2.134	1.55	3.684	2.978228381096028	draw_card	1.55	columbia_card_task_fmri	15.0	0.8333333333333334	89.0	-70.0	0.1666666666666666	6.0	1.0	1.0	-0.3255287514298111	1.55	1.0	stim	poldrack-single-stim	s561	False	0
4.437	1.5	3.686	n/a	-1.0	2.522	columbia_card_task_fmri	n/a	n/a	-1.0	n/a	n/a	n/a	n/a	n/a	n/a	n/a	n/a	ITI	poldrack-single-stim	s561	False	0
6.211	1.567	7.778	3.811561714429362	draw_card	1.567	columbia_card_task_fmri	17.0	0.8333333333333334	89.0	-75.0	0.1666666666666666	6.0	1.0	1.0	2.277709655848476	1.567	n/a	stim	poldrack-single-stim	s561	False	1
7.779	1.123	8.902	0.7448950477626957	draw_card	1.123	columbia_card_task_fmri	17.0	0.8	89.0	-75.0	0.2	6.0	2.0	1.0	4.786763903679564	1.123	n/a	stim	poldrack-single-stim	s561	False	1
8.902	1.34	10.242	-3.8551049522373058	draw_card	1.34	columbia_card_task_fmri	17.0	0.75	89.0	-75.0	0.25	6.0	3.0	1.0	7.8191781197489405	1.34	3.0	stim	poldrack-single-stim	s561	False	0
10.997	1.5	10.246	n/a	-1.0	2.386	columbia_card_task_fmri	n/a	n/a	-1.0	n/a	n/a	n/a	n/a	n/a	n/a	n/a	n/a	ITI	poldrack-single-stim	s561	False	0
12.633	1.401	14.034	5.144895047762694	draw_card	1.401	columbia_card_task_fmri	24.0	0.75	89.0	-60.0	0.25	8.0	1.0	2.0	4.36056266921868	1.401	n/a	stim	poldrack-single-stim	s561	False	1
14.036	1.08	15.116	2.1448950477626942	draw_card	1.08	columbia_card_task_fmri	24.0	0.7142857142857143	89.0	-60.0	0.2857142857142857	8.0	2.0	2.0	5.932210569750772	1.08	n/a	stim	poldrack-single-stim	s561	False	1
15.117	1.342	16.459	-1.8551049522373055	draw_card	1.342	columbia_card_task_fmri	24.0	0.6666666666666667	89.0	-60.0	0.3333333333333333	8.0	3.0	2.0	7.580337319009693	1.342	3.0	stim	poldrack-single-stim	s561	False	0
17.214	1.5	16.463	n/a	-1.0	2.454	columbia_card_task_fmri	n/a	n/a	-1.0	n/a	n/a	n/a	n/a	n/a	n/a	n/a	n/a	ITI	poldrack-single-stim	s561	False	0
18.921	1.651	20.572	5.144895047762694	draw_card	1.651	columbia_card_task_fmri	29.0	0.75	89.0	-75.0	0.25	8.0	1.0	2.0	13.008680826981866	1.651	1.0	stim	poldrack-single-stim	s561	False	0
21.324	1.5	20.573	n/a	-1.0	2.522	columbia_card_task_fmri	n/a	n/a	-1.0	n/a	n/a	n/a	n/a	n/a	n/a	n/a	n/a	ITI	poldrack-single-stim	s561	False	0
23.097	0.968	24.065	0.9226728255404746	draw_card	0.968	columbia_card_task_fmri	17.0	0.7777777777777778	89.0	-65.0	0.2222222222222222	9.0	1.0	2.0	2.082374234085598	0.968	n/a	stim	poldrack-single-stim	s561	False	1
24.066	1.1	25.166	-1.3551049522373058	draw_card	1.1	columbia_card_task_fmri	17.0	0.75	89.0	-65.0	0.25	9.0	2.0	2.0	3.4960756315453168	1.1	n/a	stim	poldrack-single-stim	s561	False	1
25.167	1.116	26.283	-4.283676380808733	draw_card	1.116	columbia_card_task_fmri	17.0	0.7142857142857143	89.0	-65.0	0.2857142857142857	9.0	3.0	2.0	5.030177532209706	1.116	n/a	stim	poldrack-single-stim	s561	False	1
26.284	1.105	27.389	-8.188438285570637	draw_card	1.105	columbia_card_task_fmri	17.0	0.6666666666666667	89.0	-65.0	0.3333333333333333	9.0	4.0	2.0	6.638941945279058	1.105	n/a	stim	poldrack-single-stim	s561	False	1
27.39	1.365	28.755	-13.655104952237306	draw_card	1.365	columbia_card_task_fmri	17.0	0.6	89.0	-65.0	0.4	9.0	5.0	2.0	8.153161607837873	1.365	n/a	stim	poldrack-single-stim	s561	False	1
28.756	0.911	29.667	-21.855104952237305	end_round	0.911	columbia_card_task_fmri	17.0	0.5	71.0	-65.0	0.5	9.0	6.0	2.0	8.980375327582337	0.911	5.0	stim	poldrack-single-stim	s561	False	1
30.424	1.5	29.673	n/a	-1.0	2.522	columbia_card_task_fmri	n/a	n/a	-1.0	n/a	n/a	n/a	n/a	n/a	n/a	n/a	n/a	ITI	poldrack-single-stim	s561	False	0
32.198	1.08	33.278	5.244895047762694	draw_card	1.08	columbia_card_task_fmri	14.0	0.9	89.0	-95.0	0.1	10.0	1.0	1.0	0.694578769646057	1.08	n/a	stim	poldrack-single-stim	s561	False	1
33.279	1.067	34.346	4.033783936651582	draw_card	1.067	columbia_card_task_fmri	14.0	0.8888888888888888	89.0	-95.0	0.1111111111111111	10.0	2.0	1.0	2.2467896770352382	1.067	n/a	stim	poldrack-single-stim	s561	False	1
34.348	1.112	35.46	2.5198950477626942	draw_card	1.112	columbia_card_task_fmri	14.0	0.875	89.0	-95.0	0.125	10.0	3.0	1.0	4.036425476166428	1.112	n/a	stim	poldrack-single-stim	s561	False	1
35.462	0.97	36.432	0.5734664763341231	draw_card	0.97	columbia_card_task_fmri	14.0	0.8571428571428572	89.0	-95.0	0.1428571428571428	10.0	4.0	1.0	6.126624483516537	0.97	n/a	stim	poldrack-single-stim	s561	False	1
36.434	1.321	37.755	-2.02177161890397	draw_card	1.321	columbia_card_task_fmri	14.0	0.8333333333333334	89.0	-95.0	0.1666666666666666	10.0	5.0	1.0	8.60279804660162	1.321	n/a	stim	poldrack-single-stim	s561	False	1
37.757	1.378	39.135	-5.655104952237305	draw_card	1.378	columbia_card_task_fmri	14.0	0.8	89.0	-95.0	0.2	10.0	6.0	1.0	11.577036094318167	1.378	n/a	stim	poldrack-single-stim	s561	False	1
39.136	0.761	39.897	-11.105104952237305	end_round	0.761	columbia_card_task_fmri	14.0	0.75	71.0	-95.0	0.25	10.0	7.0	1.0	15.17140503171565	0.761	6.0	stim	poldrack-single-stim	s561	False	1
40.65	1.5	39.899	n/a	-1.0	2.59	columbia_card_task_fmri	n/a	n/a	-1.0	n/a	n/a	n/a	n/a	n/a	n/a	n/a	n/a	ITI	poldrack-single-stim	s561	False	0
42.492	1.424	43.916	1.1448950477626942	draw_card	1.424	columbia_card_task_fmri	15.0	0.8	89.0	-65.0	0.2	10.0	1.0	2.0	-0.0038874858960227	1.424	1.0	stim	poldrack-single-stim	s561	False	0
44.669	1.5	43.918	n/a	-1.0	2.454	columbia_card_task_fmri	n/a	n/a	-1.0	n/a	n/a	n/a	n/a	n/a	n/a	n/a	n/a	ITI	poldrack-single-stim	s561	False	0
46.374	1.435	47.809	2.744895047762696	draw_card	1.435	columbia_card_task_fmri	17.0	0.8	89.0	-65.0	0.2	10.0	1.0	2.0	0.794364990120819	1.435	n/a	stim	poldrack-single-stim	s561	False	1
47.811	1.162	48.973	0.9226728255404746	draw_card	1.162	columbia_card_task_fmri	17.0	0.7777777777777778	89.0	-65.0	0.2222222222222222	10.0	2.0	2.0	2.082374234085598	1.162	n/a	stim	poldrack-single-stim	s561	False	1
48.974	1.266	50.24	-1.3551049522373058	draw_card	1.266	columbia_card_task_fmri	17.0	0.75	89.0	-65.0	0.25	10.0	3.0	2.0	3.4960756315453168	1.266	n/a	stim	poldrack-single-stim	s561	False	1
50.242	1.604	51.846	-4.283676380808733	draw_card	1.604	columbia_card_task_fmri	17.0	0.7142857142857143	89.0	-65.0	0.2857142857142857	10.0	4.0	2.0	5.030177532209706	1.604	n/a	stim	poldrack-single-stim	s561	False	1
51.848	1.778	53.626	-8.188438285570637	draw_card	1.778	columbia_card_task_fmri	17.0	0.6666666666666667	89.0	-65.0	0.3333333333333333	10.0	5.0	2.0	6.638941945279058	1.778	5.0	stim	poldrack-single-stim	s561	False	0
54.378	1.5	53.627	n/a	-1.0	2.318	columbia_card_task_fmri	n/a	n/a	-1.0	n/a	n/a	n/a	n/a	n/a	n/a	n/a	n/a	ITI	poldrack-single-stim	s561	False	0
55.947	1.402	57.349	1.311561714429362	draw_card	1.402	columbia_card_task_fmri	13.0	0.8333333333333334	89.0	-70.0	0.1666666666666666	12.0	1.0	2.0	-1.069141111186184	1.402	n/a	stim	poldrack-single-stim	s561	False	1
57.351	1.233	58.584	0.0539859568536007	draw_card	1.233	columbia_card_task_fmri	13.0	0.8181818181818181	89.0	-70.0	0.1818181818181818	12.0	2.0	2.0	0.0087366558734842	1.233	n/a	stim	poldrack-single-stim	s561	False	1
58.586	1.431	60.017	-1.4551049522373054	draw_card	1.431	columbia_card_task_fmri	13.0	0.8	89.0	-70.0	0.2	12.0	3.0	2.0	1.1935227097779304	1.431	n/a	stim	poldrack-single-stim	s561	False	1
60.019	1.162	61.181	-3.2995493966817504	draw_card	1.162	columbia_card_task_fmri	13.0	0.7777777777777778	89.0	-70.0	0.2222222222222222	12.0	4.0	2.0	2.497303361649614	1.162	n/a	stim	poldrack-single-stim	s561	False	1
61.184	1.552	62.736	-5.605104952237306	draw_card	1.552	columbia_card_task_fmri	13.0	0.75	89.0	-70.0	0.25	12.0	5.0	2.0	3.928309907793349	1.552	5.0	stim	poldrack-single-stim	s561	False	0
63.492	1.5	62.741	n/a	-1.0	2.25	columbia_card_task_fmri	n/a	n/a	-1.0	n/a	n/a	n/a	n/a	n/a	n/a	n/a	n/a	ITI	poldrack-single-stim	s561	False	0
64.994	1.309	66.303	1.311561714429362	draw_card	1.309	columbia_card_task_fmri	15.0	0.8333333333333334	89.0	-80.0	0.1666666666666666	12.0	1.0	2.0	3.3936310049743312	1.309	n/a	stim	poldrack-single-stim	s561	False	1
66.304	1.473	67.777	-0.1278322249645809	draw_card	1.473	columbia_card_task_fmri	15.0	0.8181818181818181	89.0	-80.0	0.1818181818181818	12.0	2.0	2.0	4.628022231330881	1.473	2.0	stim	poldrack-single-stim	s561	False	0
68.535	1.5	67.784	n/a	-1.0	2.658	columbia_card_task_fmri	n/a	n/a	-1.0	n/a	n/a	n/a	n/a	n/a	n/a	n/a	n/a	ITI	poldrack-single-stim	s561	False	0
70.445	1.583	72.028	0.3448950477626953	draw_card	1.583	columbia_card_task_fmri	14.0	0.8	89.0	-65.0	0.2	15.0	1.0	3.0	-0.4029806553814623	1.583	1.0	stim	poldrack-single-stim	s561	False	0
72.781	1.5	72.03	n/a	-1.0	2.454	columbia_card_task_fmri	n/a	n/a	-1.0	n/a	n/a	n/a	n/a	n/a	n/a	n/a	n/a	ITI	poldrack-single-stim	s561	False	0
74.487	2.655	77.142	0.2698950477626942	draw_card	2.655	columbia_card_task_fmri	1.0	0.9375	89.0	-45.0	0.0625	16.0	1.0	1.0	-20.7361605050731	2.655	n/a	stim	poldrack-single-stim	s561	False	1
77.144	1.061	78.205	0.0782283810960278	draw_card	1.061	columbia_card_task_fmri	1.0	0.9333333333333332	89.0	-45.0	0.0666666666666666	16.0	2.0	1.0	-20.402525228505883	1.061	n/a	stim	poldrack-single-stim	s561	False	1
78.206	0.872	79.078	-0.1408192379515913	draw_card	0.872	columbia_card_task_fmri	1.0	0.9285714285714286	89.0	-45.0	0.0714285714285714	16.0	3.0	1.0	-20.036275908342382	0.872	n/a	stim	poldrack-single-stim	s561	False	1
79.08	0.666	79.746	-0.3935664906988441	draw_card	0.666	columbia_card_task_fmri	1.0	0.9230769230769232	89.0	-45.0	0.0769230769230769	16.0	4.0	1.0	-19.63185325764954	0.666	n/a	stim	poldrack-single-stim	s561	False	1
79.749	0.718	80.467	-0.6884382855706392	draw_card	0.718	columbia_card_task_fmri	1.0	0.9166666666666666	89.0	-45.0	0.0833333333333333	16.0	5.0	1.0	-19.182302538497154	0.718	n/a	stim	poldrack-single-stim	s561	False	1
80.468	0.525	80.993	-1.0369231340554874	draw_card	0.525	columbia_card_task_fmri	1.0	0.9090909090909092	89.0	-45.0	0.0909090909090909	16.0	6.0	1.0	-18.67880291804195	0.525	n/a	stim	poldrack-single-stim	s561	False	1
80.994	0.521	81.515	-1.4551049522373058	draw_card	0.521	columbia_card_task_fmri	1.0	0.9	89.0	-45.0	0.1	16.0	7.0	1.0	-18.10999813043686	0.521	n/a	stim	poldrack-single-stim	s561	False	1
81.517	0.466	81.983	-1.9662160633484165	draw_card	0.466	columbia_card_task_fmri	1.0	0.8888888888888888	89.0	-45.0	0.1111111111111111	16.0	8.0	1.0	-17.46103288675758	0.466	n/a	stim	poldrack-single-stim	s561	False	1
81.985	0.39	82.375	-2.6051049522373058	draw_card	0.39	columbia_card_task_fmri	1.0	0.875	89.0	-45.0	0.125	16.0	9.0	1.0	-16.712160234472684	0.39	n/a	stim	poldrack-single-stim	s561	False	1
82.376	0.484	82.86	-3.426533523665877	draw_card	0.484	columbia_card_task_fmri	1.0	0.8571428571428572	89.0	-45.0	0.1428571428571428	16.0	10.0	1.0	-15.8367680504888	0.484	n/a	stim	poldrack-single-stim	s561	False	1
82.861	0.443	83.304	-4.521771618903973	draw_card	0.443	columbia_card_task_fmri	1.0	0.8333333333333334	89.0	-45.0	0.1666666666666666	16.0	11.0	1.0	-14.798843289174387	0.443	n/a	stim	poldrack-single-stim	s561	False	1
83.306	0.351	83.657	-6.055104952237305	draw_card	0.351	columbia_card_task_fmri	1.0	0.8	89.0	-45.0	0.2	16.0	12.0	1.0	-13.551097126908347	0.351	n/a	stim	poldrack-single-stim	s561	False	1
83.66	0.319	83.979	-8.355104952237305	draw_card	0.319	columbia_card_task_fmri	1.0	0.75	89.0	-45.0	0.25	16.0	13.0	1.0	-12.04195499196262	0.319	n/a	stim	poldrack-single-stim	s561	False	1
83.981	0.346	84.327	-12.18843828557064	draw_card	0.346	columbia_card_task_fmri	1.0	0.6666666666666667	89.0	-45.0	0.3333333333333333	16.0	14.0	1.0	-10.285261885728278	0.346	n/a	stim	poldrack-single-stim	s561	False	1
84.329	0.314	84.643	-19.855104952237305	draw_card	0.314	columbia_card_task_fmri	1.0	0.5	89.0	-45.0	0.5	16.0	15.0	1.0	-8.975894918605857	0.314	n/a	stim	poldrack-single-stim	s561	False	1
84.645	0.326	84.971	-42.855104952237305	draw_card	0.326	columbia_card_task_fmri	1.0	0.0	89.0	-45.0	1.0	16.0	16.0	1.0	-29.930795860546556	0.326	16.0	stim	poldrack-single-stim	s561	False	0
85.724	1.5	84.973	n/a	-1.0	2.386	columbia_card_task_fmri	n/a	n/a	-1.0	n/a	n/a	n/a	n/a	n/a	n/a	n/a	n/a	ITI	poldrack-single-stim	s561	False	0
87.362	3.457	90.819	1.2073950477626942	draw_card	3.457	columbia_card_task_fmri	15.0	0.8125	89.0	-70.0	0.1875	16.0	1.0	3.0	1.1701233923800416	3.457	n/a	stim	poldrack-single-stim	s561	False	1
90.822	1.228	92.05	0.1448950477626942	draw_card	1.228	columbia_card_task_fmri	15.0	0.8	89.0	-70.0	0.2	16.0	2.0	3.0	1.991897423797809	1.228	2.0	stim	poldrack-single-stim	s561	False	0
92.806	1.5	92.055	n/a	-1.0	2.59	columbia_card_task_fmri	n/a	n/a	-1.0	n/a	n/a	n/a	n/a	n/a	n/a	n/a	n/a	ITI	poldrack-single-stim	s561	False	0
94.648	1.656	96.304	8.144895047762695	draw_card	1.656	columbia_card_task_fmri	30.0	0.7	89.0	-50.0	0.3	10.0	1.0	3.0	4.647606530318413	1.656	n/a	stim	poldrack-single-stim	s561	False	1
96.305	2.278	98.583	5.4782283810960335	draw_card	2.278	columbia_card_task_fmri	30.0	0.6666666666666667	89.0	-50.0	0.3333333333333333	10.0	2.0	3.0	5.697617088054258	2.278	2.0	stim	poldrack-single-stim	s561	False	0
99.338	1.5	98.587	n/a	-1.0	2.318	columbia_card_task_fmri	n/a	n/a	-1.0	n/a	n/a	n/a	n/a	n/a	n/a	n/a	n/a	ITI	poldrack-single-stim	s561	False	0
100.909	1.551	102.46	7.544895047762695	draw_card	1.551	columbia_card_task_fmri	17.0	0.8666666666666667	89.0	-70.0	0.1333333333333333	15.0	1.0	2.0	-2.423699832398057	1.551	n/a	stim	poldrack-single-stim	s561	False	1
102.462	1.478	103.94	6.716323619191267	draw_card	1.478	columbia_card_task_fmri	17.0	0.8571428571428572	89.0	-70.0	0.1428571428571428	15.0	2.0	2.0	-1.5565673740966517	1.478	n/a	stim	poldrack-single-stim	s561	False	1
103.941	1.174	105.115	5.760279663147309	draw_card	1.174	columbia_card_task_fmri	17.0	0.8461538461538461	89.0	-70.0	0.1538461538461538	15.0	3.0	2.0	-0.6127891948090642	1.174	n/a	stim	poldrack-single-stim	s561	False	1
105.118	1.532	106.65	4.644895047762696	draw_card	1.532	columbia_card_task_fmri	17.0	0.8333333333333334	89.0	-70.0	0.1666666666666666	15.0	4.0	2.0	0.4181635070400844	1.532	n/a	stim	poldrack-single-stim	s561	False	1
106.652	1.491	108.143	3.326713229580874	draw_card	1.491	columbia_card_task_fmri	17.0	0.8181818181818181	89.0	-70.0	0.1818181818181818	15.0	5.0	2.0	1.548221965041428	1.491	n/a	stim	poldrack-single-stim	s561	False	1
108.146	1.485	109.631	1.7448950477626957	draw_card	1.485	columbia_card_task_fmri	17.0	0.8	89.0	-70.0	0.2	15.0	6.0	2.0	2.7903466463931323	1.485	n/a	stim	poldrack-single-stim	s561	False	1
109.633	2.037	111.67	-0.1884382855706379	draw_card	2.037	columbia_card_task_fmri	17.0	0.7777777777777778	89.0	-70.0	0.2222222222222222	15.0	7.0	2.0	4.157205704963872	2.037	7.0	stim	poldrack-single-stim	s561	False	0
112.423	1.5	111.672	n/a	-1.0	2.59	columbia_card_task_fmri	n/a	n/a	-1.0	n/a	n/a	n/a	n/a	n/a	n/a	n/a	n/a	ITI	poldrack-single-stim	s561	False	0
114.265	1.668	115.933	2.7698950477626942	draw_card	1.668	columbia_card_task_fmri	7.0	0.9375	89.0	-95.0	0.0625	16.0	1.0	1.0	-7.292431442171289	1.668	n/a	stim	poldrack-single-stim	s561	False	1
115.935	1.558	117.493	2.3448950477626944	draw_card	1.558	columbia_card_task_fmri	7.0	0.9333333333333332	89.0	-95.0	0.0666666666666666	16.0	2.0	1.0	-6.542172256037354	1.558	n/a	stim	poldrack-single-stim	s561	False	1
117.495	1.592	119.087	1.8591807620484089	draw_card	1.592	columbia_card_task_fmri	7.0	0.9285714285714286	89.0	-95.0	0.0714285714285714	16.0	3.0	1.0	-5.719253378633262	1.592	3.0	stim	poldrack-single-stim	s561	False	0
119.843	1.5	119.092	n/a	-1.0	2.386	columbia_card_task_fmri	n/a	n/a	-1.0	n/a	n/a	n/a	n/a	n/a	n/a	n/a	n/a	ITI	poldrack-single-stim	s561	False	0
121.48	1.827	123.307	4.332395047762694	draw_card	1.827	columbia_card_task_fmri	9.0	0.9375	89.0	-100.0	0.0625	16.0	1.0	1.0	-5.6039527992255	1.827	n/a	stim	poldrack-single-stim	s561	False	1
123.309	1.27	124.579	3.878228381096028	draw_card	1.27	columbia_card_task_fmri	9.0	0.9333333333333332	89.0	-100.0	0.0666666666666666	16.0	2.0	1.0	-4.80184268353284	1.27	n/a	stim	poldrack-single-stim	s561	False	1
124.581	1.418	125.999	3.359180762048409	draw_card	1.418	columbia_card_task_fmri	9.0	0.9285714285714286	89.0	-100.0	0.0714285714285714	16.0	3.0	1.0	-3.9220750664675705	1.418	n/a	stim	poldrack-single-stim	s561	False	1
126.002	1.317	127.319	2.76027966314731	draw_card	1.317	columbia_card_task_fmri	9.0	0.9230769230769232	89.0	-100.0	0.0769230769230769	16.0	4.0	1.0	-2.9514419644984398	1.317	n/a	stim	poldrack-single-stim	s561	False	1
127.322	1.399	128.721	2.061561714429362	draw_card	1.399	columbia_card_task_fmri	9.0	0.9166666666666666	89.0	-100.0	0.0833333333333333	16.0	5.0	1.0	-1.8734233832573288	1.399	n/a	stim	poldrack-single-stim	s561	False	1
128.723	1.264	129.987	1.2358041386717842	draw_card	1.264	columbia_card_task_fmri	9.0	0.9090909090909092	89.0	-100.0	0.0909090909090909	16.0	6.0	1.0	-0.6670710530498027	1.264	n/a	stim	poldrack-single-stim	s561	False	1
129.989	1.429	131.418	0.2448950477626938	draw_card	1.429	columbia_card_task_fmri	9.0	0.9	89.0	-100.0	0.1	16.0	7.0	1.0	0.694578769646057	1.429	n/a	stim	poldrack-single-stim	s561	False	1
131.42	1.521	132.941	-0.9662160633484164	draw_card	1.521	columbia_card_task_fmri	9.0	0.8888888888888888	89.0	-100.0	0.1111111111111111	16.0	8.0	1.0	2.2467896770352382	1.521	n/a	stim	poldrack-single-stim	s561	False	1
132.944	1.705	134.649	-2.4801049522373058	draw_card	1.705	columbia_card_task_fmri	9.0	0.875	89.0	-100.0	0.125	16.0	9.0	1.0	4.036425476166428	1.705	9.0	stim	poldrack-single-stim	s561	False	0
135.405	1.5	134.654	n/a	-1.0	2.318	columbia_card_task_fmri	n/a	n/a	-1.0	n/a	n/a	n/a	n/a	n/a	n/a	n/a	n/a	ITI	poldrack-single-stim	s561	False	0
136.976	1.931	138.907	5.269895047762694	draw_card	1.931	columbia_card_task_fmri	15.0	0.875	89.0	-80.0	0.125	16.0	1.0	2.0	-0.5842643009623387	1.931	n/a	stim	poldrack-single-stim	s561	False	1
138.91	1.368	140.278	4.478228381096028	draw_card	1.368	columbia_card_task_fmri	15.0	0.8666666666666667	89.0	-80.0	0.1333333333333333	16.0	2.0	2.0	0.2892509834168351	1.368	n/a	stim	poldrack-single-stim	s561	False	1
140.28	1.205	141.485	3.573466476334125	draw_card	1.205	columbia_card_task_fmri	15.0	0.8571428571428572	89.0	-80.0	0.1428571428571428	16.0	3.0	2.0	1.2365082923175876	1.205	n/a	stim	poldrack-single-stim	s561	False	1
141.488	1.33	142.818	2.529510432378077	draw_card	1.33	columbia_card_task_fmri	15.0	0.8461538461538461	89.0	-80.0	0.1538461538461538	16.0	4.0	2.0	2.267469193402917	1.33	n/a	stim	poldrack-single-stim	s561	False	1
142.821	1.232	144.053	1.311561714429362	draw_card	1.232	columbia_card_task_fmri	15.0	0.8333333333333334	89.0	-80.0	0.1666666666666666	16.0	5.0	2.0	3.3936310049743312	1.232	5.0	stim	poldrack-single-stim	s561	False	0
144.808	1.5	144.057	n/a	-1.0	2.318	columbia_card_task_fmri	n/a	n/a	-1.0	n/a	n/a	n/a	n/a	n/a	n/a	n/a	n/a	ITI	poldrack-single-stim	s561	False	0
146.377	1.105	147.482	7.394895047762694	draw_card	1.105	columbia_card_task_fmri	16.0	0.875	89.0	-70.0	0.125	16.0	1.0	2.0	-3.5531020572614374	1.105	n/a	stim	poldrack-single-stim	s561	False	1
147.484	1.17	148.654	6.678228381096028	draw_card	1.17	columbia_card_task_fmri	16.0	0.8666666666666667	89.0	-70.0	0.1333333333333333	16.0	2.0	2.0	-2.762733642710714	1.17	n/a	stim	poldrack-single-stim	s561	False	1
148.657	1.22	149.877	5.8591807620484095	draw_card	1.22	columbia_card_task_fmri	16.0	0.8571428571428572	89.0	-70.0	0.1428571428571428	16.0	3.0	2.0	-1.9056191843782384	1.22	n/a	stim	poldrack-single-stim	s561	False	1
149.879	1.305	151.184	4.914125816993463	draw_card	1.305	columbia_card_task_fmri	16.0	0.8461538461538461	89.0	-70.0	0.1538461538461538	16.0	4.0	2.0	-0.9727413026174894	1.305	n/a	stim	poldrack-single-stim	s561	False	1
151.187	1.201	152.388	3.811561714429362	draw_card	1.201	columbia_card_task_fmri	16.0	0.8333333333333334	89.0	-70.0	0.1666666666666666	16.0	5.0	2.0	0.0463077372940361	1.201	n/a	stim	poldrack-single-stim	s561	False	1
152.391	1.287	153.678	2.508531411399056	end_round	1.287	columbia_card_task_fmri	16.0	0.8181818181818181	71.0	-70.0	0.1818181818181818	16.0	6.0	2.0	1.1633220091134788	1.287	5.0	stim	poldrack-single-stim	s561	False	1
154.432	1.5	153.681	n/a	-1.0	2.318	columbia_card_task_fmri	n/a	n/a	-1.0	n/a	n/a	n/a	n/a	n/a	n/a	n/a	n/a	ITI	poldrack-single-stim	s561	False	0
156.003	1.169	157.172	8.707395047762695	draw_card	1.169	columbia_card_task_fmri	30.0	0.6875	89.0	-45.0	0.3125	16.0	1.0	5.0	2.753846391458559	1.169	n/a	stim	poldrack-single-stim	s561	False	1
157.175	1.682	158.857	7.144895047762698	draw_card	1.682	columbia_card_task_fmri	30.0	0.6666666666666667	89.0	-45.0	0.3333333333333333	16.0	2.0	5.0	3.3446503487412897	1.682	n/a	stim	poldrack-single-stim	s561	False	1
158.867	2.641	161.508	5.359180762048406	end_round	2.641	columbia_card_task_fmri	30.0	0.6428571428571428	71.0	-45.0	0.3571428571428571	16.0	3.0	5.0	3.925068200334138	2.641	2.0	stim	poldrack-single-stim	s561	False	1
162.262	1.5	161.511	n/a	-1.0	2.386	columbia_card_task_fmri	n/a	n/a	-1.0	n/a	n/a	n/a	n/a	n/a	n/a	n/a	n/a	ITI	poldrack-single-stim	s561	False	0
163.9	1.919	165.819	0.4782283810960281	draw_card	1.919	columbia_card_task_fmri	13.0	0.8333333333333334	89.0	-75.0	0.1666666666666666	6.0	1.0	1.0	0.7900379033491447	1.919	1.0	stim	poldrack-single-stim	s561	False	0
166.572	1.5	165.821	n/a	-1.0	2.25	columbia_card_task_fmri	n/a	n/a	-1.0	n/a	n/a	n/a	n/a	n/a	n/a	n/a	n/a	ITI	poldrack-single-stim	s561	False	0
168.076	1.376	169.452	2.144895047762696	draw_card	1.376	columbia_card_task_fmri	14.0	0.8333333333333334	89.0	-70.0	0.1666666666666666	6.0	1.0	1.0	-0.6973452736854071	1.376	n/a	stim	poldrack-single-stim	s561	False	1
169.454	1.273	170.727	-0.6551049522373047	draw_card	1.273	columbia_card_task_fmri	14.0	0.8	89.0	-70.0	0.2	6.0	2.0	1.0	1.5927004219268426	1.273	n/a	stim	poldrack-single-stim	s561	False	1
170.73	1.341	172.071	-4.855104952237306	draw_card	1.341	columbia_card_task_fmri	14.0	0.75	89.0	-70.0	0.25	6.0	3.0	1.0	4.36056266921868	1.341	n/a	stim	poldrack-single-stim	s561	False	1
172.073	2.169	174.242	-11.855104952237305	end_round	2.169	columbia_card_task_fmri	14.0	0.6666666666666667	71.0	-70.0	0.3333333333333333	6.0	4.0	1.0	7.580337319009693	2.169	3.0	stim	poldrack-single-stim	s561	False	1
174.996	1.5	174.245	n/a	-1.0	2.386	columbia_card_task_fmri	n/a	n/a	-1.0	n/a	n/a	n/a	n/a	n/a	n/a	n/a	n/a	ITI	poldrack-single-stim	s561	False	0
176.634	1.402	178.036	2.144895047762696	draw_card	1.402	columbia_card_task_fmri	16.0	0.8333333333333334	89.0	-80.0	0.1666666666666666	6.0	1.0	1.0	3.7656340499831984	1.402	n/a	stim	poldrack-single-stim	s561	False	1
178.039	1.364	179.403	-1.055104952237305	draw_card	1.364	columbia_card_task_fmri	16.0	0.8	89.0	-80.0	0.2	6.0	2.0	1.0	6.384165757647232	1.364	n/a	stim	poldrack-single-stim	s561	False	1
179.406	1.361	180.767	-5.855104952237306	draw_card	1.361	columbia_card_task_fmri	16.0	0.75	89.0	-80.0	0.25	6.0	3.0	1.0	9.548828005017748	1.361	n/a	stim	poldrack-single-stim	s561	False	1
180.77	1.139	181.909	-13.8551049522373	end_round	1.139	columbia_card_task_fmri	16.0	0.6666666666666667	71.0	-80.0	0.3333333333333333	6.0	4.0	1.0	13.229944224264685	1.139	3.0	stim	poldrack-single-stim	s561	False	1
182.665	1.5	181.914	n/a	-1.0	2.59	columbia_card_task_fmri	n/a	n/a	-1.0	n/a	n/a	n/a	n/a	n/a	n/a	n/a	n/a	ITI	poldrack-single-stim	s561	False	0
184.508	1.438	185.946	4.644895047762696	draw_card	1.438	columbia_card_task_fmri	17.0	0.8333333333333334	89.0	-70.0	0.1666666666666666	6.0	1.0	1.0	0.4181635070400844	1.438	n/a	stim	poldrack-single-stim	s561	False	1
185.949	1.277	187.226	1.7448950477626957	draw_card	1.277	columbia_card_task_fmri	17.0	0.8	89.0	-70.0	0.2	6.0	2.0	1.0	2.7903466463931323	1.277	n/a	stim	poldrack-single-stim	s561	False	1
187.228	1.928	189.156	-2.6051049522373058	draw_card	1.928	columbia_card_task_fmri	17.0	0.75	89.0	-70.0	0.25	6.0	3.0	1.0	5.657425511699273	1.928	n/a	stim	poldrack-single-stim	s561	False	1
189.159	1.272	190.431	-9.855104952237305	end_round	1.272	columbia_card_task_fmri	17.0	0.6666666666666667	71.0	-70.0	0.3333333333333333	6.0	4.0	1.0	8.992551990138658	1.272	3.0	stim	poldrack-single-stim	s561	False	1
191.187	1.5	190.436	n/a	-1.0	2.658	columbia_card_task_fmri	n/a	n/a	-1.0	n/a	n/a	n/a	n/a	n/a	n/a	n/a	n/a	ITI	poldrack-single-stim	s561	False	0
193.099	1.429	194.528	4.644895047762694	draw_card	1.429	columbia_card_task_fmri	25.0	0.75	89.0	-65.0	0.25	8.0	1.0	2.0	6.954433031615878	1.429	n/a	stim	poldrack-single-stim	s561	False	1
194.53	1.512	196.042	1.4306093334769825	draw_card	1.512	columbia_card_task_fmri	25.0	0.7142857142857143	89.0	-65.0	0.2857142857142857	8.0	2.0	2.0	8.638702114990416	1.512	n/a	stim	poldrack-single-stim	s561	False	1
196.045	3.965	200.01	-2.855104952237302	end_round	3.965	columbia_card_task_fmri	25.0	0.6666666666666667	71.0	-65.0	0.3333333333333333	8.0	3.0	2.0	10.40489965686436	3.965	2.0	stim	poldrack-single-stim	s561	False	1
200.767	1.5	200.016	n/a	-1.0	2.386	columbia_card_task_fmri	n/a	n/a	-1.0	n/a	n/a	n/a	n/a	n/a	n/a	n/a	n/a	ITI	poldrack-single-stim	s561	False	0
202.407	2.603	205.01	4.644895047762694	draw_card	2.603	columbia_card_task_fmri	30.0	0.75	89.0	-80.0	0.25	8.0	1.0	2.0	15.60397535274921	2.603	n/a	stim	poldrack-single-stim	s561	False	1
205.013	1.553	206.566	0.7163236191912707	draw_card	1.553	columbia_card_task_fmri	30.0	0.7142857142857143	89.0	-80.0	0.2857142857142857	8.0	2.0	2.0	17.663512240393864	1.553	n/a	stim	poldrack-single-stim	s561	False	1
206.569	1.726	208.295	-4.521771618903967	draw_card	1.726	columbia_card_task_fmri	30.0	0.6666666666666667	89.0	-80.0	0.3333333333333333	8.0	3.0	2.0	19.8231478422332	1.726	n/a	stim	poldrack-single-stim	s561	False	1
208.298	1.185	209.483	-11.855104952237305	end_round	1.185	columbia_card_task_fmri	30.0	0.6	71.0	-80.0	0.4	8.0	4.0	2.0	21.855752376345364	1.185	3.0	stim	poldrack-single-stim	s561	False	1
210.24	1.5	209.489	n/a	-1.0	2.386	columbia_card_task_fmri	n/a	n/a	-1.0	n/a	n/a	n/a	n/a	n/a	n/a	n/a	n/a	ITI	poldrack-single-stim	s561	False	0
211.879	1.79	213.669	4.344895047762695	draw_card	1.79	columbia_card_task_fmri	13.0	0.9	89.0	-95.0	0.1	10.0	1.0	1.0	0.3952280002451687	1.79	n/a	stim	poldrack-single-stim	s561	False	1
213.673	1.508	215.181	3.1448950477626942	draw_card	1.508	columbia_card_task_fmri	13.0	0.8888888888888888	89.0	-95.0	0.1111111111111111	10.0	2.0	1.0	1.933139926724131	1.508	n/a	stim	poldrack-single-stim	s561	False	1
215.183	2.04	217.223	1.6448950477626942	draw_card	2.04	columbia_card_task_fmri	13.0	0.875	89.0	-95.0	0.125	10.0	3.0	1.0	3.706295827559913	2.04	n/a	stim	poldrack-single-stim	s561	False	1
217.227	1.477	218.704	-0.2836763808087328	draw_card	1.477	columbia_card_task_fmri	13.0	0.8571428571428572	89.0	-95.0	0.1428571428571428	10.0	4.0	1.0	5.777254455626448	1.477	n/a	stim	poldrack-single-stim	s561	False	1
218.706	1.535	220.241	-2.855104952237304	draw_card	1.535	columbia_card_task_fmri	13.0	0.8333333333333334	89.0	-95.0	0.1666666666666666	10.0	5.0	1.0	8.230643268416834	1.535	n/a	stim	poldrack-single-stim	s561	False	1
220.245	1.537	221.782	-6.455104952237305	draw_card	1.537	columbia_card_task_fmri	13.0	0.8	89.0	-95.0	0.2	10.0	6.0	1.0	11.177523709403468	1.537	6.0	stim	poldrack-single-stim	s561	False	0
222.537	1.5	221.786	n/a	-1.0	2.25	columbia_card_task_fmri	n/a	n/a	-1.0	n/a	n/a	n/a	n/a	n/a	n/a	n/a	n/a	ITI	poldrack-single-stim	s561	False	0
224.039	1.5	225.539	5.744895047762694	draw_card	1.5	columbia_card_task_fmri	14.0	0.9	89.0	-90.0	0.1	10.0	1.0	1.0	-0.8020506538406771	1.5	n/a	stim	poldrack-single-stim	s561	False	1
225.541	1.273	226.814	4.589339492207137	draw_card	1.273	columbia_card_task_fmri	14.0	0.8888888888888888	89.0	-90.0	0.1111111111111111	10.0	2.0	1.0	0.6786597698245416	1.273	n/a	stim	poldrack-single-stim	s561	False	1
226.817	1.344	228.161	3.1448950477626942	draw_card	1.344	columbia_card_task_fmri	14.0	0.875	89.0	-90.0	0.125	10.0	3.0	1.0	2.385890233099758	1.344	n/a	stim	poldrack-single-stim	s561	False	1
228.165	1.162	229.327	1.2877521906198384	draw_card	1.162	columbia_card_task_fmri	14.0	0.8571428571428572	89.0	-90.0	0.1428571428571428	10.0	4.0	1.0	4.379881203937508	1.162	4.0	stim	poldrack-single-stim	s561	False	0
230.082	1.5	229.331	n/a	-1.0	2.318	columbia_card_task_fmri	n/a	n/a	-1.0	n/a	n/a	n/a	n/a	n/a	n/a	n/a	n/a	ITI	poldrack-single-stim	s561	False	0
231.653	0.539	232.192	0.944895047762695	draw_card	0.539	columbia_card_task_fmri	16.0	0.8	89.0	-70.0	0.2	10.0	1.0	2.0	2.3911130451459783	0.539	n/a	stim	poldrack-single-stim	s561	False	1
232.194	1.304	233.498	-0.9662160633484164	draw_card	1.304	columbia_card_task_fmri	16.0	0.7777777777777778	89.0	-70.0	0.2222222222222222	10.0	2.0	2.0	3.7422035359519583	1.304	2.0	stim	poldrack-single-stim	s561	False	0
234.254	1.5	233.503	n/a	-1.0	2.25	columbia_card_task_fmri	n/a	n/a	-1.0	n/a	n/a	n/a	n/a	n/a	n/a	n/a	n/a	ITI	poldrack-single-stim	s561	False	0
235.758	2.553	238.311	0.2282283810960281	draw_card	2.553	columbia_card_task_fmri	7.0	0.9166666666666666	89.0	-100.0	0.0833333333333333	12.0	1.0	1.0	-2.424772479788256	2.553	n/a	stim	poldrack-single-stim	s561	False	1
238.314	1.537	239.851	-0.5823776795100342	draw_card	1.537	columbia_card_task_fmri	7.0	0.9090909090909092	89.0	-100.0	0.0909090909090909	12.0	2.0	1.0	-1.240663392943624	1.537	n/a	stim	poldrack-single-stim	s561	False	1
239.853	1.23	241.083	-1.555104952237306	draw_card	1.23	columbia_card_task_fmri	7.0	0.9	89.0	-100.0	0.1	12.0	3.0	1.0	0.0958893258961737	1.23	n/a	stim	poldrack-single-stim	s561	False	1
241.087	1.42	242.507	-2.743993841126195	draw_card	1.42	columbia_card_task_fmri	7.0	0.8888888888888888	89.0	-100.0	0.1111111111111111	12.0	4.0	1.0	1.619501728989654	1.42	n/a	stim	poldrack-single-stim	s561	False	1
242.509	1.273	243.782	-4.230104952237306	draw_card	1.273	columbia_card_task_fmri	7.0	0.875	89.0	-100.0	0.125	12.0	5.0	1.0	3.3761771632877213	1.273	n/a	stim	poldrack-single-stim	s561	False	1
243.786	1.787	245.573	-6.140819237951591	draw_card	1.787	columbia_card_task_fmri	7.0	0.8571428571428572	89.0	-100.0	0.1428571428571428	12.0	6.0	1.0	5.427894815096664	1.787	n/a	stim	poldrack-single-stim	s561	False	1
245.575	2.034	247.609	-8.688438285570637	draw_card	2.034	columbia_card_task_fmri	7.0	0.8333333333333334	89.0	-100.0	0.1666666666666666	12.0	7.0	1.0	7.858498249038192	2.034	n/a	stim	poldrack-single-stim	s561	False	1
247.613	0.891	248.504	-12.255104952237303	end_round	0.891	columbia_card_task_fmri	7.0	0.8	71.0	-100.0	0.2	12.0	8.0	1.0	10.778020421818468	0.891	7.0	stim	poldrack-single-stim	s561	False	1
249.26	1.5	248.509	n/a	-1.0	2.25	columbia_card_task_fmri	n/a	n/a	-1.0	n/a	n/a	n/a	n/a	n/a	n/a	n/a	n/a	ITI	poldrack-single-stim	s561	False	0
250.763	1.438	252.201	0.4782283810960299	draw_card	1.438	columbia_card_task_fmri	14.0	0.8333333333333334	89.0	-80.0	0.1666666666666666	12.0	1.0	2.0	3.0216422808112497	1.438	n/a	stim	poldrack-single-stim	s561	False	1
252.205	1.407	253.612	-0.9460140431463993	draw_card	1.407	columbia_card_task_fmri	14.0	0.8181818181818181	89.0	-80.0	0.1818181818181818	12.0	2.0	2.0	4.242993756166861	1.407	n/a	stim	poldrack-single-stim	s561	False	1
253.615	1.515	255.13	-2.6551049522373047	draw_card	1.515	columbia_card_task_fmri	14.0	0.8	89.0	-80.0	0.2	12.0	3.0	2.0	5.585437258089549	1.515	n/a	stim	poldrack-single-stim	s561	False	1
255.133	1.57	256.703	-4.743993841126195	draw_card	1.57	columbia_card_task_fmri	14.0	0.7777777777777778	89.0	-80.0	0.2222222222222222	12.0	4.0	2.0	7.062659226936958	1.57	n/a	stim	poldrack-single-stim	s561	False	1
256.707	1.499	258.206	-7.355104952237306	draw_card	1.499	columbia_card_task_fmri	14.0	0.75	89.0	-80.0	0.25	12.0	5.0	2.0	8.683977573732122	1.499	n/a	stim	poldrack-single-stim	s561	False	1
258.21	1.768	259.978	-10.71224780938016	draw_card	1.768	columbia_card_task_fmri	14.0	0.7142857142857143	89.0	-80.0	0.2857142857142857	12.0	6.0	2.0	10.443315205290888	1.768	n/a	stim	poldrack-single-stim	s561	False	1
259.981	1.091	261.072	-15.188438285570632	end_round	1.091	columbia_card_task_fmri	14.0	0.6666666666666667	71.0	-80.0	0.3333333333333333	12.0	7.0	2.0	12.288214807052109	1.091	6.0	stim	poldrack-single-stim	s561	False	1
261.826	1.5	261.075	n/a	-1.0	2.386	columbia_card_task_fmri	n/a	n/a	-1.0	n/a	n/a	n/a	n/a	n/a	n/a	n/a	n/a	ITI	poldrack-single-stim	s561	False	0
263.466	0.9	264.366	2.1448950477626942	draw_card	0.9	columbia_card_task_fmri	15.0	0.8333333333333334	89.0	-75.0	0.1666666666666666	12.0	1.0	2.0	1.5338401024906003	0.9	n/a	stim	poldrack-single-stim	s561	False	1
264.369	1.375	265.744	0.7812586841263292	draw_card	1.375	columbia_card_task_fmri	15.0	0.8181818181818181	89.0	-75.0	0.1818181818181818	12.0	2.0	2.0	2.703027475953668	1.375	n/a	stim	poldrack-single-stim	s561	False	1
265.747	1.553	267.3	-0.8551049522373058	draw_card	1.553	columbia_card_task_fmri	15.0	0.8	89.0	-75.0	0.2	12.0	3.0	2.0	3.988149358167042	1.553	n/a	stim	poldrack-single-stim	s561	False	1
267.303	1.509	268.812	-2.855104952237304	draw_card	1.509	columbia_card_task_fmri	15.0	0.7777777777777778	89.0	-75.0	0.2222222222222222	12.0	4.0	2.0	5.402310302613365	1.509	n/a	stim	poldrack-single-stim	s561	False	1
268.816	1.675	270.491	-5.355104952237306	draw_card	1.675	columbia_card_task_fmri	15.0	0.75	89.0	-75.0	0.25	12.0	5.0	2.0	6.954433031615878	1.675	n/a	stim	poldrack-single-stim	s561	False	1
270.494	1.545	272.039	-8.569390666523017	draw_card	1.545	columbia_card_task_fmri	15.0	0.7142857142857143	89.0	-75.0	0.2857142857142857	12.0	6.0	2.0	8.638702114990416	1.545	n/a	stim	poldrack-single-stim	s561	False	1
272.043	0.99	273.033	-12.855104952237305	end_round	0.99	columbia_card_task_fmri	15.0	0.6666666666666667	71.0	-75.0	0.3333333333333333	12.0	7.0	2.0	10.40489965686436	0.99	6.0	stim	poldrack-single-stim	s561	False	1
273.788	1.5	273.037	n/a	-1.0	2.386	columbia_card_task_fmri	n/a	n/a	-1.0	n/a	n/a	n/a	n/a	n/a	n/a	n/a	n/a	ITI	poldrack-single-stim	s561	False	0
275.427	1.064	276.491	1.1448950477626942	draw_card	1.064	columbia_card_task_fmri	15.0	0.8	89.0	-65.0	0.2	15.0	1.0	3.0	-0.0038874858960227	1.064	1.0	stim	poldrack-single-stim	s561	False	0
277.246	1.5	276.495	n/a	-1.0	2.726	columbia_card_task_fmri	n/a	n/a	-1.0	n/a	n/a	n/a	n/a	n/a	n/a	n/a	n/a	ITI	poldrack-single-stim	s561	False	0
279.226	1.21	280.436	0.3948950477626942	draw_card	1.21	columbia_card_task_fmri	14.0	0.8125	89.0	-70.0	0.1875	16.0	1.0	3.0	0.7806338217319464	1.21	n/a	stim	poldrack-single-stim	s561	False	1
280.439	1.552	281.991	-0.6551049522373047	draw_card	1.552	columbia_card_task_fmri	14.0	0.8	89.0	-70.0	0.2	16.0	2.0	3.0	1.5927004219268426	1.552	n/a	stim	poldrack-single-stim	s561	False	1
281.994	1.44	283.434	-1.8551049522373055	draw_card	1.44	columbia_card_task_fmri	14.0	0.7857142857142857	89.0	-70.0	0.2142857142857142	16.0	3.0	3.0	2.458358590206217	1.44	n/a	stim	poldrack-single-stim	s561	False	1
283.437	1.531	284.968	-3.239720336852691	draw_card	1.531	columbia_card_task_fmri	14.0	0.7692307692307692	89.0	-70.0	0.2307692307692307	16.0	4.0	3.0	3.3805490709122097	1.531	n/a	stim	poldrack-single-stim	s561	False	1
284.972	1.478	286.45	-4.855104952237306	draw_card	1.478	columbia_card_task_fmri	14.0	0.75	89.0	-70.0	0.25	16.0	5.0	3.0	4.36056266921868	1.478	n/a	stim	poldrack-single-stim	s561	False	1
286.453	1.801	288.254	-6.764195861328214	draw_card	1.801	columbia_card_task_fmri	14.0	0.7272727272727273	89.0	-70.0	0.2727272727272727	16.0	6.0	3.0	5.396135372892495	1.801	n/a	stim	poldrack-single-stim	s561	False	1
288.257	1.564	289.821	-9.055104952237308	draw_card	1.564	columbia_card_task_fmri	14.0	0.7	89.0	-70.0	0.3	16.0	7.0	3.0	6.477656219611006	1.564	n/a	stim	poldrack-single-stim	s561	False	1
289.825	1.76	291.585	-11.855104952237305	draw_card	1.76	columbia_card_task_fmri	14.0	0.6666666666666667	89.0	-70.0	0.3333333333333333	16.0	8.0	3.0	7.580337319009693	1.76	n/a	stim	poldrack-single-stim	s561	False	1
291.589	0.92	292.509	-15.355104952237305	end_round	0.92	columbia_card_task_fmri	14.0	0.625	71.0	-70.0	0.375	16.0	9.0	3.0	8.647159860834073	0.92	8.0	stim	poldrack-single-stim	s561	False	1
293.264	1.5	292.513	n/a	-1.0	2.454	columbia_card_task_fmri	n/a	n/a	-1.0	n/a	n/a	n/a	n/a	n/a	n/a	n/a	n/a	ITI	poldrack-single-stim	s561	False	0
294.974	1.179	296.153	0.3323950477626942	draw_card	1.179	columbia_card_task_fmri	11.0	0.6875	89.0	-30.0	0.3125	16.0	1.0	5.0	-12.95102310685667	1.179	1.0	stim	poldrack-single-stim	s561	False	0
296.908	1.5	296.157	n/a	-1.0	2.318	columbia_card_task_fmri	n/a	n/a	-1.0	n/a	n/a	n/a	n/a	n/a	n/a	n/a	n/a	ITI	poldrack-single-stim	s561	False	0
298.479	1.852	300.331	5.144895047762694	draw_card	1.852	columbia_card_task_fmri	15.0	0.8666666666666667	89.0	-75.0	0.1333333333333333	15.0	1.0	2.0	-1.406478744220049	1.852	n/a	stim	poldrack-single-stim	s561	False	1
300.335	1.355	301.69	4.287752190619838	draw_card	1.355	columbia_card_task_fmri	15.0	0.8571428571428572	89.0	-75.0	0.1428571428571428	15.0	2.0	2.0	-0.5092956522811285	1.355	n/a	stim	poldrack-single-stim	s561	False	1
301.694	1.553	303.247	3.2987412016088475	draw_card	1.553	columbia_card_task_fmri	15.0	0.8461538461538461	89.0	-75.0	0.1538461538461538	15.0	3.0	2.0	0.4671799636406035	1.553	3.0	stim	poldrack-single-stim	s561	False	0
304.002	1.5	303.251	n/a	-1.0	2.318	columbia_card_task_fmri	n/a	n/a	-1.0	n/a	n/a	n/a	n/a	n/a	n/a	n/a	n/a	ITI	poldrack-single-stim	s561	False	0
305.574	0.679	306.253	6.8782283810960285	draw_card	0.679	columbia_card_task_fmri	17.0	0.8666666666666667	89.0	-75.0	0.1333333333333333	15.0	1.0	2.0	-0.7282381092676822	0.679	n/a	stim	poldrack-single-stim	s561	False	1
306.256	1.512	307.768	6.002037904905554	draw_card	1.512	columbia_card_task_fmri	17.0	0.8571428571428572	89.0	-75.0	0.1428571428571428	15.0	2.0	2.0	0.1889761135464525	1.512	n/a	stim	poldrack-single-stim	s561	False	1
307.772	1.239	309.011	4.991048893916541	draw_card	1.239	columbia_card_task_fmri	17.0	0.8461538461538461	89.0	-75.0	0.1538461538461538	15.0	3.0	2.0	1.1872473259029803	1.239	3.0	stim	poldrack-single-stim	s561	False	0
309.768	1.5	309.017	n/a	-1.0	2.59	columbia_card_task_fmri	n/a	n/a	-1.0	n/a	n/a	n/a	n/a	n/a	n/a	n/a	n/a	ITI	poldrack-single-stim	s561	False	0
311.611	0.929	312.54	2.4573950477626942	draw_card	0.929	columbia_card_task_fmri	2.0	0.9375	89.0	-25.0	0.0625	16.0	1.0	1.0	-25.197070514951516	0.929	n/a	stim	poldrack-single-stim	s561	False	1
312.544	1.496	314.04	2.3448950477626944	draw_card	1.496	columbia_card_task_fmri	2.0	0.9333333333333332	89.0	-25.0	0.0666666666666666	16.0	2.0	1.0	-25.00741143124293	1.496	n/a	stim	poldrack-single-stim	s561	False	1
314.044	1.202	315.246	2.216323619191266	draw_card	1.202	columbia_card_task_fmri	2.0	0.9285714285714286	89.0	-25.0	0.0714285714285714	16.0	3.0	1.0	-24.798836121916747	1.202	n/a	stim	poldrack-single-stim	s561	False	1
315.249	1.44	316.689	2.0679719708396176	draw_card	1.44	columbia_card_task_fmri	2.0	0.9230769230769232	89.0	-25.0	0.0769230769230769	16.0	4.0	1.0	-24.568102189194143	1.44	n/a	stim	poldrack-single-stim	s561	False	1
316.693	1.199	317.892	1.8948950477626945	draw_card	1.199	columbia_card_task_fmri	2.0	0.9166666666666666	89.0	-25.0	0.0833333333333333	16.0	5.0	1.0	-24.31115133626012	1.199	5.0	stim	poldrack-single-stim	s561	False	0
318.647	1.5	317.896	n/a	-1.0	2.726	columbia_card_task_fmri	n/a	n/a	-1.0	n/a	n/a	n/a	n/a	n/a	n/a	n/a	n/a	ITI	poldrack-single-stim	s561	False	0
320.628	1.813	322.441	4.644895047762694	draw_card	1.813	columbia_card_task_fmri	9.0	0.9375	89.0	-95.0	0.0625	16.0	1.0	1.0	-6.810090286793898	1.813	n/a	stim	poldrack-single-stim	s561	False	1
322.444	2.023	324.467	4.211561714429362	draw_card	2.023	columbia_card_task_fmri	9.0	0.9333333333333332	89.0	-95.0	0.0666666666666666	16.0	2.0	1.0	-6.045014191760512	2.023	n/a	stim	poldrack-single-stim	s561	False	1
324.472	1.77	326.242	3.7163236191912654	draw_card	1.77	columbia_card_task_fmri	9.0	0.9285714285714286	89.0	-95.0	0.0714285714285714	16.0	3.0	1.0	-5.205850382769132	1.77	n/a	stim	poldrack-single-stim	s561	False	1
326.246	1.354	327.6	3.1448950477626942	draw_card	1.354	columbia_card_task_fmri	9.0	0.9230769230769232	89.0	-95.0	0.0769230769230769	16.0	4.0	1.0	-4.279997451122092	1.354	n/a	stim	poldrack-single-stim	s561	False	1
327.604	1.435	329.039	2.478228381096028	draw_card	1.435	columbia_card_task_fmri	9.0	0.9166666666666666	89.0	-95.0	0.0833333333333333	16.0	5.0	1.0	-3.2516940135665067	1.435	n/a	stim	poldrack-single-stim	s561	False	1
329.042	3.825	332.867	1.6903495932172392	draw_card	3.825	columbia_card_task_fmri	9.0	0.9090909090909092	89.0	-95.0	0.0909090909090909	16.0	6.0	1.0	-2.1009536736548284	3.825	n/a	stim	poldrack-single-stim	s561	False	1
332.871	3.302	336.173	0.7448950477626939	draw_card	3.302	columbia_card_task_fmri	9.0	0.9	89.0	-95.0	0.1	16.0	7.0	1.0	-0.8020506538406771	3.302	n/a	stim	poldrack-single-stim	s561	False	1
336.176	3.18	339.356	-0.4106605077928611	draw_card	3.18	columbia_card_task_fmri	9.0	0.8888888888888888	89.0	-95.0	0.1111111111111111	16.0	8.0	1.0	0.6786597698245487	3.18	n/a	stim	poldrack-single-stim	s561	False	1
339.359	0.808	340.167	-1.8551049522373055	end_round	0.808	columbia_card_task_fmri	9.0	0.875	71.0	-95.0	0.125	16.0	9.0	1.0	2.385890233099758	0.808	8.0	stim	poldrack-single-stim	s561	False	1
340.925	1.5	340.174	n/a	-1.0	2.522	columbia_card_task_fmri	n/a	n/a	-1.0	n/a	n/a	n/a	n/a	n/a	n/a	n/a	n/a	ITI	poldrack-single-stim	s561	False	0
342.699	1.656	344.355	6.207395047762694	draw_card	1.656	columbia_card_task_fmri	11.0	0.9375	89.0	-100.0	0.0625	16.0	1.0	1.0	-5.121393133818501	1.656	n/a	stim	poldrack-single-stim	s561	False	1
344.359	1.591	345.95	5.744895047762695	draw_card	1.591	columbia_card_task_fmri	11.0	0.9333333333333332	89.0	-100.0	0.0666666666666666	16.0	2.0	1.0	-4.304472448077494	1.591	2.0	stim	poldrack-single-stim	s561	False	0
346.706	1.5	345.955	n/a	-1.0	3.134	columbia_card_task_fmri	n/a	n/a	-1.0	n/a	n/a	n/a	n/a	n/a	n/a	n/a	n/a	ITI	poldrack-single-stim	s561	False	0
349.095	1.196	350.291	6.769895047762694	draw_card	1.196	columbia_card_task_fmri	16.0	0.875	89.0	-75.0	0.125	16.0	1.0	2.0	-1.903933422774589	1.196	n/a	stim	poldrack-single-stim	s561	False	1
350.295	1.775	352.07	6.011561714429361	draw_card	1.775	columbia_card_task_fmri	16.0	0.8666666666666667	89.0	-75.0	0.1333333333333333	16.0	2.0	2.0	-1.067367343152224	1.775	n/a	stim	poldrack-single-stim	s561	False	1
352.074	1.353	353.427	5.144895047762696	draw_card	1.353	columbia_card_task_fmri	16.0	0.8571428571428572	89.0	-75.0	0.1428571428571428	16.0	3.0	2.0	-0.1601684346614575	1.353	n/a	stim	poldrack-single-stim	s561	False	1
353.431	1.738	355.169	4.144895047762694	draw_card	1.738	columbia_card_task_fmri	16.0	0.8461538461538461	89.0	-75.0	0.1538461538461538	16.0	4.0	2.0	0.827205237256976	1.738	n/a	stim	poldrack-single-stim	s561	False	1
355.173	1.718	356.891	2.978228381096028	draw_card	1.718	columbia_card_task_fmri	16.0	0.8333333333333334	89.0	-75.0	0.1666666666666666	16.0	5.0	2.0	1.9057667363358064	1.718	n/a	stim	poldrack-single-stim	s561	False	1
356.896	1.733	358.629	1.5994405023081475	draw_card	1.733	columbia_card_task_fmri	16.0	0.8181818181818181	89.0	-75.0	0.1818181818181818	16.0	6.0	2.0	3.087995933183606	1.733	n/a	stim	poldrack-single-stim	s561	False	1
358.633	1.857	360.49	-0.055104952237305	draw_card	1.857	columbia_card_task_fmri	16.0	0.8	89.0	-75.0	0.2	16.0	7.0	2.0	4.387449038298712	1.857	n/a	stim	poldrack-single-stim	s561	False	1
360.494	1.691	362.185	-2.0773271744595254	draw_card	1.691	columbia_card_task_fmri	16.0	0.7777777777777778	89.0	-75.0	0.2222222222222222	16.0	8.0	2.0	5.817376074757732	1.691	n/a	stim	poldrack-single-stim	s561	False	1
362.189	0.871	363.06	-4.605104952237306	end_round	0.871	columbia_card_task_fmri	16.0	0.75	71.0	-75.0	0.25	16.0	9.0	2.0	7.386798556572671	0.871	8.0	stim	poldrack-single-stim	s561	False	1
363.818	1.5	363.067	n/a	-1.0	2.386	columbia_card_task_fmri	n/a	n/a	-1.0	n/a	n/a	n/a	n/a	n/a	n/a	n/a	n/a	ITI	poldrack-single-stim	s561	False	0
365.458	2.118	367.576	7.019895047762694	draw_card	2.118	columbia_card_task_fmri	17.0	0.875	89.0	-80.0	0.125	16.0	1.0	2.0	0.0756690903893613	2.118	n/a	stim	poldrack-single-stim	s561	False	1
367.581	1.609	369.19	6.211561714429362	draw_card	1.609	columbia_card_task_fmri	17.0	0.8666666666666667	89.0	-80.0	0.1333333333333333	16.0	2.0	2.0	0.9676563341863158	1.609	2.0	stim	poldrack-single-stim	s561	False	0
369.947	1.5	369.196	n/a	-1.0	2.386	columbia_card_task_fmri	n/a	n/a	-1.0	n/a	n/a	n/a	n/a	n/a	n/a	n/a	n/a	ITI	poldrack-single-stim	s561	False	0
382.59	1.485	384.075	1.311561714429362	draw_card	1.485	columbia_card_task_fmri	13.0	0.8333333333333334	89.0	-70.0	0.1666666666666666	6.0	1.0	1.0	-1.069141111186184	1.485	1.0	stim	poldrack-single-stim	s561	False	0
384.831	1.5	384.08	n/a	-1.0	2.318	columbia_card_task_fmri	n/a	n/a	-1.0	n/a	n/a	n/a	n/a	n/a	n/a	n/a	n/a	ITI	poldrack-single-stim	s561	False	0
386.404	0.937	387.341	1.311561714429362	draw_card	0.937	columbia_card_task_fmri	15.0	0.8333333333333334	89.0	-80.0	0.1666666666666666	6.0	1.0	1.0	3.3936310049743312	0.937	n/a	stim	poldrack-single-stim	s561	False	1
387.345	2.134	389.479	-1.8551049522373055	draw_card	2.134	columbia_card_task_fmri	15.0	0.8	89.0	-80.0	0.2	6.0	2.0	1.0	5.984794831706168	2.134	2.0	stim	poldrack-single-stim	s561	False	0
390.234	1.5	389.483	n/a	-1.0	2.318	columbia_card_task_fmri	n/a	n/a	-1.0	n/a	n/a	n/a	n/a	n/a	n/a	n/a	n/a	ITI	poldrack-single-stim	s561	False	0
391.806	1.057	392.863	2.978228381096028	draw_card	1.057	columbia_card_task_fmri	16.0	0.8333333333333334	89.0	-75.0	0.1666666666666666	6.0	1.0	1.0	1.9057667363358064	1.057	n/a	stim	poldrack-single-stim	s561	False	1
392.867	2.128	394.995	-0.055104952237305	draw_card	2.128	columbia_card_task_fmri	16.0	0.8	89.0	-75.0	0.2	6.0	2.0	1.0	4.387449038298712	2.128	2.0	stim	poldrack-single-stim	s561	False	0
395.749	1.5	394.998	n/a	-1.0	2.862	columbia_card_task_fmri	n/a	n/a	-1.0	n/a	n/a	n/a	n/a	n/a	n/a	n/a	n/a	ITI	poldrack-single-stim	s561	False	0
397.865	0.699	398.564	4.144895047762694	draw_card	0.699	columbia_card_task_fmri	21.0	0.75	89.0	-55.0	0.25	8.0	1.0	2.0	0.903098862783274	0.699	n/a	stim	poldrack-single-stim	s561	False	1
398.568	1.586	400.154	1.4306093334769807	draw_card	1.586	columbia_card_task_fmri	21.0	0.7142857142857143	89.0	-55.0	0.2857142857142857	8.0	2.0	2.0	2.324542884064876	1.586	n/a	stim	poldrack-single-stim	s561	False	1
400.157	2.214	402.371	-2.188438285570636	draw_card	2.214	columbia_card_task_fmri	21.0	0.6666666666666667	89.0	-55.0	0.3333333333333333	8.0	3.0	2.0	3.815201116290425	2.214	n/a	stim	poldrack-single-stim	s561	False	1
402.375	1.392	403.767	-7.255104952237306	end_round	1.392	columbia_card_task_fmri	21.0	0.6	71.0	-55.0	0.4	8.0	4.0	2.0	5.21828413814989	1.392	3.0	stim	poldrack-single-stim	s561	False	1
404.524	1.5	403.773	n/a	-1.0	2.726	columbia_card_task_fmri	n/a	n/a	-1.0	n/a	n/a	n/a	n/a	n/a	n/a	n/a	n/a	ITI	poldrack-single-stim	s561	False	0
406.505	0.936	407.441	5.394895047762694	draw_card	0.936	columbia_card_task_fmri	26.0	0.75	89.0	-65.0	0.25	8.0	1.0	2.0	7.386798556572671	0.936	1.0	stim	poldrack-single-stim	s561	False	0
408.196	1.5	407.445	n/a	-1.0	2.25	columbia_card_task_fmri	n/a	n/a	-1.0	n/a	n/a	n/a	n/a	n/a	n/a	n/a	n/a	ITI	poldrack-single-stim	s561	False	0
409.7	0.93	410.63	0.4782283810960281	draw_card	0.93	columbia_card_task_fmri	15.0	0.7777777777777778	89.0	-60.0	0.2222222222222222	9.0	1.0	2.0	-0.8215264339845625	0.93	n/a	stim	poldrack-single-stim	s561	False	1
410.634	1.593	412.227	-1.6051049522373058	draw_card	1.593	columbia_card_task_fmri	15.0	0.75	89.0	-60.0	0.25	9.0	2.0	2.0	0.4710151426249496	1.593	n/a	stim	poldrack-single-stim	s561	False	1
412.231	1.823	414.054	-4.283676380808733	draw_card	1.823	columbia_card_task_fmri	15.0	0.7142857142857143	89.0	-60.0	0.2857142857142857	9.0	3.0	2.0	1.87367960778996	1.823	n/a	stim	poldrack-single-stim	s561	False	1
414.057	2.251	416.308	-7.855104952237304	draw_card	2.251	columbia_card_task_fmri	15.0	0.6666666666666667	89.0	-60.0	0.3333333333333333	9.0	4.0	2.0	3.344650348741297	2.251	n/a	stim	poldrack-single-stim	s561	False	1
416.313	0.962	417.275	-12.855104952237305	end_round	0.962	columbia_card_task_fmri	15.0	0.6	71.0	-60.0	0.4	9.0	5.0	2.0	4.729207879296688	0.962	4.0	stim	poldrack-single-stim	s561	False	1
418.032	1.5	417.281	n/a	-1.0	2.318	columbia_card_task_fmri	n/a	n/a	-1.0	n/a	n/a	n/a	n/a	n/a	n/a	n/a	n/a	ITI	poldrack-single-stim	s561	False	0
419.605	1.245	420.85	4.844895047762695	draw_card	1.245	columbia_card_task_fmri	13.0	0.9	89.0	-90.0	0.1	10.0	1.0	1.0	-1.1013374079387042	1.245	n/a	stim	poldrack-single-stim	s561	False	1
420.854	1.555	422.409	3.7004506033182496	draw_card	1.555	columbia_card_task_fmri	13.0	0.8888888888888888	89.0	-90.0	0.1111111111111111	10.0	2.0	1.0	0.3650711650718179	1.555	n/a	stim	poldrack-single-stim	s561	False	1
422.414	1.716	424.13	2.2698950477626942	draw_card	1.716	columbia_card_task_fmri	13.0	0.875	89.0	-90.0	0.125	10.0	3.0	1.0	2.055818723787553	1.716	n/a	stim	poldrack-single-stim	s561	False	1
424.133	1.196	425.329	0.4306093334769825	draw_card	1.196	columbia_card_task_fmri	13.0	0.8571428571428572	89.0	-90.0	0.1428571428571428	10.0	4.0	1.0	4.030566156854853	1.196	n/a	stim	poldrack-single-stim	s561	False	1
425.333	1.452	426.785	-2.021771618903972	draw_card	1.452	columbia_card_task_fmri	13.0	0.8333333333333334	89.0	-90.0	0.1666666666666666	10.0	5.0	1.0	6.37002142724436	1.452	n/a	stim	poldrack-single-stim	s561	False	1
426.789	2.241	429.03	-5.455104952237305	draw_card	2.241	columbia_card_task_fmri	13.0	0.8	89.0	-90.0	0.2	10.0	6.0	1.0	9.180103530362238	2.241	n/a	stim	poldrack-single-stim	s561	False	1
429.034	2.503	431.537	-10.605104952237305	draw_card	2.503	columbia_card_task_fmri	13.0	0.75	89.0	-90.0	0.25	10.0	7.0	1.0	12.576163193910482	2.503	n/a	stim	poldrack-single-stim	s561	False	1
431.541	1.987	433.528	-19.18843828557064	end_round	1.987	columbia_card_task_fmri	13.0	0.6666666666666667	71.0	-90.0	0.3333333333333333	10.0	8.0	1.0	16.526326851465626	1.987	7.0	stim	poldrack-single-stim	s561	False	1
434.284	1.5	433.533	n/a	-1.0	2.454	columbia_card_task_fmri	n/a	n/a	-1.0	n/a	n/a	n/a	n/a	n/a	n/a	n/a	n/a	ITI	poldrack-single-stim	s561	False	0
435.991	1.602	437.593	6.144895047762694	draw_card	1.602	columbia_card_task_fmri	15.0	0.9	89.0	-95.0	0.1	10.0	1.0	1.0	0.9939413056407104	1.602	n/a	stim	poldrack-single-stim	s561	False	1
437.597	1.063	438.66	4.922672825540471	draw_card	1.063	columbia_card_task_fmri	15.0	0.8888888888888888	89.0	-95.0	0.1111111111111111	10.0	2.0	1.0	2.560450666077734	1.063	n/a	stim	poldrack-single-stim	s561	False	1
438.664	0.813	439.477	3.3948950477626942	draw_card	0.813	columbia_card_task_fmri	15.0	0.875	89.0	-95.0	0.125	10.0	3.0	1.0	4.3665658105867	0.813	3.0	stim	poldrack-single-stim	s561	False	0
440.234	1.5	439.483	n/a	-1.0	2.522	columbia_card_task_fmri	n/a	n/a	-1.0	n/a	n/a	n/a	n/a	n/a	n/a	n/a	n/a	ITI	poldrack-single-stim	s561	False	0
442.01	1.054	443.064	1.944895047762695	draw_card	1.054	columbia_card_task_fmri	16.0	0.8	89.0	-65.0	0.2	10.0	1.0	2.0	0.3952280002451758	1.054	n/a	stim	poldrack-single-stim	s561	False	1
443.069	1.204	444.273	0.144895047762696	draw_card	1.204	columbia_card_task_fmri	16.0	0.7777777777777778	89.0	-65.0	0.2222222222222222	10.0	2.0	2.0	1.667465060952388	1.204	n/a	stim	poldrack-single-stim	s561	False	1
444.277	1.016	445.293	-2.1051049522373058	draw_card	1.016	columbia_card_task_fmri	16.0	0.75	89.0	-65.0	0.25	10.0	3.0	2.0	3.063860522605701	1.016	3.0	stim	poldrack-single-stim	s561	False	0
446.049	1.5	445.298	n/a	-1.0	2.318	columbia_card_task_fmri	n/a	n/a	-1.0	n/a	n/a	n/a	n/a	n/a	n/a	n/a	n/a	ITI	poldrack-single-stim	s561	False	0
447.622	1.218	448.84	0.6448950477626942	draw_card	1.218	columbia_card_task_fmri	7.0	0.9166666666666666	89.0	-95.0	0.0833333333333333	12.0	1.0	1.0	-3.8029023163447695	1.218	n/a	stim	poldrack-single-stim	s561	False	1
448.844	1.072	449.916	-0.1278322249645791	draw_card	1.072	columbia_card_task_fmri	7.0	0.9090909090909092	89.0	-95.0	0.0909090909090909	12.0	2.0	1.0	-2.6744105703763665	1.072	n/a	stim	poldrack-single-stim	s561	False	1
449.921	0.975	450.896	-1.055104952237306	draw_card	0.975	columbia_card_task_fmri	7.0	0.9	89.0	-95.0	0.1	12.0	3.0	1.0	-1.4006102276343064	0.975	n/a	stim	poldrack-single-stim	s561	False	1
450.901	0.885	451.786	-2.18843828557064	draw_card	0.885	columbia_card_task_fmri	7.0	0.8888888888888888	89.0	-95.0	0.1111111111111111	12.0	4.0	1.0	0.0514958705152039	0.885	n/a	stim	poldrack-single-stim	s561	False	1
451.791	0.84	452.631	-3.6051049522373058	draw_card	0.84	columbia_card_task_fmri	7.0	0.875	89.0	-95.0	0.125	12.0	5.0	1.0	1.7257598707019497	0.84	n/a	stim	poldrack-single-stim	s561	False	1
452.636	0.641	453.277	-5.426533523665877	draw_card	0.641	columbia_card_task_fmri	7.0	0.8571428571428572	89.0	-95.0	0.1428571428571428	12.0	6.0	1.0	3.681263078843884	0.641	6.0	stim	poldrack-single-stim	s561	False	0
454.032	1.5	453.281	n/a	-1.0	2.522	columbia_card_task_fmri	n/a	n/a	-1.0	n/a	n/a	n/a	n/a	n/a	n/a	n/a	n/a	ITI	poldrack-single-stim	s561	False	0
455.808	1.352	457.16	1.311561714429362	draw_card	1.352	columbia_card_task_fmri	14.0	0.8333333333333334	89.0	-75.0	0.1666666666666666	12.0	1.0	2.0	1.1619303010192823	1.352	n/a	stim	poldrack-single-stim	s561	False	1
457.164	0.876	458.04	-0.0369231340554891	draw_card	0.876	columbia_card_task_fmri	14.0	0.8181818181818181	89.0	-75.0	0.1818181818181818	12.0	2.0	2.0	2.318075289627174	0.876	n/a	stim	poldrack-single-stim	s561	False	1
458.045	0.6	458.645	-1.6551049522373047	draw_card	0.6	columbia_card_task_fmri	14.0	0.8	89.0	-75.0	0.2	12.0	3.0	2.0	3.588865373325838	0.6	n/a	stim	poldrack-single-stim	s561	False	1
458.65	0.887	459.537	-3.6328827300150808	draw_card	0.887	columbia_card_task_fmri	14.0	0.7777777777777778	89.0	-75.0	0.2222222222222222	12.0	4.0	2.0	4.987259637498333	0.887	4.0	stim	poldrack-single-stim	s561	False	0
460.292	1.5	459.541	n/a	-1.0	2.998	columbia_card_task_fmri	n/a	n/a	-1.0	n/a	n/a	n/a	n/a	n/a	n/a	n/a	n/a	ITI	poldrack-single-stim	s561	False	0
462.545	0.658	463.203	2.978228381096028	draw_card	0.658	columbia_card_task_fmri	15.0	0.8333333333333334	89.0	-70.0	0.1666666666666666	12.0	1.0	2.0	-0.3255287514298111	0.658	n/a	stim	poldrack-single-stim	s561	False	1
463.208	0.886	464.094	1.6903495932172374	draw_card	0.886	columbia_card_task_fmri	15.0	0.8181818181818181	89.0	-70.0	0.1818181818181818	12.0	2.0	2.0	0.7784406917752165	0.886	2.0	stim	poldrack-single-stim	s561	False	0
464.85	1.5	464.099	n/a	-1.0	2.318	columbia_card_task_fmri	n/a	n/a	-1.0	n/a	n/a	n/a	n/a	n/a	n/a	n/a	n/a	ITI	poldrack-single-stim	s561	False	0
466.422	0.938	467.36	0.944895047762695	draw_card	0.938	columbia_card_task_fmri	16.0	0.8	89.0	-70.0	0.2	15.0	1.0	3.0	2.3911130451459783	0.938	n/a	stim	poldrack-single-stim	s561	False	1
467.364	1.469	468.833	-0.2836763808087346	draw_card	1.469	columbia_card_task_fmri	16.0	0.7857142857142857	89.0	-70.0	0.2142857142857142	15.0	2.0	3.0	3.277462737795659	1.469	n/a	stim	poldrack-single-stim	s561	False	1
468.838	1.418	470.256	-1.7012587983911525	draw_card	1.418	columbia_card_task_fmri	16.0	0.7692307692307692	89.0	-70.0	0.2307692307692307	15.0	3.0	3.0	4.221691683965098	1.418	3.0	stim	poldrack-single-stim	s561	False	0
471.014	1.5	470.263	n/a	-1.0	2.25	columbia_card_task_fmri	n/a	n/a	-1.0	n/a	n/a	n/a	n/a	n/a	n/a	n/a	n/a	ITI	poldrack-single-stim	s561	False	0
472.519	1.205	473.724	1.3323950477626942	draw_card	1.205	columbia_card_task_fmri	14.0	0.8125	89.0	-65.0	0.1875	16.0	1.0	3.0	-1.1665026543948969	1.205	n/a	stim	poldrack-single-stim	s561	False	1
473.73	1.411	475.141	0.3448950477626953	draw_card	1.411	columbia_card_task_fmri	14.0	0.8	89.0	-65.0	0.2	16.0	2.0	3.0	-0.4029806553814623	1.411	n/a	stim	poldrack-single-stim	s561	False	1
475.146	1.617	476.763	-0.7836763808087328	draw_card	1.617	columbia_card_task_fmri	14.0	0.7857142857142857	89.0	-65.0	0.2142857142857142	16.0	3.0	3.0	0.4109399882736539	1.617	n/a	stim	poldrack-single-stim	s561	False	1
476.768	1.694	478.462	-2.085874183006537	draw_card	1.694	columbia_card_task_fmri	14.0	0.7692307692307692	89.0	-65.0	0.2307692307692307	16.0	4.0	3.0	1.2780254850872197	1.694	4.0	stim	poldrack-single-stim	s561	False	0
479.221	1.5	478.47	n/a	-1.0	2.454	columbia_card_task_fmri	n/a	n/a	-1.0	n/a	n/a	n/a	n/a	n/a	n/a	n/a	n/a	ITI	poldrack-single-stim	s561	False	0
480.932	0.88	481.812	1.0823950477626942	draw_card	0.88	columbia_card_task_fmri	16.0	0.8125	89.0	-75.0	0.1875	16.0	1.0	3.0	3.507439483997679	0.88	n/a	stim	poldrack-single-stim	s561	False	1
481.817	1.756	483.573	-0.055104952237305	draw_card	1.756	columbia_card_task_fmri	16.0	0.8	89.0	-75.0	0.2	16.0	2.0	3.0	4.387449038298712	1.756	n/a	stim	poldrack-single-stim	s561	False	1
483.578	1.44	485.018	-1.355104952237304	draw_card	1.44	columbia_card_task_fmri	16.0	0.7857142857142857	89.0	-75.0	0.2142857142857142	16.0	3.0	3.0	5.32551996468144	1.44	3.0	stim	poldrack-single-stim	s561	False	0
485.773	1.5	485.022	n/a	-1.0	2.318	columbia_card_task_fmri	n/a	n/a	-1.0	n/a	n/a	n/a	n/a	n/a	n/a	n/a	n/a	ITI	poldrack-single-stim	s561	False	0
487.345	0.737	488.082	5.344895047762695	draw_card	0.737	columbia_card_task_fmri	16.0	0.8666666666666667	89.0	-80.0	0.1333333333333333	15.0	1.0	2.0	0.6284460588378451	0.737	n/a	stim	poldrack-single-stim	s561	False	1
488.086	1.356	489.442	4.430609333476983	draw_card	1.356	columbia_card_task_fmri	16.0	0.8571428571428572	89.0	-80.0	0.1428571428571428	15.0	2.0	2.0	1.585716826428822	1.356	n/a	stim	poldrack-single-stim	s561	False	1
489.446	1.297	490.743	3.375664278531924	draw_card	1.297	columbia_card_task_fmri	16.0	0.8461538461538461	89.0	-80.0	0.1538461538461538	15.0	3.0	2.0	2.6275733631865634	1.297	n/a	stim	poldrack-single-stim	s561	False	1
490.748	1.442	492.19	2.144895047762696	draw_card	1.442	columbia_card_task_fmri	16.0	0.8333333333333334	89.0	-80.0	0.1666666666666666	15.0	4.0	2.0	3.7656340499831984	1.442	n/a	stim	poldrack-single-stim	s561	False	1
492.194	1.593	493.787	0.6903495932172374	end_round	1.593	columbia_card_task_fmri	16.0	0.8181818181818181	71.0	-80.0	0.1818181818181818	15.0	5.0	2.0	5.0130645490728085	1.593	4.0	stim	poldrack-single-stim	s561	False	1
494.544	1.5	493.793	n/a	-1.0	2.318	columbia_card_task_fmri	n/a	n/a	-1.0	n/a	n/a	n/a	n/a	n/a	n/a	n/a	n/a	ITI	poldrack-single-stim	s561	False	0
496.117	0.716	496.833	6.211561714429362	draw_card	0.716	columbia_card_task_fmri	17.0	0.8666666666666667	89.0	-80.0	0.1333333333333333	15.0	1.0	2.0	0.9676563341863158	0.716	n/a	stim	poldrack-single-stim	s561	False	1
496.838	1.385	498.223	5.28775219061984	draw_card	1.385	columbia_card_task_fmri	17.0	0.8571428571428572	89.0	-80.0	0.1428571428571428	15.0	2.0	2.0	1.93494013178627	1.385	n/a	stim	poldrack-single-stim	s561	False	1
498.227	1.364	499.591	4.221818124685771	draw_card	1.364	columbia_card_task_fmri	17.0	0.8461538461538461	89.0	-80.0	0.1538461538461538	15.0	3.0	2.0	2.987691864211534	1.364	n/a	stim	poldrack-single-stim	s561	False	1
499.596	1.448	501.044	2.97822838109603	draw_card	1.448	columbia_card_task_fmri	17.0	0.8333333333333334	89.0	-80.0	0.1666666666666666	15.0	4.0	2.0	4.137650974503394	1.448	4.0	stim	poldrack-single-stim	s561	False	0
501.801	1.5	501.05	n/a	-1.0	2.59	columbia_card_task_fmri	n/a	n/a	-1.0	n/a	n/a	n/a	n/a	n/a	n/a	n/a	n/a	ITI	poldrack-single-stim	s561	False	0
503.645	0.377	504.022	2.1448950477626942	draw_card	0.377	columbia_card_task_fmri	1.0	0.9375	89.0	-15.0	0.0625	16.0	1.0	1.0	-27.648437271355867	0.377	n/a	stim	poldrack-single-stim	s561	False	1
504.026	1.852	505.878	2.078228381096028	draw_card	1.852	columbia_card_task_fmri	1.0	0.9333333333333332	89.0	-15.0	0.0666666666666666	16.0	2.0	1.0	-27.54474579113934	1.852	n/a	stim	poldrack-single-stim	s561	False	1
505.883	0.436	506.319	2.0020379049055514	draw_card	0.436	columbia_card_task_fmri	1.0	0.9285714285714286	89.0	-15.0	0.0714285714285714	16.0	3.0	1.0	-27.430245116713824	0.436	n/a	stim	poldrack-single-stim	s561	False	1
506.324	1.284	507.608	1.9141258169934636	draw_card	1.284	columbia_card_task_fmri	1.0	0.9230769230769232	89.0	-15.0	0.0769230769230769	16.0	4.0	1.0	-27.303051223730456	1.284	n/a	stim	poldrack-single-stim	s561	False	1
507.613	0.49	508.103	1.8115617144293608	draw_card	0.49	columbia_card_task_fmri	1.0	0.9166666666666666	89.0	-15.0	0.0833333333333333	16.0	5.0	1.0	-27.160802270560424	0.49	n/a	stim	poldrack-single-stim	s561	False	1
508.108	0.501	508.609	1.6903495932172397	draw_card	0.501	columbia_card_task_fmri	1.0	0.9090909090909092	89.0	-15.0	0.0909090909090909	16.0	6.0	1.0	-27.00049637417508	0.501	n/a	stim	poldrack-single-stim	s561	False	1
508.613	0.503	509.116	1.5448950477626942	draw_card	0.503	columbia_card_task_fmri	1.0	0.9	89.0	-15.0	0.1	16.0	7.0	1.0	-26.818260474540587	0.503	n/a	stim	poldrack-single-stim	s561	False	1
509.122	0.515	509.637	1.3671172699849166	draw_card	0.515	columbia_card_task_fmri	1.0	0.8888888888888888	89.0	-15.0	0.1111111111111111	16.0	8.0	1.0	-26.60901683871256	0.515	n/a	stim	poldrack-single-stim	s561	False	1
509.642	0.636	510.278	1.1448950477626942	draw_card	0.636	columbia_card_task_fmri	1.0	0.875	89.0	-15.0	0.125	16.0	9.0	1.0	-26.36599960615316	0.636	n/a	stim	poldrack-single-stim	s561	False	1
510.282	0.604	510.886	0.8591807620484087	draw_card	0.604	columbia_card_task_fmri	1.0	0.8571428571428572	89.0	-15.0	0.1428571428571428	16.0	10.0	1.0	-26.080066375249565	0.604	n/a	stim	poldrack-single-stim	s561	False	1
510.89	1.215	512.105	0.4782283810960277	end_round	1.215	columbia_card_task_fmri	1.0	0.8333333333333334	71.0	-15.0	0.1666666666666666	16.0	11.0	1.0	-25.738804423490976	1.215	10.0	stim	poldrack-single-stim	s561	False	1
512.861	1.5	512.11	n/a	-1.0	2.25	columbia_card_task_fmri	n/a	n/a	-1.0	n/a	n/a	n/a	n/a	n/a	n/a	n/a	n/a	ITI	poldrack-single-stim	s561	False	0
514.365	1.15	515.515	5.269895047762694	draw_card	1.15	columbia_card_task_fmri	10.0	0.9375	89.0	-100.0	0.0625	16.0	1.0	1.0	-5.362680037837968	1.15	n/a	stim	poldrack-single-stim	s561	False	1
515.52	1.186	516.706	4.811561714429361	draw_card	1.186	columbia_card_task_fmri	10.0	0.9333333333333332	89.0	-100.0	0.0666666666666666	16.0	2.0	1.0	-4.553164431715466	1.186	n/a	stim	poldrack-single-stim	s561	False	1
516.711	1.132	517.843	4.287752190619838	draw_card	1.132	columbia_card_task_fmri	10.0	0.9285714285714286	89.0	-100.0	0.0714285714285714	16.0	3.0	1.0	-3.66527740948667	1.132	n/a	stim	poldrack-single-stim	s561	False	1
517.847	1.178	519.025	3.6833565862242335	draw_card	1.178	columbia_card_task_fmri	10.0	0.9230769230769232	89.0	-100.0	0.0769230769230769	16.0	4.0	1.0	-2.685689676613915	1.178	n/a	stim	poldrack-single-stim	s561	False	1
519.029	1.09	520.119	2.978228381096028	draw_card	1.09	columbia_card_task_fmri	10.0	0.9166666666666666	89.0	-100.0	0.0833333333333333	16.0	5.0	1.0	-1.597729521079419	1.09	n/a	stim	poldrack-single-stim	s561	False	1
520.125	1.039	521.164	2.1448950477626925	draw_card	1.039	columbia_card_task_fmri	10.0	0.9090909090909092	89.0	-100.0	0.0909090909090909	16.0	6.0	1.0	-0.3802563038442557	1.039	n/a	stim	poldrack-single-stim	s561	False	1
521.169	1.215	522.384	1.1448950477626942	draw_card	1.215	columbia_card_task_fmri	10.0	0.9	89.0	-100.0	0.1	16.0	7.0	1.0	0.9939413056407104	1.215	n/a	stim	poldrack-single-stim	s561	False	1
522.388	1.085	523.473	-0.0773271744595271	draw_card	1.085	columbia_card_task_fmri	10.0	0.8888888888888888	89.0	-100.0	0.1111111111111111	16.0	8.0	1.0	2.560450666077734	1.085	n/a	stim	poldrack-single-stim	s561	False	1
523.477	1.758	525.235	-1.6051049522373058	draw_card	1.758	columbia_card_task_fmri	10.0	0.875	89.0	-100.0	0.125	16.0	9.0	1.0	4.3665658105867	1.758	9.0	stim	poldrack-single-stim	s561	False	0
525.992	1.5	525.241	n/a	-1.0	2.25	columbia_card_task_fmri	n/a	n/a	-1.0	n/a	n/a	n/a	n/a	n/a	n/a	n/a	n/a	ITI	poldrack-single-stim	s561	False	0
527.496	1.836	529.332	5.894895047762694	draw_card	1.836	columbia_card_task_fmri	15.0	0.875	89.0	-75.0	0.125	16.0	1.0	2.0	-2.233806337023932	1.836	n/a	stim	poldrack-single-stim	s561	False	1
529.337	1.5	530.837	5.144895047762694	draw_card	1.5	columbia_card_task_fmri	15.0	0.8666666666666667	89.0	-75.0	0.1333333333333333	16.0	2.0	2.0	-1.406478744220049	1.5	n/a	stim	poldrack-single-stim	s561	False	1
530.841	1.299	532.14	4.287752190619838	draw_card	1.299	columbia_card_task_fmri	15.0	0.8571428571428572	89.0	-75.0	0.1428571428571428	16.0	3.0	2.0	-0.5092956522811285	1.299	n/a	stim	poldrack-single-stim	s561	False	1
532.145	1.463	533.608	3.2987412016088475	draw_card	1.463	columbia_card_task_fmri	15.0	0.8461538461538461	89.0	-75.0	0.1538461538461538	16.0	4.0	2.0	0.4671799636406035	1.463	n/a	stim	poldrack-single-stim	s561	False	1
533.613	1.251	534.864	2.1448950477626942	draw_card	1.251	columbia_card_task_fmri	15.0	0.8333333333333334	89.0	-75.0	0.1666666666666666	16.0	5.0	2.0	1.5338401024906003	1.251	n/a	stim	poldrack-single-stim	s561	False	1
534.869	1.328	536.197	0.7812586841263292	draw_card	1.328	columbia_card_task_fmri	15.0	0.8181818181818181	89.0	-75.0	0.1818181818181818	16.0	6.0	2.0	2.703027475953668	1.328	6.0	stim	poldrack-single-stim	s561	False	0
536.956	1.5	536.205	n/a	-1.0	2.522	columbia_card_task_fmri	n/a	n/a	-1.0	n/a	n/a	n/a	n/a	n/a	n/a	n/a	n/a	ITI	poldrack-single-stim	s561	False	0
538.734	0.66	539.394	6.144895047762694	draw_card	0.66	columbia_card_task_fmri	16.0	0.875	89.0	-80.0	0.125	16.0	1.0	2.0	-0.2543054141809833	0.66	n/a	stim	poldrack-single-stim	s561	False	1
539.399	1.311	540.71	5.344895047762695	draw_card	1.311	columbia_card_task_fmri	16.0	0.8666666666666667	89.0	-80.0	0.1333333333333333	16.0	2.0	2.0	0.6284460588378451	1.311	n/a	stim	poldrack-single-stim	s561	False	1
540.715	1.568	542.283	4.430609333476983	draw_card	1.568	columbia_card_task_fmri	16.0	0.8571428571428572	89.0	-80.0	0.1428571428571428	16.0	3.0	2.0	1.585716826428822	1.568	n/a	stim	poldrack-single-stim	s561	False	1
542.289	1.521	543.81	3.375664278531924	draw_card	1.521	columbia_card_task_fmri	16.0	0.8461538461538461	89.0	-80.0	0.1538461538461538	16.0	4.0	2.0	2.6275733631865634	1.521	n/a	stim	poldrack-single-stim	s561	False	1
543.815	1.443	545.258	2.144895047762696	draw_card	1.443	columbia_card_task_fmri	16.0	0.8333333333333334	89.0	-80.0	0.1666666666666666	16.0	5.0	2.0	3.7656340499831984	1.443	5.0	stim	poldrack-single-stim	s561	False	0
546.018	1.5	545.267	n/a	-1.0	2.454	columbia_card_task_fmri	n/a	n/a	-1.0	n/a	n/a	n/a	n/a	n/a	n/a	n/a	n/a	ITI	poldrack-single-stim	s561	False	0
547.727	1.057	548.784	3.3323950477626942	draw_card	1.057	columbia_card_task_fmri	4.0	0.6875	89.0	-5.0	0.3125	16.0	1.0	5.0	-27.38496404396115	1.057	n/a	stim	poldrack-single-stim	s561	False	1
548.79	3.801	552.591	3.1448950477626947	draw_card	3.801	columbia_card_task_fmri	4.0	0.6666666666666667	89.0	-5.0	0.3333333333333333	16.0	2.0	5.0	-27.321684727632057	3.801	2.0	stim	poldrack-single-stim	s561	False	0
553.348	1.5	552.597	n/a	-1.0	2.25	columbia_card_task_fmri	n/a	n/a	-1.0	n/a	n/a	n/a	n/a	n/a	n/a	n/a	n/a	ITI	poldrack-single-stim	s561	False	0
554.854	1.206	556.06	0.4782283810960299	draw_card	1.206	columbia_card_task_fmri	14.0	0.8333333333333334	89.0	-80.0	0.1666666666666666	6.0	1.0	1.0	3.0216422808112497	1.206	n/a	stim	poldrack-single-stim	s561	False	1
556.064	2.006	558.07	-2.6551049522373047	draw_card	2.006	columbia_card_task_fmri	14.0	0.8	89.0	-80.0	0.2	6.0	2.0	1.0	5.585437258089549	2.006	2.0	stim	poldrack-single-stim	s561	False	0
558.83	1.5	558.079	n/a	-1.0	2.454	columbia_card_task_fmri	n/a	n/a	-1.0	n/a	n/a	n/a	n/a	n/a	n/a	n/a	n/a	ITI	poldrack-single-stim	s561	False	0
560.54	1.367	561.907	2.1448950477626942	draw_card	1.367	columbia_card_task_fmri	15.0	0.8333333333333334	89.0	-75.0	0.1666666666666666	6.0	1.0	1.0	1.5338401024906003	1.367	1.0	stim	poldrack-single-stim	s561	False	0
562.667	1.5	561.916	n/a	-1.0	2.454	columbia_card_task_fmri	n/a	n/a	-1.0	n/a	n/a	n/a	n/a	n/a	n/a	n/a	n/a	ITI	poldrack-single-stim	s561	False	0
564.377	2.563	566.94	3.811561714429362	draw_card	2.563	columbia_card_task_fmri	16.0	0.8333333333333334	89.0	-70.0	0.1666666666666666	6.0	1.0	1.0	0.0463077372940361	2.563	n/a	stim	poldrack-single-stim	s561	False	1
566.945	0.997	567.942	0.944895047762695	end_round	0.997	columbia_card_task_fmri	16.0	0.8	71.0	-70.0	0.2	6.0	2.0	1.0	2.3911130451459783	0.997	1.0	stim	poldrack-single-stim	s561	False	1
568.698	1.5	567.947	n/a	-1.0	2.522	columbia_card_task_fmri	n/a	n/a	-1.0	n/a	n/a	n/a	n/a	n/a	n/a	n/a	n/a	ITI	poldrack-single-stim	s561	False	0
570.476	1.551	572.027	4.394895047762694	draw_card	1.551	columbia_card_task_fmri	23.0	0.75	89.0	-60.0	0.25	8.0	1.0	2.0	3.928309907793349	1.551	1.0	stim	poldrack-single-stim	s561	False	0
572.787	1.5	572.036	n/a	-1.0	2.454	columbia_card_task_fmri	n/a	n/a	-1.0	n/a	n/a	n/a	n/a	n/a	n/a	n/a	n/a	ITI	poldrack-single-stim	s561	False	0
574.496	1.222	575.718	4.894895047762694	draw_card	1.222	columbia_card_task_fmri	27.0	0.75	89.0	-70.0	0.25	8.0	1.0	2.0	9.981271354387715	1.222	1.0	stim	poldrack-single-stim	s561	False	0
576.476	1.5	575.725	n/a	-1.0	2.658	columbia_card_task_fmri	n/a	n/a	-1.0	n/a	n/a	n/a	n/a	n/a	n/a	n/a	n/a	ITI	poldrack-single-stim	s561	False	0
578.39	1.137	579.527	0.144895047762696	draw_card	1.137	columbia_card_task_fmri	16.0	0.7777777777777778	89.0	-65.0	0.2222222222222222	9.0	1.0	2.0	1.667465060952388	1.137	n/a	stim	poldrack-single-stim	s561	False	1
579.533	1.555	581.088	-2.1051049522373058	draw_card	1.555	columbia_card_task_fmri	16.0	0.75	89.0	-65.0	0.25	9.0	2.0	2.0	3.063860522605701	1.555	2.0	stim	poldrack-single-stim	s561	False	0
581.844	1.5	581.093	n/a	-1.0	2.386	columbia_card_task_fmri	n/a	n/a	-1.0	n/a	n/a	n/a	n/a	n/a	n/a	n/a	n/a	ITI	poldrack-single-stim	s561	False	0
583.486	2.131	585.617	5.344895047762695	draw_card	2.131	columbia_card_task_fmri	13.0	0.9	89.0	-85.0	0.1	10.0	1.0	1.0	-2.597553674659004	2.131	n/a	stim	poldrack-single-stim	s561	False	1
585.623	2.025	587.648	4.256006158873805	draw_card	2.025	columbia_card_task_fmri	13.0	0.8888888888888888	89.0	-85.0	0.1111111111111111	10.0	2.0	1.0	-1.2026640945603262	2.025	n/a	stim	poldrack-single-stim	s561	False	1
587.653	1.566	589.219	2.8948950477626942	draw_card	1.566	columbia_card_task_fmri	13.0	0.875	89.0	-85.0	0.125	10.0	3.0	1.0	0.4056587367704196	1.566	n/a	stim	poldrack-single-stim	s561	False	1
589.225	0.659	589.884	1.144895047762696	end_round	0.659	columbia_card_task_fmri	13.0	0.8571428571428572	71.0	-85.0	0.1428571428571428	10.0	4.0	1.0	2.284177757998499	0.659	3.0	stim	poldrack-single-stim	s561	False	1
590.645	1.5	589.894	n/a	-1.0	2.522	columbia_card_task_fmri	n/a	n/a	-1.0	n/a	n/a	n/a	n/a	n/a	n/a	n/a	n/a	ITI	poldrack-single-stim	s561	False	0
592.422	1.318	593.74	0.3448950477626953	draw_card	1.318	columbia_card_task_fmri	14.0	0.8	89.0	-65.0	0.2	10.0	1.0	2.0	-0.4029806553814623	1.318	n/a	stim	poldrack-single-stim	s561	False	1
593.746	1.634	595.38	-1.4106605077928591	draw_card	1.634	columbia_card_task_fmri	14.0	0.7777777777777778	89.0	-65.0	0.2222222222222222	10.0	2.0	2.0	0.8377095965095762	1.634	n/a	stim	poldrack-single-stim	s561	False	1
595.387	2.765	598.152	-3.6051049522373058	draw_card	2.765	columbia_card_task_fmri	14.0	0.75	89.0	-65.0	0.25	10.0	3.0	2.0	2.1994907070508205	2.765	3.0	stim	poldrack-single-stim	s561	False	0
598.913	1.5	598.162	n/a	-1.0	2.59	columbia_card_task_fmri	n/a	n/a	-1.0	n/a	n/a	n/a	n/a	n/a	n/a	n/a	n/a	ITI	poldrack-single-stim	s561	False	0
600.759	1.597	602.356	1.7448950477626957	draw_card	1.597	columbia_card_task_fmri	17.0	0.8	89.0	-70.0	0.2	10.0	1.0	2.0	2.7903466463931323	1.597	n/a	stim	poldrack-single-stim	s561	False	1
602.362	0.864	603.226	-0.1884382855706379	end_round	0.864	columbia_card_task_fmri	17.0	0.7777777777777778	71.0	-70.0	0.2222222222222222	10.0	2.0	2.0	4.157205704963872	0.864	1.0	stim	poldrack-single-stim	s561	False	1
603.987	1.5	603.236	n/a	-1.0	2.386	columbia_card_task_fmri	n/a	n/a	-1.0	n/a	n/a	n/a	n/a	n/a	n/a	n/a	n/a	ITI	poldrack-single-stim	s561	False	0
605.628	1.093	606.721	0.4782283810960281	draw_card	1.093	columbia_card_task_fmri	13.0	0.8333333333333334	89.0	-75.0	0.1666666666666666	12.0	1.0	2.0	0.7900379033491447	1.093	n/a	stim	poldrack-single-stim	s561	False	1
606.728	1.425	608.153	-0.8551049522373075	draw_card	1.425	columbia_card_task_fmri	13.0	0.8181818181818181	89.0	-75.0	0.1818181818181818	12.0	2.0	2.0	1.933139926724131	1.425	n/a	stim	poldrack-single-stim	s561	False	1
608.158	1.894	610.052	-2.4551049522373054	draw_card	1.894	columbia_card_task_fmri	13.0	0.8	89.0	-75.0	0.2	12.0	3.0	2.0	3.189597616895206	1.894	n/a	stim	poldrack-single-stim	s561	False	1
610.058	1.744	611.802	-4.410660507792859	draw_card	1.744	columbia_card_task_fmri	13.0	0.7777777777777778	89.0	-75.0	0.2222222222222222	12.0	4.0	2.0	4.57222459269007	1.744	n/a	stim	poldrack-single-stim	s561	False	1
611.808	2.351	614.159	-6.855104952237306	draw_card	2.351	columbia_card_task_fmri	13.0	0.75	89.0	-75.0	0.25	12.0	5.0	2.0	6.089746004765864	2.351	n/a	stim	poldrack-single-stim	s561	False	1
614.165	0.833	614.998	-9.997962095094447	end_round	0.833	columbia_card_task_fmri	13.0	0.7142857142857143	71.0	-75.0	0.2857142857142857	12.0	6.0	2.0	7.736477307340891	0.833	5.0	stim	poldrack-single-stim	s561	False	1
615.756	1.5	615.005	n/a	-1.0	2.59	columbia_card_task_fmri	n/a	n/a	-1.0	n/a	n/a	n/a	n/a	n/a	n/a	n/a	n/a	ITI	poldrack-single-stim	s561	False	0
617.602	1.349	618.951	2.144895047762696	draw_card	1.349	columbia_card_task_fmri	14.0	0.8333333333333334	89.0	-70.0	0.1666666666666666	12.0	1.0	2.0	-0.6973452736854071	1.349	n/a	stim	poldrack-single-stim	s561	False	1
618.958	1.577	620.535	0.8721677750354191	draw_card	1.577	columbia_card_task_fmri	14.0	0.8181818181818181	89.0	-70.0	0.1818181818181818	12.0	2.0	2.0	0.3935786758360109	1.577	n/a	stim	poldrack-single-stim	s561	False	1
620.541	1.958	622.499	-0.6551049522373047	draw_card	1.958	columbia_card_task_fmri	14.0	0.8	89.0	-70.0	0.2	12.0	3.0	2.0	1.5927004219268426	1.958	n/a	stim	poldrack-single-stim	s561	False	1
622.504	1.863	624.367	-2.521771618903972	draw_card	1.863	columbia_card_task_fmri	14.0	0.7777777777777778	89.0	-70.0	0.2222222222222222	12.0	4.0	2.0	2.9122517337134823	1.863	4.0	stim	poldrack-single-stim	s561	False	0
625.127	1.5	624.376	n/a	-1.0	2.318	columbia_card_task_fmri	n/a	n/a	-1.0	n/a	n/a	n/a	n/a	n/a	n/a	n/a	n/a	ITI	poldrack-single-stim	s561	False	0
626.702	0.72	627.422	2.144895047762696	draw_card	0.72	columbia_card_task_fmri	16.0	0.8333333333333334	89.0	-80.0	0.1666666666666666	12.0	1.0	2.0	3.7656340499831984	0.72	n/a	stim	poldrack-single-stim	s561	False	1
627.427	1.264	628.691	0.6903495932172374	draw_card	1.264	columbia_card_task_fmri	16.0	0.8181818181818181	89.0	-80.0	0.1818181818181818	12.0	2.0	2.0	5.0130645490728085	1.264	n/a	stim	poldrack-single-stim	s561	False	1
628.698	1.247	629.945	-1.055104952237305	draw_card	1.247	columbia_card_task_fmri	16.0	0.8	89.0	-80.0	0.2	12.0	3.0	2.0	6.384165757647232	1.247	n/a	stim	poldrack-single-stim	s561	False	1
629.952	2.006	631.958	-3.18843828557064	draw_card	2.006	columbia_card_task_fmri	16.0	0.7777777777777778	89.0	-80.0	0.2222222222222222	12.0	4.0	2.0	7.892915067566435	2.006	n/a	stim	poldrack-single-stim	s561	False	1
631.965	0.369	632.334	-5.855104952237306	draw_card	0.369	columbia_card_task_fmri	16.0	0.75	89.0	-80.0	0.25	12.0	5.0	2.0	9.548828005017748	0.369	n/a	stim	poldrack-single-stim	s561	False	1
632.341	1.252	633.593	-9.283676380808732	end_round	1.252	columbia_card_task_fmri	16.0	0.7142857142857143	71.0	-80.0	0.2857142857142857	12.0	6.0	2.0	11.345696693845165	1.252	5.0	stim	poldrack-single-stim	s561	False	1
634.353	1.5	633.602	n/a	-1.0	2.25	columbia_card_task_fmri	n/a	n/a	-1.0	n/a	n/a	n/a	n/a	n/a	n/a	n/a	n/a	ITI	poldrack-single-stim	s561	False	0
635.859	1.359	637.218	1.944895047762695	draw_card	1.359	columbia_card_task_fmri	16.0	0.8	89.0	-65.0	0.2	15.0	1.0	3.0	0.3952280002451758	1.359	n/a	stim	poldrack-single-stim	s561	False	1
637.225	1.216	638.441	0.7877521906198384	draw_card	1.216	columbia_card_task_fmri	16.0	0.7857142857142857	89.0	-65.0	0.2142857142857142	15.0	2.0	3.0	1.229845238572146	1.216	2.0	stim	poldrack-single-stim	s561	False	0
639.198	1.5	638.447	n/a	-1.0	2.454	columbia_card_task_fmri	n/a	n/a	-1.0	n/a	n/a	n/a	n/a	n/a	n/a	n/a	n/a	ITI	poldrack-single-stim	s561	False	0
640.909	1.612	642.521	0.2698950477626942	draw_card	1.612	columbia_card_task_fmri	15.0	0.8125	89.0	-75.0	0.1875	16.0	1.0	3.0	3.117844716374961	1.612	1.0	stim	poldrack-single-stim	s561	False	0
643.278	1.5	642.527	n/a	-1.0	3.27	columbia_card_task_fmri	n/a	n/a	-1.0	n/a	n/a	n/a	n/a	n/a	n/a	n/a	n/a	ITI	poldrack-single-stim	s561	False	0
645.804	1.165	646.969	0.8323950477626942	draw_card	1.165	columbia_card_task_fmri	14.0	0.6875	89.0	-35.0	0.3125	16.0	1.0	5.0	-9.262527635410926	1.165	1.0	stim	poldrack-single-stim	s561	False	0
647.729	1.5	646.978	n/a	-1.0	2.25	columbia_card_task_fmri	n/a	n/a	-1.0	n/a	n/a	n/a	n/a	n/a	n/a	n/a	n/a	ITI	poldrack-single-stim	s561	False	0
649.235	0.901	650.136	6.011561714429361	draw_card	0.901	columbia_card_task_fmri	16.0	0.8666666666666667	89.0	-75.0	0.1333333333333333	15.0	1.0	2.0	-1.067367343152224	0.901	n/a	stim	poldrack-single-stim	s561	False	1
650.143	1.194	651.337	5.144895047762696	draw_card	1.194	columbia_card_task_fmri	16.0	0.8571428571428572	89.0	-75.0	0.1428571428571428	15.0	2.0	2.0	-0.1601684346614575	1.194	n/a	stim	poldrack-single-stim	s561	False	1
651.343	0.881	652.224	4.144895047762694	draw_card	0.881	columbia_card_task_fmri	16.0	0.8461538461538461	89.0	-75.0	0.1538461538461538	15.0	3.0	2.0	0.827205237256976	0.881	n/a	stim	poldrack-single-stim	s561	False	1
652.229	0.64	652.869	2.978228381096028	draw_card	0.64	columbia_card_task_fmri	16.0	0.8333333333333334	89.0	-75.0	0.1666666666666666	15.0	4.0	2.0	1.9057667363358064	0.64	n/a	stim	poldrack-single-stim	s561	False	1
652.876	1.819	654.695	1.5994405023081475	draw_card	1.819	columbia_card_task_fmri	16.0	0.8181818181818181	89.0	-75.0	0.1818181818181818	15.0	5.0	2.0	3.087995933183606	1.819	n/a	stim	poldrack-single-stim	s561	False	1
654.7	0.868	655.568	-0.055104952237305	draw_card	0.868	columbia_card_task_fmri	16.0	0.8	89.0	-75.0	0.2	15.0	6.0	2.0	4.387449038298712	0.868	n/a	stim	poldrack-single-stim	s561	False	1
655.574	1.108	656.682	-2.0773271744595254	draw_card	1.108	columbia_card_task_fmri	16.0	0.7777777777777778	89.0	-75.0	0.2222222222222222	15.0	7.0	2.0	5.817376074757732	1.108	n/a	stim	poldrack-single-stim	s561	False	1
656.687	1.257	657.944	-4.605104952237306	draw_card	1.257	columbia_card_task_fmri	16.0	0.75	89.0	-75.0	0.25	15.0	8.0	2.0	7.386798556572671	1.257	n/a	stim	poldrack-single-stim	s561	False	1
657.949	0.884	658.833	-7.855104952237304	end_round	0.884	columbia_card_task_fmri	16.0	0.7142857142857143	71.0	-75.0	0.2857142857142857	15.0	9.0	2.0	9.08983562501615	0.884	8.0	stim	poldrack-single-stim	s561	False	1
659.591	1.5	658.84	n/a	-1.0	2.25	columbia_card_task_fmri	n/a	n/a	-1.0	n/a	n/a	n/a	n/a	n/a	n/a	n/a	n/a	ITI	poldrack-single-stim	s561	False	0
661.097	0.929	662.026	6.678228381096028	draw_card	0.929	columbia_card_task_fmri	16.0	0.8666666666666667	89.0	-70.0	0.1333333333333333	15.0	1.0	2.0	-2.762733642710714	0.929	n/a	stim	poldrack-single-stim	s561	False	1
662.033	1.141	663.174	5.8591807620484095	draw_card	1.141	columbia_card_task_fmri	16.0	0.8571428571428572	89.0	-70.0	0.1428571428571428	15.0	2.0	2.0	-1.9056191843782384	1.141	n/a	stim	poldrack-single-stim	s561	False	1
663.181	1.407	664.588	4.914125816993463	draw_card	1.407	columbia_card_task_fmri	16.0	0.8461538461538461	89.0	-70.0	0.1538461538461538	15.0	3.0	2.0	-0.9727413026174894	1.407	n/a	stim	poldrack-single-stim	s561	False	1
664.595	0.881	665.476	3.811561714429362	draw_card	0.881	columbia_card_task_fmri	16.0	0.8333333333333334	89.0	-70.0	0.1666666666666666	15.0	4.0	2.0	0.0463077372940361	0.881	n/a	stim	poldrack-single-stim	s561	False	1
665.483	0.815	666.298	2.508531411399056	draw_card	0.815	columbia_card_task_fmri	16.0	0.8181818181818181	89.0	-70.0	0.1818181818181818	15.0	5.0	2.0	1.1633220091134788	0.815	5.0	stim	poldrack-single-stim	s561	False	0
667.059	1.5	666.308	n/a	-1.0	2.318	columbia_card_task_fmri	n/a	n/a	-1.0	n/a	n/a	n/a	n/a	n/a	n/a	n/a	n/a	ITI	poldrack-single-stim	s561	False	0
668.632	0.855	669.487	4.019895047762694	draw_card	0.855	columbia_card_task_fmri	8.0	0.9375	89.0	-90.0	0.0625	16.0	1.0	1.0	-8.256896863145734	0.855	n/a	stim	poldrack-single-stim	s561	False	1
669.493	1.135	670.628	3.611561714429361	draw_card	1.135	columbia_card_task_fmri	8.0	0.9333333333333332	89.0	-90.0	0.0666666666666666	16.0	2.0	1.0	-7.536277773758965	1.135	n/a	stim	poldrack-single-stim	s561	False	1
670.634	1.634	672.268	3.144895047762695	draw_card	1.634	columbia_card_task_fmri	8.0	0.9285714285714286	89.0	-90.0	0.0714285714285714	16.0	3.0	1.0	-6.74585524429601	1.634	n/a	stim	poldrack-single-stim	s561	False	1
672.274	1.275	673.549	2.606433509301156	draw_card	1.275	columbia_card_task_fmri	8.0	0.9230769230769232	89.0	-90.0	0.0769230769230769	16.0	4.0	1.0	-5.873755804804322	1.275	n/a	stim	poldrack-single-stim	s561	False	1
673.555	1.308	674.863	1.9782283810960275	draw_card	1.308	columbia_card_task_fmri	8.0	0.9166666666666666	89.0	-90.0	0.0833333333333333	16.0	5.0	1.0	-4.905128461889305	1.308	n/a	stim	poldrack-single-stim	s561	False	1
674.869	2.071	676.94	1.235804138671785	draw_card	2.071	columbia_card_task_fmri	8.0	0.9090909090909092	89.0	-90.0	0.0909090909090909	16.0	6.0	1.0	-3.821141132558445	2.071	n/a	stim	poldrack-single-stim	s561	False	1
676.946	1.097	678.043	0.3448950477626944	end_round	1.097	columbia_card_task_fmri	8.0	0.9	71.0	-90.0	0.1	16.0	7.0	1.0	-2.597553674659004	1.097	6.0	stim	poldrack-single-stim	s561	False	1
678.801	1.5	678.05	n/a	-1.0	2.726	columbia_card_task_fmri	n/a	n/a	-1.0	n/a	n/a	n/a	n/a	n/a	n/a	n/a	n/a	ITI	poldrack-single-stim	s561	False	0
