duration	onset	block_duration	movement_onset	planning	condition	exp_stage	experiment_exp_id	key_press	problem_id	response_time	trial_id	trial_type	worker_id	junk
2.557	-5.913	2.557	-3.356	1	UA_with_intermediate	practice	ward_and_allport	71	0.0	2.557	to_hand	poldrack-single-stim	s561	False
0.1	-3.355	0.794	-2.561	0	UA_with_intermediate	practice	ward_and_allport	82	0.0	0.794	to_board	poldrack-single-stim	s561	False
0.1	-2.559	0.379	-2.18	0	UA_with_intermediate	practice	ward_and_allport	71	0.0	0.379	to_hand	poldrack-single-stim	s561	False
0.1	-2.179	0.78	-1.399	0	UA_with_intermediate	practice	ward_and_allport	89	0.0	0.78	to_board	poldrack-single-stim	s561	False
0.1	-1.398	0.669	-0.729	0	UA_with_intermediate	practice	ward_and_allport	82	0.0	0.669	to_hand	poldrack-single-stim	s561	False
0.1	-0.727	0.466	-0.261	0	UA_with_intermediate	practice	ward_and_allport	89	0.0	0.466	to_board	poldrack-single-stim	s561	False
1.0	-0.259	2.5	-0.26	0	UA_with_intermediate	practice	ward_and_allport	-1	0.0	n/a	feedback	poldrack-single-stim	s561	False
2.122	2.243	2.122	4.365	1	UA_with_intermediate	practice	ward_and_allport	89	1.0	2.122	to_hand	poldrack-single-stim	s561	False
0.1	4.365	0.524	4.889	0	UA_with_intermediate	practice	ward_and_allport	82	1.0	0.524	to_board	poldrack-single-stim	s561	False
0.1	4.891	0.431	5.322	0	UA_with_intermediate	practice	ward_and_allport	71	1.0	0.431	to_hand	poldrack-single-stim	s561	False
0.1	5.323	0.494	5.817	0	UA_with_intermediate	practice	ward_and_allport	89	1.0	0.494	to_board	poldrack-single-stim	s561	False
0.1	5.818	0.596	6.414	0	UA_with_intermediate	practice	ward_and_allport	82	1.0	0.596	to_hand	poldrack-single-stim	s561	False
0.1	6.416	0.393	6.809	0	UA_with_intermediate	practice	ward_and_allport	89	1.0	0.393	to_board	poldrack-single-stim	s561	False
1.0	6.813	2.1	6.812	0	UA_with_intermediate	practice	ward_and_allport	-1	1.0	n/a	feedback	poldrack-single-stim	s561	False
1.739	8.914	1.739	10.653	1	UA_without_intermediate	practice	ward_and_allport	82	2.0	1.739	to_hand	poldrack-single-stim	s561	False
0.1	10.654	0.433	11.087	0	UA_without_intermediate	practice	ward_and_allport	89	2.0	0.433	to_board	poldrack-single-stim	s561	False
0.1	11.09	1.11	12.2	0	UA_without_intermediate	practice	ward_and_allport	71	2.0	1.11	to_hand	poldrack-single-stim	s561	False
0.1	12.2	0.466	12.666	0	UA_without_intermediate	practice	ward_and_allport	82	2.0	0.466	to_board	poldrack-single-stim	s561	False
0.1	12.668	1.321	13.989	0	UA_without_intermediate	practice	ward_and_allport	71	2.0	1.321	to_hand	poldrack-single-stim	s561	False
0.1	13.99	0.893	14.883	0	UA_without_intermediate	practice	ward_and_allport	71	2.0	0.893	to_board	poldrack-single-stim	s561	False
0.1	14.884	0.318	15.202	0	UA_without_intermediate	practice	ward_and_allport	82	2.0	0.318	to_hand	poldrack-single-stim	s561	False
0.1	15.203	0.49	15.693	0	UA_without_intermediate	practice	ward_and_allport	89	2.0	0.49	to_board	poldrack-single-stim	s561	False
0.1	15.695	0.478	16.173	0	UA_without_intermediate	practice	ward_and_allport	71	2.0	0.478	to_hand	poldrack-single-stim	s561	False
0.1	16.173	0.331	16.504	0	UA_without_intermediate	practice	ward_and_allport	89	2.0	0.331	to_board	poldrack-single-stim	s561	False
1.0	16.507	2.2	16.506	0	UA_without_intermediate	practice	ward_and_allport	-1	2.0	n/a	feedback	poldrack-single-stim	s561	False
2.072	18.71	2.072	20.782	1	UA_without_intermediate	practice	ward_and_allport	71	3.0	2.072	to_hand	poldrack-single-stim	s561	False
0.1	20.783	0.558	21.341	0	UA_without_intermediate	practice	ward_and_allport	89	3.0	0.558	to_board	poldrack-single-stim	s561	False
0.1	21.343	0.634	21.977	0	UA_without_intermediate	practice	ward_and_allport	82	3.0	0.634	to_hand	poldrack-single-stim	s561	False
0.1	21.978	0.409	22.387	0	UA_without_intermediate	practice	ward_and_allport	89	3.0	0.409	to_board	poldrack-single-stim	s561	False
0.1	22.389	0.462	22.851	0	UA_without_intermediate	practice	ward_and_allport	71	3.0	0.462	to_hand	poldrack-single-stim	s561	False
0.1	22.851	0.394	23.245	0	UA_without_intermediate	practice	ward_and_allport	89	3.0	0.394	to_board	poldrack-single-stim	s561	False
1.0	23.248	2.0	23.247	0	UA_without_intermediate	practice	ward_and_allport	-1	3.0	n/a	feedback	poldrack-single-stim	s561	False
2.504	27.255	2.504	29.759	1	PA_with_intermediate	test	ward_and_allport	82	0.0	2.504	to_hand	poldrack-single-stim	s561	False
0.1	29.76	0.826	30.586	0	PA_with_intermediate	test	ward_and_allport	89	0.0	0.826	to_board	poldrack-single-stim	s561	False
0.1	30.587	1.753	32.34	0	PA_with_intermediate	test	ward_and_allport	82	0.0	1.753	to_hand	poldrack-single-stim	s561	False
0.1	32.341	0.578	32.919	0	PA_with_intermediate	test	ward_and_allport	71	0.0	0.578	to_board	poldrack-single-stim	s561	False
0.1	32.922	0.91	33.832	0	PA_with_intermediate	test	ward_and_allport	89	0.0	0.91	to_hand	poldrack-single-stim	s561	False
0.1	33.833	1.359	35.192	0	PA_with_intermediate	test	ward_and_allport	82	0.0	1.359	to_board	poldrack-single-stim	s561	False
1.0	35.196	3.768	35.195	0	PA_with_intermediate	test	ward_and_allport	-1	0.0	n/a	feedback	poldrack-single-stim	s561	False
1.793	38.966	1.793	40.759	1	PA_with_intermediate	test	ward_and_allport	71	1.0	1.793	to_hand	poldrack-single-stim	s561	False
0.1	40.759	1.152	41.911	0	PA_with_intermediate	test	ward_and_allport	89	1.0	1.152	to_board	poldrack-single-stim	s561	False
0.1	41.914	0.862	42.776	0	PA_with_intermediate	test	ward_and_allport	71	1.0	0.862	to_hand	poldrack-single-stim	s561	False
0.1	42.777	0.563	43.34	0	PA_with_intermediate	test	ward_and_allport	82	1.0	0.563	to_board	poldrack-single-stim	s561	False
0.1	43.341	0.454	43.795	0	PA_with_intermediate	test	ward_and_allport	89	1.0	0.454	to_hand	poldrack-single-stim	s561	False
0.1	43.797	0.398	44.195	0	PA_with_intermediate	test	ward_and_allport	71	1.0	0.398	to_board	poldrack-single-stim	s561	False
1.0	44.203	2.68	44.202	0	PA_with_intermediate	test	ward_and_allport	-1	1.0	n/a	feedback	poldrack-single-stim	s561	False
1.392	46.885	1.392	48.277	1	PA_without_intermediate	test	ward_and_allport	82	2.0	1.392	to_hand	poldrack-single-stim	s561	False
0.1	48.278	0.579	48.857	0	PA_without_intermediate	test	ward_and_allport	71	2.0	0.579	to_board	poldrack-single-stim	s561	False
0.1	48.859	0.939	49.798	0	PA_without_intermediate	test	ward_and_allport	82	2.0	0.939	to_hand	poldrack-single-stim	s561	False
0.1	49.798	0.456	50.254	0	PA_without_intermediate	test	ward_and_allport	71	2.0	0.456	to_board	poldrack-single-stim	s561	False
0.1	50.257	0.574	50.831	0	PA_without_intermediate	test	ward_and_allport	82	2.0	0.574	to_hand	poldrack-single-stim	s561	False
0.1	50.832	0.395	51.227	0	PA_without_intermediate	test	ward_and_allport	89	2.0	0.395	to_board	poldrack-single-stim	s561	False
1.0	51.232	3.224	51.231	0	PA_without_intermediate	test	ward_and_allport	-1	2.0	n/a	feedback	poldrack-single-stim	s561	False
1.316	54.459	1.316	55.775	1	PA_without_intermediate	test	ward_and_allport	89	3.0	1.316	to_hand	poldrack-single-stim	s561	False
0.1	55.776	0.584	56.36	0	PA_without_intermediate	test	ward_and_allport	71	3.0	0.584	to_board	poldrack-single-stim	s561	False
0.1	56.363	0.686	57.049	0	PA_without_intermediate	test	ward_and_allport	89	3.0	0.686	to_hand	poldrack-single-stim	s561	False
0.1	57.049	0.514	57.563	0	PA_without_intermediate	test	ward_and_allport	71	3.0	0.514	to_board	poldrack-single-stim	s561	False
0.1	57.565	0.399	57.964	0	PA_without_intermediate	test	ward_and_allport	89	3.0	0.399	to_hand	poldrack-single-stim	s561	False
0.1	57.966	0.294	58.26	0	PA_without_intermediate	test	ward_and_allport	82	3.0	0.294	to_board	poldrack-single-stim	s561	False
1.0	58.264	3.36	58.263	0	PA_without_intermediate	test	ward_and_allport	-1	3.0	n/a	feedback	poldrack-single-stim	s561	False
1.457	61.626	1.457	63.083	1	PA_without_intermediate	test	ward_and_allport	71	4.0	1.457	to_hand	poldrack-single-stim	s561	False
0.1	63.084	0.396	63.48	0	PA_without_intermediate	test	ward_and_allport	89	4.0	0.396	to_board	poldrack-single-stim	s561	False
0.1	63.482	0.49	63.972	0	PA_without_intermediate	test	ward_and_allport	71	4.0	0.49	to_hand	poldrack-single-stim	s561	False
0.1	63.973	0.41	64.383	0	PA_without_intermediate	test	ward_and_allport	89	4.0	0.41	to_board	poldrack-single-stim	s561	False
0.1	64.385	0.615	65.0	0	PA_without_intermediate	test	ward_and_allport	71	4.0	0.615	to_hand	poldrack-single-stim	s561	False
0.1	65.001	0.428	65.429	0	PA_without_intermediate	test	ward_and_allport	82	4.0	0.428	to_board	poldrack-single-stim	s561	False
1.0	65.435	2.0	65.434	0	PA_without_intermediate	test	ward_and_allport	-1	4.0	n/a	feedback	poldrack-single-stim	s561	False
1.166	67.437	1.166	68.603	1	PA_without_intermediate	test	ward_and_allport	82	5.0	1.166	to_hand	poldrack-single-stim	s561	False
0.1	68.604	0.49	69.094	0	PA_without_intermediate	test	ward_and_allport	71	5.0	0.49	to_board	poldrack-single-stim	s561	False
0.1	69.098	1.157	70.255	0	PA_without_intermediate	test	ward_and_allport	82	5.0	1.157	to_hand	poldrack-single-stim	s561	False
0.1	70.255	0.402	70.657	0	PA_without_intermediate	test	ward_and_allport	89	5.0	0.402	to_board	poldrack-single-stim	s561	False
0.1	70.661	0.725	71.386	0	PA_without_intermediate	test	ward_and_allport	82	5.0	0.725	to_hand	poldrack-single-stim	s561	False
0.1	71.387	0.39	71.777	0	PA_without_intermediate	test	ward_and_allport	71	5.0	0.39	to_board	poldrack-single-stim	s561	False
1.0	71.782	2.408	71.781	0	PA_without_intermediate	test	ward_and_allport	-1	5.0	n/a	feedback	poldrack-single-stim	s561	False
1.05	74.193	1.05	75.243	1	PA_with_intermediate	test	ward_and_allport	89	6.0	1.05	to_hand	poldrack-single-stim	s561	False
0.1	75.244	0.93	76.174	0	PA_with_intermediate	test	ward_and_allport	82	6.0	0.93	to_board	poldrack-single-stim	s561	False
0.1	76.177	0.633	76.81	0	PA_with_intermediate	test	ward_and_allport	89	6.0	0.633	to_hand	poldrack-single-stim	s561	False
0.1	76.812	0.308	77.12	0	PA_with_intermediate	test	ward_and_allport	71	6.0	0.308	to_board	poldrack-single-stim	s561	False
0.1	77.123	0.485	77.608	0	PA_with_intermediate	test	ward_and_allport	82	6.0	0.485	to_hand	poldrack-single-stim	s561	False
0.1	77.609	0.511	78.12	0	PA_with_intermediate	test	ward_and_allport	71	6.0	0.511	to_board	poldrack-single-stim	s561	False
1.0	78.124	2.136	78.123	0	PA_with_intermediate	test	ward_and_allport	-1	6.0	n/a	feedback	poldrack-single-stim	s561	False
1.501	80.263	1.501	81.764	1	PA_without_intermediate	test	ward_and_allport	71	7.0	1.501	to_hand	poldrack-single-stim	s561	False
0.1	81.765	0.907	82.672	0	PA_without_intermediate	test	ward_and_allport	82	7.0	0.907	to_board	poldrack-single-stim	s561	False
0.1	82.674	0.427	83.101	0	PA_without_intermediate	test	ward_and_allport	71	7.0	0.427	to_hand	poldrack-single-stim	s561	False
0.1	83.102	0.666	83.768	0	PA_without_intermediate	test	ward_and_allport	82	7.0	0.666	to_board	poldrack-single-stim	s561	False
0.1	83.772	0.841	84.613	0	PA_without_intermediate	test	ward_and_allport	71	7.0	0.841	to_hand	poldrack-single-stim	s561	False
0.1	84.614	0.347	84.961	0	PA_without_intermediate	test	ward_and_allport	89	7.0	0.347	to_board	poldrack-single-stim	s561	False
1.0	84.967	5.128	84.966	0	PA_without_intermediate	test	ward_and_allport	-1	7.0	n/a	feedback	poldrack-single-stim	s561	False
1.391	90.097	1.391	91.488	1	PA_without_intermediate	test	ward_and_allport	82	8.0	1.391	to_hand	poldrack-single-stim	s561	False
0.1	91.489	0.518	92.007	0	PA_without_intermediate	test	ward_and_allport	71	8.0	0.518	to_board	poldrack-single-stim	s561	False
0.1	92.01	0.493	92.503	0	PA_without_intermediate	test	ward_and_allport	82	8.0	0.493	to_hand	poldrack-single-stim	s561	False
0.1	92.504	0.457	92.961	0	PA_without_intermediate	test	ward_and_allport	71	8.0	0.457	to_board	poldrack-single-stim	s561	False
0.1	92.964	0.658	93.622	0	PA_without_intermediate	test	ward_and_allport	82	8.0	0.658	to_hand	poldrack-single-stim	s561	False
0.1	93.623	0.462	94.085	0	PA_without_intermediate	test	ward_and_allport	89	8.0	0.462	to_board	poldrack-single-stim	s561	False
1.0	94.09	2.136	94.089	0	PA_without_intermediate	test	ward_and_allport	-1	8.0	n/a	feedback	poldrack-single-stim	s561	False
0.996	96.23	0.996	97.226	1	PA_without_intermediate	test	ward_and_allport	89	9.0	0.996	to_hand	poldrack-single-stim	s561	False
0.1	97.226	0.42	97.646	0	PA_without_intermediate	test	ward_and_allport	82	9.0	0.42	to_board	poldrack-single-stim	s561	False
0.1	97.65	0.937	98.587	0	PA_without_intermediate	test	ward_and_allport	89	9.0	0.937	to_hand	poldrack-single-stim	s561	False
0.1	98.587	0.49	99.077	0	PA_without_intermediate	test	ward_and_allport	71	9.0	0.49	to_board	poldrack-single-stim	s561	False
0.1	99.082	0.405	99.487	0	PA_without_intermediate	test	ward_and_allport	89	9.0	0.405	to_hand	poldrack-single-stim	s561	False
0.1	99.488	0.653	100.141	0	PA_without_intermediate	test	ward_and_allport	82	9.0	0.653	to_board	poldrack-single-stim	s561	False
1.0	100.148	5.264	100.147	0	PA_without_intermediate	test	ward_and_allport	-1	9.0	n/a	feedback	poldrack-single-stim	s561	False
0.952	105.417	0.952	106.369	1	PA_with_intermediate	test	ward_and_allport	89	10.0	0.952	to_hand	poldrack-single-stim	s561	False
0.1	106.37	1.727	108.097	0	PA_with_intermediate	test	ward_and_allport	71	10.0	1.727	to_board	poldrack-single-stim	s561	False
0.1	108.102	0.572	108.674	0	PA_with_intermediate	test	ward_and_allport	89	10.0	0.572	to_hand	poldrack-single-stim	s561	False
0.1	108.675	0.419	109.094	0	PA_with_intermediate	test	ward_and_allport	82	10.0	0.419	to_board	poldrack-single-stim	s561	False
0.1	109.099	0.883	109.982	0	PA_with_intermediate	test	ward_and_allport	71	10.0	0.883	to_hand	poldrack-single-stim	s561	False
0.1	109.984	0.35	110.334	0	PA_with_intermediate	test	ward_and_allport	89	10.0	0.35	to_board	poldrack-single-stim	s561	False
1.0	110.343	4.04	110.342	0	PA_with_intermediate	test	ward_and_allport	-1	10.0	n/a	feedback	poldrack-single-stim	s561	False
2.103	114.388	2.103	116.491	1	PA_with_intermediate	test	ward_and_allport	71	11.0	2.103	to_hand	poldrack-single-stim	s561	False
0.1	116.491	0.758	117.249	0	PA_with_intermediate	test	ward_and_allport	82	11.0	0.758	to_board	poldrack-single-stim	s561	False
0.1	117.252	0.739	117.991	0	PA_with_intermediate	test	ward_and_allport	71	11.0	0.739	to_hand	poldrack-single-stim	s561	False
0.1	117.992	0.384	118.376	0	PA_with_intermediate	test	ward_and_allport	89	11.0	0.384	to_board	poldrack-single-stim	s561	False
0.1	118.38	0.677	119.057	0	PA_with_intermediate	test	ward_and_allport	82	11.0	0.677	to_hand	poldrack-single-stim	s561	False
0.1	119.057	0.358	119.415	0	PA_with_intermediate	test	ward_and_allport	71	11.0	0.358	to_board	poldrack-single-stim	s561	False
1.0	119.421	2.136	119.42	0	PA_with_intermediate	test	ward_and_allport	-1	11.0	n/a	feedback	poldrack-single-stim	s561	False
1.455	121.56	1.455	123.015	1	PA_with_intermediate	test	ward_and_allport	89	12.0	1.455	to_hand	poldrack-single-stim	s561	False
0.1	123.016	0.4	123.416	0	PA_with_intermediate	test	ward_and_allport	71	12.0	0.4	to_board	poldrack-single-stim	s561	False
0.1	123.421	0.564	123.985	0	PA_with_intermediate	test	ward_and_allport	89	12.0	0.564	to_hand	poldrack-single-stim	s561	False
0.1	123.985	0.54	124.525	0	PA_with_intermediate	test	ward_and_allport	82	12.0	0.54	to_board	poldrack-single-stim	s561	False
0.1	124.53	0.383	124.913	0	PA_with_intermediate	test	ward_and_allport	71	12.0	0.383	to_hand	poldrack-single-stim	s561	False
0.1	124.915	0.292	125.207	0	PA_with_intermediate	test	ward_and_allport	89	12.0	0.292	to_board	poldrack-single-stim	s561	False
1.0	125.213	2.408	125.212	0	PA_with_intermediate	test	ward_and_allport	-1	12.0	n/a	feedback	poldrack-single-stim	s561	False
1.134	127.624	1.134	128.758	1	PA_without_intermediate	test	ward_and_allport	71	13.0	1.134	to_hand	poldrack-single-stim	s561	False
0.1	128.76	0.716	129.476	0	PA_without_intermediate	test	ward_and_allport	82	13.0	0.716	to_board	poldrack-single-stim	s561	False
0.1	129.479	0.367	129.846	0	PA_without_intermediate	test	ward_and_allport	71	13.0	0.367	to_hand	poldrack-single-stim	s561	False
0.1	129.848	0.42	130.268	0	PA_without_intermediate	test	ward_and_allport	82	13.0	0.42	to_board	poldrack-single-stim	s561	False
0.1	130.273	0.521	130.794	0	PA_without_intermediate	test	ward_and_allport	71	13.0	0.521	to_hand	poldrack-single-stim	s561	False
0.1	130.795	0.321	131.116	0	PA_without_intermediate	test	ward_and_allport	89	13.0	0.321	to_board	poldrack-single-stim	s561	False
1.0	131.122	2.68	131.121	0	PA_without_intermediate	test	ward_and_allport	-1	13.0	n/a	feedback	poldrack-single-stim	s561	False
1.273	133.807	1.273	135.08	1	PA_with_intermediate	test	ward_and_allport	71	14.0	1.273	to_hand	poldrack-single-stim	s561	False
0.1	135.081	0.729	135.81	0	PA_with_intermediate	test	ward_and_allport	89	14.0	0.729	to_board	poldrack-single-stim	s561	False
0.1	135.814	0.417	136.231	0	PA_with_intermediate	test	ward_and_allport	71	14.0	0.417	to_hand	poldrack-single-stim	s561	False
0.1	136.232	0.453	136.685	0	PA_with_intermediate	test	ward_and_allport	82	14.0	0.453	to_board	poldrack-single-stim	s561	False
0.1	136.69	0.694	137.384	0	PA_with_intermediate	test	ward_and_allport	89	14.0	0.694	to_hand	poldrack-single-stim	s561	False
0.1	137.385	0.423	137.808	0	PA_with_intermediate	test	ward_and_allport	82	14.0	0.423	to_board	poldrack-single-stim	s561	False
1.0	137.817	4.72	137.816	0	PA_with_intermediate	test	ward_and_allport	-1	14.0	n/a	feedback	poldrack-single-stim	s561	False
1.345	147.543	1.345	148.888	1	PA_without_intermediate	test	ward_and_allport	89	15.0	1.345	to_hand	poldrack-single-stim	s561	False
0.1	148.889	0.5	149.389	0	PA_without_intermediate	test	ward_and_allport	82	15.0	0.5	to_board	poldrack-single-stim	s561	False
0.1	149.394	0.458	149.852	0	PA_without_intermediate	test	ward_and_allport	89	15.0	0.458	to_hand	poldrack-single-stim	s561	False
0.1	149.852	0.543	150.395	0	PA_without_intermediate	test	ward_and_allport	82	15.0	0.543	to_board	poldrack-single-stim	s561	False
0.1	150.399	0.883	151.282	0	PA_without_intermediate	test	ward_and_allport	89	15.0	0.883	to_hand	poldrack-single-stim	s561	False
0.1	151.283	0.388	151.671	0	PA_without_intermediate	test	ward_and_allport	71	15.0	0.388	to_board	poldrack-single-stim	s561	False
1.0	151.678	3.224	151.677	0	PA_without_intermediate	test	ward_and_allport	-1	15.0	n/a	feedback	poldrack-single-stim	s561	False
1.167	154.907	1.167	156.074	1	PA_without_intermediate	test	ward_and_allport	89	16.0	1.167	to_hand	poldrack-single-stim	s561	False
0.1	156.075	0.514	156.589	0	PA_without_intermediate	test	ward_and_allport	82	16.0	0.514	to_board	poldrack-single-stim	s561	False
0.1	156.594	0.446	157.04	0	PA_without_intermediate	test	ward_and_allport	89	16.0	0.446	to_hand	poldrack-single-stim	s561	False
0.1	157.041	0.649	157.69	0	PA_without_intermediate	test	ward_and_allport	82	16.0	0.649	to_board	poldrack-single-stim	s561	False
0.1	157.694	0.42	158.114	0	PA_without_intermediate	test	ward_and_allport	89	16.0	0.42	to_hand	poldrack-single-stim	s561	False
0.1	158.115	0.322	158.437	0	PA_without_intermediate	test	ward_and_allport	71	16.0	0.322	to_board	poldrack-single-stim	s561	False
1.0	158.443	2.272	158.442	0	PA_without_intermediate	test	ward_and_allport	-1	16.0	n/a	feedback	poldrack-single-stim	s561	False
1.382	160.721	1.382	162.103	1	PA_with_intermediate	test	ward_and_allport	89	17.0	1.382	to_hand	poldrack-single-stim	s561	False
0.1	162.104	0.702	162.806	0	PA_with_intermediate	test	ward_and_allport	71	17.0	0.702	to_board	poldrack-single-stim	s561	False
0.1	162.81	0.328	163.138	0	PA_with_intermediate	test	ward_and_allport	89	17.0	0.328	to_hand	poldrack-single-stim	s561	False
0.1	163.139	0.551	163.69	0	PA_with_intermediate	test	ward_and_allport	82	17.0	0.551	to_board	poldrack-single-stim	s561	False
0.1	163.694	0.385	164.079	0	PA_with_intermediate	test	ward_and_allport	71	17.0	0.385	to_hand	poldrack-single-stim	s561	False
0.1	164.08	0.409	164.489	0	PA_with_intermediate	test	ward_and_allport	82	17.0	0.409	to_board	poldrack-single-stim	s561	False
1.0	164.497	3.632	164.496	0	PA_with_intermediate	test	ward_and_allport	-1	17.0	n/a	feedback	poldrack-single-stim	s561	False
0.771	168.134	0.771	168.905	1	PA_without_intermediate	test	ward_and_allport	89	18.0	0.771	to_hand	poldrack-single-stim	s561	False
0.1	168.906	0.426	169.332	0	PA_without_intermediate	test	ward_and_allport	82	18.0	0.426	to_board	poldrack-single-stim	s561	False
0.1	169.336	0.581	169.917	0	PA_without_intermediate	test	ward_and_allport	89	18.0	0.581	to_hand	poldrack-single-stim	s561	False
0.1	169.918	0.419	170.337	0	PA_without_intermediate	test	ward_and_allport	71	18.0	0.419	to_board	poldrack-single-stim	s561	False
0.1	170.342	0.359	170.701	0	PA_without_intermediate	test	ward_and_allport	89	18.0	0.359	to_hand	poldrack-single-stim	s561	False
0.1	170.703	0.389	171.092	0	PA_without_intermediate	test	ward_and_allport	82	18.0	0.389	to_board	poldrack-single-stim	s561	False
1.0	171.097	2.408	171.096	0	PA_without_intermediate	test	ward_and_allport	-1	18.0	n/a	feedback	poldrack-single-stim	s561	False
1.145	173.51	1.145	174.655	1	PA_without_intermediate	test	ward_and_allport	71	19.0	1.145	to_hand	poldrack-single-stim	s561	False
0.1	174.655	0.368	175.023	0	PA_without_intermediate	test	ward_and_allport	89	19.0	0.368	to_board	poldrack-single-stim	s561	False
0.1	175.029	0.484	175.513	0	PA_without_intermediate	test	ward_and_allport	71	19.0	0.484	to_hand	poldrack-single-stim	s561	False
0.1	175.514	0.368	175.882	0	PA_without_intermediate	test	ward_and_allport	82	19.0	0.368	to_board	poldrack-single-stim	s561	False
0.1	175.886	0.529	176.415	0	PA_without_intermediate	test	ward_and_allport	71	19.0	0.529	to_hand	poldrack-single-stim	s561	False
0.1	176.416	0.296	176.712	0	PA_without_intermediate	test	ward_and_allport	89	19.0	0.296	to_board	poldrack-single-stim	s561	False
1.0	176.722	2.0	176.721	0	PA_without_intermediate	test	ward_and_allport	-1	19.0	n/a	feedback	poldrack-single-stim	s561	False
1.472	178.727	1.472	180.199	1	PA_with_intermediate	test	ward_and_allport	82	20.0	1.472	to_hand	poldrack-single-stim	s561	False
0.1	180.199	0.549	180.748	0	PA_with_intermediate	test	ward_and_allport	71	20.0	0.549	to_board	poldrack-single-stim	s561	False
0.1	180.753	0.727	181.48	0	PA_with_intermediate	test	ward_and_allport	82	20.0	0.727	to_hand	poldrack-single-stim	s561	False
0.1	181.481	0.384	181.865	0	PA_with_intermediate	test	ward_and_allport	89	20.0	0.384	to_board	poldrack-single-stim	s561	False
0.1	181.87	0.523	182.393	0	PA_with_intermediate	test	ward_and_allport	71	20.0	0.523	to_hand	poldrack-single-stim	s561	False
0.1	182.394	0.362	182.756	0	PA_with_intermediate	test	ward_and_allport	89	20.0	0.362	to_board	poldrack-single-stim	s561	False
1.0	182.765	2.0	182.764	0	PA_with_intermediate	test	ward_and_allport	-1	20.0	n/a	feedback	poldrack-single-stim	s561	False
1.268	184.769	1.268	186.037	1	PA_with_intermediate	test	ward_and_allport	89	21.0	1.268	to_hand	poldrack-single-stim	s561	False
0.1	186.038	1.01	187.048	0	PA_with_intermediate	test	ward_and_allport	82	21.0	1.01	to_board	poldrack-single-stim	s561	False
0.1	187.055	0.621	187.676	0	PA_with_intermediate	test	ward_and_allport	89	21.0	0.621	to_hand	poldrack-single-stim	s561	False
0.1	187.677	0.422	188.099	0	PA_with_intermediate	test	ward_and_allport	71	21.0	0.422	to_board	poldrack-single-stim	s561	False
0.1	188.104	0.735	188.839	0	PA_with_intermediate	test	ward_and_allport	82	21.0	0.735	to_hand	poldrack-single-stim	s561	False
0.1	188.841	0.444	189.285	0	PA_with_intermediate	test	ward_and_allport	89	21.0	0.444	to_board	poldrack-single-stim	s561	False
1.0	189.291	2.0	189.29	0	PA_with_intermediate	test	ward_and_allport	-1	21.0	n/a	feedback	poldrack-single-stim	s561	False
0.991	191.297	0.991	192.288	1	PA_with_intermediate	test	ward_and_allport	89	22.0	0.991	to_hand	poldrack-single-stim	s561	False
0.1	192.288	0.712	193.0	0	PA_with_intermediate	test	ward_and_allport	82	22.0	0.712	to_board	poldrack-single-stim	s561	False
0.1	193.006	0.45	193.456	0	PA_with_intermediate	test	ward_and_allport	89	22.0	0.45	to_hand	poldrack-single-stim	s561	False
0.1	193.457	0.431	193.888	0	PA_with_intermediate	test	ward_and_allport	71	22.0	0.431	to_board	poldrack-single-stim	s561	False
0.1	193.894	0.422	194.316	0	PA_with_intermediate	test	ward_and_allport	82	22.0	0.422	to_hand	poldrack-single-stim	s561	False
0.1	194.316	0.395	194.711	0	PA_with_intermediate	test	ward_and_allport	89	22.0	0.395	to_board	poldrack-single-stim	s561	False
1.0	194.72	2.408	194.719	0	PA_with_intermediate	test	ward_and_allport	-1	22.0	n/a	feedback	poldrack-single-stim	s561	False
0.971	197.133	0.971	198.104	1	PA_without_intermediate	test	ward_and_allport	82	23.0	0.971	to_hand	poldrack-single-stim	s561	False
0.1	198.105	0.384	198.489	0	PA_without_intermediate	test	ward_and_allport	89	23.0	0.384	to_board	poldrack-single-stim	s561	False
0.1	198.496	0.935	199.431	0	PA_without_intermediate	test	ward_and_allport	82	23.0	0.935	to_hand	poldrack-single-stim	s561	False
0.1	199.432	0.459	199.891	0	PA_without_intermediate	test	ward_and_allport	71	23.0	0.459	to_board	poldrack-single-stim	s561	False
0.1	199.897	0.415	200.312	0	PA_without_intermediate	test	ward_and_allport	82	23.0	0.415	to_hand	poldrack-single-stim	s561	False
0.1	200.314	0.338	200.652	0	PA_without_intermediate	test	ward_and_allport	89	23.0	0.338	to_board	poldrack-single-stim	s561	False
1.0	200.664	2.816	200.663	0	PA_without_intermediate	test	ward_and_allport	-1	23.0	n/a	feedback	poldrack-single-stim	s561	False
0.893	203.486	0.893	204.379	1	PA_with_intermediate	test	ward_and_allport	82	24.0	0.893	to_hand	poldrack-single-stim	s561	False
0.1	204.38	0.47	204.85	0	PA_with_intermediate	test	ward_and_allport	89	24.0	0.47	to_board	poldrack-single-stim	s561	False
0.1	204.857	0.463	205.32	0	PA_with_intermediate	test	ward_and_allport	82	24.0	0.463	to_hand	poldrack-single-stim	s561	False
0.1	205.32	0.345	205.665	0	PA_with_intermediate	test	ward_and_allport	71	24.0	0.345	to_board	poldrack-single-stim	s561	False
0.1	205.671	0.335	206.006	0	PA_with_intermediate	test	ward_and_allport	89	24.0	0.335	to_hand	poldrack-single-stim	s561	False
0.1	206.007	0.393	206.4	0	PA_with_intermediate	test	ward_and_allport	71	24.0	0.393	to_board	poldrack-single-stim	s561	False
1.0	206.411	4.176	206.41	0	PA_with_intermediate	test	ward_and_allport	-1	24.0	n/a	feedback	poldrack-single-stim	s561	False
1.699	210.593	1.699	212.292	1	PA_with_intermediate	test	ward_and_allport	71	25.0	1.699	to_hand	poldrack-single-stim	s561	False
0.1	212.294	0.547	212.841	0	PA_with_intermediate	test	ward_and_allport	82	25.0	0.547	to_board	poldrack-single-stim	s561	False
0.1	212.847	0.398	213.245	0	PA_with_intermediate	test	ward_and_allport	71	25.0	0.398	to_hand	poldrack-single-stim	s561	False
0.1	213.247	0.35	213.597	0	PA_with_intermediate	test	ward_and_allport	89	25.0	0.35	to_board	poldrack-single-stim	s561	False
0.1	213.604	1.104	214.708	0	PA_with_intermediate	test	ward_and_allport	82	25.0	1.104	to_hand	poldrack-single-stim	s561	False
0.1	214.708	0.357	215.065	0	PA_with_intermediate	test	ward_and_allport	89	25.0	0.357	to_board	poldrack-single-stim	s561	False
1.0	215.075	3.36	215.074	0	PA_with_intermediate	test	ward_and_allport	-1	25.0	n/a	feedback	poldrack-single-stim	s561	False
1.006	218.442	1.006	219.448	1	PA_with_intermediate	test	ward_and_allport	71	26.0	1.006	to_hand	poldrack-single-stim	s561	False
0.1	219.449	0.494	219.943	0	PA_with_intermediate	test	ward_and_allport	82	26.0	0.494	to_board	poldrack-single-stim	s561	False
0.1	219.95	0.411	220.361	0	PA_with_intermediate	test	ward_and_allport	71	26.0	0.411	to_hand	poldrack-single-stim	s561	False
0.1	220.362	0.371	220.733	0	PA_with_intermediate	test	ward_and_allport	89	26.0	0.371	to_board	poldrack-single-stim	s561	False
0.1	220.74	0.864	221.604	0	PA_with_intermediate	test	ward_and_allport	82	26.0	0.864	to_hand	poldrack-single-stim	s561	False
0.1	221.604	0.533	222.137	0	PA_with_intermediate	test	ward_and_allport	89	26.0	0.533	to_board	poldrack-single-stim	s561	False
1.0	222.146	2.0	222.145	0	PA_with_intermediate	test	ward_and_allport	-1	26.0	n/a	feedback	poldrack-single-stim	s561	False
1.147	224.154	1.147	225.301	1	PA_without_intermediate	test	ward_and_allport	89	27.0	1.147	to_hand	poldrack-single-stim	s561	False
0.1	225.301	0.351	225.652	0	PA_without_intermediate	test	ward_and_allport	71	27.0	0.351	to_board	poldrack-single-stim	s561	False
0.1	225.659	0.482	226.141	0	PA_without_intermediate	test	ward_and_allport	89	27.0	0.482	to_hand	poldrack-single-stim	s561	False
0.1	226.142	0.321	226.463	0	PA_without_intermediate	test	ward_and_allport	82	27.0	0.321	to_board	poldrack-single-stim	s561	False
0.1	226.47	0.378	226.848	0	PA_without_intermediate	test	ward_and_allport	89	27.0	0.378	to_hand	poldrack-single-stim	s561	False
0.1	226.848	0.327	227.175	0	PA_without_intermediate	test	ward_and_allport	71	27.0	0.327	to_board	poldrack-single-stim	s561	False
1.0	227.184	2.408	227.183	0	PA_without_intermediate	test	ward_and_allport	-1	27.0	n/a	feedback	poldrack-single-stim	s561	False
1.184	229.599	1.184	230.783	1	PA_with_intermediate	test	ward_and_allport	82	28.0	1.184	to_hand	poldrack-single-stim	s561	False
0.1	230.784	0.353	231.137	0	PA_with_intermediate	test	ward_and_allport	89	28.0	0.353	to_board	poldrack-single-stim	s561	False
0.1	231.142	0.572	231.714	0	PA_with_intermediate	test	ward_and_allport	82	28.0	0.572	to_hand	poldrack-single-stim	s561	False
0.1	231.715	0.374	232.089	0	PA_with_intermediate	test	ward_and_allport	71	28.0	0.374	to_board	poldrack-single-stim	s561	False
0.1	232.097	0.535	232.632	0	PA_with_intermediate	test	ward_and_allport	89	28.0	0.535	to_hand	poldrack-single-stim	s561	False
0.1	232.633	0.314	232.947	0	PA_with_intermediate	test	ward_and_allport	82	28.0	0.314	to_board	poldrack-single-stim	s561	False
1.0	232.958	2.816	232.957	0	PA_with_intermediate	test	ward_and_allport	-1	28.0	n/a	feedback	poldrack-single-stim	s561	False
0.884	235.782	0.884	236.666	1	PA_without_intermediate	test	ward_and_allport	71	29.0	0.884	to_hand	poldrack-single-stim	s561	False
0.1	236.667	0.5	237.167	0	PA_without_intermediate	test	ward_and_allport	82	29.0	0.5	to_board	poldrack-single-stim	s561	False
0.1	237.173	0.674	237.847	0	PA_without_intermediate	test	ward_and_allport	71	29.0	0.674	to_hand	poldrack-single-stim	s561	False
0.1	237.848	0.594	238.442	0	PA_without_intermediate	test	ward_and_allport	89	29.0	0.594	to_board	poldrack-single-stim	s561	False
0.1	238.45	0.344	238.794	0	PA_without_intermediate	test	ward_and_allport	71	29.0	0.344	to_hand	poldrack-single-stim	s561	False
0.1	238.794	0.358	239.152	0	PA_without_intermediate	test	ward_and_allport	82	29.0	0.358	to_board	poldrack-single-stim	s561	False
1.0	239.161	3.088	239.16	0	PA_without_intermediate	test	ward_and_allport	-1	29.0	n/a	feedback	poldrack-single-stim	s561	False
0.755	247.259	0.755	248.014	1	PA_without_intermediate	test	ward_and_allport	89	30.0	0.755	to_hand	poldrack-single-stim	s561	False
0.1	248.014	0.362	248.376	0	PA_without_intermediate	test	ward_and_allport	71	30.0	0.362	to_board	poldrack-single-stim	s561	False
0.1	248.384	0.459	248.843	0	PA_without_intermediate	test	ward_and_allport	89	30.0	0.459	to_hand	poldrack-single-stim	s561	False
0.1	248.844	0.237	249.081	0	PA_without_intermediate	test	ward_and_allport	82	30.0	0.237	to_board	poldrack-single-stim	s561	False
0.1	249.087	0.534	249.621	0	PA_without_intermediate	test	ward_and_allport	89	30.0	0.534	to_hand	poldrack-single-stim	s561	False
0.1	249.623	0.229	249.852	0	PA_without_intermediate	test	ward_and_allport	71	30.0	0.229	to_board	poldrack-single-stim	s561	False
1.0	249.863	2.136	249.862	0	PA_without_intermediate	test	ward_and_allport	-1	30.0	n/a	feedback	poldrack-single-stim	s561	False
0.842	252.005	0.842	252.847	1	PA_without_intermediate	test	ward_and_allport	82	31.0	0.842	to_hand	poldrack-single-stim	s561	False
0.1	252.849	0.955	253.804	0	PA_without_intermediate	test	ward_and_allport	71	31.0	0.955	to_board	poldrack-single-stim	s561	False
0.1	253.814	0.731	254.545	0	PA_without_intermediate	test	ward_and_allport	82	31.0	0.731	to_hand	poldrack-single-stim	s561	False
0.1	254.546	0.212	254.758	0	PA_without_intermediate	test	ward_and_allport	89	31.0	0.212	to_board	poldrack-single-stim	s561	False
0.1	254.766	0.598	255.364	0	PA_without_intermediate	test	ward_and_allport	82	31.0	0.598	to_hand	poldrack-single-stim	s561	False
0.1	255.365	0.295	255.66	0	PA_without_intermediate	test	ward_and_allport	71	31.0	0.295	to_board	poldrack-single-stim	s561	False
1.0	255.668	7.168	255.667	0	PA_without_intermediate	test	ward_and_allport	-1	31.0	n/a	feedback	poldrack-single-stim	s561	False
0.969	262.842	0.969	263.811	1	PA_without_intermediate	test	ward_and_allport	82	32.0	0.969	to_hand	poldrack-single-stim	s561	False
0.1	263.813	0.417	264.23	0	PA_without_intermediate	test	ward_and_allport	89	32.0	0.417	to_board	poldrack-single-stim	s561	False
0.1	264.238	0.327	264.565	0	PA_without_intermediate	test	ward_and_allport	82	32.0	0.327	to_hand	poldrack-single-stim	s561	False
0.1	264.566	0.306	264.872	0	PA_without_intermediate	test	ward_and_allport	89	32.0	0.306	to_board	poldrack-single-stim	s561	False
0.1	264.881	0.659	265.54	0	PA_without_intermediate	test	ward_and_allport	82	32.0	0.659	to_hand	poldrack-single-stim	s561	False
0.1	265.541	0.193	265.734	0	PA_without_intermediate	test	ward_and_allport	71	32.0	0.193	to_board	poldrack-single-stim	s561	False
1.0	265.743	2.816	265.742	0	PA_without_intermediate	test	ward_and_allport	-1	32.0	n/a	feedback	poldrack-single-stim	s561	False
1.76	268.569	1.76	270.329	1	PA_with_intermediate	test	ward_and_allport	71	33.0	1.76	to_hand	poldrack-single-stim	s561	False
0.1	270.329	0.399	270.728	0	PA_with_intermediate	test	ward_and_allport	89	33.0	0.399	to_board	poldrack-single-stim	s561	False
0.1	270.735	0.662	271.397	0	PA_with_intermediate	test	ward_and_allport	71	33.0	0.662	to_hand	poldrack-single-stim	s561	False
0.1	271.397	0.236	271.633	0	PA_with_intermediate	test	ward_and_allport	82	33.0	0.236	to_board	poldrack-single-stim	s561	False
0.1	271.64	0.759	272.399	0	PA_with_intermediate	test	ward_and_allport	89	33.0	0.759	to_hand	poldrack-single-stim	s561	False
0.1	272.401	0.215	272.616	0	PA_with_intermediate	test	ward_and_allport	71	33.0	0.215	to_board	poldrack-single-stim	s561	False
1.0	272.626	2.952	272.625	0	PA_with_intermediate	test	ward_and_allport	-1	33.0	n/a	feedback	poldrack-single-stim	s561	False
0.871	275.587	0.871	276.458	1	PA_with_intermediate	test	ward_and_allport	89	34.0	0.871	to_hand	poldrack-single-stim	s561	False
0.1	276.459	0.368	276.827	0	PA_with_intermediate	test	ward_and_allport	82	34.0	0.368	to_board	poldrack-single-stim	s561	False
0.1	276.835	0.443	277.278	0	PA_with_intermediate	test	ward_and_allport	89	34.0	0.443	to_hand	poldrack-single-stim	s561	False
0.1	277.279	0.358	277.637	0	PA_with_intermediate	test	ward_and_allport	71	34.0	0.358	to_board	poldrack-single-stim	s561	False
0.1	277.642	0.329	277.971	0	PA_with_intermediate	test	ward_and_allport	82	34.0	0.329	to_hand	poldrack-single-stim	s561	False
0.1	277.972	0.319	278.291	0	PA_with_intermediate	test	ward_and_allport	71	34.0	0.319	to_board	poldrack-single-stim	s561	False
1.0	278.3	2.136	278.299	0	PA_with_intermediate	test	ward_and_allport	-1	34.0	n/a	feedback	poldrack-single-stim	s561	False
1.193	280.442	1.193	281.635	1	PA_without_intermediate	test	ward_and_allport	89	35.0	1.193	to_hand	poldrack-single-stim	s561	False
0.1	281.636	0.261	281.897	0	PA_without_intermediate	test	ward_and_allport	71	35.0	0.261	to_board	poldrack-single-stim	s561	False
0.1	281.904	0.314	282.218	0	PA_without_intermediate	test	ward_and_allport	89	35.0	0.314	to_hand	poldrack-single-stim	s561	False
0.1	282.219	0.247	282.466	0	PA_without_intermediate	test	ward_and_allport	71	35.0	0.247	to_board	poldrack-single-stim	s561	False
0.1	282.472	0.412	282.884	0	PA_without_intermediate	test	ward_and_allport	89	35.0	0.412	to_hand	poldrack-single-stim	s561	False
0.1	282.885	0.231	283.116	0	PA_without_intermediate	test	ward_and_allport	82	35.0	0.231	to_board	poldrack-single-stim	s561	False
1.0	283.126	2.68	283.125	0	PA_without_intermediate	test	ward_and_allport	-1	35.0	n/a	feedback	poldrack-single-stim	s561	False
1.849	285.814	1.849	287.663	1	PA_without_intermediate	test	ward_and_allport	71	36.0	1.849	to_hand	poldrack-single-stim	s561	False
0.1	287.664	0.318	287.982	0	PA_without_intermediate	test	ward_and_allport	89	36.0	0.318	to_board	poldrack-single-stim	s561	False
0.1	287.988	0.307	288.295	0	PA_without_intermediate	test	ward_and_allport	71	36.0	0.307	to_hand	poldrack-single-stim	s561	False
0.1	288.295	0.254	288.549	0	PA_without_intermediate	test	ward_and_allport	89	36.0	0.254	to_board	poldrack-single-stim	s561	False
0.1	288.557	0.616	289.173	0	PA_without_intermediate	test	ward_and_allport	71	36.0	0.616	to_hand	poldrack-single-stim	s561	False
0.1	289.174	0.296	289.47	0	PA_without_intermediate	test	ward_and_allport	82	36.0	0.296	to_board	poldrack-single-stim	s561	False
1.0	289.48	3.088	289.479	0	PA_without_intermediate	test	ward_and_allport	-1	36.0	n/a	feedback	poldrack-single-stim	s561	False
0.916	292.575	0.916	293.491	1	PA_with_intermediate	test	ward_and_allport	82	37.0	0.916	to_hand	poldrack-single-stim	s561	False
0.1	293.491	1.163	294.654	0	PA_with_intermediate	test	ward_and_allport	71	37.0	1.163	to_board	poldrack-single-stim	s561	False
0.1	294.66	0.574	295.234	0	PA_with_intermediate	test	ward_and_allport	82	37.0	0.574	to_hand	poldrack-single-stim	s561	False
0.1	295.235	0.211	295.446	0	PA_with_intermediate	test	ward_and_allport	89	37.0	0.211	to_board	poldrack-single-stim	s561	False
0.1	295.454	0.405	295.859	0	PA_with_intermediate	test	ward_and_allport	71	37.0	0.405	to_hand	poldrack-single-stim	s561	False
0.1	295.86	0.282	296.142	0	PA_with_intermediate	test	ward_and_allport	82	37.0	0.282	to_board	poldrack-single-stim	s561	False
1.0	296.154	2.0	296.153	0	PA_with_intermediate	test	ward_and_allport	-1	37.0	n/a	feedback	poldrack-single-stim	s561	False
0.751	298.161	0.751	298.912	1	PA_without_intermediate	test	ward_and_allport	82	38.0	0.751	to_hand	poldrack-single-stim	s561	False
0.1	298.914	0.388	299.302	0	PA_without_intermediate	test	ward_and_allport	89	38.0	0.388	to_board	poldrack-single-stim	s561	False
0.1	299.307	1.012	300.319	0	PA_without_intermediate	test	ward_and_allport	82	38.0	1.012	to_hand	poldrack-single-stim	s561	False
0.1	300.32	0.369	300.689	0	PA_without_intermediate	test	ward_and_allport	71	38.0	0.369	to_board	poldrack-single-stim	s561	False
0.1	300.696	0.357	301.053	0	PA_without_intermediate	test	ward_and_allport	82	38.0	0.357	to_hand	poldrack-single-stim	s561	False
0.1	301.055	0.291	301.346	0	PA_without_intermediate	test	ward_and_allport	89	38.0	0.291	to_board	poldrack-single-stim	s561	False
1.0	301.355	2.0	301.354	0	PA_without_intermediate	test	ward_and_allport	-1	38.0	n/a	feedback	poldrack-single-stim	s561	False
0.882	303.363	0.882	304.245	1	PA_without_intermediate	test	ward_and_allport	82	39.0	0.882	to_hand	poldrack-single-stim	s561	False
0.1	304.245	0.359	304.604	0	PA_without_intermediate	test	ward_and_allport	89	39.0	0.359	to_board	poldrack-single-stim	s561	False
0.1	304.611	0.385	304.996	0	PA_without_intermediate	test	ward_and_allport	82	39.0	0.385	to_hand	poldrack-single-stim	s561	False
0.1	304.996	0.354	305.35	0	PA_without_intermediate	test	ward_and_allport	89	39.0	0.354	to_board	poldrack-single-stim	s561	False
0.1	305.356	0.83	306.186	0	PA_without_intermediate	test	ward_and_allport	82	39.0	0.83	to_hand	poldrack-single-stim	s561	False
0.1	306.188	0.243	306.431	0	PA_without_intermediate	test	ward_and_allport	71	39.0	0.243	to_board	poldrack-single-stim	s561	False
1.0	306.438	2.0	306.437	0	PA_without_intermediate	test	ward_and_allport	-1	39.0	n/a	feedback	poldrack-single-stim	s561	False
1.207	308.445	1.207	309.652	1	PA_with_intermediate	test	ward_and_allport	71	40.0	1.207	to_hand	poldrack-single-stim	s561	False
0.1	309.652	0.488	310.14	0	PA_with_intermediate	test	ward_and_allport	89	40.0	0.488	to_board	poldrack-single-stim	s561	False
0.1	310.147	0.308	310.455	0	PA_with_intermediate	test	ward_and_allport	71	40.0	0.308	to_hand	poldrack-single-stim	s561	False
0.1	310.457	0.324	310.781	0	PA_with_intermediate	test	ward_and_allport	82	40.0	0.324	to_board	poldrack-single-stim	s561	False
0.1	310.788	0.307	311.095	0	PA_with_intermediate	test	ward_and_allport	89	40.0	0.307	to_hand	poldrack-single-stim	s561	False
0.1	311.096	0.605	311.701	0	PA_with_intermediate	test	ward_and_allport	82	40.0	0.605	to_board	poldrack-single-stim	s561	False
1.0	311.709	2.544	311.708	0	PA_with_intermediate	test	ward_and_allport	-1	40.0	n/a	feedback	poldrack-single-stim	s561	False
0.795	314.26	0.795	315.055	1	PA_without_intermediate	test	ward_and_allport	71	41.0	0.795	to_hand	poldrack-single-stim	s561	False
0.1	315.056	0.304	315.36	0	PA_without_intermediate	test	ward_and_allport	82	41.0	0.304	to_board	poldrack-single-stim	s561	False
0.1	315.366	0.692	316.058	0	PA_without_intermediate	test	ward_and_allport	71	41.0	0.692	to_hand	poldrack-single-stim	s561	False
0.1	316.059	0.251	316.31	0	PA_without_intermediate	test	ward_and_allport	89	41.0	0.251	to_board	poldrack-single-stim	s561	False
0.1	316.317	0.347	316.664	0	PA_without_intermediate	test	ward_and_allport	71	41.0	0.347	to_hand	poldrack-single-stim	s561	False
0.1	316.665	0.305	316.97	0	PA_without_intermediate	test	ward_and_allport	82	41.0	0.305	to_board	poldrack-single-stim	s561	False
1.0	316.983	2.272	316.982	0	PA_without_intermediate	test	ward_and_allport	-1	41.0	n/a	feedback	poldrack-single-stim	s561	False
1.126	319.262	1.126	320.388	1	PA_with_intermediate	test	ward_and_allport	71	42.0	1.126	to_hand	poldrack-single-stim	s561	False
0.1	320.389	0.345	320.734	0	PA_with_intermediate	test	ward_and_allport	82	42.0	0.345	to_board	poldrack-single-stim	s561	False
0.1	320.74	0.486	321.226	0	PA_with_intermediate	test	ward_and_allport	71	42.0	0.486	to_hand	poldrack-single-stim	s561	False
0.1	321.227	0.36	321.587	0	PA_with_intermediate	test	ward_and_allport	89	42.0	0.36	to_board	poldrack-single-stim	s561	False
0.1	321.594	0.671	322.265	0	PA_with_intermediate	test	ward_and_allport	82	42.0	0.671	to_hand	poldrack-single-stim	s561	False
0.1	322.265	0.206	322.471	0	PA_with_intermediate	test	ward_and_allport	71	42.0	0.206	to_board	poldrack-single-stim	s561	False
1.0	322.479	4.04	322.478	0	PA_with_intermediate	test	ward_and_allport	-1	42.0	n/a	feedback	poldrack-single-stim	s561	False
0.92	326.525	0.92	327.445	1	PA_with_intermediate	test	ward_and_allport	82	43.0	0.92	to_hand	poldrack-single-stim	s561	False
0.1	327.446	0.45	327.896	0	PA_with_intermediate	test	ward_and_allport	89	43.0	0.45	to_board	poldrack-single-stim	s561	False
0.1	327.902	0.437	328.339	0	PA_with_intermediate	test	ward_and_allport	82	43.0	0.437	to_hand	poldrack-single-stim	s561	False
0.1	328.341	0.248	328.589	0	PA_with_intermediate	test	ward_and_allport	71	43.0	0.248	to_board	poldrack-single-stim	s561	False
0.1	328.596	0.393	328.989	0	PA_with_intermediate	test	ward_and_allport	89	43.0	0.393	to_hand	poldrack-single-stim	s561	False
0.1	328.989	0.28	329.269	0	PA_with_intermediate	test	ward_and_allport	71	43.0	0.28	to_board	poldrack-single-stim	s561	False
1.0	329.276	2.272	329.275	0	PA_with_intermediate	test	ward_and_allport	-1	43.0	n/a	feedback	poldrack-single-stim	s561	False
1.053	331.556	1.053	332.609	1	PA_with_intermediate	test	ward_and_allport	89	44.0	1.053	to_hand	poldrack-single-stim	s561	False
0.1	332.61	0.262	332.872	0	PA_with_intermediate	test	ward_and_allport	71	44.0	0.262	to_board	poldrack-single-stim	s561	False
0.1	332.878	0.487	333.365	0	PA_with_intermediate	test	ward_and_allport	89	44.0	0.487	to_hand	poldrack-single-stim	s561	False
0.1	333.366	0.219	333.585	0	PA_with_intermediate	test	ward_and_allport	82	44.0	0.219	to_board	poldrack-single-stim	s561	False
0.1	333.593	0.366	333.959	0	PA_with_intermediate	test	ward_and_allport	71	44.0	0.366	to_hand	poldrack-single-stim	s561	False
0.1	333.959	0.242	334.201	0	PA_with_intermediate	test	ward_and_allport	82	44.0	0.242	to_board	poldrack-single-stim	s561	False
1.0	334.21	2.136	334.209	0	PA_with_intermediate	test	ward_and_allport	-1	44.0	n/a	feedback	poldrack-single-stim	s561	False
0.96	341.357	0.96	342.317	1	PA_with_intermediate	test	ward_and_allport	82	45.0	0.96	to_hand	poldrack-single-stim	s561	False
0.1	342.319	0.438	342.757	0	PA_with_intermediate	test	ward_and_allport	71	45.0	0.438	to_board	poldrack-single-stim	s561	False
0.1	342.767	0.614	343.381	0	PA_with_intermediate	test	ward_and_allport	82	45.0	0.614	to_hand	poldrack-single-stim	s561	False
0.1	343.382	0.223	343.605	0	PA_with_intermediate	test	ward_and_allport	89	45.0	0.223	to_board	poldrack-single-stim	s561	False
0.1	343.617	0.351	343.968	0	PA_with_intermediate	test	ward_and_allport	71	45.0	0.351	to_hand	poldrack-single-stim	s561	False
0.1	343.969	0.228	344.197	0	PA_with_intermediate	test	ward_and_allport	82	45.0	0.228	to_board	poldrack-single-stim	s561	False
1.0	344.207	2.0	344.206	0	PA_with_intermediate	test	ward_and_allport	-1	45.0	n/a	feedback	poldrack-single-stim	s561	False
0.811	346.217	0.811	347.028	1	PA_with_intermediate	test	ward_and_allport	82	46.0	0.811	to_hand	poldrack-single-stim	s561	False
0.1	347.028	0.564	347.592	0	PA_with_intermediate	test	ward_and_allport	71	46.0	0.564	to_board	poldrack-single-stim	s561	False
0.1	347.6	0.344	347.944	0	PA_with_intermediate	test	ward_and_allport	82	46.0	0.344	to_hand	poldrack-single-stim	s561	False
0.1	347.945	0.215	348.16	0	PA_with_intermediate	test	ward_and_allport	89	46.0	0.215	to_board	poldrack-single-stim	s561	False
0.1	348.168	0.378	348.546	0	PA_with_intermediate	test	ward_and_allport	71	46.0	0.378	to_hand	poldrack-single-stim	s561	False
0.1	348.547	0.266	348.813	0	PA_with_intermediate	test	ward_and_allport	89	46.0	0.266	to_board	poldrack-single-stim	s561	False
1.0	348.822	2.0	348.821	0	PA_with_intermediate	test	ward_and_allport	-1	46.0	n/a	feedback	poldrack-single-stim	s561	False
0.905	350.83	0.905	351.735	1	PA_without_intermediate	test	ward_and_allport	71	47.0	0.905	to_hand	poldrack-single-stim	s561	False
0.1	351.737	0.249	351.986	0	PA_without_intermediate	test	ward_and_allport	89	47.0	0.249	to_board	poldrack-single-stim	s561	False
0.1	351.992	0.381	352.373	0	PA_without_intermediate	test	ward_and_allport	71	47.0	0.381	to_hand	poldrack-single-stim	s561	False
0.1	352.373	0.224	352.597	0	PA_without_intermediate	test	ward_and_allport	82	47.0	0.224	to_board	poldrack-single-stim	s561	False
0.1	352.605	0.34	352.945	0	PA_without_intermediate	test	ward_and_allport	71	47.0	0.34	to_hand	poldrack-single-stim	s561	False
0.1	352.946	0.24	353.186	0	PA_without_intermediate	test	ward_and_allport	89	47.0	0.24	to_board	poldrack-single-stim	s561	False
1.0	353.194	2.408	353.193	0	PA_without_intermediate	test	ward_and_allport	-1	47.0	n/a	feedback	poldrack-single-stim	s561	False
