onset	duration	SS_delay	block_duration	correct	correct_response	experiment_exp_id	key_press	passed_check	response_time	stop_response	stopped	trial_id	trial_type	worker_id	junk
3.01	0.85	0.4	2.65	1.0	71.0	motor_selective_stop_signal	71.0	True	0.457	89.0	False	stim	noncrit_nosignal	s561	False
5.662	0.85	0.4	2.25	1.0	89.0	motor_selective_stop_signal	89.0	True	0.543	89.0	False	stim	crit_stop_failure	s561	False
7.914	0.85	0.35	2.65	1.0	71.0	motor_selective_stop_signal	71.0	True	0.486	89.0	False	stim	noncrit_signal	s561	False
10.566	0.85	0.35	2.35	0.0	89.0	motor_selective_stop_signal	71.0	True	0.405	89.0	False	stim	crit_go	s561	False
12.919	0.85	0.35	2.25	1.0	71.0	motor_selective_stop_signal	71.0	True	0.439	89.0	False	stim	noncrit_nosignal	s561	False
15.17	0.85	0.35	2.25	0.0	89.0	motor_selective_stop_signal	-1.0	True	n/a	89.0	True	stim	crit_go	s561	False
17.423	0.85	0.35	2.25	1.0	71.0	motor_selective_stop_signal	71.0	True	0.529	89.0	False	stim	noncrit_nosignal	s561	False
19.675	0.85	0.35	2.35	1.0	89.0	motor_selective_stop_signal	89.0	True	0.473	89.0	False	stim	crit_go	s561	False
22.028	0.85	0.35	2.55	1.0	71.0	motor_selective_stop_signal	71.0	True	0.481	89.0	False	stim	noncrit_signal	s561	False
24.58	0.85	0.35	2.35	0.0	71.0	motor_selective_stop_signal	89.0	True	0.397	89.0	False	stim	noncrit_nosignal	s561	False
26.933	0.85	0.35	2.45	1.0	89.0	motor_selective_stop_signal	89.0	True	0.494	89.0	False	stim	crit_stop_failure	s561	False
29.386	0.85	0.3	2.45	1.0	89.0	motor_selective_stop_signal	89.0	True	0.461	89.0	False	stim	crit_go	s561	False
31.838	0.85	0.3	2.35	0.0	89.0	motor_selective_stop_signal	71.0	True	0.384	89.0	False	stim	crit_stop_failure	s561	False
34.19	0.85	0.25	2.25	1.0	71.0	motor_selective_stop_signal	71.0	True	0.825	89.0	False	stim	noncrit_signal	s561	False
36.442	0.85	0.25	2.55	1.0	89.0	motor_selective_stop_signal	89.0	True	0.407	89.0	False	stim	crit_go	s561	False
38.994	0.85	0.25	2.55	1.0	71.0	motor_selective_stop_signal	71.0	True	0.547	89.0	False	stim	noncrit_nosignal	s561	False
41.546	0.85	0.25	2.25	0.0	71.0	motor_selective_stop_signal	89.0	True	0.353	89.0	False	stim	noncrit_signal	s561	False
43.799	0.85	0.25	2.25	1.0	89.0	motor_selective_stop_signal	89.0	True	0.506	89.0	False	stim	crit_go	s561	False
46.051	0.85	0.25	2.45	1.0	89.0	motor_selective_stop_signal	89.0	True	0.547	89.0	False	stim	crit_stop_failure	s561	False
48.504	0.85	0.2	2.35	1.0	71.0	motor_selective_stop_signal	71.0	True	0.509	89.0	False	stim	noncrit_nosignal	s561	False
50.857	0.85	0.2	2.25	1.0	71.0	motor_selective_stop_signal	71.0	True	0.488	89.0	False	stim	noncrit_nosignal	s561	False
53.109	0.85	0.2	3.15	1.0	71.0	motor_selective_stop_signal	71.0	True	0.479	89.0	False	stim	noncrit_nosignal	s561	False
56.261	0.85	0.2	2.65	1.0	89.0	motor_selective_stop_signal	89.0	True	0.631	89.0	False	stim	crit_go	s561	False
58.914	0.85	0.2	2.25	1.0	71.0	motor_selective_stop_signal	71.0	True	0.575	89.0	False	stim	noncrit_signal	s561	False
61.167	0.85	0.2	2.45	1.0	89.0	motor_selective_stop_signal	89.0	True	0.428	89.0	False	stim	crit_stop_failure	s561	False
63.619	0.85	0.15	2.85	1.0	71.0	motor_selective_stop_signal	71.0	True	0.523	89.0	False	stim	noncrit_signal	s561	False
66.471	0.85	0.15	2.45	1.0	71.0	motor_selective_stop_signal	71.0	True	0.563	89.0	False	stim	noncrit_nosignal	s561	False
68.923	0.85	0.15	2.25	1.0	89.0	motor_selective_stop_signal	89.0	True	0.432	89.0	False	stim	crit_go	s561	False
71.175	0.85	0.15	2.25	1.0	71.0	motor_selective_stop_signal	71.0	True	0.516	89.0	False	stim	noncrit_nosignal	s561	False
73.428	0.85	0.15	2.55	1.0	71.0	motor_selective_stop_signal	71.0	True	0.658	89.0	False	stim	noncrit_signal	s561	False
75.98	0.85	0.15	2.25	1.0	89.0	motor_selective_stop_signal	89.0	True	0.579	89.0	False	stim	crit_stop_failure	s561	False
78.233	0.85	0.1	2.35	1.0	71.0	motor_selective_stop_signal	71.0	True	0.45	89.0	False	stim	noncrit_nosignal	s561	False
80.586	0.85	0.1	2.35	1.0	89.0	motor_selective_stop_signal	-1.0	True	n/a	89.0	True	stim	crit_stop_success	s561	False
82.938	0.85	0.15	2.25	1.0	71.0	motor_selective_stop_signal	71.0	True	0.482	89.0	False	stim	noncrit_nosignal	s561	False
85.191	0.85	0.15	2.35	1.0	71.0	motor_selective_stop_signal	71.0	True	0.55	89.0	False	stim	noncrit_signal	s561	False
87.543	0.85	0.15	2.25	1.0	71.0	motor_selective_stop_signal	71.0	True	0.503	89.0	False	stim	noncrit_nosignal	s561	False
89.795	0.85	0.15	2.45	1.0	71.0	motor_selective_stop_signal	71.0	True	0.543	89.0	False	stim	noncrit_nosignal	s561	False
92.247	0.85	0.15	2.25	1.0	89.0	motor_selective_stop_signal	89.0	True	0.695	89.0	False	stim	crit_go	s561	False
94.499	0.85	0.15	2.35	1.0	71.0	motor_selective_stop_signal	71.0	True	0.545	89.0	False	stim	noncrit_nosignal	s561	False
96.851	0.85	0.15	2.45	1.0	71.0	motor_selective_stop_signal	71.0	True	0.476	89.0	False	stim	noncrit_signal	s561	False
99.303	0.85	0.15	2.25	1.0	89.0	motor_selective_stop_signal	-1.0	True	n/a	89.0	True	stim	crit_stop_success	s561	False
101.556	0.85	0.2	2.25	1.0	71.0	motor_selective_stop_signal	71.0	True	0.545	89.0	False	stim	noncrit_nosignal	s561	False
103.808	0.85	0.2	2.85	1.0	71.0	motor_selective_stop_signal	71.0	True	0.488	89.0	False	stim	noncrit_nosignal	s561	False
106.661	0.85	0.2	2.25	1.0	71.0	motor_selective_stop_signal	71.0	True	0.835	89.0	False	stim	noncrit_nosignal	s561	False
108.913	0.85	0.2	3.45	1.0	89.0	motor_selective_stop_signal	89.0	True	0.622	89.0	False	stim	crit_go	s561	False
112.365	0.85	0.2	2.35	1.0	71.0	motor_selective_stop_signal	71.0	True	0.539	89.0	False	stim	noncrit_signal	s561	False
114.717	0.85	0.2	2.35	1.0	71.0	motor_selective_stop_signal	71.0	True	0.481	89.0	False	stim	noncrit_signal	s561	False
117.069	0.85	0.2	2.35	1.0	89.0	motor_selective_stop_signal	89.0	True	0.619	89.0	False	stim	crit_go	s561	False
119.422	0.85	0.2	2.45	1.0	89.0	motor_selective_stop_signal	-1.0	True	n/a	89.0	True	stim	crit_stop_success	s561	False
121.874	0.85	0.25	2.55	1.0	71.0	motor_selective_stop_signal	71.0	True	0.527	89.0	False	stim	noncrit_signal	s561	False
134.934	0.85	0.25	2.35	1.0	89.0	motor_selective_stop_signal	89.0	True	0.5	89.0	False	stim	crit_go	s561	False
137.287	0.85	0.25	2.25	1.0	89.0	motor_selective_stop_signal	89.0	True	0.406	89.0	False	stim	crit_stop_failure	s561	False
139.538	0.85	0.2	2.25	1.0	71.0	motor_selective_stop_signal	71.0	True	0.49	89.0	False	stim	noncrit_nosignal	s561	False
141.79	0.85	0.2	3.05	1.0	89.0	motor_selective_stop_signal	89.0	True	0.763	89.0	False	stim	crit_go	s561	False
144.843	0.85	0.2	2.45	1.0	71.0	motor_selective_stop_signal	71.0	True	0.504	89.0	False	stim	noncrit_nosignal	s561	False
147.295	0.85	0.2	2.35	1.0	89.0	motor_selective_stop_signal	89.0	True	0.514	89.0	False	stim	crit_go	s561	False
149.647	0.85	0.2	2.25	1.0	89.0	motor_selective_stop_signal	-1.0	True	n/a	89.0	True	stim	crit_stop_success	s561	False
151.899	0.85	0.25	3.25	1.0	89.0	motor_selective_stop_signal	-1.0	True	n/a	89.0	True	stim	crit_stop_success	s561	False
155.151	0.85	0.3	2.95	1.0	89.0	motor_selective_stop_signal	89.0	True	0.694	89.0	False	stim	crit_go	s561	False
158.103	0.85	0.3	2.55	1.0	89.0	motor_selective_stop_signal	-1.0	True	n/a	89.0	True	stim	crit_stop_success	s561	False
160.655	0.85	0.35	2.35	1.0	71.0	motor_selective_stop_signal	71.0	True	0.496	89.0	False	stim	noncrit_nosignal	s561	False
163.009	0.85	0.35	2.55	1.0	89.0	motor_selective_stop_signal	89.0	True	0.507	89.0	False	stim	crit_stop_failure	s561	False
165.561	0.85	0.3	2.35	1.0	71.0	motor_selective_stop_signal	71.0	True	0.595	89.0	False	stim	noncrit_nosignal	s561	False
167.913	0.85	0.3	2.25	1.0	89.0	motor_selective_stop_signal	89.0	True	0.61	89.0	False	stim	crit_go	s561	False
170.166	0.85	0.3	2.45	1.0	71.0	motor_selective_stop_signal	71.0	True	0.84	89.0	False	stim	noncrit_signal	s561	False
172.618	0.85	0.3	2.35	1.0	71.0	motor_selective_stop_signal	71.0	True	0.488	89.0	False	stim	noncrit_nosignal	s561	False
174.971	0.85	0.3	2.65	1.0	71.0	motor_selective_stop_signal	71.0	True	0.483	89.0	False	stim	noncrit_signal	s561	False
177.623	0.85	0.3	2.25	1.0	89.0	motor_selective_stop_signal	89.0	True	0.535	89.0	False	stim	crit_go	s561	False
179.876	0.85	0.3	2.25	1.0	89.0	motor_selective_stop_signal	89.0	True	0.468	89.0	False	stim	crit_stop_failure	s561	False
182.128	0.85	0.25	2.45	1.0	71.0	motor_selective_stop_signal	71.0	True	0.518	89.0	False	stim	noncrit_nosignal	s561	False
184.58	0.85	0.25	2.25	1.0	71.0	motor_selective_stop_signal	71.0	True	0.547	89.0	False	stim	noncrit_nosignal	s561	False
186.833	0.85	0.25	2.55	1.0	89.0	motor_selective_stop_signal	-1.0	True	n/a	89.0	True	stim	crit_stop_success	s561	False
189.385	0.85	0.3	2.25	1.0	89.0	motor_selective_stop_signal	89.0	True	0.568	89.0	False	stim	crit_go	s561	False
191.638	0.85	0.3	2.35	1.0	71.0	motor_selective_stop_signal	71.0	True	0.39	89.0	False	stim	noncrit_signal	s561	False
193.99	0.85	0.3	2.25	1.0	89.0	motor_selective_stop_signal	-1.0	True	n/a	89.0	True	stim	crit_stop_success	s561	False
196.243	0.85	0.35	2.55	1.0	89.0	motor_selective_stop_signal	89.0	True	0.468	89.0	False	stim	crit_stop_failure	s561	False
198.795	0.85	0.3	2.55	1.0	71.0	motor_selective_stop_signal	71.0	True	0.519	89.0	False	stim	noncrit_nosignal	s561	False
201.347	0.85	0.3	2.35	1.0	89.0	motor_selective_stop_signal	89.0	True	0.468	89.0	False	stim	crit_go	s561	False
203.699	0.85	0.3	2.35	1.0	89.0	motor_selective_stop_signal	89.0	True	0.593	89.0	False	stim	crit_go	s561	False
206.051	0.85	0.3	2.25	1.0	71.0	motor_selective_stop_signal	71.0	True	0.55	89.0	False	stim	noncrit_nosignal	s561	False
208.304	0.85	0.3	2.45	1.0	71.0	motor_selective_stop_signal	71.0	True	0.456	89.0	False	stim	noncrit_signal	s561	False
210.756	0.85	0.3	2.25	1.0	89.0	motor_selective_stop_signal	89.0	True	0.623	89.0	False	stim	crit_go	s561	False
213.009	0.85	0.3	2.45	1.0	71.0	motor_selective_stop_signal	71.0	True	0.513	89.0	False	stim	noncrit_signal	s561	False
215.462	0.85	0.3	2.65	1.0	89.0	motor_selective_stop_signal	-1.0	True	n/a	89.0	True	stim	crit_stop_success	s561	False
218.114	0.85	0.35	2.45	1.0	89.0	motor_selective_stop_signal	89.0	True	0.603	89.0	False	stim	crit_go	s561	False
220.566	0.85	0.35	2.35	1.0	71.0	motor_selective_stop_signal	71.0	True	0.498	89.0	False	stim	noncrit_nosignal	s561	False
222.918	0.85	0.35	2.25	1.0	71.0	motor_selective_stop_signal	71.0	True	0.513	89.0	False	stim	noncrit_signal	s561	False
225.17	0.85	0.35	2.55	1.0	89.0	motor_selective_stop_signal	89.0	True	0.639	89.0	False	stim	crit_go	s561	False
227.722	0.85	0.35	2.25	1.0	89.0	motor_selective_stop_signal	89.0	True	0.517	89.0	False	stim	crit_go	s561	False
229.974	0.85	0.35	2.25	1.0	71.0	motor_selective_stop_signal	71.0	True	0.475	89.0	False	stim	noncrit_nosignal	s561	False
232.226	0.85	0.35	2.35	1.0	71.0	motor_selective_stop_signal	71.0	True	0.457	89.0	False	stim	noncrit_nosignal	s561	False
234.578	0.85	0.35	2.25	1.0	89.0	motor_selective_stop_signal	89.0	True	0.617	89.0	False	stim	crit_go	s561	False
236.831	0.85	0.35	2.65	1.0	71.0	motor_selective_stop_signal	71.0	True	0.541	89.0	False	stim	noncrit_signal	s561	False
239.484	0.85	0.35	2.35	1.0	71.0	motor_selective_stop_signal	71.0	True	0.365	89.0	False	stim	noncrit_signal	s561	False
241.835	0.85	0.35	2.45	1.0	89.0	motor_selective_stop_signal	89.0	True	0.411	89.0	False	stim	crit_go	s561	False
244.287	0.85	0.35	2.35	1.0	71.0	motor_selective_stop_signal	71.0	True	0.438	89.0	False	stim	noncrit_signal	s561	False
246.64	0.85	0.35	2.25	1.0	89.0	motor_selective_stop_signal	89.0	True	0.587	89.0	False	stim	crit_stop_failure	s561	False
248.892	0.85	0.3	2.25	0.0	89.0	motor_selective_stop_signal	71.0	True	0.429	89.0	False	stim	crit_go	s561	False
251.143	0.85	0.3	2.25	1.0	89.0	motor_selective_stop_signal	-1.0	True	n/a	89.0	True	stim	crit_stop_success	s561	False
253.395	0.85	0.35	2.25	1.0	71.0	motor_selective_stop_signal	71.0	True	0.53	89.0	False	stim	noncrit_nosignal	s561	False
266.155	0.85	0.35	2.35	1.0	89.0	motor_selective_stop_signal	-1.0	True	n/a	89.0	True	stim	crit_stop_success	s561	False
268.507	0.85	0.4	3.35	1.0	89.0	motor_selective_stop_signal	89.0	True	0.58	89.0	False	stim	crit_go	s561	False
271.86	0.85	0.4	2.55	1.0	71.0	motor_selective_stop_signal	71.0	True	0.508	89.0	False	stim	noncrit_nosignal	s561	False
274.412	0.85	0.4	2.75	1.0	89.0	motor_selective_stop_signal	-1.0	True	n/a	89.0	True	stim	crit_stop_success	s561	False
277.166	0.85	0.45	2.75	1.0	71.0	motor_selective_stop_signal	71.0	True	0.448	89.0	False	stim	noncrit_nosignal	s561	False
279.918	0.85	0.45	2.65	0.0	89.0	motor_selective_stop_signal	71.0	True	0.423	89.0	False	stim	crit_go	s561	False
282.57	0.85	0.45	2.45	1.0	89.0	motor_selective_stop_signal	-1.0	True	n/a	89.0	True	stim	crit_stop_success	s561	False
285.022	0.85	0.5	2.25	1.0	89.0	motor_selective_stop_signal	89.0	True	0.547	89.0	False	stim	crit_go	s561	False
287.274	0.85	0.5	2.35	1.0	71.0	motor_selective_stop_signal	71.0	True	0.725	89.0	False	stim	noncrit_nosignal	s561	False
289.626	0.85	0.5	2.45	1.0	89.0	motor_selective_stop_signal	89.0	True	0.681	89.0	False	stim	crit_go	s561	False
292.078	0.85	0.5	3.05	1.0	89.0	motor_selective_stop_signal	89.0	True	0.705	89.0	False	stim	crit_go	s561	False
295.13	0.85	0.5	2.35	1.0	71.0	motor_selective_stop_signal	71.0	True	0.371	89.0	False	stim	noncrit_nosignal	s561	False
297.483	0.85	0.5	2.25	1.0	71.0	motor_selective_stop_signal	71.0	True	0.375	89.0	False	stim	noncrit_signal	s561	False
299.736	0.85	0.5	2.35	1.0	89.0	motor_selective_stop_signal	89.0	True	0.559	89.0	False	stim	crit_go	s561	False
302.088	0.85	0.5	2.35	1.0	89.0	motor_selective_stop_signal	89.0	True	0.436	89.0	False	stim	crit_go	s561	False
304.44	0.85	0.5	2.35	1.0	71.0	motor_selective_stop_signal	71.0	True	0.496	89.0	False	stim	noncrit_nosignal	s561	False
306.792	0.85	0.5	2.35	0.0	71.0	motor_selective_stop_signal	89.0	True	0.409	89.0	False	stim	noncrit_signal	s561	False
309.145	0.85	0.5	2.35	1.0	89.0	motor_selective_stop_signal	89.0	True	0.655	89.0	False	stim	crit_go	s561	False
311.497	0.85	0.5	2.25	1.0	89.0	motor_selective_stop_signal	89.0	True	0.637	89.0	False	stim	crit_go	s561	False
313.75	0.85	0.5	2.35	1.0	89.0	motor_selective_stop_signal	89.0	True	0.599	89.0	False	stim	crit_stop_failure	s561	False
316.102	0.85	0.45	2.45	1.0	71.0	motor_selective_stop_signal	71.0	True	0.55	89.0	False	stim	noncrit_nosignal	s561	False
318.555	0.85	0.45	2.35	1.0	71.0	motor_selective_stop_signal	71.0	True	0.482	89.0	False	stim	noncrit_nosignal	s561	False
320.907	0.85	0.45	2.85	1.0	71.0	motor_selective_stop_signal	71.0	True	0.546	89.0	False	stim	noncrit_nosignal	s561	False
323.76	0.85	0.45	2.55	0.0	89.0	motor_selective_stop_signal	71.0	True	0.396	89.0	False	stim	crit_go	s561	False
326.312	0.85	0.45	2.75	1.0	71.0	motor_selective_stop_signal	71.0	True	0.549	89.0	False	stim	noncrit_nosignal	s561	False
329.064	0.85	0.45	2.25	1.0	71.0	motor_selective_stop_signal	71.0	True	0.469	89.0	False	stim	noncrit_signal	s561	False
331.317	0.85	0.45	2.25	1.0	89.0	motor_selective_stop_signal	89.0	True	0.557	89.0	False	stim	crit_go	s561	False
333.569	0.85	0.45	2.85	1.0	89.0	motor_selective_stop_signal	89.0	True	0.608	89.0	False	stim	crit_stop_failure	s561	False
336.422	0.85	0.4	2.35	1.0	71.0	motor_selective_stop_signal	71.0	True	0.49	89.0	False	stim	noncrit_nosignal	s561	False
338.773	0.85	0.4	2.25	1.0	89.0	motor_selective_stop_signal	89.0	True	0.667	89.0	False	stim	crit_go	s561	False
341.026	0.85	0.4	2.25	1.0	89.0	motor_selective_stop_signal	-1.0	True	n/a	89.0	True	stim	crit_stop_success	s561	False
343.279	0.85	0.45	2.25	1.0	71.0	motor_selective_stop_signal	71.0	True	0.433	89.0	False	stim	noncrit_nosignal	s561	False
345.531	0.85	0.45	2.35	1.0	71.0	motor_selective_stop_signal	71.0	True	0.383	89.0	False	stim	noncrit_nosignal	s561	False
347.883	0.85	0.45	2.65	1.0	71.0	motor_selective_stop_signal	71.0	True	0.431	89.0	False	stim	noncrit_nosignal	s561	False
350.536	0.85	0.45	2.75	1.0	89.0	motor_selective_stop_signal	89.0	True	0.551	89.0	False	stim	crit_stop_failure	s561	False
353.288	0.85	0.4	2.25	1.0	71.0	motor_selective_stop_signal	71.0	True	0.509	89.0	False	stim	noncrit_nosignal	s561	False
355.54	0.85	0.4	2.75	1.0	89.0	motor_selective_stop_signal	89.0	True	0.49	89.0	False	stim	crit_stop_failure	s561	False
358.291	0.85	0.35	2.25	1.0	71.0	motor_selective_stop_signal	71.0	True	0.482	89.0	False	stim	noncrit_signal	s561	False
360.543	0.85	0.35	2.35	1.0	89.0	motor_selective_stop_signal	89.0	True	0.757	89.0	False	stim	crit_go	s561	False
362.896	0.85	0.35	2.35	1.0	71.0	motor_selective_stop_signal	71.0	True	0.508	89.0	False	stim	noncrit_nosignal	s561	False
365.248	0.85	0.35	2.55	1.0	71.0	motor_selective_stop_signal	71.0	True	0.571	89.0	False	stim	noncrit_nosignal	s561	False
367.8	0.85	0.35	2.25	1.0	71.0	motor_selective_stop_signal	71.0	True	0.415	89.0	False	stim	noncrit_nosignal	s561	False
370.052	0.85	0.35	2.25	1.0	71.0	motor_selective_stop_signal	71.0	True	0.409	89.0	False	stim	noncrit_signal	s561	False
372.305	0.85	0.35	2.25	1.0	71.0	motor_selective_stop_signal	71.0	True	0.563	89.0	False	stim	noncrit_nosignal	s561	False
374.558	0.85	0.35	2.35	1.0	89.0	motor_selective_stop_signal	89.0	True	0.565	89.0	False	stim	crit_go	s561	False
376.91	0.85	0.35	2.65	1.0	89.0	motor_selective_stop_signal	89.0	True	0.481	89.0	False	stim	crit_stop_failure	s561	False
379.562	0.85	0.3	2.35	1.0	71.0	motor_selective_stop_signal	71.0	True	0.505	89.0	False	stim	noncrit_nosignal	s561	False
381.915	0.85	0.3	2.25	1.0	71.0	motor_selective_stop_signal	71.0	True	0.473	89.0	False	stim	noncrit_signal	s561	False
384.167	0.85	0.3	2.35	1.0	89.0	motor_selective_stop_signal	89.0	True	0.477	89.0	False	stim	crit_go	s561	False
386.52	0.85	0.3	2.35	1.0	89.0	motor_selective_stop_signal	89.0	True	0.407	89.0	False	stim	crit_stop_failure	s561	False
399.378	0.85	0.25	2.85	1.0	89.0	motor_selective_stop_signal	89.0	True	0.604	89.0	False	stim	crit_go	s561	False
402.23	0.85	0.25	2.45	1.0	89.0	motor_selective_stop_signal	89.0	True	0.435	89.0	False	stim	crit_go	s561	False
404.682	0.85	0.25	2.35	1.0	89.0	motor_selective_stop_signal	89.0	True	0.364	89.0	False	stim	crit_go	s561	False
407.034	0.85	0.25	2.65	1.0	89.0	motor_selective_stop_signal	89.0	True	0.55	89.0	False	stim	crit_go	s561	False
409.686	0.85	0.25	2.25	1.0	71.0	motor_selective_stop_signal	71.0	True	0.361	89.0	False	stim	noncrit_nosignal	s561	False
411.939	0.85	0.25	2.25	1.0	71.0	motor_selective_stop_signal	71.0	True	0.413	89.0	False	stim	noncrit_signal	s561	False
414.19	0.85	0.25	2.25	1.0	89.0	motor_selective_stop_signal	89.0	True	0.407	89.0	False	stim	crit_go	s561	False
416.443	0.85	0.25	2.45	1.0	71.0	motor_selective_stop_signal	71.0	True	0.546	89.0	False	stim	noncrit_nosignal	s561	False
418.895	0.85	0.25	2.35	1.0	89.0	motor_selective_stop_signal	89.0	True	0.399	89.0	False	stim	crit_go	s561	False
421.247	0.85	0.25	2.25	1.0	89.0	motor_selective_stop_signal	89.0	True	0.414	89.0	False	stim	crit_stop_failure	s561	False
423.499	0.85	0.2	2.35	1.0	89.0	motor_selective_stop_signal	-1.0	True	n/a	89.0	True	stim	crit_stop_success	s561	False
425.851	0.85	0.25	2.45	1.0	71.0	motor_selective_stop_signal	71.0	True	0.534	89.0	False	stim	noncrit_signal	s561	False
428.304	0.85	0.25	2.35	1.0	89.0	motor_selective_stop_signal	89.0	True	0.408	89.0	False	stim	crit_go	s561	False
430.655	0.85	0.25	2.25	1.0	89.0	motor_selective_stop_signal	89.0	True	0.653	89.0	False	stim	crit_go	s561	False
432.907	0.85	0.25	2.25	1.0	71.0	motor_selective_stop_signal	71.0	True	0.511	89.0	False	stim	noncrit_nosignal	s561	False
435.16	0.85	0.25	2.35	1.0	71.0	motor_selective_stop_signal	71.0	True	0.446	89.0	False	stim	noncrit_signal	s561	False
437.512	0.85	0.25	2.35	1.0	89.0	motor_selective_stop_signal	89.0	True	0.612	89.0	False	stim	crit_stop_failure	s561	False
439.864	0.85	0.2	2.35	1.0	89.0	motor_selective_stop_signal	89.0	True	0.515	89.0	False	stim	crit_go	s561	False
442.215	0.85	0.2	2.95	1.0	89.0	motor_selective_stop_signal	89.0	True	0.583	89.0	False	stim	crit_go	s561	False
445.167	0.85	0.2	2.25	1.0	89.0	motor_selective_stop_signal	89.0	True	0.571	89.0	False	stim	crit_go	s561	False
447.42	0.85	0.2	2.35	1.0	71.0	motor_selective_stop_signal	71.0	True	0.597	89.0	False	stim	noncrit_nosignal	s561	False
449.772	0.85	0.2	2.25	1.0	71.0	motor_selective_stop_signal	71.0	True	0.443	89.0	False	stim	noncrit_nosignal	s561	False
452.023	0.85	0.2	2.45	1.0	71.0	motor_selective_stop_signal	71.0	True	0.499	89.0	False	stim	noncrit_signal	s561	False
454.476	0.85	0.2	2.35	1.0	71.0	motor_selective_stop_signal	71.0	True	0.469	89.0	False	stim	noncrit_signal	s561	False
456.828	0.85	0.2	2.55	1.0	71.0	motor_selective_stop_signal	71.0	True	0.532	89.0	False	stim	noncrit_signal	s561	False
459.38	0.85	0.2	2.55	1.0	71.0	motor_selective_stop_signal	71.0	True	0.388	89.0	False	stim	noncrit_nosignal	s561	False
461.932	0.85	0.2	2.25	1.0	71.0	motor_selective_stop_signal	71.0	True	0.368	89.0	False	stim	noncrit_nosignal	s561	False
464.185	0.85	0.2	2.25	1.0	71.0	motor_selective_stop_signal	71.0	True	0.488	89.0	False	stim	noncrit_nosignal	s561	False
466.438	0.85	0.2	2.75	1.0	89.0	motor_selective_stop_signal	-1.0	True	n/a	89.0	True	stim	crit_stop_success	s561	False
469.19	0.85	0.25	2.35	0.0	89.0	motor_selective_stop_signal	71.0	True	0.467	89.0	False	stim	crit_stop_failure	s561	False
471.542	0.85	0.2	2.25	1.0	89.0	motor_selective_stop_signal	-1.0	True	n/a	89.0	True	stim	crit_stop_success	s561	False
473.794	0.85	0.25	2.45	1.0	71.0	motor_selective_stop_signal	71.0	True	0.523	89.0	False	stim	noncrit_nosignal	s561	False
476.246	0.85	0.25	2.25	1.0	89.0	motor_selective_stop_signal	89.0	True	0.522	89.0	False	stim	crit_go	s561	False
478.498	0.85	0.25	2.35	1.0	71.0	motor_selective_stop_signal	71.0	True	0.579	89.0	False	stim	noncrit_nosignal	s561	False
480.85	0.85	0.25	2.25	1.0	89.0	motor_selective_stop_signal	89.0	True	0.571	89.0	False	stim	crit_go	s561	False
483.105	0.85	0.25	2.25	1.0	89.0	motor_selective_stop_signal	-1.0	True	n/a	89.0	True	stim	crit_stop_success	s561	False
485.356	0.85	0.3	2.25	1.0	89.0	motor_selective_stop_signal	-1.0	True	n/a	89.0	True	stim	crit_stop_success	s561	False
487.608	0.85	0.35	2.25	1.0	71.0	motor_selective_stop_signal	71.0	True	0.513	89.0	False	stim	noncrit_nosignal	s561	False
489.861	0.85	0.35	2.25	1.0	71.0	motor_selective_stop_signal	71.0	True	0.453	89.0	False	stim	noncrit_nosignal	s561	False
492.113	0.85	0.35	2.35	1.0	71.0	motor_selective_stop_signal	71.0	True	0.5	89.0	False	stim	noncrit_signal	s561	False
494.465	0.85	0.35	2.55	1.0	89.0	motor_selective_stop_signal	-1.0	True	n/a	89.0	True	stim	crit_stop_success	s561	False
497.017	0.85	0.4	2.95	1.0	89.0	motor_selective_stop_signal	89.0	True	0.408	89.0	False	stim	crit_go	s561	False
499.969	0.85	0.4	2.25	1.0	89.0	motor_selective_stop_signal	89.0	True	0.611	89.0	False	stim	crit_stop_failure	s561	False
502.221	0.85	0.35	2.35	1.0	89.0	motor_selective_stop_signal	89.0	True	0.633	89.0	False	stim	crit_go	s561	False
504.574	0.85	0.35	2.55	1.0	89.0	motor_selective_stop_signal	89.0	True	0.61	89.0	False	stim	crit_go	s561	False
507.126	0.85	0.35	2.25	1.0	71.0	motor_selective_stop_signal	71.0	True	0.544	89.0	False	stim	noncrit_signal	s561	False
509.379	0.85	0.35	2.35	1.0	71.0	motor_selective_stop_signal	71.0	True	0.482	89.0	False	stim	noncrit_signal	s561	False
511.732	0.85	0.35	2.55	1.0	71.0	motor_selective_stop_signal	71.0	True	0.537	89.0	False	stim	noncrit_signal	s561	False
514.284	0.85	0.35	2.45	1.0	71.0	motor_selective_stop_signal	71.0	True	0.462	89.0	False	stim	noncrit_signal	s561	False
516.736	0.85	0.35	2.35	1.0	71.0	motor_selective_stop_signal	71.0	True	0.442	89.0	False	stim	noncrit_nosignal	s561	False
529.596	0.85	0.35	2.65	1.0	89.0	motor_selective_stop_signal	89.0	True	0.517	89.0	False	stim	crit_go	s561	False
532.247	0.85	0.35	2.55	1.0	89.0	motor_selective_stop_signal	89.0	True	0.508	89.0	False	stim	crit_go	s561	False
534.799	0.85	0.35	2.75	1.0	89.0	motor_selective_stop_signal	89.0	True	0.49	89.0	False	stim	crit_stop_failure	s561	False
537.552	0.85	0.3	2.55	1.0	89.0	motor_selective_stop_signal	-1.0	True	n/a	89.0	True	stim	crit_stop_success	s561	False
540.104	0.85	0.35	2.45	1.0	71.0	motor_selective_stop_signal	71.0	True	0.653	89.0	False	stim	noncrit_signal	s561	False
542.556	0.85	0.35	2.75	1.0	71.0	motor_selective_stop_signal	71.0	True	0.673	89.0	False	stim	noncrit_nosignal	s561	False
545.307	0.85	0.35	2.55	1.0	89.0	motor_selective_stop_signal	89.0	True	0.481	89.0	False	stim	crit_go	s561	False
547.86	0.85	0.35	2.35	1.0	89.0	motor_selective_stop_signal	89.0	True	0.455	89.0	False	stim	crit_stop_failure	s561	False
550.212	0.85	0.3	2.25	1.0	71.0	motor_selective_stop_signal	71.0	True	0.549	89.0	False	stim	noncrit_nosignal	s561	False
552.464	0.85	0.3	2.65	0.0	89.0	motor_selective_stop_signal	71.0	True	0.495	89.0	False	stim	crit_go	s561	False
555.117	0.85	0.3	2.25	1.0	89.0	motor_selective_stop_signal	-1.0	True	n/a	89.0	True	stim	crit_stop_success	s561	False
557.37	0.85	0.35	2.35	0.0	89.0	motor_selective_stop_signal	71.0	True	0.428	89.0	False	stim	crit_go	s561	False
559.722	0.85	0.35	2.25	1.0	89.0	motor_selective_stop_signal	89.0	True	0.562	89.0	False	stim	crit_go	s561	False
561.974	0.85	0.35	2.35	1.0	89.0	motor_selective_stop_signal	89.0	True	0.708	89.0	False	stim	crit_go	s561	False
564.326	0.85	0.35	2.35	1.0	89.0	motor_selective_stop_signal	89.0	True	0.839	89.0	False	stim	crit_go	s561	False
566.678	0.85	0.35	2.25	1.0	89.0	motor_selective_stop_signal	89.0	True	0.816	89.0	False	stim	crit_go	s561	False
568.93	0.85	0.35	2.85	1.0	71.0	motor_selective_stop_signal	71.0	True	0.564	89.0	False	stim	noncrit_signal	s561	False
571.782	0.85	0.35	2.35	1.0	71.0	motor_selective_stop_signal	71.0	True	0.405	89.0	False	stim	noncrit_nosignal	s561	False
574.135	0.85	0.35	2.25	1.0	89.0	motor_selective_stop_signal	89.0	True	0.609	89.0	False	stim	crit_go	s561	False
576.387	0.85	0.35	2.35	1.0	71.0	motor_selective_stop_signal	71.0	True	0.529	89.0	False	stim	noncrit_nosignal	s561	False
578.739	0.85	0.35	2.45	1.0	89.0	motor_selective_stop_signal	89.0	True	0.518	89.0	False	stim	crit_go	s561	False
581.191	0.85	0.35	2.25	1.0	89.0	motor_selective_stop_signal	89.0	True	0.523	89.0	False	stim	crit_stop_failure	s561	False
583.443	0.85	0.3	2.25	1.0	71.0	motor_selective_stop_signal	71.0	True	0.574	89.0	False	stim	noncrit_signal	s561	False
585.696	0.85	0.3	2.75	1.0	71.0	motor_selective_stop_signal	71.0	True	0.574	89.0	False	stim	noncrit_nosignal	s561	False
588.449	0.85	0.3	2.35	1.0	71.0	motor_selective_stop_signal	71.0	True	0.625	89.0	False	stim	noncrit_signal	s561	False
590.802	0.85	0.3	2.75	1.0	71.0	motor_selective_stop_signal	71.0	True	0.459	89.0	False	stim	noncrit_nosignal	s561	False
593.554	0.85	0.3	2.45	1.0	89.0	motor_selective_stop_signal	89.0	True	0.507	89.0	False	stim	crit_go	s561	False
596.006	0.85	0.3	2.25	1.0	71.0	motor_selective_stop_signal	71.0	True	0.597	89.0	False	stim	noncrit_nosignal	s561	False
598.258	0.85	0.3	2.35	0.0	89.0	motor_selective_stop_signal	71.0	True	0.417	89.0	False	stim	crit_stop_failure	s561	False
600.61	0.85	0.25	2.65	1.0	89.0	motor_selective_stop_signal	89.0	True	0.688	89.0	False	stim	crit_go	s561	False
603.262	0.85	0.25	2.45	1.0	89.0	motor_selective_stop_signal	-1.0	True	n/a	89.0	True	stim	crit_stop_success	s561	False
605.715	0.85	0.3	2.25	1.0	71.0	motor_selective_stop_signal	71.0	True	0.606	89.0	False	stim	noncrit_nosignal	s561	False
607.967	0.85	0.3	2.35	1.0	71.0	motor_selective_stop_signal	71.0	True	0.589	89.0	False	stim	noncrit_signal	s561	False
610.32	0.85	0.3	2.95	1.0	71.0	motor_selective_stop_signal	71.0	True	0.501	89.0	False	stim	noncrit_signal	s561	False
613.271	0.85	0.3	2.25	1.0	89.0	motor_selective_stop_signal	89.0	True	0.468	89.0	False	stim	crit_go	s561	False
615.523	0.85	0.3	2.95	1.0	71.0	motor_selective_stop_signal	71.0	True	0.473	89.0	False	stim	noncrit_nosignal	s561	False
618.476	0.85	0.3	2.45	1.0	71.0	motor_selective_stop_signal	71.0	True	0.582	89.0	False	stim	noncrit_signal	s561	False
620.928	0.85	0.3	2.25	1.0	89.0	motor_selective_stop_signal	89.0	True	0.494	89.0	False	stim	crit_stop_failure	s561	False
623.18	0.85	0.25	2.35	1.0	89.0	motor_selective_stop_signal	89.0	True	0.547	89.0	False	stim	crit_go	s561	False
625.533	0.85	0.25	2.45	1.0	71.0	motor_selective_stop_signal	71.0	True	0.532	89.0	False	stim	noncrit_nosignal	s561	False
627.986	0.85	0.25	2.25	1.0	89.0	motor_selective_stop_signal	89.0	True	0.503	89.0	False	stim	crit_stop_failure	s561	False
630.238	0.85	0.2	2.45	1.0	71.0	motor_selective_stop_signal	71.0	True	0.52	89.0	False	stim	noncrit_signal	s561	False
632.69	0.85	0.2	2.75	1.0	89.0	motor_selective_stop_signal	89.0	True	0.44	89.0	False	stim	crit_go	s561	False
635.442	0.85	0.2	2.25	1.0	71.0	motor_selective_stop_signal	71.0	True	0.497	89.0	False	stim	noncrit_signal	s561	False
637.694	0.85	0.2	2.35	1.0	89.0	motor_selective_stop_signal	89.0	True	0.416	89.0	False	stim	crit_go	s561	False
640.047	0.85	0.2	2.45	1.0	71.0	motor_selective_stop_signal	71.0	True	0.571	89.0	False	stim	noncrit_signal	s561	False
642.5	0.85	0.2	2.35	0.0	71.0	motor_selective_stop_signal	89.0	True	0.59	89.0	False	stim	noncrit_nosignal	s561	False
644.851	0.85	0.2	2.25	1.0	71.0	motor_selective_stop_signal	71.0	True	0.535	89.0	False	stim	noncrit_signal	s561	False
647.103	0.85	0.2	2.55	1.0	89.0	motor_selective_stop_signal	89.0	True	0.56	89.0	False	stim	crit_go	s561	False
649.655	0.85	0.2	2.45	1.0	71.0	motor_selective_stop_signal	71.0	True	0.52	89.0	False	stim	noncrit_nosignal	s561	False
