onset	duration	movement_onset	CTI	block_duration	correct	correct_response	cue	cue_switch	experiment_exp_id	key_press	response_time	stim_color	stim_number	switch_type	task	task_switch	trial_id	trial_type	worker_id	first_trial_of_block	junk
-1.462	1.0	-0.135	0.9	2.272	True	89.0	Color	n/a	twobytwo	89.0	0.427	blue	8.0	task_switch	color	switch	stim	poldrack-single-stim	s561	0	False
1.716	1.0	3.019	0.9	2.136	True	89.0	Magnitude	n/a	twobytwo	89.0	0.403	orange	2.0	task_switch	magnitude	switch	stim	poldrack-single-stim	s561	0	False
4.757	1.0	6.039	0.9	2.272	True	71.0	Magnitude	stay	twobytwo	71.0	0.382	orange	9.0	cue_stay	magnitude	stay	stim	poldrack-single-stim	s561	0	False
7.138	1.0	8.041	0.1	2.0	True	71.0	Color	n/a	twobytwo	71.0	0.803	orange	4.0	task_switch	color	switch	stim	poldrack-single-stim	s561	0	False
9.243	1.0	9.871	0.1	2.816	True	71.0	Color	stay	twobytwo	71.0	0.528	orange	3.0	cue_stay	color	stay	stim	poldrack-single-stim	s561	0	False
12.964	1.0	14.344	0.9	2.408	True	71.0	Orange-Blue	switch	twobytwo	71.0	0.48	orange	2.0	cue_switch	color	stay	stim	poldrack-single-stim	s561	0	False
15.479	1.0	16.234	0.1	2.0	True	71.0	Orange-Blue	stay	twobytwo	71.0	0.655	orange	7.0	cue_stay	color	stay	stim	poldrack-single-stim	s561	0	False
18.385	1.0	19.703	0.9	2.544	True	71.0	Orange-Blue	stay	twobytwo	71.0	0.418	orange	6.0	cue_stay	color	stay	stim	poldrack-single-stim	s561	0	False
21.833	1.0	23.14	0.9	2.136	True	89.0	Magnitude	n/a	twobytwo	89.0	0.407	orange	1.0	task_switch	magnitude	switch	stim	poldrack-single-stim	s561	0	False
24.077	1.0	24.905	0.1	2.0	True	89.0	Orange-Blue	n/a	twobytwo	89.0	0.728	blue	6.0	task_switch	color	switch	stim	poldrack-single-stim	s561	0	False
26.983	1.0	28.228	0.9	2.0	True	89.0	Orange-Blue	stay	twobytwo	89.0	0.345	blue	4.0	cue_stay	color	stay	stim	poldrack-single-stim	s561	0	False
29.088	1.0	30.233	0.1	2.136	True	89.0	Color	switch	twobytwo	89.0	1.045	blue	1.0	cue_switch	color	stay	stim	poldrack-single-stim	s561	0	False
32.132	1.0	33.395	0.9	2.136	True	71.0	Color	stay	twobytwo	71.0	0.363	orange	3.0	cue_stay	color	stay	stim	poldrack-single-stim	s561	0	False
34.374	1.0	35.316	0.1	2.272	True	71.0	Magnitude	n/a	twobytwo	71.0	0.842	orange	7.0	task_switch	magnitude	switch	stim	poldrack-single-stim	s561	0	False
37.557	1.0	38.938	0.9	3.224	True	89.0	High-Low	switch	twobytwo	89.0	0.481	blue	3.0	cue_switch	magnitude	stay	stim	poldrack-single-stim	s561	0	False
41.688	1.0	43.107	0.9	2.0	True	89.0	Magnitude	switch	twobytwo	89.0	0.519	blue	3.0	cue_switch	magnitude	stay	stim	poldrack-single-stim	s561	0	False
43.795	1.0	44.462	0.1	2.0	True	89.0	Color	n/a	twobytwo	89.0	0.567	blue	2.0	task_switch	color	switch	stim	poldrack-single-stim	s561	0	False
45.901	1.0	46.659	0.1	2.272	True	71.0	High-Low	n/a	twobytwo	71.0	0.658	orange	9.0	task_switch	magnitude	switch	stim	poldrack-single-stim	s561	0	False
48.278	1.0	48.918	0.1	2.136	True	71.0	Color	n/a	twobytwo	71.0	0.54	orange	3.0	task_switch	color	switch	stim	poldrack-single-stim	s561	0	False
50.52	1.0	51.272	0.1	2.0	True	89.0	Orange-Blue	switch	twobytwo	89.0	0.652	blue	3.0	cue_switch	color	stay	stim	poldrack-single-stim	s561	0	False
53.424	1.0	54.76	0.9	2.0	True	89.0	Orange-Blue	stay	twobytwo	89.0	0.436	blue	4.0	cue_stay	color	stay	stim	poldrack-single-stim	s561	0	False
56.33	1.0	57.642	0.9	2.0	True	89.0	Orange-Blue	stay	twobytwo	89.0	0.412	blue	9.0	cue_stay	color	stay	stim	poldrack-single-stim	s561	0	False
58.436	1.0	59.116	0.1	2.68	True	71.0	Orange-Blue	stay	twobytwo	71.0	0.58	orange	3.0	cue_stay	color	stay	stim	poldrack-single-stim	s561	0	False
61.225	1.0	61.999	0.1	2.0	True	89.0	High-Low	n/a	twobytwo	89.0	0.674	blue	4.0	task_switch	magnitude	switch	stim	poldrack-single-stim	s561	0	False
63.331	1.0	64.096	0.1	2.272	True	89.0	Color	n/a	twobytwo	89.0	0.665	blue	1.0	task_switch	color	switch	stim	poldrack-single-stim	s561	0	False
65.71	1.0	66.382	0.1	2.0	True	89.0	High-Low	n/a	twobytwo	89.0	0.572	orange	1.0	task_switch	magnitude	switch	stim	poldrack-single-stim	s561	0	False
67.817	1.0	68.638	0.1	2.272	True	71.0	Magnitude	switch	twobytwo	71.0	0.721	blue	6.0	cue_switch	magnitude	stay	stim	poldrack-single-stim	s561	0	False
70.993	1.0	72.38	0.9	2.952	True	89.0	High-Low	switch	twobytwo	89.0	0.487	blue	2.0	cue_switch	magnitude	stay	stim	poldrack-single-stim	s561	0	False
74.052	1.0	74.84	0.1	2.0	True	71.0	Color	n/a	twobytwo	71.0	0.688	orange	1.0	task_switch	color	switch	stim	poldrack-single-stim	s561	0	False
76.957	1.0	78.386	0.9	2.0	True	89.0	Orange-Blue	switch	twobytwo	89.0	0.529	blue	8.0	cue_switch	color	stay	stim	poldrack-single-stim	s561	0	False
79.863	1.0	81.313	0.9	2.0	True	71.0	Magnitude	n/a	twobytwo	71.0	0.55	orange	6.0	task_switch	magnitude	switch	stim	poldrack-single-stim	s561	0	False
81.966	1.0	82.775	0.1	2.0	True	89.0	Magnitude	stay	twobytwo	89.0	0.709	orange	3.0	cue_stay	magnitude	stay	stim	poldrack-single-stim	s561	0	False
84.871	1.0	86.276	0.9	2.136	True	89.0	High-Low	switch	twobytwo	89.0	0.505	blue	2.0	cue_switch	magnitude	stay	stim	poldrack-single-stim	s561	0	False
87.114	1.0	88.02	0.1	2.0	True	71.0	Orange-Blue	n/a	twobytwo	71.0	0.806	orange	1.0	task_switch	color	switch	stim	poldrack-single-stim	s561	0	False
90.02	1.0	91.559	0.9	2.0	True	89.0	Magnitude	n/a	twobytwo	89.0	0.639	blue	4.0	task_switch	magnitude	switch	stim	poldrack-single-stim	s561	0	False
92.927	1.0	94.325	0.9	2.0	True	71.0	High-Low	switch	twobytwo	71.0	0.498	orange	7.0	cue_switch	magnitude	stay	stim	poldrack-single-stim	s561	0	False
95.833	1.0	97.272	0.9	2.272	True	71.0	Orange-Blue	n/a	twobytwo	71.0	0.539	orange	1.0	task_switch	color	switch	stim	poldrack-single-stim	s561	0	False
98.21	1.0	98.879	0.1	2.136	True	89.0	Magnitude	n/a	twobytwo	89.0	0.569	orange	4.0	task_switch	magnitude	switch	stim	poldrack-single-stim	s561	0	False
101.252	1.0	102.525	0.9	2.0	True	89.0	Color	n/a	twobytwo	89.0	0.373	blue	2.0	task_switch	color	switch	stim	poldrack-single-stim	s561	0	False
103.36	1.0	104.237	0.1	2.136	True	71.0	High-Low	n/a	twobytwo	71.0	0.777	blue	6.0	task_switch	magnitude	switch	stim	poldrack-single-stim	s561	0	False
106.405	1.0	107.831	0.9	2.816	True	89.0	Color	n/a	twobytwo	89.0	0.526	blue	4.0	task_switch	color	switch	stim	poldrack-single-stim	s561	0	False
110.124	1.0	111.455	0.9	2.408	True	71.0	Orange-Blue	switch	twobytwo	71.0	0.431	orange	8.0	cue_switch	color	stay	stim	poldrack-single-stim	s561	0	False
112.639	1.0	113.338	0.1	2.0	True	89.0	Magnitude	n/a	twobytwo	89.0	0.599	blue	3.0	task_switch	magnitude	switch	stim	poldrack-single-stim	s561	0	False
114.746	1.0	115.551	0.1	2.136	True	71.0	Orange-Blue	n/a	twobytwo	71.0	0.705	orange	7.0	task_switch	color	switch	stim	poldrack-single-stim	s561	0	False
116.989	1.0	117.741	0.1	2.136	True	71.0	Orange-Blue	stay	twobytwo	71.0	0.652	orange	8.0	cue_stay	color	stay	stim	poldrack-single-stim	s561	0	False
119.229	1.0	120.408	0.1	2.136	True	89.0	Color	switch	twobytwo	89.0	1.079	blue	8.0	cue_switch	color	stay	stim	poldrack-single-stim	s561	0	False
121.469	1.0	122.249	0.1	2.544	True	89.0	Magnitude	n/a	twobytwo	89.0	0.68	blue	1.0	task_switch	magnitude	switch	stim	poldrack-single-stim	s561	0	False
124.92	1.0	126.243	0.9	2.136	True	89.0	Color	n/a	twobytwo	89.0	0.423	blue	8.0	task_switch	color	switch	stim	poldrack-single-stim	s561	0	False
127.963	1.0	129.379	0.9	2.0	True	89.0	Magnitude	n/a	twobytwo	89.0	0.516	blue	4.0	task_switch	magnitude	switch	stim	poldrack-single-stim	s561	0	False
130.871	1.0	132.121	0.9	2.0	True	71.0	Color	n/a	twobytwo	71.0	0.35	orange	3.0	task_switch	color	switch	stim	poldrack-single-stim	s561	0	False
132.976	1.0	133.781	0.1	2.0	True	71.0	Color	stay	twobytwo	71.0	0.705	orange	8.0	cue_stay	color	stay	stim	poldrack-single-stim	s561	0	False
135.882	1.0	137.33	0.9	2.0	True	89.0	High-Low	n/a	twobytwo	89.0	0.548	orange	1.0	task_switch	magnitude	switch	stim	poldrack-single-stim	s561	0	False
138.787	1.0	140.245	0.9	2.136	False	89.0	Color	n/a	twobytwo	71.0	0.558	blue	8.0	task_switch	color	switch	stim	poldrack-single-stim	s561	0	False
141.827	1.0	143.188	0.9	2.0	True	71.0	Orange-Blue	switch	twobytwo	71.0	0.461	orange	7.0	cue_switch	color	stay	stim	poldrack-single-stim	s561	0	False
143.936	1.0	144.88	0.1	2.0	True	89.0	Color	switch	twobytwo	89.0	0.844	blue	6.0	cue_switch	color	stay	stim	poldrack-single-stim	s561	0	False
146.84	1.0	148.18	0.9	2.0	True	89.0	Color	stay	twobytwo	89.0	0.44	blue	6.0	cue_stay	color	stay	stim	poldrack-single-stim	s561	0	False
149.747	1.0	151.151	0.9	2.136	False	71.0	High-Low	n/a	twobytwo	89.0	0.504	blue	6.0	task_switch	magnitude	switch	stim	poldrack-single-stim	s561	0	False
151.987	1.0	152.852	0.1	2.136	True	89.0	Color	n/a	twobytwo	89.0	0.765	blue	9.0	task_switch	color	switch	stim	poldrack-single-stim	s561	0	False
155.028	1.0	156.56	0.9	2.136	True	71.0	Color	stay	twobytwo	71.0	0.632	orange	3.0	cue_stay	color	stay	stim	poldrack-single-stim	s561	0	False
158.073	1.0	159.757	0.9	2.136	False	71.0	High-Low	n/a	twobytwo	89.0	0.784	blue	6.0	task_switch	magnitude	switch	stim	poldrack-single-stim	s561	0	False
160.313	1.0	161.199	0.1	2.68	True	71.0	High-Low	stay	twobytwo	71.0	0.786	blue	6.0	cue_stay	magnitude	stay	stim	poldrack-single-stim	s561	0	False
163.1	1.0	164.004	0.1	2.544	True	71.0	Magnitude	switch	twobytwo	71.0	0.804	blue	7.0	cue_switch	magnitude	stay	stim	poldrack-single-stim	s561	0	False
165.75	1.0	166.575	0.1	2.272	True	89.0	High-Low	switch	twobytwo	89.0	0.725	blue	4.0	cue_switch	magnitude	stay	stim	poldrack-single-stim	s561	0	False
168.126	1.0	169.041	0.1	2.272	True	89.0	Magnitude	switch	twobytwo	89.0	0.815	orange	3.0	cue_switch	magnitude	stay	stim	poldrack-single-stim	s561	0	False
171.305	1.0	172.772	0.9	2.408	True	71.0	Color	n/a	twobytwo	71.0	0.567	orange	3.0	task_switch	color	switch	stim	poldrack-single-stim	s561	0	False
174.62	1.0	176.193	0.9	2.136	True	71.0	Color	stay	twobytwo	71.0	0.673	orange	3.0	cue_stay	color	stay	stim	poldrack-single-stim	s561	0	False
176.865	1.0	177.687	0.1	2.272	True	89.0	Magnitude	n/a	twobytwo	89.0	0.722	orange	3.0	task_switch	magnitude	switch	stim	poldrack-single-stim	s561	0	False
179.247	1.0	180.151	0.1	2.0	True	71.0	High-Low	switch	twobytwo	71.0	0.804	orange	9.0	cue_switch	magnitude	stay	stim	poldrack-single-stim	s561	0	False
181.354	1.0	182.045	0.1	2.136	True	89.0	Magnitude	switch	twobytwo	89.0	0.591	blue	4.0	cue_switch	magnitude	stay	stim	poldrack-single-stim	s561	0	False
183.596	1.0	184.255	0.1	2.272	True	89.0	Magnitude	stay	twobytwo	89.0	0.559	orange	3.0	cue_stay	magnitude	stay	stim	poldrack-single-stim	s561	0	False
185.98	1.0	186.662	0.1	2.0	True	71.0	Color	n/a	twobytwo	71.0	0.582	orange	8.0	task_switch	color	switch	stim	poldrack-single-stim	s561	0	False
188.087	1.0	188.786	0.1	2.68	True	89.0	Magnitude	n/a	twobytwo	89.0	0.599	blue	1.0	task_switch	magnitude	switch	stim	poldrack-single-stim	s561	0	False
190.874	1.0	191.649	0.1	2.0	True	89.0	High-Low	switch	twobytwo	89.0	0.675	orange	4.0	cue_switch	magnitude	stay	stim	poldrack-single-stim	s561	0	False
192.983	1.0	193.654	0.1	2.0	False	89.0	Color	n/a	twobytwo	71.0	0.571	blue	1.0	task_switch	color	switch	stim	poldrack-single-stim	s561	0	False
195.09	1.0	195.99	0.1	2.0	True	89.0	Color	stay	twobytwo	89.0	0.8	blue	8.0	cue_stay	color	stay	stim	poldrack-single-stim	s561	0	False
197.994	1.0	199.535	0.9	2.272	True	89.0	High-Low	n/a	twobytwo	89.0	0.641	orange	1.0	task_switch	magnitude	switch	stim	poldrack-single-stim	s561	0	False
200.37	1.0	202.187	0.1	2.0	False	89.0	Orange-Blue	n/a	twobytwo	71.0	1.717	blue	2.0	task_switch	color	switch	stim	poldrack-single-stim	s561	0	False
203.273	1.0	204.901	0.9	2.0	False	89.0	Magnitude	n/a	twobytwo	71.0	0.728	orange	1.0	task_switch	magnitude	switch	stim	poldrack-single-stim	s561	0	False
205.378	1.0	206.551	0.1	2.0	True	89.0	Orange-Blue	n/a	twobytwo	89.0	1.073	blue	2.0	task_switch	color	switch	stim	poldrack-single-stim	s561	0	False
221.803	1.0	223.247	0.9	2.68	True	89.0	Magnitude	switch	twobytwo	89.0	0.544	blue	3.0	cue_switch	magnitude	stay	stim	poldrack-single-stim	s561	1	False
225.394	1.0	226.683	0.9	2.0	True	89.0	Orange-Blue	n/a	twobytwo	89.0	0.389	blue	8.0	task_switch	color	switch	stim	poldrack-single-stim	s561	0	False
228.298	1.0	229.646	0.9	2.136	True	89.0	High-Low	n/a	twobytwo	89.0	0.448	orange	2.0	task_switch	magnitude	switch	stim	poldrack-single-stim	s561	0	False
231.339	1.0	232.658	0.9	2.408	True	71.0	High-Low	stay	twobytwo	71.0	0.419	orange	9.0	cue_stay	magnitude	stay	stim	poldrack-single-stim	s561	0	False
233.851	1.0	234.847	0.1	2.136	True	71.0	Color	n/a	twobytwo	71.0	0.896	orange	4.0	task_switch	color	switch	stim	poldrack-single-stim	s561	0	False
236.091	1.0	236.742	0.1	2.0	True	71.0	Color	stay	twobytwo	71.0	0.551	orange	3.0	cue_stay	color	stay	stim	poldrack-single-stim	s561	0	False
238.997	1.0	240.372	0.9	2.0	True	71.0	Orange-Blue	switch	twobytwo	71.0	0.475	orange	2.0	cue_switch	color	stay	stim	poldrack-single-stim	s561	0	False
241.105	1.0	241.832	0.1	2.544	True	71.0	Orange-Blue	stay	twobytwo	71.0	0.627	orange	7.0	cue_stay	color	stay	stim	poldrack-single-stim	s561	0	False
244.554	1.0	245.859	0.9	2.136	True	71.0	Orange-Blue	stay	twobytwo	71.0	0.405	orange	6.0	cue_stay	color	stay	stim	poldrack-single-stim	s561	0	False
247.598	1.0	248.843	0.9	2.544	True	89.0	Magnitude	n/a	twobytwo	89.0	0.345	orange	1.0	task_switch	magnitude	switch	stim	poldrack-single-stim	s561	0	False
250.246	1.0	251.134	0.1	2.68	False	89.0	Color	n/a	twobytwo	71.0	0.788	blue	6.0	task_switch	color	switch	stim	poldrack-single-stim	s561	0	False
253.833	1.0	255.123	0.9	2.0	True	89.0	Color	stay	twobytwo	89.0	0.39	blue	4.0	cue_stay	color	stay	stim	poldrack-single-stim	s561	0	False
255.94	1.0	256.834	0.1	2.272	True	89.0	Orange-Blue	switch	twobytwo	89.0	0.794	blue	1.0	cue_switch	color	stay	stim	poldrack-single-stim	s561	0	False
259.124	1.0	260.447	0.9	3.088	True	71.0	Orange-Blue	stay	twobytwo	71.0	0.423	orange	3.0	cue_stay	color	stay	stim	poldrack-single-stim	s561	0	False
262.319	1.0	263.34	0.1	2.0	True	71.0	Magnitude	n/a	twobytwo	71.0	0.921	orange	7.0	task_switch	magnitude	switch	stim	poldrack-single-stim	s561	0	False
265.223	1.0	266.588	0.9	2.136	True	89.0	High-Low	switch	twobytwo	89.0	0.465	blue	3.0	cue_switch	magnitude	stay	stim	poldrack-single-stim	s561	0	False
268.263	1.0	269.683	0.9	2.136	True	89.0	Magnitude	switch	twobytwo	89.0	0.52	blue	3.0	cue_switch	magnitude	stay	stim	poldrack-single-stim	s561	0	False
270.506	1.0	271.146	0.1	2.0	True	89.0	Color	n/a	twobytwo	89.0	0.54	blue	2.0	task_switch	color	switch	stim	poldrack-single-stim	s561	0	False
272.612	1.0	273.35	0.1	2.272	True	71.0	High-Low	n/a	twobytwo	71.0	0.638	orange	9.0	task_switch	magnitude	switch	stim	poldrack-single-stim	s561	0	False
274.991	1.0	275.824	0.1	2.0	True	71.0	Color	n/a	twobytwo	71.0	0.733	orange	3.0	task_switch	color	switch	stim	poldrack-single-stim	s561	0	False
277.099	1.0	277.974	0.1	2.136	True	89.0	Orange-Blue	switch	twobytwo	89.0	0.775	blue	3.0	cue_switch	color	stay	stim	poldrack-single-stim	s561	0	False
280.141	1.0	281.523	0.9	2.136	True	89.0	Orange-Blue	stay	twobytwo	89.0	0.482	blue	4.0	cue_stay	color	stay	stim	poldrack-single-stim	s561	0	False
283.183	1.0	284.592	0.9	2.544	True	89.0	Orange-Blue	stay	twobytwo	89.0	0.509	blue	9.0	cue_stay	color	stay	stim	poldrack-single-stim	s561	0	False
285.83	1.0	286.501	0.1	2.0	True	71.0	Orange-Blue	stay	twobytwo	71.0	0.571	orange	3.0	cue_stay	color	stay	stim	poldrack-single-stim	s561	0	False
287.938	1.0	288.658	0.1	2.136	True	89.0	Magnitude	n/a	twobytwo	89.0	0.62	blue	4.0	task_switch	magnitude	switch	stim	poldrack-single-stim	s561	0	False
290.177	1.0	291.137	0.1	2.136	True	89.0	Orange-Blue	n/a	twobytwo	89.0	0.86	blue	1.0	task_switch	color	switch	stim	poldrack-single-stim	s561	0	False
292.418	1.0	293.105	0.1	2.136	True	89.0	High-Low	n/a	twobytwo	89.0	0.587	orange	1.0	task_switch	magnitude	switch	stim	poldrack-single-stim	s561	0	False
294.659	1.0	295.41	0.1	2.0	True	71.0	Magnitude	switch	twobytwo	71.0	0.651	blue	6.0	cue_switch	magnitude	stay	stim	poldrack-single-stim	s561	0	False
297.567	1.0	298.925	0.9	2.136	True	89.0	High-Low	switch	twobytwo	89.0	0.458	blue	2.0	cue_switch	magnitude	stay	stim	poldrack-single-stim	s561	0	False
299.813	1.0	300.477	0.1	2.0	True	71.0	Orange-Blue	n/a	twobytwo	71.0	0.564	orange	1.0	task_switch	color	switch	stim	poldrack-single-stim	s561	0	False
302.717	1.0	304.09	0.9	2.136	True	89.0	Color	switch	twobytwo	89.0	0.473	blue	8.0	cue_switch	color	stay	stim	poldrack-single-stim	s561	0	False
305.76	1.0	307.262	0.9	2.816	True	71.0	Magnitude	n/a	twobytwo	71.0	0.602	orange	6.0	task_switch	magnitude	switch	stim	poldrack-single-stim	s561	0	False
308.68	1.0	309.4	0.1	2.136	True	89.0	Magnitude	stay	twobytwo	89.0	0.62	orange	3.0	cue_stay	magnitude	stay	stim	poldrack-single-stim	s561	0	False
311.723	1.0	313.119	0.9	2.0	True	89.0	High-Low	switch	twobytwo	89.0	0.496	blue	2.0	cue_switch	magnitude	stay	stim	poldrack-single-stim	s561	0	False
313.83	1.0	314.773	0.1	2.0	True	71.0	Color	n/a	twobytwo	71.0	0.843	orange	1.0	task_switch	color	switch	stim	poldrack-single-stim	s561	0	False
316.734	1.0	318.129	0.9	2.272	True	89.0	High-Low	n/a	twobytwo	89.0	0.495	blue	4.0	task_switch	magnitude	switch	stim	poldrack-single-stim	s561	0	False
319.912	1.0	321.239	0.9	2.0	True	71.0	Magnitude	switch	twobytwo	71.0	0.427	orange	7.0	cue_switch	magnitude	stay	stim	poldrack-single-stim	s561	0	False
322.822	1.0	324.256	0.9	2.0	True	71.0	Color	n/a	twobytwo	71.0	0.534	orange	1.0	task_switch	color	switch	stim	poldrack-single-stim	s561	0	False
324.928	1.0	325.65	0.1	2.0	True	89.0	High-Low	n/a	twobytwo	89.0	0.622	orange	4.0	task_switch	magnitude	switch	stim	poldrack-single-stim	s561	0	False
327.833	1.0	329.468	0.9	2.408	True	89.0	Color	n/a	twobytwo	89.0	0.735	blue	2.0	task_switch	color	switch	stim	poldrack-single-stim	s561	0	False
330.347	1.0	331.164	0.1	2.272	True	71.0	Magnitude	n/a	twobytwo	71.0	0.717	blue	6.0	task_switch	magnitude	switch	stim	poldrack-single-stim	s561	0	False
333.524	1.0	334.814	0.9	2.136	True	89.0	Color	n/a	twobytwo	89.0	0.39	blue	4.0	task_switch	color	switch	stim	poldrack-single-stim	s561	0	False
336.565	1.0	337.862	0.9	2.0	True	71.0	Orange-Blue	switch	twobytwo	71.0	0.397	orange	8.0	cue_switch	color	stay	stim	poldrack-single-stim	s561	0	False
338.673	1.0	339.438	0.1	2.0	True	89.0	High-Low	n/a	twobytwo	89.0	0.665	blue	3.0	task_switch	magnitude	switch	stim	poldrack-single-stim	s561	0	False
340.777	1.0	341.441	0.1	2.136	True	71.0	Color	n/a	twobytwo	71.0	0.564	orange	7.0	task_switch	color	switch	stim	poldrack-single-stim	s561	0	False
343.016	1.0	343.89	0.1	2.0	True	71.0	Color	stay	twobytwo	71.0	0.774	orange	8.0	cue_stay	color	stay	stim	poldrack-single-stim	s561	0	False
345.123	1.0	345.807	0.1	2.136	True	89.0	Orange-Blue	switch	twobytwo	89.0	0.584	blue	8.0	cue_switch	color	stay	stim	poldrack-single-stim	s561	0	False
347.364	1.0	348.06	0.1	2.408	True	89.0	Magnitude	n/a	twobytwo	89.0	0.596	blue	1.0	task_switch	magnitude	switch	stim	poldrack-single-stim	s561	0	False
350.682	1.0	352.336	0.9	2.136	True	89.0	Orange-Blue	n/a	twobytwo	89.0	0.754	blue	8.0	task_switch	color	switch	stim	poldrack-single-stim	s561	0	False
353.724	1.0	355.202	0.9	2.0	True	89.0	High-Low	n/a	twobytwo	89.0	0.578	blue	4.0	task_switch	magnitude	switch	stim	poldrack-single-stim	s561	0	False
356.628	1.0	358.014	0.9	2.136	True	71.0	Color	n/a	twobytwo	71.0	0.486	orange	3.0	task_switch	color	switch	stim	poldrack-single-stim	s561	0	False
358.871	1.0	359.515	0.1	2.272	True	71.0	Color	stay	twobytwo	71.0	0.544	orange	8.0	cue_stay	color	stay	stim	poldrack-single-stim	s561	0	False
362.05	1.0	363.369	0.9	2.0	True	89.0	High-Low	n/a	twobytwo	89.0	0.419	orange	1.0	task_switch	magnitude	switch	stim	poldrack-single-stim	s561	0	False
364.954	1.0	366.345	0.9	2.408	True	89.0	Color	n/a	twobytwo	89.0	0.491	blue	8.0	task_switch	color	switch	stim	poldrack-single-stim	s561	0	False
368.266	1.0	369.722	0.9	2.0	True	71.0	Orange-Blue	switch	twobytwo	71.0	0.556	orange	7.0	cue_switch	color	stay	stim	poldrack-single-stim	s561	0	False
370.373	1.0	371.25	0.1	2.136	True	89.0	Color	switch	twobytwo	89.0	0.777	blue	6.0	cue_switch	color	stay	stim	poldrack-single-stim	s561	0	False
373.413	1.0	374.731	0.9	2.408	True	89.0	Color	stay	twobytwo	89.0	0.418	blue	6.0	cue_stay	color	stay	stim	poldrack-single-stim	s561	0	False
376.725	1.0	378.469	0.9	2.136	False	71.0	High-Low	n/a	twobytwo	89.0	0.844	blue	6.0	task_switch	magnitude	switch	stim	poldrack-single-stim	s561	0	False
378.965	1.0	380.163	0.1	2.408	True	89.0	Orange-Blue	n/a	twobytwo	89.0	1.098	blue	9.0	task_switch	color	switch	stim	poldrack-single-stim	s561	0	False
382.277	1.0	383.789	0.9	2.136	True	71.0	Orange-Blue	stay	twobytwo	71.0	0.612	orange	3.0	cue_stay	color	stay	stim	poldrack-single-stim	s561	0	False
385.32	1.0	386.684	0.9	2.0	False	71.0	Magnitude	n/a	twobytwo	89.0	0.464	blue	6.0	task_switch	magnitude	switch	stim	poldrack-single-stim	s561	0	False
387.427	1.0	388.315	0.1	2.272	True	71.0	Magnitude	stay	twobytwo	71.0	0.788	blue	6.0	cue_stay	magnitude	stay	stim	poldrack-single-stim	s561	0	False
389.811	1.0	390.556	0.1	2.0	True	71.0	High-Low	switch	twobytwo	71.0	0.645	blue	7.0	cue_switch	magnitude	stay	stim	poldrack-single-stim	s561	0	False
391.917	1.0	392.689	0.1	2.272	True	89.0	Magnitude	switch	twobytwo	89.0	0.672	blue	4.0	cue_switch	magnitude	stay	stim	poldrack-single-stim	s561	0	False
394.296	1.0	395.067	0.1	2.272	True	89.0	High-Low	switch	twobytwo	89.0	0.671	orange	3.0	cue_switch	magnitude	stay	stim	poldrack-single-stim	s561	0	False
397.472	1.0	398.958	0.9	2.952	True	71.0	Orange-Blue	n/a	twobytwo	71.0	0.586	orange	3.0	task_switch	color	switch	stim	poldrack-single-stim	s561	0	False
401.328	1.0	402.849	0.9	2.68	False	71.0	Orange-Blue	stay	twobytwo	89.0	0.621	orange	3.0	cue_stay	color	stay	stim	poldrack-single-stim	s561	0	False
404.113	1.0	405.124	0.1	2.136	True	89.0	High-Low	n/a	twobytwo	89.0	0.911	orange	3.0	task_switch	magnitude	switch	stim	poldrack-single-stim	s561	0	False
406.354	1.0	407.138	0.1	2.272	True	71.0	Magnitude	switch	twobytwo	71.0	0.684	orange	9.0	cue_switch	magnitude	stay	stim	poldrack-single-stim	s561	0	False
408.731	1.0	409.604	0.1	2.272	True	89.0	High-Low	switch	twobytwo	89.0	0.773	blue	4.0	cue_switch	magnitude	stay	stim	poldrack-single-stim	s561	0	False
411.11	1.0	411.796	0.1	2.136	True	89.0	High-Low	stay	twobytwo	89.0	0.586	orange	3.0	cue_stay	magnitude	stay	stim	poldrack-single-stim	s561	0	False
413.355	1.0	414.149	0.1	2.408	True	71.0	Color	n/a	twobytwo	71.0	0.694	orange	8.0	task_switch	color	switch	stim	poldrack-single-stim	s561	0	False
415.868	1.0	416.591	0.1	2.136	True	89.0	High-Low	n/a	twobytwo	89.0	0.623	blue	1.0	task_switch	magnitude	switch	stim	poldrack-single-stim	s561	0	False
418.107	1.0	418.825	0.1	2.136	True	89.0	Magnitude	switch	twobytwo	89.0	0.618	orange	4.0	cue_switch	magnitude	stay	stim	poldrack-single-stim	s561	0	False
420.35	1.0	421.347	0.1	2.0	True	89.0	Orange-Blue	n/a	twobytwo	89.0	0.897	blue	1.0	task_switch	color	switch	stim	poldrack-single-stim	s561	0	False
422.457	1.0	423.342	0.1	2.0	True	89.0	Orange-Blue	stay	twobytwo	89.0	0.785	blue	8.0	cue_stay	color	stay	stim	poldrack-single-stim	s561	0	False
425.36	1.0	426.68	0.9	2.0	True	89.0	Magnitude	n/a	twobytwo	89.0	0.42	orange	1.0	task_switch	magnitude	switch	stim	poldrack-single-stim	s561	0	False
427.465	1.0	428.284	0.1	2.0	True	89.0	Orange-Blue	n/a	twobytwo	89.0	0.719	blue	2.0	task_switch	color	switch	stim	poldrack-single-stim	s561	0	False
430.372	1.0	431.714	0.9	2.0	True	89.0	High-Low	n/a	twobytwo	89.0	0.442	orange	1.0	task_switch	magnitude	switch	stim	poldrack-single-stim	s561	0	False
432.479	1.0	433.344	0.1	2.272	True	89.0	Color	n/a	twobytwo	89.0	0.765	blue	2.0	task_switch	color	switch	stim	poldrack-single-stim	s561	0	False
449.17	1.0	450.553	0.9	2.408	True	89.0	Orange-Blue	switch	twobytwo	89.0	0.483	blue	3.0	cue_switch	color	stay	stim	poldrack-single-stim	s561	1	False
452.485	1.0	453.865	0.9	2.0	True	71.0	Magnitude	n/a	twobytwo	71.0	0.48	blue	8.0	task_switch	magnitude	switch	stim	poldrack-single-stim	s561	0	False
455.394	1.0	456.83	0.9	2.136	False	71.0	Color	n/a	twobytwo	89.0	0.536	orange	2.0	task_switch	color	switch	stim	poldrack-single-stim	s561	0	False
458.437	1.0	459.697	0.9	2.0	True	71.0	Color	stay	twobytwo	71.0	0.36	orange	9.0	cue_stay	color	stay	stim	poldrack-single-stim	s561	0	False
460.54	1.0	461.385	0.1	2.136	True	89.0	Magnitude	n/a	twobytwo	89.0	0.745	orange	4.0	task_switch	magnitude	switch	stim	poldrack-single-stim	s561	0	False
462.784	1.0	463.713	0.1	2.544	True	89.0	Magnitude	stay	twobytwo	89.0	0.829	orange	3.0	cue_stay	magnitude	stay	stim	poldrack-single-stim	s561	0	False
466.232	1.0	467.573	0.9	2.68	True	89.0	High-Low	switch	twobytwo	89.0	0.441	orange	2.0	cue_switch	magnitude	stay	stim	poldrack-single-stim	s561	0	False
469.019	1.0	469.781	0.1	3.088	True	71.0	High-Low	stay	twobytwo	71.0	0.662	orange	7.0	cue_stay	magnitude	stay	stim	poldrack-single-stim	s561	0	False
473.011	1.0	474.547	0.9	2.136	True	71.0	High-Low	stay	twobytwo	71.0	0.636	orange	6.0	cue_stay	magnitude	stay	stim	poldrack-single-stim	s561	0	False
476.059	1.0	477.328	0.9	2.544	True	71.0	Orange-Blue	n/a	twobytwo	71.0	0.369	orange	1.0	task_switch	color	switch	stim	poldrack-single-stim	s561	0	False
478.71	1.0	479.573	0.1	2.0	False	71.0	High-Low	n/a	twobytwo	89.0	0.763	blue	6.0	task_switch	magnitude	switch	stim	poldrack-single-stim	s561	0	False
481.614	1.0	483.17	0.9	2.136	True	89.0	High-Low	stay	twobytwo	89.0	0.656	blue	4.0	cue_stay	magnitude	stay	stim	poldrack-single-stim	s561	0	False
483.857	1.0	484.713	0.1	2.0	True	89.0	Magnitude	switch	twobytwo	89.0	0.756	blue	1.0	cue_switch	magnitude	stay	stim	poldrack-single-stim	s561	0	False
486.765	1.0	488.392	0.9	2.408	True	89.0	Magnitude	stay	twobytwo	89.0	0.727	orange	3.0	cue_stay	magnitude	stay	stim	poldrack-single-stim	s561	0	False
489.281	1.0	489.984	0.1	2.0	True	71.0	Orange-Blue	n/a	twobytwo	71.0	0.603	orange	7.0	task_switch	color	switch	stim	poldrack-single-stim	s561	0	False
492.187	1.0	493.579	0.9	2.0	True	89.0	Color	switch	twobytwo	89.0	0.492	blue	3.0	cue_switch	color	stay	stim	poldrack-single-stim	s561	0	False
495.098	1.0	496.48	0.9	2.0	True	89.0	Orange-Blue	switch	twobytwo	89.0	0.482	blue	3.0	cue_switch	color	stay	stim	poldrack-single-stim	s561	0	False
497.203	1.0	497.898	0.1	2.68	True	89.0	High-Low	n/a	twobytwo	89.0	0.595	blue	2.0	task_switch	magnitude	switch	stim	poldrack-single-stim	s561	0	False
499.99	1.0	500.69	0.1	2.272	True	71.0	Orange-Blue	n/a	twobytwo	71.0	0.6	orange	9.0	task_switch	color	switch	stim	poldrack-single-stim	s561	0	False
502.366	1.0	503.069	0.1	2.408	True	89.0	Magnitude	n/a	twobytwo	89.0	0.603	orange	3.0	task_switch	magnitude	switch	stim	poldrack-single-stim	s561	0	False
504.878	1.0	505.548	0.1	3.224	True	89.0	High-Low	switch	twobytwo	89.0	0.57	blue	3.0	cue_switch	magnitude	stay	stim	poldrack-single-stim	s561	0	False
509.007	1.0	510.442	0.9	2.408	True	89.0	High-Low	stay	twobytwo	89.0	0.535	blue	4.0	cue_stay	magnitude	stay	stim	poldrack-single-stim	s561	0	False
512.321	1.0	513.821	0.9	2.816	True	71.0	High-Low	stay	twobytwo	71.0	0.6	blue	9.0	cue_stay	magnitude	stay	stim	poldrack-single-stim	s561	0	False
515.242	1.0	515.973	0.1	2.408	True	89.0	High-Low	stay	twobytwo	89.0	0.631	orange	3.0	cue_stay	magnitude	stay	stim	poldrack-single-stim	s561	0	False
517.753	1.0	518.721	0.1	2.136	True	89.0	Color	n/a	twobytwo	89.0	0.868	blue	4.0	task_switch	color	switch	stim	poldrack-single-stim	s561	0	False
519.994	1.0	520.746	0.1	2.136	True	89.0	Magnitude	n/a	twobytwo	89.0	0.652	blue	1.0	task_switch	magnitude	switch	stim	poldrack-single-stim	s561	0	False
522.236	1.0	523.104	0.1	2.0	True	71.0	Color	n/a	twobytwo	71.0	0.768	orange	1.0	task_switch	color	switch	stim	poldrack-single-stim	s561	0	False
524.343	1.0	525.209	0.1	2.0	True	89.0	Orange-Blue	switch	twobytwo	89.0	0.766	blue	6.0	cue_switch	color	stay	stim	poldrack-single-stim	s561	0	False
527.25	1.0	528.616	0.9	2.272	True	89.0	Color	switch	twobytwo	89.0	0.466	blue	2.0	cue_switch	color	stay	stim	poldrack-single-stim	s561	0	False
529.631	1.0	530.428	0.1	2.408	True	89.0	High-Low	n/a	twobytwo	89.0	0.697	orange	1.0	task_switch	magnitude	switch	stim	poldrack-single-stim	s561	0	False
532.945	1.0	534.592	0.9	2.0	True	71.0	Magnitude	switch	twobytwo	71.0	0.747	blue	8.0	cue_switch	magnitude	stay	stim	poldrack-single-stim	s561	0	False
535.849	1.0	537.097	0.9	2.136	True	71.0	Color	n/a	twobytwo	71.0	0.348	orange	6.0	task_switch	color	switch	stim	poldrack-single-stim	s561	0	False
538.089	1.0	539.046	0.1	2.0	False	71.0	Color	stay	twobytwo	89.0	0.857	orange	3.0	cue_stay	color	stay	stim	poldrack-single-stim	s561	0	False
540.995	1.0	542.59	0.9	2.408	True	89.0	Orange-Blue	switch	twobytwo	89.0	0.695	blue	2.0	cue_switch	color	stay	stim	poldrack-single-stim	s561	0	False
543.511	1.0	544.628	0.1	2.272	True	89.0	High-Low	n/a	twobytwo	89.0	1.017	orange	1.0	task_switch	magnitude	switch	stim	poldrack-single-stim	s561	0	False
546.69	1.0	548.175	0.9	2.0	True	89.0	Orange-Blue	n/a	twobytwo	89.0	0.585	blue	4.0	task_switch	color	switch	stim	poldrack-single-stim	s561	0	False
549.596	1.0	550.833	0.9	2.272	True	71.0	Color	switch	twobytwo	71.0	0.337	orange	7.0	cue_switch	color	stay	stim	poldrack-single-stim	s561	0	False
552.775	1.0	554.567	0.9	2.0	True	89.0	Magnitude	n/a	twobytwo	89.0	0.892	orange	1.0	task_switch	magnitude	switch	stim	poldrack-single-stim	s561	0	False
554.883	1.0	556.069	0.1	2.0	False	71.0	Color	n/a	twobytwo	89.0	1.086	orange	4.0	task_switch	color	switch	stim	poldrack-single-stim	s561	0	False
557.789	1.0	559.315	0.9	2.272	True	89.0	Magnitude	n/a	twobytwo	89.0	0.626	blue	2.0	task_switch	magnitude	switch	stim	poldrack-single-stim	s561	0	False
560.165	1.0	561.248	0.1	2.136	True	89.0	Color	n/a	twobytwo	89.0	0.983	blue	6.0	task_switch	color	switch	stim	poldrack-single-stim	s561	0	False
563.208	1.0	564.678	0.9	2.0	True	89.0	Magnitude	n/a	twobytwo	89.0	0.57	blue	4.0	task_switch	magnitude	switch	stim	poldrack-single-stim	s561	0	False
566.115	1.0	567.545	0.9	2.0	True	71.0	High-Low	switch	twobytwo	71.0	0.53	orange	8.0	cue_switch	magnitude	stay	stim	poldrack-single-stim	s561	0	False
568.222	1.0	569.015	0.1	2.0	True	89.0	Orange-Blue	n/a	twobytwo	89.0	0.693	blue	3.0	task_switch	color	switch	stim	poldrack-single-stim	s561	0	False
570.328	1.0	571.047	0.1	2.0	True	71.0	Magnitude	n/a	twobytwo	71.0	0.619	orange	7.0	task_switch	magnitude	switch	stim	poldrack-single-stim	s561	0	False
572.432	1.0	573.153	0.1	2.0	True	71.0	Magnitude	stay	twobytwo	71.0	0.621	orange	8.0	cue_stay	magnitude	stay	stim	poldrack-single-stim	s561	0	False
574.536	1.0	575.4	0.1	2.136	False	71.0	High-Low	switch	twobytwo	89.0	0.764	blue	8.0	cue_switch	magnitude	stay	stim	poldrack-single-stim	s561	0	False
576.782	1.0	577.74	0.1	2.0	True	89.0	Orange-Blue	n/a	twobytwo	89.0	0.858	blue	1.0	task_switch	color	switch	stim	poldrack-single-stim	s561	0	False
579.686	1.0	581.505	0.9	2.0	True	71.0	High-Low	n/a	twobytwo	71.0	0.919	blue	8.0	task_switch	magnitude	switch	stim	poldrack-single-stim	s561	0	False
582.592	1.0	584.078	0.9	2.136	True	89.0	Color	n/a	twobytwo	89.0	0.586	blue	4.0	task_switch	color	switch	stim	poldrack-single-stim	s561	0	False
585.634	1.0	587.313	0.9	2.0	True	89.0	High-Low	n/a	twobytwo	89.0	0.779	orange	3.0	task_switch	magnitude	switch	stim	poldrack-single-stim	s561	0	False
587.742	1.0	588.504	0.1	2.136	True	71.0	High-Low	stay	twobytwo	71.0	0.662	orange	8.0	cue_stay	magnitude	stay	stim	poldrack-single-stim	s561	0	False
590.785	1.0	592.096	0.9	2.68	True	71.0	Color	n/a	twobytwo	71.0	0.411	orange	1.0	task_switch	color	switch	stim	poldrack-single-stim	s561	0	False
594.37	1.0	595.849	0.9	2.272	True	71.0	Magnitude	n/a	twobytwo	71.0	0.579	blue	8.0	task_switch	magnitude	switch	stim	poldrack-single-stim	s561	0	False
597.548	1.0	599.023	0.9	2.136	True	71.0	High-Low	switch	twobytwo	71.0	0.575	orange	7.0	cue_switch	magnitude	stay	stim	poldrack-single-stim	s561	0	False
599.791	1.0	600.579	0.1	2.0	True	71.0	Magnitude	switch	twobytwo	71.0	0.688	blue	6.0	cue_switch	magnitude	stay	stim	poldrack-single-stim	s561	0	False
602.695	1.0	604.077	0.9	2.136	True	71.0	Magnitude	stay	twobytwo	71.0	0.482	blue	6.0	cue_stay	magnitude	stay	stim	poldrack-single-stim	s561	0	False
605.735	1.0	607.333	0.9	2.68	True	89.0	Color	n/a	twobytwo	89.0	0.698	blue	6.0	task_switch	color	switch	stim	poldrack-single-stim	s561	0	False
608.522	1.0	609.314	0.1	2.272	True	71.0	Magnitude	n/a	twobytwo	71.0	0.692	blue	9.0	task_switch	magnitude	switch	stim	poldrack-single-stim	s561	0	False
611.698	1.0	613.204	0.9	2.0	True	89.0	Magnitude	stay	twobytwo	89.0	0.606	orange	3.0	cue_stay	magnitude	stay	stim	poldrack-single-stim	s561	0	False
614.606	1.0	616.026	0.9	2.0	False	89.0	Color	n/a	twobytwo	71.0	0.52	blue	6.0	task_switch	color	switch	stim	poldrack-single-stim	s561	0	False
616.717	1.0	617.528	0.1	2.136	True	89.0	Color	stay	twobytwo	89.0	0.711	blue	6.0	cue_stay	color	stay	stim	poldrack-single-stim	s561	0	False
618.959	1.0	620.068	0.1	2.0	True	89.0	Orange-Blue	switch	twobytwo	89.0	1.009	blue	7.0	cue_switch	color	stay	stim	poldrack-single-stim	s561	0	False
621.066	1.0	622.134	0.1	2.0	True	89.0	Color	switch	twobytwo	89.0	0.968	blue	4.0	cue_switch	color	stay	stim	poldrack-single-stim	s561	0	False
623.172	1.0	623.874	0.1	2.0	True	71.0	Orange-Blue	switch	twobytwo	71.0	0.602	orange	3.0	cue_switch	color	stay	stim	poldrack-single-stim	s561	0	False
626.078	1.0	627.597	0.9	2.272	True	89.0	Magnitude	n/a	twobytwo	89.0	0.619	orange	3.0	task_switch	magnitude	switch	stim	poldrack-single-stim	s561	0	False
629.255	1.0	630.571	0.9	2.408	True	89.0	Magnitude	stay	twobytwo	89.0	0.416	orange	3.0	cue_stay	magnitude	stay	stim	poldrack-single-stim	s561	0	False
631.768	1.0	632.968	0.1	2.0	True	71.0	Orange-Blue	n/a	twobytwo	71.0	1.1	orange	3.0	task_switch	color	switch	stim	poldrack-single-stim	s561	0	False
633.877	1.0	634.826	0.1	2.0	True	71.0	Color	switch	twobytwo	71.0	0.849	orange	9.0	cue_switch	color	stay	stim	poldrack-single-stim	s561	0	False
635.984	1.0	636.679	0.1	2.0	True	89.0	Orange-Blue	switch	twobytwo	89.0	0.595	blue	4.0	cue_switch	color	stay	stim	poldrack-single-stim	s561	0	False
638.09	1.0	638.807	0.1	2.272	True	71.0	Orange-Blue	stay	twobytwo	71.0	0.617	orange	3.0	cue_stay	color	stay	stim	poldrack-single-stim	s561	0	False
640.466	1.0	641.064	0.1	2.136	False	71.0	Magnitude	n/a	twobytwo	89.0	0.498	orange	8.0	task_switch	magnitude	switch	stim	poldrack-single-stim	s561	0	False
642.709	1.0	643.634	0.1	2.0	True	89.0	Orange-Blue	n/a	twobytwo	89.0	0.825	blue	1.0	task_switch	color	switch	stim	poldrack-single-stim	s561	0	False
644.813	1.0	645.547	0.1	2.544	True	71.0	Color	switch	twobytwo	71.0	0.634	orange	4.0	cue_switch	color	stay	stim	poldrack-single-stim	s561	0	False
647.465	1.0	648.111	0.1	2.272	True	89.0	Magnitude	n/a	twobytwo	89.0	0.546	blue	1.0	task_switch	magnitude	switch	stim	poldrack-single-stim	s561	0	False
649.846	1.0	650.586	0.1	2.272	True	71.0	Magnitude	stay	twobytwo	71.0	0.64	blue	8.0	cue_stay	magnitude	stay	stim	poldrack-single-stim	s561	0	False
653.024	1.0	654.554	0.9	2.0	True	71.0	Color	n/a	twobytwo	71.0	0.63	orange	1.0	task_switch	color	switch	stim	poldrack-single-stim	s561	0	False
655.131	1.0	655.844	0.1	2.0	True	89.0	High-Low	n/a	twobytwo	89.0	0.613	blue	2.0	task_switch	magnitude	switch	stim	poldrack-single-stim	s561	0	False
658.04	1.0	659.302	0.9	2.136	True	71.0	Color	n/a	twobytwo	71.0	0.362	orange	1.0	task_switch	color	switch	stim	poldrack-single-stim	s561	0	False
660.283	1.0	661.008	0.1	2.0	True	89.0	High-Low	n/a	twobytwo	89.0	0.625	blue	2.0	task_switch	magnitude	switch	stim	poldrack-single-stim	s561	0	False
