onset	duration	movement_onset	EV	action	block_duration	experiment_exp_id	gain_amount	gain_probability	key_press	loss_amount	loss_probability	num_cards	num_click_in_round	num_loss_cards	risk	response_time	total_cards	trial_id	trial_type	worker_id	junk	feedback
3.007	2.396	5.403	-1.4697874405686904	draw_card	2.396	columbia_card_task_fmri	12.0	0.8333333333333334	89.0	-70.0	0.1666666666666666	6.0	1.0	1.0	-0.4465344813833063	2.396	1.0	stim	poldrack-single-stim	s567	False	0
6.157	1.5	5.406	n/a	-1.0	2.25	columbia_card_task_fmri	n/a	n/a	-1.0	n/a	n/a	n/a	n/a	n/a	n/a	n/a	n/a	ITI	poldrack-single-stim	s567	False	0
7.658	1.923	9.581	-0.6364541072353564	draw_card	1.923	columbia_card_task_fmri	14.0	0.8333333333333334	89.0	-75.0	0.1666666666666666	6.0	1.0	1.0	2.162161613366546	1.923	n/a	stim	poldrack-single-stim	s567	False	1
9.584	1.563	11.147	-3.603120773902024	draw_card	1.563	columbia_card_task_fmri	14.0	0.8	89.0	-75.0	0.2	6.0	2.0	1.0	4.5937800365544526	1.563	n/a	stim	poldrack-single-stim	s567	False	1
11.149	1.309	12.458	-8.053120773902025	end_round	1.309	columbia_card_task_fmri	14.0	0.75	71.0	-75.0	0.25	6.0	3.0	1.0	7.531869000861473	1.309	2.0	stim	poldrack-single-stim	s567	False	1
13.21	1.5	12.459	n/a	-1.0	2.386	columbia_card_task_fmri	n/a	n/a	-1.0	n/a	n/a	n/a	n/a	n/a	n/a	n/a	n/a	ITI	poldrack-single-stim	s567	False	0
14.847	1.391	16.238	1.0302125594313096	draw_card	1.391	columbia_card_task_fmri	15.0	0.8333333333333334	89.0	-70.0	0.1666666666666666	6.0	1.0	1.0	0.6714771247183791	1.391	n/a	stim	poldrack-single-stim	s567	False	1
16.239	2.326	18.565	-1.8031207739020243	draw_card	2.326	columbia_card_task_fmri	15.0	0.8	89.0	-70.0	0.2	6.0	2.0	1.0	2.9938056548611733	2.326	n/a	stim	poldrack-single-stim	s567	False	1
18.566	1.014	19.58	-6.053120773902024	end_round	1.014	columbia_card_task_fmri	15.0	0.75	71.0	-70.0	0.25	6.0	3.0	1.0	5.799841858554071	1.014	2.0	stim	poldrack-single-stim	s567	False	1
20.334	1.5	19.583	n/a	-1.0	2.59	columbia_card_task_fmri	n/a	n/a	-1.0	n/a	n/a	n/a	n/a	n/a	n/a	n/a	n/a	ITI	poldrack-single-stim	s567	False	0
22.175	1.732	23.907	1.863545892764644	draw_card	1.732	columbia_card_task_fmri	17.0	0.8333333333333334	89.0	-75.0	0.1666666666666666	6.0	1.0	1.0	3.2801765488976464	1.732	n/a	stim	poldrack-single-stim	s567	False	1
23.908	1.502	25.41	-1.2031207739020229	draw_card	1.502	columbia_card_task_fmri	17.0	0.8	89.0	-75.0	0.2	6.0	2.0	1.0	5.793762284706052	1.502	2.0	stim	poldrack-single-stim	s567	False	0
26.163	1.5	25.412	n/a	-1.0	2.658	columbia_card_task_fmri	n/a	n/a	-1.0	n/a	n/a	n/a	n/a	n/a	n/a	n/a	n/a	ITI	poldrack-single-stim	s567	False	0
28.073	1.5	29.573	3.1968792260979755	draw_card	1.5	columbia_card_task_fmri	24.0	0.75	89.0	-60.0	0.25	8.0	1.0	2.0	5.366835425131288	1.5	1.0	stim	poldrack-single-stim	s567	False	0
30.326	1.5	29.575	n/a	-1.0	2.386	columbia_card_task_fmri	n/a	n/a	-1.0	n/a	n/a	n/a	n/a	n/a	n/a	n/a	n/a	ITI	poldrack-single-stim	s567	False	0
31.963	1.78	33.743	3.1968792260979755	draw_card	1.78	columbia_card_task_fmri	29.0	0.75	89.0	-75.0	0.25	8.0	1.0	2.0	14.026986997231074	1.78	n/a	stim	poldrack-single-stim	s567	False	1
33.744	1.236	34.98	-0.517406488187736	end_round	1.236	columbia_card_task_fmri	29.0	0.7142857142857143	71.0	-75.0	0.2857142857142857	8.0	2.0	2.0	15.976059097887482	1.236	1.0	stim	poldrack-single-stim	s567	False	1
35.733	1.5	34.982	n/a	-1.0	2.386	columbia_card_task_fmri	n/a	n/a	-1.0	n/a	n/a	n/a	n/a	n/a	n/a	n/a	n/a	ITI	poldrack-single-stim	s567	False	0
37.37	1.141	38.511	-1.025342996124244	draw_card	1.141	columbia_card_task_fmri	17.0	0.7777777777777778	89.0	-65.0	0.2222222222222222	9.0	1.0	2.0	3.0844603296675537	1.141	n/a	stim	poldrack-single-stim	s567	False	1
38.512	1.069	39.581	-3.3031207739020245	end_round	1.069	columbia_card_task_fmri	17.0	0.75	71.0	-65.0	0.25	9.0	2.0	2.0	4.500823016943844	1.069	1.0	stim	poldrack-single-stim	s567	False	1
40.334	1.5	39.583	n/a	-1.0	2.25	columbia_card_task_fmri	n/a	n/a	-1.0	n/a	n/a	n/a	n/a	n/a	n/a	n/a	n/a	ITI	poldrack-single-stim	s567	False	0
41.835	1.994	43.829	3.296879226097975	draw_card	1.994	columbia_card_task_fmri	14.0	0.9	89.0	-95.0	0.1	10.0	1.0	1.0	1.6938283156546383	1.994	n/a	stim	poldrack-single-stim	s567	False	1
43.83	1.412	45.242	2.085768114986863	draw_card	1.412	columbia_card_task_fmri	14.0	0.8888888888888888	89.0	-95.0	0.1111111111111111	10.0	2.0	1.0	3.249196582589267	1.412	n/a	stim	poldrack-single-stim	s567	False	1
45.243	1.324	46.567	0.5718792260979757	draw_card	1.324	columbia_card_task_fmri	14.0	0.875	89.0	-95.0	0.125	10.0	3.0	1.0	5.042134878808977	1.324	n/a	stim	poldrack-single-stim	s567	False	1
46.569	1.447	48.016	-1.3745493453305957	draw_card	1.447	columbia_card_task_fmri	14.0	0.8571428571428572	89.0	-95.0	0.1428571428571428	10.0	4.0	1.0	7.135798320745696	1.447	n/a	stim	poldrack-single-stim	s567	False	1
48.018	1.946	49.964	-3.969787440568689	end_round	1.946	columbia_card_task_fmri	14.0	0.8333333333333334	71.0	-95.0	0.1666666666666666	10.0	5.0	1.0	9.615614327196798	1.946	4.0	stim	poldrack-single-stim	s567	False	1
50.716	1.5	49.965	n/a	-1.0	2.318	columbia_card_task_fmri	n/a	n/a	-1.0	n/a	n/a	n/a	n/a	n/a	n/a	n/a	n/a	ITI	poldrack-single-stim	s567	False	0
52.286	1.403	53.689	-0.8031207739020243	draw_card	1.403	columbia_card_task_fmri	15.0	0.8	89.0	-65.0	0.2	10.0	1.0	2.0	0.9938412802221456	1.403	n/a	stim	poldrack-single-stim	s567	False	1
53.691	1.815	55.506	-2.5808985516798013	draw_card	1.815	columbia_card_task_fmri	15.0	0.7777777777777778	89.0	-65.0	0.2222222222222222	10.0	2.0	2.0	2.252995122649626	1.815	n/a	stim	poldrack-single-stim	s567	False	1
55.507	1.489	56.996	-4.803120773902024	draw_card	1.489	columbia_card_task_fmri	15.0	0.75	89.0	-65.0	0.25	10.0	3.0	2.0	3.6348112585208954	1.489	3.0	stim	poldrack-single-stim	s567	False	0
57.748	1.5	56.997	n/a	-1.0	2.25	columbia_card_task_fmri	n/a	n/a	-1.0	n/a	n/a	n/a	n/a	n/a	n/a	n/a	n/a	ITI	poldrack-single-stim	s567	False	0
59.249	1.674	60.923	0.7968792260979771	draw_card	1.674	columbia_card_task_fmri	17.0	0.8	89.0	-65.0	0.2	10.0	1.0	2.0	1.7938265087450451	1.674	1.0	stim	poldrack-single-stim	s567	False	0
61.677	1.5	60.926	n/a	-1.0	2.25	columbia_card_task_fmri	n/a	n/a	-1.0	n/a	n/a	n/a	n/a	n/a	n/a	n/a	n/a	ITI	poldrack-single-stim	s567	False	0
63.178	1.144	64.322	-0.6364541072353564	draw_card	1.144	columbia_card_task_fmri	13.0	0.8333333333333334	89.0	-70.0	0.1666666666666666	12.0	1.0	2.0	-0.0738641257909407	1.144	n/a	stim	poldrack-single-stim	s567	False	1
64.323	1.381	65.704	-1.8940298648111176	draw_card	1.381	columbia_card_task_fmri	13.0	0.8181818181818181	89.0	-70.0	0.1818181818181818	12.0	2.0	2.0	1.0064934982117144	1.381	n/a	stim	poldrack-single-stim	s567	False	1
65.707	1.301	67.008	-3.403120773902024	end_round	1.301	columbia_card_task_fmri	13.0	0.8	71.0	-70.0	0.2	12.0	3.0	2.0	2.193819389953756	1.301	2.0	stim	poldrack-single-stim	s567	False	1
67.761	1.5	67.01	n/a	-1.0	2.386	columbia_card_task_fmri	n/a	n/a	-1.0	n/a	n/a	n/a	n/a	n/a	n/a	n/a	n/a	ITI	poldrack-single-stim	s567	False	0
69.398	0.937	70.335	-0.6364541072353564	draw_card	0.937	columbia_card_task_fmri	15.0	0.8333333333333334	89.0	-80.0	0.1666666666666666	12.0	1.0	2.0	4.398192687761107	0.937	n/a	stim	poldrack-single-stim	s567	False	1
70.338	2.721	73.059	-2.0758480466293	draw_card	2.721	columbia_card_task_fmri	15.0	0.8181818181818181	89.0	-80.0	0.1818181818181818	12.0	2.0	2.0	5.634752322572442	2.721	n/a	stim	poldrack-single-stim	s567	False	1
73.061	0.751	73.812	-3.803120773902025	end_round	0.751	columbia_card_task_fmri	15.0	0.8	71.0	-80.0	0.2	12.0	3.0	2.0	6.993745654003707	0.751	2.0	stim	poldrack-single-stim	s567	False	1
74.565	1.5	73.814	n/a	-1.0	2.386	columbia_card_task_fmri	n/a	n/a	-1.0	n/a	n/a	n/a	n/a	n/a	n/a	n/a	n/a	ITI	poldrack-single-stim	s567	False	0
76.203	1.724	77.927	-1.6031207739020232	draw_card	1.724	columbia_card_task_fmri	14.0	0.8	89.0	-65.0	0.2	15.0	1.0	3.0	0.5938489464237477	1.724	n/a	stim	poldrack-single-stim	s567	False	1
77.929	1.208	79.137	-2.731692202473452	end_round	1.208	columbia_card_task_fmri	14.0	0.7857142857142857	71.0	-65.0	0.2142857142857142	15.0	2.0	3.0	1.4095798753508395	1.208	1.0	stim	poldrack-single-stim	s567	False	1
79.891	1.5	79.14	n/a	-1.0	2.726	columbia_card_task_fmri	n/a	n/a	-1.0	n/a	n/a	n/a	n/a	n/a	n/a	n/a	n/a	ITI	poldrack-single-stim	s567	False	0
81.868	1.694	83.562	-1.6781207739020243	draw_card	1.694	columbia_card_task_fmri	1.0	0.9375	89.0	-45.0	0.0625	16.0	1.0	1.0	-19.870196827819484	1.694	n/a	stim	poldrack-single-stim	s567	False	1
83.563	2.082	85.645	-1.8697874405686907	draw_card	2.082	columbia_card_task_fmri	1.0	0.9333333333333332	89.0	-45.0	0.0666666666666666	16.0	2.0	1.0	-19.53065946242701	2.082	n/a	stim	poldrack-single-stim	s567	False	1
85.646	0.612	86.258	-2.08883505961631	end_round	0.612	columbia_card_task_fmri	1.0	0.9285714285714286	71.0	-45.0	0.0714285714285714	16.0	3.0	1.0	-19.158317197086404	0.612	2.0	stim	poldrack-single-stim	s567	False	1
87.012	1.5	86.261	n/a	-1.0	2.454	columbia_card_task_fmri	n/a	n/a	-1.0	n/a	n/a	n/a	n/a	n/a	n/a	n/a	n/a	ITI	poldrack-single-stim	s567	False	0
88.717	1.157	89.874	-0.7406207739020243	draw_card	1.157	columbia_card_task_fmri	15.0	0.8125	89.0	-70.0	0.1875	16.0	1.0	3.0	2.1703716690148944	1.157	1.0	stim	poldrack-single-stim	s567	False	0
90.627	1.5	89.876	n/a	-1.0	2.318	columbia_card_task_fmri	n/a	n/a	-1.0	n/a	n/a	n/a	n/a	n/a	n/a	n/a	n/a	ITI	poldrack-single-stim	s567	False	0
92.198	1.011	93.209	6.196879226097976	draw_card	1.011	columbia_card_task_fmri	30.0	0.7	89.0	-50.0	0.3	10.0	1.0	3.0	5.654369846787798	1.011	1.0	stim	poldrack-single-stim	s567	False	0
93.962	1.5	93.211	n/a	-1.0	2.318	columbia_card_task_fmri	n/a	n/a	-1.0	n/a	n/a	n/a	n/a	n/a	n/a	n/a	n/a	ITI	poldrack-single-stim	s567	False	0
95.533	0.811	96.344	5.596879226097976	draw_card	0.811	columbia_card_task_fmri	17.0	0.8666666666666667	89.0	-70.0	0.1333333333333333	15.0	1.0	2.0	-1.4317958672401616	0.811	n/a	stim	poldrack-single-stim	s567	False	1
96.346	2.501	98.847	4.768307797526549	draw_card	2.501	columbia_card_task_fmri	17.0	0.8571428571428572	89.0	-70.0	0.1428571428571428	15.0	2.0	2.0	-0.562469527044172	2.501	n/a	stim	poldrack-single-stim	s567	False	1
98.848	0.626	99.474	3.8122638414825913	end_round	0.626	columbia_card_task_fmri	17.0	0.8461538461538461	71.0	-70.0	0.1538461538461538	15.0	3.0	2.0	0.3835585247707733	0.626	2.0	stim	poldrack-single-stim	s567	False	1
100.227	1.5	99.476	n/a	-1.0	2.59	columbia_card_task_fmri	n/a	n/a	-1.0	n/a	n/a	n/a	n/a	n/a	n/a	n/a	n/a	ITI	poldrack-single-stim	s567	False	0
102.069	1.516	103.585	0.8218792260979757	draw_card	1.516	columbia_card_task_fmri	7.0	0.9375	89.0	-95.0	0.0625	16.0	1.0	1.0	-6.3157105882132	1.516	n/a	stim	poldrack-single-stim	s567	False	1
103.588	1.659	105.247	0.3968792260979758	draw_card	1.659	columbia_card_task_fmri	7.0	0.9333333333333332	89.0	-95.0	0.0666666666666666	16.0	2.0	1.0	-5.5627324200895885	1.659	n/a	stim	poldrack-single-stim	s567	False	1
105.249	0.729	105.978	-0.0888350596163099	draw_card	0.729	columbia_card_task_fmri	7.0	0.9285714285714286	89.0	-95.0	0.0714285714285714	16.0	3.0	1.0	-4.737010157748898	0.729	n/a	stim	poldrack-single-stim	s567	False	1
105.979	1.011	106.99	-0.649274620055871	draw_card	1.011	columbia_card_task_fmri	7.0	0.9230769230769232	89.0	-95.0	0.0769230769230769	16.0	4.0	1.0	-3.826177105774832	1.011	n/a	stim	poldrack-single-stim	s567	False	1
106.992	0.829	107.821	-1.3031207739020243	draw_card	0.829	columbia_card_task_fmri	7.0	0.9166666666666666	89.0	-95.0	0.0833333333333333	16.0	5.0	1.0	-2.814766180524174	0.829	n/a	stim	poldrack-single-stim	s567	False	1
107.823	0.834	108.657	-2.075848046629298	draw_card	0.834	columbia_card_task_fmri	7.0	0.9090909090909092	89.0	-95.0	0.0909090909090909	16.0	6.0	1.0	-1.683165125045317	0.834	6.0	stim	poldrack-single-stim	s567	False	0
109.411	1.5	108.66	n/a	-1.0	2.726	columbia_card_task_fmri	n/a	n/a	-1.0	n/a	n/a	n/a	n/a	n/a	n/a	n/a	n/a	ITI	poldrack-single-stim	s567	False	0
111.39	0.997	112.387	2.3843792260979755	draw_card	0.997	columbia_card_task_fmri	9.0	0.9375	89.0	-100.0	0.0625	16.0	1.0	1.0	-4.621330781857434	0.997	n/a	stim	poldrack-single-stim	s567	False	1
112.388	1.596	113.984	1.930212559431309	draw_card	1.596	columbia_card_task_fmri	9.0	0.9333333333333332	89.0	-100.0	0.0666666666666666	16.0	2.0	1.0	-3.8166745555038375	1.596	n/a	stim	poldrack-single-stim	s567	False	1
113.987	1.398	115.385	1.411164940383691	draw_card	1.398	columbia_card_task_fmri	9.0	0.9285714285714286	89.0	-100.0	0.0714285714285714	16.0	3.0	1.0	-2.9342818984152927	1.398	n/a	stim	poldrack-single-stim	s567	False	1
115.387	1.149	116.536	0.8122638414825916	draw_card	1.149	columbia_card_task_fmri	9.0	0.9230769230769232	89.0	-100.0	0.0769230769230769	16.0	4.0	1.0	-1.9609374114631244	1.149	n/a	stim	poldrack-single-stim	s567	False	1
116.539	0.455	116.994	0.1135458927646435	end_round	0.455	columbia_card_task_fmri	9.0	0.9166666666666666	71.0	-100.0	0.0833333333333333	16.0	5.0	1.0	-0.8801125341648266	0.455	4.0	stim	poldrack-single-stim	s567	False	1
117.747	1.5	116.996	n/a	-1.0	2.522	columbia_card_task_fmri	n/a	n/a	-1.0	n/a	n/a	n/a	n/a	n/a	n/a	n/a	n/a	ITI	poldrack-single-stim	s567	False	0
119.523	1.758	121.281	3.3218792260979755	draw_card	1.758	columbia_card_task_fmri	15.0	0.875	89.0	-80.0	0.125	16.0	1.0	2.0	0.4121493122234376	1.758	1.0	stim	poldrack-single-stim	s567	False	0
122.035	1.5	121.284	n/a	-1.0	3.134	columbia_card_task_fmri	n/a	n/a	-1.0	n/a	n/a	n/a	n/a	n/a	n/a	n/a	n/a	ITI	poldrack-single-stim	s567	False	0
124.42	1.413	125.833	5.446879226097976	draw_card	1.413	columbia_card_task_fmri	16.0	0.875	89.0	-70.0	0.125	16.0	1.0	2.0	-2.564256359634168	1.413	n/a	stim	poldrack-single-stim	s567	False	1
125.836	1.993	127.829	4.730212559431309	draw_card	1.993	columbia_card_task_fmri	16.0	0.8666666666666667	89.0	-70.0	0.1333333333333333	16.0	2.0	2.0	-1.7717228817060509	1.993	n/a	stim	poldrack-single-stim	s567	False	1
127.832	0.423	128.255	3.911164940383691	end_round	0.423	columbia_card_task_fmri	16.0	0.8571428571428572	71.0	-70.0	0.1428571428571428	16.0	3.0	2.0	-0.912389230957654	0.423	2.0	stim	poldrack-single-stim	s567	False	1
129.007	1.5	128.256	n/a	-1.0	2.386	columbia_card_task_fmri	n/a	n/a	-1.0	n/a	n/a	n/a	n/a	n/a	n/a	n/a	n/a	ITI	poldrack-single-stim	s567	False	0
130.645	2.475	133.12	6.759379226097976	draw_card	2.475	columbia_card_task_fmri	30.0	0.6875	89.0	-45.0	0.3125	16.0	1.0	5.0	3.757223545350588	2.475	1.0	stim	poldrack-single-stim	s567	False	0
133.874	1.5	133.123	n/a	-1.0	2.386	columbia_card_task_fmri	n/a	n/a	-1.0	n/a	n/a	n/a	n/a	n/a	n/a	n/a	n/a	ITI	poldrack-single-stim	s567	False	0
135.512	1.561	137.073	-1.4697874405686904	draw_card	1.561	columbia_card_task_fmri	13.0	0.8333333333333334	89.0	-75.0	0.1666666666666666	6.0	1.0	1.0	1.78949025686698	1.561	1.0	stim	poldrack-single-stim	s567	False	0
137.827	1.5	137.076	n/a	-1.0	2.318	columbia_card_task_fmri	n/a	n/a	-1.0	n/a	n/a	n/a	n/a	n/a	n/a	n/a	n/a	ITI	poldrack-single-stim	s567	False	0
139.397	1.232	140.629	0.1968792260979774	draw_card	1.232	columbia_card_task_fmri	14.0	0.8333333333333334	89.0	-70.0	0.1666666666666666	6.0	1.0	1.0	0.2988064117163738	1.232	n/a	stim	poldrack-single-stim	s567	False	1
140.631	0.718	141.349	-2.6031207739020235	end_round	0.718	columbia_card_task_fmri	14.0	0.8	71.0	-70.0	0.2	6.0	2.0	1.0	2.593812440653071	0.718	1.0	stim	poldrack-single-stim	s567	False	1
142.103	1.5	141.352	n/a	-1.0	2.318	columbia_card_task_fmri	n/a	n/a	-1.0	n/a	n/a	n/a	n/a	n/a	n/a	n/a	n/a	ITI	poldrack-single-stim	s567	False	0
143.673	1.743	145.416	0.1968792260979774	draw_card	1.743	columbia_card_task_fmri	16.0	0.8333333333333334	89.0	-80.0	0.1666666666666666	6.0	1.0	1.0	4.77086498195828	1.743	n/a	stim	poldrack-single-stim	s567	False	1
145.42	0.714	146.134	-3.003120773902024	end_round	0.714	columbia_card_task_fmri	16.0	0.8	71.0	-80.0	0.2	6.0	2.0	1.0	7.393740341413594	0.714	1.0	stim	poldrack-single-stim	s567	False	1
146.887	1.5	146.136	n/a	-1.0	2.862	columbia_card_task_fmri	n/a	n/a	-1.0	n/a	n/a	n/a	n/a	n/a	n/a	n/a	n/a	ITI	poldrack-single-stim	s567	False	0
149.001	2.091	151.092	2.6968792260979773	draw_card	2.091	columbia_card_task_fmri	17.0	0.8333333333333334	89.0	-70.0	0.1666666666666666	6.0	1.0	1.0	1.4168190530011875	2.091	1.0	stim	poldrack-single-stim	s567	False	0
151.845	1.5	151.094	n/a	-1.0	2.726	columbia_card_task_fmri	n/a	n/a	-1.0	n/a	n/a	n/a	n/a	n/a	n/a	n/a	n/a	ITI	poldrack-single-stim	s567	False	0
153.823	1.558	155.381	2.6968792260979755	draw_card	1.558	columbia_card_task_fmri	25.0	0.75	89.0	-65.0	0.25	8.0	1.0	2.0	7.964876115116073	1.558	n/a	stim	poldrack-single-stim	s567	False	1
155.383	0.618	156.001	-0.517406488187736	end_round	0.618	columbia_card_task_fmri	25.0	0.7142857142857143	71.0	-65.0	0.2857142857142857	8.0	2.0	2.0	9.651567944791214	0.618	1.0	stim	poldrack-single-stim	s567	False	1
156.755	1.5	156.004	n/a	-1.0	2.25	columbia_card_task_fmri	n/a	n/a	-1.0	n/a	n/a	n/a	n/a	n/a	n/a	n/a	n/a	ITI	poldrack-single-stim	s567	False	0
158.258	2.025	160.283	2.6968792260979755	draw_card	2.025	columbia_card_task_fmri	30.0	0.75	89.0	-80.0	0.25	8.0	1.0	2.0	16.62503973450931	2.025	n/a	stim	poldrack-single-stim	s567	False	1
160.285	0.663	160.948	-1.2316922024734478	end_round	0.663	columbia_card_task_fmri	30.0	0.7142857142857143	71.0	-80.0	0.2857142857142857	8.0	2.0	2.0	18.686560306337665	0.663	1.0	stim	poldrack-single-stim	s567	False	1
161.701	1.5	160.95	n/a	-1.0	2.318	columbia_card_task_fmri	n/a	n/a	-1.0	n/a	n/a	n/a	n/a	n/a	n/a	n/a	n/a	ITI	poldrack-single-stim	s567	False	0
163.272	1.038	164.31	2.3968792260979765	draw_card	1.038	columbia_card_task_fmri	13.0	0.9	89.0	-95.0	0.1	10.0	1.0	1.0	1.3938338033041653	1.038	n/a	stim	poldrack-single-stim	s567	False	1
164.312	1.77	166.082	1.1968792260979757	draw_card	1.77	columbia_card_task_fmri	13.0	0.8888888888888888	89.0	-95.0	0.1111111111111111	10.0	2.0	1.0	2.934932140552828	1.77	n/a	stim	poldrack-single-stim	s567	False	1
166.085	0.446	166.531	-0.3031207739020243	end_round	0.446	columbia_card_task_fmri	13.0	0.875	71.0	-95.0	0.125	10.0	3.0	1.0	4.71142094287784	0.446	2.0	stim	poldrack-single-stim	s567	False	1
167.284	1.5	166.533	n/a	-1.0	2.454	columbia_card_task_fmri	n/a	n/a	-1.0	n/a	n/a	n/a	n/a	n/a	n/a	n/a	n/a	ITI	poldrack-single-stim	s567	False	0
168.99	1.458	170.448	3.796879226097975	draw_card	1.458	columbia_card_task_fmri	14.0	0.9	89.0	-90.0	0.1	10.0	1.0	1.0	0.1938568091888193	1.458	n/a	stim	poldrack-single-stim	s567	False	1
170.45	2.156	172.606	2.6413236705424183	draw_card	2.156	columbia_card_task_fmri	14.0	0.8888888888888888	89.0	-90.0	0.1111111111111111	10.0	2.0	1.0	1.6778753797824957	2.156	n/a	stim	poldrack-single-stim	s567	False	1
172.608	0.479	173.087	1.1968792260979757	end_round	0.479	columbia_card_task_fmri	14.0	0.875	71.0	-90.0	0.125	10.0	3.0	1.0	3.388566156428869	0.479	2.0	stim	poldrack-single-stim	s567	False	1
173.841	1.5	173.09	n/a	-1.0	2.522	columbia_card_task_fmri	n/a	n/a	-1.0	n/a	n/a	n/a	n/a	n/a	n/a	n/a	n/a	ITI	poldrack-single-stim	s567	False	0
175.615	1.025	176.64	-1.0031207739020236	draw_card	1.025	columbia_card_task_fmri	16.0	0.8	89.0	-70.0	0.2	10.0	1.0	2.0	3.393799026874472	1.025	n/a	stim	poldrack-single-stim	s567	False	1
176.642	0.688	177.33	-2.9142318850131352	end_round	0.688	columbia_card_task_fmri	16.0	0.7777777777777778	71.0	-70.0	0.2222222222222222	10.0	2.0	2.0	4.747392726763206	0.688	1.0	stim	poldrack-single-stim	s567	False	1
178.084	1.5	177.333	n/a	-1.0	2.318	columbia_card_task_fmri	n/a	n/a	-1.0	n/a	n/a	n/a	n/a	n/a	n/a	n/a	n/a	ITI	poldrack-single-stim	s567	False	0
179.656	2.036	181.692	-1.7197874405686904	draw_card	2.036	columbia_card_task_fmri	7.0	0.9166666666666666	89.0	-100.0	0.0833333333333333	12.0	1.0	1.0	-1.432871308245236	2.036	n/a	stim	poldrack-single-stim	s567	False	1
181.693	0.584	182.277	-2.530393501174753	end_round	0.584	columbia_card_task_fmri	7.0	0.9090909090909092	71.0	-100.0	0.0909090909090909	12.0	2.0	1.0	-0.2457970726748257	0.584	1.0	stim	poldrack-single-stim	s567	False	1
183.031	1.5	182.28	n/a	-1.0	2.522	columbia_card_task_fmri	n/a	n/a	-1.0	n/a	n/a	n/a	n/a	n/a	n/a	n/a	n/a	ITI	poldrack-single-stim	s567	False	0
184.807	1.11	185.917	-1.4697874405686886	draw_card	1.11	columbia_card_task_fmri	14.0	0.8333333333333334	89.0	-80.0	0.1666666666666666	12.0	1.0	2.0	4.025520514881347	1.11	n/a	stim	poldrack-single-stim	s567	False	1
185.919	0.649	186.568	-2.894029864811118	end_round	0.649	columbia_card_task_fmri	14.0	0.8181818181818181	71.0	-80.0	0.1818181818181818	12.0	2.0	2.0	5.249063341501515	0.649	1.0	stim	poldrack-single-stim	s567	False	1
187.323	1.5	186.572	n/a	-1.0	2.998	columbia_card_task_fmri	n/a	n/a	-1.0	n/a	n/a	n/a	n/a	n/a	n/a	n/a	n/a	ITI	poldrack-single-stim	s567	False	0
189.574	0.958	190.532	0.1968792260979756	draw_card	0.958	columbia_card_task_fmri	15.0	0.8333333333333334	89.0	-75.0	0.1666666666666666	12.0	1.0	2.0	2.5348331174122585	0.958	n/a	stim	poldrack-single-stim	s567	False	1
190.535	2.178	192.713	-1.1667571375383894	draw_card	2.178	columbia_card_task_fmri	15.0	0.8181818181818181	89.0	-75.0	0.1818181818181818	12.0	2.0	2.0	3.706308667599469	2.178	n/a	stim	poldrack-single-stim	s567	False	1
192.716	0.449	193.165	-2.8031207739020245	end_round	0.449	columbia_card_task_fmri	15.0	0.8	71.0	-75.0	0.2	12.0	3.0	2.0	4.9937739877794165	0.449	2.0	stim	poldrack-single-stim	s567	False	1
193.919	1.5	193.168	n/a	-1.0	2.318	columbia_card_task_fmri	n/a	n/a	-1.0	n/a	n/a	n/a	n/a	n/a	n/a	n/a	n/a	ITI	poldrack-single-stim	s567	False	0
195.49	1.688	197.178	-0.8031207739020243	draw_card	1.688	columbia_card_task_fmri	15.0	0.8	89.0	-65.0	0.2	15.0	1.0	3.0	0.9938412802221456	1.688	n/a	stim	poldrack-single-stim	s567	False	1
197.181	0.682	197.863	-1.9459779167591664	end_round	0.682	columbia_card_task_fmri	15.0	0.7857142857142857	71.0	-65.0	0.2142857142857142	15.0	2.0	3.0	1.8198983053836424	0.682	1.0	stim	poldrack-single-stim	s567	False	1
198.617	1.5	197.866	n/a	-1.0	2.25	columbia_card_task_fmri	n/a	n/a	-1.0	n/a	n/a	n/a	n/a	n/a	n/a	n/a	n/a	ITI	poldrack-single-stim	s567	False	0
200.119	1.177	201.296	-1.5531207739020243	draw_card	1.177	columbia_card_task_fmri	14.0	0.8125	89.0	-70.0	0.1875	16.0	1.0	3.0	1.780066248322587	1.177	n/a	stim	poldrack-single-stim	s567	False	1
201.3	1.554	202.854	-2.6031207739020235	end_round	1.554	columbia_card_task_fmri	14.0	0.8	71.0	-70.0	0.2	16.0	2.0	3.0	2.593812440653071	1.554	1.0	stim	poldrack-single-stim	s567	False	1
203.606	1.5	202.855	n/a	-1.0	2.454	columbia_card_task_fmri	n/a	n/a	-1.0	n/a	n/a	n/a	n/a	n/a	n/a	n/a	n/a	ITI	poldrack-single-stim	s567	False	0
205.313	3.237	208.55	-1.6156207739020243	draw_card	3.237	columbia_card_task_fmri	11.0	0.6875	89.0	-30.0	0.3125	16.0	1.0	5.0	-12.00173594310414	3.237	n/a	stim	poldrack-single-stim	s567	False	1
208.553	0.57	209.123	-2.4697874405686906	end_round	0.57	columbia_card_task_fmri	11.0	0.6666666666666667	71.0	-30.0	0.3333333333333333	16.0	2.0	5.0	-11.67817628606976	0.57	1.0	stim	poldrack-single-stim	s567	False	1
209.877	1.5	209.126	n/a	-1.0	2.318	columbia_card_task_fmri	n/a	n/a	-1.0	n/a	n/a	n/a	n/a	n/a	n/a	n/a	n/a	ITI	poldrack-single-stim	s567	False	0
211.448	1.329	212.777	3.1968792260979755	draw_card	1.329	columbia_card_task_fmri	15.0	0.8666666666666667	89.0	-75.0	0.1333333333333333	15.0	1.0	2.0	-0.4120138079050868	1.329	n/a	stim	poldrack-single-stim	s567	False	1
212.779	1.279	214.058	2.33973636895512	draw_card	1.279	columbia_card_task_fmri	15.0	0.8571428571428572	89.0	-75.0	0.1428571428571428	15.0	2.0	2.0	0.4872905716263531	1.279	2.0	stim	poldrack-single-stim	s567	False	0
214.812	1.5	214.061	n/a	-1.0	2.318	columbia_card_task_fmri	n/a	n/a	-1.0	n/a	n/a	n/a	n/a	n/a	n/a	n/a	n/a	ITI	poldrack-single-stim	s567	False	0
216.383	1.523	217.906	4.93021255943131	draw_card	1.523	columbia_card_task_fmri	17.0	0.8666666666666667	89.0	-75.0	0.1333333333333333	15.0	1.0	2.0	0.2678416897210844	1.523	1.0	stim	poldrack-single-stim	s567	False	0
218.66	1.5	217.909	n/a	-1.0	2.59	columbia_card_task_fmri	n/a	n/a	-1.0	n/a	n/a	n/a	n/a	n/a	n/a	n/a	n/a	ITI	poldrack-single-stim	s567	False	0
220.505	1.67	222.175	0.5093792260979757	draw_card	1.67	columbia_card_task_fmri	2.0	0.9375	89.0	-25.0	0.0625	16.0	1.0	1.0	-24.468140256906526	1.67	n/a	stim	poldrack-single-stim	s567	False	1
222.178	0.975	223.153	0.3968792260979756	draw_card	0.975	columbia_card_task_fmri	2.0	0.9333333333333332	89.0	-25.0	0.0666666666666666	16.0	2.0	1.0	-24.26890406083952	0.975	n/a	stim	poldrack-single-stim	s567	False	1
223.156	0.455	223.611	0.2683077975265472	draw_card	0.455	columbia_card_task_fmri	2.0	0.9285714285714286	89.0	-25.0	0.0714285714285714	16.0	3.0	1.0	-24.05041458251438	0.455	n/a	stim	poldrack-single-stim	s567	False	1
223.615	1.5	225.115	0.1199561491748987	draw_card	1.5	columbia_card_task_fmri	2.0	0.9230769230769232	89.0	-25.0	0.0769230769230769	16.0	4.0	1.0	-23.80939852108383	1.5	n/a	stim	poldrack-single-stim	s567	False	1
225.119	0.316	225.435	-0.0531207739020241	end_round	0.316	columbia_card_task_fmri	2.0	0.9166666666666666	71.0	-25.0	0.0833333333333333	16.0	5.0	1.0	-23.541761921354144	0.316	4.0	stim	poldrack-single-stim	s567	False	1
226.19	1.5	225.439	n/a	-1.0	2.25	columbia_card_task_fmri	n/a	n/a	-1.0	n/a	n/a	n/a	n/a	n/a	n/a	n/a	n/a	ITI	poldrack-single-stim	s567	False	0
227.693	1.516	229.209	2.6968792260979755	draw_card	1.516	columbia_card_task_fmri	9.0	0.9375	89.0	-95.0	0.0625	16.0	1.0	1.0	-5.831602764492295	1.516	n/a	stim	poldrack-single-stim	s567	False	1
229.212	1.262	230.474	2.263545892764643	draw_card	1.262	columbia_card_task_fmri	9.0	0.9333333333333332	89.0	-95.0	0.0666666666666666	16.0	2.0	1.0	-5.063859416386716	1.262	2.0	stim	poldrack-single-stim	s567	False	0
231.228	1.5	230.477	n/a	-1.0	2.25	columbia_card_task_fmri	n/a	n/a	-1.0	n/a	n/a	n/a	n/a	n/a	n/a	n/a	n/a	ITI	poldrack-single-stim	s567	False	0
232.731	1.419	234.15	4.259379226097976	draw_card	1.419	columbia_card_task_fmri	11.0	0.9375	89.0	-100.0	0.0625	16.0	1.0	1.0	-4.137221098060618	1.419	n/a	stim	poldrack-single-stim	s567	False	1
234.153	1.453	235.606	3.796879226097976	draw_card	1.453	columbia_card_task_fmri	11.0	0.9333333333333332	89.0	-100.0	0.0666666666666666	16.0	2.0	1.0	-3.317799746765328	1.453	n/a	stim	poldrack-single-stim	s567	False	1
235.608	0.576	236.184	3.2683077975265484	end_round	0.576	columbia_card_task_fmri	11.0	0.9285714285714286	71.0	-100.0	0.0714285714285714	16.0	3.0	1.0	-2.4192155839341893	0.576	2.0	stim	poldrack-single-stim	s567	False	1
236.939	1.5	236.188	n/a	-1.0	2.522	columbia_card_task_fmri	n/a	n/a	-1.0	n/a	n/a	n/a	n/a	n/a	n/a	n/a	n/a	ITI	poldrack-single-stim	s567	False	0
238.714	1.317	240.031	4.821879226097976	draw_card	1.317	columbia_card_task_fmri	16.0	0.875	89.0	-75.0	0.125	16.0	1.0	2.0	-0.9106992293837806	1.317	n/a	stim	poldrack-single-stim	s567	False	1
240.034	0.987	241.021	4.063545892764643	draw_card	0.987	columbia_card_task_fmri	16.0	0.8666666666666667	89.0	-75.0	0.1333333333333333	16.0	2.0	2.0	-0.0720861347537322	0.987	n/a	stim	poldrack-single-stim	s567	False	1
241.024	1.337	242.361	3.1968792260979773	draw_card	1.337	columbia_card_task_fmri	16.0	0.8571428571428572	89.0	-75.0	0.1428571428571428	16.0	3.0	2.0	0.8372109154182894	1.337	n/a	stim	poldrack-single-stim	s567	False	1
242.364	0.361	242.725	2.1968792260979755	end_round	0.361	columbia_card_task_fmri	16.0	0.8461538461538461	71.0	-75.0	0.1538461538461538	16.0	4.0	2.0	1.826736235256515	0.361	3.0	stim	poldrack-single-stim	s567	False	1
243.479	1.5	242.728	n/a	-1.0	2.454	columbia_card_task_fmri	n/a	n/a	-1.0	n/a	n/a	n/a	n/a	n/a	n/a	n/a	n/a	ITI	poldrack-single-stim	s567	False	0
245.186	1.337	246.523	5.071879226097976	draw_card	1.337	columbia_card_task_fmri	17.0	0.875	89.0	-80.0	0.125	16.0	1.0	2.0	1.0735744215776712	1.337	n/a	stim	poldrack-single-stim	s567	False	1
246.526	1.078	247.604	4.263545892764644	draw_card	1.078	columbia_card_task_fmri	17.0	0.8666666666666667	89.0	-80.0	0.1333333333333333	16.0	2.0	2.0	1.9674829181493827	1.078	n/a	stim	poldrack-single-stim	s567	False	1
247.607	1.322	248.929	3.3397363689551214	draw_card	1.322	columbia_card_task_fmri	17.0	0.8571428571428572	89.0	-80.0	0.1428571428571428	16.0	3.0	2.0	2.9367359061073053	1.322	n/a	stim	poldrack-single-stim	s567	False	1
248.933	0.352	249.285	2.273802303021052	end_round	0.352	columbia_card_task_fmri	17.0	0.8461538461538461	71.0	-80.0	0.1538461538461538	16.0	4.0	2.0	3.9915069975842714	0.352	3.0	stim	poldrack-single-stim	s567	False	1
250.04	1.5	249.289	n/a	-1.0	2.25	columbia_card_task_fmri	n/a	n/a	-1.0	n/a	n/a	n/a	n/a	n/a	n/a	n/a	n/a	ITI	poldrack-single-stim	s567	False	0
262.544	1.621	264.165	-0.6364541072353564	draw_card	1.621	columbia_card_task_fmri	13.0	0.8333333333333334	89.0	-70.0	0.1666666666666666	6.0	1.0	1.0	-0.0738641257909407	1.621	1.0	stim	poldrack-single-stim	s567	False	0
264.919	1.5	264.168	n/a	-1.0	2.454	columbia_card_task_fmri	n/a	n/a	-1.0	n/a	n/a	n/a	n/a	n/a	n/a	n/a	n/a	ITI	poldrack-single-stim	s567	False	0
266.626	1.347	267.973	-0.6364541072353564	draw_card	1.347	columbia_card_task_fmri	15.0	0.8333333333333334	89.0	-80.0	0.1666666666666666	6.0	1.0	1.0	4.398192687761107	1.347	n/a	stim	poldrack-single-stim	s567	False	1
267.975	0.773	268.748	-3.803120773902025	end_round	0.773	columbia_card_task_fmri	15.0	0.8	71.0	-80.0	0.2	6.0	2.0	1.0	6.993745654003707	0.773	1.0	stim	poldrack-single-stim	s567	False	1
269.503	1.5	268.752	n/a	-1.0	2.454	columbia_card_task_fmri	n/a	n/a	-1.0	n/a	n/a	n/a	n/a	n/a	n/a	n/a	n/a	ITI	poldrack-single-stim	s567	False	0
271.211	1.413	272.624	1.0302125594313096	draw_card	1.413	columbia_card_task_fmri	16.0	0.8333333333333334	89.0	-75.0	0.1666666666666666	6.0	1.0	1.0	2.907504764140132	1.413	n/a	stim	poldrack-single-stim	s567	False	1
272.626	1.211	273.837	-2.003120773902024	draw_card	1.211	columbia_card_task_fmri	16.0	0.8	89.0	-75.0	0.2	6.0	2.0	1.0	5.39376807194154	1.211	2.0	stim	poldrack-single-stim	s567	False	0
274.592	1.5	273.841	n/a	-1.0	2.522	columbia_card_task_fmri	n/a	n/a	-1.0	n/a	n/a	n/a	n/a	n/a	n/a	n/a	n/a	ITI	poldrack-single-stim	s567	False	0
276.368	1.443	277.811	2.1968792260979755	draw_card	1.443	columbia_card_task_fmri	21.0	0.75	89.0	-55.0	0.25	8.0	1.0	2.0	1.902789896150285	1.443	n/a	stim	poldrack-single-stim	s567	False	1
277.815	0.415	278.23	-0.5174064881877378	end_round	0.415	columbia_card_task_fmri	21.0	0.7142857142857143	71.0	-55.0	0.2857142857142857	8.0	2.0	2.0	3.3271004317567723	0.415	1.0	stim	poldrack-single-stim	s567	False	1
278.984	1.5	278.233	n/a	-1.0	2.454	columbia_card_task_fmri	n/a	n/a	-1.0	n/a	n/a	n/a	n/a	n/a	n/a	n/a	n/a	ITI	poldrack-single-stim	s567	False	0
280.69	1.374	282.064	3.4468792260979755	draw_card	1.374	columbia_card_task_fmri	26.0	0.75	89.0	-65.0	0.25	8.0	1.0	2.0	8.397883352173569	1.374	1.0	stim	poldrack-single-stim	s567	False	0
282.818	1.5	282.067	n/a	-1.0	2.658	columbia_card_task_fmri	n/a	n/a	-1.0	n/a	n/a	n/a	n/a	n/a	n/a	n/a	n/a	ITI	poldrack-single-stim	s567	False	0
284.729	1.673	286.402	-1.4697874405686904	draw_card	1.673	columbia_card_task_fmri	15.0	0.7777777777777778	89.0	-60.0	0.2222222222222222	9.0	1.0	2.0	0.174335421205761	1.673	n/a	stim	poldrack-single-stim	s567	False	1
286.406	0.469	286.875	-3.5531207739020245	end_round	0.469	columbia_card_task_fmri	15.0	0.75	71.0	-60.0	0.25	9.0	2.0	2.0	1.4697850462977549	0.469	1.0	stim	poldrack-single-stim	s567	False	1
287.629	1.5	286.878	n/a	-1.0	2.386	columbia_card_task_fmri	n/a	n/a	-1.0	n/a	n/a	n/a	n/a	n/a	n/a	n/a	n/a	ITI	poldrack-single-stim	s567	False	0
289.269	1.5	290.769	2.8968792260979765	draw_card	1.5	columbia_card_task_fmri	13.0	0.9	89.0	-90.0	0.1	10.0	1.0	1.0	-0.1061371601507268	1.5	n/a	stim	poldrack-single-stim	s567	False	1
290.772	1.092	291.864	1.752434781653531	draw_card	1.092	columbia_card_task_fmri	13.0	0.8888888888888888	89.0	-90.0	0.1111111111111111	10.0	2.0	1.0	1.363611456103765	1.092	n/a	stim	poldrack-single-stim	s567	False	1
291.867	0.455	292.322	0.3218792260979756	end_round	0.455	columbia_card_task_fmri	13.0	0.875	71.0	-90.0	0.125	10.0	3.0	1.0	3.0578527130759774	0.455	2.0	stim	poldrack-single-stim	s567	False	1
293.077	1.5	292.326	n/a	-1.0	2.522	columbia_card_task_fmri	n/a	n/a	-1.0	n/a	n/a	n/a	n/a	n/a	n/a	n/a	n/a	ITI	poldrack-single-stim	s567	False	0
294.853	1.237	296.09	4.196879226097976	draw_card	1.237	columbia_card_task_fmri	15.0	0.9	89.0	-95.0	0.1	10.0	1.0	1.0	1.993822927777881	1.237	n/a	stim	poldrack-single-stim	s567	False	1
296.094	1.098	297.192	2.9746570038757523	draw_card	1.098	columbia_card_task_fmri	15.0	0.8888888888888888	89.0	-95.0	0.1111111111111111	10.0	2.0	1.0	3.563461119868659	1.098	n/a	stim	poldrack-single-stim	s567	False	1
297.195	0.362	297.557	1.4468792260979757	end_round	0.362	columbia_card_task_fmri	15.0	0.875	71.0	-95.0	0.125	10.0	3.0	1.0	5.372848905246325	0.362	2.0	stim	poldrack-single-stim	s567	False	1
298.312	1.5	297.561	n/a	-1.0	2.59	columbia_card_task_fmri	n/a	n/a	-1.0	n/a	n/a	n/a	n/a	n/a	n/a	n/a	n/a	ITI	poldrack-single-stim	s567	False	0
300.155	1.096	301.251	-0.0031207739020236	draw_card	1.096	columbia_card_task_fmri	16.0	0.8	89.0	-65.0	0.2	10.0	1.0	2.0	1.3938338033041653	1.096	n/a	stim	poldrack-single-stim	s567	False	1
301.255	1.549	302.804	-1.8031207739020223	draw_card	1.549	columbia_card_task_fmri	16.0	0.7777777777777778	89.0	-65.0	0.2222222222222222	10.0	2.0	2.0	2.6687276384308056	1.549	n/a	stim	poldrack-single-stim	s567	False	1
302.806	0.416	303.222	-4.053120773902024	end_round	0.416	columbia_card_task_fmri	16.0	0.75	71.0	-65.0	0.25	10.0	3.0	2.0	4.067817053503735	0.416	2.0	stim	poldrack-single-stim	s567	False	1
303.977	1.5	303.226	n/a	-1.0	2.386	columbia_card_task_fmri	n/a	n/a	-1.0	n/a	n/a	n/a	n/a	n/a	n/a	n/a	n/a	ITI	poldrack-single-stim	s567	False	0
305.615	1.338	306.953	-1.3031207739020243	draw_card	1.338	columbia_card_task_fmri	7.0	0.9166666666666666	89.0	-95.0	0.0833333333333333	12.0	1.0	1.0	-2.814766180524174	1.338	n/a	stim	poldrack-single-stim	s567	False	1
306.956	1.131	308.087	-2.075848046629298	draw_card	1.131	columbia_card_task_fmri	7.0	0.9090909090909092	89.0	-95.0	0.0909090909090909	12.0	2.0	1.0	-1.683165125045317	1.131	n/a	stim	poldrack-single-stim	s567	False	1
308.09	0.341	308.431	-3.0031207739020247	draw_card	0.341	columbia_card_task_fmri	7.0	0.9	89.0	-95.0	0.1	12.0	3.0	1.0	-0.4061310112456695	0.341	n/a	stim	poldrack-single-stim	s567	False	1
308.435	0.364	308.799	-4.136454107235358	draw_card	0.364	columbia_card_task_fmri	7.0	0.8888888888888888	89.0	-95.0	0.1111111111111111	12.0	4.0	1.0	1.049347645301257	0.364	n/a	stim	poldrack-single-stim	s567	False	1
308.803	0.463	309.266	-5.553120773902024	draw_card	0.463	columbia_card_task_fmri	7.0	0.875	89.0	-95.0	0.125	12.0	5.0	1.0	2.727139376985665	0.463	n/a	stim	poldrack-single-stim	s567	False	1
309.269	0.598	309.867	-7.374549345330595	draw_card	0.598	columbia_card_task_fmri	7.0	0.8571428571428572	89.0	-95.0	0.1428571428571428	12.0	6.0	1.0	4.686343448150549	0.598	n/a	stim	poldrack-single-stim	s567	False	1
309.871	1.512	311.383	-9.803120773902023	end_round	1.512	columbia_card_task_fmri	7.0	0.8333333333333334	71.0	-95.0	0.1666666666666666	12.0	7.0	1.0	7.006901094996035	1.512	6.0	stim	poldrack-single-stim	s567	False	1
312.138	1.5	311.387	n/a	-1.0	2.59	columbia_card_task_fmri	n/a	n/a	-1.0	n/a	n/a	n/a	n/a	n/a	n/a	n/a	n/a	ITI	poldrack-single-stim	s567	False	0
313.982	0.899	314.881	-0.6364541072353564	draw_card	0.899	columbia_card_task_fmri	14.0	0.8333333333333334	89.0	-75.0	0.1666666666666666	12.0	1.0	2.0	2.162161613366546	0.899	n/a	stim	poldrack-single-stim	s567	False	1
314.884	2.743	317.627	-1.984938955720208	draw_card	2.743	columbia_card_task_fmri	14.0	0.8181818181818181	89.0	-75.0	0.1818181818181818	12.0	2.0	2.0	3.320620332792547	2.743	n/a	stim	poldrack-single-stim	s567	False	1
317.631	0.3	317.931	-3.603120773902024	end_round	0.3	columbia_card_task_fmri	14.0	0.8	71.0	-75.0	0.2	12.0	3.0	2.0	4.5937800365544526	0.3	2.0	stim	poldrack-single-stim	s567	False	1
318.685	1.5	317.934	n/a	-1.0	2.318	columbia_card_task_fmri	n/a	n/a	-1.0	n/a	n/a	n/a	n/a	n/a	n/a	n/a	n/a	ITI	poldrack-single-stim	s567	False	0
320.257	0.979	321.236	1.0302125594313096	draw_card	0.979	columbia_card_task_fmri	15.0	0.8333333333333334	89.0	-70.0	0.1666666666666666	12.0	1.0	2.0	0.6714771247183791	0.979	n/a	stim	poldrack-single-stim	s567	False	1
321.239	1.225	322.464	-0.2576662284474811	draw_card	1.225	columbia_card_task_fmri	15.0	0.8181818181818181	89.0	-70.0	0.1818181818181818	12.0	2.0	2.0	1.777868469552896	1.225	n/a	stim	poldrack-single-stim	s567	False	1
322.467	0.954	323.421	-1.8031207739020243	draw_card	0.954	columbia_card_task_fmri	15.0	0.8	89.0	-70.0	0.2	12.0	3.0	2.0	2.9938056548611733	0.954	n/a	stim	poldrack-single-stim	s567	False	1
323.424	1.021	324.445	-3.692009662790914	draw_card	1.021	columbia_card_task_fmri	15.0	0.7777777777777778	89.0	-70.0	0.2222222222222222	12.0	4.0	2.0	4.331659394187678	1.021	4.0	stim	poldrack-single-stim	s567	False	0
325.2	1.5	324.449	n/a	-1.0	2.25	columbia_card_task_fmri	n/a	n/a	-1.0	n/a	n/a	n/a	n/a	n/a	n/a	n/a	n/a	ITI	poldrack-single-stim	s567	False	0
326.703	1.575	328.278	-1.0031207739020236	draw_card	1.575	columbia_card_task_fmri	16.0	0.8	89.0	-70.0	0.2	15.0	1.0	3.0	3.393799026874472	1.575	1.0	stim	poldrack-single-stim	s567	False	0
329.033	1.5	328.282	n/a	-1.0	2.454	columbia_card_task_fmri	n/a	n/a	-1.0	n/a	n/a	n/a	n/a	n/a	n/a	n/a	n/a	ITI	poldrack-single-stim	s567	False	0
330.74	1.349	332.089	-0.6156207739020243	draw_card	1.349	columbia_card_task_fmri	14.0	0.8125	89.0	-65.0	0.1875	16.0	1.0	3.0	-0.1714582143778109	1.349	n/a	stim	poldrack-single-stim	s567	False	1
332.094	1.125	333.219	-1.6031207739020232	draw_card	1.125	columbia_card_task_fmri	14.0	0.8	89.0	-65.0	0.2	16.0	2.0	3.0	0.5938489464237477	1.125	n/a	stim	poldrack-single-stim	s567	False	1
333.222	1.77	334.992	-2.731692202473452	draw_card	1.77	columbia_card_task_fmri	14.0	0.7857142857142857	89.0	-65.0	0.2142857142857142	16.0	3.0	3.0	1.4095798753508395	1.77	n/a	stim	poldrack-single-stim	s567	False	1
334.997	0.396	335.393	-4.033890004671256	end_round	0.396	columbia_card_task_fmri	14.0	0.7692307692307692	71.0	-65.0	0.2307692307692307	16.0	4.0	3.0	2.2784963994212117	0.396	3.0	stim	poldrack-single-stim	s567	False	1
336.148	1.5	335.397	n/a	-1.0	3.27	columbia_card_task_fmri	n/a	n/a	-1.0	n/a	n/a	n/a	n/a	n/a	n/a	n/a	n/a	ITI	poldrack-single-stim	s567	False	0
338.671	1.844	340.515	-0.8656207739020243	draw_card	1.844	columbia_card_task_fmri	16.0	0.8125	89.0	-75.0	0.1875	16.0	1.0	3.0	4.512207402725206	1.844	n/a	stim	poldrack-single-stim	s567	False	1
340.518	1.227	341.745	-2.003120773902024	draw_card	1.227	columbia_card_task_fmri	16.0	0.8	89.0	-75.0	0.2	16.0	2.0	3.0	5.39376807194154	1.227	n/a	stim	poldrack-single-stim	s567	False	1
341.75	0.404	342.154	-3.3031207739020227	end_round	0.404	columbia_card_task_fmri	16.0	0.7857142857142857	71.0	-75.0	0.2142857142857142	16.0	3.0	3.0	6.3334118758752815	0.404	2.0	stim	poldrack-single-stim	s567	False	1
342.908	1.5	342.157	n/a	-1.0	2.25	columbia_card_task_fmri	n/a	n/a	-1.0	n/a	n/a	n/a	n/a	n/a	n/a	n/a	n/a	ITI	poldrack-single-stim	s567	False	0
344.412	1.234	345.646	3.3968792260979765	draw_card	1.234	columbia_card_task_fmri	16.0	0.8666666666666667	89.0	-80.0	0.1333333333333333	15.0	1.0	2.0	1.6275544062813303	1.234	1.0	stim	poldrack-single-stim	s567	False	0
346.401	1.5	345.65	n/a	-1.0	2.25	columbia_card_task_fmri	n/a	n/a	-1.0	n/a	n/a	n/a	n/a	n/a	n/a	n/a	n/a	ITI	poldrack-single-stim	s567	False	0
347.904	1.319	349.223	4.263545892764644	draw_card	1.319	columbia_card_task_fmri	17.0	0.8666666666666667	89.0	-80.0	0.1333333333333333	15.0	1.0	2.0	1.9674829181493827	1.319	n/a	stim	poldrack-single-stim	s567	False	1
349.226	1.236	350.462	3.3397363689551214	draw_card	1.236	columbia_card_task_fmri	17.0	0.8571428571428572	89.0	-80.0	0.1428571428571428	15.0	2.0	2.0	2.9367359061073053	1.236	n/a	stim	poldrack-single-stim	s567	False	1
350.465	0.686	351.151	2.273802303021052	draw_card	0.686	columbia_card_task_fmri	17.0	0.8461538461538461	89.0	-80.0	0.1538461538461538	15.0	3.0	2.0	3.9915069975842714	0.686	n/a	stim	poldrack-single-stim	s567	False	1
351.154	0.298	351.452	1.0302125594313114	end_round	0.298	columbia_card_task_fmri	17.0	0.8333333333333334	71.0	-80.0	0.1666666666666666	15.0	4.0	2.0	5.143537393720909	0.298	3.0	stim	poldrack-single-stim	s567	False	1
352.207	1.5	351.456	n/a	-1.0	2.318	columbia_card_task_fmri	n/a	n/a	-1.0	n/a	n/a	n/a	n/a	n/a	n/a	n/a	n/a	ITI	poldrack-single-stim	s567	False	0
353.779	1.393	355.172	0.1968792260979756	draw_card	1.393	columbia_card_task_fmri	1.0	0.9375	89.0	-15.0	0.0625	16.0	1.0	1.0	-27.128780164709134	1.393	n/a	stim	poldrack-single-stim	s567	False	1
355.176	1.216	356.392	0.130212559431309	draw_card	1.216	columbia_card_task_fmri	1.0	0.9333333333333332	89.0	-15.0	0.0666666666666666	16.0	2.0	1.0	-27.01081011758333	1.216	n/a	stim	poldrack-single-stim	s567	False	1
356.396	0.258	356.654	0.0540220832408328	draw_card	0.258	columbia_card_task_fmri	1.0	0.9285714285714286	89.0	-15.0	0.0714285714285714	16.0	3.0	1.0	-26.881433675682054	0.258	n/a	stim	poldrack-single-stim	s567	False	1
356.658	0.158	356.816	-0.0338900046712551	draw_card	0.158	columbia_card_task_fmri	1.0	0.9230769230769232	89.0	-15.0	0.0769230769230769	16.0	4.0	1.0	-26.73871138343744	0.158	n/a	stim	poldrack-single-stim	s567	False	1
356.821	0.199	357.02	-0.1364541072353577	draw_card	0.199	columbia_card_task_fmri	1.0	0.9166666666666666	89.0	-15.0	0.0833333333333333	16.0	5.0	1.0	-26.58021751477611	0.199	n/a	stim	poldrack-single-stim	s567	False	1
357.023	0.171	357.194	-0.257666228447479	draw_card	0.171	columbia_card_task_fmri	1.0	0.9090909090909092	89.0	-15.0	0.0909090909090909	16.0	6.0	1.0	-26.402876197771995	0.171	n/a	stim	poldrack-single-stim	s567	False	1
357.198	0.176	357.374	-0.4031207739020243	draw_card	0.176	columbia_card_task_fmri	1.0	0.9	89.0	-15.0	0.1	16.0	7.0	1.0	-26.20272840922275	0.176	n/a	stim	poldrack-single-stim	s567	False	1
357.379	0.187	357.566	-0.580898551679802	draw_card	0.187	columbia_card_task_fmri	1.0	0.8888888888888888	89.0	-15.0	0.1111111111111111	16.0	8.0	1.0	-25.97459663296504	0.187	8.0	stim	poldrack-single-stim	s567	False	0
358.32	1.5	357.569	n/a	-1.0	2.726	columbia_card_task_fmri	n/a	n/a	-1.0	n/a	n/a	n/a	n/a	n/a	n/a	n/a	n/a	ITI	poldrack-single-stim	s567	False	0
360.301	2.231	362.532	3.3218792260979755	draw_card	2.231	columbia_card_task_fmri	10.0	0.9375	89.0	-100.0	0.0625	16.0	1.0	1.0	-4.379276000113283	2.231	n/a	stim	poldrack-single-stim	s567	False	1
362.536	0.544	363.08	2.8635458927646424	draw_card	0.544	columbia_card_task_fmri	10.0	0.9333333333333332	89.0	-100.0	0.0666666666666666	16.0	2.0	1.0	-3.567237209508836	0.544	n/a	stim	poldrack-single-stim	s567	False	1
363.085	0.506	363.591	2.33973636895512	draw_card	0.506	columbia_card_task_fmri	10.0	0.9285714285714286	89.0	-100.0	0.0714285714285714	16.0	3.0	1.0	-2.676748797714314	0.506	n/a	stim	poldrack-single-stim	s567	False	1
363.594	0.959	364.553	1.735340764559515	draw_card	0.959	columbia_card_task_fmri	10.0	0.9230769230769232	89.0	-100.0	0.0769230769230769	16.0	4.0	1.0	-1.6944741222584092	0.959	n/a	stim	poldrack-single-stim	s567	False	1
364.557	0.266	364.823	1.0302125594313096	end_round	0.266	columbia_card_task_fmri	10.0	0.9166666666666666	71.0	-100.0	0.0833333333333333	16.0	5.0	1.0	-0.603732983161958	0.266	4.0	stim	poldrack-single-stim	s567	False	1
365.578	1.5	364.827	n/a	-1.0	2.386	columbia_card_task_fmri	n/a	n/a	-1.0	n/a	n/a	n/a	n/a	n/a	n/a	n/a	n/a	ITI	poldrack-single-stim	s567	False	0
367.219	1.181	368.4	3.946879226097976	draw_card	1.181	columbia_card_task_fmri	15.0	0.875	89.0	-75.0	0.125	16.0	1.0	2.0	-1.2414109882153852	1.181	1.0	stim	poldrack-single-stim	s567	False	0
369.156	1.5	368.405	n/a	-1.0	2.318	columbia_card_task_fmri	n/a	n/a	-1.0	n/a	n/a	n/a	n/a	n/a	n/a	n/a	n/a	ITI	poldrack-single-stim	s567	False	0
370.727	1.421	372.148	4.196879226097976	draw_card	1.421	columbia_card_task_fmri	16.0	0.875	89.0	-80.0	0.125	16.0	1.0	2.0	0.7428618006607373	1.421	n/a	stim	poldrack-single-stim	s567	False	1
372.151	1.565	373.716	3.3968792260979765	draw_card	1.565	columbia_card_task_fmri	16.0	0.8666666666666667	89.0	-80.0	0.1333333333333333	16.0	2.0	2.0	1.6275544062813303	1.565	n/a	stim	poldrack-single-stim	s567	False	1
373.721	0.536	374.257	2.482593511812264	end_round	0.536	columbia_card_task_fmri	16.0	0.8571428571428572	71.0	-80.0	0.1428571428571428	16.0	3.0	2.0	2.5868147475463097	0.536	2.0	stim	poldrack-single-stim	s567	False	1
375.013	1.5	374.262	n/a	-1.0	2.25	columbia_card_task_fmri	n/a	n/a	-1.0	n/a	n/a	n/a	n/a	n/a	n/a	n/a	n/a	ITI	poldrack-single-stim	s567	False	0
376.518	2.601	379.119	1.3843792260979757	end_round	2.601	columbia_card_task_fmri	4.0	0.6875	71.0	-5.0	0.3125	16.0	1.0	5.0	-26.830509438650083	2.601	0.0	stim	poldrack-single-stim	s567	False	1
379.875	1.5	379.124	n/a	-1.0	2.25	columbia_card_task_fmri	n/a	n/a	-1.0	n/a	n/a	n/a	n/a	n/a	n/a	n/a	n/a	ITI	poldrack-single-stim	s567	False	0
381.379	2.102	383.481	-1.4697874405686886	draw_card	2.102	columbia_card_task_fmri	14.0	0.8333333333333334	89.0	-80.0	0.1666666666666666	6.0	1.0	1.0	4.025520514881347	2.102	n/a	stim	poldrack-single-stim	s567	False	1
383.485	1.155	384.64	-4.603120773902023	end_round	1.155	columbia_card_task_fmri	14.0	0.8	71.0	-80.0	0.2	6.0	2.0	1.0	6.593751079625346	1.155	1.0	stim	poldrack-single-stim	s567	False	1
385.395	1.5	384.644	n/a	-1.0	2.454	columbia_card_task_fmri	n/a	n/a	-1.0	n/a	n/a	n/a	n/a	n/a	n/a	n/a	n/a	ITI	poldrack-single-stim	s567	False	0
387.105	2.049	389.154	0.1968792260979756	draw_card	2.049	columbia_card_task_fmri	15.0	0.8333333333333334	89.0	-75.0	0.1666666666666666	6.0	1.0	1.0	2.5348331174122585	2.049	n/a	stim	poldrack-single-stim	s567	False	1
389.158	1.297	390.455	-2.8031207739020245	draw_card	1.297	columbia_card_task_fmri	15.0	0.8	89.0	-75.0	0.2	6.0	2.0	1.0	4.9937739877794165	1.297	2.0	stim	poldrack-single-stim	s567	False	0
391.209	1.5	390.458	n/a	-1.0	2.454	columbia_card_task_fmri	n/a	n/a	-1.0	n/a	n/a	n/a	n/a	n/a	n/a	n/a	n/a	ITI	poldrack-single-stim	s567	False	0
392.918	1.334	394.252	1.863545892764644	draw_card	1.334	columbia_card_task_fmri	16.0	0.8333333333333334	89.0	-70.0	0.1666666666666666	6.0	1.0	1.0	1.0441480070933942	1.334	n/a	stim	poldrack-single-stim	s567	False	1
394.256	1.304	395.56	-1.0031207739020236	draw_card	1.304	columbia_card_task_fmri	16.0	0.8	89.0	-70.0	0.2	6.0	2.0	1.0	3.393799026874472	1.304	n/a	stim	poldrack-single-stim	s567	False	1
395.564	0.513	396.077	-5.303120773902024	end_round	0.513	columbia_card_task_fmri	16.0	0.75	71.0	-70.0	0.25	6.0	3.0	1.0	6.232848437752121	0.513	2.0	stim	poldrack-single-stim	s567	False	1
396.833	1.5	396.082	n/a	-1.0	2.522	columbia_card_task_fmri	n/a	n/a	-1.0	n/a	n/a	n/a	n/a	n/a	n/a	n/a	n/a	ITI	poldrack-single-stim	s567	False	0
398.609	1.782	400.391	2.4468792260979755	draw_card	1.782	columbia_card_task_fmri	23.0	0.75	89.0	-60.0	0.25	8.0	1.0	2.0	4.933829142752597	1.782	n/a	stim	poldrack-single-stim	s567	False	1
400.395	1.246	401.641	-0.517406488187736	draw_card	1.246	columbia_card_task_fmri	23.0	0.7142857142857143	89.0	-60.0	0.2857142857142857	8.0	2.0	2.0	6.489330485633349	1.246	n/a	stim	poldrack-single-stim	s567	False	1
401.645	1.39	403.035	-4.469787440568688	draw_card	1.39	columbia_card_task_fmri	23.0	0.6666666666666667	89.0	-60.0	0.3333333333333333	8.0	3.0	2.0	8.120306194926084	1.39	3.0	stim	poldrack-single-stim	s567	False	0
403.791	1.5	403.04	n/a	-1.0	2.386	columbia_card_task_fmri	n/a	n/a	-1.0	n/a	n/a	n/a	n/a	n/a	n/a	n/a	n/a	ITI	poldrack-single-stim	s567	False	0
405.431	1.562	406.993	2.9468792260979755	draw_card	1.562	columbia_card_task_fmri	27.0	0.75	89.0	-70.0	0.25	8.0	1.0	2.0	10.995929140694797	1.562	n/a	stim	poldrack-single-stim	s567	False	1
406.998	1.687	408.685	-0.5174064881877396	draw_card	1.687	columbia_card_task_fmri	27.0	0.7142857142857143	89.0	-70.0	0.2857142857142857	8.0	2.0	2.0	12.813811206061718	1.687	2.0	stim	poldrack-single-stim	s567	False	0
409.441	1.5	408.69	n/a	-1.0	2.454	columbia_card_task_fmri	n/a	n/a	-1.0	n/a	n/a	n/a	n/a	n/a	n/a	n/a	n/a	ITI	poldrack-single-stim	s567	False	0
411.15	1.345	412.495	-1.8031207739020223	draw_card	1.345	columbia_card_task_fmri	16.0	0.7777777777777778	89.0	-65.0	0.2222222222222222	9.0	1.0	2.0	2.6687276384308056	1.345	n/a	stim	poldrack-single-stim	s567	False	1
412.5	0.897	413.397	-4.053120773902024	draw_card	0.897	columbia_card_task_fmri	16.0	0.75	89.0	-65.0	0.25	9.0	2.0	2.0	4.067817053503735	0.897	n/a	stim	poldrack-single-stim	s567	False	1
413.402	0.323	413.725	-6.945977916759165	end_round	0.323	columbia_card_task_fmri	16.0	0.7142857142857143	71.0	-65.0	0.2857142857142857	9.0	3.0	2.0	5.585835344927101	0.323	2.0	stim	poldrack-single-stim	s567	False	1
414.481	1.5	413.73	n/a	-1.0	2.522	columbia_card_task_fmri	n/a	n/a	-1.0	n/a	n/a	n/a	n/a	n/a	n/a	n/a	n/a	ITI	poldrack-single-stim	s567	False	0
416.258	1.243	417.501	3.3968792260979765	draw_card	1.243	columbia_card_task_fmri	13.0	0.9	89.0	-85.0	0.1	10.0	1.0	1.0	-1.6061051607878127	1.243	n/a	stim	poldrack-single-stim	s567	False	1
417.505	1.395	418.9	2.307990337209086	draw_card	1.395	columbia_card_task_fmri	13.0	0.8888888888888888	89.0	-85.0	0.1111111111111111	10.0	2.0	1.0	-0.207706400041399	1.395	n/a	stim	poldrack-single-stim	s567	False	1
418.905	1.517	420.422	0.9468792260979756	draw_card	1.517	columbia_card_task_fmri	13.0	0.875	89.0	-85.0	0.125	10.0	3.0	1.0	1.4042871709189022	1.517	n/a	stim	poldrack-single-stim	s567	False	1
420.425	0.36	420.785	-0.8031207739020225	end_round	0.36	columbia_card_task_fmri	13.0	0.8571428571428572	71.0	-85.0	0.1428571428571428	10.0	4.0	1.0	3.2866571860438647	0.36	3.0	stim	poldrack-single-stim	s567	False	1
421.541	1.5	420.79	n/a	-1.0	2.522	columbia_card_task_fmri	n/a	n/a	-1.0	n/a	n/a	n/a	n/a	n/a	n/a	n/a	n/a	ITI	poldrack-single-stim	s567	False	0
423.317	1.191	424.508	-1.6031207739020232	draw_card	1.191	columbia_card_task_fmri	14.0	0.8	89.0	-65.0	0.2	10.0	1.0	2.0	0.5938489464237477	1.191	n/a	stim	poldrack-single-stim	s567	False	1
424.512	0.464	424.976	-3.358676329457578	draw_card	0.464	columbia_card_task_fmri	14.0	0.7777777777777778	89.0	-65.0	0.2222222222222222	10.0	2.0	2.0	1.8372627889866455	0.464	n/a	stim	poldrack-single-stim	s567	False	1
424.98	0.308	425.288	-5.553120773902024	end_round	0.308	columbia_card_task_fmri	14.0	0.75	71.0	-65.0	0.25	10.0	3.0	2.0	3.2018056383922264	0.308	2.0	stim	poldrack-single-stim	s567	False	1
426.044	1.5	425.293	n/a	-1.0	2.59	columbia_card_task_fmri	n/a	n/a	-1.0	n/a	n/a	n/a	n/a	n/a	n/a	n/a	n/a	ITI	poldrack-single-stim	s567	False	0
427.888	1.998	429.886	-0.2031207739020229	draw_card	1.998	columbia_card_task_fmri	17.0	0.8	89.0	-70.0	0.2	10.0	1.0	2.0	3.793792551251581	1.998	n/a	stim	poldrack-single-stim	s567	False	1
429.89	0.885	430.775	-2.1364541072353567	draw_card	0.885	columbia_card_task_fmri	17.0	0.7777777777777778	89.0	-70.0	0.2222222222222222	10.0	2.0	2.0	5.163126205934663	0.885	n/a	stim	poldrack-single-stim	s567	False	1
430.781	0.846	431.627	-4.553120773902024	draw_card	0.846	columbia_card_task_fmri	17.0	0.75	89.0	-70.0	0.25	10.0	3.0	2.0	6.665855157698847	0.846	n/a	stim	poldrack-single-stim	s567	False	1
431.632	0.765	432.397	-7.660263631044882	end_round	0.765	columbia_card_task_fmri	17.0	0.7142857142857143	71.0	-70.0	0.2857142857142857	10.0	4.0	2.0	8.296322527314683	0.765	3.0	stim	poldrack-single-stim	s567	False	1
433.152	1.5	432.401	n/a	-1.0	2.454	columbia_card_task_fmri	n/a	n/a	-1.0	n/a	n/a	n/a	n/a	n/a	n/a	n/a	n/a	ITI	poldrack-single-stim	s567	False	0
434.862	1.175	436.037	-1.4697874405686904	draw_card	1.175	columbia_card_task_fmri	13.0	0.8333333333333334	89.0	-75.0	0.1666666666666666	12.0	1.0	2.0	1.78949025686698	1.175	1.0	stim	poldrack-single-stim	s567	False	0
436.793	1.5	436.042	n/a	-1.0	2.318	columbia_card_task_fmri	n/a	n/a	-1.0	n/a	n/a	n/a	n/a	n/a	n/a	n/a	n/a	ITI	poldrack-single-stim	s567	False	0
438.366	0.562	438.928	0.1968792260979774	draw_card	0.562	columbia_card_task_fmri	14.0	0.8333333333333334	89.0	-70.0	0.1666666666666666	12.0	1.0	2.0	0.2988064117163738	0.562	n/a	stim	poldrack-single-stim	s567	False	1
438.932	1.48	440.412	-1.0758480466292994	draw_card	1.48	columbia_card_task_fmri	14.0	0.8181818181818181	89.0	-70.0	0.1818181818181818	12.0	2.0	2.0	1.3921808990959723	1.48	n/a	stim	poldrack-single-stim	s567	False	1
440.416	0.428	440.844	-2.6031207739020235	draw_card	0.428	columbia_card_task_fmri	14.0	0.8	89.0	-70.0	0.2	12.0	3.0	2.0	2.593812440653071	0.428	3.0	stim	poldrack-single-stim	s567	False	0
441.6	1.5	440.849	n/a	-1.0	2.25	columbia_card_task_fmri	n/a	n/a	-1.0	n/a	n/a	n/a	n/a	n/a	n/a	n/a	n/a	ITI	poldrack-single-stim	s567	False	0
443.105	1.713	444.818	0.1968792260979774	draw_card	1.713	columbia_card_task_fmri	16.0	0.8333333333333334	89.0	-80.0	0.1666666666666666	12.0	1.0	2.0	4.77086498195828	1.713	n/a	stim	poldrack-single-stim	s567	False	1
444.821	0.959	445.78	-1.257666228447481	draw_card	0.959	columbia_card_task_fmri	16.0	0.8181818181818181	89.0	-80.0	0.1818181818181818	12.0	2.0	2.0	6.020441420866892	0.959	n/a	stim	poldrack-single-stim	s567	False	1
445.785	0.296	446.081	-3.003120773902024	end_round	0.296	columbia_card_task_fmri	16.0	0.8	71.0	-80.0	0.2	12.0	3.0	2.0	7.393740341413594	0.296	2.0	stim	poldrack-single-stim	s567	False	1
446.837	1.5	446.086	n/a	-1.0	2.658	columbia_card_task_fmri	n/a	n/a	-1.0	n/a	n/a	n/a	n/a	n/a	n/a	n/a	n/a	ITI	poldrack-single-stim	s567	False	0
448.749	1.169	449.918	-0.0031207739020236	draw_card	1.169	columbia_card_task_fmri	16.0	0.8	89.0	-65.0	0.2	15.0	1.0	3.0	1.3938338033041653	1.169	n/a	stim	poldrack-single-stim	s567	False	1
449.924	1.156	451.08	-1.1602636310448802	draw_card	1.156	columbia_card_task_fmri	16.0	0.7857142857142857	89.0	-65.0	0.2142857142857142	15.0	2.0	3.0	2.230216919937238	1.156	n/a	stim	poldrack-single-stim	s567	False	1
451.084	1.851	452.935	-2.495428466209718	draw_card	1.851	columbia_card_task_fmri	16.0	0.7692307692307692	89.0	-65.0	0.2307692307692307	15.0	3.0	3.0	3.121132111188228	1.851	n/a	stim	poldrack-single-stim	s567	False	1
452.94	0.499	453.439	-4.053120773902024	end_round	0.499	columbia_card_task_fmri	16.0	0.75	71.0	-65.0	0.25	15.0	4.0	3.0	4.067817053503735	0.499	3.0	stim	poldrack-single-stim	s567	False	1
454.195	1.5	453.444	n/a	-1.0	2.454	columbia_card_task_fmri	n/a	n/a	-1.0	n/a	n/a	n/a	n/a	n/a	n/a	n/a	n/a	ITI	poldrack-single-stim	s567	False	0
455.904	1.154	457.058	-1.6781207739020243	draw_card	1.154	columbia_card_task_fmri	15.0	0.8125	89.0	-75.0	0.1875	16.0	1.0	3.0	4.121901090488603	1.154	n/a	stim	poldrack-single-stim	s567	False	1
457.062	1.666	458.728	-2.8031207739020245	draw_card	1.666	columbia_card_task_fmri	15.0	0.8	89.0	-75.0	0.2	16.0	2.0	3.0	4.9937739877794165	1.666	n/a	stim	poldrack-single-stim	s567	False	1
458.732	1.321	460.053	-4.088835059616309	draw_card	1.321	columbia_card_task_fmri	15.0	0.7857142857142857	89.0	-75.0	0.2142857142857142	16.0	3.0	3.0	5.923091739522551	1.321	n/a	stim	poldrack-single-stim	s567	False	1
460.058	0.515	460.573	-5.572351543132798	end_round	0.515	columbia_card_task_fmri	15.0	0.7692307692307692	71.0	-75.0	0.2307692307692307	16.0	4.0	3.0	6.913000721152951	0.515	3.0	stim	poldrack-single-stim	s567	False	1
461.328	1.5	460.577	n/a	-1.0	2.386	columbia_card_task_fmri	n/a	n/a	-1.0	n/a	n/a	n/a	n/a	n/a	n/a	n/a	n/a	ITI	poldrack-single-stim	s567	False	0
462.969	2.7	465.669	-1.1156207739020243	draw_card	2.7	columbia_card_task_fmri	14.0	0.6875	89.0	-35.0	0.3125	16.0	1.0	5.0	-8.293803189849882	2.7	n/a	stim	poldrack-single-stim	s567	False	1
465.673	0.386	466.059	-2.1364541072353567	end_round	0.386	columbia_card_task_fmri	14.0	0.6666666666666667	71.0	-35.0	0.3333333333333333	16.0	2.0	5.0	-7.90710382307368	0.386	1.0	stim	poldrack-single-stim	s567	False	1
466.816	1.5	466.065	n/a	-1.0	2.59	columbia_card_task_fmri	n/a	n/a	-1.0	n/a	n/a	n/a	n/a	n/a	n/a	n/a	n/a	ITI	poldrack-single-stim	s567	False	0
468.662	1.415	470.077	4.063545892764643	draw_card	1.415	columbia_card_task_fmri	16.0	0.8666666666666667	89.0	-75.0	0.1333333333333333	15.0	1.0	2.0	-0.0720861347537322	1.415	n/a	stim	poldrack-single-stim	s567	False	1
470.082	0.375	470.457	3.1968792260979773	draw_card	0.375	columbia_card_task_fmri	16.0	0.8571428571428572	89.0	-75.0	0.1428571428571428	15.0	2.0	2.0	0.8372109154182894	0.375	n/a	stim	poldrack-single-stim	s567	False	1
470.462	0.323	470.785	2.1968792260979755	end_round	0.323	columbia_card_task_fmri	16.0	0.8461538461538461	71.0	-75.0	0.1538461538461538	15.0	3.0	2.0	1.826736235256515	0.323	2.0	stim	poldrack-single-stim	s567	False	1
471.541	1.5	470.79	n/a	-1.0	2.318	columbia_card_task_fmri	n/a	n/a	-1.0	n/a	n/a	n/a	n/a	n/a	n/a	n/a	n/a	ITI	poldrack-single-stim	s567	False	0
473.115	1.507	474.622	4.730212559431309	draw_card	1.507	columbia_card_task_fmri	16.0	0.8666666666666667	89.0	-70.0	0.1333333333333333	15.0	1.0	2.0	-1.7717228817060509	1.507	n/a	stim	poldrack-single-stim	s567	False	1
474.627	0.564	475.191	3.911164940383691	end_round	0.564	columbia_card_task_fmri	16.0	0.8571428571428572	71.0	-70.0	0.1428571428571428	15.0	2.0	2.0	-0.912389230957654	0.564	1.0	stim	poldrack-single-stim	s567	False	1
475.947	1.5	475.196	n/a	-1.0	2.59	columbia_card_task_fmri	n/a	n/a	-1.0	n/a	n/a	n/a	n/a	n/a	n/a	n/a	n/a	ITI	poldrack-single-stim	s567	False	0
477.792	2.126	479.918	2.0718792260979755	draw_card	2.126	columbia_card_task_fmri	8.0	0.9375	89.0	-90.0	0.0625	16.0	1.0	1.0	-7.283924387434546	2.126	n/a	stim	poldrack-single-stim	s567	False	1
479.923	0.574	480.497	1.6635458927646425	draw_card	0.574	columbia_card_task_fmri	8.0	0.9333333333333332	89.0	-90.0	0.0666666666666666	16.0	2.0	1.0	-6.560476633963408	0.574	n/a	stim	poldrack-single-stim	s567	False	1
480.503	0.73	481.233	1.1968792260979766	draw_card	0.73	columbia_card_task_fmri	8.0	0.9285714285714286	89.0	-90.0	0.0714285714285714	16.0	3.0	1.0	-5.767137552938305	0.73	n/a	stim	poldrack-single-stim	s567	False	1
481.238	0.293	481.531	0.6584176876364374	draw_card	0.293	columbia_card_task_fmri	8.0	0.9230769230769232	89.0	-90.0	0.0769230769230769	16.0	4.0	1.0	-4.892025422769745	0.293	n/a	stim	poldrack-single-stim	s567	False	1
481.536	0.551	482.087	0.0302125594313086	draw_card	0.551	columbia_card_task_fmri	8.0	0.9166666666666666	89.0	-90.0	0.0833333333333333	16.0	5.0	1.0	-3.920279718328249	0.551	n/a	stim	poldrack-single-stim	s567	False	1
482.091	0.702	482.793	-0.7122116829929335	draw_card	0.702	columbia_card_task_fmri	8.0	0.9090909090909092	89.0	-90.0	0.0909090909090909	16.0	6.0	1.0	-2.833057297987697	0.702	n/a	stim	poldrack-single-stim	s567	False	1
482.798	0.327	483.125	-1.603120773902024	end_round	0.327	columbia_card_task_fmri	8.0	0.9	71.0	-90.0	0.1	16.0	7.0	1.0	-1.6061051607878127	0.327	6.0	stim	poldrack-single-stim	s567	False	1
483.88	1.5	483.129	n/a	-1.0	2.386	columbia_card_task_fmri	n/a	n/a	-1.0	n/a	n/a	n/a	n/a	n/a	n/a	n/a	n/a	ITI	poldrack-single-stim	s567	False	0
485.52	2.443	487.963	3.634379226097976	draw_card	2.443	columbia_card_task_fmri	10.0	0.9375	89.0	-95.0	0.0625	16.0	1.0	1.0	-5.589548637005173	2.443	n/a	stim	poldrack-single-stim	s567	False	1
487.967	0.648	488.615	3.1968792260979764	draw_card	0.648	columbia_card_task_fmri	10.0	0.9333333333333332	89.0	-95.0	0.0666666666666666	16.0	2.0	1.0	-4.814422705289019	0.648	n/a	stim	poldrack-single-stim	s567	False	1
488.62	0.556	489.176	2.6968792260979764	draw_card	0.556	columbia_card_task_fmri	10.0	0.9285714285714286	89.0	-95.0	0.0714285714285714	16.0	3.0	1.0	-3.9644131058144048	0.556	n/a	stim	poldrack-single-stim	s567	False	1
489.18	0.535	489.715	2.119956149174899	draw_card	0.535	columbia_card_task_fmri	10.0	0.9230769230769232	89.0	-95.0	0.0769230769230769	16.0	4.0	1.0	-3.026789412932118	0.535	n/a	stim	poldrack-single-stim	s567	False	1
489.72	1.333	491.053	1.4468792260979757	draw_card	1.333	columbia_card_task_fmri	10.0	0.9166666666666666	89.0	-95.0	0.0833333333333333	16.0	5.0	1.0	-1.9856296242721212	1.333	n/a	stim	poldrack-single-stim	s567	False	1
491.058	0.321	491.379	0.651424680643429	end_round	0.321	columbia_card_task_fmri	10.0	0.9090909090909092	71.0	-95.0	0.0909090909090909	16.0	6.0	1.0	-0.8207446465725177	0.321	5.0	stim	poldrack-single-stim	s567	False	1
492.136	1.5	491.385	n/a	-1.0	2.318	columbia_card_task_fmri	n/a	n/a	-1.0	n/a	n/a	n/a	n/a	n/a	n/a	n/a	n/a	ITI	poldrack-single-stim	s567	False	0
493.709	1.581	495.29	4.571879226097976	draw_card	1.581	columbia_card_task_fmri	15.0	0.875	89.0	-70.0	0.125	16.0	1.0	2.0	-2.8949672571502667	1.581	n/a	stim	poldrack-single-stim	s567	False	1
495.296	0.992	496.288	3.8635458927646416	draw_card	0.992	columbia_card_task_fmri	15.0	0.8666666666666667	89.0	-70.0	0.1333333333333333	16.0	2.0	2.0	-2.111649716889314	0.992	n/a	stim	poldrack-single-stim	s567	False	1
496.293	0.638	496.931	3.054022083240833	draw_card	0.638	columbia_card_task_fmri	15.0	0.8571428571428572	89.0	-70.0	0.1428571428571428	16.0	3.0	2.0	-1.2623087607074126	0.638	n/a	stim	poldrack-single-stim	s567	False	1
496.936	0.363	497.299	2.119956149174897	end_round	0.363	columbia_card_task_fmri	15.0	0.8461538461538461	71.0	-70.0	0.1538461538461538	16.0	4.0	2.0	-0.3380293726646819	0.363	3.0	stim	poldrack-single-stim	s567	False	1
498.055	1.5	497.304	n/a	-1.0	2.318	columbia_card_task_fmri	n/a	n/a	-1.0	n/a	n/a	n/a	n/a	n/a	n/a	n/a	n/a	ITI	poldrack-single-stim	s567	False	0
499.629	1.776	501.405	3.5718792260979755	draw_card	1.776	columbia_card_task_fmri	16.0	0.875	89.0	-85.0	0.125	16.0	1.0	2.0	2.3964261513438494	1.776	n/a	stim	poldrack-single-stim	s567	False	1
501.41	0.554	501.964	2.7302125594313087	draw_card	0.554	columbia_card_task_fmri	16.0	0.8666666666666667	89.0	-85.0	0.1333333333333333	16.0	2.0	2.0	3.327198177941572	0.554	n/a	stim	poldrack-single-stim	s567	False	1
501.969	0.961	502.93	1.7683077975265489	draw_card	0.961	columbia_card_task_fmri	16.0	0.8571428571428572	89.0	-85.0	0.1428571428571428	16.0	3.0	2.0	4.336421718055892	0.961	n/a	stim	poldrack-single-stim	s567	False	1
502.934	0.36	503.294	0.6584176876364356	draw_card	0.36	columbia_card_task_fmri	16.0	0.8461538461538461	89.0	-85.0	0.1538461538461538	16.0	4.0	2.0	5.4346899157431885	0.36	4.0	stim	poldrack-single-stim	s567	False	0
504.051	1.5	503.3	n/a	-1.0	2.318	columbia_card_task_fmri	n/a	n/a	-1.0	n/a	n/a	n/a	n/a	n/a	n/a	n/a	n/a	ITI	poldrack-single-stim	s567	False	0
