onset	duration	movement_onset	CTI	block_duration	correct	correct_response	cue	cue_switch	experiment_exp_id	key_press	response_time	stim_color	stim_number	switch_type	task	task_switch	trial_id	trial_type	worker_id	first_trial_of_block	junk
3.613	1.0	4.719	0.1	2.136	True	89.0	Color	n/a	twobytwo	89.0	1.006	blue	6.0	task_switch	color	switch	stim	poldrack-single-stim	s567	1	False
6.655	1.0	8.05	0.9	2.68	True	71.0	Color	stay	twobytwo	71.0	0.495	orange	3.0	cue_stay	color	stay	stim	poldrack-single-stim	s567	0	False
9.441	1.0	10.573	0.1	2.544	True	89.0	Orange-Blue	switch	twobytwo	89.0	1.032	blue	8.0	cue_switch	color	stay	stim	poldrack-single-stim	s567	0	False
12.89	1.0	14.255	0.9	2.272	True	71.0	Color	switch	twobytwo	71.0	0.465	orange	9.0	cue_switch	color	stay	stim	poldrack-single-stim	s567	0	False
16.068	1.0	17.572	0.9	2.272	True	71.0	Orange-Blue	switch	twobytwo	71.0	0.604	orange	6.0	cue_switch	color	stay	stim	poldrack-single-stim	s567	0	False
18.445	1.0	19.566	0.1	2.408	True	71.0	High-Low	n/a	twobytwo	71.0	1.021	orange	8.0	task_switch	magnitude	switch	stim	poldrack-single-stim	s567	0	False
21.756	1.0	23.23	0.9	2.136	True	89.0	High-Low	stay	twobytwo	89.0	0.574	blue	3.0	cue_stay	magnitude	stay	stim	poldrack-single-stim	s567	0	False
24.797	1.0	26.152	0.9	2.272	True	89.0	Color	n/a	twobytwo	89.0	0.455	blue	9.0	task_switch	color	switch	stim	poldrack-single-stim	s567	0	False
27.174	1.0	28.199	0.1	2.0	True	71.0	Orange-Blue	switch	twobytwo	71.0	0.925	orange	2.0	cue_switch	color	stay	stim	poldrack-single-stim	s567	0	False
30.081	1.0	31.459	0.9	2.136	True	71.0	Color	switch	twobytwo	71.0	0.478	orange	6.0	cue_switch	color	stay	stim	poldrack-single-stim	s567	0	False
32.32	1.0	33.228	0.1	2.272	True	71.0	Color	stay	twobytwo	71.0	0.808	orange	4.0	cue_stay	color	stay	stim	poldrack-single-stim	s567	0	False
35.498	1.0	36.893	0.9	2.0	True	71.0	High-Low	n/a	twobytwo	71.0	0.495	blue	8.0	task_switch	magnitude	switch	stim	poldrack-single-stim	s567	0	False
38.403	1.0	40.054	0.9	2.68	True	89.0	Orange-Blue	n/a	twobytwo	89.0	0.751	blue	8.0	task_switch	color	switch	stim	poldrack-single-stim	s567	0	False
41.186	1.0	42.025	0.1	2.0	True	89.0	Color	switch	twobytwo	89.0	0.739	blue	9.0	cue_switch	color	stay	stim	poldrack-single-stim	s567	0	False
44.091	1.0	45.461	0.9	2.0	True	89.0	High-Low	n/a	twobytwo	89.0	0.47	orange	4.0	task_switch	magnitude	switch	stim	poldrack-single-stim	s567	0	False
46.996	1.0	48.297	0.9	2.0	True	71.0	High-Low	stay	twobytwo	71.0	0.401	orange	8.0	cue_stay	magnitude	stay	stim	poldrack-single-stim	s567	0	False
49.9	1.0	51.529	0.9	2.272	True	71.0	Color	n/a	twobytwo	71.0	0.729	orange	2.0	task_switch	color	switch	stim	poldrack-single-stim	s567	0	False
52.276	1.0	53.065	0.1	2.0	True	71.0	Magnitude	n/a	twobytwo	71.0	0.689	orange	7.0	task_switch	magnitude	switch	stim	poldrack-single-stim	s567	0	False
54.38	1.0	55.316	0.1	2.0	True	71.0	Color	n/a	twobytwo	71.0	0.836	orange	4.0	task_switch	color	switch	stim	poldrack-single-stim	s567	0	False
57.287	1.0	58.612	0.9	2.0	True	89.0	High-Low	n/a	twobytwo	89.0	0.425	orange	2.0	task_switch	magnitude	switch	stim	poldrack-single-stim	s567	0	False
59.391	1.0	60.129	0.1	2.68	True	71.0	High-Low	stay	twobytwo	71.0	0.638	blue	8.0	cue_stay	magnitude	stay	stim	poldrack-single-stim	s567	0	False
62.176	1.0	62.886	0.1	2.0	True	71.0	High-Low	stay	twobytwo	71.0	0.61	orange	9.0	cue_stay	magnitude	stay	stim	poldrack-single-stim	s567	0	False
65.081	1.0	66.459	0.9	2.136	True	71.0	Orange-Blue	n/a	twobytwo	71.0	0.478	orange	8.0	task_switch	color	switch	stim	poldrack-single-stim	s567	0	False
68.122	1.0	69.463	0.9	2.408	True	89.0	Color	switch	twobytwo	89.0	0.441	blue	1.0	cue_switch	color	stay	stim	poldrack-single-stim	s567	0	False
71.434	1.0	72.743	0.9	2.136	True	71.0	Color	stay	twobytwo	71.0	0.409	orange	4.0	cue_stay	color	stay	stim	poldrack-single-stim	s567	0	False
73.676	1.0	74.55	0.1	2.0	True	71.0	Color	stay	twobytwo	71.0	0.774	orange	6.0	cue_stay	color	stay	stim	poldrack-single-stim	s567	0	False
75.781	1.0	76.507	0.1	2.0	True	71.0	Magnitude	n/a	twobytwo	71.0	0.626	orange	7.0	task_switch	magnitude	switch	stim	poldrack-single-stim	s567	0	False
77.887	1.0	78.81	0.1	2.544	True	71.0	Orange-Blue	n/a	twobytwo	71.0	0.823	orange	1.0	task_switch	color	switch	stim	poldrack-single-stim	s567	0	False
81.336	1.0	82.685	0.9	2.136	True	71.0	Orange-Blue	stay	twobytwo	71.0	0.449	orange	7.0	cue_stay	color	stay	stim	poldrack-single-stim	s567	0	False
83.577	1.0	84.347	0.1	2.544	True	71.0	Orange-Blue	stay	twobytwo	71.0	0.67	orange	2.0	cue_stay	color	stay	stim	poldrack-single-stim	s567	0	False
86.227	1.0	86.971	0.1	2.68	True	89.0	High-Low	n/a	twobytwo	89.0	0.644	blue	2.0	task_switch	magnitude	switch	stim	poldrack-single-stim	s567	0	False
89.813	1.0	91.166	0.9	2.0	True	89.0	Magnitude	switch	twobytwo	89.0	0.453	blue	2.0	cue_switch	magnitude	stay	stim	poldrack-single-stim	s567	0	False
91.917	1.0	92.569	0.1	2.272	True	71.0	Orange-Blue	n/a	twobytwo	71.0	0.552	orange	8.0	task_switch	color	switch	stim	poldrack-single-stim	s567	0	False
94.295	1.0	95.045	0.1	3.088	True	89.0	Magnitude	n/a	twobytwo	89.0	0.65	blue	1.0	task_switch	magnitude	switch	stim	poldrack-single-stim	s567	0	False
98.288	1.0	99.583	0.9	2.0	True	89.0	Color	n/a	twobytwo	89.0	0.395	blue	7.0	task_switch	color	switch	stim	poldrack-single-stim	s567	0	False
100.393	1.0	101.057	0.1	2.136	True	71.0	Color	stay	twobytwo	71.0	0.564	orange	6.0	cue_stay	color	stay	stim	poldrack-single-stim	s567	0	False
103.435	1.0	104.976	0.9	2.136	True	89.0	High-Low	n/a	twobytwo	89.0	0.641	orange	1.0	task_switch	magnitude	switch	stim	poldrack-single-stim	s567	0	False
105.675	1.0	106.402	0.1	2.0	True	71.0	High-Low	stay	twobytwo	71.0	0.627	blue	9.0	cue_stay	magnitude	stay	stim	poldrack-single-stim	s567	0	False
107.78	1.0	108.462	0.1	2.272	True	89.0	Magnitude	switch	twobytwo	89.0	0.582	orange	3.0	cue_switch	magnitude	stay	stim	poldrack-single-stim	s567	0	False
110.957	1.0	112.308	0.9	2.0	True	71.0	Color	n/a	twobytwo	71.0	0.451	orange	6.0	task_switch	color	switch	stim	poldrack-single-stim	s567	0	False
113.062	1.0	113.898	0.1	2.136	True	89.0	Magnitude	n/a	twobytwo	89.0	0.736	orange	3.0	task_switch	magnitude	switch	stim	poldrack-single-stim	s567	0	False
115.303	1.0	116.169	0.1	2.136	True	71.0	Color	n/a	twobytwo	71.0	0.766	orange	9.0	task_switch	color	switch	stim	poldrack-single-stim	s567	0	False
118.343	1.0	119.641	0.9	2.544	True	89.0	Color	stay	twobytwo	89.0	0.398	blue	6.0	cue_stay	color	stay	stim	poldrack-single-stim	s567	0	False
121.791	1.0	123.13	0.9	2.0	True	89.0	High-Low	n/a	twobytwo	89.0	0.439	orange	4.0	task_switch	magnitude	switch	stim	poldrack-single-stim	s567	0	False
123.895	1.0	123.894	0.1	2.136	False	71.0	High-Low	stay	twobytwo	-1.0	n/a	blue	9.0	cue_stay	magnitude	stay	stim	poldrack-single-stim	s567	0	False
126.936	1.0	128.336	0.9	2.136	True	71.0	Color	n/a	twobytwo	71.0	0.5	orange	1.0	task_switch	color	switch	stim	poldrack-single-stim	s567	0	False
129.976	1.0	131.381	0.9	2.136	True	89.0	High-Low	n/a	twobytwo	89.0	0.505	blue	4.0	task_switch	magnitude	switch	stim	poldrack-single-stim	s567	0	False
132.217	1.0	133.226	0.1	2.0	True	71.0	Color	n/a	twobytwo	71.0	0.909	orange	4.0	task_switch	color	switch	stim	poldrack-single-stim	s567	0	False
134.322	1.0	135.138	0.1	2.136	True	71.0	Magnitude	n/a	twobytwo	71.0	0.716	blue	8.0	task_switch	magnitude	switch	stim	poldrack-single-stim	s567	0	False
137.363	1.0	138.754	0.9	2.0	True	71.0	Magnitude	stay	twobytwo	71.0	0.491	blue	9.0	cue_stay	magnitude	stay	stim	poldrack-single-stim	s567	0	False
139.469	1.0	140.194	0.1	2.136	True	71.0	High-Low	switch	twobytwo	71.0	0.625	blue	7.0	cue_switch	magnitude	stay	stim	poldrack-single-stim	s567	0	False
141.709	1.0	142.488	0.1	2.816	True	71.0	Color	n/a	twobytwo	71.0	0.679	orange	6.0	task_switch	color	switch	stim	poldrack-single-stim	s567	0	False
144.63	1.0	145.315	0.1	2.136	True	89.0	Color	stay	twobytwo	89.0	0.585	blue	2.0	cue_stay	color	stay	stim	poldrack-single-stim	s567	0	False
146.871	1.0	146.87	0.1	2.0	False	71.0	Color	stay	twobytwo	-1.0	n/a	orange	7.0	cue_stay	color	stay	stim	poldrack-single-stim	s567	0	False
149.776	1.0	151.139	0.9	2.0	True	71.0	Magnitude	n/a	twobytwo	71.0	0.463	blue	8.0	task_switch	magnitude	switch	stim	poldrack-single-stim	s567	0	False
151.88	1.0	152.705	0.1	2.272	True	89.0	Magnitude	stay	twobytwo	89.0	0.725	blue	4.0	cue_stay	magnitude	stay	stim	poldrack-single-stim	s567	0	False
154.258	1.0	155.307	0.1	2.0	True	89.0	Orange-Blue	n/a	twobytwo	89.0	0.949	blue	7.0	task_switch	color	switch	stim	poldrack-single-stim	s567	0	False
157.163	1.0	158.756	0.9	2.0	True	71.0	Magnitude	n/a	twobytwo	71.0	0.693	orange	7.0	task_switch	magnitude	switch	stim	poldrack-single-stim	s567	0	False
160.068	1.0	161.513	0.9	2.0	True	89.0	Orange-Blue	n/a	twobytwo	89.0	0.545	blue	3.0	task_switch	color	switch	stim	poldrack-single-stim	s567	0	False
162.974	1.0	164.384	0.9	2.408	True	71.0	Magnitude	n/a	twobytwo	71.0	0.51	blue	6.0	task_switch	magnitude	switch	stim	poldrack-single-stim	s567	0	False
166.286	1.0	167.706	0.9	2.272	True	71.0	Magnitude	stay	twobytwo	71.0	0.52	orange	6.0	cue_stay	magnitude	stay	stim	poldrack-single-stim	s567	0	False
169.462	1.0	170.743	0.9	2.136	True	89.0	Orange-Blue	n/a	twobytwo	89.0	0.381	blue	1.0	task_switch	color	switch	stim	poldrack-single-stim	s567	0	False
171.703	1.0	172.487	0.1	2.0	True	71.0	Color	switch	twobytwo	71.0	0.684	orange	7.0	cue_switch	color	stay	stim	poldrack-single-stim	s567	0	False
174.609	1.0	176.021	0.9	2.0	True	71.0	Magnitude	n/a	twobytwo	71.0	0.512	blue	8.0	task_switch	magnitude	switch	stim	poldrack-single-stim	s567	0	False
176.714	1.0	177.567	0.1	2.136	True	71.0	Orange-Blue	n/a	twobytwo	71.0	0.753	orange	7.0	task_switch	color	switch	stim	poldrack-single-stim	s567	0	False
179.755	1.0	181.152	0.9	2.0	True	89.0	Magnitude	n/a	twobytwo	89.0	0.497	orange	2.0	task_switch	magnitude	switch	stim	poldrack-single-stim	s567	0	False
182.66	1.0	184.271	0.9	2.136	True	89.0	Color	n/a	twobytwo	89.0	0.711	blue	4.0	task_switch	color	switch	stim	poldrack-single-stim	s567	0	False
184.902	1.0	185.661	0.1	2.408	True	89.0	Color	stay	twobytwo	89.0	0.659	blue	7.0	cue_stay	color	stay	stim	poldrack-single-stim	s567	0	False
188.217	1.0	189.682	0.9	2.136	True	89.0	High-Low	n/a	twobytwo	89.0	0.565	orange	1.0	task_switch	magnitude	switch	stim	poldrack-single-stim	s567	0	False
190.458	1.0	191.41	0.1	2.0	True	89.0	Orange-Blue	n/a	twobytwo	89.0	0.852	blue	7.0	task_switch	color	switch	stim	poldrack-single-stim	s567	0	False
193.365	1.0	194.71	0.9	2.136	True	71.0	Magnitude	n/a	twobytwo	71.0	0.445	blue	6.0	task_switch	magnitude	switch	stim	poldrack-single-stim	s567	0	False
195.605	1.0	196.315	0.1	2.272	True	71.0	Magnitude	stay	twobytwo	71.0	0.61	blue	6.0	cue_stay	magnitude	stay	stim	poldrack-single-stim	s567	0	False
198.781	1.0	200.571	0.9	2.0	True	89.0	Color	n/a	twobytwo	89.0	0.89	blue	9.0	task_switch	color	switch	stim	poldrack-single-stim	s567	0	False
200.885	1.0	201.752	0.1	2.408	True	89.0	Magnitude	n/a	twobytwo	89.0	0.767	orange	3.0	task_switch	magnitude	switch	stim	poldrack-single-stim	s567	0	False
203.4	1.0	204.229	0.1	2.0	True	71.0	High-Low	switch	twobytwo	71.0	0.729	blue	7.0	cue_switch	magnitude	stay	stim	poldrack-single-stim	s567	0	False
205.504	1.0	206.514	0.1	2.136	True	89.0	Orange-Blue	n/a	twobytwo	89.0	0.91	blue	6.0	task_switch	color	switch	stim	poldrack-single-stim	s567	0	False
208.544	1.0	209.879	0.9	2.408	True	71.0	High-Low	n/a	twobytwo	71.0	0.435	orange	9.0	task_switch	magnitude	switch	stim	poldrack-single-stim	s567	0	False
211.857	1.0	213.35	0.9	2.136	True	89.0	Orange-Blue	n/a	twobytwo	89.0	0.593	blue	3.0	task_switch	color	switch	stim	poldrack-single-stim	s567	0	False
214.098	1.0	214.801	0.1	2.408	True	71.0	Magnitude	n/a	twobytwo	71.0	0.603	blue	8.0	task_switch	magnitude	switch	stim	poldrack-single-stim	s567	0	False
217.411	1.0	218.759	0.9	2.136	True	89.0	Orange-Blue	n/a	twobytwo	89.0	0.448	blue	3.0	task_switch	color	switch	stim	poldrack-single-stim	s567	0	False
233.163	1.0	233.891	0.1	2.0	True	71.0	Magnitude	n/a	twobytwo	71.0	0.628	blue	6.0	task_switch	magnitude	switch	stim	poldrack-single-stim	s567	1	False
236.068	1.0	237.371	0.9	2.272	True	89.0	Magnitude	stay	twobytwo	89.0	0.403	orange	3.0	cue_stay	magnitude	stay	stim	poldrack-single-stim	s567	0	False
238.445	1.0	239.202	0.1	2.0	True	71.0	High-Low	switch	twobytwo	71.0	0.657	blue	8.0	cue_switch	magnitude	stay	stim	poldrack-single-stim	s567	0	False
241.351	1.0	242.743	0.9	2.272	True	71.0	Magnitude	switch	twobytwo	71.0	0.492	orange	9.0	cue_switch	magnitude	stay	stim	poldrack-single-stim	s567	0	False
244.527	1.0	245.866	0.9	2.272	True	71.0	High-Low	switch	twobytwo	71.0	0.439	orange	6.0	cue_switch	magnitude	stay	stim	poldrack-single-stim	s567	0	False
246.904	1.0	247.628	0.1	2.952	True	71.0	Color	n/a	twobytwo	71.0	0.624	orange	8.0	task_switch	color	switch	stim	poldrack-single-stim	s567	0	False
250.761	1.0	252.02	0.9	2.68	True	89.0	Color	stay	twobytwo	89.0	0.359	blue	3.0	cue_stay	color	stay	stim	poldrack-single-stim	s567	0	False
254.344	1.0	255.734	0.9	2.136	True	71.0	Magnitude	n/a	twobytwo	71.0	0.49	blue	9.0	task_switch	magnitude	switch	stim	poldrack-single-stim	s567	0	False
256.587	1.0	257.328	0.1	2.272	True	89.0	High-Low	switch	twobytwo	89.0	0.641	orange	2.0	cue_switch	magnitude	stay	stim	poldrack-single-stim	s567	0	False
259.764	1.0	261.043	0.9	2.272	True	71.0	Magnitude	switch	twobytwo	71.0	0.379	orange	6.0	cue_switch	magnitude	stay	stim	poldrack-single-stim	s567	0	False
262.141	1.0	263.165	0.1	2.136	True	89.0	Magnitude	stay	twobytwo	89.0	0.924	orange	4.0	cue_stay	magnitude	stay	stim	poldrack-single-stim	s567	0	False
265.182	1.0	266.658	0.9	2.408	True	89.0	Orange-Blue	n/a	twobytwo	89.0	0.576	blue	8.0	task_switch	color	switch	stim	poldrack-single-stim	s567	0	False
268.494	1.0	269.819	0.9	2.136	True	71.0	Magnitude	n/a	twobytwo	71.0	0.425	blue	8.0	task_switch	magnitude	switch	stim	poldrack-single-stim	s567	0	False
270.735	1.0	271.403	0.1	2.136	True	71.0	High-Low	switch	twobytwo	71.0	0.568	blue	9.0	cue_switch	magnitude	stay	stim	poldrack-single-stim	s567	0	False
273.777	1.0	275.208	0.9	2.0	True	71.0	Orange-Blue	n/a	twobytwo	71.0	0.531	orange	4.0	task_switch	color	switch	stim	poldrack-single-stim	s567	0	False
276.683	1.0	278.071	0.9	2.0	True	71.0	Orange-Blue	stay	twobytwo	71.0	0.488	orange	8.0	cue_stay	color	stay	stim	poldrack-single-stim	s567	0	False
279.587	1.0	280.924	0.9	2.0	True	89.0	High-Low	n/a	twobytwo	89.0	0.437	orange	2.0	task_switch	magnitude	switch	stim	poldrack-single-stim	s567	0	False
281.692	1.0	282.655	0.1	2.0	True	71.0	Color	n/a	twobytwo	71.0	0.863	orange	7.0	task_switch	color	switch	stim	poldrack-single-stim	s567	0	False
283.797	1.0	284.553	0.1	2.0	True	89.0	Magnitude	n/a	twobytwo	89.0	0.656	orange	4.0	task_switch	magnitude	switch	stim	poldrack-single-stim	s567	0	False
286.703	1.0	288.121	0.9	2.272	True	71.0	Color	n/a	twobytwo	71.0	0.518	orange	2.0	task_switch	color	switch	stim	poldrack-single-stim	s567	0	False
289.081	1.0	289.944	0.1	2.408	False	89.0	Color	stay	twobytwo	71.0	0.763	blue	8.0	cue_stay	color	stay	stim	poldrack-single-stim	s567	0	False
291.593	1.0	292.389	0.1	2.0	True	71.0	Color	stay	twobytwo	71.0	0.696	orange	9.0	cue_stay	color	stay	stim	poldrack-single-stim	s567	0	False
294.499	1.0	295.912	0.9	2.136	True	71.0	Magnitude	n/a	twobytwo	71.0	0.513	orange	8.0	task_switch	magnitude	switch	stim	poldrack-single-stim	s567	0	False
297.54	1.0	298.916	0.9	2.0	True	89.0	High-Low	switch	twobytwo	89.0	0.476	blue	1.0	cue_switch	magnitude	stay	stim	poldrack-single-stim	s567	0	False
300.447	1.0	302.041	0.9	2.136	True	89.0	High-Low	stay	twobytwo	89.0	0.694	orange	4.0	cue_stay	magnitude	stay	stim	poldrack-single-stim	s567	0	False
302.687	1.0	303.419	0.1	2.544	True	71.0	High-Low	stay	twobytwo	71.0	0.632	orange	6.0	cue_stay	magnitude	stay	stim	poldrack-single-stim	s567	0	False
305.338	1.0	306.542	0.1	2.68	True	71.0	Orange-Blue	n/a	twobytwo	71.0	1.104	orange	7.0	task_switch	color	switch	stim	poldrack-single-stim	s567	0	False
308.122	1.0	308.979	0.1	3.088	True	89.0	Magnitude	n/a	twobytwo	89.0	0.757	orange	1.0	task_switch	magnitude	switch	stim	poldrack-single-stim	s567	0	False
312.114	1.0	313.413	0.9	2.136	True	71.0	Magnitude	stay	twobytwo	71.0	0.399	orange	7.0	cue_stay	magnitude	stay	stim	poldrack-single-stim	s567	0	False
314.355	1.0	315.036	0.1	2.544	True	89.0	Magnitude	stay	twobytwo	89.0	0.581	orange	2.0	cue_stay	magnitude	stay	stim	poldrack-single-stim	s567	0	False
317.004	1.0	317.928	0.1	2.0	True	89.0	Orange-Blue	n/a	twobytwo	89.0	0.824	blue	2.0	task_switch	color	switch	stim	poldrack-single-stim	s567	0	False
319.909	1.0	321.267	0.9	2.136	True	89.0	Color	switch	twobytwo	89.0	0.458	blue	2.0	cue_switch	color	stay	stim	poldrack-single-stim	s567	0	False
322.149	1.0	322.84	0.1	2.0	True	71.0	Magnitude	n/a	twobytwo	71.0	0.591	orange	8.0	task_switch	magnitude	switch	stim	poldrack-single-stim	s567	0	False
324.253	1.0	325.039	0.1	2.408	True	89.0	Orange-Blue	n/a	twobytwo	89.0	0.686	blue	1.0	task_switch	color	switch	stim	poldrack-single-stim	s567	0	False
327.568	1.0	328.914	0.9	2.0	True	71.0	High-Low	n/a	twobytwo	71.0	0.446	blue	7.0	task_switch	magnitude	switch	stim	poldrack-single-stim	s567	0	False
329.674	1.0	330.58	0.1	2.0	True	71.0	High-Low	stay	twobytwo	71.0	0.806	orange	6.0	cue_stay	magnitude	stay	stim	poldrack-single-stim	s567	0	False
332.579	1.0	334.004	0.9	2.0	True	71.0	Orange-Blue	n/a	twobytwo	71.0	0.525	orange	1.0	task_switch	color	switch	stim	poldrack-single-stim	s567	0	False
334.684	1.0	335.431	0.1	2.68	True	89.0	Orange-Blue	stay	twobytwo	89.0	0.647	blue	9.0	cue_stay	color	stay	stim	poldrack-single-stim	s567	0	False
337.468	1.0	338.322	0.1	2.272	True	71.0	Color	switch	twobytwo	71.0	0.754	orange	3.0	cue_switch	color	stay	stim	poldrack-single-stim	s567	0	False
340.646	1.0	341.98	0.9	2.408	True	71.0	High-Low	n/a	twobytwo	71.0	0.434	orange	6.0	task_switch	magnitude	switch	stim	poldrack-single-stim	s567	0	False
343.159	1.0	344.123	0.1	3.224	True	71.0	Orange-Blue	n/a	twobytwo	71.0	0.864	orange	3.0	task_switch	color	switch	stim	poldrack-single-stim	s567	0	False
346.487	1.0	347.155	0.1	2.408	True	71.0	High-Low	n/a	twobytwo	71.0	0.568	orange	9.0	task_switch	magnitude	switch	stim	poldrack-single-stim	s567	0	False
349.8	1.0	351.315	0.9	2.816	True	71.0	High-Low	stay	twobytwo	71.0	0.615	blue	6.0	cue_stay	magnitude	stay	stim	poldrack-single-stim	s567	0	False
353.522	1.0	354.907	0.9	2.408	True	71.0	Color	n/a	twobytwo	71.0	0.485	orange	4.0	task_switch	color	switch	stim	poldrack-single-stim	s567	0	False
356.034	1.0	356.682	0.1	2.136	False	89.0	Color	stay	twobytwo	71.0	0.548	blue	9.0	cue_stay	color	stay	stim	poldrack-single-stim	s567	0	False
359.074	1.0	360.589	0.9	2.136	True	89.0	High-Low	n/a	twobytwo	89.0	0.615	orange	1.0	task_switch	magnitude	switch	stim	poldrack-single-stim	s567	0	False
362.116	1.0	363.493	0.9	2.0	True	89.0	Color	n/a	twobytwo	89.0	0.477	blue	4.0	task_switch	color	switch	stim	poldrack-single-stim	s567	0	False
364.22	1.0	365.36	0.1	2.0	True	89.0	Magnitude	n/a	twobytwo	89.0	1.04	orange	4.0	task_switch	magnitude	switch	stim	poldrack-single-stim	s567	0	False
366.325	1.0	367.061	0.1	2.272	False	89.0	Color	n/a	twobytwo	71.0	0.636	blue	8.0	task_switch	color	switch	stim	poldrack-single-stim	s567	0	False
369.501	1.0	371.206	0.9	2.408	True	89.0	Color	stay	twobytwo	89.0	0.805	blue	9.0	cue_stay	color	stay	stim	poldrack-single-stim	s567	0	False
372.013	1.0	372.012	0.1	2.0	False	89.0	Orange-Blue	switch	twobytwo	-1.0	n/a	blue	7.0	cue_switch	color	stay	stim	poldrack-single-stim	s567	0	False
374.119	1.0	374.937	0.1	2.136	True	71.0	Magnitude	n/a	twobytwo	71.0	0.718	orange	6.0	task_switch	magnitude	switch	stim	poldrack-single-stim	s567	0	False
376.36	1.0	377.052	0.1	2.0	True	89.0	Magnitude	stay	twobytwo	89.0	0.592	blue	2.0	cue_stay	magnitude	stay	stim	poldrack-single-stim	s567	0	False
378.466	1.0	379.126	0.1	2.408	True	71.0	Magnitude	stay	twobytwo	71.0	0.56	orange	7.0	cue_stay	magnitude	stay	stim	poldrack-single-stim	s567	0	False
381.779	1.0	383.109	0.9	2.272	True	89.0	Orange-Blue	n/a	twobytwo	89.0	0.43	blue	8.0	task_switch	color	switch	stim	poldrack-single-stim	s567	0	False
384.157	1.0	384.876	0.1	2.0	True	89.0	Orange-Blue	stay	twobytwo	89.0	0.619	blue	4.0	cue_stay	color	stay	stim	poldrack-single-stim	s567	0	False
386.262	1.0	387.053	0.1	2.272	True	71.0	Magnitude	n/a	twobytwo	71.0	0.691	blue	7.0	task_switch	magnitude	switch	stim	poldrack-single-stim	s567	0	False
389.439	1.0	390.823	0.9	2.0	True	71.0	Color	n/a	twobytwo	71.0	0.484	orange	7.0	task_switch	color	switch	stim	poldrack-single-stim	s567	0	False
392.345	1.0	393.762	0.9	2.0	True	89.0	High-Low	n/a	twobytwo	89.0	0.517	blue	3.0	task_switch	magnitude	switch	stim	poldrack-single-stim	s567	0	False
395.251	1.0	396.75	0.9	2.272	True	89.0	Color	n/a	twobytwo	89.0	0.599	blue	6.0	task_switch	color	switch	stim	poldrack-single-stim	s567	0	False
398.428	1.0	399.68	0.9	2.136	True	71.0	Color	stay	twobytwo	71.0	0.352	orange	6.0	cue_stay	color	stay	stim	poldrack-single-stim	s567	0	False
401.47	1.0	402.941	0.9	2.0	True	89.0	Magnitude	n/a	twobytwo	89.0	0.571	blue	1.0	task_switch	magnitude	switch	stim	poldrack-single-stim	s567	0	False
403.575	1.0	404.207	0.1	2.0	True	71.0	High-Low	switch	twobytwo	71.0	0.532	orange	7.0	cue_switch	magnitude	stay	stim	poldrack-single-stim	s567	0	False
406.48	1.0	407.787	0.9	2.0	True	89.0	Color	n/a	twobytwo	89.0	0.407	blue	8.0	task_switch	color	switch	stim	poldrack-single-stim	s567	0	False
408.585	1.0	409.31	0.1	2.0	True	71.0	High-Low	n/a	twobytwo	71.0	0.625	orange	7.0	task_switch	magnitude	switch	stim	poldrack-single-stim	s567	0	False
411.49	1.0	412.984	0.9	2.0	True	71.0	Color	n/a	twobytwo	71.0	0.594	orange	2.0	task_switch	color	switch	stim	poldrack-single-stim	s567	0	False
414.394	1.0	415.891	0.9	2.136	True	89.0	High-Low	n/a	twobytwo	89.0	0.597	blue	4.0	task_switch	magnitude	switch	stim	poldrack-single-stim	s567	0	False
416.636	1.0	417.589	0.1	2.0	True	71.0	High-Low	stay	twobytwo	71.0	0.853	blue	7.0	cue_stay	magnitude	stay	stim	poldrack-single-stim	s567	0	False
419.541	1.0	420.913	0.9	2.0	True	71.0	Color	n/a	twobytwo	71.0	0.472	orange	1.0	task_switch	color	switch	stim	poldrack-single-stim	s567	0	False
421.647	1.0	422.471	0.1	2.136	True	71.0	Magnitude	n/a	twobytwo	71.0	0.724	blue	7.0	task_switch	magnitude	switch	stim	poldrack-single-stim	s567	0	False
424.688	1.0	426.217	0.9	2.0	True	89.0	Orange-Blue	n/a	twobytwo	89.0	0.629	blue	6.0	task_switch	color	switch	stim	poldrack-single-stim	s567	0	False
426.794	1.0	427.552	0.1	2.136	True	89.0	Orange-Blue	stay	twobytwo	89.0	0.658	blue	6.0	cue_stay	color	stay	stim	poldrack-single-stim	s567	0	False
429.837	1.0	431.257	0.9	2.68	True	71.0	High-Low	n/a	twobytwo	71.0	0.52	blue	9.0	task_switch	magnitude	switch	stim	poldrack-single-stim	s567	0	False
432.621	1.0	433.668	0.1	2.272	True	71.0	Color	n/a	twobytwo	71.0	0.947	orange	3.0	task_switch	color	switch	stim	poldrack-single-stim	s567	0	False
434.998	1.0	435.835	0.1	2.136	True	89.0	Orange-Blue	switch	twobytwo	89.0	0.737	blue	7.0	cue_switch	color	stay	stim	poldrack-single-stim	s567	0	False
437.239	1.0	438.242	0.1	2.0	True	71.0	Magnitude	n/a	twobytwo	71.0	0.903	blue	6.0	task_switch	magnitude	switch	stim	poldrack-single-stim	s567	0	False
440.144	1.0	441.731	0.9	2.136	True	71.0	Color	n/a	twobytwo	71.0	0.687	orange	9.0	task_switch	color	switch	stim	poldrack-single-stim	s567	0	False
443.184	1.0	444.547	0.9	2.68	True	89.0	Magnitude	n/a	twobytwo	89.0	0.463	blue	3.0	task_switch	magnitude	switch	stim	poldrack-single-stim	s567	0	False
445.97	1.0	446.87	0.1	2.272	True	89.0	Orange-Blue	n/a	twobytwo	89.0	0.8	blue	8.0	task_switch	color	switch	stim	poldrack-single-stim	s567	0	False
449.147	1.0	450.551	0.9	2.0	True	89.0	High-Low	n/a	twobytwo	89.0	0.504	blue	3.0	task_switch	magnitude	switch	stim	poldrack-single-stim	s567	0	False
464.758	1.0	465.741	0.1	2.0	True	89.0	Color	n/a	twobytwo	89.0	0.883	blue	6.0	task_switch	color	switch	stim	poldrack-single-stim	s567	1	False
467.663	1.0	468.917	0.9	2.136	True	71.0	Color	stay	twobytwo	71.0	0.354	orange	3.0	cue_stay	color	stay	stim	poldrack-single-stim	s567	0	False
469.905	1.0	470.764	0.1	2.0	True	89.0	Orange-Blue	switch	twobytwo	89.0	0.759	blue	8.0	cue_switch	color	stay	stim	poldrack-single-stim	s567	0	False
472.81	1.0	474.114	0.9	2.0	True	71.0	Color	switch	twobytwo	71.0	0.404	orange	9.0	cue_switch	color	stay	stim	poldrack-single-stim	s567	0	False
475.715	1.0	477.106	0.9	2.0	True	71.0	Orange-Blue	switch	twobytwo	71.0	0.491	orange	6.0	cue_switch	color	stay	stim	poldrack-single-stim	s567	0	False
477.82	1.0	478.623	0.1	2.272	True	71.0	Magnitude	n/a	twobytwo	71.0	0.703	orange	8.0	task_switch	magnitude	switch	stim	poldrack-single-stim	s567	0	False
480.997	1.0	482.368	0.9	2.408	True	89.0	Magnitude	stay	twobytwo	89.0	0.471	blue	3.0	cue_stay	magnitude	stay	stim	poldrack-single-stim	s567	0	False
484.311	1.0	485.654	0.9	2.0	True	89.0	Color	n/a	twobytwo	89.0	0.443	blue	9.0	task_switch	color	switch	stim	poldrack-single-stim	s567	0	False
486.416	1.0	487.14	0.1	2.0	True	71.0	Orange-Blue	switch	twobytwo	71.0	0.624	orange	2.0	cue_switch	color	stay	stim	poldrack-single-stim	s567	0	False
489.321	1.0	490.714	0.9	2.0	True	71.0	Color	switch	twobytwo	71.0	0.493	orange	6.0	cue_switch	color	stay	stim	poldrack-single-stim	s567	0	False
491.426	1.0	492.308	0.1	2.272	True	71.0	Color	stay	twobytwo	71.0	0.782	orange	4.0	cue_stay	color	stay	stim	poldrack-single-stim	s567	0	False
494.603	1.0	496.278	0.9	2.136	False	71.0	Magnitude	n/a	twobytwo	89.0	0.775	blue	8.0	task_switch	magnitude	switch	stim	poldrack-single-stim	s567	0	False
497.645	1.0	499.365	0.9	2.0	True	89.0	Orange-Blue	n/a	twobytwo	89.0	0.82	blue	8.0	task_switch	color	switch	stim	poldrack-single-stim	s567	0	False
499.75	1.0	500.808	0.1	2.544	True	89.0	Color	switch	twobytwo	89.0	0.958	blue	9.0	cue_switch	color	stay	stim	poldrack-single-stim	s567	0	False
503.199	1.0	505.388	0.9	2.272	True	89.0	Magnitude	n/a	twobytwo	89.0	1.289	orange	4.0	task_switch	magnitude	switch	stim	poldrack-single-stim	s567	0	False
506.375	1.0	507.641	0.9	2.272	True	71.0	Magnitude	stay	twobytwo	71.0	0.366	orange	8.0	cue_stay	magnitude	stay	stim	poldrack-single-stim	s567	0	False
509.553	1.0	511.165	0.9	2.0	True	71.0	Color	n/a	twobytwo	71.0	0.712	orange	2.0	task_switch	color	switch	stim	poldrack-single-stim	s567	0	False
511.657	1.0	512.568	0.1	2.0	True	71.0	Magnitude	n/a	twobytwo	71.0	0.811	orange	7.0	task_switch	magnitude	switch	stim	poldrack-single-stim	s567	0	False
513.763	1.0	514.857	0.1	2.136	True	71.0	Color	n/a	twobytwo	71.0	0.994	orange	4.0	task_switch	color	switch	stim	poldrack-single-stim	s567	0	False
516.804	1.0	518.149	0.9	2.0	True	89.0	High-Low	n/a	twobytwo	89.0	0.445	orange	2.0	task_switch	magnitude	switch	stim	poldrack-single-stim	s567	0	False
518.908	1.0	519.82	0.1	2.136	True	71.0	High-Low	stay	twobytwo	71.0	0.812	blue	8.0	cue_stay	magnitude	stay	stim	poldrack-single-stim	s567	0	False
521.15	1.0	521.959	0.1	2.272	True	71.0	High-Low	stay	twobytwo	71.0	0.709	orange	9.0	cue_stay	magnitude	stay	stim	poldrack-single-stim	s567	0	False
524.327	1.0	525.826	0.9	2.136	True	71.0	Color	n/a	twobytwo	71.0	0.599	orange	8.0	task_switch	color	switch	stim	poldrack-single-stim	s567	0	False
527.369	1.0	528.684	0.9	2.272	True	89.0	Orange-Blue	switch	twobytwo	89.0	0.415	blue	1.0	cue_switch	color	stay	stim	poldrack-single-stim	s567	0	False
530.546	1.0	531.998	0.9	2.0	True	71.0	Orange-Blue	stay	twobytwo	71.0	0.552	orange	4.0	cue_stay	color	stay	stim	poldrack-single-stim	s567	0	False
532.651	1.0	533.289	0.1	2.816	True	71.0	Orange-Blue	stay	twobytwo	71.0	0.538	orange	6.0	cue_stay	color	stay	stim	poldrack-single-stim	s567	0	False
535.573	1.0	536.376	0.1	2.408	True	71.0	High-Low	n/a	twobytwo	71.0	0.703	orange	7.0	task_switch	magnitude	switch	stim	poldrack-single-stim	s567	0	False
538.085	1.0	538.928	0.1	2.0	False	71.0	Color	n/a	twobytwo	89.0	0.743	orange	1.0	task_switch	color	switch	stim	poldrack-single-stim	s567	0	False
540.991	1.0	542.385	0.9	2.544	True	71.0	Color	stay	twobytwo	71.0	0.494	orange	7.0	cue_stay	color	stay	stim	poldrack-single-stim	s567	0	False
543.64	1.0	544.525	0.1	2.136	True	71.0	Color	stay	twobytwo	71.0	0.785	orange	2.0	cue_stay	color	stay	stim	poldrack-single-stim	s567	0	False
545.882	1.0	546.974	0.1	2.0	True	89.0	Magnitude	n/a	twobytwo	89.0	0.992	blue	2.0	task_switch	magnitude	switch	stim	poldrack-single-stim	s567	0	False
548.787	1.0	550.175	0.9	2.0	True	89.0	High-Low	switch	twobytwo	89.0	0.488	blue	2.0	cue_switch	magnitude	stay	stim	poldrack-single-stim	s567	0	False
550.891	1.0	551.814	0.1	2.136	True	71.0	Orange-Blue	n/a	twobytwo	71.0	0.823	orange	8.0	task_switch	color	switch	stim	poldrack-single-stim	s567	0	False
553.131	1.0	553.892	0.1	2.136	True	89.0	Magnitude	n/a	twobytwo	89.0	0.661	blue	1.0	task_switch	magnitude	switch	stim	poldrack-single-stim	s567	0	False
556.173	1.0	557.563	0.9	2.272	True	89.0	Orange-Blue	n/a	twobytwo	89.0	0.49	blue	7.0	task_switch	color	switch	stim	poldrack-single-stim	s567	0	False
558.55	1.0	559.446	0.1	3.224	True	71.0	Orange-Blue	stay	twobytwo	71.0	0.796	orange	6.0	cue_stay	color	stay	stim	poldrack-single-stim	s567	0	False
562.678	1.0	564.27	0.9	2.0	True	89.0	High-Low	n/a	twobytwo	89.0	0.692	orange	1.0	task_switch	magnitude	switch	stim	poldrack-single-stim	s567	0	False
564.783	1.0	565.572	0.1	2.0	True	71.0	High-Low	stay	twobytwo	71.0	0.689	blue	9.0	cue_stay	magnitude	stay	stim	poldrack-single-stim	s567	0	False
566.889	1.0	567.774	0.1	2.272	True	89.0	Magnitude	switch	twobytwo	89.0	0.785	orange	3.0	cue_switch	magnitude	stay	stim	poldrack-single-stim	s567	0	False
570.065	1.0	571.397	0.9	2.136	True	71.0	Orange-Blue	n/a	twobytwo	71.0	0.432	orange	6.0	task_switch	color	switch	stim	poldrack-single-stim	s567	0	False
572.306	1.0	573.526	0.1	2.0	True	89.0	High-Low	n/a	twobytwo	89.0	1.12	orange	3.0	task_switch	magnitude	switch	stim	poldrack-single-stim	s567	0	False
574.411	1.0	575.222	0.1	2.0	True	71.0	Orange-Blue	n/a	twobytwo	71.0	0.711	orange	9.0	task_switch	color	switch	stim	poldrack-single-stim	s567	0	False
577.316	1.0	578.642	0.9	2.0	True	89.0	Orange-Blue	stay	twobytwo	89.0	0.426	blue	6.0	cue_stay	color	stay	stim	poldrack-single-stim	s567	0	False
580.22	1.0	581.654	0.9	2.68	True	89.0	High-Low	n/a	twobytwo	89.0	0.534	orange	4.0	task_switch	magnitude	switch	stim	poldrack-single-stim	s567	0	False
583.005	1.0	583.86	0.1	2.0	True	71.0	High-Low	stay	twobytwo	71.0	0.755	blue	9.0	cue_stay	magnitude	stay	stim	poldrack-single-stim	s567	0	False
585.911	1.0	587.695	0.9	2.272	True	71.0	Color	n/a	twobytwo	71.0	0.884	orange	1.0	task_switch	color	switch	stim	poldrack-single-stim	s567	0	False
589.087	1.0	590.574	0.9	2.0	True	89.0	High-Low	n/a	twobytwo	89.0	0.587	blue	4.0	task_switch	magnitude	switch	stim	poldrack-single-stim	s567	0	False
591.192	1.0	592.173	0.1	2.272	True	71.0	Orange-Blue	n/a	twobytwo	71.0	0.881	orange	4.0	task_switch	color	switch	stim	poldrack-single-stim	s567	0	False
593.57	1.0	594.439	0.1	2.952	True	71.0	Magnitude	n/a	twobytwo	71.0	0.769	blue	8.0	task_switch	magnitude	switch	stim	poldrack-single-stim	s567	0	False
597.427	1.0	599.016	0.9	2.0	True	71.0	Magnitude	stay	twobytwo	71.0	0.689	blue	9.0	cue_stay	magnitude	stay	stim	poldrack-single-stim	s567	0	False
599.532	1.0	600.325	0.1	2.0	True	71.0	High-Low	switch	twobytwo	71.0	0.693	blue	7.0	cue_switch	magnitude	stay	stim	poldrack-single-stim	s567	0	False
601.637	1.0	602.649	0.1	2.0	True	71.0	Orange-Blue	n/a	twobytwo	71.0	0.912	orange	6.0	task_switch	color	switch	stim	poldrack-single-stim	s567	0	False
603.742	1.0	604.454	0.1	2.0	True	89.0	Orange-Blue	stay	twobytwo	89.0	0.612	blue	2.0	cue_stay	color	stay	stim	poldrack-single-stim	s567	0	False
605.848	1.0	606.625	0.1	2.136	True	71.0	Orange-Blue	stay	twobytwo	71.0	0.677	orange	7.0	cue_stay	color	stay	stim	poldrack-single-stim	s567	0	False
608.89	1.0	610.286	0.9	2.0	True	71.0	Magnitude	n/a	twobytwo	71.0	0.496	blue	8.0	task_switch	magnitude	switch	stim	poldrack-single-stim	s567	0	False
610.995	1.0	611.884	0.1	2.0	True	89.0	Magnitude	stay	twobytwo	89.0	0.789	blue	4.0	cue_stay	magnitude	stay	stim	poldrack-single-stim	s567	0	False
613.099	1.0	613.988	0.1	2.0	False	89.0	Orange-Blue	n/a	twobytwo	71.0	0.789	blue	7.0	task_switch	color	switch	stim	poldrack-single-stim	s567	0	False
616.004	1.0	617.357	0.9	2.272	True	71.0	High-Low	n/a	twobytwo	71.0	0.453	orange	7.0	task_switch	magnitude	switch	stim	poldrack-single-stim	s567	0	False
619.182	1.0	620.557	0.9	2.136	True	89.0	Orange-Blue	n/a	twobytwo	89.0	0.475	blue	3.0	task_switch	color	switch	stim	poldrack-single-stim	s567	0	False
622.223	1.0	623.677	0.9	2.0	True	71.0	High-Low	n/a	twobytwo	71.0	0.554	blue	6.0	task_switch	magnitude	switch	stim	poldrack-single-stim	s567	0	False
625.128	1.0	626.673	0.9	2.136	True	71.0	High-Low	stay	twobytwo	71.0	0.645	orange	6.0	cue_stay	magnitude	stay	stim	poldrack-single-stim	s567	0	False
628.169	1.0	629.527	0.9	2.816	True	89.0	Color	n/a	twobytwo	89.0	0.458	blue	1.0	task_switch	color	switch	stim	poldrack-single-stim	s567	0	False
631.089	1.0	631.995	0.1	2.408	True	71.0	Orange-Blue	switch	twobytwo	71.0	0.806	orange	7.0	cue_switch	color	stay	stim	poldrack-single-stim	s567	0	False
634.403	1.0	635.856	0.9	2.0	True	71.0	High-Low	n/a	twobytwo	71.0	0.553	blue	8.0	task_switch	magnitude	switch	stim	poldrack-single-stim	s567	0	False
636.508	1.0	637.819	0.1	2.136	True	71.0	Orange-Blue	n/a	twobytwo	71.0	1.211	orange	7.0	task_switch	color	switch	stim	poldrack-single-stim	s567	0	False
639.55	1.0	641.004	0.9	2.136	True	89.0	Magnitude	n/a	twobytwo	89.0	0.554	orange	2.0	task_switch	magnitude	switch	stim	poldrack-single-stim	s567	0	False
642.591	1.0	643.919	0.9	2.136	True	89.0	Orange-Blue	n/a	twobytwo	89.0	0.428	blue	4.0	task_switch	color	switch	stim	poldrack-single-stim	s567	0	False
644.831	1.0	646.1	0.1	2.544	True	89.0	Orange-Blue	stay	twobytwo	89.0	1.169	blue	7.0	cue_stay	color	stay	stim	poldrack-single-stim	s567	0	False
648.28	1.0	649.691	0.9	2.136	True	89.0	High-Low	n/a	twobytwo	89.0	0.511	orange	1.0	task_switch	magnitude	switch	stim	poldrack-single-stim	s567	0	False
650.522	1.0	651.481	0.1	2.0	True	89.0	Color	n/a	twobytwo	89.0	0.859	blue	7.0	task_switch	color	switch	stim	poldrack-single-stim	s567	0	False
653.428	1.0	654.811	0.9	2.0	True	71.0	Magnitude	n/a	twobytwo	71.0	0.483	blue	6.0	task_switch	magnitude	switch	stim	poldrack-single-stim	s567	0	False
655.532	1.0	656.274	0.1	2.0	True	71.0	Magnitude	stay	twobytwo	71.0	0.642	blue	6.0	cue_stay	magnitude	stay	stim	poldrack-single-stim	s567	0	False
658.436	1.0	659.905	0.9	2.0	True	89.0	Color	n/a	twobytwo	89.0	0.569	blue	9.0	task_switch	color	switch	stim	poldrack-single-stim	s567	0	False
660.541	1.0	661.902	0.1	2.136	True	89.0	Magnitude	n/a	twobytwo	89.0	1.261	orange	3.0	task_switch	magnitude	switch	stim	poldrack-single-stim	s567	0	False
662.781	1.0	663.482	0.1	2.0	True	71.0	High-Low	switch	twobytwo	71.0	0.601	blue	7.0	cue_switch	magnitude	stay	stim	poldrack-single-stim	s567	0	False
664.886	1.0	665.862	0.1	2.0	True	89.0	Orange-Blue	n/a	twobytwo	89.0	0.876	blue	6.0	task_switch	color	switch	stim	poldrack-single-stim	s567	0	False
667.791	1.0	669.178	0.9	2.0	True	71.0	Magnitude	n/a	twobytwo	71.0	0.487	orange	9.0	task_switch	magnitude	switch	stim	poldrack-single-stim	s567	0	False
670.695	1.0	672.353	0.9	2.136	True	89.0	Orange-Blue	n/a	twobytwo	89.0	0.758	blue	3.0	task_switch	color	switch	stim	poldrack-single-stim	s567	0	False
672.937	1.0	673.713	0.1	2.136	True	71.0	Magnitude	n/a	twobytwo	71.0	0.676	blue	8.0	task_switch	magnitude	switch	stim	poldrack-single-stim	s567	0	False
675.979	1.0	677.302	0.9	2.136	True	89.0	Color	n/a	twobytwo	89.0	0.423	blue	3.0	task_switch	color	switch	stim	poldrack-single-stim	s567	0	False
