onset	duration	SS_delay	block_duration	correct	correct_response	experiment_exp_id	key_press	passed_check	response_time	stop_response	stopped	trial_id	trial_type	worker_id	junk
3.013	0.85	0.4	2.35	1.0	89.0	motor_selective_stop_signal	89.0	True	0.618	71.0	False	stim	noncrit_nosignal	s567	False
5.369	0.85	0.4	2.25	1.0	71.0	motor_selective_stop_signal	71.0	True	0.6	71.0	False	stim	crit_go	s567	False
7.622	0.85	0.4	2.45	1.0	89.0	motor_selective_stop_signal	89.0	True	0.626	71.0	False	stim	noncrit_signal	s567	False
10.078	0.85	0.4	2.35	1.0	89.0	motor_selective_stop_signal	89.0	True	0.691	71.0	False	stim	noncrit_nosignal	s567	False
12.433	0.85	0.4	2.65	1.0	89.0	motor_selective_stop_signal	89.0	True	0.582	71.0	False	stim	noncrit_signal	s567	False
15.087	0.85	0.4	2.25	1.0	89.0	motor_selective_stop_signal	89.0	True	0.582	71.0	False	stim	noncrit_nosignal	s567	False
17.344	0.85	0.4	2.25	1.0	71.0	motor_selective_stop_signal	71.0	True	0.565	71.0	False	stim	crit_stop_failure	s567	False
19.598	0.85	0.35	2.45	1.0	71.0	motor_selective_stop_signal	71.0	True	0.87	71.0	False	stim	crit_go	s567	False
22.054	0.85	0.35	2.25	1.0	89.0	motor_selective_stop_signal	89.0	True	0.52	71.0	False	stim	noncrit_nosignal	s567	False
24.311	0.85	0.35	2.55	1.0	71.0	motor_selective_stop_signal	71.0	True	0.576	71.0	False	stim	crit_stop_failure	s567	False
26.865	0.85	0.3	2.25	1.0	89.0	motor_selective_stop_signal	89.0	True	0.51	71.0	False	stim	noncrit_nosignal	s567	False
29.119	0.85	0.3	2.35	1.0	89.0	motor_selective_stop_signal	89.0	True	0.542	71.0	False	stim	noncrit_signal	s567	False
31.473	0.85	0.3	2.25	1.0	71.0	motor_selective_stop_signal	-1.0	True	n/a	71.0	True	stim	crit_stop_success	s567	False
33.728	0.85	0.35	2.55	1.0	71.0	motor_selective_stop_signal	-1.0	True	n/a	71.0	True	stim	crit_stop_success	s567	False
36.283	0.85	0.4	2.55	1.0	71.0	motor_selective_stop_signal	71.0	True	0.676	71.0	False	stim	crit_go	s567	False
38.835	0.85	0.4	2.35	1.0	71.0	motor_selective_stop_signal	71.0	True	0.731	71.0	False	stim	crit_go	s567	False
41.187	0.85	0.4	2.35	1.0	71.0	motor_selective_stop_signal	71.0	True	0.723	71.0	False	stim	crit_go	s567	False
43.543	0.85	0.4	2.25	1.0	89.0	motor_selective_stop_signal	89.0	True	0.558	71.0	False	stim	noncrit_nosignal	s567	False
45.796	0.85	0.4	2.45	1.0	89.0	motor_selective_stop_signal	89.0	True	0.521	71.0	False	stim	noncrit_signal	s567	False
48.253	0.85	0.4	2.25	1.0	71.0	motor_selective_stop_signal	71.0	True	0.757	71.0	False	stim	crit_go	s567	False
50.508	0.85	0.4	2.45	1.0	89.0	motor_selective_stop_signal	89.0	True	0.576	71.0	False	stim	noncrit_signal	s567	False
52.962	0.85	0.4	2.65	1.0	71.0	motor_selective_stop_signal	71.0	True	0.556	71.0	False	stim	crit_stop_failure	s567	False
55.616	0.85	0.35	2.45	1.0	71.0	motor_selective_stop_signal	71.0	True	0.745	71.0	False	stim	crit_go	s567	False
58.071	0.85	0.35	2.35	1.0	71.0	motor_selective_stop_signal	71.0	True	0.883	71.0	False	stim	crit_go	s567	False
60.423	0.85	0.35	2.25	1.0	89.0	motor_selective_stop_signal	89.0	True	0.647	71.0	False	stim	noncrit_signal	s567	False
62.681	0.85	0.35	2.55	1.0	89.0	motor_selective_stop_signal	89.0	True	0.657	71.0	False	stim	noncrit_nosignal	s567	False
65.234	0.85	0.35	2.25	1.0	89.0	motor_selective_stop_signal	89.0	True	0.509	71.0	False	stim	noncrit_nosignal	s567	False
67.489	0.85	0.35	2.25	1.0	71.0	motor_selective_stop_signal	71.0	True	0.643	71.0	False	stim	crit_go	s567	False
69.743	0.85	0.35	2.35	1.0	89.0	motor_selective_stop_signal	89.0	True	0.593	71.0	False	stim	noncrit_nosignal	s567	False
72.099	0.85	0.35	2.25	1.0	71.0	motor_selective_stop_signal	71.0	True	0.723	71.0	False	stim	crit_go	s567	False
74.355	0.85	0.35	2.65	1.0	89.0	motor_selective_stop_signal	89.0	True	0.671	71.0	False	stim	noncrit_signal	s567	False
77.007	0.85	0.35	2.35	1.0	89.0	motor_selective_stop_signal	89.0	True	0.622	71.0	False	stim	noncrit_signal	s567	False
79.36	0.85	0.35	2.45	1.0	89.0	motor_selective_stop_signal	89.0	True	0.738	71.0	False	stim	noncrit_nosignal	s567	False
81.812	0.85	0.35	2.35	1.0	89.0	motor_selective_stop_signal	89.0	True	1.005	71.0	False	stim	noncrit_signal	s567	False
84.168	0.85	0.35	2.25	1.0	71.0	motor_selective_stop_signal	71.0	True	0.569	71.0	False	stim	crit_stop_failure	s567	False
86.425	0.85	0.3	2.25	1.0	89.0	motor_selective_stop_signal	89.0	True	0.65	71.0	False	stim	noncrit_nosignal	s567	False
88.68	0.85	0.3	2.25	1.0	71.0	motor_selective_stop_signal	-1.0	True	n/a	71.0	True	stim	crit_stop_success	s567	False
90.933	0.85	0.35	2.25	1.0	89.0	motor_selective_stop_signal	89.0	True	0.562	71.0	False	stim	noncrit_nosignal	s567	False
93.189	0.85	0.35	2.35	1.0	71.0	motor_selective_stop_signal	-1.0	True	n/a	71.0	True	stim	crit_stop_success	s567	False
95.542	0.85	0.4	3.35	1.0	89.0	motor_selective_stop_signal	89.0	True	0.628	71.0	False	stim	noncrit_nosignal	s567	False
98.894	0.85	0.4	2.55	1.0	71.0	motor_selective_stop_signal	71.0	True	0.866	71.0	False	stim	crit_go	s567	False
101.448	0.85	0.4	2.75	1.0	71.0	motor_selective_stop_signal	71.0	True	0.609	71.0	False	stim	crit_stop_failure	s567	False
104.202	0.85	0.35	2.75	1.0	89.0	motor_selective_stop_signal	89.0	True	0.409	71.0	False	stim	noncrit_nosignal	s567	False
106.956	0.85	0.35	2.65	1.0	71.0	motor_selective_stop_signal	71.0	True	0.647	71.0	False	stim	crit_go	s567	False
109.612	0.85	0.35	2.45	1.0	71.0	motor_selective_stop_signal	-1.0	True	n/a	71.0	True	stim	crit_stop_success	s567	False
112.068	0.85	0.4	2.25	1.0	89.0	motor_selective_stop_signal	89.0	True	0.479	71.0	False	stim	noncrit_nosignal	s567	False
114.322	0.85	0.4	2.35	1.0	89.0	motor_selective_stop_signal	89.0	True	0.685	71.0	False	stim	noncrit_nosignal	s567	False
116.674	0.85	0.4	2.45	1.0	71.0	motor_selective_stop_signal	71.0	True	0.948	71.0	False	stim	crit_go	s567	False
119.13	0.85	0.4	3.05	1.0	71.0	motor_selective_stop_signal	71.0	True	0.595	71.0	False	stim	crit_go	s567	False
122.182	0.85	0.4	2.35	1.0	71.0	motor_selective_stop_signal	71.0	True	0.708	71.0	False	stim	crit_go	s567	False
135.045	0.85	0.4	2.25	1.0	89.0	motor_selective_stop_signal	89.0	True	0.582	71.0	False	stim	noncrit_signal	s567	False
137.298	0.85	0.4	2.35	1.0	71.0	motor_selective_stop_signal	71.0	True	0.55	71.0	False	stim	crit_go	s567	False
139.649	0.85	0.4	2.35	1.0	89.0	motor_selective_stop_signal	89.0	True	0.491	71.0	False	stim	noncrit_nosignal	s567	False
142.002	0.85	0.4	2.35	1.0	89.0	motor_selective_stop_signal	89.0	True	0.533	71.0	False	stim	noncrit_nosignal	s567	False
144.354	0.85	0.4	2.35	1.0	89.0	motor_selective_stop_signal	89.0	True	0.574	71.0	False	stim	noncrit_signal	s567	False
146.706	0.85	0.4	2.35	1.0	89.0	motor_selective_stop_signal	89.0	True	0.536	71.0	False	stim	noncrit_nosignal	s567	False
149.062	0.85	0.4	2.25	1.0	89.0	motor_selective_stop_signal	89.0	True	0.564	71.0	False	stim	noncrit_nosignal	s567	False
151.314	0.85	0.4	2.35	1.0	71.0	motor_selective_stop_signal	71.0	True	0.642	71.0	False	stim	crit_stop_failure	s567	False
153.667	0.85	0.35	2.45	1.0	89.0	motor_selective_stop_signal	89.0	True	0.522	71.0	False	stim	noncrit_nosignal	s567	False
156.119	0.85	0.35	2.35	1.0	71.0	motor_selective_stop_signal	71.0	True	0.756	71.0	False	stim	crit_go	s567	False
158.478	0.85	0.35	2.85	1.0	71.0	motor_selective_stop_signal	71.0	True	0.649	71.0	False	stim	crit_go	s567	False
161.333	0.85	0.35	2.55	1.0	71.0	motor_selective_stop_signal	71.0	True	0.669	71.0	False	stim	crit_go	s567	False
163.885	0.85	0.35	2.75	1.0	89.0	motor_selective_stop_signal	89.0	True	0.688	71.0	False	stim	noncrit_nosignal	s567	False
166.641	0.85	0.35	2.25	1.0	89.0	motor_selective_stop_signal	89.0	True	0.646	71.0	False	stim	noncrit_signal	s567	False
168.894	0.85	0.35	2.25	1.0	89.0	motor_selective_stop_signal	89.0	True	0.552	71.0	False	stim	noncrit_nosignal	s567	False
171.151	0.85	0.35	2.85	1.0	71.0	motor_selective_stop_signal	-1.0	True	n/a	71.0	True	stim	crit_stop_success	s567	False
174.003	0.85	0.4	2.35	1.0	71.0	motor_selective_stop_signal	71.0	True	0.726	71.0	False	stim	crit_go	s567	False
176.359	0.85	0.4	2.25	1.0	71.0	motor_selective_stop_signal	71.0	True	0.471	71.0	False	stim	crit_go	s567	False
178.615	0.85	0.4	2.25	1.0	71.0	motor_selective_stop_signal	-1.0	True	n/a	71.0	True	stim	crit_stop_success	s567	False
180.871	0.85	0.45	2.25	1.0	71.0	motor_selective_stop_signal	71.0	True	0.653	71.0	False	stim	crit_go	s567	False
183.123	0.85	0.45	2.35	1.0	71.0	motor_selective_stop_signal	71.0	True	0.84	71.0	False	stim	crit_go	s567	False
185.479	0.85	0.45	2.65	1.0	71.0	motor_selective_stop_signal	71.0	True	0.638	71.0	False	stim	crit_go	s567	False
188.131	0.85	0.45	2.75	1.0	71.0	motor_selective_stop_signal	-1.0	True	n/a	71.0	True	stim	crit_stop_success	s567	False
190.887	0.85	0.5	2.25	1.0	89.0	motor_selective_stop_signal	89.0	True	0.65	71.0	False	stim	noncrit_nosignal	s567	False
193.14	0.85	0.5	2.75	1.0	71.0	motor_selective_stop_signal	71.0	True	0.79	71.0	False	stim	crit_stop_failure	s567	False
195.896	0.85	0.45	2.25	1.0	89.0	motor_selective_stop_signal	89.0	True	0.651	71.0	False	stim	noncrit_signal	s567	False
198.148	0.85	0.45	2.35	1.0	71.0	motor_selective_stop_signal	71.0	True	0.971	71.0	False	stim	crit_go	s567	False
200.502	0.85	0.45	2.35	1.0	71.0	motor_selective_stop_signal	71.0	True	0.873	71.0	False	stim	crit_go	s567	False
202.854	0.85	0.45	2.55	1.0	89.0	motor_selective_stop_signal	89.0	True	0.661	71.0	False	stim	noncrit_nosignal	s567	False
205.409	0.85	0.45	2.25	1.0	71.0	motor_selective_stop_signal	71.0	True	0.852	71.0	False	stim	crit_go	s567	False
207.661	0.85	0.45	2.25	1.0	89.0	motor_selective_stop_signal	89.0	True	0.62	71.0	False	stim	noncrit_signal	s567	False
209.914	0.85	0.45	2.25	0.0	89.0	motor_selective_stop_signal	-1.0	True	n/a	71.0	True	stim	noncrit_nosignal	s567	False
212.17	0.85	0.45	2.35	1.0	89.0	motor_selective_stop_signal	89.0	True	0.669	71.0	False	stim	noncrit_nosignal	s567	False
214.526	0.85	0.45	2.65	1.0	71.0	motor_selective_stop_signal	-1.0	True	n/a	71.0	True	stim	crit_stop_success	s567	False
217.178	0.85	0.5	2.35	1.0	89.0	motor_selective_stop_signal	89.0	True	0.54	71.0	False	stim	noncrit_nosignal	s567	False
219.534	0.85	0.5	2.25	1.0	89.0	motor_selective_stop_signal	89.0	True	0.63	71.0	False	stim	noncrit_signal	s567	False
221.786	0.85	0.5	2.35	1.0	71.0	motor_selective_stop_signal	71.0	True	0.83	71.0	False	stim	crit_go	s567	False
224.138	0.85	0.5	2.35	1.0	71.0	motor_selective_stop_signal	-1.0	True	n/a	71.0	True	stim	crit_stop_success	s567	False
226.491	0.85	0.55	2.85	1.0	71.0	motor_selective_stop_signal	71.0	True	0.759	71.0	False	stim	crit_go	s567	False
229.345	0.85	0.55	2.45	1.0	71.0	motor_selective_stop_signal	71.0	True	0.671	71.0	False	stim	crit_go	s567	False
231.797	0.85	0.55	2.35	1.0	89.0	motor_selective_stop_signal	89.0	True	0.644	71.0	False	stim	noncrit_nosignal	s567	False
234.153	0.85	0.55	2.65	1.0	89.0	motor_selective_stop_signal	89.0	True	0.608	71.0	False	stim	noncrit_nosignal	s567	False
236.809	0.85	0.55	2.25	1.0	71.0	motor_selective_stop_signal	71.0	True	0.678	71.0	False	stim	crit_go	s567	False
239.065	0.85	0.55	2.25	1.0	89.0	motor_selective_stop_signal	89.0	True	0.703	71.0	False	stim	noncrit_signal	s567	False
241.321	0.85	0.55	2.25	1.0	71.0	motor_selective_stop_signal	71.0	True	0.768	71.0	False	stim	crit_go	s567	False
243.575	0.85	0.55	2.45	1.0	71.0	motor_selective_stop_signal	71.0	True	0.947	71.0	False	stim	crit_go	s567	False
246.027	0.85	0.55	2.35	0.0	71.0	motor_selective_stop_signal	89.0	True	0.639	71.0	False	stim	crit_go	s567	False
248.383	0.85	0.55	2.25	1.0	71.0	motor_selective_stop_signal	71.0	True	0.704	71.0	False	stim	crit_stop_failure	s567	False
250.638	0.85	0.5	2.35	1.0	71.0	motor_selective_stop_signal	-1.0	True	n/a	71.0	True	stim	crit_stop_success	s567	False
252.994	0.85	0.55	2.45	1.0	89.0	motor_selective_stop_signal	89.0	True	0.619	71.0	False	stim	noncrit_signal	s567	False
265.958	0.85	0.55	2.35	1.0	89.0	motor_selective_stop_signal	89.0	True	0.54	71.0	False	stim	noncrit_nosignal	s567	False
268.315	0.85	0.55	2.25	1.0	89.0	motor_selective_stop_signal	89.0	True	0.613	71.0	False	stim	noncrit_nosignal	s567	False
270.571	0.85	0.55	2.25	1.0	89.0	motor_selective_stop_signal	89.0	True	0.999	71.0	False	stim	noncrit_nosignal	s567	False
272.823	0.85	0.55	2.35	1.0	89.0	motor_selective_stop_signal	89.0	True	0.599	71.0	False	stim	noncrit_signal	s567	False
275.175	0.85	0.55	2.35	1.0	71.0	motor_selective_stop_signal	71.0	True	0.817	71.0	False	stim	crit_stop_failure	s567	False
277.527	0.85	0.5	2.35	1.0	71.0	motor_selective_stop_signal	71.0	True	0.587	71.0	False	stim	crit_go	s567	False
279.882	0.85	0.5	2.95	1.0	71.0	motor_selective_stop_signal	71.0	True	0.762	71.0	False	stim	crit_go	s567	False
282.838	0.85	0.5	2.25	1.0	71.0	motor_selective_stop_signal	71.0	True	0.645	71.0	False	stim	crit_go	s567	False
285.09	0.85	0.5	2.35	1.0	71.0	motor_selective_stop_signal	71.0	True	0.881	71.0	False	stim	crit_go	s567	False
287.444	0.85	0.5	2.25	1.0	89.0	motor_selective_stop_signal	89.0	True	0.602	71.0	False	stim	noncrit_nosignal	s567	False
289.7	0.85	0.5	2.45	1.0	89.0	motor_selective_stop_signal	89.0	True	0.609	71.0	False	stim	noncrit_signal	s567	False
292.151	0.85	0.5	2.35	1.0	89.0	motor_selective_stop_signal	89.0	True	0.628	71.0	False	stim	noncrit_signal	s567	False
294.506	0.85	0.5	2.55	1.0	89.0	motor_selective_stop_signal	89.0	True	0.853	71.0	False	stim	noncrit_signal	s567	False
297.061	0.85	0.5	2.55	1.0	71.0	motor_selective_stop_signal	71.0	True	0.762	71.0	False	stim	crit_go	s567	False
299.617	0.85	0.5	2.25	1.0	89.0	motor_selective_stop_signal	89.0	True	0.664	71.0	False	stim	noncrit_nosignal	s567	False
301.873	0.85	0.5	2.25	1.0	71.0	motor_selective_stop_signal	71.0	True	1.316	71.0	False	stim	crit_go	s567	False
304.125	0.85	0.5	2.75	1.0	71.0	motor_selective_stop_signal	71.0	True	0.552	71.0	False	stim	crit_stop_failure	s567	False
306.877	0.85	0.45	2.35	1.0	71.0	motor_selective_stop_signal	-1.0	True	n/a	71.0	True	stim	crit_stop_success	s567	False
309.233	0.85	0.5	2.25	1.0	71.0	motor_selective_stop_signal	71.0	True	0.699	71.0	False	stim	crit_stop_failure	s567	False
311.487	0.85	0.45	2.45	1.0	71.0	motor_selective_stop_signal	71.0	True	0.891	71.0	False	stim	crit_go	s567	False
313.939	0.85	0.45	2.25	1.0	71.0	motor_selective_stop_signal	71.0	True	0.864	71.0	False	stim	crit_go	s567	False
316.195	0.85	0.45	2.35	1.0	71.0	motor_selective_stop_signal	71.0	True	0.856	71.0	False	stim	crit_go	s567	False
318.551	0.85	0.45	2.25	1.0	89.0	motor_selective_stop_signal	89.0	True	0.642	71.0	False	stim	noncrit_nosignal	s567	False
320.807	0.85	0.45	2.25	1.0	71.0	motor_selective_stop_signal	-1.0	True	n/a	71.0	True	stim	crit_stop_success	s567	False
323.063	0.85	0.5	2.25	1.0	71.0	motor_selective_stop_signal	71.0	True	0.876	71.0	False	stim	crit_stop_failure	s567	False
325.319	0.85	0.45	2.25	1.0	89.0	motor_selective_stop_signal	89.0	True	0.679	71.0	False	stim	noncrit_nosignal	s567	False
327.571	0.85	0.45	2.25	1.0	71.0	motor_selective_stop_signal	71.0	True	0.935	71.0	False	stim	crit_go	s567	False
329.827	0.85	0.45	2.35	1.0	89.0	motor_selective_stop_signal	89.0	True	0.579	71.0	False	stim	noncrit_signal	s567	False
332.181	0.85	0.45	2.55	1.0	71.0	motor_selective_stop_signal	71.0	True	0.68	71.0	False	stim	crit_stop_failure	s567	False
334.737	0.85	0.4	2.95	1.0	89.0	motor_selective_stop_signal	89.0	True	0.688	71.0	False	stim	noncrit_nosignal	s567	False
337.693	0.85	0.4	2.25	1.0	71.0	motor_selective_stop_signal	-1.0	True	n/a	71.0	True	stim	crit_stop_success	s567	False
339.947	0.85	0.45	2.35	1.0	89.0	motor_selective_stop_signal	89.0	True	0.628	71.0	False	stim	noncrit_nosignal	s567	False
342.3	0.85	0.45	2.55	0.0	89.0	motor_selective_stop_signal	-1.0	True	n/a	71.0	True	stim	noncrit_nosignal	s567	False
344.856	0.85	0.45	2.25	1.0	89.0	motor_selective_stop_signal	89.0	True	0.758	71.0	False	stim	noncrit_signal	s567	False
347.108	0.85	0.45	2.35	1.0	89.0	motor_selective_stop_signal	89.0	True	0.659	71.0	False	stim	noncrit_signal	s567	False
349.463	0.85	0.45	2.55	1.0	89.0	motor_selective_stop_signal	89.0	True	0.734	71.0	False	stim	noncrit_signal	s567	False
352.016	0.85	0.45	2.45	1.0	89.0	motor_selective_stop_signal	89.0	True	0.648	71.0	False	stim	noncrit_signal	s567	False
354.472	0.85	0.45	2.35	1.0	89.0	motor_selective_stop_signal	89.0	True	1.074	71.0	False	stim	noncrit_nosignal	s567	False
356.825	0.85	0.45	2.65	1.0	71.0	motor_selective_stop_signal	71.0	True	0.854	71.0	False	stim	crit_go	s567	False
359.479	0.85	0.45	2.55	1.0	89.0	motor_selective_stop_signal	89.0	True	0.605	71.0	False	stim	noncrit_nosignal	s567	False
362.032	0.85	0.45	2.75	1.0	71.0	motor_selective_stop_signal	-1.0	True	n/a	71.0	True	stim	crit_stop_success	s567	False
364.786	0.85	0.5	2.55	1.0	71.0	motor_selective_stop_signal	-1.0	True	n/a	71.0	True	stim	crit_stop_success	s567	False
367.34	0.85	0.55	2.45	1.0	89.0	motor_selective_stop_signal	89.0	True	1.441	71.0	False	stim	noncrit_signal	s567	False
369.792	0.85	0.55	2.75	1.0	89.0	motor_selective_stop_signal	89.0	True	0.588	71.0	False	stim	noncrit_nosignal	s567	False
372.545	0.85	0.55	2.55	1.0	89.0	motor_selective_stop_signal	89.0	True	0.623	71.0	False	stim	noncrit_nosignal	s567	False
375.099	0.85	0.55	2.35	0.0	71.0	motor_selective_stop_signal	89.0	True	0.863	71.0	False	stim	crit_stop_failure	s567	False
377.453	0.85	0.5	2.25	1.0	89.0	motor_selective_stop_signal	89.0	True	0.842	71.0	False	stim	noncrit_nosignal	s567	False
379.705	0.85	0.5	2.65	0.0	71.0	motor_selective_stop_signal	89.0	True	0.787	71.0	False	stim	crit_go	s567	False
382.362	0.85	0.5	2.25	1.0	71.0	motor_selective_stop_signal	-1.0	True	n/a	71.0	True	stim	crit_stop_success	s567	False
384.614	0.85	0.55	2.35	1.0	89.0	motor_selective_stop_signal	89.0	True	0.595	71.0	False	stim	noncrit_nosignal	s567	False
397.482	0.85	0.55	2.25	1.0	71.0	motor_selective_stop_signal	71.0	True	0.528	71.0	False	stim	crit_go	s567	False
399.734	0.85	0.55	2.35	1.0	89.0	motor_selective_stop_signal	89.0	True	0.598	71.0	False	stim	noncrit_nosignal	s567	False
402.086	0.85	0.55	2.35	1.0	71.0	motor_selective_stop_signal	71.0	True	0.732	71.0	False	stim	crit_go	s567	False
404.442	0.85	0.55	2.25	1.0	71.0	motor_selective_stop_signal	71.0	True	0.781	71.0	False	stim	crit_go	s567	False
406.696	0.85	0.55	2.85	1.0	89.0	motor_selective_stop_signal	89.0	True	1.094	71.0	False	stim	noncrit_signal	s567	False
409.552	0.85	0.55	2.35	1.0	71.0	motor_selective_stop_signal	71.0	True	0.739	71.0	False	stim	crit_go	s567	False
411.904	0.85	0.55	2.25	1.0	89.0	motor_selective_stop_signal	89.0	True	0.657	71.0	False	stim	noncrit_nosignal	s567	False
414.156	0.85	0.55	2.35	1.0	89.0	motor_selective_stop_signal	89.0	True	0.663	71.0	False	stim	noncrit_nosignal	s567	False
416.51	0.85	0.55	2.45	1.0	71.0	motor_selective_stop_signal	71.0	True	0.777	71.0	False	stim	crit_go	s567	False
418.962	0.85	0.55	2.25	1.0	71.0	motor_selective_stop_signal	-1.0	True	n/a	71.0	True	stim	crit_stop_success	s567	False
421.216	0.85	0.6	2.25	1.0	89.0	motor_selective_stop_signal	89.0	True	0.849	71.0	False	stim	noncrit_signal	s567	False
423.468	0.85	0.6	2.75	1.0	89.0	motor_selective_stop_signal	89.0	True	0.584	71.0	False	stim	noncrit_nosignal	s567	False
426.221	0.85	0.6	2.35	1.0	89.0	motor_selective_stop_signal	89.0	True	0.838	71.0	False	stim	noncrit_signal	s567	False
428.573	0.85	0.6	2.75	1.0	71.0	motor_selective_stop_signal	71.0	True	0.779	71.0	False	stim	crit_go	s567	False
431.326	0.85	0.6	2.45	1.0	89.0	motor_selective_stop_signal	89.0	True	0.616	71.0	False	stim	noncrit_nosignal	s567	False
433.782	0.85	0.6	2.25	0.0	71.0	motor_selective_stop_signal	89.0	True	0.619	71.0	False	stim	crit_go	s567	False
436.034	0.85	0.6	2.35	1.0	71.0	motor_selective_stop_signal	-1.0	True	n/a	71.0	True	stim	crit_stop_success	s567	False
438.39	0.85	0.65	2.65	1.0	71.0	motor_selective_stop_signal	71.0	True	0.606	71.0	False	stim	crit_go	s567	False
441.044	0.85	0.65	2.45	1.0	71.0	motor_selective_stop_signal	71.0	True	1.034	71.0	False	stim	crit_stop_failure	s567	False
443.5	0.85	0.6	2.25	1.0	89.0	motor_selective_stop_signal	89.0	True	0.678	71.0	False	stim	noncrit_nosignal	s567	False
445.752	0.85	0.6	2.35	1.0	89.0	motor_selective_stop_signal	89.0	True	0.641	71.0	False	stim	noncrit_signal	s567	False
448.107	0.85	0.6	2.95	1.0	89.0	motor_selective_stop_signal	89.0	True	1.221	71.0	False	stim	noncrit_signal	s567	False
451.06	0.85	0.6	2.25	1.0	71.0	motor_selective_stop_signal	71.0	True	0.664	71.0	False	stim	crit_go	s567	False
453.312	0.85	0.6	2.95	0.0	89.0	motor_selective_stop_signal	-1.0	True	n/a	71.0	True	stim	noncrit_nosignal	s567	False
456.266	0.85	0.6	2.45	0.0	89.0	motor_selective_stop_signal	-1.0	True	n/a	71.0	True	stim	noncrit_signal	s567	False
458.722	0.85	0.6	2.25	1.0	71.0	motor_selective_stop_signal	-1.0	True	n/a	71.0	True	stim	crit_stop_success	s567	False
460.974	0.85	0.65	2.35	1.0	89.0	motor_selective_stop_signal	89.0	True	0.888	71.0	False	stim	noncrit_nosignal	s567	False
463.326	0.85	0.65	2.45	1.0	71.0	motor_selective_stop_signal	71.0	True	0.78	71.0	False	stim	crit_go	s567	False
465.778	0.85	0.65	2.25	1.0	71.0	motor_selective_stop_signal	71.0	True	0.674	71.0	False	stim	crit_stop_failure	s567	False
468.031	0.85	0.6	2.45	1.0	89.0	motor_selective_stop_signal	89.0	True	0.552	71.0	False	stim	noncrit_signal	s567	False
470.484	0.85	0.6	2.75	1.0	71.0	motor_selective_stop_signal	71.0	True	0.858	71.0	False	stim	crit_go	s567	False
473.24	0.85	0.6	2.25	1.0	89.0	motor_selective_stop_signal	89.0	True	0.617	71.0	False	stim	noncrit_signal	s567	False
475.492	0.85	0.6	2.35	1.0	71.0	motor_selective_stop_signal	71.0	True	0.678	71.0	False	stim	crit_go	s567	False
477.848	0.85	0.6	2.45	1.0	89.0	motor_selective_stop_signal	89.0	True	0.574	71.0	False	stim	noncrit_signal	s567	False
480.303	0.85	0.6	2.35	1.0	89.0	motor_selective_stop_signal	89.0	True	0.688	71.0	False	stim	noncrit_nosignal	s567	False
482.657	0.85	0.6	2.25	1.0	89.0	motor_selective_stop_signal	89.0	True	0.639	71.0	False	stim	noncrit_signal	s567	False
484.913	0.85	0.6	2.55	1.0	89.0	motor_selective_stop_signal	89.0	True	1.505	71.0	False	stim	noncrit_nosignal	s567	False
487.467	0.85	0.6	2.45	1.0	71.0	motor_selective_stop_signal	71.0	True	0.621	71.0	False	stim	crit_go	s567	False
489.923	0.85	0.6	2.65	1.0	89.0	motor_selective_stop_signal	89.0	True	0.648	71.0	False	stim	noncrit_nosignal	s567	False
492.579	0.85	0.6	2.25	1.0	71.0	motor_selective_stop_signal	71.0	True	0.633	71.0	False	stim	crit_stop_failure	s567	False
494.835	0.85	0.55	2.65	1.0	89.0	motor_selective_stop_signal	89.0	True	0.631	71.0	False	stim	noncrit_signal	s567	False
497.487	0.85	0.55	2.35	1.0	71.0	motor_selective_stop_signal	71.0	True	0.785	71.0	False	stim	crit_go	s567	False
499.843	0.85	0.55	2.25	1.0	89.0	motor_selective_stop_signal	89.0	True	0.577	71.0	False	stim	noncrit_nosignal	s567	False
502.099	0.85	0.55	2.25	1.0	71.0	motor_selective_stop_signal	71.0	True	0.798	71.0	False	stim	crit_go	s567	False
504.351	0.85	0.55	2.25	1.0	71.0	motor_selective_stop_signal	71.0	True	0.714	71.0	False	stim	crit_go	s567	False
506.602	0.85	0.55	2.35	1.0	89.0	motor_selective_stop_signal	89.0	True	0.661	71.0	False	stim	noncrit_nosignal	s567	False
508.957	0.85	0.55	2.55	1.0	89.0	motor_selective_stop_signal	89.0	True	0.599	71.0	False	stim	noncrit_signal	s567	False
511.509	0.85	0.55	2.35	1.0	71.0	motor_selective_stop_signal	71.0	True	0.616	71.0	False	stim	crit_go	s567	False
513.863	0.85	0.55	2.45	1.0	71.0	motor_selective_stop_signal	71.0	True	0.524	71.0	False	stim	crit_stop_failure	s567	False
516.316	0.85	0.5	2.45	1.0	71.0	motor_selective_stop_signal	71.0	True	0.769	71.0	False	stim	crit_go	s567	False
529.28	0.85	0.5	2.35	1.0	71.0	motor_selective_stop_signal	-1.0	True	n/a	71.0	True	stim	crit_stop_success	s567	False
531.637	0.85	0.55	2.25	0.0	89.0	motor_selective_stop_signal	-1.0	True	n/a	71.0	True	stim	noncrit_signal	s567	False
533.891	0.85	0.55	2.55	1.0	71.0	motor_selective_stop_signal	71.0	True	0.589	71.0	False	stim	crit_go	s567	False
536.446	0.85	0.55	2.55	1.0	89.0	motor_selective_stop_signal	89.0	True	0.563	71.0	False	stim	noncrit_nosignal	s567	False
539.002	0.85	0.55	2.25	1.0	89.0	motor_selective_stop_signal	89.0	True	0.605	71.0	False	stim	noncrit_signal	s567	False
541.258	0.85	0.55	2.25	1.0	71.0	motor_selective_stop_signal	71.0	True	0.617	71.0	False	stim	crit_go	s567	False
543.512	0.85	0.55	2.45	1.0	71.0	motor_selective_stop_signal	71.0	True	0.713	71.0	False	stim	crit_stop_failure	s567	False
545.964	0.85	0.5	2.35	1.0	89.0	motor_selective_stop_signal	89.0	True	0.592	71.0	False	stim	noncrit_nosignal	s567	False
548.317	0.85	0.5	2.25	1.0	89.0	motor_selective_stop_signal	89.0	True	0.673	71.0	False	stim	noncrit_nosignal	s567	False
550.572	0.85	0.5	3.15	1.0	89.0	motor_selective_stop_signal	89.0	True	0.637	71.0	False	stim	noncrit_nosignal	s567	False
553.728	0.85	0.5	2.65	1.0	89.0	motor_selective_stop_signal	89.0	True	1.354	71.0	False	stim	noncrit_nosignal	s567	False
556.384	0.85	0.5	2.25	1.0	89.0	motor_selective_stop_signal	89.0	True	0.704	71.0	False	stim	noncrit_signal	s567	False
558.637	0.85	0.5	2.45	1.0	71.0	motor_selective_stop_signal	71.0	True	0.571	71.0	False	stim	crit_stop_failure	s567	False
561.091	0.85	0.45	2.85	1.0	89.0	motor_selective_stop_signal	89.0	True	0.657	71.0	False	stim	noncrit_signal	s567	False
563.945	0.85	0.45	2.45	1.0	71.0	motor_selective_stop_signal	71.0	True	0.736	71.0	False	stim	crit_go	s567	False
566.401	0.85	0.45	2.25	1.0	71.0	motor_selective_stop_signal	71.0	True	0.608	71.0	False	stim	crit_go	s567	False
568.654	0.85	0.45	2.25	1.0	71.0	motor_selective_stop_signal	71.0	True	0.633	71.0	False	stim	crit_go	s567	False
570.906	0.85	0.45	2.55	1.0	89.0	motor_selective_stop_signal	89.0	True	0.644	71.0	False	stim	noncrit_signal	s567	False
573.463	0.85	0.45	2.25	0.0	71.0	motor_selective_stop_signal	89.0	True	1.073	71.0	False	stim	crit_stop_failure	s567	False
575.719	0.85	0.4	2.35	1.0	71.0	motor_selective_stop_signal	71.0	True	0.849	71.0	False	stim	crit_go	s567	False
578.072	0.85	0.4	2.35	1.0	71.0	motor_selective_stop_signal	-1.0	True	n/a	71.0	True	stim	crit_stop_success	s567	False
580.427	0.85	0.45	2.25	1.0	89.0	motor_selective_stop_signal	89.0	True	0.587	71.0	False	stim	noncrit_nosignal	s567	False
582.68	0.85	0.45	2.35	1.0	89.0	motor_selective_stop_signal	89.0	True	0.764	71.0	False	stim	noncrit_signal	s567	False
585.036	0.85	0.45	2.25	0.0	89.0	motor_selective_stop_signal	-1.0	True	n/a	71.0	True	stim	noncrit_nosignal	s567	False
587.292	0.85	0.45	2.45	1.0	89.0	motor_selective_stop_signal	89.0	True	0.757	71.0	False	stim	noncrit_nosignal	s567	False
589.746	0.85	0.45	2.25	1.0	89.0	motor_selective_stop_signal	89.0	True	0.637	71.0	False	stim	noncrit_nosignal	s567	False
591.998	0.85	0.45	2.35	0.0	89.0	motor_selective_stop_signal	-1.0	True	n/a	71.0	True	stim	noncrit_nosignal	s567	False
594.351	0.85	0.45	2.45	1.0	89.0	motor_selective_stop_signal	89.0	True	0.564	71.0	False	stim	noncrit_signal	s567	False
596.807	0.85	0.45	2.25	1.0	71.0	motor_selective_stop_signal	71.0	True	0.608	71.0	False	stim	crit_stop_failure	s567	False
599.063	0.85	0.4	2.25	1.0	71.0	motor_selective_stop_signal	71.0	True	0.955	71.0	False	stim	crit_go	s567	False
601.317	0.85	0.4	2.85	0.0	89.0	motor_selective_stop_signal	-1.0	True	n/a	71.0	True	stim	noncrit_nosignal	s567	False
604.173	0.85	0.4	2.25	0.0	71.0	motor_selective_stop_signal	-1.0	True	n/a	71.0	True	stim	crit_go	s567	False
606.429	0.85	0.4	3.45	1.0	71.0	motor_selective_stop_signal	71.0	True	0.754	71.0	False	stim	crit_go	s567	False
609.881	0.85	0.4	2.35	0.0	89.0	motor_selective_stop_signal	-1.0	True	n/a	71.0	True	stim	noncrit_signal	s567	False
612.237	0.85	0.4	2.35	1.0	89.0	motor_selective_stop_signal	89.0	True	0.59	71.0	False	stim	noncrit_signal	s567	False
614.59	0.85	0.4	2.35	1.0	71.0	motor_selective_stop_signal	71.0	True	0.778	71.0	False	stim	crit_go	s567	False
616.944	0.85	0.4	2.45	1.0	71.0	motor_selective_stop_signal	-1.0	True	n/a	71.0	True	stim	crit_stop_success	s567	False
619.399	0.85	0.45	2.55	0.0	89.0	motor_selective_stop_signal	-1.0	True	n/a	71.0	True	stim	noncrit_signal	s567	False
621.951	0.85	0.45	2.35	1.0	89.0	motor_selective_stop_signal	89.0	True	0.679	71.0	False	stim	noncrit_nosignal	s567	False
624.307	0.85	0.45	2.25	1.0	71.0	motor_selective_stop_signal	-1.0	True	n/a	71.0	True	stim	crit_stop_success	s567	False
626.562	0.85	0.5	2.25	0.0	89.0	motor_selective_stop_signal	-1.0	True	n/a	71.0	True	stim	noncrit_nosignal	s567	False
628.814	0.85	0.5	3.05	1.0	71.0	motor_selective_stop_signal	71.0	True	0.66	71.0	False	stim	crit_go	s567	False
631.867	0.85	0.5	2.45	0.0	89.0	motor_selective_stop_signal	-1.0	True	n/a	71.0	True	stim	noncrit_nosignal	s567	False
634.323	0.85	0.5	2.35	0.0	71.0	motor_selective_stop_signal	-1.0	True	n/a	71.0	True	stim	crit_go	s567	False
636.675	0.85	0.5	2.25	1.0	71.0	motor_selective_stop_signal	-1.0	True	n/a	71.0	True	stim	crit_stop_success	s567	False
638.929	0.85	0.55	3.25	1.0	71.0	motor_selective_stop_signal	71.0	True	1.265	71.0	False	stim	crit_stop_failure	s567	False
642.183	0.85	0.5	2.95	1.0	89.0	motor_selective_stop_signal	89.0	True	0.581	71.0	False	stim	noncrit_nosignal	s567	False
645.138	0.85	0.5	2.55	1.0	71.0	motor_selective_stop_signal	71.0	True	0.577	71.0	False	stim	crit_stop_failure	s567	False
647.69	0.85	0.45	2.35	1.0	89.0	motor_selective_stop_signal	89.0	True	0.588	71.0	False	stim	noncrit_nosignal	s567	False
650.045	0.85	0.45	2.55	1.0	71.0	motor_selective_stop_signal	71.0	True	0.705	71.0	False	stim	crit_stop_failure	s567	False
