duration	onset	block_duration	movement_onset	planning	condition	exp_stage	experiment_exp_id	key_press	problem_id	response_time	trial_id	trial_type	worker_id	junk
4.187	3.007	4.187	7.194	1	UA_with_intermediate	practice	ward_and_allport	71	0.0	4.187	to_hand	poldrack-single-stim	s568	False
0.1	7.195	2.046	9.241	0	UA_with_intermediate	practice	ward_and_allport	82	0.0	2.046	to_board	poldrack-single-stim	s568	False
0.1	9.244	0.952	10.196	0	UA_with_intermediate	practice	ward_and_allport	71	0.0	0.952	to_hand	poldrack-single-stim	s568	False
0.1	10.198	0.905	11.103	0	UA_with_intermediate	practice	ward_and_allport	89	0.0	0.905	to_board	poldrack-single-stim	s568	False
0.1	11.104	1.466	12.57	0	UA_with_intermediate	practice	ward_and_allport	82	0.0	1.466	to_hand	poldrack-single-stim	s568	False
0.1	12.571	0.684	13.255	0	UA_with_intermediate	practice	ward_and_allport	89	0.0	0.684	to_board	poldrack-single-stim	s568	False
1.0	13.258	2.5	13.257	0	UA_with_intermediate	practice	ward_and_allport	-1	0.0	n/a	feedback	poldrack-single-stim	s568	False
4.666	15.761	4.666	20.427	1	UA_with_intermediate	practice	ward_and_allport	89	1.0	4.666	to_hand	poldrack-single-stim	s568	False
0.1	20.428	0.465	20.893	0	UA_with_intermediate	practice	ward_and_allport	82	1.0	0.465	to_board	poldrack-single-stim	s568	False
0.1	20.895	0.83	21.725	0	UA_with_intermediate	practice	ward_and_allport	71	1.0	0.83	to_hand	poldrack-single-stim	s568	False
0.1	21.726	0.82	22.546	0	UA_with_intermediate	practice	ward_and_allport	89	1.0	0.82	to_board	poldrack-single-stim	s568	False
0.1	22.548	1.058	23.606	0	UA_with_intermediate	practice	ward_and_allport	82	1.0	1.058	to_hand	poldrack-single-stim	s568	False
0.1	23.607	0.447	24.054	0	UA_with_intermediate	practice	ward_and_allport	89	1.0	0.447	to_board	poldrack-single-stim	s568	False
1.0	24.057	2.1	24.056	0	UA_with_intermediate	practice	ward_and_allport	-1	1.0	n/a	feedback	poldrack-single-stim	s568	False
4.114	26.159	4.114	30.273	1	UA_without_intermediate	practice	ward_and_allport	71	2.0	4.114	to_hand	poldrack-single-stim	s568	False
0.1	30.275	4.072	34.347	0	UA_without_intermediate	practice	ward_and_allport	82	2.0	4.072	to_board	poldrack-single-stim	s568	False
0.1	34.349	4.897	39.246	0	UA_without_intermediate	practice	ward_and_allport	82	2.0	4.897	to_hand	poldrack-single-stim	s568	False
0.1	39.247	1.65	40.897	0	UA_without_intermediate	practice	ward_and_allport	71	2.0	1.65	to_board	poldrack-single-stim	s568	False
0.1	40.9	0.69	41.59	0	UA_without_intermediate	practice	ward_and_allport	82	2.0	0.69	to_hand	poldrack-single-stim	s568	False
0.1	41.59	0.714	42.304	0	UA_without_intermediate	practice	ward_and_allport	89	2.0	0.714	to_board	poldrack-single-stim	s568	False
0.1	42.307	1.316	43.623	0	UA_without_intermediate	practice	ward_and_allport	71	2.0	1.316	to_hand	poldrack-single-stim	s568	False
0.1	43.623	0.665	44.288	0	UA_without_intermediate	practice	ward_and_allport	89	2.0	0.665	to_board	poldrack-single-stim	s568	False
0.1	44.29	0.839	45.129	0	UA_without_intermediate	practice	ward_and_allport	71	2.0	0.839	to_hand	poldrack-single-stim	s568	False
0.1	45.131	0.359	45.49	0	UA_without_intermediate	practice	ward_and_allport	89	2.0	0.359	to_board	poldrack-single-stim	s568	False
1.0	45.493	2.2	45.492	0	UA_without_intermediate	practice	ward_and_allport	-1	2.0	n/a	feedback	poldrack-single-stim	s568	False
3.149	47.695	3.149	50.844	1	UA_without_intermediate	practice	ward_and_allport	71	3.0	3.149	to_hand	poldrack-single-stim	s568	False
0.1	50.844	0.722	51.566	0	UA_without_intermediate	practice	ward_and_allport	89	3.0	0.722	to_board	poldrack-single-stim	s568	False
0.1	51.568	1.382	52.95	0	UA_without_intermediate	practice	ward_and_allport	82	3.0	1.382	to_hand	poldrack-single-stim	s568	False
0.1	52.952	0.497	53.449	0	UA_without_intermediate	practice	ward_and_allport	89	3.0	0.497	to_board	poldrack-single-stim	s568	False
0.1	53.451	0.972	54.423	0	UA_without_intermediate	practice	ward_and_allport	71	3.0	0.972	to_hand	poldrack-single-stim	s568	False
0.1	54.423	0.352	54.775	0	UA_without_intermediate	practice	ward_and_allport	89	3.0	0.352	to_board	poldrack-single-stim	s568	False
1.0	54.778	2.0	54.777	0	UA_without_intermediate	practice	ward_and_allport	-1	3.0	n/a	feedback	poldrack-single-stim	s568	False
5.88	58.783	5.88	64.663	1	PA_with_intermediate	test	ward_and_allport	82	0.0	5.88	to_hand	poldrack-single-stim	s568	False
0.1	64.664	0.595	65.259	0	PA_with_intermediate	test	ward_and_allport	89	0.0	0.595	to_board	poldrack-single-stim	s568	False
0.1	65.261	1.11	66.371	0	PA_with_intermediate	test	ward_and_allport	82	0.0	1.11	to_hand	poldrack-single-stim	s568	False
0.1	66.372	1.441	67.813	0	PA_with_intermediate	test	ward_and_allport	71	0.0	1.441	to_board	poldrack-single-stim	s568	False
0.1	67.815	0.906	68.721	0	PA_with_intermediate	test	ward_and_allport	89	0.0	0.906	to_hand	poldrack-single-stim	s568	False
0.1	68.722	0.429	69.151	0	PA_with_intermediate	test	ward_and_allport	82	0.0	0.429	to_board	poldrack-single-stim	s568	False
1.0	69.154	2.408	69.153	0	PA_with_intermediate	test	ward_and_allport	-1	0.0	n/a	feedback	poldrack-single-stim	s568	False
5.815	71.564	5.815	77.379	1	PA_without_intermediate	test	ward_and_allport	71	1.0	5.815	to_hand	poldrack-single-stim	s568	False
0.1	77.38	0.713	78.093	0	PA_without_intermediate	test	ward_and_allport	89	1.0	0.713	to_board	poldrack-single-stim	s568	False
0.1	78.095	1.074	79.169	0	PA_without_intermediate	test	ward_and_allport	71	1.0	1.074	to_hand	poldrack-single-stim	s568	False
0.1	79.17	0.64	79.81	0	PA_without_intermediate	test	ward_and_allport	82	1.0	0.64	to_board	poldrack-single-stim	s568	False
0.1	79.812	0.528	80.34	0	PA_without_intermediate	test	ward_and_allport	71	1.0	0.528	to_hand	poldrack-single-stim	s568	False
0.1	80.342	0.335	80.677	0	PA_without_intermediate	test	ward_and_allport	89	1.0	0.335	to_board	poldrack-single-stim	s568	False
1.0	80.681	2.68	80.68	0	PA_without_intermediate	test	ward_and_allport	-1	1.0	n/a	feedback	poldrack-single-stim	s568	False
4.116	83.363	4.116	87.479	1	PA_with_intermediate	test	ward_and_allport	89	2.0	4.116	to_hand	poldrack-single-stim	s568	False
0.1	87.481	0.716	88.197	0	PA_with_intermediate	test	ward_and_allport	82	2.0	0.716	to_board	poldrack-single-stim	s568	False
0.1	88.199	0.891	89.09	0	PA_with_intermediate	test	ward_and_allport	89	2.0	0.891	to_hand	poldrack-single-stim	s568	False
0.1	89.092	0.559	89.651	0	PA_with_intermediate	test	ward_and_allport	71	2.0	0.559	to_board	poldrack-single-stim	s568	False
0.1	89.652	0.817	90.469	0	PA_with_intermediate	test	ward_and_allport	82	2.0	0.817	to_hand	poldrack-single-stim	s568	False
0.1	90.469	0.956	91.425	0	PA_with_intermediate	test	ward_and_allport	71	2.0	0.956	to_board	poldrack-single-stim	s568	False
1.0	91.43	4.72	91.429	0	PA_with_intermediate	test	ward_and_allport	-1	2.0	n/a	feedback	poldrack-single-stim	s568	False
3.666	96.152	3.666	99.818	1	PA_without_intermediate	test	ward_and_allport	89	3.0	3.666	to_hand	poldrack-single-stim	s568	False
0.1	99.82	0.385	100.205	0	PA_without_intermediate	test	ward_and_allport	71	3.0	0.385	to_board	poldrack-single-stim	s568	False
0.1	100.207	1.209	101.416	0	PA_without_intermediate	test	ward_and_allport	89	3.0	1.209	to_hand	poldrack-single-stim	s568	False
0.1	101.416	0.793	102.209	0	PA_without_intermediate	test	ward_and_allport	71	3.0	0.793	to_board	poldrack-single-stim	s568	False
0.1	102.211	0.768	102.979	0	PA_without_intermediate	test	ward_and_allport	89	3.0	0.768	to_hand	poldrack-single-stim	s568	False
0.1	102.981	0.469	103.45	0	PA_without_intermediate	test	ward_and_allport	82	3.0	0.469	to_board	poldrack-single-stim	s568	False
1.0	103.453	3.224	103.452	0	PA_without_intermediate	test	ward_and_allport	-1	3.0	n/a	feedback	poldrack-single-stim	s568	False
2.611	106.681	2.611	109.292	1	PA_without_intermediate	test	ward_and_allport	71	4.0	2.611	to_hand	poldrack-single-stim	s568	False
0.1	109.293	0.682	109.975	0	PA_without_intermediate	test	ward_and_allport	82	4.0	0.682	to_board	poldrack-single-stim	s568	False
0.1	109.978	0.549	110.527	0	PA_without_intermediate	test	ward_and_allport	71	4.0	0.549	to_hand	poldrack-single-stim	s568	False
0.1	110.528	0.448	110.976	0	PA_without_intermediate	test	ward_and_allport	89	4.0	0.448	to_board	poldrack-single-stim	s568	False
0.1	110.979	0.609	111.588	0	PA_without_intermediate	test	ward_and_allport	71	4.0	0.609	to_hand	poldrack-single-stim	s568	False
0.1	111.588	0.477	112.065	0	PA_without_intermediate	test	ward_and_allport	82	4.0	0.477	to_board	poldrack-single-stim	s568	False
1.0	112.069	2.272	112.068	0	PA_without_intermediate	test	ward_and_allport	-1	4.0	n/a	feedback	poldrack-single-stim	s568	False
4.107	114.345	4.107	118.452	1	PA_with_intermediate	test	ward_and_allport	82	5.0	4.107	to_hand	poldrack-single-stim	s568	False
0.1	118.453	1.061	119.514	0	PA_with_intermediate	test	ward_and_allport	71	5.0	1.061	to_board	poldrack-single-stim	s568	False
0.1	119.516	0.591	120.107	0	PA_with_intermediate	test	ward_and_allport	82	5.0	0.591	to_hand	poldrack-single-stim	s568	False
0.1	120.108	0.658	120.766	0	PA_with_intermediate	test	ward_and_allport	89	5.0	0.658	to_board	poldrack-single-stim	s568	False
0.1	120.77	1.01	121.78	0	PA_with_intermediate	test	ward_and_allport	71	5.0	1.01	to_hand	poldrack-single-stim	s568	False
0.1	121.781	0.402	122.183	0	PA_with_intermediate	test	ward_and_allport	89	5.0	0.402	to_board	poldrack-single-stim	s568	False
1.0	122.187	3.632	122.186	0	PA_with_intermediate	test	ward_and_allport	-1	5.0	n/a	feedback	poldrack-single-stim	s568	False
2.93	125.821	2.93	128.751	1	PA_without_intermediate	test	ward_and_allport	89	6.0	2.93	to_hand	poldrack-single-stim	s568	False
0.1	128.751	0.576	129.327	0	PA_without_intermediate	test	ward_and_allport	71	6.0	0.576	to_board	poldrack-single-stim	s568	False
0.1	129.33	1.023	130.353	0	PA_without_intermediate	test	ward_and_allport	89	6.0	1.023	to_hand	poldrack-single-stim	s568	False
0.1	130.354	0.582	130.936	0	PA_without_intermediate	test	ward_and_allport	82	6.0	0.582	to_board	poldrack-single-stim	s568	False
0.1	130.94	0.799	131.739	0	PA_without_intermediate	test	ward_and_allport	89	6.0	0.799	to_hand	poldrack-single-stim	s568	False
0.1	131.74	0.392	132.132	0	PA_without_intermediate	test	ward_and_allport	71	6.0	0.392	to_board	poldrack-single-stim	s568	False
1.0	132.136	2.408	132.135	0	PA_without_intermediate	test	ward_and_allport	-1	6.0	n/a	feedback	poldrack-single-stim	s568	False
2.772	134.548	2.772	137.32	1	PA_without_intermediate	test	ward_and_allport	89	7.0	2.772	to_hand	poldrack-single-stim	s568	False
0.1	137.32	1.106	138.426	0	PA_without_intermediate	test	ward_and_allport	82	7.0	1.106	to_board	poldrack-single-stim	s568	False
0.1	138.429	1.582	140.011	0	PA_without_intermediate	test	ward_and_allport	89	7.0	1.582	to_hand	poldrack-single-stim	s568	False
0.1	140.012	0.34	140.352	0	PA_without_intermediate	test	ward_and_allport	71	7.0	0.34	to_board	poldrack-single-stim	s568	False
0.1	140.355	0.649	141.004	0	PA_without_intermediate	test	ward_and_allport	89	7.0	0.649	to_hand	poldrack-single-stim	s568	False
0.1	141.005	0.381	141.386	0	PA_without_intermediate	test	ward_and_allport	82	7.0	0.381	to_board	poldrack-single-stim	s568	False
1.0	141.391	2.0	141.39	0	PA_without_intermediate	test	ward_and_allport	-1	7.0	n/a	feedback	poldrack-single-stim	s568	False
2.449	143.394	2.449	145.843	1	PA_with_intermediate	test	ward_and_allport	89	8.0	2.449	to_hand	poldrack-single-stim	s568	False
0.1	145.844	1.552	147.396	0	PA_with_intermediate	test	ward_and_allport	82	8.0	1.552	to_board	poldrack-single-stim	s568	False
0.1	147.399	0.408	147.807	0	PA_with_intermediate	test	ward_and_allport	89	8.0	0.408	to_hand	poldrack-single-stim	s568	False
0.1	147.807	0.625	148.432	0	PA_with_intermediate	test	ward_and_allport	71	8.0	0.625	to_board	poldrack-single-stim	s568	False
0.1	148.435	1.965	150.4	0	PA_with_intermediate	test	ward_and_allport	82	8.0	1.965	to_hand	poldrack-single-stim	s568	False
0.1	150.4	0.42	150.82	0	PA_with_intermediate	test	ward_and_allport	71	8.0	0.42	to_board	poldrack-single-stim	s568	False
1.0	150.824	2.0	150.823	0	PA_with_intermediate	test	ward_and_allport	-1	8.0	n/a	feedback	poldrack-single-stim	s568	False
4.813	152.827	4.813	157.64	1	PA_with_intermediate	test	ward_and_allport	82	9.0	4.813	to_hand	poldrack-single-stim	s568	False
0.1	157.641	0.692	158.333	0	PA_with_intermediate	test	ward_and_allport	89	9.0	0.692	to_board	poldrack-single-stim	s568	False
0.1	158.336	0.73	159.066	0	PA_with_intermediate	test	ward_and_allport	82	9.0	0.73	to_hand	poldrack-single-stim	s568	False
0.1	159.067	0.556	159.623	0	PA_with_intermediate	test	ward_and_allport	71	9.0	0.556	to_board	poldrack-single-stim	s568	False
0.1	159.627	0.712	160.339	0	PA_with_intermediate	test	ward_and_allport	89	9.0	0.712	to_hand	poldrack-single-stim	s568	False
0.1	160.341	0.721	161.062	0	PA_with_intermediate	test	ward_and_allport	82	9.0	0.721	to_board	poldrack-single-stim	s568	False
0.1	161.066	2.904	163.97	0	PA_with_intermediate	test	ward_and_allport	71	9.0	2.904	to_hand	poldrack-single-stim	s568	False
0.1	163.972	1.584	165.556	0	PA_with_intermediate	test	ward_and_allport	71	9.0	1.584	to_board	poldrack-single-stim	s568	False
0.1	165.56	0.586	166.146	0	PA_with_intermediate	test	ward_and_allport	82	9.0	0.586	to_hand	poldrack-single-stim	s568	False
0.1	166.148	0.707	166.855	0	PA_with_intermediate	test	ward_and_allport	71	9.0	0.707	to_board	poldrack-single-stim	s568	False
1.0	166.859	2.0	166.858	0	PA_with_intermediate	test	ward_and_allport	-1	9.0	n/a	feedback	poldrack-single-stim	s568	False
3.948	168.863	3.948	172.811	1	PA_with_intermediate	test	ward_and_allport	89	10.0	3.948	to_hand	poldrack-single-stim	s568	False
0.1	172.813	1.093	173.906	0	PA_with_intermediate	test	ward_and_allport	71	10.0	1.093	to_board	poldrack-single-stim	s568	False
0.1	173.91	0.574	174.484	0	PA_with_intermediate	test	ward_and_allport	89	10.0	0.574	to_hand	poldrack-single-stim	s568	False
0.1	174.485	0.439	174.924	0	PA_with_intermediate	test	ward_and_allport	82	10.0	0.439	to_board	poldrack-single-stim	s568	False
0.1	174.928	0.517	175.445	0	PA_with_intermediate	test	ward_and_allport	71	10.0	0.517	to_hand	poldrack-single-stim	s568	False
0.1	175.446	0.567	176.013	0	PA_with_intermediate	test	ward_and_allport	89	10.0	0.567	to_board	poldrack-single-stim	s568	False
1.0	176.019	2.408	176.018	0	PA_with_intermediate	test	ward_and_allport	-1	10.0	n/a	feedback	poldrack-single-stim	s568	False
3.505	178.432	3.505	181.937	1	PA_without_intermediate	test	ward_and_allport	82	11.0	3.505	to_hand	poldrack-single-stim	s568	False
0.1	181.937	0.632	182.569	0	PA_without_intermediate	test	ward_and_allport	89	11.0	0.632	to_board	poldrack-single-stim	s568	False
0.1	182.574	0.743	183.317	0	PA_without_intermediate	test	ward_and_allport	82	11.0	0.743	to_hand	poldrack-single-stim	s568	False
0.1	183.317	0.842	184.159	0	PA_without_intermediate	test	ward_and_allport	89	11.0	0.842	to_board	poldrack-single-stim	s568	False
0.1	184.164	1.671	185.835	0	PA_without_intermediate	test	ward_and_allport	82	11.0	1.671	to_hand	poldrack-single-stim	s568	False
0.1	185.836	0.462	186.298	0	PA_without_intermediate	test	ward_and_allport	71	11.0	0.462	to_board	poldrack-single-stim	s568	False
1.0	186.303	2.816	186.302	0	PA_without_intermediate	test	ward_and_allport	-1	11.0	n/a	feedback	poldrack-single-stim	s568	False
3.18	189.124	3.18	192.304	1	PA_with_intermediate	test	ward_and_allport	71	12.0	3.18	to_hand	poldrack-single-stim	s568	False
0.1	192.304	0.825	193.129	0	PA_with_intermediate	test	ward_and_allport	82	12.0	0.825	to_board	poldrack-single-stim	s568	False
0.1	193.134	0.412	193.546	0	PA_with_intermediate	test	ward_and_allport	71	12.0	0.412	to_hand	poldrack-single-stim	s568	False
0.1	193.547	0.382	193.929	0	PA_with_intermediate	test	ward_and_allport	89	12.0	0.382	to_board	poldrack-single-stim	s568	False
0.1	193.933	0.794	194.727	0	PA_with_intermediate	test	ward_and_allport	82	12.0	0.794	to_hand	poldrack-single-stim	s568	False
0.1	194.728	0.521	195.249	0	PA_with_intermediate	test	ward_and_allport	89	12.0	0.521	to_board	poldrack-single-stim	s568	False
1.0	195.255	4.176	195.254	0	PA_with_intermediate	test	ward_and_allport	-1	12.0	n/a	feedback	poldrack-single-stim	s568	False
3.252	199.434	3.252	202.686	1	PA_with_intermediate	test	ward_and_allport	82	13.0	3.252	to_hand	poldrack-single-stim	s568	False
0.1	202.688	2.654	205.342	0	PA_with_intermediate	test	ward_and_allport	89	13.0	2.654	to_board	poldrack-single-stim	s568	False
0.1	205.346	0.656	206.002	0	PA_with_intermediate	test	ward_and_allport	82	13.0	0.656	to_hand	poldrack-single-stim	s568	False
0.1	206.003	0.8	206.803	0	PA_with_intermediate	test	ward_and_allport	71	13.0	0.8	to_board	poldrack-single-stim	s568	False
0.1	206.808	0.672	207.48	0	PA_with_intermediate	test	ward_and_allport	89	13.0	0.672	to_hand	poldrack-single-stim	s568	False
0.1	207.482	0.476	207.958	0	PA_with_intermediate	test	ward_and_allport	71	13.0	0.476	to_board	poldrack-single-stim	s568	False
1.0	207.963	3.36	207.962	0	PA_with_intermediate	test	ward_and_allport	-1	13.0	n/a	feedback	poldrack-single-stim	s568	False
3.515	211.328	3.515	214.843	1	PA_with_intermediate	test	ward_and_allport	82	14.0	3.515	to_hand	poldrack-single-stim	s568	False
0.1	214.843	1.023	215.866	0	PA_with_intermediate	test	ward_and_allport	71	14.0	1.023	to_board	poldrack-single-stim	s568	False
0.1	215.871	0.524	216.395	0	PA_with_intermediate	test	ward_and_allport	82	14.0	0.524	to_hand	poldrack-single-stim	s568	False
0.1	216.395	0.573	216.968	0	PA_with_intermediate	test	ward_and_allport	89	14.0	0.573	to_board	poldrack-single-stim	s568	False
0.1	216.972	1.304	218.276	0	PA_with_intermediate	test	ward_and_allport	71	14.0	1.304	to_hand	poldrack-single-stim	s568	False
0.1	218.277	0.425	218.702	0	PA_with_intermediate	test	ward_and_allport	82	14.0	0.425	to_board	poldrack-single-stim	s568	False
1.0	218.707	2.0	218.706	0	PA_with_intermediate	test	ward_and_allport	-1	14.0	n/a	feedback	poldrack-single-stim	s568	False
2.819	225.713	2.819	228.532	1	PA_without_intermediate	test	ward_and_allport	71	15.0	2.819	to_hand	poldrack-single-stim	s568	False
0.1	228.534	0.418	228.952	0	PA_without_intermediate	test	ward_and_allport	89	15.0	0.418	to_board	poldrack-single-stim	s568	False
0.1	228.957	0.709	229.666	0	PA_without_intermediate	test	ward_and_allport	71	15.0	0.709	to_hand	poldrack-single-stim	s568	False
0.1	229.667	0.524	230.191	0	PA_without_intermediate	test	ward_and_allport	89	15.0	0.524	to_board	poldrack-single-stim	s568	False
0.1	230.195	0.754	230.949	0	PA_without_intermediate	test	ward_and_allport	71	15.0	0.754	to_hand	poldrack-single-stim	s568	False
0.1	230.951	0.557	231.508	0	PA_without_intermediate	test	ward_and_allport	82	15.0	0.557	to_board	poldrack-single-stim	s568	False
1.0	231.513	2.408	231.512	0	PA_without_intermediate	test	ward_and_allport	-1	15.0	n/a	feedback	poldrack-single-stim	s568	False
4.022	233.927	4.022	237.949	1	PA_with_intermediate	test	ward_and_allport	89	16.0	4.022	to_hand	poldrack-single-stim	s568	False
0.1	237.951	2.026	239.977	0	PA_with_intermediate	test	ward_and_allport	82	16.0	2.026	to_board	poldrack-single-stim	s568	False
0.1	239.98	0.405	240.385	0	PA_with_intermediate	test	ward_and_allport	89	16.0	0.405	to_hand	poldrack-single-stim	s568	False
0.1	240.386	0.494	240.88	0	PA_with_intermediate	test	ward_and_allport	71	16.0	0.494	to_board	poldrack-single-stim	s568	False
0.1	240.884	1.082	241.966	0	PA_with_intermediate	test	ward_and_allport	82	16.0	1.082	to_hand	poldrack-single-stim	s568	False
0.1	241.967	0.32	242.287	0	PA_with_intermediate	test	ward_and_allport	89	16.0	0.32	to_board	poldrack-single-stim	s568	False
1.0	242.293	2.816	242.292	0	PA_with_intermediate	test	ward_and_allport	-1	16.0	n/a	feedback	poldrack-single-stim	s568	False
3.095	245.114	3.095	248.209	1	PA_without_intermediate	test	ward_and_allport	82	17.0	3.095	to_hand	poldrack-single-stim	s568	False
0.1	248.211	0.733	248.944	0	PA_without_intermediate	test	ward_and_allport	71	17.0	0.733	to_board	poldrack-single-stim	s568	False
0.1	248.949	0.793	249.742	0	PA_without_intermediate	test	ward_and_allport	82	17.0	0.793	to_hand	poldrack-single-stim	s568	False
0.1	249.743	0.38	250.123	0	PA_without_intermediate	test	ward_and_allport	89	17.0	0.38	to_board	poldrack-single-stim	s568	False
0.1	250.128	0.617	250.745	0	PA_without_intermediate	test	ward_and_allport	82	17.0	0.617	to_hand	poldrack-single-stim	s568	False
0.1	250.745	1.332	252.077	0	PA_without_intermediate	test	ward_and_allport	71	17.0	1.332	to_board	poldrack-single-stim	s568	False
1.0	252.083	3.088	252.082	0	PA_without_intermediate	test	ward_and_allport	-1	17.0	n/a	feedback	poldrack-single-stim	s568	False
3.271	255.177	3.271	258.448	1	PA_without_intermediate	test	ward_and_allport	89	18.0	3.271	to_hand	poldrack-single-stim	s568	False
0.1	258.449	0.411	258.86	0	PA_without_intermediate	test	ward_and_allport	82	18.0	0.411	to_board	poldrack-single-stim	s568	False
0.1	258.864	1.355	260.219	0	PA_without_intermediate	test	ward_and_allport	89	18.0	1.355	to_hand	poldrack-single-stim	s568	False
0.1	260.219	0.511	260.73	0	PA_without_intermediate	test	ward_and_allport	82	18.0	0.511	to_board	poldrack-single-stim	s568	False
0.1	260.736	1.184	261.92	0	PA_without_intermediate	test	ward_and_allport	89	18.0	1.184	to_hand	poldrack-single-stim	s568	False
0.1	261.92	0.504	262.424	0	PA_without_intermediate	test	ward_and_allport	71	18.0	0.504	to_board	poldrack-single-stim	s568	False
1.0	262.43	2.136	262.429	0	PA_without_intermediate	test	ward_and_allport	-1	18.0	n/a	feedback	poldrack-single-stim	s568	False
2.174	264.572	2.174	266.746	1	PA_without_intermediate	test	ward_and_allport	82	19.0	2.174	to_hand	poldrack-single-stim	s568	False
0.1	266.746	0.791	267.537	0	PA_without_intermediate	test	ward_and_allport	71	19.0	0.791	to_board	poldrack-single-stim	s568	False
0.1	267.543	0.5	268.043	0	PA_without_intermediate	test	ward_and_allport	82	19.0	0.5	to_hand	poldrack-single-stim	s568	False
0.1	268.043	0.475	268.518	0	PA_without_intermediate	test	ward_and_allport	71	19.0	0.475	to_board	poldrack-single-stim	s568	False
0.1	268.524	0.522	269.046	0	PA_without_intermediate	test	ward_and_allport	82	19.0	0.522	to_hand	poldrack-single-stim	s568	False
0.1	269.047	0.485	269.532	0	PA_without_intermediate	test	ward_and_allport	89	19.0	0.485	to_board	poldrack-single-stim	s568	False
1.0	269.538	7.168	269.537	0	PA_without_intermediate	test	ward_and_allport	-1	19.0	n/a	feedback	poldrack-single-stim	s568	False
3.17	276.712	3.17	279.882	1	PA_without_intermediate	test	ward_and_allport	71	20.0	3.17	to_hand	poldrack-single-stim	s568	False
0.1	279.883	0.429	280.312	0	PA_without_intermediate	test	ward_and_allport	89	20.0	0.429	to_board	poldrack-single-stim	s568	False
0.1	280.317	0.449	280.766	0	PA_without_intermediate	test	ward_and_allport	71	20.0	0.449	to_hand	poldrack-single-stim	s568	False
0.1	280.767	0.464	281.231	0	PA_without_intermediate	test	ward_and_allport	82	20.0	0.464	to_board	poldrack-single-stim	s568	False
0.1	281.237	0.577	281.814	0	PA_without_intermediate	test	ward_and_allport	71	20.0	0.577	to_hand	poldrack-single-stim	s568	False
0.1	281.814	0.382	282.196	0	PA_without_intermediate	test	ward_and_allport	89	20.0	0.382	to_board	poldrack-single-stim	s568	False
1.0	282.203	2.816	282.202	0	PA_without_intermediate	test	ward_and_allport	-1	20.0	n/a	feedback	poldrack-single-stim	s568	False
2.492	285.023	2.492	287.515	1	PA_with_intermediate	test	ward_and_allport	89	21.0	2.492	to_hand	poldrack-single-stim	s568	False
0.1	287.515	1.622	289.137	0	PA_with_intermediate	test	ward_and_allport	82	21.0	1.622	to_board	poldrack-single-stim	s568	False
0.1	289.142	0.849	289.991	0	PA_with_intermediate	test	ward_and_allport	89	21.0	0.849	to_hand	poldrack-single-stim	s568	False
0.1	289.991	0.464	290.455	0	PA_with_intermediate	test	ward_and_allport	71	21.0	0.464	to_board	poldrack-single-stim	s568	False
0.1	290.461	0.708	291.169	0	PA_with_intermediate	test	ward_and_allport	82	21.0	0.708	to_hand	poldrack-single-stim	s568	False
0.1	291.17	0.384	291.554	0	PA_with_intermediate	test	ward_and_allport	89	21.0	0.384	to_board	poldrack-single-stim	s568	False
1.0	291.562	2.952	291.561	0	PA_with_intermediate	test	ward_and_allport	-1	21.0	n/a	feedback	poldrack-single-stim	s568	False
2.979	294.519	2.979	297.498	1	PA_with_intermediate	test	ward_and_allport	71	22.0	2.979	to_hand	poldrack-single-stim	s568	False
0.1	297.499	0.497	297.996	0	PA_with_intermediate	test	ward_and_allport	89	22.0	0.497	to_board	poldrack-single-stim	s568	False
0.1	298.002	0.479	298.481	0	PA_with_intermediate	test	ward_and_allport	71	22.0	0.479	to_hand	poldrack-single-stim	s568	False
0.1	298.481	0.465	298.946	0	PA_with_intermediate	test	ward_and_allport	82	22.0	0.465	to_board	poldrack-single-stim	s568	False
0.1	298.952	0.884	299.836	0	PA_with_intermediate	test	ward_and_allport	89	22.0	0.884	to_hand	poldrack-single-stim	s568	False
0.1	299.838	0.367	300.205	0	PA_with_intermediate	test	ward_and_allport	82	22.0	0.367	to_board	poldrack-single-stim	s568	False
1.0	300.212	2.136	300.211	0	PA_with_intermediate	test	ward_and_allport	-1	22.0	n/a	feedback	poldrack-single-stim	s568	False
2.282	302.353	2.282	304.635	1	PA_without_intermediate	test	ward_and_allport	82	23.0	2.282	to_hand	poldrack-single-stim	s568	False
0.1	304.636	0.41	305.046	0	PA_without_intermediate	test	ward_and_allport	89	23.0	0.41	to_board	poldrack-single-stim	s568	False
0.1	305.053	0.487	305.54	0	PA_without_intermediate	test	ward_and_allport	82	23.0	0.487	to_hand	poldrack-single-stim	s568	False
0.1	305.54	0.407	305.947	0	PA_without_intermediate	test	ward_and_allport	89	23.0	0.407	to_board	poldrack-single-stim	s568	False
0.1	305.953	0.675	306.628	0	PA_without_intermediate	test	ward_and_allport	82	23.0	0.675	to_hand	poldrack-single-stim	s568	False
0.1	306.629	0.392	307.021	0	PA_without_intermediate	test	ward_and_allport	71	23.0	0.392	to_board	poldrack-single-stim	s568	False
1.0	307.028	2.68	307.027	0	PA_without_intermediate	test	ward_and_allport	-1	23.0	n/a	feedback	poldrack-single-stim	s568	False
1.885	309.714	1.885	311.599	1	PA_without_intermediate	test	ward_and_allport	89	24.0	1.885	to_hand	poldrack-single-stim	s568	False
0.1	311.601	0.486	312.087	0	PA_without_intermediate	test	ward_and_allport	82	24.0	0.486	to_board	poldrack-single-stim	s568	False
0.1	312.093	0.523	312.616	0	PA_without_intermediate	test	ward_and_allport	89	24.0	0.523	to_hand	poldrack-single-stim	s568	False
0.1	312.617	0.451	313.068	0	PA_without_intermediate	test	ward_and_allport	82	24.0	0.451	to_board	poldrack-single-stim	s568	False
0.1	313.075	0.619	313.694	0	PA_without_intermediate	test	ward_and_allport	89	24.0	0.619	to_hand	poldrack-single-stim	s568	False
0.1	313.694	0.32	314.014	0	PA_without_intermediate	test	ward_and_allport	71	24.0	0.32	to_board	poldrack-single-stim	s568	False
1.0	314.023	3.088	314.022	0	PA_without_intermediate	test	ward_and_allport	-1	24.0	n/a	feedback	poldrack-single-stim	s568	False
2.351	317.118	2.351	319.469	1	PA_with_intermediate	test	ward_and_allport	71	25.0	2.351	to_hand	poldrack-single-stim	s568	False
0.1	319.47	1.345	320.815	0	PA_with_intermediate	test	ward_and_allport	89	25.0	1.345	to_board	poldrack-single-stim	s568	False
0.1	320.821	0.522	321.343	0	PA_with_intermediate	test	ward_and_allport	71	25.0	0.522	to_hand	poldrack-single-stim	s568	False
0.1	321.343	0.456	321.799	0	PA_with_intermediate	test	ward_and_allport	82	25.0	0.456	to_board	poldrack-single-stim	s568	False
0.1	321.806	0.63	322.436	0	PA_with_intermediate	test	ward_and_allport	89	25.0	0.63	to_hand	poldrack-single-stim	s568	False
0.1	322.436	0.29	322.726	0	PA_with_intermediate	test	ward_and_allport	71	25.0	0.29	to_board	poldrack-single-stim	s568	False
1.0	322.734	2.0	322.733	0	PA_with_intermediate	test	ward_and_allport	-1	25.0	n/a	feedback	poldrack-single-stim	s568	False
1.688	324.74	1.688	326.428	1	PA_without_intermediate	test	ward_and_allport	71	26.0	1.688	to_hand	poldrack-single-stim	s568	False
0.1	326.429	0.298	326.727	0	PA_without_intermediate	test	ward_and_allport	89	26.0	0.298	to_board	poldrack-single-stim	s568	False
0.1	326.733	2.005	328.738	0	PA_without_intermediate	test	ward_and_allport	71	26.0	2.005	to_hand	poldrack-single-stim	s568	False
0.1	328.739	0.324	329.063	0	PA_without_intermediate	test	ward_and_allport	89	26.0	0.324	to_board	poldrack-single-stim	s568	False
0.1	329.071	0.494	329.565	0	PA_without_intermediate	test	ward_and_allport	71	26.0	0.494	to_hand	poldrack-single-stim	s568	False
0.1	329.565	0.534	330.099	0	PA_without_intermediate	test	ward_and_allport	82	26.0	0.534	to_board	poldrack-single-stim	s568	False
1.0	330.108	2.0	330.107	0	PA_without_intermediate	test	ward_and_allport	-1	26.0	n/a	feedback	poldrack-single-stim	s568	False
2.12	332.115	2.12	334.235	1	PA_without_intermediate	test	ward_and_allport	82	27.0	2.12	to_hand	poldrack-single-stim	s568	False
0.1	334.235	0.398	334.633	0	PA_without_intermediate	test	ward_and_allport	71	27.0	0.398	to_board	poldrack-single-stim	s568	False
0.1	334.641	1.022	335.663	0	PA_without_intermediate	test	ward_and_allport	82	27.0	1.022	to_hand	poldrack-single-stim	s568	False
0.1	335.664	0.356	336.02	0	PA_without_intermediate	test	ward_and_allport	71	27.0	0.356	to_board	poldrack-single-stim	s568	False
0.1	336.027	0.761	336.788	0	PA_without_intermediate	test	ward_and_allport	82	27.0	0.761	to_hand	poldrack-single-stim	s568	False
0.1	336.788	0.844	337.632	0	PA_without_intermediate	test	ward_and_allport	89	27.0	0.844	to_board	poldrack-single-stim	s568	False
1.0	337.641	2.0	337.64	0	PA_without_intermediate	test	ward_and_allport	-1	27.0	n/a	feedback	poldrack-single-stim	s568	False
1.398	339.648	1.398	341.046	1	PA_with_intermediate	test	ward_and_allport	71	28.0	1.398	to_hand	poldrack-single-stim	s568	False
0.1	341.047	0.647	341.694	0	PA_with_intermediate	test	ward_and_allport	82	28.0	0.647	to_board	poldrack-single-stim	s568	False
0.1	341.701	2.985	344.686	0	PA_with_intermediate	test	ward_and_allport	82	28.0	2.985	to_hand	poldrack-single-stim	s568	False
0.1	344.688	0.905	345.593	0	PA_with_intermediate	test	ward_and_allport	89	28.0	0.905	to_board	poldrack-single-stim	s568	False
0.1	345.599	0.513	346.112	0	PA_with_intermediate	test	ward_and_allport	71	28.0	0.513	to_hand	poldrack-single-stim	s568	False
0.1	346.114	0.541	346.655	0	PA_with_intermediate	test	ward_and_allport	82	28.0	0.541	to_board	poldrack-single-stim	s568	False
0.1	346.662	0.769	347.431	0	PA_with_intermediate	test	ward_and_allport	89	28.0	0.769	to_hand	poldrack-single-stim	s568	False
0.1	347.432	0.486	347.918	0	PA_with_intermediate	test	ward_and_allport	82	28.0	0.486	to_board	poldrack-single-stim	s568	False
1.0	347.926	2.544	347.925	0	PA_with_intermediate	test	ward_and_allport	-1	28.0	n/a	feedback	poldrack-single-stim	s568	False
2.332	350.477	2.332	352.809	1	PA_without_intermediate	test	ward_and_allport	89	29.0	2.332	to_hand	poldrack-single-stim	s568	False
0.1	352.809	0.397	353.206	0	PA_without_intermediate	test	ward_and_allport	82	29.0	0.397	to_board	poldrack-single-stim	s568	False
0.1	353.214	1.107	354.321	0	PA_without_intermediate	test	ward_and_allport	89	29.0	1.107	to_hand	poldrack-single-stim	s568	False
0.1	354.321	0.398	354.719	0	PA_without_intermediate	test	ward_and_allport	71	29.0	0.398	to_board	poldrack-single-stim	s568	False
0.1	354.726	0.416	355.142	0	PA_without_intermediate	test	ward_and_allport	89	29.0	0.416	to_hand	poldrack-single-stim	s568	False
0.1	355.144	0.364	355.508	0	PA_without_intermediate	test	ward_and_allport	82	29.0	0.364	to_board	poldrack-single-stim	s568	False
1.0	355.516	2.272	355.515	0	PA_without_intermediate	test	ward_and_allport	-1	29.0	n/a	feedback	poldrack-single-stim	s568	False
1.353	362.798	1.353	364.151	1	PA_with_intermediate	test	ward_and_allport	71	30.0	1.353	to_hand	poldrack-single-stim	s568	False
0.1	364.151	1.207	365.358	0	PA_with_intermediate	test	ward_and_allport	82	30.0	1.207	to_board	poldrack-single-stim	s568	False
0.1	365.366	0.468	365.834	0	PA_with_intermediate	test	ward_and_allport	71	30.0	0.468	to_hand	poldrack-single-stim	s568	False
0.1	365.835	0.374	366.209	0	PA_with_intermediate	test	ward_and_allport	89	30.0	0.374	to_board	poldrack-single-stim	s568	False
0.1	366.218	0.891	367.109	0	PA_with_intermediate	test	ward_and_allport	82	30.0	0.891	to_hand	poldrack-single-stim	s568	False
0.1	367.11	0.684	367.794	0	PA_with_intermediate	test	ward_and_allport	89	30.0	0.684	to_board	poldrack-single-stim	s568	False
1.0	367.804	4.04	367.803	0	PA_with_intermediate	test	ward_and_allport	-1	30.0	n/a	feedback	poldrack-single-stim	s568	False
2.158	371.852	2.158	374.01	1	PA_with_intermediate	test	ward_and_allport	71	31.0	2.158	to_hand	poldrack-single-stim	s568	False
0.1	374.01	1.526	375.536	0	PA_with_intermediate	test	ward_and_allport	89	31.0	1.526	to_board	poldrack-single-stim	s568	False
0.1	375.545	0.371	375.916	0	PA_with_intermediate	test	ward_and_allport	71	31.0	0.371	to_hand	poldrack-single-stim	s568	False
0.1	375.917	0.385	376.302	0	PA_with_intermediate	test	ward_and_allport	82	31.0	0.385	to_board	poldrack-single-stim	s568	False
0.1	376.311	0.86	377.171	0	PA_with_intermediate	test	ward_and_allport	89	31.0	0.86	to_hand	poldrack-single-stim	s568	False
0.1	377.171	0.453	377.624	0	PA_with_intermediate	test	ward_and_allport	71	31.0	0.453	to_board	poldrack-single-stim	s568	False
1.0	377.633	2.272	377.632	0	PA_with_intermediate	test	ward_and_allport	-1	31.0	n/a	feedback	poldrack-single-stim	s568	False
2.02	379.911	2.02	381.931	1	PA_with_intermediate	test	ward_and_allport	82	32.0	2.02	to_hand	poldrack-single-stim	s568	False
0.1	381.933	1.02	382.953	0	PA_with_intermediate	test	ward_and_allport	71	32.0	1.02	to_board	poldrack-single-stim	s568	False
0.1	382.959	0.578	383.537	0	PA_with_intermediate	test	ward_and_allport	82	32.0	0.578	to_hand	poldrack-single-stim	s568	False
0.1	383.539	0.404	383.943	0	PA_with_intermediate	test	ward_and_allport	89	32.0	0.404	to_board	poldrack-single-stim	s568	False
0.1	383.951	1.216	385.167	0	PA_with_intermediate	test	ward_and_allport	71	32.0	1.216	to_hand	poldrack-single-stim	s568	False
0.1	385.168	0.388	385.556	0	PA_with_intermediate	test	ward_and_allport	89	32.0	0.388	to_board	poldrack-single-stim	s568	False
1.0	385.566	2.136	385.565	0	PA_with_intermediate	test	ward_and_allport	-1	32.0	n/a	feedback	poldrack-single-stim	s568	False
2.478	387.709	2.478	390.187	1	PA_with_intermediate	test	ward_and_allport	82	33.0	2.478	to_hand	poldrack-single-stim	s568	False
0.1	390.189	1.436	391.625	0	PA_with_intermediate	test	ward_and_allport	71	33.0	1.436	to_board	poldrack-single-stim	s568	False
0.1	391.63	1.435	393.065	0	PA_with_intermediate	test	ward_and_allport	71	33.0	1.435	to_hand	poldrack-single-stim	s568	False
0.1	393.066	0.368	393.434	0	PA_with_intermediate	test	ward_and_allport	89	33.0	0.368	to_board	poldrack-single-stim	s568	False
0.1	393.442	0.723	394.165	0	PA_with_intermediate	test	ward_and_allport	82	33.0	0.723	to_hand	poldrack-single-stim	s568	False
0.1	394.165	0.42	394.585	0	PA_with_intermediate	test	ward_and_allport	71	33.0	0.42	to_board	poldrack-single-stim	s568	False
0.1	394.595	0.613	395.208	0	PA_with_intermediate	test	ward_and_allport	89	33.0	0.613	to_hand	poldrack-single-stim	s568	False
0.1	395.209	0.301	395.51	0	PA_with_intermediate	test	ward_and_allport	82	33.0	0.301	to_board	poldrack-single-stim	s568	False
1.0	395.518	2.0	395.517	0	PA_with_intermediate	test	ward_and_allport	-1	33.0	n/a	feedback	poldrack-single-stim	s568	False
3.447	397.524	3.447	400.971	1	PA_with_intermediate	test	ward_and_allport	71	34.0	3.447	to_hand	poldrack-single-stim	s568	False
0.1	400.972	0.522	401.494	0	PA_with_intermediate	test	ward_and_allport	82	34.0	0.522	to_board	poldrack-single-stim	s568	False
0.1	401.5	0.453	401.953	0	PA_with_intermediate	test	ward_and_allport	71	34.0	0.453	to_hand	poldrack-single-stim	s568	False
0.1	401.954	0.356	402.31	0	PA_with_intermediate	test	ward_and_allport	89	34.0	0.356	to_board	poldrack-single-stim	s568	False
0.1	402.319	0.911	403.23	0	PA_with_intermediate	test	ward_and_allport	82	34.0	0.911	to_hand	poldrack-single-stim	s568	False
0.1	403.231	0.248	403.479	0	PA_with_intermediate	test	ward_and_allport	71	34.0	0.248	to_board	poldrack-single-stim	s568	False
1.0	403.489	2.0	403.488	0	PA_with_intermediate	test	ward_and_allport	-1	34.0	n/a	feedback	poldrack-single-stim	s568	False
2.29	405.499	2.29	407.789	1	PA_without_intermediate	test	ward_and_allport	71	35.0	2.29	to_hand	poldrack-single-stim	s568	False
0.1	407.79	0.353	408.143	0	PA_without_intermediate	test	ward_and_allport	82	35.0	0.353	to_board	poldrack-single-stim	s568	False
0.1	408.15	0.446	408.596	0	PA_without_intermediate	test	ward_and_allport	71	35.0	0.446	to_hand	poldrack-single-stim	s568	False
0.1	408.598	0.356	408.954	0	PA_without_intermediate	test	ward_and_allport	82	35.0	0.356	to_board	poldrack-single-stim	s568	False
0.1	408.96	1.189	410.149	0	PA_without_intermediate	test	ward_and_allport	71	35.0	1.189	to_hand	poldrack-single-stim	s568	False
0.1	410.149	0.341	410.49	0	PA_without_intermediate	test	ward_and_allport	89	35.0	0.341	to_board	poldrack-single-stim	s568	False
1.0	410.497	2.408	410.496	0	PA_without_intermediate	test	ward_and_allport	-1	35.0	n/a	feedback	poldrack-single-stim	s568	False
3.071	412.914	3.071	415.985	1	PA_with_intermediate	test	ward_and_allport	89	36.0	3.071	to_hand	poldrack-single-stim	s568	False
0.1	415.986	0.373	416.359	0	PA_with_intermediate	test	ward_and_allport	71	36.0	0.373	to_board	poldrack-single-stim	s568	False
0.1	416.369	0.479	416.848	0	PA_with_intermediate	test	ward_and_allport	89	36.0	0.479	to_hand	poldrack-single-stim	s568	False
0.1	416.848	0.631	417.479	0	PA_with_intermediate	test	ward_and_allport	82	36.0	0.631	to_board	poldrack-single-stim	s568	False
0.1	417.488	0.776	418.264	0	PA_with_intermediate	test	ward_and_allport	71	36.0	0.776	to_hand	poldrack-single-stim	s568	False
0.1	418.265	0.537	418.802	0	PA_with_intermediate	test	ward_and_allport	82	36.0	0.537	to_board	poldrack-single-stim	s568	False
1.0	418.811	3.768	418.81	0	PA_with_intermediate	test	ward_and_allport	-1	36.0	n/a	feedback	poldrack-single-stim	s568	False
3.159	422.587	3.159	425.746	1	PA_with_intermediate	test	ward_and_allport	71	37.0	3.159	to_hand	poldrack-single-stim	s568	False
0.1	425.747	0.858	426.605	0	PA_with_intermediate	test	ward_and_allport	82	37.0	0.858	to_board	poldrack-single-stim	s568	False
0.1	426.613	0.316	426.929	0	PA_with_intermediate	test	ward_and_allport	71	37.0	0.316	to_hand	poldrack-single-stim	s568	False
0.1	426.929	0.323	427.252	0	PA_with_intermediate	test	ward_and_allport	89	37.0	0.323	to_board	poldrack-single-stim	s568	False
0.1	427.261	0.568	427.829	0	PA_with_intermediate	test	ward_and_allport	82	37.0	0.568	to_hand	poldrack-single-stim	s568	False
0.1	427.831	0.339	428.17	0	PA_with_intermediate	test	ward_and_allport	71	37.0	0.339	to_board	poldrack-single-stim	s568	False
1.0	428.179	2.68	428.178	0	PA_with_intermediate	test	ward_and_allport	-1	37.0	n/a	feedback	poldrack-single-stim	s568	False
2.983	430.867	2.983	433.85	1	PA_without_intermediate	test	ward_and_allport	82	38.0	2.983	to_hand	poldrack-single-stim	s568	False
0.1	433.85	1.134	434.984	0	PA_without_intermediate	test	ward_and_allport	89	38.0	1.134	to_board	poldrack-single-stim	s568	False
0.1	434.993	0.967	435.96	0	PA_without_intermediate	test	ward_and_allport	82	38.0	0.967	to_hand	poldrack-single-stim	s568	False
0.1	435.961	0.548	436.509	0	PA_without_intermediate	test	ward_and_allport	71	38.0	0.548	to_board	poldrack-single-stim	s568	False
0.1	436.518	0.436	436.954	0	PA_without_intermediate	test	ward_and_allport	82	38.0	0.436	to_hand	poldrack-single-stim	s568	False
0.1	436.955	0.438	437.393	0	PA_without_intermediate	test	ward_and_allport	89	38.0	0.438	to_board	poldrack-single-stim	s568	False
1.0	437.404	3.224	437.403	0	PA_without_intermediate	test	ward_and_allport	-1	38.0	n/a	feedback	poldrack-single-stim	s568	False
2.853	440.635	2.853	443.488	1	PA_without_intermediate	test	ward_and_allport	71	39.0	2.853	to_hand	poldrack-single-stim	s568	False
0.1	443.489	0.377	443.866	0	PA_without_intermediate	test	ward_and_allport	82	39.0	0.377	to_board	poldrack-single-stim	s568	False
0.1	443.874	0.572	444.446	0	PA_without_intermediate	test	ward_and_allport	71	39.0	0.572	to_hand	poldrack-single-stim	s568	False
0.1	444.447	0.313	444.76	0	PA_without_intermediate	test	ward_and_allport	82	39.0	0.313	to_board	poldrack-single-stim	s568	False
0.1	444.769	1.49	446.259	0	PA_without_intermediate	test	ward_and_allport	71	39.0	1.49	to_hand	poldrack-single-stim	s568	False
0.1	446.259	0.239	446.498	0	PA_without_intermediate	test	ward_and_allport	89	39.0	0.239	to_board	poldrack-single-stim	s568	False
1.0	446.509	3.36	446.508	0	PA_without_intermediate	test	ward_and_allport	-1	39.0	n/a	feedback	poldrack-single-stim	s568	False
2.425	449.877	2.425	452.302	1	PA_without_intermediate	test	ward_and_allport	89	40.0	2.425	to_hand	poldrack-single-stim	s568	False
0.1	452.303	0.245	452.548	0	PA_without_intermediate	test	ward_and_allport	71	40.0	0.245	to_board	poldrack-single-stim	s568	False
0.1	452.557	0.554	453.111	0	PA_without_intermediate	test	ward_and_allport	89	40.0	0.554	to_hand	poldrack-single-stim	s568	False
0.1	453.111	0.208	453.319	0	PA_without_intermediate	test	ward_and_allport	71	40.0	0.208	to_board	poldrack-single-stim	s568	False
0.1	453.328	0.597	453.925	0	PA_without_intermediate	test	ward_and_allport	89	40.0	0.597	to_hand	poldrack-single-stim	s568	False
0.1	453.926	0.217	454.143	0	PA_without_intermediate	test	ward_and_allport	71	40.0	0.217	to_board	poldrack-single-stim	s568	False
0.1	454.152	1.804	455.956	0	PA_without_intermediate	test	ward_and_allport	71	40.0	1.804	to_hand	poldrack-single-stim	s568	False
0.1	455.957	0.265	456.222	0	PA_without_intermediate	test	ward_and_allport	82	40.0	0.265	to_board	poldrack-single-stim	s568	False
1.0	456.233	2.0	456.232	0	PA_without_intermediate	test	ward_and_allport	-1	40.0	n/a	feedback	poldrack-single-stim	s568	False
1.743	458.243	1.743	459.986	1	PA_without_intermediate	test	ward_and_allport	71	41.0	1.743	to_hand	poldrack-single-stim	s568	False
0.1	459.987	0.261	460.248	0	PA_without_intermediate	test	ward_and_allport	82	41.0	0.261	to_board	poldrack-single-stim	s568	False
0.1	460.254	0.993	461.247	0	PA_without_intermediate	test	ward_and_allport	71	41.0	0.993	to_hand	poldrack-single-stim	s568	False
0.1	461.248	0.323	461.571	0	PA_without_intermediate	test	ward_and_allport	89	41.0	0.323	to_board	poldrack-single-stim	s568	False
0.1	461.579	0.529	462.108	0	PA_without_intermediate	test	ward_and_allport	71	41.0	0.529	to_hand	poldrack-single-stim	s568	False
0.1	462.109	0.516	462.625	0	PA_without_intermediate	test	ward_and_allport	82	41.0	0.516	to_board	poldrack-single-stim	s568	False
1.0	462.633	2.408	462.632	0	PA_without_intermediate	test	ward_and_allport	-1	41.0	n/a	feedback	poldrack-single-stim	s568	False
3.361	465.048	3.361	468.409	1	PA_with_intermediate	test	ward_and_allport	82	42.0	3.361	to_hand	poldrack-single-stim	s568	False
0.1	468.411	0.347	468.758	0	PA_with_intermediate	test	ward_and_allport	71	42.0	0.347	to_board	poldrack-single-stim	s568	False
0.1	468.764	0.917	469.681	0	PA_with_intermediate	test	ward_and_allport	82	42.0	0.917	to_hand	poldrack-single-stim	s568	False
0.1	469.682	0.336	470.018	0	PA_with_intermediate	test	ward_and_allport	89	42.0	0.336	to_board	poldrack-single-stim	s568	False
0.1	470.024	1.288	471.312	0	PA_with_intermediate	test	ward_and_allport	71	42.0	1.288	to_hand	poldrack-single-stim	s568	False
0.1	471.313	0.354	471.667	0	PA_with_intermediate	test	ward_and_allport	82	42.0	0.354	to_board	poldrack-single-stim	s568	False
1.0	471.679	2.136	471.678	0	PA_with_intermediate	test	ward_and_allport	-1	42.0	n/a	feedback	poldrack-single-stim	s568	False
2.049	473.825	2.049	475.874	1	PA_without_intermediate	test	ward_and_allport	82	43.0	2.049	to_hand	poldrack-single-stim	s568	False
0.1	475.874	0.315	476.189	0	PA_without_intermediate	test	ward_and_allport	71	43.0	0.315	to_board	poldrack-single-stim	s568	False
0.1	476.198	1.223	477.421	0	PA_without_intermediate	test	ward_and_allport	82	43.0	1.223	to_hand	poldrack-single-stim	s568	False
0.1	477.422	0.364	477.786	0	PA_without_intermediate	test	ward_and_allport	89	43.0	0.364	to_board	poldrack-single-stim	s568	False
0.1	477.793	0.817	478.61	0	PA_without_intermediate	test	ward_and_allport	82	43.0	0.817	to_hand	poldrack-single-stim	s568	False
0.1	478.61	0.359	478.969	0	PA_without_intermediate	test	ward_and_allport	71	43.0	0.359	to_board	poldrack-single-stim	s568	False
1.0	478.978	5.128	478.977	0	PA_without_intermediate	test	ward_and_allport	-1	43.0	n/a	feedback	poldrack-single-stim	s568	False
1.996	484.114	1.996	486.11	1	PA_without_intermediate	test	ward_and_allport	89	44.0	1.996	to_hand	poldrack-single-stim	s568	False
0.1	486.111	0.512	486.623	0	PA_without_intermediate	test	ward_and_allport	71	44.0	0.512	to_board	poldrack-single-stim	s568	False
0.1	486.631	0.694	487.325	0	PA_without_intermediate	test	ward_and_allport	89	44.0	0.694	to_hand	poldrack-single-stim	s568	False
0.1	487.325	0.379	487.704	0	PA_without_intermediate	test	ward_and_allport	82	44.0	0.379	to_board	poldrack-single-stim	s568	False
0.1	487.715	0.538	488.253	0	PA_without_intermediate	test	ward_and_allport	89	44.0	0.538	to_hand	poldrack-single-stim	s568	False
0.1	488.254	0.363	488.617	0	PA_without_intermediate	test	ward_and_allport	71	44.0	0.363	to_board	poldrack-single-stim	s568	False
1.0	488.629	2.136	488.628	0	PA_without_intermediate	test	ward_and_allport	-1	44.0	n/a	feedback	poldrack-single-stim	s568	False
1.553	495.779	1.553	497.332	1	PA_without_intermediate	test	ward_and_allport	82	45.0	1.553	to_hand	poldrack-single-stim	s568	False
0.1	497.333	0.346	497.679	0	PA_without_intermediate	test	ward_and_allport	89	45.0	0.346	to_board	poldrack-single-stim	s568	False
0.1	497.69	0.607	498.297	0	PA_without_intermediate	test	ward_and_allport	82	45.0	0.607	to_hand	poldrack-single-stim	s568	False
0.1	498.299	0.519	498.818	0	PA_without_intermediate	test	ward_and_allport	71	45.0	0.519	to_board	poldrack-single-stim	s568	False
0.1	498.829	0.492	499.321	0	PA_without_intermediate	test	ward_and_allport	82	45.0	0.492	to_hand	poldrack-single-stim	s568	False
0.1	499.322	0.489	499.811	0	PA_without_intermediate	test	ward_and_allport	89	45.0	0.489	to_board	poldrack-single-stim	s568	False
1.0	499.822	5.264	499.821	0	PA_without_intermediate	test	ward_and_allport	-1	45.0	n/a	feedback	poldrack-single-stim	s568	False
2.042	505.096	2.042	507.138	1	PA_with_intermediate	test	ward_and_allport	89	46.0	2.042	to_hand	poldrack-single-stim	s568	False
0.1	507.14	0.498	507.638	0	PA_with_intermediate	test	ward_and_allport	71	46.0	0.498	to_board	poldrack-single-stim	s568	False
0.1	507.649	0.333	507.982	0	PA_with_intermediate	test	ward_and_allport	89	46.0	0.333	to_hand	poldrack-single-stim	s568	False
0.1	507.982	0.438	508.42	0	PA_with_intermediate	test	ward_and_allport	82	46.0	0.438	to_board	poldrack-single-stim	s568	False
0.1	508.432	0.422	508.854	0	PA_with_intermediate	test	ward_and_allport	89	46.0	0.422	to_hand	poldrack-single-stim	s568	False
0.1	508.854	1.608	510.462	0	PA_with_intermediate	test	ward_and_allport	89	46.0	1.608	to_board	poldrack-single-stim	s568	False
0.1	510.474	0.808	511.282	0	PA_with_intermediate	test	ward_and_allport	71	46.0	0.808	to_hand	poldrack-single-stim	s568	False
0.1	511.282	0.242	511.524	0	PA_with_intermediate	test	ward_and_allport	89	46.0	0.242	to_board	poldrack-single-stim	s568	False
1.0	511.532	4.04	511.531	0	PA_with_intermediate	test	ward_and_allport	-1	46.0	n/a	feedback	poldrack-single-stim	s568	False
3.65	515.579	3.65	519.229	1	PA_with_intermediate	test	ward_and_allport	89	47.0	3.65	to_hand	poldrack-single-stim	s568	False
0.1	519.23	1.151	520.381	0	PA_with_intermediate	test	ward_and_allport	71	47.0	1.151	to_board	poldrack-single-stim	s568	False
0.1	520.393	0.482	520.875	0	PA_with_intermediate	test	ward_and_allport	89	47.0	0.482	to_hand	poldrack-single-stim	s568	False
0.1	520.875	0.416	521.291	0	PA_with_intermediate	test	ward_and_allport	82	47.0	0.416	to_board	poldrack-single-stim	s568	False
0.1	521.302	0.74	522.042	0	PA_with_intermediate	test	ward_and_allport	71	47.0	0.74	to_hand	poldrack-single-stim	s568	False
0.1	522.042	0.35	522.392	0	PA_with_intermediate	test	ward_and_allport	82	47.0	0.35	to_board	poldrack-single-stim	s568	False
1.0	522.403	2.136	522.402	0	PA_with_intermediate	test	ward_and_allport	-1	47.0	n/a	feedback	poldrack-single-stim	s568	False
