onset	duration	movement_onset	EV	action	block_duration	experiment_exp_id	gain_amount	gain_probability	key_press	loss_amount	loss_probability	num_cards	num_click_in_round	num_loss_cards	risk	response_time	total_cards	trial_id	trial_type	worker_id	junk	feedback
3.01	3.848	6.858	-0.4620372173943603	draw_card	3.848	columbia_card_task_fmri	12.0	0.8333333333333334	89.0	-70.0	0.1666666666666666	6.0	1.0	1.0	-2.16288746033958	3.848	n/a	stim	poldrack-single-stim	s568	False	1
6.861	1.046	7.907	-3.195370550727693	draw_card	1.046	columbia_card_task_fmri	12.0	0.8	89.0	-70.0	0.2	6.0	2.0	1.0	0.075896866310714	1.046	n/a	stim	poldrack-single-stim	s568	False	1
7.907	0.527	8.434	-7.295370550727695	end_round	0.527	columbia_card_task_fmri	12.0	0.75	71.0	-70.0	0.25	6.0	3.0	1.0	2.781253510027426	0.527	2.0	stim	poldrack-single-stim	s568	False	1
9.187	1.5	8.436	n/a	-1.0	2.25	columbia_card_task_fmri	n/a	n/a	-1.0	n/a	n/a	n/a	n/a	n/a	n/a	n/a	n/a	ITI	poldrack-single-stim	s568	False	0
10.689	4.253	14.942	0.3712961159389736	draw_card	4.253	columbia_card_task_fmri	14.0	0.8333333333333334	89.0	-75.0	0.1666666666666666	6.0	1.0	1.0	0.4439931204501519	4.253	n/a	stim	poldrack-single-stim	s568	False	1
14.943	0.683	15.626	-2.595370550727693	draw_card	0.683	columbia_card_task_fmri	14.0	0.8	89.0	-75.0	0.2	6.0	2.0	1.0	2.8741586425448205	0.683	n/a	stim	poldrack-single-stim	s568	False	1
15.628	0.529	16.157	-7.045370550727695	end_round	0.529	columbia_card_task_fmri	14.0	0.75	71.0	-75.0	0.25	6.0	3.0	1.0	5.810736501162275	0.529	2.0	stim	poldrack-single-stim	s568	False	1
16.909	1.5	16.158	n/a	-1.0	2.386	columbia_card_task_fmri	n/a	n/a	-1.0	n/a	n/a	n/a	n/a	n/a	n/a	n/a	n/a	ITI	poldrack-single-stim	s568	False	0
18.547	3.05	21.597	2.03796278260564	draw_card	3.05	columbia_card_task_fmri	15.0	0.8333333333333334	89.0	-70.0	0.1666666666666666	6.0	1.0	1.0	-1.0456905064499544	3.05	n/a	stim	poldrack-single-stim	s568	False	1
21.598	0.511	22.109	-0.7953705507276942	draw_card	0.511	columbia_card_task_fmri	15.0	0.8	89.0	-70.0	0.2	6.0	2.0	1.0	1.2751168895297624	0.511	n/a	stim	poldrack-single-stim	s568	False	1
22.111	0.417	22.528	-5.045370550727695	end_round	0.417	columbia_card_task_fmri	15.0	0.75	71.0	-70.0	0.25	6.0	3.0	1.0	4.079571000948583	0.417	2.0	stim	poldrack-single-stim	s568	False	1
23.281	1.5	22.53	n/a	-1.0	2.59	columbia_card_task_fmri	n/a	n/a	-1.0	n/a	n/a	n/a	n/a	n/a	n/a	n/a	n/a	ITI	poldrack-single-stim	s568	False	0
25.121	3.409	28.53	2.8712961159389736	draw_card	3.409	columbia_card_task_fmri	17.0	0.8333333333333334	89.0	-75.0	0.1666666666666666	6.0	1.0	1.0	1.5613144677385122	3.409	n/a	stim	poldrack-single-stim	s568	False	1
28.532	0.519	29.051	-0.1953705507276928	draw_card	0.519	columbia_card_task_fmri	17.0	0.8	89.0	-75.0	0.2	6.0	2.0	1.0	4.073494594279154	0.519	2.0	stim	poldrack-single-stim	s568	False	0
29.806	1.5	29.055	n/a	-1.0	2.658	columbia_card_task_fmri	n/a	n/a	-1.0	n/a	n/a	n/a	n/a	n/a	n/a	n/a	n/a	ITI	poldrack-single-stim	s568	False	0
31.715	3.681	35.396	4.204629449272305	draw_card	3.681	columbia_card_task_fmri	24.0	0.75	89.0	-60.0	0.25	8.0	1.0	2.0	3.646792789529968	3.681	n/a	stim	poldrack-single-stim	s568	False	1
35.398	0.584	35.982	1.2046294492723058	draw_card	0.584	columbia_card_task_fmri	24.0	0.7142857142857143	89.0	-60.0	0.2857142857142857	8.0	2.0	2.0	5.220230856143353	0.584	n/a	stim	poldrack-single-stim	s568	False	1
35.984	2.148	38.132	-2.7953705507276942	end_round	2.148	columbia_card_task_fmri	24.0	0.6666666666666667	71.0	-60.0	0.3333333333333333	8.0	3.0	2.0	6.87008222326763	2.148	2.0	stim	poldrack-single-stim	s568	False	1
38.884	1.5	38.133	n/a	-1.0	2.386	columbia_card_task_fmri	n/a	n/a	-1.0	n/a	n/a	n/a	n/a	n/a	n/a	n/a	n/a	ITI	poldrack-single-stim	s568	False	0
40.521	2.405	42.926	4.204629449272305	draw_card	2.405	columbia_card_task_fmri	29.0	0.75	89.0	-75.0	0.25	8.0	1.0	2.0	12.303213279873797	2.405	1.0	stim	poldrack-single-stim	s568	False	0
43.679	1.5	42.928	n/a	-1.0	2.386	columbia_card_task_fmri	n/a	n/a	-1.0	n/a	n/a	n/a	n/a	n/a	n/a	n/a	n/a	ITI	poldrack-single-stim	s568	False	0
45.317	3.639	48.956	-0.0175927729499139	draw_card	3.639	columbia_card_task_fmri	17.0	0.7777777777777778	89.0	-65.0	0.2222222222222222	9.0	1.0	2.0	1.3657163841151103	3.639	n/a	stim	poldrack-single-stim	s568	False	1
48.958	0.568	49.526	-2.2953705507276942	draw_card	0.568	columbia_card_task_fmri	17.0	0.75	89.0	-65.0	0.25	9.0	2.0	2.0	2.781253510027426	0.568	n/a	stim	poldrack-single-stim	s568	False	1
49.528	0.882	50.41	-5.223941979299122	end_round	0.882	columbia_card_task_fmri	17.0	0.7142857142857143	71.0	-65.0	0.2857142857142857	9.0	3.0	2.0	4.317188942278868	0.882	2.0	stim	poldrack-single-stim	s568	False	1
51.163	1.5	50.412	n/a	-1.0	2.25	columbia_card_task_fmri	n/a	n/a	-1.0	n/a	n/a	n/a	n/a	n/a	n/a	n/a	n/a	ITI	poldrack-single-stim	s568	False	0
52.665	2.537	55.202	4.304629449272305	draw_card	2.537	columbia_card_task_fmri	14.0	0.9	89.0	-95.0	0.1	10.0	1.0	1.0	-0.0240355541939862	2.537	n/a	stim	poldrack-single-stim	s568	False	1
55.204	1.27	56.474	3.0935183381611933	draw_card	1.27	columbia_card_task_fmri	14.0	0.8888888888888888	89.0	-95.0	0.1111111111111111	10.0	2.0	1.0	1.5303531112976927	1.27	n/a	stim	poldrack-single-stim	s568	False	1
56.475	0.572	57.047	1.5796294492723058	draw_card	0.572	columbia_card_task_fmri	14.0	0.875	89.0	-95.0	0.125	10.0	3.0	1.0	3.322266975326471	0.572	n/a	stim	poldrack-single-stim	s568	False	1
57.049	0.915	57.964	-0.3667991221562654	end_round	0.915	columbia_card_task_fmri	14.0	0.8571428571428572	71.0	-95.0	0.1428571428571428	10.0	4.0	1.0	5.414855960560956	0.915	3.0	stim	poldrack-single-stim	s568	False	1
58.718	1.5	57.967	n/a	-1.0	2.318	columbia_card_task_fmri	n/a	n/a	-1.0	n/a	n/a	n/a	n/a	n/a	n/a	n/a	n/a	ITI	poldrack-single-stim	s568	False	0
60.287	2.719	63.006	0.2046294492723057	draw_card	2.719	columbia_card_task_fmri	15.0	0.8	89.0	-65.0	0.2	10.0	1.0	2.0	-0.7235506836771464	2.719	n/a	stim	poldrack-single-stim	s568	False	1
63.008	0.61	63.618	-1.573148328505471	draw_card	0.61	columbia_card_task_fmri	15.0	0.7777777777777778	89.0	-65.0	0.2222222222222222	10.0	2.0	2.0	0.534768540249928	0.61	n/a	stim	poldrack-single-stim	s568	False	1
63.62	0.68	64.3	-3.7953705507276942	draw_card	0.68	columbia_card_task_fmri	15.0	0.75	89.0	-65.0	0.25	10.0	3.0	2.0	1.915738515246581	0.68	n/a	stim	poldrack-single-stim	s568	False	1
64.302	1.142	65.444	-6.652513407870549	end_round	1.142	columbia_card_task_fmri	15.0	0.7142857142857143	71.0	-65.0	0.2857142857142857	10.0	4.0	2.0	3.414170308936498	1.142	3.0	stim	poldrack-single-stim	s568	False	1
66.197	1.5	65.446	n/a	-1.0	2.25	columbia_card_task_fmri	n/a	n/a	-1.0	n/a	n/a	n/a	n/a	n/a	n/a	n/a	n/a	ITI	poldrack-single-stim	s568	False	0
67.698	2.581	70.279	1.8046294492723072	draw_card	2.581	columbia_card_task_fmri	17.0	0.8	89.0	-65.0	0.2	10.0	1.0	2.0	0.075896866310714	2.581	1.0	stim	poldrack-single-stim	s568	False	0
71.032	1.5	70.281	n/a	-1.0	2.25	columbia_card_task_fmri	n/a	n/a	-1.0	n/a	n/a	n/a	n/a	n/a	n/a	n/a	n/a	ITI	poldrack-single-stim	s568	False	0
72.534	2.894	75.428	0.3712961159389736	draw_card	2.894	columbia_card_task_fmri	13.0	0.8333333333333334	89.0	-70.0	0.1666666666666666	12.0	1.0	2.0	-1.7904951912732123	2.894	n/a	stim	poldrack-single-stim	s568	False	1
75.429	1.306	76.735	-0.8862796416367877	draw_card	1.306	columbia_card_task_fmri	13.0	0.8181818181818181	89.0	-70.0	0.1818181818181818	12.0	2.0	2.0	-0.7109071783023992	1.306	2.0	stim	poldrack-single-stim	s568	False	0
77.488	1.5	76.737	n/a	-1.0	2.386	columbia_card_task_fmri	n/a	n/a	-1.0	n/a	n/a	n/a	n/a	n/a	n/a	n/a	n/a	ITI	poldrack-single-stim	s568	False	0
79.127	2.749	81.876	0.3712961159389736	draw_card	2.749	columbia_card_task_fmri	15.0	0.8333333333333334	89.0	-80.0	0.1666666666666666	12.0	1.0	2.0	2.678680783623044	2.749	n/a	stim	poldrack-single-stim	s568	False	1
81.878	0.947	82.825	-1.0680978234549694	draw_card	0.947	columbia_card_task_fmri	15.0	0.8181818181818181	89.0	-80.0	0.1818181818181818	12.0	2.0	2.0	3.9145678419594887	0.947	n/a	stim	poldrack-single-stim	s568	False	1
82.827	0.532	83.359	-2.7953705507276942	end_round	0.532	columbia_card_task_fmri	15.0	0.8	71.0	-80.0	0.2	12.0	3.0	2.0	5.272872453271013	0.532	2.0	stim	poldrack-single-stim	s568	False	1
84.112	1.5	83.361	n/a	-1.0	2.386	columbia_card_task_fmri	n/a	n/a	-1.0	n/a	n/a	n/a	n/a	n/a	n/a	n/a	n/a	ITI	poldrack-single-stim	s568	False	0
85.75	3.104	88.854	-0.5953705507276932	draw_card	3.104	columbia_card_task_fmri	14.0	0.8	89.0	-65.0	0.2	15.0	1.0	3.0	-1.123263980344909	3.104	n/a	stim	poldrack-single-stim	s568	False	1
88.856	0.688	89.544	-1.7239419792991213	draw_card	0.688	columbia_card_task_fmri	14.0	0.7857142857142857	89.0	-65.0	0.2142857142857142	15.0	2.0	3.0	-0.3080948196481827	0.688	2.0	stim	poldrack-single-stim	s568	False	0
90.297	1.5	89.546	n/a	-1.0	2.726	columbia_card_task_fmri	n/a	n/a	-1.0	n/a	n/a	n/a	n/a	n/a	n/a	n/a	n/a	ITI	poldrack-single-stim	s568	False	0
92.275	2.993	95.268	-0.6703705507276942	end_round	2.993	columbia_card_task_fmri	1.0	0.9375	71.0	-45.0	0.0625	16.0	1.0	1.0	-21.54641717289358	2.993	0.0	stim	poldrack-single-stim	s568	False	1
96.022	1.5	95.271	n/a	-1.0	2.454	columbia_card_task_fmri	n/a	n/a	-1.0	n/a	n/a	n/a	n/a	n/a	n/a	n/a	n/a	ITI	poldrack-single-stim	s568	False	0
97.728	3.829	101.557	0.2671294492723057	draw_card	3.829	columbia_card_task_fmri	15.0	0.8125	89.0	-70.0	0.1875	16.0	1.0	3.0	0.4521979125734248	3.829	n/a	stim	poldrack-single-stim	s568	False	1
101.559	0.701	102.26	-0.7953705507276942	draw_card	0.701	columbia_card_task_fmri	15.0	0.8	89.0	-70.0	0.2	16.0	2.0	3.0	1.2751168895297624	0.701	n/a	stim	poldrack-single-stim	s568	False	1
102.261	1.004	103.265	-2.009656265013409	draw_card	1.004	columbia_card_task_fmri	15.0	0.7857142857142857	89.0	-70.0	0.2142857142857142	16.0	3.0	3.0	2.1522821362791547	1.004	n/a	stim	poldrack-single-stim	s568	False	1
103.268	2.028	105.296	-3.410755166112311	draw_card	2.028	columbia_card_task_fmri	15.0	0.7692307692307692	89.0	-70.0	0.2307692307692307	16.0	4.0	3.0	3.0866664980675083	2.028	n/a	stim	poldrack-single-stim	s568	False	1
105.298	0.562	105.86	-5.045370550727695	end_round	0.562	columbia_card_task_fmri	15.0	0.75	71.0	-70.0	0.25	16.0	5.0	3.0	4.079571000948583	0.562	4.0	stim	poldrack-single-stim	s568	False	1
106.614	1.5	105.863	n/a	-1.0	2.318	columbia_card_task_fmri	n/a	n/a	-1.0	n/a	n/a	n/a	n/a	n/a	n/a	n/a	n/a	ITI	poldrack-single-stim	s568	False	0
108.184	2.243	110.427	7.204629449272305	draw_card	2.243	columbia_card_task_fmri	30.0	0.7	89.0	-50.0	0.3	10.0	1.0	3.0	3.9341750613347344	2.243	1.0	stim	poldrack-single-stim	s568	False	0
111.179	1.5	110.428	n/a	-1.0	2.318	columbia_card_task_fmri	n/a	n/a	-1.0	n/a	n/a	n/a	n/a	n/a	n/a	n/a	n/a	ITI	poldrack-single-stim	s568	False	0
112.749	2.647	115.396	6.604629449272306	draw_card	2.647	columbia_card_task_fmri	17.0	0.8666666666666667	89.0	-70.0	0.1333333333333333	15.0	1.0	2.0	-3.1473799274658063	2.647	1.0	stim	poldrack-single-stim	s568	False	0
116.15	1.5	115.399	n/a	-1.0	2.59	columbia_card_task_fmri	n/a	n/a	-1.0	n/a	n/a	n/a	n/a	n/a	n/a	n/a	n/a	ITI	poldrack-single-stim	s568	False	0
117.992	2.142	120.134	1.8296294492723055	end_round	2.142	columbia_card_task_fmri	7.0	0.9375	71.0	-95.0	0.0625	16.0	1.0	1.0	-8.026578509507242	2.142	0.0	stim	poldrack-single-stim	s568	False	1
120.888	1.5	120.137	n/a	-1.0	2.726	columbia_card_task_fmri	n/a	n/a	-1.0	n/a	n/a	n/a	n/a	n/a	n/a	n/a	n/a	ITI	poldrack-single-stim	s568	False	0
122.867	1.929	124.796	3.3921294492723058	end_round	1.929	columbia_card_task_fmri	9.0	0.9375	71.0	-100.0	0.0625	16.0	1.0	1.0	-6.334032364506456	1.929	0.0	stim	poldrack-single-stim	s568	False	1
125.55	1.5	124.799	n/a	-1.0	2.522	columbia_card_task_fmri	n/a	n/a	-1.0	n/a	n/a	n/a	n/a	n/a	n/a	n/a	n/a	ITI	poldrack-single-stim	s568	False	0
127.324	4.95	132.274	4.329629449272305	draw_card	4.95	columbia_card_task_fmri	15.0	0.875	89.0	-80.0	0.125	16.0	1.0	2.0	-1.3048345155023142	4.95	n/a	stim	poldrack-single-stim	s568	False	1
132.276	0.628	132.904	3.53796278260564	draw_card	0.628	columbia_card_task_fmri	15.0	0.8666666666666667	89.0	-80.0	0.1333333333333333	16.0	2.0	2.0	-0.4299664883322407	0.628	n/a	stim	poldrack-single-stim	s568	False	1
132.907	0.743	133.65	2.6332008778437364	draw_card	0.743	columbia_card_task_fmri	15.0	0.8571428571428572	89.0	-80.0	0.1428571428571428	16.0	3.0	2.0	0.5186774057765717	0.743	3.0	stim	poldrack-single-stim	s568	False	0
134.402	1.5	133.651	n/a	-1.0	3.134	columbia_card_task_fmri	n/a	n/a	-1.0	n/a	n/a	n/a	n/a	n/a	n/a	n/a	n/a	ITI	poldrack-single-stim	s568	False	0
136.788	2.837	139.625	6.454629449272305	draw_card	2.837	columbia_card_task_fmri	16.0	0.875	89.0	-70.0	0.125	16.0	1.0	2.0	-4.278890902676078	2.837	n/a	stim	poldrack-single-stim	s568	False	1
139.627	0.701	140.328	5.737962782605639	draw_card	0.701	columbia_card_task_fmri	16.0	0.8666666666666667	89.0	-70.0	0.1333333333333333	16.0	2.0	2.0	-3.4870296452452365	0.701	n/a	stim	poldrack-single-stim	s568	False	1
140.329	1.205	141.534	4.918915163558021	draw_card	1.205	columbia_card_task_fmri	16.0	0.8571428571428572	89.0	-70.0	0.1428571428571428	16.0	3.0	2.0	-2.628384914550079	1.205	n/a	stim	poldrack-single-stim	s568	False	1
141.537	0.985	142.522	3.973860218503074	end_round	0.985	columbia_card_task_fmri	16.0	0.8461538461538461	71.0	-70.0	0.1538461538461538	16.0	4.0	2.0	-1.6939375888183257	0.985	3.0	stim	poldrack-single-stim	s568	False	1
143.275	1.5	142.524	n/a	-1.0	2.386	columbia_card_task_fmri	n/a	n/a	-1.0	n/a	n/a	n/a	n/a	n/a	n/a	n/a	n/a	ITI	poldrack-single-stim	s568	False	0
144.912	4.859	149.771	7.767129449272305	draw_card	4.859	columbia_card_task_fmri	30.0	0.6875	89.0	-45.0	0.3125	16.0	1.0	5.0	2.038079083000852	4.859	n/a	stim	poldrack-single-stim	s568	False	1
149.772	1.236	151.008	6.204629449272309	end_round	1.236	columbia_card_task_fmri	30.0	0.6666666666666667	71.0	-45.0	0.3333333333333333	16.0	2.0	5.0	2.6296386181791647	1.236	1.0	stim	poldrack-single-stim	s568	False	1
151.762	1.5	151.011	n/a	-1.0	2.386	columbia_card_task_fmri	n/a	n/a	-1.0	n/a	n/a	n/a	n/a	n/a	n/a	n/a	n/a	ITI	poldrack-single-stim	s568	False	0
153.4	4.505	157.905	-0.4620372173943603	draw_card	4.505	columbia_card_task_fmri	13.0	0.8333333333333334	89.0	-75.0	0.1666666666666666	6.0	1.0	1.0	0.0715634582381383	4.505	n/a	stim	poldrack-single-stim	s568	False	1
157.907	0.765	158.672	-3.395370550727694	end_round	0.765	columbia_card_task_fmri	13.0	0.8	71.0	-75.0	0.2	6.0	2.0	1.0	2.474390044636671	0.765	1.0	stim	poldrack-single-stim	s568	False	1
159.426	1.5	158.675	n/a	-1.0	2.318	columbia_card_task_fmri	n/a	n/a	-1.0	n/a	n/a	n/a	n/a	n/a	n/a	n/a	n/a	ITI	poldrack-single-stim	s568	False	0
160.998	4.353	165.351	1.2046294492723075	draw_card	4.353	columbia_card_task_fmri	14.0	0.8333333333333334	89.0	-70.0	0.1666666666666666	6.0	1.0	1.0	-1.4180961268150902	4.353	n/a	stim	poldrack-single-stim	s568	False	1
165.352	0.726	166.078	-1.5953705507276932	end_round	0.726	columbia_card_task_fmri	14.0	0.8	71.0	-70.0	0.2	6.0	2.0	1.0	0.8753706974838096	0.726	1.0	stim	poldrack-single-stim	s568	False	1
166.83	1.5	166.079	n/a	-1.0	2.318	columbia_card_task_fmri	n/a	n/a	-1.0	n/a	n/a	n/a	n/a	n/a	n/a	n/a	n/a	ITI	poldrack-single-stim	s568	False	0
168.4	4.447	172.847	1.2046294492723075	draw_card	4.447	columbia_card_task_fmri	16.0	0.8333333333333334	89.0	-80.0	0.1666666666666666	6.0	1.0	1.0	3.0511454874672594	4.447	n/a	stim	poldrack-single-stim	s568	False	1
172.85	0.519	173.369	-1.995370550727693	end_round	0.519	columbia_card_task_fmri	16.0	0.8	71.0	-80.0	0.2	6.0	2.0	1.0	5.6726737072958	0.519	1.0	stim	poldrack-single-stim	s568	False	1
174.121	1.5	173.37	n/a	-1.0	2.862	columbia_card_task_fmri	n/a	n/a	-1.0	n/a	n/a	n/a	n/a	n/a	n/a	n/a	n/a	ITI	poldrack-single-stim	s568	False	0
176.236	4.879	181.115	3.704629449272308	draw_card	4.879	columbia_card_task_fmri	17.0	0.8333333333333334	89.0	-70.0	0.1666666666666666	6.0	1.0	1.0	-0.30086050098177	4.879	n/a	stim	poldrack-single-stim	s568	False	1
181.117	0.504	181.621	0.8046294492723072	end_round	0.504	columbia_card_task_fmri	17.0	0.8	71.0	-70.0	0.2	6.0	2.0	1.0	2.074626761595219	0.504	1.0	stim	poldrack-single-stim	s568	False	1
182.375	1.5	181.624	n/a	-1.0	2.726	columbia_card_task_fmri	n/a	n/a	-1.0	n/a	n/a	n/a	n/a	n/a	n/a	n/a	n/a	ITI	poldrack-single-stim	s568	False	0
184.352	4.336	188.688	3.7046294492723058	draw_card	4.336	columbia_card_task_fmri	25.0	0.75	89.0	-65.0	0.25	8.0	1.0	2.0	6.243540163142157	4.336	n/a	stim	poldrack-single-stim	s568	False	1
188.69	0.462	189.152	0.490343734986594	draw_card	0.462	columbia_card_task_fmri	25.0	0.7142857142857143	89.0	-65.0	0.2857142857142857	8.0	2.0	2.0	7.9294807751334915	0.462	2.0	stim	poldrack-single-stim	s568	False	0
189.907	1.5	189.156	n/a	-1.0	2.25	columbia_card_task_fmri	n/a	n/a	-1.0	n/a	n/a	n/a	n/a	n/a	n/a	n/a	n/a	ITI	poldrack-single-stim	s568	False	0
191.408	2.267	193.675	3.7046294492723058	draw_card	2.267	columbia_card_task_fmri	30.0	0.75	89.0	-80.0	0.25	8.0	1.0	2.0	14.900411114081123	2.267	n/a	stim	poldrack-single-stim	s568	False	1
193.678	0.509	194.187	-0.2239419792991177	end_round	0.509	columbia_card_task_fmri	30.0	0.7142857142857143	71.0	-80.0	0.2857142857142857	8.0	2.0	2.0	16.961316909964054	0.509	1.0	stim	poldrack-single-stim	s568	False	1
194.94	1.5	194.189	n/a	-1.0	2.318	columbia_card_task_fmri	n/a	n/a	-1.0	n/a	n/a	n/a	n/a	n/a	n/a	n/a	n/a	ITI	poldrack-single-stim	s568	False	0
196.511	2.359	198.87	3.404629449272307	draw_card	2.359	columbia_card_task_fmri	13.0	0.9	89.0	-95.0	0.1	10.0	1.0	1.0	-0.3238303153370481	2.359	n/a	stim	poldrack-single-stim	s568	False	1
198.871	1.248	200.119	2.2046294492723058	draw_card	1.248	columbia_card_task_fmri	13.0	0.8888888888888888	89.0	-95.0	0.1111111111111111	10.0	2.0	1.0	1.216279368425056	1.248	n/a	stim	poldrack-single-stim	s568	False	1
200.122	0.487	200.609	0.7046294492723058	end_round	0.487	columbia_card_task_fmri	13.0	0.875	71.0	-95.0	0.125	10.0	3.0	1.0	2.991734270478318	0.487	2.0	stim	poldrack-single-stim	s568	False	1
201.363	1.5	200.612	n/a	-1.0	2.454	columbia_card_task_fmri	n/a	n/a	-1.0	n/a	n/a	n/a	n/a	n/a	n/a	n/a	n/a	ITI	poldrack-single-stim	s568	False	0
203.069	1.845	204.914	4.804629449272305	draw_card	1.845	columbia_card_task_fmri	14.0	0.9	89.0	-90.0	0.1	10.0	1.0	1.0	-1.5229699337502502	1.845	n/a	stim	poldrack-single-stim	s568	False	1
204.916	0.548	205.464	3.6490738937167486	draw_card	0.548	columbia_card_task_fmri	14.0	0.8888888888888888	89.0	-90.0	0.1111111111111111	10.0	2.0	1.0	-0.0399779600307965	0.548	n/a	stim	poldrack-single-stim	s568	False	1
205.467	0.817	206.284	2.2046294492723058	draw_card	0.817	columbia_card_task_fmri	14.0	0.875	89.0	-90.0	0.125	10.0	3.0	1.0	1.669639228516438	0.817	n/a	stim	poldrack-single-stim	s568	False	1
206.286	1.786	208.072	0.3474865921294499	end_round	1.786	columbia_card_task_fmri	14.0	0.8571428571428572	71.0	-90.0	0.1428571428571428	10.0	4.0	1.0	3.6661342674171	1.786	3.0	stim	poldrack-single-stim	s568	False	1
208.825	1.5	208.074	n/a	-1.0	2.522	columbia_card_task_fmri	n/a	n/a	-1.0	n/a	n/a	n/a	n/a	n/a	n/a	n/a	n/a	ITI	poldrack-single-stim	s568	False	0
210.6	2.105	212.705	0.0046294492723064	draw_card	2.105	columbia_card_task_fmri	16.0	0.8	89.0	-70.0	0.2	10.0	1.0	2.0	1.6748689785995623	2.105	n/a	stim	poldrack-single-stim	s568	False	1
212.708	1.977	214.685	-1.906481661838805	end_round	1.977	columbia_card_task_fmri	16.0	0.7777777777777778	71.0	-70.0	0.2222222222222222	10.0	2.0	2.0	3.027686179475367	1.977	1.0	stim	poldrack-single-stim	s568	False	1
215.439	1.5	214.688	n/a	-1.0	2.318	columbia_card_task_fmri	n/a	n/a	-1.0	n/a	n/a	n/a	n/a	n/a	n/a	n/a	n/a	ITI	poldrack-single-stim	s568	False	0
217.009	3.233	220.242	-0.7120372173943603	draw_card	3.233	columbia_card_task_fmri	7.0	0.9166666666666666	89.0	-100.0	0.0833333333333333	12.0	1.0	1.0	-3.14845450121566	3.233	n/a	stim	poldrack-single-stim	s568	False	1
220.245	0.63	220.875	-1.5226432780004229	draw_card	0.63	columbia_card_task_fmri	7.0	0.9090909090909092	89.0	-100.0	0.0909090909090909	12.0	2.0	1.0	-1.9623006781245775	0.63	n/a	stim	poldrack-single-stim	s568	False	1
220.877	0.376	221.253	-2.4953705507276944	end_round	0.376	columbia_card_task_fmri	7.0	0.9	71.0	-100.0	0.1	12.0	3.0	1.0	-0.6236212442493354	0.376	2.0	stim	poldrack-single-stim	s568	False	1
222.008	1.5	221.257	n/a	-1.0	2.522	columbia_card_task_fmri	n/a	n/a	-1.0	n/a	n/a	n/a	n/a	n/a	n/a	n/a	n/a	ITI	poldrack-single-stim	s568	False	0
223.784	6.84	230.624	-0.4620372173943585	draw_card	6.84	columbia_card_task_fmri	14.0	0.8333333333333334	89.0	-80.0	0.1666666666666666	12.0	1.0	2.0	2.3062206139368517	6.84	1.0	stim	poldrack-single-stim	s568	False	0
231.378	1.5	230.627	n/a	-1.0	2.998	columbia_card_task_fmri	n/a	n/a	-1.0	n/a	n/a	n/a	n/a	n/a	n/a	n/a	n/a	ITI	poldrack-single-stim	s568	False	0
233.629	5.003	238.632	1.2046294492723058	draw_card	5.003	columbia_card_task_fmri	15.0	0.8333333333333334	89.0	-75.0	0.1666666666666666	12.0	1.0	2.0	0.8164282958036111	5.003	n/a	stim	poldrack-single-stim	s568	False	1
238.634	0.531	239.165	-0.1590069143640593	draw_card	0.531	columbia_card_task_fmri	15.0	0.8181818181818181	89.0	-75.0	0.1818181818181818	12.0	2.0	2.0	1.9871939739407691	0.531	n/a	stim	poldrack-single-stim	s568	False	1
239.168	2.781	241.949	-1.7953705507276942	draw_card	2.781	columbia_card_task_fmri	15.0	0.8	89.0	-75.0	0.2	12.0	3.0	2.0	3.273932378358978	2.781	3.0	stim	poldrack-single-stim	s568	False	0
242.703	1.5	241.952	n/a	-1.0	2.318	columbia_card_task_fmri	n/a	n/a	-1.0	n/a	n/a	n/a	n/a	n/a	n/a	n/a	n/a	ITI	poldrack-single-stim	s568	False	0
244.275	2.268	246.543	0.2046294492723057	draw_card	2.268	columbia_card_task_fmri	15.0	0.8	89.0	-65.0	0.2	15.0	1.0	3.0	-0.7235506836771464	2.268	n/a	stim	poldrack-single-stim	s568	False	1
246.546	0.489	247.035	-0.9382276935848366	draw_card	0.489	columbia_card_task_fmri	15.0	0.7857142857142857	89.0	-65.0	0.2142857142857142	15.0	2.0	3.0	0.1019515803379178	0.489	2.0	stim	poldrack-single-stim	s568	False	0
247.789	1.5	247.038	n/a	-1.0	2.25	columbia_card_task_fmri	n/a	n/a	-1.0	n/a	n/a	n/a	n/a	n/a	n/a	n/a	n/a	ITI	poldrack-single-stim	s568	False	0
249.291	2.447	251.738	-0.5453705507276942	draw_card	2.447	columbia_card_task_fmri	14.0	0.8125	89.0	-70.0	0.1875	16.0	1.0	3.0	0.0621456327487592	2.447	1.0	stim	poldrack-single-stim	s568	False	0
252.492	1.5	251.741	n/a	-1.0	2.454	columbia_card_task_fmri	n/a	n/a	-1.0	n/a	n/a	n/a	n/a	n/a	n/a	n/a	n/a	ITI	poldrack-single-stim	s568	False	0
254.198	3.024	257.222	-0.6078705507276942	draw_card	3.024	columbia_card_task_fmri	11.0	0.6875	89.0	-30.0	0.3125	16.0	1.0	5.0	-13.70406661567348	3.024	n/a	stim	poldrack-single-stim	s568	False	1
257.225	0.778	258.003	-1.4620372173943603	draw_card	0.778	columbia_card_task_fmri	11.0	0.6666666666666667	89.0	-30.0	0.3333333333333333	16.0	2.0	5.0	-13.381127190602758	0.778	n/a	stim	poldrack-single-stim	s568	False	1
258.006	0.665	258.671	-2.4382276935848384	draw_card	0.665	columbia_card_task_fmri	11.0	0.6428571428571428	89.0	-30.0	0.3571428571428571	16.0	3.0	5.0	-13.063863848558622	0.665	n/a	stim	poldrack-single-stim	s568	False	1
258.675	2.491	261.166	-3.5646013199584625	draw_card	2.491	columbia_card_task_fmri	11.0	0.6153846153846154	89.0	-30.0	0.3846153846153846	16.0	4.0	5.0	-12.763199941623007	2.491	4.0	stim	poldrack-single-stim	s568	False	0
261.919	1.5	261.168	n/a	-1.0	2.318	columbia_card_task_fmri	n/a	n/a	-1.0	n/a	n/a	n/a	n/a	n/a	n/a	n/a	n/a	ITI	poldrack-single-stim	s568	False	0
263.49	1.766	265.256	4.204629449272305	draw_card	1.766	columbia_card_task_fmri	15.0	0.8666666666666667	89.0	-75.0	0.1333333333333333	15.0	1.0	2.0	-2.12839283056444	1.766	n/a	stim	poldrack-single-stim	s568	False	1
265.259	1.078	266.337	3.34748659212945	draw_card	1.078	columbia_card_task_fmri	15.0	0.8571428571428572	89.0	-75.0	0.1428571428571428	15.0	2.0	2.0	-1.229746825009293	1.078	n/a	stim	poldrack-single-stim	s568	False	1
266.34	2.273	268.613	2.358475603118459	draw_card	2.273	columbia_card_task_fmri	15.0	0.8461538461538461	89.0	-75.0	0.1538461538461538	15.0	3.0	2.0	-0.2517708866936772	2.273	3.0	stim	poldrack-single-stim	s568	False	0
269.367	1.5	268.616	n/a	-1.0	2.318	columbia_card_task_fmri	n/a	n/a	-1.0	n/a	n/a	n/a	n/a	n/a	n/a	n/a	n/a	ITI	poldrack-single-stim	s568	False	0
270.938	1.632	272.57	5.93796278260564	draw_card	1.632	columbia_card_task_fmri	17.0	0.8666666666666667	89.0	-75.0	0.1333333333333333	15.0	1.0	2.0	-1.449038538642121	1.632	1.0	stim	poldrack-single-stim	s568	False	0
273.324	1.5	272.573	n/a	-1.0	2.59	columbia_card_task_fmri	n/a	n/a	-1.0	n/a	n/a	n/a	n/a	n/a	n/a	n/a	n/a	ITI	poldrack-single-stim	s568	False	0
275.168	2.095	277.263	1.5171294492723058	draw_card	2.095	columbia_card_task_fmri	2.0	0.9375	89.0	-25.0	0.0625	16.0	1.0	1.0	-26.100467889897786	2.095	n/a	stim	poldrack-single-stim	s568	False	1
277.266	1.501	278.767	1.4046294492723057	draw_card	1.501	columbia_card_task_fmri	2.0	0.9333333333333332	89.0	-25.0	0.0666666666666666	16.0	2.0	1.0	-25.904350467903438	1.501	n/a	stim	poldrack-single-stim	s568	False	1
278.769	2.056	280.825	1.2760580207008774	draw_card	2.056	columbia_card_task_fmri	2.0	0.9285714285714286	89.0	-25.0	0.0714285714285714	16.0	3.0	1.0	-25.689080283637114	2.056	n/a	stim	poldrack-single-stim	s568	False	1
280.828	1.508	282.336	1.1277063723492289	draw_card	1.508	columbia_card_task_fmri	2.0	0.9230769230769232	89.0	-25.0	0.0769230769230769	16.0	4.0	1.0	-25.45139338192713	1.508	n/a	stim	poldrack-single-stim	s568	False	1
282.339	2.83	285.169	0.954629449272306	end_round	2.83	columbia_card_task_fmri	2.0	0.9166666666666666	71.0	-25.0	0.0833333333333333	16.0	5.0	1.0	-25.1872066002868	2.83	4.0	stim	poldrack-single-stim	s568	False	1
285.923	1.5	285.172	n/a	-1.0	2.25	columbia_card_task_fmri	n/a	n/a	-1.0	n/a	n/a	n/a	n/a	n/a	n/a	n/a	n/a	ITI	poldrack-single-stim	s568	False	0
287.427	2.245	289.672	3.7046294492723058	draw_card	2.245	columbia_card_task_fmri	9.0	0.9375	89.0	-95.0	0.0625	16.0	1.0	1.0	-7.543019732754288	2.245	n/a	stim	poldrack-single-stim	s568	False	1
289.674	0.902	290.576	3.271296115938973	draw_card	0.902	columbia_card_task_fmri	9.0	0.9333333333333332	89.0	-95.0	0.0666666666666666	16.0	2.0	1.0	-6.776105166057977	0.902	n/a	stim	poldrack-single-stim	s568	False	1
290.579	0.925	291.504	2.776058020700878	draw_card	0.925	columbia_card_task_fmri	9.0	0.9285714285714286	89.0	-95.0	0.0714285714285714	16.0	3.0	1.0	-5.935045654941245	0.925	n/a	stim	poldrack-single-stim	s568	False	1
291.506	1.795	293.301	2.2046294492723058	draw_card	1.795	columbia_card_task_fmri	9.0	0.9230769230769232	89.0	-95.0	0.0769230769230769	16.0	4.0	1.0	-5.007234420561847	1.795	n/a	stim	poldrack-single-stim	s568	False	1
293.304	2.41	295.714	1.5379627826056397	end_round	2.41	columbia_card_task_fmri	9.0	0.9166666666666666	71.0	-95.0	0.0833333333333333	16.0	5.0	1.0	-3.9769038765029983	2.41	4.0	stim	poldrack-single-stim	s568	False	1
296.467	1.5	295.716	n/a	-1.0	2.25	columbia_card_task_fmri	n/a	n/a	-1.0	n/a	n/a	n/a	n/a	n/a	n/a	n/a	n/a	ITI	poldrack-single-stim	s568	False	0
297.971	2.626	300.597	5.267129449272305	draw_card	2.626	columbia_card_task_fmri	11.0	0.9375	89.0	-100.0	0.0625	16.0	1.0	1.0	-5.850404173269741	2.626	n/a	stim	poldrack-single-stim	s568	False	1
300.6	1.041	301.641	4.804629449272307	draw_card	1.041	columbia_card_task_fmri	11.0	0.9333333333333332	89.0	-100.0	0.0666666666666666	16.0	2.0	1.0	-5.0317594999416535	1.041	n/a	stim	poldrack-single-stim	s568	False	1
301.645	1.16	302.805	4.276058020700878	draw_card	1.16	columbia_card_task_fmri	11.0	0.9285714285714286	89.0	-100.0	0.0714285714285714	16.0	3.0	1.0	-4.133975932197558	1.16	n/a	stim	poldrack-single-stim	s568	False	1
302.807	1.124	303.931	3.666167910810768	draw_card	1.124	columbia_card_task_fmri	11.0	0.9230769230769232	89.0	-100.0	0.0769230769230769	16.0	4.0	1.0	-3.143597835896852	1.124	n/a	stim	poldrack-single-stim	s568	False	1
303.935	1.661	305.596	2.9546294492723058	draw_card	1.661	columbia_card_task_fmri	11.0	0.9166666666666666	89.0	-100.0	0.0833333333333333	16.0	5.0	1.0	-2.0437959726789607	1.661	n/a	stim	poldrack-single-stim	s568	False	1
305.599	0.987	306.586	2.113720358363214	draw_card	0.987	columbia_card_task_fmri	11.0	0.9090909090909092	89.0	-100.0	0.0909090909090909	16.0	6.0	1.0	-0.813230594968104	0.987	n/a	stim	poldrack-single-stim	s568	False	1
306.59	1.968	308.558	1.104629449272306	draw_card	1.968	columbia_card_task_fmri	11.0	0.9	89.0	-100.0	0.1	16.0	7.0	1.0	0.5755650510419841	1.968	n/a	stim	poldrack-single-stim	s568	False	1
308.561	2.232	310.793	-0.1287038840610281	draw_card	2.232	columbia_card_task_fmri	11.0	0.8888888888888888	89.0	-100.0	0.1111111111111111	16.0	8.0	1.0	2.1585111786601274	2.232	n/a	stim	poldrack-single-stim	s568	False	1
310.797	1.72	312.517	-1.6703705507276942	end_round	1.72	columbia_card_task_fmri	11.0	0.875	71.0	-100.0	0.125	16.0	9.0	1.0	3.983342442130386	1.72	8.0	stim	poldrack-single-stim	s568	False	1
313.271	1.5	312.52	n/a	-1.0	2.522	columbia_card_task_fmri	n/a	n/a	-1.0	n/a	n/a	n/a	n/a	n/a	n/a	n/a	n/a	ITI	poldrack-single-stim	s568	False	0
315.046	3.975	319.021	5.829629449272305	draw_card	3.975	columbia_card_task_fmri	16.0	0.875	89.0	-75.0	0.125	16.0	1.0	2.0	-2.626696229119567	3.975	1.0	stim	poldrack-single-stim	s568	False	0
319.776	1.5	319.025	n/a	-1.0	2.454	columbia_card_task_fmri	n/a	n/a	-1.0	n/a	n/a	n/a	n/a	n/a	n/a	n/a	n/a	ITI	poldrack-single-stim	s568	False	0
321.484	2.323	323.807	6.079629449272305	draw_card	2.323	columbia_card_task_fmri	17.0	0.875	89.0	-80.0	0.125	16.0	1.0	2.0	-0.6438723337455841	2.323	1.0	stim	poldrack-single-stim	s568	False	0
324.561	1.5	323.81	n/a	-1.0	2.25	columbia_card_task_fmri	n/a	n/a	-1.0	n/a	n/a	n/a	n/a	n/a	n/a	n/a	n/a	ITI	poldrack-single-stim	s568	False	0
337.07	2.696	339.766	0.3712961159389736	draw_card	2.696	columbia_card_task_fmri	13.0	0.8333333333333334	89.0	-70.0	0.1666666666666666	6.0	1.0	1.0	-1.7904951912732123	2.696	n/a	stim	poldrack-single-stim	s568	False	1
339.769	1.314	341.083	-2.395370550727694	draw_card	1.314	columbia_card_task_fmri	13.0	0.8	89.0	-70.0	0.2	6.0	2.0	1.0	0.4756306153318093	1.314	n/a	stim	poldrack-single-stim	s568	False	1
341.087	0.931	342.018	-6.545370550727695	end_round	0.931	columbia_card_task_fmri	13.0	0.75	71.0	-70.0	0.25	6.0	3.0	1.0	3.214020223784324	0.931	2.0	stim	poldrack-single-stim	s568	False	1
342.772	1.5	342.021	n/a	-1.0	2.454	columbia_card_task_fmri	n/a	n/a	-1.0	n/a	n/a	n/a	n/a	n/a	n/a	n/a	n/a	ITI	poldrack-single-stim	s568	False	0
344.48	6.079	350.559	0.3712961159389736	draw_card	6.079	columbia_card_task_fmri	15.0	0.8333333333333334	89.0	-80.0	0.1666666666666666	6.0	1.0	1.0	2.678680783623044	6.079	n/a	stim	poldrack-single-stim	s568	False	1
350.562	0.515	351.077	-2.7953705507276942	draw_card	0.515	columbia_card_task_fmri	15.0	0.8	89.0	-80.0	0.2	6.0	2.0	1.0	5.272872453271013	0.515	n/a	stim	poldrack-single-stim	s568	False	1
351.08	0.674	351.754	-7.545370550727695	end_round	0.674	columbia_card_task_fmri	15.0	0.75	71.0	-80.0	0.25	6.0	3.0	1.0	8.407624441484842	0.674	2.0	stim	poldrack-single-stim	s568	False	1
352.509	1.5	351.758	n/a	-1.0	2.454	columbia_card_task_fmri	n/a	n/a	-1.0	n/a	n/a	n/a	n/a	n/a	n/a	n/a	n/a	ITI	poldrack-single-stim	s568	False	0
354.217	1.932	356.149	2.03796278260564	draw_card	1.932	columbia_card_task_fmri	16.0	0.8333333333333334	89.0	-75.0	0.1666666666666666	6.0	1.0	1.0	1.1888688027795098	1.932	n/a	stim	poldrack-single-stim	s568	False	1
356.151	2.642	358.793	-0.9953705507276936	draw_card	2.642	columbia_card_task_fmri	16.0	0.8	89.0	-75.0	0.2	6.0	2.0	1.0	3.673711082886058	2.642	n/a	stim	poldrack-single-stim	s568	False	1
358.796	0.418	359.214	-5.545370550727695	end_round	0.418	columbia_card_task_fmri	16.0	0.75	71.0	-75.0	0.25	6.0	3.0	1.0	6.676348416152258	0.418	2.0	stim	poldrack-single-stim	s568	False	1
359.969	1.5	359.218	n/a	-1.0	2.522	columbia_card_task_fmri	n/a	n/a	-1.0	n/a	n/a	n/a	n/a	n/a	n/a	n/a	n/a	ITI	poldrack-single-stim	s568	False	0
361.744	2.316	364.06	3.2046294492723058	draw_card	2.316	columbia_card_task_fmri	21.0	0.75	89.0	-55.0	0.25	8.0	1.0	2.0	0.1847890390071569	2.316	1.0	stim	poldrack-single-stim	s568	False	0
364.814	1.5	364.063	n/a	-1.0	2.454	columbia_card_task_fmri	n/a	n/a	-1.0	n/a	n/a	n/a	n/a	n/a	n/a	n/a	n/a	ITI	poldrack-single-stim	s568	False	0
366.522	2.049	368.571	4.454629449272305	draw_card	2.049	columbia_card_task_fmri	26.0	0.75	89.0	-65.0	0.25	8.0	1.0	2.0	6.676348416152258	2.049	n/a	stim	poldrack-single-stim	s568	False	1
368.573	0.876	369.449	1.2046294492723093	draw_card	0.876	columbia_card_task_fmri	26.0	0.7142857142857143	89.0	-65.0	0.2857142857142857	8.0	2.0	2.0	8.381038748096962	0.876	n/a	stim	poldrack-single-stim	s568	False	1
369.452	2.111	371.563	-3.128703884061023	end_round	2.111	columbia_card_task_fmri	26.0	0.6666666666666667	71.0	-65.0	0.3333333333333333	8.0	3.0	2.0	10.16850528777799	2.111	2.0	stim	poldrack-single-stim	s568	False	1
372.318	1.5	371.567	n/a	-1.0	2.658	columbia_card_task_fmri	n/a	n/a	-1.0	n/a	n/a	n/a	n/a	n/a	n/a	n/a	n/a	ITI	poldrack-single-stim	s568	False	0
374.229	2.277	376.506	-0.4620372173943603	draw_card	2.277	columbia_card_task_fmri	15.0	0.7777777777777778	89.0	-60.0	0.2222222222222222	9.0	1.0	2.0	-1.5424771669844652	2.277	n/a	stim	poldrack-single-stim	s568	False	1
376.508	1.212	377.72	-2.5453705507276942	draw_card	1.212	columbia_card_task_fmri	15.0	0.75	89.0	-60.0	0.25	9.0	2.0	2.0	-0.2479299929716276	1.212	2.0	stim	poldrack-single-stim	s568	False	0
378.474	1.5	377.723	n/a	-1.0	2.386	columbia_card_task_fmri	n/a	n/a	-1.0	n/a	n/a	n/a	n/a	n/a	n/a	n/a	n/a	ITI	poldrack-single-stim	s568	False	0
380.112	1.894	382.006	3.904629449272307	draw_card	1.894	columbia_card_task_fmri	13.0	0.9	89.0	-90.0	0.1	10.0	1.0	1.0	-1.8227444084935944	1.894	n/a	stim	poldrack-single-stim	s568	False	1
382.011	0.704	382.715	2.760185004827861	draw_card	0.704	columbia_card_task_fmri	13.0	0.8888888888888888	89.0	-90.0	0.1111111111111111	10.0	2.0	1.0	-0.354032333923719	0.704	n/a	stim	poldrack-single-stim	s568	False	1
382.717	0.871	383.588	1.3296294492723058	draw_card	0.871	columbia_card_task_fmri	13.0	0.875	89.0	-90.0	0.125	10.0	3.0	1.0	1.339124932781445	0.871	n/a	stim	poldrack-single-stim	s568	False	1
383.591	2.648	386.239	-0.509656265013406	draw_card	2.648	columbia_card_task_fmri	13.0	0.8571428571428572	89.0	-90.0	0.1428571428571428	10.0	4.0	1.0	3.316400566719061	2.648	4.0	stim	poldrack-single-stim	s568	False	0
386.994	1.5	386.243	n/a	-1.0	2.522	columbia_card_task_fmri	n/a	n/a	-1.0	n/a	n/a	n/a	n/a	n/a	n/a	n/a	n/a	ITI	poldrack-single-stim	s568	False	0
388.77	1.585	390.355	5.204629449272305	draw_card	1.585	columbia_card_task_fmri	15.0	0.9	89.0	-95.0	0.1	10.0	1.0	1.0	0.2757629348054848	1.585	n/a	stim	poldrack-single-stim	s568	False	1
390.358	0.661	391.019	3.9824072270500825	draw_card	0.661	columbia_card_task_fmri	15.0	0.8888888888888888	89.0	-95.0	0.1111111111111111	10.0	2.0	1.0	1.8444304134024847	0.661	n/a	stim	poldrack-single-stim	s568	False	1
391.022	0.886	391.908	2.4546294492723058	draw_card	0.886	columbia_card_task_fmri	15.0	0.875	89.0	-95.0	0.125	10.0	3.0	1.0	3.652803062986372	0.886	n/a	stim	poldrack-single-stim	s568	False	1
391.912	0.904	392.816	0.4903437349865922	draw_card	0.904	columbia_card_task_fmri	15.0	0.8571428571428572	89.0	-95.0	0.1428571428571428	10.0	4.0	1.0	5.764610260845913	0.904	4.0	stim	poldrack-single-stim	s568	False	0
393.569	1.5	392.818	n/a	-1.0	2.59	columbia_card_task_fmri	n/a	n/a	-1.0	n/a	n/a	n/a	n/a	n/a	n/a	n/a	n/a	ITI	poldrack-single-stim	s568	False	0
395.412	1.277	396.689	1.0046294492723065	draw_card	1.277	columbia_card_task_fmri	16.0	0.8	89.0	-65.0	0.2	10.0	1.0	2.0	-0.3238303153370552	1.277	n/a	stim	poldrack-single-stim	s568	False	1
396.692	0.927	397.619	-0.7953705507276925	draw_card	0.927	columbia_card_task_fmri	16.0	0.7777777777777778	89.0	-65.0	0.2222222222222222	10.0	2.0	2.0	0.9502391839986402	0.927	2.0	stim	poldrack-single-stim	s568	False	0
398.374	1.5	397.623	n/a	-1.0	2.386	columbia_card_task_fmri	n/a	n/a	-1.0	n/a	n/a	n/a	n/a	n/a	n/a	n/a	n/a	ITI	poldrack-single-stim	s568	False	0
400.012	3.219	403.231	-0.2953705507276942	draw_card	3.219	columbia_card_task_fmri	7.0	0.9166666666666666	89.0	-95.0	0.0833333333333333	12.0	1.0	1.0	-4.529180392146007	3.219	n/a	stim	poldrack-single-stim	s568	False	1
403.235	0.703	403.938	-1.0680978234549676	draw_card	0.703	columbia_card_task_fmri	7.0	0.9090909090909092	89.0	-95.0	0.0909090909090909	12.0	2.0	1.0	-3.398544748403776	0.703	n/a	stim	poldrack-single-stim	s568	False	1
403.941	1.808	405.749	-1.9953705507276944	draw_card	1.808	columbia_card_task_fmri	7.0	0.9	89.0	-95.0	0.1	12.0	3.0	1.0	-2.122514466256206	1.808	3.0	stim	poldrack-single-stim	s568	False	0
406.504	1.5	405.753	n/a	-1.0	2.59	columbia_card_task_fmri	n/a	n/a	-1.0	n/a	n/a	n/a	n/a	n/a	n/a	n/a	n/a	ITI	poldrack-single-stim	s568	False	0
408.347	1.29	409.637	0.3712961159389736	draw_card	1.29	columbia_card_task_fmri	14.0	0.8333333333333334	89.0	-75.0	0.1666666666666666	12.0	1.0	2.0	0.4439931204501519	1.29	n/a	stim	poldrack-single-stim	s568	False	1
409.641	1.071	410.712	-0.9771887325458776	draw_card	1.071	columbia_card_task_fmri	14.0	0.8181818181818181	89.0	-75.0	0.1818181818181818	12.0	2.0	2.0	1.60173400729294	1.071	n/a	stim	poldrack-single-stim	s568	False	1
410.715	0.41	411.125	-2.595370550727693	end_round	0.41	columbia_card_task_fmri	14.0	0.8	71.0	-75.0	0.2	12.0	3.0	2.0	2.8741586425448205	0.41	2.0	stim	poldrack-single-stim	s568	False	1
411.879	1.5	411.128	n/a	-1.0	2.318	columbia_card_task_fmri	n/a	n/a	-1.0	n/a	n/a	n/a	n/a	n/a	n/a	n/a	n/a	ITI	poldrack-single-stim	s568	False	0
413.451	3.23	416.681	2.03796278260564	draw_card	3.23	columbia_card_task_fmri	15.0	0.8333333333333334	89.0	-70.0	0.1666666666666666	12.0	1.0	2.0	-1.0456905064499544	3.23	n/a	stim	poldrack-single-stim	s568	False	1
416.684	0.773	417.457	0.750083994726849	draw_card	0.773	columbia_card_task_fmri	15.0	0.8181818181818181	89.0	-70.0	0.1818181818181818	12.0	2.0	2.0	0.0599492964437402	0.773	n/a	stim	poldrack-single-stim	s568	False	1
417.461	0.524	417.985	-0.7953705507276942	end_round	0.524	columbia_card_task_fmri	15.0	0.8	71.0	-70.0	0.2	12.0	3.0	2.0	1.2751168895297624	0.524	2.0	stim	poldrack-single-stim	s568	False	1
418.74	1.5	417.989	n/a	-1.0	2.25	columbia_card_task_fmri	n/a	n/a	-1.0	n/a	n/a	n/a	n/a	n/a	n/a	n/a	n/a	ITI	poldrack-single-stim	s568	False	0
420.243	2.462	422.705	0.0046294492723064	draw_card	2.462	columbia_card_task_fmri	16.0	0.8	89.0	-70.0	0.2	15.0	1.0	3.0	1.6748689785995623	2.462	1.0	stim	poldrack-single-stim	s568	False	0
423.459	1.5	422.708	n/a	-1.0	2.454	columbia_card_task_fmri	n/a	n/a	-1.0	n/a	n/a	n/a	n/a	n/a	n/a	n/a	n/a	ITI	poldrack-single-stim	s568	False	0
425.167	2.326	427.493	0.3921294492723057	draw_card	2.326	columbia_card_task_fmri	14.0	0.8125	89.0	-65.0	0.1875	16.0	1.0	3.0	-1.8880171041074616	2.326	1.0	stim	poldrack-single-stim	s568	False	0
428.248	1.5	427.497	n/a	-1.0	3.27	columbia_card_task_fmri	n/a	n/a	-1.0	n/a	n/a	n/a	n/a	n/a	n/a	n/a	n/a	ITI	poldrack-single-stim	s568	False	0
430.771	1.908	432.679	0.1421294492723057	end_round	1.908	columbia_card_task_fmri	16.0	0.8125	71.0	-75.0	0.1875	16.0	1.0	3.0	2.792631526648556	1.908	0.0	stim	poldrack-single-stim	s568	False	1
433.434	1.5	432.683	n/a	-1.0	2.25	columbia_card_task_fmri	n/a	n/a	-1.0	n/a	n/a	n/a	n/a	n/a	n/a	n/a	n/a	ITI	poldrack-single-stim	s568	False	0
434.937	3.845	438.782	4.404629449272306	draw_card	3.845	columbia_card_task_fmri	16.0	0.8666666666666667	89.0	-80.0	0.1333333333333333	15.0	1.0	2.0	-0.0902656508402088	3.845	n/a	stim	poldrack-single-stim	s568	False	1
438.786	0.891	439.677	3.490343734986594	draw_card	0.891	columbia_card_task_fmri	16.0	0.8571428571428572	89.0	-80.0	0.1428571428571428	15.0	2.0	2.0	0.8683773782206998	0.891	n/a	stim	poldrack-single-stim	s568	False	1
439.68	1.466	441.146	2.435398680041536	draw_card	1.466	columbia_card_task_fmri	16.0	0.8461538461538461	89.0	-80.0	0.1538461538461538	15.0	3.0	2.0	1.9116412210294695	1.466	n/a	stim	poldrack-single-stim	s568	False	1
441.151	0.897	442.048	1.2046294492723075	end_round	0.897	columbia_card_task_fmri	16.0	0.8333333333333334	71.0	-80.0	0.1666666666666666	15.0	4.0	2.0	3.0511454874672594	0.897	3.0	stim	poldrack-single-stim	s568	False	1
442.803	1.5	442.052	n/a	-1.0	2.25	columbia_card_task_fmri	n/a	n/a	-1.0	n/a	n/a	n/a	n/a	n/a	n/a	n/a	n/a	ITI	poldrack-single-stim	s568	False	0
444.306	1.514	445.82	5.2712961159389735	draw_card	1.514	columbia_card_task_fmri	17.0	0.8666666666666667	89.0	-80.0	0.1333333333333333	15.0	1.0	2.0	0.2494400023333725	1.514	n/a	stim	poldrack-single-stim	s568	False	1
445.824	0.99	446.814	4.347486592129451	draw_card	0.99	columbia_card_task_fmri	17.0	0.8571428571428572	89.0	-80.0	0.1428571428571428	15.0	2.0	2.0	1.218082029368098	0.99	n/a	stim	poldrack-single-stim	s568	False	1
446.818	0.983	447.801	3.2815525261953824	draw_card	0.983	columbia_card_task_fmri	17.0	0.8461538461538461	89.0	-80.0	0.1538461538461538	15.0	3.0	2.0	2.272226670666072	0.983	n/a	stim	poldrack-single-stim	s568	False	1
447.805	1.484	449.289	2.037962782605641	draw_card	1.484	columbia_card_task_fmri	17.0	0.8333333333333334	89.0	-80.0	0.1666666666666666	15.0	4.0	2.0	3.423614585395825	1.484	n/a	stim	poldrack-single-stim	s568	False	1
449.293	0.403	449.696	0.5682658129086673	end_round	0.403	columbia_card_task_fmri	17.0	0.8181818181818181	71.0	-80.0	0.1818181818181818	15.0	5.0	2.0	4.685549092372426	0.403	4.0	stim	poldrack-single-stim	s568	False	1
450.452	1.5	449.701	n/a	-1.0	2.318	columbia_card_task_fmri	n/a	n/a	-1.0	n/a	n/a	n/a	n/a	n/a	n/a	n/a	n/a	ITI	poldrack-single-stim	s568	False	0
452.024	1.82	453.844	1.2046294492723058	draw_card	1.82	columbia_card_task_fmri	1.0	0.9375	89.0	-15.0	0.0625	16.0	1.0	1.0	-28.690217075183376	1.82	n/a	stim	poldrack-single-stim	s568	False	1
453.847	2.926	456.773	1.137962782605639	draw_card	2.926	columbia_card_task_fmri	1.0	0.9333333333333332	89.0	-15.0	0.0666666666666666	16.0	2.0	1.0	-28.577281360015657	2.926	n/a	stim	poldrack-single-stim	s568	False	1
456.777	1.139	457.916	1.061772306415163	end_round	1.139	columbia_card_task_fmri	1.0	0.9285714285714286	71.0	-15.0	0.0714285714285714	16.0	3.0	1.0	-28.45311469297421	1.139	2.0	stim	poldrack-single-stim	s568	False	1
458.671	1.5	457.92	n/a	-1.0	2.726	columbia_card_task_fmri	n/a	n/a	-1.0	n/a	n/a	n/a	n/a	n/a	n/a	n/a	n/a	ITI	poldrack-single-stim	s568	False	0
460.652	2.112	462.764	4.329629449272305	draw_card	2.112	columbia_card_task_fmri	10.0	0.9375	89.0	-100.0	0.0625	16.0	1.0	1.0	-6.092220514201614	2.112	n/a	stim	poldrack-single-stim	s568	False	1
462.768	0.786	463.554	3.8712961159389727	draw_card	0.786	columbia_card_task_fmri	10.0	0.9333333333333332	89.0	-100.0	0.0666666666666666	16.0	2.0	1.0	-5.280965440804369	0.786	n/a	stim	poldrack-single-stim	s568	False	1
463.558	1.128	464.686	3.34748659212945	draw_card	1.128	columbia_card_task_fmri	10.0	0.9285714285714286	89.0	-100.0	0.0714285714285714	16.0	3.0	1.0	-4.3912848814310905	1.128	n/a	stim	poldrack-single-stim	s568	False	1
464.69	1.322	466.012	2.743090987733845	draw_card	1.322	columbia_card_task_fmri	10.0	0.9230769230769232	89.0	-100.0	0.0769230769230769	16.0	4.0	1.0	-3.409844465766877	1.322	n/a	stim	poldrack-single-stim	s568	False	1
466.018	1.347	467.365	2.03796278260564	draw_card	1.347	columbia_card_task_fmri	10.0	0.9166666666666666	89.0	-100.0	0.0833333333333333	16.0	5.0	1.0	-2.319966618608877	1.347	n/a	stim	poldrack-single-stim	s568	False	1
467.369	1.747	469.116	1.204629449272304	draw_card	1.747	columbia_card_task_fmri	10.0	0.9090909090909092	89.0	-100.0	0.0909090909090909	16.0	6.0	1.0	-1.1005038985115334	1.747	n/a	stim	poldrack-single-stim	s568	False	1
469.121	1.988	471.109	0.2046294492723057	draw_card	1.988	columbia_card_task_fmri	10.0	0.9	89.0	-100.0	0.1	16.0	7.0	1.0	0.2757629348054848	1.988	n/a	stim	poldrack-single-stim	s568	False	1
471.113	1.438	472.551	-1.0175927729499157	end_round	1.438	columbia_card_task_fmri	10.0	0.8888888888888888	71.0	-100.0	0.1111111111111111	16.0	8.0	1.0	1.8444304134024847	1.438	7.0	stim	poldrack-single-stim	s568	False	1
473.307	1.5	472.556	n/a	-1.0	2.386	columbia_card_task_fmri	n/a	n/a	-1.0	n/a	n/a	n/a	n/a	n/a	n/a	n/a	n/a	ITI	poldrack-single-stim	s568	False	0
474.947	2.95	477.897	4.954629449272305	draw_card	2.95	columbia_card_task_fmri	15.0	0.875	89.0	-75.0	0.125	16.0	1.0	2.0	-2.957147591905628	2.95	n/a	stim	poldrack-single-stim	s568	False	1
477.901	1.982	479.883	4.204629449272305	draw_card	1.982	columbia_card_task_fmri	15.0	0.8666666666666667	89.0	-75.0	0.1333333333333333	16.0	2.0	2.0	-2.12839283056444	1.982	n/a	stim	poldrack-single-stim	s568	False	1
479.887	2.448	482.335	3.34748659212945	draw_card	2.448	columbia_card_task_fmri	15.0	0.8571428571428572	89.0	-75.0	0.1428571428571428	16.0	3.0	2.0	-1.229746825009293	2.448	3.0	stim	poldrack-single-stim	s568	False	0
483.091	1.5	482.34	n/a	-1.0	2.318	columbia_card_task_fmri	n/a	n/a	-1.0	n/a	n/a	n/a	n/a	n/a	n/a	n/a	n/a	ITI	poldrack-single-stim	s568	False	0
484.664	4.729	489.393	5.204629449272305	draw_card	4.729	columbia_card_task_fmri	16.0	0.875	89.0	-80.0	0.125	16.0	1.0	2.0	-0.9743558992754516	4.729	n/a	stim	poldrack-single-stim	s568	False	1
489.398	0.991	490.389	4.404629449272306	draw_card	0.991	columbia_card_task_fmri	16.0	0.8666666666666667	89.0	-80.0	0.1333333333333333	16.0	2.0	2.0	-0.0902656508402088	0.991	n/a	stim	poldrack-single-stim	s568	False	1
490.394	2.071	492.465	3.490343734986594	draw_card	2.071	columbia_card_task_fmri	16.0	0.8571428571428572	89.0	-80.0	0.1428571428571428	16.0	3.0	2.0	0.8683773782206998	2.071	n/a	stim	poldrack-single-stim	s568	False	1
492.469	0.898	493.367	2.435398680041536	draw_card	0.898	columbia_card_task_fmri	16.0	0.8461538461538461	89.0	-80.0	0.1538461538461538	16.0	4.0	2.0	1.9116412210294695	0.898	n/a	stim	poldrack-single-stim	s568	False	1
493.371	3.401	496.772	1.2046294492723075	draw_card	3.401	columbia_card_task_fmri	16.0	0.8333333333333334	89.0	-80.0	0.1666666666666666	16.0	5.0	2.0	3.0511454874672594	3.401	n/a	stim	poldrack-single-stim	s568	False	1
496.777	1.057	497.834	-0.249916005273151	end_round	1.057	columbia_card_task_fmri	16.0	0.8181818181818181	71.0	-80.0	0.1818181818181818	16.0	6.0	2.0	4.300056344031297	1.057	5.0	stim	poldrack-single-stim	s568	False	1
498.59	1.5	497.839	n/a	-1.0	2.25	columbia_card_task_fmri	n/a	n/a	-1.0	n/a	n/a	n/a	n/a	n/a	n/a	n/a	n/a	ITI	poldrack-single-stim	s568	False	0
500.094	2.844	502.938	2.3921294492723058	end_round	2.844	columbia_card_task_fmri	4.0	0.6875	71.0	-5.0	0.3125	16.0	1.0	5.0	-28.404157653163907	2.844	0.0	stim	poldrack-single-stim	s568	False	1
503.694	1.5	502.943	n/a	-1.0	2.25	columbia_card_task_fmri	n/a	n/a	-1.0	n/a	n/a	n/a	n/a	n/a	n/a	n/a	n/a	ITI	poldrack-single-stim	s568	False	0
505.198	4.521	509.719	-0.4620372173943585	draw_card	4.521	columbia_card_task_fmri	14.0	0.8333333333333334	89.0	-80.0	0.1666666666666666	6.0	1.0	1.0	2.3062206139368517	4.521	n/a	stim	poldrack-single-stim	s568	False	1
509.723	3.411	513.134	-3.595370550727693	draw_card	3.411	columbia_card_task_fmri	14.0	0.8	89.0	-80.0	0.2	6.0	2.0	1.0	4.8730754246657	3.411	n/a	stim	poldrack-single-stim	s568	False	1
513.139	0.449	513.588	-8.295370550727695	end_round	0.449	columbia_card_task_fmri	14.0	0.75	71.0	-80.0	0.25	6.0	3.0	1.0	7.974799257466515	0.449	2.0	stim	poldrack-single-stim	s568	False	1
514.343	1.5	513.592	n/a	-1.0	2.454	columbia_card_task_fmri	n/a	n/a	-1.0	n/a	n/a	n/a	n/a	n/a	n/a	n/a	n/a	ITI	poldrack-single-stim	s568	False	0
516.052	3.91	519.962	1.2046294492723058	draw_card	3.91	columbia_card_task_fmri	15.0	0.8333333333333334	89.0	-75.0	0.1666666666666666	6.0	1.0	1.0	0.8164282958036111	3.91	n/a	stim	poldrack-single-stim	s568	False	1
519.966	1.183	521.149	-1.7953705507276942	draw_card	1.183	columbia_card_task_fmri	15.0	0.8	89.0	-75.0	0.2	6.0	2.0	1.0	3.273932378358978	1.183	n/a	stim	poldrack-single-stim	s568	False	1
521.153	0.59	521.743	-6.295370550727695	end_round	0.59	columbia_card_task_fmri	15.0	0.75	71.0	-75.0	0.25	6.0	3.0	1.0	6.243540163142164	0.59	2.0	stim	poldrack-single-stim	s568	False	1
522.499	1.5	521.748	n/a	-1.0	2.454	columbia_card_task_fmri	n/a	n/a	-1.0	n/a	n/a	n/a	n/a	n/a	n/a	n/a	n/a	ITI	poldrack-single-stim	s568	False	0
524.208	2.092	526.3	2.8712961159389736	draw_card	2.092	columbia_card_task_fmri	16.0	0.8333333333333334	89.0	-70.0	0.1666666666666666	6.0	1.0	1.0	-0.6732785585438563	2.092	n/a	stim	poldrack-single-stim	s568	False	1
526.304	1.969	528.273	0.0046294492723064	draw_card	1.969	columbia_card_task_fmri	16.0	0.8	89.0	-70.0	0.2	6.0	2.0	1.0	1.6748689785995623	1.969	n/a	stim	poldrack-single-stim	s568	False	1
528.278	2.146	530.424	-4.295370550727695	draw_card	2.146	columbia_card_task_fmri	16.0	0.75	89.0	-70.0	0.25	6.0	3.0	1.0	4.512354661307654	2.146	n/a	stim	poldrack-single-stim	s568	False	1
530.429	0.584	531.013	-11.46203721739436	end_round	0.584	columbia_card_task_fmri	16.0	0.6666666666666667	71.0	-70.0	0.3333333333333333	6.0	4.0	1.0	7.812465430092942	0.584	3.0	stim	poldrack-single-stim	s568	False	1
531.769	1.5	531.018	n/a	-1.0	2.522	columbia_card_task_fmri	n/a	n/a	-1.0	n/a	n/a	n/a	n/a	n/a	n/a	n/a	n/a	ITI	poldrack-single-stim	s568	False	0
533.545	3.316	536.861	3.4546294492723058	draw_card	3.316	columbia_card_task_fmri	23.0	0.75	89.0	-60.0	0.25	8.0	1.0	2.0	3.214020223784324	3.316	n/a	stim	poldrack-single-stim	s568	False	1
536.866	0.501	537.367	0.490343734986594	end_round	0.501	columbia_card_task_fmri	23.0	0.7142857142857143	71.0	-60.0	0.2857142857142857	8.0	2.0	2.0	4.768707094219451	0.501	1.0	stim	poldrack-single-stim	s568	False	1
538.123	1.5	537.372	n/a	-1.0	2.386	columbia_card_task_fmri	n/a	n/a	-1.0	n/a	n/a	n/a	n/a	n/a	n/a	n/a	n/a	ITI	poldrack-single-stim	s568	False	0
539.764	1.799	541.563	3.9546294492723058	draw_card	1.799	columbia_card_task_fmri	27.0	0.75	89.0	-70.0	0.25	8.0	1.0	2.0	9.2732864012889	1.799	n/a	stim	poldrack-single-stim	s568	False	1
541.567	0.996	542.563	0.4903437349865904	draw_card	0.996	columbia_card_task_fmri	27.0	0.7142857142857143	89.0	-70.0	0.2857142857142857	8.0	2.0	2.0	11.09047139218044	0.996	n/a	stim	poldrack-single-stim	s568	False	1
542.568	1.474	544.042	-4.128703884061023	draw_card	1.474	columbia_card_task_fmri	27.0	0.6666666666666667	89.0	-70.0	0.3333333333333333	8.0	3.0	2.0	12.995886777485566	1.474	n/a	stim	poldrack-single-stim	s568	False	1
544.047	0.501	544.548	-10.595370550727695	end_round	0.501	columbia_card_task_fmri	27.0	0.6	71.0	-70.0	0.4	8.0	4.0	2.0	14.789150575643824	0.501	3.0	stim	poldrack-single-stim	s568	False	1
545.303	1.5	544.552	n/a	-1.0	2.454	columbia_card_task_fmri	n/a	n/a	-1.0	n/a	n/a	n/a	n/a	n/a	n/a	n/a	n/a	ITI	poldrack-single-stim	s568	False	0
547.014	2.989	550.003	-0.7953705507276925	draw_card	2.989	columbia_card_task_fmri	16.0	0.7777777777777778	89.0	-65.0	0.2222222222222222	9.0	1.0	2.0	0.9502391839986402	2.989	n/a	stim	poldrack-single-stim	s568	False	1
550.008	0.977	550.985	-3.0453705507276942	draw_card	0.977	columbia_card_task_fmri	16.0	0.75	89.0	-65.0	0.25	9.0	2.0	2.0	2.3484928647488204	0.977	2.0	stim	poldrack-single-stim	s568	False	0
551.741	1.5	550.99	n/a	-1.0	2.522	columbia_card_task_fmri	n/a	n/a	-1.0	n/a	n/a	n/a	n/a	n/a	n/a	n/a	n/a	ITI	poldrack-single-stim	s568	False	0
553.517	2.654	556.171	4.404629449272306	draw_card	2.654	columbia_card_task_fmri	13.0	0.9	89.0	-85.0	0.1	10.0	1.0	1.0	-3.3215478275933847	2.654	n/a	stim	poldrack-single-stim	s568	False	1
556.175	0.717	556.892	3.3157405603834165	draw_card	0.717	columbia_card_task_fmri	13.0	0.8888888888888888	89.0	-85.0	0.1111111111111111	10.0	2.0	1.0	-1.9242383660428075	0.717	n/a	stim	poldrack-single-stim	s568	False	1
556.896	0.757	557.653	1.9546294492723055	draw_card	0.757	columbia_card_task_fmri	13.0	0.875	89.0	-85.0	0.125	10.0	3.0	1.0	-0.3133839702096921	0.757	n/a	stim	poldrack-single-stim	s568	False	1
557.657	1.47	559.127	0.2046294492723075	draw_card	1.47	columbia_card_task_fmri	13.0	0.8571428571428572	89.0	-85.0	0.1428571428571428	10.0	4.0	1.0	1.567791216172445	1.47	n/a	stim	poldrack-single-stim	s568	False	1
559.13	2.399	561.529	-2.1287038840610264	draw_card	2.399	columbia_card_task_fmri	13.0	0.8333333333333334	89.0	-85.0	0.1666666666666666	10.0	5.0	1.0	3.796087943044398	2.399	n/a	stim	poldrack-single-stim	s568	False	1
561.533	0.411	561.944	-5.395370550727694	end_round	0.411	columbia_card_task_fmri	13.0	0.8	71.0	-85.0	0.2	10.0	6.0	1.0	6.472288374705229	0.411	5.0	stim	poldrack-single-stim	s568	False	1
562.699	1.5	561.948	n/a	-1.0	2.522	columbia_card_task_fmri	n/a	n/a	-1.0	n/a	n/a	n/a	n/a	n/a	n/a	n/a	n/a	ITI	poldrack-single-stim	s568	False	0
564.476	3.088	567.564	-0.5953705507276932	draw_card	3.088	columbia_card_task_fmri	14.0	0.8	89.0	-65.0	0.2	10.0	1.0	2.0	-1.123263980344909	3.088	n/a	stim	poldrack-single-stim	s568	False	1
567.567	1.705	569.272	-2.350926106283248	draw_card	1.705	columbia_card_task_fmri	14.0	0.7777777777777778	89.0	-65.0	0.2222222222222222	10.0	2.0	2.0	0.1193047015166328	1.705	n/a	stim	poldrack-single-stim	s568	False	1
569.276	2.577	571.853	-4.545370550727695	draw_card	2.577	columbia_card_task_fmri	14.0	0.75	89.0	-65.0	0.25	10.0	3.0	2.0	1.482990700310161	2.577	n/a	stim	poldrack-single-stim	s568	False	1
571.858	1.227	573.085	-7.366799122156264	draw_card	1.227	columbia_card_task_fmri	14.0	0.7142857142857143	89.0	-65.0	0.2857142857142857	10.0	4.0	2.0	2.962670274393389	1.227	n/a	stim	poldrack-single-stim	s568	False	1
573.088	3.793	576.881	-11.128703884061023	end_round	3.793	columbia_card_task_fmri	14.0	0.6666666666666667	71.0	-65.0	0.3333333333333333	10.0	5.0	2.0	4.514218466204554	3.793	4.0	stim	poldrack-single-stim	s568	False	1
577.637	1.5	576.886	n/a	-1.0	2.59	columbia_card_task_fmri	n/a	n/a	-1.0	n/a	n/a	n/a	n/a	n/a	n/a	n/a	n/a	ITI	poldrack-single-stim	s568	False	0
579.481	2.081	581.562	0.8046294492723072	draw_card	2.081	columbia_card_task_fmri	17.0	0.8	89.0	-70.0	0.2	10.0	1.0	2.0	2.074626761595219	2.081	n/a	stim	poldrack-single-stim	s568	False	1
581.567	1.147	582.714	-1.1287038840610264	draw_card	1.147	columbia_card_task_fmri	17.0	0.7777777777777778	89.0	-70.0	0.2222222222222222	10.0	2.0	2.0	3.443192826610826	1.147	n/a	stim	poldrack-single-stim	s568	False	1
582.719	1.573	584.292	-3.5453705507276942	draw_card	1.573	columbia_card_task_fmri	17.0	0.75	89.0	-70.0	0.25	10.0	3.0	2.0	4.945143582908003	1.573	n/a	stim	poldrack-single-stim	s568	False	1
584.296	1.446	585.742	-6.652513407870552	draw_card	1.446	columbia_card_task_fmri	17.0	0.7142857142857143	89.0	-70.0	0.2857142857142857	10.0	4.0	2.0	6.574833869219283	1.446	n/a	stim	poldrack-single-stim	s568	False	1
585.747	1.621	587.368	-10.795370550727691	end_round	1.621	columbia_card_task_fmri	17.0	0.6666666666666667	71.0	-70.0	0.3333333333333333	10.0	5.0	2.0	8.2836643706624	1.621	4.0	stim	poldrack-single-stim	s568	False	1
588.123	1.5	587.372	n/a	-1.0	2.454	columbia_card_task_fmri	n/a	n/a	-1.0	n/a	n/a	n/a	n/a	n/a	n/a	n/a	n/a	ITI	poldrack-single-stim	s568	False	0
589.831	3.588	593.419	-0.4620372173943603	draw_card	3.588	columbia_card_task_fmri	13.0	0.8333333333333334	89.0	-75.0	0.1666666666666666	12.0	1.0	2.0	0.0715634582381383	3.588	1.0	stim	poldrack-single-stim	s568	False	0
594.176	1.5	593.425	n/a	-1.0	2.318	columbia_card_task_fmri	n/a	n/a	-1.0	n/a	n/a	n/a	n/a	n/a	n/a	n/a	n/a	ITI	poldrack-single-stim	s568	False	0
595.748	1.275	597.023	1.2046294492723075	draw_card	1.275	columbia_card_task_fmri	14.0	0.8333333333333334	89.0	-70.0	0.1666666666666666	12.0	1.0	2.0	-1.4180961268150902	1.275	n/a	stim	poldrack-single-stim	s568	False	1
597.027	1.095	598.122	-0.0680978234549694	draw_card	1.095	columbia_card_task_fmri	14.0	0.8181818181818181	89.0	-70.0	0.1818181818181818	12.0	2.0	2.0	-0.3254821087231363	1.095	n/a	stim	poldrack-single-stim	s568	False	1
598.127	1.888	600.015	-1.5953705507276932	draw_card	1.888	columbia_card_task_fmri	14.0	0.8	89.0	-70.0	0.2	12.0	3.0	2.0	0.8753706974838096	1.888	n/a	stim	poldrack-single-stim	s568	False	1
600.019	1.448	601.467	-3.4620372173943603	draw_card	1.448	columbia_card_task_fmri	14.0	0.7777777777777778	89.0	-70.0	0.2222222222222222	12.0	4.0	2.0	2.19668951797145	1.448	n/a	stim	poldrack-single-stim	s568	False	1
601.472	1.349	602.821	-5.795370550727695	draw_card	1.349	columbia_card_task_fmri	14.0	0.75	89.0	-70.0	0.25	12.0	5.0	2.0	3.646792789529968	1.349	n/a	stim	poldrack-single-stim	s568	False	1
602.826	3.134	605.96	-8.795370550727695	draw_card	3.134	columbia_card_task_fmri	14.0	0.7142857142857143	89.0	-70.0	0.2857142857142857	12.0	6.0	2.0	5.220230856143353	3.134	n/a	stim	poldrack-single-stim	s568	False	1
605.965	0.494	606.459	-12.795370550727691	end_round	0.494	columbia_card_task_fmri	14.0	0.6666666666666667	71.0	-70.0	0.3333333333333333	12.0	7.0	2.0	6.87008222326763	0.494	6.0	stim	poldrack-single-stim	s568	False	1
607.214	1.5	606.463	n/a	-1.0	2.25	columbia_card_task_fmri	n/a	n/a	-1.0	n/a	n/a	n/a	n/a	n/a	n/a	n/a	n/a	ITI	poldrack-single-stim	s568	False	0
608.718	4.467	613.185	1.2046294492723075	draw_card	4.467	columbia_card_task_fmri	16.0	0.8333333333333334	89.0	-80.0	0.1666666666666666	12.0	1.0	2.0	3.0511454874672594	4.467	n/a	stim	poldrack-single-stim	s568	False	1
613.189	1.016	614.205	-0.249916005273151	draw_card	1.016	columbia_card_task_fmri	16.0	0.8181818181818181	89.0	-80.0	0.1818181818181818	12.0	2.0	2.0	4.300056344031297	1.016	n/a	stim	poldrack-single-stim	s568	False	1
614.21	1.219	615.429	-1.995370550727693	draw_card	1.219	columbia_card_task_fmri	16.0	0.8	89.0	-80.0	0.2	12.0	3.0	2.0	5.6726737072958	1.219	n/a	stim	poldrack-single-stim	s568	False	1
615.433	0.946	616.379	-4.128703884061029	draw_card	0.946	columbia_card_task_fmri	16.0	0.7777777777777778	89.0	-80.0	0.2222222222222222	12.0	4.0	2.0	7.182970986852368	0.946	n/a	stim	poldrack-single-stim	s568	False	1
616.383	1.037	617.42	-6.795370550727695	draw_card	1.037	columbia_card_task_fmri	16.0	0.75	89.0	-80.0	0.25	12.0	5.0	2.0	8.840453529640875	1.037	n/a	stim	poldrack-single-stim	s568	False	1
617.424	2.075	619.499	-10.22394197929912	end_round	2.075	columbia_card_task_fmri	16.0	0.7142857142857143	71.0	-80.0	0.2857142857142857	12.0	6.0	2.0	10.638889819344072	2.075	5.0	stim	poldrack-single-stim	s568	False	1
620.256	1.5	619.505	n/a	-1.0	2.658	columbia_card_task_fmri	n/a	n/a	-1.0	n/a	n/a	n/a	n/a	n/a	n/a	n/a	n/a	ITI	poldrack-single-stim	s568	False	0
622.167	4.494	626.661	1.0046294492723065	draw_card	4.494	columbia_card_task_fmri	16.0	0.8	89.0	-65.0	0.2	15.0	1.0	3.0	-0.3238303153370552	4.494	1.0	stim	poldrack-single-stim	s568	False	0
627.417	1.5	626.666	n/a	-1.0	2.454	columbia_card_task_fmri	n/a	n/a	-1.0	n/a	n/a	n/a	n/a	n/a	n/a	n/a	n/a	ITI	poldrack-single-stim	s568	False	0
629.127	1.953	631.08	-0.6703705507276942	draw_card	1.953	columbia_card_task_fmri	15.0	0.8125	89.0	-75.0	0.1875	16.0	1.0	3.0	2.402545930359452	1.953	n/a	stim	poldrack-single-stim	s568	False	1
631.085	0.845	631.93	-1.7953705507276942	draw_card	0.845	columbia_card_task_fmri	15.0	0.8	89.0	-75.0	0.2	16.0	2.0	3.0	3.273932378358978	0.845	n/a	stim	poldrack-single-stim	s568	False	1
631.934	2.597	634.531	-3.081084836441979	draw_card	2.597	columbia_card_task_fmri	15.0	0.7857142857142857	89.0	-75.0	0.2142857142857142	16.0	3.0	3.0	4.202756899074792	2.597	n/a	stim	poldrack-single-stim	s568	False	1
634.536	0.889	635.425	-4.564601319958468	draw_card	0.889	columbia_card_task_fmri	15.0	0.7692307692307692	89.0	-75.0	0.2307692307692307	16.0	4.0	3.0	5.192167062526494	0.889	n/a	stim	poldrack-single-stim	s568	False	1
635.429	2.896	638.325	-6.295370550727695	end_round	2.896	columbia_card_task_fmri	15.0	0.75	71.0	-75.0	0.25	16.0	5.0	3.0	6.243540163142164	2.896	4.0	stim	poldrack-single-stim	s568	False	1
639.082	1.5	638.331	n/a	-1.0	2.386	columbia_card_task_fmri	n/a	n/a	-1.0	n/a	n/a	n/a	n/a	n/a	n/a	n/a	n/a	ITI	poldrack-single-stim	s568	False	0
640.724	4.699	645.423	-0.1078705507276942	draw_card	4.699	columbia_card_task_fmri	14.0	0.6875	89.0	-35.0	0.3125	16.0	1.0	5.0	-10.002184942051436	4.699	n/a	stim	poldrack-single-stim	s568	False	1
645.428	1.505	646.933	-1.1287038840610264	draw_card	1.505	columbia_card_task_fmri	14.0	0.6666666666666667	89.0	-35.0	0.3333333333333333	16.0	2.0	5.0	-9.616005017165758	1.505	n/a	stim	poldrack-single-stim	s568	False	1
646.937	0.792	647.729	-2.2953705507276942	end_round	0.792	columbia_card_task_fmri	14.0	0.6428571428571428	71.0	-35.0	0.3571428571428571	16.0	3.0	5.0	-9.236619999581231	0.792	2.0	stim	poldrack-single-stim	s568	False	1
648.486	1.5	647.735	n/a	-1.0	2.59	columbia_card_task_fmri	n/a	n/a	-1.0	n/a	n/a	n/a	n/a	n/a	n/a	n/a	n/a	ITI	poldrack-single-stim	s568	False	0
650.33	2.624	652.954	5.0712961159389724	draw_card	2.624	columbia_card_task_fmri	16.0	0.8666666666666667	89.0	-75.0	0.1333333333333333	15.0	1.0	2.0	-1.7887185109308277	2.624	1.0	stim	poldrack-single-stim	s568	False	0
653.711	1.5	652.96	n/a	-1.0	2.318	columbia_card_task_fmri	n/a	n/a	-1.0	n/a	n/a	n/a	n/a	n/a	n/a	n/a	n/a	ITI	poldrack-single-stim	s568	False	0
655.284	1.496	656.78	5.737962782605639	draw_card	1.496	columbia_card_task_fmri	16.0	0.8666666666666667	89.0	-70.0	0.1333333333333333	15.0	1.0	2.0	-3.4870296452452365	1.496	n/a	stim	poldrack-single-stim	s568	False	1
656.784	1.427	658.211	4.918915163558021	draw_card	1.427	columbia_card_task_fmri	16.0	0.8571428571428572	89.0	-70.0	0.1428571428571428	15.0	2.0	2.0	-2.628384914550079	1.427	2.0	stim	poldrack-single-stim	s568	False	0
658.967	1.5	658.216	n/a	-1.0	2.59	columbia_card_task_fmri	n/a	n/a	-1.0	n/a	n/a	n/a	n/a	n/a	n/a	n/a	n/a	ITI	poldrack-single-stim	s568	False	0
660.813	2.461	663.274	3.0796294492723058	draw_card	2.461	columbia_card_task_fmri	8.0	0.9375	89.0	-90.0	0.0625	16.0	1.0	1.0	-8.993627113450664	2.461	n/a	stim	poldrack-single-stim	s568	False	1
663.278	0.854	664.132	2.6712961159389725	draw_card	0.854	columbia_card_task_fmri	8.0	0.9333333333333332	89.0	-90.0	0.0666666666666666	16.0	2.0	1.0	-8.271058693562757	0.854	n/a	stim	poldrack-single-stim	s568	False	1
664.138	0.72	664.858	2.204629449272306	draw_card	0.72	columbia_card_task_fmri	8.0	0.9285714285714286	89.0	-90.0	0.0714285714285714	16.0	3.0	1.0	-7.478626047481864	0.72	n/a	stim	poldrack-single-stim	s568	False	1
664.863	0.643	665.506	1.6661679108107674	draw_card	0.643	columbia_card_task_fmri	8.0	0.9230769230769232	89.0	-90.0	0.0769230769230769	16.0	4.0	1.0	-6.604450004383896	0.643	n/a	stim	poldrack-single-stim	s568	False	1
665.512	0.665	666.177	1.0379627826056388	draw_card	0.665	columbia_card_task_fmri	8.0	0.9166666666666666	89.0	-90.0	0.0833333333333333	16.0	5.0	1.0	-5.633672985749591	0.665	5.0	stim	poldrack-single-stim	s568	False	0
666.933	1.5	666.182	n/a	-1.0	2.386	columbia_card_task_fmri	n/a	n/a	-1.0	n/a	n/a	n/a	n/a	n/a	n/a	n/a	n/a	ITI	poldrack-single-stim	s568	False	0
668.574	1.218	669.792	4.642129449272305	draw_card	1.218	columbia_card_task_fmri	10.0	0.9375	89.0	-95.0	0.0625	16.0	1.0	1.0	-7.301232298938899	1.218	n/a	stim	poldrack-single-stim	s568	False	1
669.797	0.741	670.538	4.204629449272307	draw_card	0.741	columbia_card_task_fmri	10.0	0.9333333333333332	89.0	-95.0	0.0666666666666666	16.0	2.0	1.0	-6.526927282057439	0.741	n/a	stim	poldrack-single-stim	s568	False	1
670.543	0.752	671.295	3.704629449272306	draw_card	0.752	columbia_card_task_fmri	10.0	0.9285714285714286	89.0	-95.0	0.0714285714285714	16.0	3.0	1.0	-5.677763885717301	0.752	n/a	stim	poldrack-single-stim	s568	False	1
671.301	0.619	671.92	3.127706372349229	draw_card	0.619	columbia_card_task_fmri	10.0	0.9230769230769232	89.0	-95.0	0.0769230769230769	16.0	4.0	1.0	-4.741014064758584	0.619	n/a	stim	poldrack-single-stim	s568	False	1
671.926	0.696	672.622	2.4546294492723058	draw_card	0.696	columbia_card_task_fmri	10.0	0.9166666666666666	89.0	-95.0	0.0833333333333333	16.0	5.0	1.0	-3.7007585667283536	0.696	n/a	stim	poldrack-single-stim	s568	False	1
672.627	0.595	673.222	1.659174903817759	draw_card	0.595	columbia_card_task_fmri	10.0	0.9090909090909092	89.0	-95.0	0.0909090909090909	16.0	6.0	1.0	-2.5368114889083344	0.595	n/a	stim	poldrack-single-stim	s568	False	1
673.228	0.775	674.003	0.7046294492723058	draw_card	0.775	columbia_card_task_fmri	10.0	0.9	89.0	-95.0	0.1	16.0	7.0	1.0	-1.2231911680386531	0.775	n/a	stim	poldrack-single-stim	s568	False	1
674.007	0.846	674.853	-0.4620372173943603	draw_card	0.846	columbia_card_task_fmri	10.0	0.8888888888888888	89.0	-95.0	0.1111111111111111	16.0	8.0	1.0	0.2740805108072592	0.846	n/a	stim	poldrack-single-stim	s568	False	1
674.858	0.869	675.727	-1.9203705507276945	draw_card	0.869	columbia_card_task_fmri	10.0	0.875	89.0	-95.0	0.125	16.0	9.0	1.0	2.000157418192209	0.869	n/a	stim	poldrack-single-stim	s568	False	1
675.732	0.779	676.511	-3.795370550727693	draw_card	0.779	columbia_card_task_fmri	10.0	0.8571428571428572	89.0	-95.0	0.1428571428571428	16.0	10.0	1.0	4.015871649032107	0.779	n/a	stim	poldrack-single-stim	s568	False	1
676.516	0.876	677.392	-6.295370550727693	draw_card	0.876	columbia_card_task_fmri	10.0	0.8333333333333334	89.0	-95.0	0.1666666666666666	16.0	11.0	1.0	6.403510505694882	0.876	n/a	stim	poldrack-single-stim	s568	False	1
677.396	0.916	678.312	-9.795370550727696	draw_card	0.916	columbia_card_task_fmri	10.0	0.8	89.0	-95.0	0.2	16.0	12.0	1.0	9.271055235226378	0.916	n/a	stim	poldrack-single-stim	s568	False	1
678.317	2.353	680.67	-15.045370550727696	draw_card	2.353	columbia_card_task_fmri	10.0	0.75	89.0	-95.0	0.25	16.0	13.0	1.0	12.736072617951956	2.353	n/a	stim	poldrack-single-stim	s568	False	1
680.676	2.295	682.971	-23.79537055072769	end_round	2.295	columbia_card_task_fmri	10.0	0.6666666666666667	71.0	-95.0	0.3333333333333333	16.0	14.0	1.0	16.76591456540693	2.295	13.0	stim	poldrack-single-stim	s568	False	1
683.726	1.5	682.975	n/a	-1.0	2.318	columbia_card_task_fmri	n/a	n/a	-1.0	n/a	n/a	n/a	n/a	n/a	n/a	n/a	n/a	ITI	poldrack-single-stim	s568	False	0
