onset	duration	movement_onset	block_duration	condition	correct	correct_response	experiment_exp_id	key_press	response_time	trial_id	trial_type	worker_id	junk
3.017	0.5	3.016	0.5	AY	n/a	n/a	dot_pattern_expectancy	-1.0	n/a	cue	AY	s570	False
5.521	0.5	6.3	1.636	AY	1.0	71.0	dot_pattern_expectancy	71.0	0.779	probe	AY	s570	False
7.164	0.5	7.163	0.5	AX	n/a	n/a	dot_pattern_expectancy	-1.0	n/a	cue	AX	s570	False
9.671	0.5	10.264	1.636	AX	1.0	89.0	dot_pattern_expectancy	89.0	0.593	probe	AX	s570	False
11.312	0.5	11.311	0.5	AX	n/a	n/a	dot_pattern_expectancy	-1.0	n/a	cue	AX	s570	False
13.816	0.5	14.403	1.5	AX	1.0	89.0	dot_pattern_expectancy	89.0	0.587	probe	AX	s570	False
15.323	0.5	15.322	0.5	AX	n/a	n/a	dot_pattern_expectancy	-1.0	n/a	cue	AX	s570	False
17.828	0.5	18.253	1.5	AX	1.0	89.0	dot_pattern_expectancy	89.0	0.425	probe	AX	s570	False
19.335	0.5	19.334	0.5	AX	n/a	n/a	dot_pattern_expectancy	-1.0	n/a	cue	AX	s570	False
21.842	0.5	22.293	1.908	AX	1.0	89.0	dot_pattern_expectancy	89.0	0.451	probe	AX	s570	False
23.757	0.5	23.756	0.5	BX	n/a	n/a	dot_pattern_expectancy	-1.0	n/a	cue	BX	s570	False
26.263	0.5	26.541	1.636	BX	1.0	71.0	dot_pattern_expectancy	71.0	0.278	probe	BX	s570	False
27.901	0.5	27.9	0.5	AX	n/a	n/a	dot_pattern_expectancy	-1.0	n/a	cue	AX	s570	False
30.41	0.5	30.861	2.044	AX	1.0	89.0	dot_pattern_expectancy	89.0	0.451	probe	AX	s570	False
32.456	0.5	32.455	0.5	AX	n/a	n/a	dot_pattern_expectancy	-1.0	n/a	cue	AX	s570	False
34.965	0.5	35.413	1.772	AX	1.0	89.0	dot_pattern_expectancy	89.0	0.448	probe	AX	s570	False
36.739	0.5	36.738	0.5	AX	n/a	n/a	dot_pattern_expectancy	-1.0	n/a	cue	AX	s570	False
39.248	0.5	39.627	1.5	AX	1.0	89.0	dot_pattern_expectancy	89.0	0.379	probe	AX	s570	False
40.755	0.5	40.754	0.5	AX	n/a	n/a	dot_pattern_expectancy	-1.0	n/a	cue	AX	s570	False
43.267	0.5	43.747	2.18	AX	1.0	89.0	dot_pattern_expectancy	89.0	0.48	probe	AX	s570	False
45.448	0.5	45.447	0.5	AX	n/a	n/a	dot_pattern_expectancy	-1.0	n/a	cue	AX	s570	False
47.954	0.5	48.425	1.5	AX	1.0	89.0	dot_pattern_expectancy	89.0	0.471	probe	AX	s570	False
49.459	0.5	49.458	0.5	BX	n/a	n/a	dot_pattern_expectancy	-1.0	n/a	cue	BX	s570	False
51.963	0.5	52.305	3.676	BX	1.0	71.0	dot_pattern_expectancy	71.0	0.342	probe	BX	s570	False
55.641	0.5	55.64	0.5	BY	n/a	n/a	dot_pattern_expectancy	-1.0	n/a	cue	BY	s570	False
58.147	0.5	58.406	1.636	BY	1.0	71.0	dot_pattern_expectancy	71.0	0.259	probe	BY	s570	False
59.786	0.5	59.785	0.5	BY	n/a	n/a	dot_pattern_expectancy	-1.0	n/a	cue	BY	s570	False
62.292	0.5	62.612	1.636	BY	1.0	71.0	dot_pattern_expectancy	71.0	0.32	probe	BY	s570	False
63.934	0.5	63.933	0.5	BX	n/a	n/a	dot_pattern_expectancy	-1.0	n/a	cue	BX	s570	False
66.444	0.5	66.68	1.5	BX	1.0	71.0	dot_pattern_expectancy	71.0	0.236	probe	BX	s570	False
67.948	0.5	67.947	0.5	AX	n/a	n/a	dot_pattern_expectancy	-1.0	n/a	cue	AX	s570	False
70.454	0.5	70.866	1.908	AX	1.0	89.0	dot_pattern_expectancy	89.0	0.412	probe	AX	s570	False
72.367	0.5	72.366	0.5	AX	n/a	n/a	dot_pattern_expectancy	-1.0	n/a	cue	AX	s570	False
74.873	0.5	75.284	1.636	AX	1.0	89.0	dot_pattern_expectancy	89.0	0.411	probe	AX	s570	False
76.511	0.5	76.51	0.5	BX	n/a	n/a	dot_pattern_expectancy	-1.0	n/a	cue	BX	s570	False
79.02	0.5	79.63	1.5	BX	1.0	71.0	dot_pattern_expectancy	71.0	0.61	probe	BX	s570	False
80.522	0.5	80.521	0.5	AX	n/a	n/a	dot_pattern_expectancy	-1.0	n/a	cue	AX	s570	False
83.029	0.5	83.535	1.908	AX	1.0	89.0	dot_pattern_expectancy	89.0	0.506	probe	AX	s570	False
84.944	0.5	84.943	0.5	BY	n/a	n/a	dot_pattern_expectancy	-1.0	n/a	cue	BY	s570	False
87.45	0.5	87.984	2.18	BY	1.0	71.0	dot_pattern_expectancy	71.0	0.534	probe	BY	s570	False
89.632	0.5	89.631	0.5	AX	n/a	n/a	dot_pattern_expectancy	-1.0	n/a	cue	AX	s570	False
92.141	0.5	92.567	1.772	AX	1.0	89.0	dot_pattern_expectancy	89.0	0.426	probe	AX	s570	False
93.914	0.5	93.913	0.5	AX	n/a	n/a	dot_pattern_expectancy	-1.0	n/a	cue	AX	s570	False
96.421	0.5	96.981	1.5	AX	1.0	89.0	dot_pattern_expectancy	89.0	0.56	probe	AX	s570	False
97.925	0.5	97.924	0.5	AX	n/a	n/a	dot_pattern_expectancy	-1.0	n/a	cue	AX	s570	False
100.433	0.5	101.041	1.5	AX	1.0	89.0	dot_pattern_expectancy	89.0	0.608	probe	AX	s570	False
101.936	0.5	101.935	0.5	AX	n/a	n/a	dot_pattern_expectancy	-1.0	n/a	cue	AX	s570	False
104.445	0.5	104.83	2.044	AX	1.0	89.0	dot_pattern_expectancy	89.0	0.385	probe	AX	s570	False
106.491	0.5	106.49	0.5	AX	n/a	n/a	dot_pattern_expectancy	-1.0	n/a	cue	AX	s570	False
109.0	0.5	109.406	2.86	AX	1.0	89.0	dot_pattern_expectancy	89.0	0.406	probe	AX	s570	False
111.862	0.5	111.861	0.5	BX	n/a	n/a	dot_pattern_expectancy	-1.0	n/a	cue	BX	s570	False
114.371	0.5	114.661	1.5	BX	1.0	71.0	dot_pattern_expectancy	71.0	0.29	probe	BX	s570	False
115.873	0.5	115.872	0.5	BY	n/a	n/a	dot_pattern_expectancy	-1.0	n/a	cue	BY	s570	False
118.377	0.5	118.984	1.772	BY	1.0	71.0	dot_pattern_expectancy	71.0	0.607	probe	BY	s570	False
120.15	0.5	120.149	0.5	AX	n/a	n/a	dot_pattern_expectancy	-1.0	n/a	cue	AX	s570	False
122.659	0.5	123.049	1.772	AX	1.0	89.0	dot_pattern_expectancy	89.0	0.39	probe	AX	s570	False
124.438	0.5	124.437	0.5	AX	n/a	n/a	dot_pattern_expectancy	-1.0	n/a	cue	AX	s570	False
126.95	0.5	127.553	2.86	AX	1.0	89.0	dot_pattern_expectancy	89.0	0.603	probe	AX	s570	False
129.815	0.5	129.814	0.5	AX	n/a	n/a	dot_pattern_expectancy	-1.0	n/a	cue	AX	s570	False
132.324	0.5	132.869	1.772	AX	1.0	89.0	dot_pattern_expectancy	89.0	0.545	probe	AX	s570	False
134.103	0.5	134.102	0.5	BX	n/a	n/a	dot_pattern_expectancy	-1.0	n/a	cue	BX	s570	False
136.609	0.5	137.024	1.636	BX	1.0	71.0	dot_pattern_expectancy	71.0	0.415	probe	BX	s570	False
138.247	0.5	138.246	0.5	BX	n/a	n/a	dot_pattern_expectancy	-1.0	n/a	cue	BX	s570	False
140.756	0.5	141.101	2.452	BX	1.0	71.0	dot_pattern_expectancy	71.0	0.345	probe	BX	s570	False
143.213	0.5	143.212	0.5	AX	n/a	n/a	dot_pattern_expectancy	-1.0	n/a	cue	AX	s570	False
145.719	0.5	146.265	1.636	AX	1.0	89.0	dot_pattern_expectancy	89.0	0.546	probe	AX	s570	False
147.357	0.5	147.356	0.5	BX	n/a	n/a	dot_pattern_expectancy	-1.0	n/a	cue	BX	s570	False
149.866	0.5	150.88	1.5	BX	0.0	71.0	dot_pattern_expectancy	89.0	1.014	probe	BX	s570	False
151.37	0.5	151.369	0.5	AX	n/a	n/a	dot_pattern_expectancy	-1.0	n/a	cue	AX	s570	False
153.88	0.5	154.401	1.636	AX	1.0	89.0	dot_pattern_expectancy	89.0	0.521	probe	AX	s570	False
155.522	0.5	155.521	0.5	AX	n/a	n/a	dot_pattern_expectancy	-1.0	n/a	cue	AX	s570	False
158.032	0.5	158.405	1.636	AX	1.0	89.0	dot_pattern_expectancy	89.0	0.373	probe	AX	s570	False
159.674	0.5	159.673	0.5	BY	n/a	n/a	dot_pattern_expectancy	-1.0	n/a	cue	BY	s570	False
162.182	0.5	162.573	2.18	BY	1.0	71.0	dot_pattern_expectancy	71.0	0.391	probe	BY	s570	False
164.365	0.5	164.364	0.5	AX	n/a	n/a	dot_pattern_expectancy	-1.0	n/a	cue	AX	s570	False
166.875	0.5	167.358	1.5	AX	1.0	89.0	dot_pattern_expectancy	89.0	0.483	probe	AX	s570	False
168.379	0.5	168.378	0.5	AY	n/a	n/a	dot_pattern_expectancy	-1.0	n/a	cue	AY	s570	False
170.883	0.5	171.726	1.636	AY	1.0	71.0	dot_pattern_expectancy	71.0	0.843	probe	AY	s570	False
172.521	0.5	172.52	0.5	AX	n/a	n/a	dot_pattern_expectancy	-1.0	n/a	cue	AX	s570	False
175.027	0.5	175.538	1.636	AX	1.0	89.0	dot_pattern_expectancy	89.0	0.511	probe	AX	s570	False
187.181	0.5	187.18	0.5	AX	n/a	n/a	dot_pattern_expectancy	-1.0	n/a	cue	AX	s570	False
189.689	0.5	190.649	2.18	AX	1.0	89.0	dot_pattern_expectancy	89.0	0.96	probe	AX	s570	False
191.871	0.5	191.87	0.5	AY	n/a	n/a	dot_pattern_expectancy	-1.0	n/a	cue	AY	s570	False
194.38	0.5	195.031	2.316	AY	1.0	71.0	dot_pattern_expectancy	71.0	0.651	probe	AY	s570	False
196.701	0.5	196.7	0.5	AY	n/a	n/a	dot_pattern_expectancy	-1.0	n/a	cue	AY	s570	False
199.204	0.5	199.998	1.636	AY	1.0	71.0	dot_pattern_expectancy	71.0	0.794	probe	AY	s570	False
200.847	0.5	200.846	0.5	BX	n/a	n/a	dot_pattern_expectancy	-1.0	n/a	cue	BX	s570	False
203.354	0.5	203.913	1.908	BX	1.0	71.0	dot_pattern_expectancy	71.0	0.559	probe	BX	s570	False
205.268	0.5	205.267	0.5	AX	n/a	n/a	dot_pattern_expectancy	-1.0	n/a	cue	AX	s570	False
207.775	0.5	208.231	3.54	AX	1.0	89.0	dot_pattern_expectancy	89.0	0.456	probe	AX	s570	False
211.317	0.5	211.316	0.5	BX	n/a	n/a	dot_pattern_expectancy	-1.0	n/a	cue	BX	s570	False
213.823	0.5	214.466	1.636	BX	1.0	71.0	dot_pattern_expectancy	71.0	0.643	probe	BX	s570	False
215.464	0.5	215.463	0.5	BY	n/a	n/a	dot_pattern_expectancy	-1.0	n/a	cue	BY	s570	False
217.97	0.5	218.322	1.5	BY	1.0	71.0	dot_pattern_expectancy	71.0	0.352	probe	BY	s570	False
219.472	0.5	219.471	0.5	AX	n/a	n/a	dot_pattern_expectancy	-1.0	n/a	cue	AX	s570	False
221.981	0.5	222.482	1.5	AX	1.0	89.0	dot_pattern_expectancy	89.0	0.501	probe	AX	s570	False
223.483	0.5	223.482	0.5	AX	n/a	n/a	dot_pattern_expectancy	-1.0	n/a	cue	AX	s570	False
225.992	0.5	226.483	1.772	AX	1.0	89.0	dot_pattern_expectancy	89.0	0.491	probe	AX	s570	False
227.768	0.5	227.767	0.5	BY	n/a	n/a	dot_pattern_expectancy	-1.0	n/a	cue	BY	s570	False
230.278	0.5	230.892	2.452	BY	1.0	71.0	dot_pattern_expectancy	71.0	0.614	probe	BY	s570	False
232.736	0.5	232.735	0.5	AX	n/a	n/a	dot_pattern_expectancy	-1.0	n/a	cue	AX	s570	False
235.248	0.5	235.646	1.908	AX	1.0	89.0	dot_pattern_expectancy	89.0	0.398	probe	AX	s570	False
237.158	0.5	237.157	0.5	BX	n/a	n/a	dot_pattern_expectancy	-1.0	n/a	cue	BX	s570	False
239.665	0.5	240.586	1.636	BX	1.0	71.0	dot_pattern_expectancy	71.0	0.921	probe	BX	s570	False
241.307	0.5	241.306	0.5	AX	n/a	n/a	dot_pattern_expectancy	-1.0	n/a	cue	AX	s570	False
243.817	0.5	244.224	1.5	AX	1.0	89.0	dot_pattern_expectancy	89.0	0.407	probe	AX	s570	False
245.318	0.5	245.317	0.5	AX	n/a	n/a	dot_pattern_expectancy	-1.0	n/a	cue	AX	s570	False
247.825	0.5	248.306	1.636	AX	1.0	89.0	dot_pattern_expectancy	89.0	0.481	probe	AX	s570	False
249.464	0.5	249.463	0.5	AX	n/a	n/a	dot_pattern_expectancy	-1.0	n/a	cue	AX	s570	False
251.975	0.5	252.548	1.636	AX	1.0	89.0	dot_pattern_expectancy	89.0	0.573	probe	AX	s570	False
253.617	0.5	253.616	0.5	BY	n/a	n/a	dot_pattern_expectancy	-1.0	n/a	cue	BY	s570	False
256.124	0.5	256.478	2.452	BY	1.0	71.0	dot_pattern_expectancy	71.0	0.354	probe	BY	s570	False
258.578	0.5	258.577	0.5	AX	n/a	n/a	dot_pattern_expectancy	-1.0	n/a	cue	AX	s570	False
261.087	0.5	261.647	1.5	AX	1.0	89.0	dot_pattern_expectancy	89.0	0.56	probe	AX	s570	False
262.588	0.5	262.587	0.5	BY	n/a	n/a	dot_pattern_expectancy	-1.0	n/a	cue	BY	s570	False
265.098	0.5	265.706	1.5	BY	1.0	71.0	dot_pattern_expectancy	71.0	0.608	probe	BY	s570	False
266.603	0.5	266.602	0.5	AX	n/a	n/a	dot_pattern_expectancy	-1.0	n/a	cue	AX	s570	False
269.115	0.5	269.114	1.636	AX	0.0	89.0	dot_pattern_expectancy	-1.0	n/a	probe	AX	s570	False
270.754	0.5	270.753	0.5	AX	n/a	n/a	dot_pattern_expectancy	-1.0	n/a	cue	AX	s570	False
273.261	0.5	273.806	1.636	AX	1.0	89.0	dot_pattern_expectancy	89.0	0.545	probe	AX	s570	False
274.903	0.5	274.902	0.5	AY	n/a	n/a	dot_pattern_expectancy	-1.0	n/a	cue	AY	s570	False
277.412	0.5	278.0	1.636	AY	1.0	71.0	dot_pattern_expectancy	71.0	0.588	probe	AY	s570	False
279.052	0.5	279.051	0.5	AX	n/a	n/a	dot_pattern_expectancy	-1.0	n/a	cue	AX	s570	False
281.555	0.5	282.226	1.5	AX	1.0	89.0	dot_pattern_expectancy	89.0	0.671	probe	AX	s570	False
283.061	0.5	283.06	0.5	AX	n/a	n/a	dot_pattern_expectancy	-1.0	n/a	cue	AX	s570	False
285.568	0.5	286.027	1.5	AX	1.0	89.0	dot_pattern_expectancy	89.0	0.459	probe	AX	s570	False
287.069	0.5	287.068	0.5	AX	n/a	n/a	dot_pattern_expectancy	-1.0	n/a	cue	AX	s570	False
289.579	0.5	290.001	1.772	AX	1.0	89.0	dot_pattern_expectancy	89.0	0.422	probe	AX	s570	False
291.352	0.5	291.351	0.5	AX	n/a	n/a	dot_pattern_expectancy	-1.0	n/a	cue	AX	s570	False
293.859	0.5	294.252	2.18	AX	1.0	89.0	dot_pattern_expectancy	89.0	0.393	probe	AX	s570	False
296.046	0.5	296.045	0.5	BX	n/a	n/a	dot_pattern_expectancy	-1.0	n/a	cue	BX	s570	False
298.55	0.5	298.826	1.772	BX	1.0	71.0	dot_pattern_expectancy	71.0	0.276	probe	BX	s570	False
300.326	0.5	300.325	0.5	BY	n/a	n/a	dot_pattern_expectancy	-1.0	n/a	cue	BY	s570	False
302.833	0.5	303.298	1.5	BY	1.0	71.0	dot_pattern_expectancy	71.0	0.465	probe	BY	s570	False
304.334	0.5	304.333	0.5	AX	n/a	n/a	dot_pattern_expectancy	-1.0	n/a	cue	AX	s570	False
306.843	0.5	307.377	1.5	AX	1.0	89.0	dot_pattern_expectancy	89.0	0.534	probe	AX	s570	False
308.347	0.5	308.346	0.5	AX	n/a	n/a	dot_pattern_expectancy	-1.0	n/a	cue	AX	s570	False
310.852	0.5	311.357	1.636	AX	1.0	89.0	dot_pattern_expectancy	89.0	0.505	probe	AX	s570	False
312.495	0.5	312.494	0.5	AY	n/a	n/a	dot_pattern_expectancy	-1.0	n/a	cue	AY	s570	False
315.001	0.5	316.199	2.18	AY	1.0	71.0	dot_pattern_expectancy	71.0	1.198	probe	AY	s570	False
317.183	0.5	317.182	0.5	AY	n/a	n/a	dot_pattern_expectancy	-1.0	n/a	cue	AY	s570	False
319.692	0.5	320.322	2.316	AY	1.0	71.0	dot_pattern_expectancy	71.0	0.63	probe	AY	s570	False
322.015	0.5	322.014	0.5	BX	n/a	n/a	dot_pattern_expectancy	-1.0	n/a	cue	BX	s570	False
324.521	0.5	325.088	1.636	BX	1.0	71.0	dot_pattern_expectancy	71.0	0.567	probe	BX	s570	False
326.159	0.5	326.158	0.5	BX	n/a	n/a	dot_pattern_expectancy	-1.0	n/a	cue	BX	s570	False
328.666	0.5	329.007	2.18	BX	1.0	71.0	dot_pattern_expectancy	71.0	0.341	probe	BX	s570	False
330.853	0.5	330.852	0.5	AY	n/a	n/a	dot_pattern_expectancy	-1.0	n/a	cue	AY	s570	False
333.362	0.5	333.96	2.044	AY	1.0	71.0	dot_pattern_expectancy	71.0	0.598	probe	AY	s570	False
335.413	0.5	335.412	0.5	AX	n/a	n/a	dot_pattern_expectancy	-1.0	n/a	cue	AX	s570	False
337.92	0.5	338.367	1.772	AX	1.0	89.0	dot_pattern_expectancy	89.0	0.447	probe	AX	s570	False
339.696	0.5	339.695	0.5	AX	n/a	n/a	dot_pattern_expectancy	-1.0	n/a	cue	AX	s570	False
342.205	0.5	342.731	1.5	AX	1.0	89.0	dot_pattern_expectancy	89.0	0.526	probe	AX	s570	False
343.712	0.5	343.711	0.5	AX	n/a	n/a	dot_pattern_expectancy	-1.0	n/a	cue	AX	s570	False
346.218	0.5	346.784	2.18	AX	1.0	89.0	dot_pattern_expectancy	89.0	0.566	probe	AX	s570	False
348.4	0.5	348.399	0.5	AY	n/a	n/a	dot_pattern_expectancy	-1.0	n/a	cue	AY	s570	False
350.907	0.5	351.744	2.452	AY	1.0	71.0	dot_pattern_expectancy	71.0	0.837	probe	AY	s570	False
353.366	0.5	353.365	0.5	AX	n/a	n/a	dot_pattern_expectancy	-1.0	n/a	cue	AX	s570	False
355.872	0.5	356.953	1.636	AX	1.0	89.0	dot_pattern_expectancy	89.0	1.081	probe	AX	s570	False
357.515	0.5	357.514	0.5	AX	n/a	n/a	dot_pattern_expectancy	-1.0	n/a	cue	AX	s570	False
360.022	0.5	360.602	1.908	AX	1.0	89.0	dot_pattern_expectancy	89.0	0.58	probe	AX	s570	False
372.451	0.5	372.45	0.5	AX	n/a	n/a	dot_pattern_expectancy	-1.0	n/a	cue	AX	s570	False
374.957	0.5	375.338	1.772	AX	1.0	89.0	dot_pattern_expectancy	89.0	0.381	probe	AX	s570	False
376.732	0.5	376.731	0.5	AX	n/a	n/a	dot_pattern_expectancy	-1.0	n/a	cue	AX	s570	False
379.241	0.5	379.777	1.5	AX	1.0	89.0	dot_pattern_expectancy	89.0	0.536	probe	AX	s570	False
380.743	0.5	380.742	0.5	AY	n/a	n/a	dot_pattern_expectancy	-1.0	n/a	cue	AY	s570	False
383.25	0.5	383.895	2.452	AY	1.0	71.0	dot_pattern_expectancy	71.0	0.645	probe	AY	s570	False
385.708	0.5	385.707	0.5	AY	n/a	n/a	dot_pattern_expectancy	-1.0	n/a	cue	AY	s570	False
388.212	0.5	388.605	1.772	AY	0.0	71.0	dot_pattern_expectancy	89.0	0.393	probe	AY	s570	False
389.991	0.5	389.99	0.5	AX	n/a	n/a	dot_pattern_expectancy	-1.0	n/a	cue	AX	s570	False
392.498	0.5	393.18	1.908	AX	1.0	89.0	dot_pattern_expectancy	89.0	0.682	probe	AX	s570	False
394.413	0.5	394.412	0.5	AX	n/a	n/a	dot_pattern_expectancy	-1.0	n/a	cue	AX	s570	False
396.919	0.5	397.612	1.908	AX	1.0	89.0	dot_pattern_expectancy	89.0	0.693	probe	AX	s570	False
398.829	0.5	398.828	0.5	AX	n/a	n/a	dot_pattern_expectancy	-1.0	n/a	cue	AX	s570	False
401.336	0.5	401.901	2.588	AX	1.0	89.0	dot_pattern_expectancy	89.0	0.565	probe	AX	s570	False
403.928	0.5	403.927	0.5	AY	n/a	n/a	dot_pattern_expectancy	-1.0	n/a	cue	AY	s570	False
406.437	0.5	407.261	1.5	AY	1.0	71.0	dot_pattern_expectancy	71.0	0.824	probe	AY	s570	False
407.942	0.5	407.941	0.5	BY	n/a	n/a	dot_pattern_expectancy	-1.0	n/a	cue	BY	s570	False
410.447	0.5	411.2	1.5	BY	1.0	71.0	dot_pattern_expectancy	71.0	0.753	probe	BY	s570	False
411.949	0.5	411.948	0.5	BY	n/a	n/a	dot_pattern_expectancy	-1.0	n/a	cue	BY	s570	False
414.459	0.5	415.018	1.5	BY	1.0	71.0	dot_pattern_expectancy	71.0	0.559	probe	BY	s570	False
415.964	0.5	415.963	0.5	AX	n/a	n/a	dot_pattern_expectancy	-1.0	n/a	cue	AX	s570	False
418.472	0.5	419.031	1.636	AX	1.0	89.0	dot_pattern_expectancy	89.0	0.559	probe	AX	s570	False
420.11	0.5	420.109	0.5	BX	n/a	n/a	dot_pattern_expectancy	-1.0	n/a	cue	BX	s570	False
422.619	0.5	422.908	2.044	BX	1.0	71.0	dot_pattern_expectancy	71.0	0.289	probe	BX	s570	False
424.665	0.5	424.664	0.5	AX	n/a	n/a	dot_pattern_expectancy	-1.0	n/a	cue	AX	s570	False
427.174	0.5	427.633	1.772	AX	1.0	89.0	dot_pattern_expectancy	89.0	0.459	probe	AX	s570	False
428.953	0.5	428.952	0.5	BX	n/a	n/a	dot_pattern_expectancy	-1.0	n/a	cue	BX	s570	False
431.462	0.5	431.721	2.588	BX	1.0	71.0	dot_pattern_expectancy	71.0	0.259	probe	BX	s570	False
434.054	0.5	434.053	0.5	AY	n/a	n/a	dot_pattern_expectancy	-1.0	n/a	cue	AY	s570	False
436.561	0.5	437.217	1.5	AY	1.0	71.0	dot_pattern_expectancy	71.0	0.656	probe	AY	s570	False
438.064	0.5	438.063	0.5	AX	n/a	n/a	dot_pattern_expectancy	-1.0	n/a	cue	AX	s570	False
440.569	0.5	441.092	2.452	AX	1.0	89.0	dot_pattern_expectancy	89.0	0.523	probe	AX	s570	False
443.028	0.5	443.027	0.5	BY	n/a	n/a	dot_pattern_expectancy	-1.0	n/a	cue	BY	s570	False
445.535	0.5	445.809	1.636	BY	1.0	71.0	dot_pattern_expectancy	71.0	0.274	probe	BY	s570	False
447.178	0.5	447.177	0.5	AX	n/a	n/a	dot_pattern_expectancy	-1.0	n/a	cue	AX	s570	False
449.684	0.5	450.1	1.636	AX	1.0	89.0	dot_pattern_expectancy	89.0	0.416	probe	AX	s570	False
451.322	0.5	451.321	0.5	AX	n/a	n/a	dot_pattern_expectancy	-1.0	n/a	cue	AX	s570	False
453.834	0.5	454.352	1.5	AX	1.0	89.0	dot_pattern_expectancy	89.0	0.518	probe	AX	s570	False
455.338	0.5	455.337	0.5	BY	n/a	n/a	dot_pattern_expectancy	-1.0	n/a	cue	BY	s570	False
457.845	0.5	458.233	1.636	BY	1.0	71.0	dot_pattern_expectancy	71.0	0.388	probe	BY	s570	False
459.488	0.5	459.487	0.5	AX	n/a	n/a	dot_pattern_expectancy	-1.0	n/a	cue	AX	s570	False
461.995	0.5	462.573	1.5	AX	1.0	89.0	dot_pattern_expectancy	89.0	0.578	probe	AX	s570	False
463.498	0.5	463.497	0.5	AY	n/a	n/a	dot_pattern_expectancy	-1.0	n/a	cue	AY	s570	False
466.01	0.5	466.809	2.18	AY	1.0	71.0	dot_pattern_expectancy	71.0	0.799	probe	AY	s570	False
468.192	0.5	468.191	0.5	AX	n/a	n/a	dot_pattern_expectancy	-1.0	n/a	cue	AX	s570	False
470.701	0.5	471.341	1.5	AX	1.0	89.0	dot_pattern_expectancy	89.0	0.64	probe	AX	s570	False
472.203	0.5	472.202	0.5	AX	n/a	n/a	dot_pattern_expectancy	-1.0	n/a	cue	AX	s570	False
474.711	0.5	475.171	1.908	AX	1.0	89.0	dot_pattern_expectancy	89.0	0.46	probe	AX	s570	False
476.624	0.5	476.623	0.5	BY	n/a	n/a	dot_pattern_expectancy	-1.0	n/a	cue	BY	s570	False
479.131	0.5	479.793	1.636	BY	1.0	71.0	dot_pattern_expectancy	71.0	0.662	probe	BY	s570	False
480.77	0.5	480.769	0.5	BY	n/a	n/a	dot_pattern_expectancy	-1.0	n/a	cue	BY	s570	False
483.28	0.5	483.82	1.636	BY	1.0	71.0	dot_pattern_expectancy	71.0	0.54	probe	BY	s570	False
484.921	0.5	484.92	0.5	AX	n/a	n/a	dot_pattern_expectancy	-1.0	n/a	cue	AX	s570	False
487.425	0.5	488.103	1.636	AX	1.0	89.0	dot_pattern_expectancy	89.0	0.678	probe	AX	s570	False
489.067	0.5	489.066	0.5	AX	n/a	n/a	dot_pattern_expectancy	-1.0	n/a	cue	AX	s570	False
491.579	0.5	492.095	1.5	AX	1.0	89.0	dot_pattern_expectancy	89.0	0.516	probe	AX	s570	False
493.085	0.5	493.084	0.5	BY	n/a	n/a	dot_pattern_expectancy	-1.0	n/a	cue	BY	s570	False
495.593	0.5	495.592	2.044	BY	0.0	71.0	dot_pattern_expectancy	-1.0	n/a	probe	BY	s570	False
497.644	0.5	497.643	0.5	AY	n/a	n/a	dot_pattern_expectancy	-1.0	n/a	cue	AY	s570	False
500.15	0.5	500.93	2.18	AY	1.0	71.0	dot_pattern_expectancy	71.0	0.78	probe	AY	s570	False
502.332	0.5	502.331	0.5	AY	n/a	n/a	dot_pattern_expectancy	-1.0	n/a	cue	AY	s570	False
504.839	0.5	505.576	1.636	AY	1.0	71.0	dot_pattern_expectancy	71.0	0.737	probe	AY	s570	False
506.477	0.5	506.476	0.5	AY	n/a	n/a	dot_pattern_expectancy	-1.0	n/a	cue	AY	s570	False
508.984	0.5	509.838	1.772	AY	1.0	71.0	dot_pattern_expectancy	71.0	0.854	probe	AY	s570	False
510.762	0.5	510.761	0.5	BY	n/a	n/a	dot_pattern_expectancy	-1.0	n/a	cue	BY	s570	False
513.266	0.5	513.569	1.5	BY	1.0	71.0	dot_pattern_expectancy	71.0	0.303	probe	BY	s570	False
514.769	0.5	514.768	0.5	BX	n/a	n/a	dot_pattern_expectancy	-1.0	n/a	cue	BX	s570	False
517.276	0.5	517.759	1.908	BX	1.0	71.0	dot_pattern_expectancy	71.0	0.483	probe	BX	s570	False
519.186	0.5	519.185	0.5	AX	n/a	n/a	dot_pattern_expectancy	-1.0	n/a	cue	AX	s570	False
521.695	0.5	521.694	2.044	AX	0.0	89.0	dot_pattern_expectancy	-1.0	n/a	probe	AX	s570	False
523.746	0.5	523.745	0.5	AX	n/a	n/a	dot_pattern_expectancy	-1.0	n/a	cue	AX	s570	False
526.253	0.5	526.757	1.636	AX	1.0	89.0	dot_pattern_expectancy	89.0	0.504	probe	AX	s570	False
527.89	0.5	527.889	0.5	AX	n/a	n/a	dot_pattern_expectancy	-1.0	n/a	cue	AX	s570	False
530.4	0.5	530.762	1.772	AX	1.0	89.0	dot_pattern_expectancy	89.0	0.362	probe	AX	s570	False
532.178	0.5	532.177	0.5	AX	n/a	n/a	dot_pattern_expectancy	-1.0	n/a	cue	AX	s570	False
534.688	0.5	535.179	1.636	AX	1.0	89.0	dot_pattern_expectancy	89.0	0.491	probe	AX	s570	False
536.328	0.5	536.327	0.5	BX	n/a	n/a	dot_pattern_expectancy	-1.0	n/a	cue	BX	s570	False
538.835	0.5	539.164	1.772	BX	1.0	71.0	dot_pattern_expectancy	71.0	0.329	probe	BX	s570	False
540.611	0.5	540.61	0.5	AX	n/a	n/a	dot_pattern_expectancy	-1.0	n/a	cue	AX	s570	False
543.123	0.5	543.666	1.5	AX	1.0	89.0	dot_pattern_expectancy	89.0	0.543	probe	AX	s570	False
555.142	0.5	555.141	0.5	BY	n/a	n/a	dot_pattern_expectancy	-1.0	n/a	cue	BY	s570	False
557.649	0.5	557.968	1.636	BY	1.0	71.0	dot_pattern_expectancy	71.0	0.319	probe	BY	s570	False
559.292	0.5	559.291	0.5	AY	n/a	n/a	dot_pattern_expectancy	-1.0	n/a	cue	AY	s570	False
561.798	0.5	562.493	1.5	AY	1.0	71.0	dot_pattern_expectancy	71.0	0.695	probe	AY	s570	False
563.305	0.5	563.304	0.5	AX	n/a	n/a	dot_pattern_expectancy	-1.0	n/a	cue	AX	s570	False
565.815	0.5	566.386	2.044	AX	1.0	89.0	dot_pattern_expectancy	89.0	0.571	probe	AX	s570	False
567.865	0.5	567.864	0.5	BY	n/a	n/a	dot_pattern_expectancy	-1.0	n/a	cue	BY	s570	False
570.369	0.5	570.67	1.772	BY	1.0	71.0	dot_pattern_expectancy	71.0	0.301	probe	BY	s570	False
572.148	0.5	572.147	0.5	BX	n/a	n/a	dot_pattern_expectancy	-1.0	n/a	cue	BX	s570	False
574.656	0.5	575.035	1.636	BX	1.0	71.0	dot_pattern_expectancy	71.0	0.379	probe	BX	s570	False
576.298	0.5	576.297	0.5	AX	n/a	n/a	dot_pattern_expectancy	-1.0	n/a	cue	AX	s570	False
578.804	0.5	579.381	1.636	AX	1.0	89.0	dot_pattern_expectancy	89.0	0.577	probe	AX	s570	False
580.445	0.5	580.444	0.5	AX	n/a	n/a	dot_pattern_expectancy	-1.0	n/a	cue	AX	s570	False
582.951	0.5	583.355	1.5	AX	1.0	89.0	dot_pattern_expectancy	89.0	0.404	probe	AX	s570	False
584.453	0.5	584.452	0.5	AX	n/a	n/a	dot_pattern_expectancy	-1.0	n/a	cue	AX	s570	False
586.964	0.5	587.375	1.5	AX	1.0	89.0	dot_pattern_expectancy	89.0	0.411	probe	AX	s570	False
588.468	0.5	588.467	0.5	AY	n/a	n/a	dot_pattern_expectancy	-1.0	n/a	cue	AY	s570	False
590.975	0.5	591.545	2.044	AY	1.0	71.0	dot_pattern_expectancy	71.0	0.57	probe	AY	s570	False
593.023	0.5	593.022	0.5	AX	n/a	n/a	dot_pattern_expectancy	-1.0	n/a	cue	AX	s570	False
595.53	0.5	596.134	2.452	AX	1.0	89.0	dot_pattern_expectancy	89.0	0.604	probe	AX	s570	False
597.985	0.5	597.984	0.5	AX	n/a	n/a	dot_pattern_expectancy	-1.0	n/a	cue	AX	s570	False
600.49	0.5	600.984	1.908	AX	1.0	89.0	dot_pattern_expectancy	89.0	0.494	probe	AX	s570	False
602.401	0.5	602.4	0.5	AX	n/a	n/a	dot_pattern_expectancy	-1.0	n/a	cue	AX	s570	False
604.909	0.5	605.451	1.5	AX	1.0	89.0	dot_pattern_expectancy	89.0	0.542	probe	AX	s570	False
606.416	0.5	606.415	0.5	AX	n/a	n/a	dot_pattern_expectancy	-1.0	n/a	cue	AX	s570	False
608.923	0.5	609.38	1.908	AX	1.0	89.0	dot_pattern_expectancy	89.0	0.457	probe	AX	s570	False
610.832	0.5	610.831	0.5	BX	n/a	n/a	dot_pattern_expectancy	-1.0	n/a	cue	BX	s570	False
613.339	0.5	613.338	2.18	BX	0.0	71.0	dot_pattern_expectancy	-1.0	n/a	probe	BX	s570	False
615.526	0.5	615.525	0.5	AX	n/a	n/a	dot_pattern_expectancy	-1.0	n/a	cue	AX	s570	False
618.034	0.5	618.791	1.5	AX	1.0	89.0	dot_pattern_expectancy	89.0	0.757	probe	AX	s570	False
619.537	0.5	619.536	0.5	BY	n/a	n/a	dot_pattern_expectancy	-1.0	n/a	cue	BY	s570	False
622.043	0.5	622.356	1.908	BY	1.0	71.0	dot_pattern_expectancy	71.0	0.313	probe	BY	s570	False
623.953	0.5	623.952	0.5	BX	n/a	n/a	dot_pattern_expectancy	-1.0	n/a	cue	BX	s570	False
626.459	0.5	626.954	2.316	BX	1.0	71.0	dot_pattern_expectancy	71.0	0.495	probe	BX	s570	False
628.78	0.5	628.779	0.5	AY	n/a	n/a	dot_pattern_expectancy	-1.0	n/a	cue	AY	s570	False
631.287	0.5	631.852	2.316	AY	1.0	71.0	dot_pattern_expectancy	71.0	0.565	probe	AY	s570	False
633.609	0.5	633.608	0.5	BX	n/a	n/a	dot_pattern_expectancy	-1.0	n/a	cue	BX	s570	False
636.113	0.5	636.501	1.636	BX	1.0	71.0	dot_pattern_expectancy	71.0	0.388	probe	BX	s570	False
637.756	0.5	637.755	0.5	AY	n/a	n/a	dot_pattern_expectancy	-1.0	n/a	cue	AY	s570	False
640.265	0.5	640.876	1.5	AY	1.0	71.0	dot_pattern_expectancy	71.0	0.611	probe	AY	s570	False
641.767	0.5	641.766	0.5	BY	n/a	n/a	dot_pattern_expectancy	-1.0	n/a	cue	BY	s570	False
644.273	0.5	644.626	1.908	BY	1.0	71.0	dot_pattern_expectancy	71.0	0.353	probe	BY	s570	False
646.183	0.5	646.182	0.5	AX	n/a	n/a	dot_pattern_expectancy	-1.0	n/a	cue	AX	s570	False
648.694	0.5	649.075	1.5	AX	1.0	89.0	dot_pattern_expectancy	89.0	0.381	probe	AX	s570	False
650.199	0.5	650.198	0.5	AY	n/a	n/a	dot_pattern_expectancy	-1.0	n/a	cue	AY	s570	False
652.709	0.5	653.63	2.316	AY	1.0	71.0	dot_pattern_expectancy	71.0	0.921	probe	AY	s570	False
655.026	0.5	655.025	0.5	AX	n/a	n/a	dot_pattern_expectancy	-1.0	n/a	cue	AX	s570	False
657.535	0.5	658.425	1.5	AX	1.0	89.0	dot_pattern_expectancy	89.0	0.89	probe	AX	s570	False
659.038	0.5	659.037	0.5	AY	n/a	n/a	dot_pattern_expectancy	-1.0	n/a	cue	AY	s570	False
661.544	0.5	662.188	2.724	AY	1.0	71.0	dot_pattern_expectancy	71.0	0.644	probe	AY	s570	False
664.274	0.5	664.273	0.5	AX	n/a	n/a	dot_pattern_expectancy	-1.0	n/a	cue	AX	s570	False
666.786	0.5	667.387	1.5	AX	1.0	89.0	dot_pattern_expectancy	89.0	0.601	probe	AX	s570	False
668.288	0.5	668.287	0.5	AX	n/a	n/a	dot_pattern_expectancy	-1.0	n/a	cue	AX	s570	False
670.797	0.5	671.271	1.636	AX	1.0	89.0	dot_pattern_expectancy	89.0	0.474	probe	AX	s570	False
672.435	0.5	672.434	0.5	AX	n/a	n/a	dot_pattern_expectancy	-1.0	n/a	cue	AX	s570	False
674.941	0.5	675.391	1.636	AX	1.0	89.0	dot_pattern_expectancy	89.0	0.45	probe	AX	s570	False
676.579	0.5	676.578	0.5	AX	n/a	n/a	dot_pattern_expectancy	-1.0	n/a	cue	AX	s570	False
679.086	0.5	679.61	1.772	AX	1.0	89.0	dot_pattern_expectancy	89.0	0.524	probe	AX	s570	False
680.862	0.5	680.861	0.5	BY	n/a	n/a	dot_pattern_expectancy	-1.0	n/a	cue	BY	s570	False
683.371	0.5	683.688	1.772	BY	1.0	71.0	dot_pattern_expectancy	71.0	0.317	probe	BY	s570	False
685.15	0.5	685.149	0.5	AX	n/a	n/a	dot_pattern_expectancy	-1.0	n/a	cue	AX	s570	False
687.659	0.5	688.616	1.5	AX	1.0	89.0	dot_pattern_expectancy	89.0	0.957	probe	AX	s570	False
689.166	0.5	689.165	0.5	BY	n/a	n/a	dot_pattern_expectancy	-1.0	n/a	cue	BY	s570	False
691.673	0.5	692.091	2.452	BY	1.0	71.0	dot_pattern_expectancy	71.0	0.418	probe	BY	s570	False
694.131	0.5	694.13	0.5	AX	n/a	n/a	dot_pattern_expectancy	-1.0	n/a	cue	AX	s570	False
696.638	0.5	697.358	1.636	AX	1.0	89.0	dot_pattern_expectancy	89.0	0.72	probe	AX	s570	False
698.281	0.5	698.28	0.5	AX	n/a	n/a	dot_pattern_expectancy	-1.0	n/a	cue	AX	s570	False
700.788	0.5	701.377	1.636	AX	1.0	89.0	dot_pattern_expectancy	89.0	0.589	probe	AX	s570	False
702.425	0.5	702.424	0.5	BX	n/a	n/a	dot_pattern_expectancy	-1.0	n/a	cue	BX	s570	False
704.935	0.5	705.283	1.5	BX	1.0	71.0	dot_pattern_expectancy	71.0	0.348	probe	BX	s570	False
706.436	0.5	706.435	0.5	BX	n/a	n/a	dot_pattern_expectancy	-1.0	n/a	cue	BX	s570	False
708.945	0.5	709.252	1.5	BX	1.0	71.0	dot_pattern_expectancy	71.0	0.307	probe	BX	s570	False
710.447	0.5	710.446	0.5	AX	n/a	n/a	dot_pattern_expectancy	-1.0	n/a	cue	AX	s570	False
712.956	0.5	713.471	2.316	AX	1.0	89.0	dot_pattern_expectancy	89.0	0.515	probe	AX	s570	False
715.274	0.5	715.273	0.5	AY	n/a	n/a	dot_pattern_expectancy	-1.0	n/a	cue	AY	s570	False
717.785	0.5	718.665	2.044	AY	1.0	71.0	dot_pattern_expectancy	71.0	0.88	probe	AY	s570	False
719.834	0.5	719.833	0.5	AX	n/a	n/a	dot_pattern_expectancy	-1.0	n/a	cue	AX	s570	False
722.342	0.5	723.458	3.948	AX	1.0	89.0	dot_pattern_expectancy	89.0	1.116	probe	AX	s570	False
726.293	0.5	726.292	0.5	AX	n/a	n/a	dot_pattern_expectancy	-1.0	n/a	cue	AX	s570	False
728.8	0.5	729.38	1.636	AX	1.0	89.0	dot_pattern_expectancy	89.0	0.58	probe	AX	s570	False
