duration	onset	block_duration	movement_onset	planning	condition	exp_stage	experiment_exp_id	key_press	problem_id	response_time	trial_id	trial_type	worker_id	junk
8.931	3.02	8.931	11.951	1	UA_with_intermediate	practice	ward_and_allport	71	0.0	8.931	to_hand	poldrack-single-stim	s570	False
0.1	11.953	0.584	12.537	0	UA_with_intermediate	practice	ward_and_allport	82	0.0	0.584	to_board	poldrack-single-stim	s570	False
0.1	12.539	1.183	13.722	0	UA_with_intermediate	practice	ward_and_allport	71	0.0	1.183	to_hand	poldrack-single-stim	s570	False
0.1	13.723	0.422	14.145	0	UA_with_intermediate	practice	ward_and_allport	89	0.0	0.422	to_board	poldrack-single-stim	s570	False
0.1	14.147	0.599	14.746	0	UA_with_intermediate	practice	ward_and_allport	82	0.0	0.599	to_hand	poldrack-single-stim	s570	False
0.1	14.747	0.683	15.43	0	UA_with_intermediate	practice	ward_and_allport	89	0.0	0.683	to_board	poldrack-single-stim	s570	False
1.0	15.438	2.5	15.437	0	UA_with_intermediate	practice	ward_and_allport	-1	0.0	n/a	feedback	poldrack-single-stim	s570	False
5.691	17.94	5.691	23.631	1	UA_with_intermediate	practice	ward_and_allport	89	1.0	5.691	to_hand	poldrack-single-stim	s570	False
0.1	23.633	0.439	24.072	0	UA_with_intermediate	practice	ward_and_allport	82	1.0	0.439	to_board	poldrack-single-stim	s570	False
0.1	24.073	1.57	25.643	0	UA_with_intermediate	practice	ward_and_allport	71	1.0	1.57	to_hand	poldrack-single-stim	s570	False
0.1	25.645	0.302	25.947	0	UA_with_intermediate	practice	ward_and_allport	89	1.0	0.302	to_board	poldrack-single-stim	s570	False
0.1	25.948	1.086	27.034	0	UA_with_intermediate	practice	ward_and_allport	82	1.0	1.086	to_hand	poldrack-single-stim	s570	False
0.1	27.034	0.267	27.301	0	UA_with_intermediate	practice	ward_and_allport	89	1.0	0.267	to_board	poldrack-single-stim	s570	False
1.0	27.305	2.1	27.304	0	UA_with_intermediate	practice	ward_and_allport	-1	1.0	n/a	feedback	poldrack-single-stim	s570	False
3.409	29.406	3.409	32.815	1	UA_without_intermediate	practice	ward_and_allport	82	2.0	3.409	to_hand	poldrack-single-stim	s570	False
0.1	32.816	0.726	33.542	0	UA_without_intermediate	practice	ward_and_allport	89	2.0	0.726	to_board	poldrack-single-stim	s570	False
0.1	33.545	0.932	34.477	0	UA_without_intermediate	practice	ward_and_allport	71	2.0	0.932	to_hand	poldrack-single-stim	s570	False
0.1	34.478	0.959	35.437	0	UA_without_intermediate	practice	ward_and_allport	89	2.0	0.959	to_board	poldrack-single-stim	s570	False
0.1	35.44	1.214	36.654	0	UA_without_intermediate	practice	ward_and_allport	71	2.0	1.214	to_hand	poldrack-single-stim	s570	False
0.1	36.654	1.398	38.052	0	UA_without_intermediate	practice	ward_and_allport	89	2.0	1.398	to_board	poldrack-single-stim	s570	False
1.0	38.058	2.2	38.057	0	UA_without_intermediate	practice	ward_and_allport	-1	2.0	n/a	feedback	poldrack-single-stim	s570	False
3.665	40.26	3.665	43.925	1	UA_without_intermediate	practice	ward_and_allport	71	3.0	3.665	to_hand	poldrack-single-stim	s570	False
0.1	43.926	0.423	44.349	0	UA_without_intermediate	practice	ward_and_allport	89	3.0	0.423	to_board	poldrack-single-stim	s570	False
0.1	44.351	1.72	46.071	0	UA_without_intermediate	practice	ward_and_allport	82	3.0	1.72	to_hand	poldrack-single-stim	s570	False
0.1	46.072	0.296	46.368	0	UA_without_intermediate	practice	ward_and_allport	89	3.0	0.296	to_board	poldrack-single-stim	s570	False
0.1	46.37	0.294	46.664	0	UA_without_intermediate	practice	ward_and_allport	71	3.0	0.294	to_hand	poldrack-single-stim	s570	False
0.1	46.664	0.262	46.926	0	UA_without_intermediate	practice	ward_and_allport	89	3.0	0.262	to_board	poldrack-single-stim	s570	False
1.0	46.931	2.0	46.93	0	UA_without_intermediate	practice	ward_and_allport	-1	3.0	n/a	feedback	poldrack-single-stim	s570	False
11.036	50.936	11.036	61.972	1	PA_with_intermediate	test	ward_and_allport	89	0.0	11.036	to_hand	poldrack-single-stim	s570	False
0.1	61.973	1.996	63.969	0	PA_with_intermediate	test	ward_and_allport	71	0.0	1.996	to_board	poldrack-single-stim	s570	False
0.1	63.972	0.491	64.463	0	PA_with_intermediate	test	ward_and_allport	89	0.0	0.491	to_hand	poldrack-single-stim	s570	False
0.1	64.463	0.336	64.799	0	PA_with_intermediate	test	ward_and_allport	82	0.0	0.336	to_board	poldrack-single-stim	s570	False
0.1	64.801	0.372	65.173	0	PA_with_intermediate	test	ward_and_allport	71	0.0	0.372	to_hand	poldrack-single-stim	s570	False
0.1	65.175	0.263	65.438	0	PA_with_intermediate	test	ward_and_allport	82	0.0	0.263	to_board	poldrack-single-stim	s570	False
1.0	65.441	3.768	65.44	0	PA_with_intermediate	test	ward_and_allport	-1	0.0	n/a	feedback	poldrack-single-stim	s570	False
5.099	69.211	5.099	74.31	1	PA_with_intermediate	test	ward_and_allport	71	1.0	5.099	to_hand	poldrack-single-stim	s570	False
0.1	74.311	0.293	74.604	0	PA_with_intermediate	test	ward_and_allport	89	1.0	0.293	to_board	poldrack-single-stim	s570	False
0.1	74.606	0.749	75.355	0	PA_with_intermediate	test	ward_and_allport	71	1.0	0.749	to_hand	poldrack-single-stim	s570	False
0.1	75.356	0.391	75.747	0	PA_with_intermediate	test	ward_and_allport	82	1.0	0.391	to_board	poldrack-single-stim	s570	False
0.1	75.749	0.735	76.484	0	PA_with_intermediate	test	ward_and_allport	89	1.0	0.735	to_hand	poldrack-single-stim	s570	False
0.1	76.484	0.475	76.959	0	PA_with_intermediate	test	ward_and_allport	71	1.0	0.475	to_board	poldrack-single-stim	s570	False
1.0	76.966	2.68	76.965	0	PA_with_intermediate	test	ward_and_allport	-1	1.0	n/a	feedback	poldrack-single-stim	s570	False
3.51	79.648	3.51	83.158	1	PA_without_intermediate	test	ward_and_allport	89	2.0	3.51	to_hand	poldrack-single-stim	s570	False
0.1	83.16	0.441	83.601	0	PA_without_intermediate	test	ward_and_allport	82	2.0	0.441	to_board	poldrack-single-stim	s570	False
0.1	83.603	1.035	84.638	0	PA_without_intermediate	test	ward_and_allport	89	2.0	1.035	to_hand	poldrack-single-stim	s570	False
0.1	84.639	1.072	85.711	0	PA_without_intermediate	test	ward_and_allport	71	2.0	1.072	to_board	poldrack-single-stim	s570	False
0.1	85.712	0.353	86.065	0	PA_without_intermediate	test	ward_and_allport	89	2.0	0.353	to_hand	poldrack-single-stim	s570	False
0.1	86.067	0.357	86.424	0	PA_without_intermediate	test	ward_and_allport	82	2.0	0.357	to_board	poldrack-single-stim	s570	False
1.0	86.427	3.224	86.426	0	PA_without_intermediate	test	ward_and_allport	-1	2.0	n/a	feedback	poldrack-single-stim	s570	False
3.732	89.654	3.732	93.386	1	PA_without_intermediate	test	ward_and_allport	82	3.0	3.732	to_hand	poldrack-single-stim	s570	False
0.1	93.386	0.305	93.691	0	PA_without_intermediate	test	ward_and_allport	71	3.0	0.305	to_board	poldrack-single-stim	s570	False
0.1	93.694	1.287	94.981	0	PA_without_intermediate	test	ward_and_allport	82	3.0	1.287	to_hand	poldrack-single-stim	s570	False
0.1	94.981	0.316	95.297	0	PA_without_intermediate	test	ward_and_allport	89	3.0	0.316	to_board	poldrack-single-stim	s570	False
0.1	95.3	0.724	96.024	0	PA_without_intermediate	test	ward_and_allport	82	3.0	0.724	to_hand	poldrack-single-stim	s570	False
0.1	96.026	0.304	96.33	0	PA_without_intermediate	test	ward_and_allport	71	3.0	0.304	to_board	poldrack-single-stim	s570	False
1.0	96.335	3.36	96.334	0	PA_without_intermediate	test	ward_and_allport	-1	3.0	n/a	feedback	poldrack-single-stim	s570	False
6.152	99.698	6.152	105.85	1	PA_without_intermediate	test	ward_and_allport	89	4.0	6.152	to_hand	poldrack-single-stim	s570	False
0.1	105.851	0.351	106.202	0	PA_without_intermediate	test	ward_and_allport	71	4.0	0.351	to_board	poldrack-single-stim	s570	False
0.1	106.205	0.419	106.624	0	PA_without_intermediate	test	ward_and_allport	89	4.0	0.419	to_hand	poldrack-single-stim	s570	False
0.1	106.625	0.572	107.197	0	PA_without_intermediate	test	ward_and_allport	71	4.0	0.572	to_board	poldrack-single-stim	s570	False
0.1	107.2	0.392	107.592	0	PA_without_intermediate	test	ward_and_allport	89	4.0	0.392	to_hand	poldrack-single-stim	s570	False
0.1	107.593	0.355	107.948	0	PA_without_intermediate	test	ward_and_allport	82	4.0	0.355	to_board	poldrack-single-stim	s570	False
1.0	107.955	2.0	107.954	0	PA_without_intermediate	test	ward_and_allport	-1	4.0	n/a	feedback	poldrack-single-stim	s570	False
6.425	109.958	6.425	116.383	1	PA_without_intermediate	test	ward_and_allport	71	5.0	6.425	to_hand	poldrack-single-stim	s570	False
0.1	116.383	0.341	116.724	0	PA_without_intermediate	test	ward_and_allport	89	5.0	0.341	to_board	poldrack-single-stim	s570	False
0.1	116.728	0.466	117.194	0	PA_without_intermediate	test	ward_and_allport	71	5.0	0.466	to_hand	poldrack-single-stim	s570	False
0.1	117.194	0.531	117.725	0	PA_without_intermediate	test	ward_and_allport	82	5.0	0.531	to_board	poldrack-single-stim	s570	False
0.1	117.728	0.385	118.113	0	PA_without_intermediate	test	ward_and_allport	71	5.0	0.385	to_hand	poldrack-single-stim	s570	False
0.1	118.115	0.359	118.474	0	PA_without_intermediate	test	ward_and_allport	89	5.0	0.359	to_board	poldrack-single-stim	s570	False
1.0	118.482	2.408	118.481	0	PA_without_intermediate	test	ward_and_allport	-1	5.0	n/a	feedback	poldrack-single-stim	s570	False
5.357	120.893	5.357	126.25	1	PA_with_intermediate	test	ward_and_allport	71	6.0	5.357	to_hand	poldrack-single-stim	s570	False
0.1	126.25	0.317	126.567	0	PA_with_intermediate	test	ward_and_allport	89	6.0	0.317	to_board	poldrack-single-stim	s570	False
0.1	126.571	0.476	127.047	0	PA_with_intermediate	test	ward_and_allport	71	6.0	0.476	to_hand	poldrack-single-stim	s570	False
0.1	127.048	0.401	127.449	0	PA_with_intermediate	test	ward_and_allport	82	6.0	0.401	to_board	poldrack-single-stim	s570	False
0.1	127.452	0.443	127.895	0	PA_with_intermediate	test	ward_and_allport	71	6.0	0.443	to_hand	poldrack-single-stim	s570	False
0.1	127.896	2.572	130.468	0	PA_with_intermediate	test	ward_and_allport	71	6.0	2.572	to_board	poldrack-single-stim	s570	False
0.1	130.472	0.57	131.042	0	PA_with_intermediate	test	ward_and_allport	89	6.0	0.57	to_hand	poldrack-single-stim	s570	False
0.1	131.043	0.281	131.324	0	PA_with_intermediate	test	ward_and_allport	71	6.0	0.281	to_board	poldrack-single-stim	s570	False
1.0	131.331	2.136	131.33	0	PA_with_intermediate	test	ward_and_allport	-1	6.0	n/a	feedback	poldrack-single-stim	s570	False
1.835	133.47	1.835	135.305	1	PA_without_intermediate	test	ward_and_allport	71	7.0	1.835	to_hand	poldrack-single-stim	s570	False
0.1	135.306	0.368	135.674	0	PA_without_intermediate	test	ward_and_allport	82	7.0	0.368	to_board	poldrack-single-stim	s570	False
0.1	135.678	0.716	136.394	0	PA_without_intermediate	test	ward_and_allport	71	7.0	0.716	to_hand	poldrack-single-stim	s570	False
0.1	136.395	1.561	137.956	0	PA_without_intermediate	test	ward_and_allport	82	7.0	1.561	to_board	poldrack-single-stim	s570	False
0.1	137.96	1.205	139.165	0	PA_without_intermediate	test	ward_and_allport	71	7.0	1.205	to_hand	poldrack-single-stim	s570	False
0.1	139.166	0.313	139.479	0	PA_without_intermediate	test	ward_and_allport	89	7.0	0.313	to_board	poldrack-single-stim	s570	False
1.0	139.486	5.128	139.485	0	PA_without_intermediate	test	ward_and_allport	-1	7.0	n/a	feedback	poldrack-single-stim	s570	False
2.343	144.616	2.343	146.959	1	PA_without_intermediate	test	ward_and_allport	71	8.0	2.343	to_hand	poldrack-single-stim	s570	False
0.1	146.96	0.344	147.304	0	PA_without_intermediate	test	ward_and_allport	82	8.0	0.344	to_board	poldrack-single-stim	s570	False
0.1	147.307	1.324	148.631	0	PA_without_intermediate	test	ward_and_allport	71	8.0	1.324	to_hand	poldrack-single-stim	s570	False
0.1	148.632	0.283	148.915	0	PA_without_intermediate	test	ward_and_allport	89	8.0	0.283	to_board	poldrack-single-stim	s570	False
0.1	148.918	0.468	149.386	0	PA_without_intermediate	test	ward_and_allport	71	8.0	0.468	to_hand	poldrack-single-stim	s570	False
0.1	149.388	0.257	149.645	0	PA_without_intermediate	test	ward_and_allport	82	8.0	0.257	to_board	poldrack-single-stim	s570	False
1.0	149.651	2.136	149.65	0	PA_without_intermediate	test	ward_and_allport	-1	8.0	n/a	feedback	poldrack-single-stim	s570	False
2.945	151.791	2.945	154.736	1	PA_without_intermediate	test	ward_and_allport	89	9.0	2.945	to_hand	poldrack-single-stim	s570	False
0.1	154.736	0.33	155.066	0	PA_without_intermediate	test	ward_and_allport	71	9.0	0.33	to_board	poldrack-single-stim	s570	False
0.1	155.07	0.921	155.991	0	PA_without_intermediate	test	ward_and_allport	71	9.0	0.921	to_hand	poldrack-single-stim	s570	False
0.1	155.992	0.898	156.89	0	PA_without_intermediate	test	ward_and_allport	82	9.0	0.898	to_board	poldrack-single-stim	s570	False
0.1	156.894	1.781	158.675	0	PA_without_intermediate	test	ward_and_allport	89	9.0	1.781	to_hand	poldrack-single-stim	s570	False
0.1	158.676	0.741	159.417	0	PA_without_intermediate	test	ward_and_allport	71	9.0	0.741	to_board	poldrack-single-stim	s570	False
0.1	159.421	0.481	159.902	0	PA_without_intermediate	test	ward_and_allport	89	9.0	0.481	to_hand	poldrack-single-stim	s570	False
0.1	159.903	0.412	160.315	0	PA_without_intermediate	test	ward_and_allport	82	9.0	0.412	to_board	poldrack-single-stim	s570	False
1.0	160.322	5.264	160.321	0	PA_without_intermediate	test	ward_and_allport	-1	9.0	n/a	feedback	poldrack-single-stim	s570	False
5.553	165.592	5.553	171.145	1	PA_with_intermediate	test	ward_and_allport	82	10.0	5.553	to_hand	poldrack-single-stim	s570	False
0.1	171.146	2.052	173.198	0	PA_with_intermediate	test	ward_and_allport	71	10.0	2.052	to_board	poldrack-single-stim	s570	False
0.1	173.202	1.448	174.65	0	PA_with_intermediate	test	ward_and_allport	82	10.0	1.448	to_hand	poldrack-single-stim	s570	False
0.1	174.651	1.159	175.81	0	PA_with_intermediate	test	ward_and_allport	89	10.0	1.159	to_board	poldrack-single-stim	s570	False
0.1	175.815	1.145	176.96	0	PA_with_intermediate	test	ward_and_allport	71	10.0	1.145	to_hand	poldrack-single-stim	s570	False
0.1	176.961	1.038	177.999	0	PA_with_intermediate	test	ward_and_allport	82	10.0	1.038	to_board	poldrack-single-stim	s570	False
1.0	178.005	4.04	178.004	0	PA_with_intermediate	test	ward_and_allport	-1	10.0	n/a	feedback	poldrack-single-stim	s570	False
6.16	182.049	6.16	188.209	1	PA_with_intermediate	test	ward_and_allport	71	11.0	6.16	to_hand	poldrack-single-stim	s570	False
0.1	188.21	0.62	188.83	0	PA_with_intermediate	test	ward_and_allport	89	11.0	0.62	to_board	poldrack-single-stim	s570	False
0.1	188.834	0.528	189.362	0	PA_with_intermediate	test	ward_and_allport	71	11.0	0.528	to_hand	poldrack-single-stim	s570	False
0.1	189.364	0.363	189.727	0	PA_with_intermediate	test	ward_and_allport	82	11.0	0.363	to_board	poldrack-single-stim	s570	False
0.1	189.731	0.423	190.154	0	PA_with_intermediate	test	ward_and_allport	89	11.0	0.423	to_hand	poldrack-single-stim	s570	False
0.1	190.155	0.339	190.494	0	PA_with_intermediate	test	ward_and_allport	82	11.0	0.339	to_board	poldrack-single-stim	s570	False
1.0	190.501	2.136	190.5	0	PA_with_intermediate	test	ward_and_allport	-1	11.0	n/a	feedback	poldrack-single-stim	s570	False
4.843	192.641	4.843	197.484	1	PA_with_intermediate	test	ward_and_allport	89	12.0	4.843	to_hand	poldrack-single-stim	s570	False
0.1	197.485	0.341	197.826	0	PA_with_intermediate	test	ward_and_allport	71	12.0	0.341	to_board	poldrack-single-stim	s570	False
0.1	197.831	0.468	198.299	0	PA_with_intermediate	test	ward_and_allport	89	12.0	0.468	to_hand	poldrack-single-stim	s570	False
0.1	198.3	0.422	198.722	0	PA_with_intermediate	test	ward_and_allport	82	12.0	0.422	to_board	poldrack-single-stim	s570	False
0.1	198.726	0.524	199.25	0	PA_with_intermediate	test	ward_and_allport	71	12.0	0.524	to_hand	poldrack-single-stim	s570	False
0.1	199.251	0.396	199.647	0	PA_with_intermediate	test	ward_and_allport	89	12.0	0.396	to_board	poldrack-single-stim	s570	False
1.0	199.653	2.408	199.652	0	PA_with_intermediate	test	ward_and_allport	-1	12.0	n/a	feedback	poldrack-single-stim	s570	False
4.451	202.065	4.451	206.516	1	PA_without_intermediate	test	ward_and_allport	82	13.0	4.451	to_hand	poldrack-single-stim	s570	False
0.1	206.517	0.484	207.001	0	PA_without_intermediate	test	ward_and_allport	71	13.0	0.484	to_board	poldrack-single-stim	s570	False
0.1	207.005	0.46	207.465	0	PA_without_intermediate	test	ward_and_allport	82	13.0	0.46	to_hand	poldrack-single-stim	s570	False
0.1	207.466	0.927	208.393	0	PA_without_intermediate	test	ward_and_allport	71	13.0	0.927	to_board	poldrack-single-stim	s570	False
0.1	208.397	1.207	209.604	0	PA_without_intermediate	test	ward_and_allport	82	13.0	1.207	to_hand	poldrack-single-stim	s570	False
0.1	209.604	0.358	209.962	0	PA_without_intermediate	test	ward_and_allport	89	13.0	0.358	to_board	poldrack-single-stim	s570	False
1.0	209.972	2.68	209.971	0	PA_without_intermediate	test	ward_and_allport	-1	13.0	n/a	feedback	poldrack-single-stim	s570	False
4.305	212.657	4.305	216.962	1	PA_with_intermediate	test	ward_and_allport	89	14.0	4.305	to_hand	poldrack-single-stim	s570	False
0.1	216.963	0.267	217.23	0	PA_with_intermediate	test	ward_and_allport	82	14.0	0.267	to_board	poldrack-single-stim	s570	False
0.1	217.234	0.387	217.621	0	PA_with_intermediate	test	ward_and_allport	89	14.0	0.387	to_hand	poldrack-single-stim	s570	False
0.1	217.621	0.313	217.934	0	PA_with_intermediate	test	ward_and_allport	71	14.0	0.313	to_board	poldrack-single-stim	s570	False
0.1	217.939	0.366	218.305	0	PA_with_intermediate	test	ward_and_allport	82	14.0	0.366	to_hand	poldrack-single-stim	s570	False
0.1	218.306	0.277	218.583	0	PA_with_intermediate	test	ward_and_allport	71	14.0	0.277	to_board	poldrack-single-stim	s570	False
1.0	218.59	4.72	218.589	0	PA_with_intermediate	test	ward_and_allport	-1	14.0	n/a	feedback	poldrack-single-stim	s570	False
7.579	228.316	7.579	235.895	1	PA_without_intermediate	test	ward_and_allport	82	15.0	7.579	to_hand	poldrack-single-stim	s570	False
0.1	235.896	0.271	236.167	0	PA_without_intermediate	test	ward_and_allport	89	15.0	0.271	to_board	poldrack-single-stim	s570	False
0.1	236.172	0.531	236.703	0	PA_without_intermediate	test	ward_and_allport	82	15.0	0.531	to_hand	poldrack-single-stim	s570	False
0.1	236.703	0.304	237.007	0	PA_without_intermediate	test	ward_and_allport	71	15.0	0.304	to_board	poldrack-single-stim	s570	False
0.1	237.013	0.325	237.338	0	PA_without_intermediate	test	ward_and_allport	82	15.0	0.325	to_hand	poldrack-single-stim	s570	False
0.1	237.338	0.275	237.613	0	PA_without_intermediate	test	ward_and_allport	89	15.0	0.275	to_board	poldrack-single-stim	s570	False
1.0	237.622	3.224	237.621	0	PA_without_intermediate	test	ward_and_allport	-1	15.0	n/a	feedback	poldrack-single-stim	s570	False
3.03	240.851	3.03	243.881	1	PA_without_intermediate	test	ward_and_allport	71	16.0	3.03	to_hand	poldrack-single-stim	s570	False
0.1	243.882	0.28	244.162	0	PA_without_intermediate	test	ward_and_allport	82	16.0	0.28	to_board	poldrack-single-stim	s570	False
0.1	244.166	0.381	244.547	0	PA_without_intermediate	test	ward_and_allport	71	16.0	0.381	to_hand	poldrack-single-stim	s570	False
0.1	244.548	0.303	244.851	0	PA_without_intermediate	test	ward_and_allport	82	16.0	0.303	to_board	poldrack-single-stim	s570	False
0.1	244.856	0.518	245.374	0	PA_without_intermediate	test	ward_and_allport	71	16.0	0.518	to_hand	poldrack-single-stim	s570	False
0.1	245.375	0.306	245.681	0	PA_without_intermediate	test	ward_and_allport	89	16.0	0.306	to_board	poldrack-single-stim	s570	False
1.0	245.689	2.272	245.688	0	PA_without_intermediate	test	ward_and_allport	-1	16.0	n/a	feedback	poldrack-single-stim	s570	False
7.189	247.968	7.189	255.157	1	PA_with_intermediate	test	ward_and_allport	82	17.0	7.189	to_hand	poldrack-single-stim	s570	False
0.1	255.157	0.283	255.44	0	PA_with_intermediate	test	ward_and_allport	89	17.0	0.283	to_board	poldrack-single-stim	s570	False
0.1	255.444	0.746	256.19	0	PA_with_intermediate	test	ward_and_allport	82	17.0	0.746	to_hand	poldrack-single-stim	s570	False
0.1	256.191	0.358	256.549	0	PA_with_intermediate	test	ward_and_allport	71	17.0	0.358	to_board	poldrack-single-stim	s570	False
0.1	256.555	0.434	256.989	0	PA_with_intermediate	test	ward_and_allport	89	17.0	0.434	to_hand	poldrack-single-stim	s570	False
0.1	256.989	0.326	257.315	0	PA_with_intermediate	test	ward_and_allport	82	17.0	0.326	to_board	poldrack-single-stim	s570	False
1.0	257.322	3.632	257.321	0	PA_with_intermediate	test	ward_and_allport	-1	17.0	n/a	feedback	poldrack-single-stim	s570	False
6.552	260.959	6.552	267.511	1	PA_without_intermediate	test	ward_and_allport	89	18.0	6.552	to_hand	poldrack-single-stim	s570	False
0.1	267.511	0.245	267.756	0	PA_without_intermediate	test	ward_and_allport	71	18.0	0.245	to_board	poldrack-single-stim	s570	False
0.1	267.76	0.306	268.066	0	PA_without_intermediate	test	ward_and_allport	89	18.0	0.306	to_hand	poldrack-single-stim	s570	False
0.1	268.067	0.218	268.285	0	PA_without_intermediate	test	ward_and_allport	71	18.0	0.218	to_board	poldrack-single-stim	s570	False
0.1	268.291	0.44	268.731	0	PA_without_intermediate	test	ward_and_allport	89	18.0	0.44	to_hand	poldrack-single-stim	s570	False
0.1	268.731	0.248	268.979	0	PA_without_intermediate	test	ward_and_allport	82	18.0	0.248	to_board	poldrack-single-stim	s570	False
1.0	268.989	2.408	268.988	0	PA_without_intermediate	test	ward_and_allport	-1	18.0	n/a	feedback	poldrack-single-stim	s570	False
12.382	271.402	12.382	283.784	1	PA_without_intermediate	test	ward_and_allport	82	19.0	12.382	to_hand	poldrack-single-stim	s570	False
0.1	283.785	0.179	283.964	0	PA_without_intermediate	test	ward_and_allport	89	19.0	0.179	to_board	poldrack-single-stim	s570	False
0.1	283.969	0.232	284.201	0	PA_without_intermediate	test	ward_and_allport	82	19.0	0.232	to_hand	poldrack-single-stim	s570	False
0.1	284.201	0.21	284.411	0	PA_without_intermediate	test	ward_and_allport	89	19.0	0.21	to_board	poldrack-single-stim	s570	False
0.1	284.416	0.518	284.934	0	PA_without_intermediate	test	ward_and_allport	82	19.0	0.518	to_hand	poldrack-single-stim	s570	False
0.1	284.936	0.153	285.089	0	PA_without_intermediate	test	ward_and_allport	71	19.0	0.153	to_board	poldrack-single-stim	s570	False
1.0	285.094	2.0	285.093	0	PA_without_intermediate	test	ward_and_allport	-1	19.0	n/a	feedback	poldrack-single-stim	s570	False
11.932	287.099	11.932	299.031	1	PA_with_intermediate	test	ward_and_allport	89	20.0	11.932	to_hand	poldrack-single-stim	s570	False
0.1	299.031	0.252	299.283	0	PA_with_intermediate	test	ward_and_allport	71	20.0	0.252	to_board	poldrack-single-stim	s570	False
0.1	299.288	0.236	299.524	0	PA_with_intermediate	test	ward_and_allport	89	20.0	0.236	to_hand	poldrack-single-stim	s570	False
0.1	299.526	0.278	299.804	0	PA_with_intermediate	test	ward_and_allport	82	20.0	0.278	to_board	poldrack-single-stim	s570	False
0.1	299.809	0.256	300.065	0	PA_with_intermediate	test	ward_and_allport	89	20.0	0.256	to_hand	poldrack-single-stim	s570	False
0.1	300.065	0.865	300.93	0	PA_with_intermediate	test	ward_and_allport	89	20.0	0.865	to_board	poldrack-single-stim	s570	False
0.1	300.935	0.32	301.255	0	PA_with_intermediate	test	ward_and_allport	71	20.0	0.32	to_hand	poldrack-single-stim	s570	False
0.1	301.256	0.278	301.534	0	PA_with_intermediate	test	ward_and_allport	82	20.0	0.278	to_board	poldrack-single-stim	s570	False
1.0	301.542	2.0	301.541	0	PA_with_intermediate	test	ward_and_allport	-1	20.0	n/a	feedback	poldrack-single-stim	s570	False
7.026	303.548	7.026	310.574	1	PA_with_intermediate	test	ward_and_allport	89	21.0	7.026	to_hand	poldrack-single-stim	s570	False
0.1	310.575	0.508	311.083	0	PA_with_intermediate	test	ward_and_allport	82	21.0	0.508	to_board	poldrack-single-stim	s570	False
0.1	311.09	0.484	311.574	0	PA_with_intermediate	test	ward_and_allport	89	21.0	0.484	to_hand	poldrack-single-stim	s570	False
0.1	311.575	0.486	312.061	0	PA_with_intermediate	test	ward_and_allport	71	21.0	0.486	to_board	poldrack-single-stim	s570	False
0.1	312.066	0.632	312.698	0	PA_with_intermediate	test	ward_and_allport	82	21.0	0.632	to_hand	poldrack-single-stim	s570	False
0.1	312.699	0.403	313.102	0	PA_with_intermediate	test	ward_and_allport	89	21.0	0.403	to_board	poldrack-single-stim	s570	False
1.0	313.11	2.0	313.109	0	PA_with_intermediate	test	ward_and_allport	-1	21.0	n/a	feedback	poldrack-single-stim	s570	False
7.633	315.116	7.633	322.749	1	PA_with_intermediate	test	ward_and_allport	82	22.0	7.633	to_hand	poldrack-single-stim	s570	False
0.1	322.749	0.819	323.568	0	PA_with_intermediate	test	ward_and_allport	71	22.0	0.819	to_board	poldrack-single-stim	s570	False
0.1	323.575	0.672	324.247	0	PA_with_intermediate	test	ward_and_allport	82	22.0	0.672	to_hand	poldrack-single-stim	s570	False
0.1	324.247	0.817	325.064	0	PA_with_intermediate	test	ward_and_allport	89	22.0	0.817	to_board	poldrack-single-stim	s570	False
0.1	325.07	0.533	325.603	0	PA_with_intermediate	test	ward_and_allport	71	22.0	0.533	to_hand	poldrack-single-stim	s570	False
0.1	325.604	0.469	326.073	0	PA_with_intermediate	test	ward_and_allport	89	22.0	0.469	to_board	poldrack-single-stim	s570	False
1.0	326.084	2.408	326.083	0	PA_with_intermediate	test	ward_and_allport	-1	22.0	n/a	feedback	poldrack-single-stim	s570	False
2.565	328.498	2.565	331.063	1	PA_without_intermediate	test	ward_and_allport	71	23.0	2.565	to_hand	poldrack-single-stim	s570	False
0.1	331.063	0.364	331.427	0	PA_without_intermediate	test	ward_and_allport	89	23.0	0.364	to_board	poldrack-single-stim	s570	False
0.1	331.433	1.018	332.451	0	PA_without_intermediate	test	ward_and_allport	71	23.0	1.018	to_hand	poldrack-single-stim	s570	False
0.1	332.452	0.384	332.836	0	PA_without_intermediate	test	ward_and_allport	82	23.0	0.384	to_board	poldrack-single-stim	s570	False
0.1	332.843	0.443	333.286	0	PA_without_intermediate	test	ward_and_allport	71	23.0	0.443	to_hand	poldrack-single-stim	s570	False
0.1	333.288	0.423	333.711	0	PA_without_intermediate	test	ward_and_allport	89	23.0	0.423	to_board	poldrack-single-stim	s570	False
1.0	333.719	2.816	333.718	0	PA_without_intermediate	test	ward_and_allport	-1	23.0	n/a	feedback	poldrack-single-stim	s570	False
4.72	336.541	4.72	341.261	1	PA_with_intermediate	test	ward_and_allport	71	24.0	4.72	to_hand	poldrack-single-stim	s570	False
0.1	341.263	0.299	341.562	0	PA_with_intermediate	test	ward_and_allport	82	24.0	0.299	to_board	poldrack-single-stim	s570	False
0.1	341.569	0.286	341.855	0	PA_with_intermediate	test	ward_and_allport	71	24.0	0.286	to_hand	poldrack-single-stim	s570	False
0.1	341.855	0.275	342.13	0	PA_with_intermediate	test	ward_and_allport	89	24.0	0.275	to_board	poldrack-single-stim	s570	False
0.1	342.137	0.419	342.556	0	PA_with_intermediate	test	ward_and_allport	71	24.0	0.419	to_hand	poldrack-single-stim	s570	False
0.1	342.557	0.568	343.125	0	PA_with_intermediate	test	ward_and_allport	71	24.0	0.568	to_board	poldrack-single-stim	s570	False
0.1	343.131	0.28	343.411	0	PA_with_intermediate	test	ward_and_allport	82	24.0	0.28	to_hand	poldrack-single-stim	s570	False
0.1	343.413	0.307	343.72	0	PA_with_intermediate	test	ward_and_allport	71	24.0	0.307	to_board	poldrack-single-stim	s570	False
1.0	343.73	4.176	343.729	0	PA_with_intermediate	test	ward_and_allport	-1	24.0	n/a	feedback	poldrack-single-stim	s570	False
4.987	347.912	4.987	352.899	1	PA_with_intermediate	test	ward_and_allport	71	25.0	4.987	to_hand	poldrack-single-stim	s570	False
0.1	352.901	0.293	353.194	0	PA_with_intermediate	test	ward_and_allport	82	25.0	0.293	to_board	poldrack-single-stim	s570	False
0.1	353.2	0.539	353.739	0	PA_with_intermediate	test	ward_and_allport	71	25.0	0.539	to_hand	poldrack-single-stim	s570	False
0.1	353.74	0.318	354.058	0	PA_with_intermediate	test	ward_and_allport	89	25.0	0.318	to_board	poldrack-single-stim	s570	False
0.1	354.064	0.643	354.707	0	PA_with_intermediate	test	ward_and_allport	82	25.0	0.643	to_hand	poldrack-single-stim	s570	False
0.1	354.708	0.32	355.028	0	PA_with_intermediate	test	ward_and_allport	71	25.0	0.32	to_board	poldrack-single-stim	s570	False
1.0	355.037	3.36	355.036	0	PA_with_intermediate	test	ward_and_allport	-1	25.0	n/a	feedback	poldrack-single-stim	s570	False
3.205	358.404	3.205	361.609	1	PA_with_intermediate	test	ward_and_allport	82	26.0	3.205	to_hand	poldrack-single-stim	s570	False
0.1	361.61	0.351	361.961	0	PA_with_intermediate	test	ward_and_allport	71	26.0	0.351	to_board	poldrack-single-stim	s570	False
0.1	361.967	1.562	363.529	0	PA_with_intermediate	test	ward_and_allport	82	26.0	1.562	to_hand	poldrack-single-stim	s570	False
0.1	363.531	0.621	364.152	0	PA_with_intermediate	test	ward_and_allport	89	26.0	0.621	to_board	poldrack-single-stim	s570	False
0.1	364.158	1.073	365.231	0	PA_with_intermediate	test	ward_and_allport	71	26.0	1.073	to_hand	poldrack-single-stim	s570	False
0.1	365.233	0.298	365.531	0	PA_with_intermediate	test	ward_and_allport	89	26.0	0.298	to_board	poldrack-single-stim	s570	False
1.0	365.539	2.0	365.538	0	PA_with_intermediate	test	ward_and_allport	-1	26.0	n/a	feedback	poldrack-single-stim	s570	False
6.56	367.545	6.56	374.105	1	PA_without_intermediate	test	ward_and_allport	82	27.0	6.56	to_hand	poldrack-single-stim	s570	False
0.1	374.107	0.347	374.454	0	PA_without_intermediate	test	ward_and_allport	89	27.0	0.347	to_board	poldrack-single-stim	s570	False
0.1	374.461	0.837	375.298	0	PA_without_intermediate	test	ward_and_allport	82	27.0	0.837	to_hand	poldrack-single-stim	s570	False
0.1	375.299	0.303	375.602	0	PA_without_intermediate	test	ward_and_allport	71	27.0	0.303	to_board	poldrack-single-stim	s570	False
0.1	375.609	0.783	376.392	0	PA_without_intermediate	test	ward_and_allport	82	27.0	0.783	to_hand	poldrack-single-stim	s570	False
0.1	376.393	0.243	376.636	0	PA_without_intermediate	test	ward_and_allport	89	27.0	0.243	to_board	poldrack-single-stim	s570	False
1.0	376.646	2.408	376.645	0	PA_without_intermediate	test	ward_and_allport	-1	27.0	n/a	feedback	poldrack-single-stim	s570	False
2.944	379.061	2.944	382.005	1	PA_with_intermediate	test	ward_and_allport	82	28.0	2.944	to_hand	poldrack-single-stim	s570	False
0.1	382.006	0.236	382.242	0	PA_with_intermediate	test	ward_and_allport	89	28.0	0.236	to_board	poldrack-single-stim	s570	False
0.1	382.25	0.678	382.928	0	PA_with_intermediate	test	ward_and_allport	82	28.0	0.678	to_hand	poldrack-single-stim	s570	False
0.1	382.928	0.734	383.662	0	PA_with_intermediate	test	ward_and_allport	71	28.0	0.734	to_board	poldrack-single-stim	s570	False
0.1	383.669	1.348	385.017	0	PA_with_intermediate	test	ward_and_allport	89	28.0	1.348	to_hand	poldrack-single-stim	s570	False
0.1	385.018	0.389	385.407	0	PA_with_intermediate	test	ward_and_allport	71	28.0	0.389	to_board	poldrack-single-stim	s570	False
1.0	385.417	2.816	385.416	0	PA_with_intermediate	test	ward_and_allport	-1	28.0	n/a	feedback	poldrack-single-stim	s570	False
2.768	388.241	2.768	391.009	1	PA_without_intermediate	test	ward_and_allport	89	29.0	2.768	to_hand	poldrack-single-stim	s570	False
0.1	391.009	0.302	391.311	0	PA_without_intermediate	test	ward_and_allport	82	29.0	0.302	to_board	poldrack-single-stim	s570	False
0.1	391.319	0.446	391.765	0	PA_without_intermediate	test	ward_and_allport	89	29.0	0.446	to_hand	poldrack-single-stim	s570	False
0.1	391.765	0.348	392.113	0	PA_without_intermediate	test	ward_and_allport	82	29.0	0.348	to_board	poldrack-single-stim	s570	False
0.1	392.12	0.525	392.645	0	PA_without_intermediate	test	ward_and_allport	89	29.0	0.525	to_hand	poldrack-single-stim	s570	False
0.1	392.646	0.34	392.986	0	PA_without_intermediate	test	ward_and_allport	71	29.0	0.34	to_board	poldrack-single-stim	s570	False
1.0	392.997	3.088	392.996	0	PA_without_intermediate	test	ward_and_allport	-1	29.0	n/a	feedback	poldrack-single-stim	s570	False
4.24	401.1	4.24	405.34	1	PA_without_intermediate	test	ward_and_allport	82	30.0	4.24	to_hand	poldrack-single-stim	s570	False
0.1	405.341	0.276	405.617	0	PA_without_intermediate	test	ward_and_allport	71	30.0	0.276	to_board	poldrack-single-stim	s570	False
0.1	405.624	0.863	406.487	0	PA_without_intermediate	test	ward_and_allport	82	30.0	0.863	to_hand	poldrack-single-stim	s570	False
0.1	406.488	0.421	406.909	0	PA_without_intermediate	test	ward_and_allport	89	30.0	0.421	to_board	poldrack-single-stim	s570	False
0.1	406.919	0.743	407.662	0	PA_without_intermediate	test	ward_and_allport	82	30.0	0.743	to_hand	poldrack-single-stim	s570	False
0.1	407.663	0.491	408.154	0	PA_without_intermediate	test	ward_and_allport	71	30.0	0.491	to_board	poldrack-single-stim	s570	False
1.0	408.167	2.136	408.166	0	PA_without_intermediate	test	ward_and_allport	-1	30.0	n/a	feedback	poldrack-single-stim	s570	False
2.007	410.311	2.007	412.318	1	PA_without_intermediate	test	ward_and_allport	82	31.0	2.007	to_hand	poldrack-single-stim	s570	False
0.1	412.318	0.321	412.639	0	PA_without_intermediate	test	ward_and_allport	89	31.0	0.321	to_board	poldrack-single-stim	s570	False
0.1	412.647	0.698	413.345	0	PA_without_intermediate	test	ward_and_allport	82	31.0	0.698	to_hand	poldrack-single-stim	s570	False
0.1	413.346	0.41	413.756	0	PA_without_intermediate	test	ward_and_allport	89	31.0	0.41	to_board	poldrack-single-stim	s570	False
0.1	413.764	0.748	414.512	0	PA_without_intermediate	test	ward_and_allport	82	31.0	0.748	to_hand	poldrack-single-stim	s570	False
0.1	414.513	0.77	415.283	0	PA_without_intermediate	test	ward_and_allport	71	31.0	0.77	to_board	poldrack-single-stim	s570	False
1.0	415.295	7.168	415.294	0	PA_without_intermediate	test	ward_and_allport	-1	31.0	n/a	feedback	poldrack-single-stim	s570	False
2.824	422.468	2.824	425.292	1	PA_without_intermediate	test	ward_and_allport	71	32.0	2.824	to_hand	poldrack-single-stim	s570	False
0.1	425.294	0.261	425.555	0	PA_without_intermediate	test	ward_and_allport	89	32.0	0.261	to_board	poldrack-single-stim	s570	False
0.1	425.563	0.391	425.954	0	PA_without_intermediate	test	ward_and_allport	71	32.0	0.391	to_hand	poldrack-single-stim	s570	False
0.1	425.955	0.311	426.266	0	PA_without_intermediate	test	ward_and_allport	89	32.0	0.311	to_board	poldrack-single-stim	s570	False
0.1	426.274	0.528	426.802	0	PA_without_intermediate	test	ward_and_allport	71	32.0	0.528	to_hand	poldrack-single-stim	s570	False
0.1	426.804	0.303	427.107	0	PA_without_intermediate	test	ward_and_allport	82	32.0	0.303	to_board	poldrack-single-stim	s570	False
1.0	427.119	2.816	427.118	0	PA_without_intermediate	test	ward_and_allport	-1	32.0	n/a	feedback	poldrack-single-stim	s570	False
3.449	429.944	3.449	433.393	1	PA_with_intermediate	test	ward_and_allport	71	33.0	3.449	to_hand	poldrack-single-stim	s570	False
0.1	433.394	0.251	433.645	0	PA_with_intermediate	test	ward_and_allport	82	33.0	0.251	to_board	poldrack-single-stim	s570	False
0.1	433.65	0.408	434.058	0	PA_with_intermediate	test	ward_and_allport	71	33.0	0.408	to_hand	poldrack-single-stim	s570	False
0.1	434.06	0.311	434.371	0	PA_with_intermediate	test	ward_and_allport	89	33.0	0.311	to_board	poldrack-single-stim	s570	False
0.1	434.377	0.379	434.756	0	PA_with_intermediate	test	ward_and_allport	82	33.0	0.379	to_hand	poldrack-single-stim	s570	False
0.1	434.758	0.293	435.051	0	PA_with_intermediate	test	ward_and_allport	89	33.0	0.293	to_board	poldrack-single-stim	s570	False
1.0	435.064	2.952	435.063	0	PA_with_intermediate	test	ward_and_allport	-1	33.0	n/a	feedback	poldrack-single-stim	s570	False
1.835	438.024	1.835	439.859	1	PA_with_intermediate	test	ward_and_allport	71	34.0	1.835	to_hand	poldrack-single-stim	s570	False
0.1	439.859	0.237	440.096	0	PA_with_intermediate	test	ward_and_allport	82	34.0	0.237	to_board	poldrack-single-stim	s570	False
0.1	440.103	0.242	440.345	0	PA_with_intermediate	test	ward_and_allport	71	34.0	0.242	to_hand	poldrack-single-stim	s570	False
0.1	440.346	0.252	440.598	0	PA_with_intermediate	test	ward_and_allport	82	34.0	0.252	to_board	poldrack-single-stim	s570	False
0.1	440.607	3.034	443.641	0	PA_with_intermediate	test	ward_and_allport	82	34.0	3.034	to_hand	poldrack-single-stim	s570	False
0.1	443.642	4.988	448.63	0	PA_with_intermediate	test	ward_and_allport	71	34.0	4.988	to_board	poldrack-single-stim	s570	False
0.1	448.64	0.303	448.943	0	PA_with_intermediate	test	ward_and_allport	82	34.0	0.303	to_hand	poldrack-single-stim	s570	False
0.1	448.944	1.411	450.355	0	PA_with_intermediate	test	ward_and_allport	89	34.0	1.411	to_board	poldrack-single-stim	s570	False
0.1	450.364	0.469	450.833	0	PA_with_intermediate	test	ward_and_allport	71	34.0	0.469	to_hand	poldrack-single-stim	s570	False
0.1	450.834	0.385	451.219	0	PA_with_intermediate	test	ward_and_allport	82	34.0	0.385	to_board	poldrack-single-stim	s570	False
0.1	451.229	0.425	451.654	0	PA_with_intermediate	test	ward_and_allport	89	34.0	0.425	to_hand	poldrack-single-stim	s570	False
0.1	451.655	0.357	452.012	0	PA_with_intermediate	test	ward_and_allport	82	34.0	0.357	to_board	poldrack-single-stim	s570	False
1.0	452.024	2.136	452.023	0	PA_with_intermediate	test	ward_and_allport	-1	34.0	n/a	feedback	poldrack-single-stim	s570	False
3.254	454.168	3.254	457.422	1	PA_without_intermediate	test	ward_and_allport	82	35.0	3.254	to_hand	poldrack-single-stim	s570	False
0.1	457.425	0.435	457.86	0	PA_without_intermediate	test	ward_and_allport	71	35.0	0.435	to_board	poldrack-single-stim	s570	False
0.1	457.87	0.884	458.754	0	PA_without_intermediate	test	ward_and_allport	82	35.0	0.884	to_hand	poldrack-single-stim	s570	False
0.1	458.756	0.716	459.472	0	PA_without_intermediate	test	ward_and_allport	71	35.0	0.716	to_board	poldrack-single-stim	s570	False
0.1	459.48	0.771	460.251	0	PA_without_intermediate	test	ward_and_allport	82	35.0	0.771	to_hand	poldrack-single-stim	s570	False
0.1	460.253	0.461	460.714	0	PA_without_intermediate	test	ward_and_allport	89	35.0	0.461	to_board	poldrack-single-stim	s570	False
1.0	460.728	2.68	460.727	0	PA_without_intermediate	test	ward_and_allport	-1	35.0	n/a	feedback	poldrack-single-stim	s570	False
1.453	463.415	1.453	464.868	1	PA_without_intermediate	test	ward_and_allport	71	36.0	1.453	to_hand	poldrack-single-stim	s570	False
0.1	464.87	0.307	465.177	0	PA_without_intermediate	test	ward_and_allport	82	36.0	0.307	to_board	poldrack-single-stim	s570	False
0.1	465.183	1.01	466.193	0	PA_without_intermediate	test	ward_and_allport	71	36.0	1.01	to_hand	poldrack-single-stim	s570	False
0.1	466.194	0.292	466.486	0	PA_without_intermediate	test	ward_and_allport	89	36.0	0.292	to_board	poldrack-single-stim	s570	False
0.1	466.493	0.459	466.952	0	PA_without_intermediate	test	ward_and_allport	71	36.0	0.459	to_hand	poldrack-single-stim	s570	False
0.1	466.952	0.345	467.297	0	PA_without_intermediate	test	ward_and_allport	82	36.0	0.345	to_board	poldrack-single-stim	s570	False
1.0	467.307	3.088	467.306	0	PA_without_intermediate	test	ward_and_allport	-1	36.0	n/a	feedback	poldrack-single-stim	s570	False
3.037	470.405	3.037	473.442	1	PA_with_intermediate	test	ward_and_allport	71	37.0	3.037	to_hand	poldrack-single-stim	s570	False
0.1	473.442	0.336	473.778	0	PA_with_intermediate	test	ward_and_allport	82	37.0	0.336	to_board	poldrack-single-stim	s570	False
0.1	473.785	0.361	474.146	0	PA_with_intermediate	test	ward_and_allport	71	37.0	0.361	to_hand	poldrack-single-stim	s570	False
0.1	474.147	0.275	474.422	0	PA_with_intermediate	test	ward_and_allport	89	37.0	0.275	to_board	poldrack-single-stim	s570	False
0.1	474.43	0.34	474.77	0	PA_with_intermediate	test	ward_and_allport	82	37.0	0.34	to_hand	poldrack-single-stim	s570	False
0.1	474.771	0.266	475.037	0	PA_with_intermediate	test	ward_and_allport	71	37.0	0.266	to_board	poldrack-single-stim	s570	False
0.1	475.045	1.216	476.261	0	PA_with_intermediate	test	ward_and_allport	71	37.0	1.216	to_hand	poldrack-single-stim	s570	False
0.1	476.262	0.236	476.498	0	PA_with_intermediate	test	ward_and_allport	89	37.0	0.236	to_board	poldrack-single-stim	s570	False
1.0	476.508	2.0	476.507	0	PA_with_intermediate	test	ward_and_allport	-1	37.0	n/a	feedback	poldrack-single-stim	s570	False
3.624	478.515	3.624	482.139	1	PA_without_intermediate	test	ward_and_allport	89	38.0	3.624	to_hand	poldrack-single-stim	s570	False
0.1	482.139	0.238	482.377	0	PA_without_intermediate	test	ward_and_allport	71	38.0	0.238	to_board	poldrack-single-stim	s570	False
0.1	482.384	0.685	483.069	0	PA_without_intermediate	test	ward_and_allport	89	38.0	0.685	to_hand	poldrack-single-stim	s570	False
0.1	483.069	0.304	483.373	0	PA_without_intermediate	test	ward_and_allport	82	38.0	0.304	to_board	poldrack-single-stim	s570	False
0.1	483.383	0.715	484.098	0	PA_without_intermediate	test	ward_and_allport	89	38.0	0.715	to_hand	poldrack-single-stim	s570	False
0.1	484.099	0.177	484.276	0	PA_without_intermediate	test	ward_and_allport	71	38.0	0.177	to_board	poldrack-single-stim	s570	False
1.0	484.289	2.0	484.288	0	PA_without_intermediate	test	ward_and_allport	-1	38.0	n/a	feedback	poldrack-single-stim	s570	False
2.215	486.298	2.215	488.513	1	PA_without_intermediate	test	ward_and_allport	89	39.0	2.215	to_hand	poldrack-single-stim	s570	False
0.1	488.514	0.235	488.749	0	PA_without_intermediate	test	ward_and_allport	71	39.0	0.235	to_board	poldrack-single-stim	s570	False
0.1	488.756	0.947	489.703	0	PA_without_intermediate	test	ward_and_allport	89	39.0	0.947	to_hand	poldrack-single-stim	s570	False
0.1	489.705	0.209	489.914	0	PA_without_intermediate	test	ward_and_allport	82	39.0	0.209	to_board	poldrack-single-stim	s570	False
0.1	489.922	0.809	490.731	0	PA_without_intermediate	test	ward_and_allport	89	39.0	0.809	to_hand	poldrack-single-stim	s570	False
0.1	490.731	0.208	490.939	0	PA_without_intermediate	test	ward_and_allport	71	39.0	0.208	to_board	poldrack-single-stim	s570	False
1.0	490.951	2.0	490.95	0	PA_without_intermediate	test	ward_and_allport	-1	39.0	n/a	feedback	poldrack-single-stim	s570	False
5.346	492.962	5.346	498.308	1	PA_with_intermediate	test	ward_and_allport	82	40.0	5.346	to_hand	poldrack-single-stim	s570	False
0.1	498.309	0.189	498.498	0	PA_with_intermediate	test	ward_and_allport	89	40.0	0.189	to_board	poldrack-single-stim	s570	False
0.1	498.505	1.13	499.635	0	PA_with_intermediate	test	ward_and_allport	82	40.0	1.13	to_hand	poldrack-single-stim	s570	False
0.1	499.636	0.213	499.849	0	PA_with_intermediate	test	ward_and_allport	71	40.0	0.213	to_board	poldrack-single-stim	s570	False
0.1	499.857	0.799	500.656	0	PA_with_intermediate	test	ward_and_allport	89	40.0	0.799	to_hand	poldrack-single-stim	s570	False
0.1	500.656	0.154	500.81	0	PA_with_intermediate	test	ward_and_allport	82	40.0	0.154	to_board	poldrack-single-stim	s570	False
1.0	500.823	2.544	500.822	0	PA_with_intermediate	test	ward_and_allport	-1	40.0	n/a	feedback	poldrack-single-stim	s570	False
1.731	503.38	1.731	505.111	1	PA_without_intermediate	test	ward_and_allport	89	41.0	1.731	to_hand	poldrack-single-stim	s570	False
0.1	505.111	0.173	505.284	0	PA_without_intermediate	test	ward_and_allport	82	41.0	0.173	to_board	poldrack-single-stim	s570	False
0.1	505.299	0.727	506.026	0	PA_without_intermediate	test	ward_and_allport	89	41.0	0.727	to_hand	poldrack-single-stim	s570	False
0.1	506.027	0.165	506.192	0	PA_without_intermediate	test	ward_and_allport	82	41.0	0.165	to_board	poldrack-single-stim	s570	False
0.1	506.199	1.064	507.263	0	PA_without_intermediate	test	ward_and_allport	89	41.0	1.064	to_hand	poldrack-single-stim	s570	False
0.1	507.264	0.236	507.5	0	PA_without_intermediate	test	ward_and_allport	71	41.0	0.236	to_board	poldrack-single-stim	s570	False
1.0	507.511	2.272	507.51	0	PA_without_intermediate	test	ward_and_allport	-1	41.0	n/a	feedback	poldrack-single-stim	s570	False
4.847	509.79	4.847	514.637	1	PA_with_intermediate	test	ward_and_allport	89	42.0	4.847	to_hand	poldrack-single-stim	s570	False
0.1	514.638	0.293	514.931	0	PA_with_intermediate	test	ward_and_allport	71	42.0	0.293	to_board	poldrack-single-stim	s570	False
0.1	514.937	0.539	515.476	0	PA_with_intermediate	test	ward_and_allport	89	42.0	0.539	to_hand	poldrack-single-stim	s570	False
0.1	515.477	0.234	515.711	0	PA_with_intermediate	test	ward_and_allport	82	42.0	0.234	to_board	poldrack-single-stim	s570	False
0.1	515.722	0.692	516.414	0	PA_with_intermediate	test	ward_and_allport	71	42.0	0.692	to_hand	poldrack-single-stim	s570	False
0.1	516.415	0.175	516.59	0	PA_with_intermediate	test	ward_and_allport	89	42.0	0.175	to_board	poldrack-single-stim	s570	False
1.0	516.602	4.04	516.601	0	PA_with_intermediate	test	ward_and_allport	-1	42.0	n/a	feedback	poldrack-single-stim	s570	False
3.742	520.652	3.742	524.394	1	PA_with_intermediate	test	ward_and_allport	82	43.0	3.742	to_hand	poldrack-single-stim	s570	False
0.1	524.395	0.398	524.793	0	PA_with_intermediate	test	ward_and_allport	71	43.0	0.398	to_board	poldrack-single-stim	s570	False
0.1	524.801	0.822	525.623	0	PA_with_intermediate	test	ward_and_allport	82	43.0	0.822	to_hand	poldrack-single-stim	s570	False
0.1	525.624	0.607	526.231	0	PA_with_intermediate	test	ward_and_allport	89	43.0	0.607	to_board	poldrack-single-stim	s570	False
0.1	526.24	0.735	526.975	0	PA_with_intermediate	test	ward_and_allport	71	43.0	0.735	to_hand	poldrack-single-stim	s570	False
0.1	526.975	0.292	527.267	0	PA_with_intermediate	test	ward_and_allport	82	43.0	0.292	to_board	poldrack-single-stim	s570	False
1.0	527.277	2.272	527.276	0	PA_with_intermediate	test	ward_and_allport	-1	43.0	n/a	feedback	poldrack-single-stim	s570	False
3.532	529.56	3.532	533.092	1	PA_with_intermediate	test	ward_and_allport	89	44.0	3.532	to_hand	poldrack-single-stim	s570	False
0.1	533.094	0.314	533.408	0	PA_with_intermediate	test	ward_and_allport	82	44.0	0.314	to_board	poldrack-single-stim	s570	False
0.1	533.418	1.232	534.65	0	PA_with_intermediate	test	ward_and_allport	89	44.0	1.232	to_hand	poldrack-single-stim	s570	False
0.1	534.65	0.239	534.889	0	PA_with_intermediate	test	ward_and_allport	71	44.0	0.239	to_board	poldrack-single-stim	s570	False
0.1	534.9	0.465	535.365	0	PA_with_intermediate	test	ward_and_allport	82	44.0	0.465	to_hand	poldrack-single-stim	s570	False
0.1	535.367	0.19	535.557	0	PA_with_intermediate	test	ward_and_allport	89	44.0	0.19	to_board	poldrack-single-stim	s570	False
1.0	535.567	2.136	535.566	0	PA_with_intermediate	test	ward_and_allport	-1	44.0	n/a	feedback	poldrack-single-stim	s570	False
2.58	542.714	2.58	545.294	1	PA_with_intermediate	test	ward_and_allport	89	45.0	2.58	to_hand	poldrack-single-stim	s570	False
0.1	545.296	0.211	545.507	0	PA_with_intermediate	test	ward_and_allport	71	45.0	0.211	to_board	poldrack-single-stim	s570	False
0.1	545.517	0.311	545.828	0	PA_with_intermediate	test	ward_and_allport	89	45.0	0.311	to_hand	poldrack-single-stim	s570	False
0.1	545.829	0.175	546.004	0	PA_with_intermediate	test	ward_and_allport	71	45.0	0.175	to_board	poldrack-single-stim	s570	False
0.1	546.015	9.123	555.138	0	PA_with_intermediate	test	ward_and_allport	89	45.0	9.123	to_hand	poldrack-single-stim	s570	False
0.1	555.14	0.822	555.962	0	PA_with_intermediate	test	ward_and_allport	89	45.0	0.822	to_board	poldrack-single-stim	s570	False
0.1	555.974	0.533	556.507	0	PA_with_intermediate	test	ward_and_allport	71	45.0	0.533	to_hand	poldrack-single-stim	s570	False
0.1	556.509	0.217	556.726	0	PA_with_intermediate	test	ward_and_allport	89	45.0	0.217	to_board	poldrack-single-stim	s570	False
0.1	556.736	0.863	557.599	0	PA_with_intermediate	test	ward_and_allport	71	45.0	0.863	to_hand	poldrack-single-stim	s570	False
0.1	557.6	1.028	558.628	0	PA_with_intermediate	test	ward_and_allport	82	45.0	1.028	to_board	poldrack-single-stim	s570	False
0.1	558.64	0.439	559.079	0	PA_with_intermediate	test	ward_and_allport	89	45.0	0.439	to_hand	poldrack-single-stim	s570	False
0.1	559.081	0.298	559.379	0	PA_with_intermediate	test	ward_and_allport	71	45.0	0.298	to_board	poldrack-single-stim	s570	False
0.1	559.39	0.294	559.684	0	PA_with_intermediate	test	ward_and_allport	82	45.0	0.294	to_hand	poldrack-single-stim	s570	False
0.1	559.685	0.267	559.952	0	PA_with_intermediate	test	ward_and_allport	89	45.0	0.267	to_board	poldrack-single-stim	s570	False
0.1	559.963	0.173	560.136	0	PA_with_intermediate	test	ward_and_allport	71	45.0	0.173	to_hand	poldrack-single-stim	s570	False
0.1	560.138	0.934	561.072	0	PA_with_intermediate	test	ward_and_allport	71	45.0	0.934	to_board	poldrack-single-stim	s570	False
0.1	561.079	1.404	562.483	0	PA_with_intermediate	test	ward_and_allport	89	45.0	1.404	to_hand	poldrack-single-stim	s570	False
0.1	562.485	0.374	562.859	0	PA_with_intermediate	test	ward_and_allport	71	45.0	0.374	to_board	poldrack-single-stim	s570	False
1.0	562.873	2.0	562.872	0	PA_with_intermediate	test	ward_and_allport	-1	45.0	n/a	feedback	poldrack-single-stim	s570	False
