onset	duration	movement_onset	EV	action	block_duration	experiment_exp_id	gain_amount	gain_probability	key_press	loss_amount	loss_probability	num_cards	num_click_in_round	num_loss_cards	risk	response_time	total_cards	trial_id	trial_type	worker_id	junk	feedback
3.012	2.563	5.575	-0.3986464336945108	draw_card	2.563	columbia_card_task_fmri	12.0	0.8333333333333334	89.0	-70.0	0.1666666666666666	6.0	1.0	1.0	-2.7465025539795747	2.563	n/a	stim	poldrack-single-stim	s572	False	1
5.578	1.707	7.285	-3.1319797670278438	draw_card	1.707	columbia_card_task_fmri	12.0	0.8	89.0	-70.0	0.2	6.0	2.0	1.0	-0.5078929980718598	1.707	n/a	stim	poldrack-single-stim	s572	False	1
7.286	1.926	9.212	-7.231979767027845	draw_card	1.926	columbia_card_task_fmri	12.0	0.75	89.0	-70.0	0.25	6.0	3.0	1.0	2.197281839505223	1.926	n/a	stim	poldrack-single-stim	s572	False	1
9.215	2.62	11.835	-14.065313100361177	draw_card	2.62	columbia_card_task_fmri	12.0	0.6666666666666667	89.0	-70.0	0.3333333333333333	6.0	4.0	1.0	5.3435686459704	2.62	4.0	stim	poldrack-single-stim	s572	False	0
12.588	1.5	11.837	n/a	-1.0	2.454	columbia_card_task_fmri	n/a	n/a	-1.0	n/a	n/a	n/a	n/a	n/a	n/a	n/a	n/a	ITI	poldrack-single-stim	s572	False	0
14.294	1.886	16.18	0.4346868996388231	draw_card	1.886	columbia_card_task_fmri	14.0	0.8333333333333334	89.0	-75.0	0.1666666666666666	6.0	1.0	1.0	-0.1398232226355631	1.886	n/a	stim	poldrack-single-stim	s572	False	1
16.182	1.557	17.739	-2.531979767027844	draw_card	1.557	columbia_card_task_fmri	14.0	0.8	89.0	-75.0	0.2	6.0	2.0	1.0	2.290181219010215	1.557	n/a	stim	poldrack-single-stim	s572	False	1
17.74	2.082	19.822	-6.981979767027845	draw_card	2.082	columbia_card_task_fmri	14.0	0.75	89.0	-75.0	0.25	6.0	3.0	1.0	5.226591520931009	2.082	n/a	stim	poldrack-single-stim	s572	False	1
19.824	0.964	20.788	-14.39864643369451	end_round	0.964	columbia_card_task_fmri	14.0	0.6666666666666667	71.0	-75.0	0.3333333333333333	6.0	4.0	1.0	8.641765737384603	0.964	3.0	stim	poldrack-single-stim	s572	False	1
21.542	1.5	20.791	n/a	-1.0	2.454	columbia_card_task_fmri	n/a	n/a	-1.0	n/a	n/a	n/a	n/a	n/a	n/a	n/a	n/a	ITI	poldrack-single-stim	s572	False	0
23.247	1.854	25.101	2.101353566305489	draw_card	1.854	columbia_card_task_fmri	15.0	0.8333333333333334	89.0	-70.0	0.1666666666666666	6.0	1.0	1.0	-1.6293958994249849	1.854	1.0	stim	poldrack-single-stim	s572	False	0
25.854	1.5	25.103	n/a	-1.0	2.522	columbia_card_task_fmri	n/a	n/a	-1.0	n/a	n/a	n/a	n/a	n/a	n/a	n/a	n/a	ITI	poldrack-single-stim	s572	False	0
27.627	1.554	29.181	2.934686899638823	draw_card	1.554	columbia_card_task_fmri	17.0	0.8333333333333334	89.0	-75.0	0.1666666666666666	6.0	1.0	1.0	0.977421230644424	1.554	n/a	stim	poldrack-single-stim	s572	False	1
29.182	1.739	30.921	-0.1319797670278433	draw_card	1.739	columbia_card_task_fmri	17.0	0.8	89.0	-75.0	0.2	6.0	2.0	1.0	3.4894455099264974	1.739	n/a	stim	poldrack-single-stim	s572	False	1
30.924	1.554	32.478	-4.731979767027845	draw_card	1.554	columbia_card_task_fmri	17.0	0.75	89.0	-75.0	0.25	6.0	3.0	1.0	6.524949915972094	1.554	3.0	stim	poldrack-single-stim	s572	False	0
33.234	1.5	32.483	n/a	-1.0	2.454	columbia_card_task_fmri	n/a	n/a	-1.0	n/a	n/a	n/a	n/a	n/a	n/a	n/a	n/a	ITI	poldrack-single-stim	s572	False	0
34.939	2.162	37.101	4.268020232972155	draw_card	2.162	columbia_card_task_fmri	24.0	0.75	89.0	-60.0	0.25	8.0	1.0	2.0	3.0627686595552603	2.162	n/a	stim	poldrack-single-stim	s572	False	1
37.103	1.969	39.072	1.2680202329721553	draw_card	1.969	columbia_card_task_fmri	24.0	0.7142857142857143	89.0	-60.0	0.2857142857142857	8.0	2.0	2.0	4.63611748742079	1.969	n/a	stim	poldrack-single-stim	s572	False	1
39.072	1.658	40.73	-2.7319797670278447	draw_card	1.658	columbia_card_task_fmri	24.0	0.6666666666666667	89.0	-60.0	0.3333333333333333	8.0	3.0	2.0	6.28588289468216	1.658	3.0	stim	poldrack-single-stim	s572	False	0
41.484	1.5	40.733	n/a	-1.0	2.658	columbia_card_task_fmri	n/a	n/a	-1.0	n/a	n/a	n/a	n/a	n/a	n/a	n/a	n/a	ITI	poldrack-single-stim	s572	False	0
43.394	1.514	44.908	4.268020232972155	draw_card	1.514	columbia_card_task_fmri	29.0	0.75	89.0	-75.0	0.25	8.0	1.0	2.0	11.718775380680988	1.514	n/a	stim	poldrack-single-stim	s572	False	1
44.908	1.423	46.331	0.5537345186864435	draw_card	1.423	columbia_card_task_fmri	29.0	0.7142857142857143	89.0	-75.0	0.2857142857142857	8.0	2.0	2.0	13.667125154893	1.423	n/a	stim	poldrack-single-stim	s572	False	1
46.333	1.642	47.975	-4.398646433694509	draw_card	1.642	columbia_card_task_fmri	29.0	0.6666666666666667	89.0	-75.0	0.3333333333333333	8.0	3.0	2.0	15.710071445706092	1.642	n/a	stim	poldrack-single-stim	s572	False	1
47.977	1.772	49.749	-11.331979767027846	draw_card	1.772	columbia_card_task_fmri	29.0	0.6	89.0	-75.0	0.4	8.0	4.0	2.0	17.632769208743014	1.772	4.0	stim	poldrack-single-stim	s572	False	0
50.505	1.5	49.754	n/a	-1.0	2.386	columbia_card_task_fmri	n/a	n/a	-1.0	n/a	n/a	n/a	n/a	n/a	n/a	n/a	n/a	ITI	poldrack-single-stim	s572	False	0
52.143	1.385	53.528	0.0457980107499356	draw_card	1.385	columbia_card_task_fmri	17.0	0.7777777777777778	89.0	-65.0	0.2222222222222222	9.0	1.0	2.0	0.7818362443849054	1.385	n/a	stim	poldrack-single-stim	s572	False	1
53.53	1.773	55.303	-2.2319797670278447	draw_card	1.773	columbia_card_task_fmri	17.0	0.75	89.0	-65.0	0.25	9.0	2.0	2.0	2.197281839505223	1.773	n/a	stim	poldrack-single-stim	s572	False	1
55.305	1.412	56.717	-5.160551195599272	end_round	1.412	columbia_card_task_fmri	17.0	0.7142857142857143	71.0	-65.0	0.2857142857142857	9.0	3.0	2.0	3.733125863952182	1.412	2.0	stim	poldrack-single-stim	s572	False	1
57.471	1.5	56.72	n/a	-1.0	2.522	columbia_card_task_fmri	n/a	n/a	-1.0	n/a	n/a	n/a	n/a	n/a	n/a	n/a	n/a	ITI	poldrack-single-stim	s572	False	0
59.244	1.39	60.634	4.368020232972155	draw_card	1.39	columbia_card_task_fmri	14.0	0.9	89.0	-95.0	0.1	10.0	1.0	1.0	-0.6078181272121412	1.39	n/a	stim	poldrack-single-stim	s572	False	1
60.635	1.419	62.054	3.1569091218610428	draw_card	1.419	columbia_card_task_fmri	14.0	0.8888888888888888	89.0	-95.0	0.1111111111111111	10.0	2.0	1.0	0.9464619374375118	1.419	n/a	stim	poldrack-single-stim	s572	False	1
62.055	1.632	63.687	1.6430202329721553	draw_card	1.632	columbia_card_task_fmri	14.0	0.875	89.0	-95.0	0.125	10.0	3.0	1.0	2.73826221952676	1.632	n/a	stim	poldrack-single-stim	s572	False	1
63.688	1.004	64.692	-0.3034083384564159	end_round	1.004	columbia_card_task_fmri	14.0	0.8571428571428572	71.0	-95.0	0.1428571428571428	10.0	4.0	1.0	4.830732064906719	1.004	3.0	stim	poldrack-single-stim	s572	False	1
65.446	1.5	64.695	n/a	-1.0	2.59	columbia_card_task_fmri	n/a	n/a	-1.0	n/a	n/a	n/a	n/a	n/a	n/a	n/a	n/a	ITI	poldrack-single-stim	s572	False	0
67.287	1.639	68.926	0.2680202329721552	draw_card	1.639	columbia_card_task_fmri	15.0	0.8	89.0	-65.0	0.2	10.0	1.0	2.0	-1.3072809439666386	1.639	n/a	stim	poldrack-single-stim	s572	False	1
68.928	2.775	71.703	-1.5097575448056215	draw_card	2.775	columbia_card_task_fmri	15.0	0.7777777777777778	89.0	-65.0	0.2222222222222222	10.0	2.0	2.0	-0.0490542426686317	2.775	2.0	stim	poldrack-single-stim	s572	False	0
72.455	1.5	71.704	n/a	-1.0	2.386	columbia_card_task_fmri	n/a	n/a	-1.0	n/a	n/a	n/a	n/a	n/a	n/a	n/a	n/a	ITI	poldrack-single-stim	s572	False	0
74.094	1.147	75.241	1.8680202329721567	draw_card	1.147	columbia_card_task_fmri	17.0	0.8	89.0	-65.0	0.2	10.0	1.0	2.0	-0.5078929980718598	1.147	n/a	stim	poldrack-single-stim	s572	False	1
75.243	1.403	76.646	0.0457980107499356	draw_card	1.403	columbia_card_task_fmri	17.0	0.7777777777777778	89.0	-65.0	0.2222222222222222	10.0	2.0	2.0	0.7818362443849054	1.403	n/a	stim	poldrack-single-stim	s572	False	1
76.648	1.492	78.14	-2.2319797670278447	draw_card	1.492	columbia_card_task_fmri	17.0	0.75	89.0	-65.0	0.25	10.0	3.0	2.0	2.197281839505223	1.492	n/a	stim	poldrack-single-stim	s572	False	1
78.142	1.998	80.14	-5.160551195599272	draw_card	1.998	columbia_card_task_fmri	17.0	0.7142857142857143	89.0	-65.0	0.2857142857142857	10.0	4.0	2.0	3.733125863952182	1.998	n/a	stim	poldrack-single-stim	s572	False	1
80.142	0.887	81.029	-9.065313100361177	end_round	0.887	columbia_card_task_fmri	17.0	0.6666666666666667	71.0	-65.0	0.3333333333333333	10.0	5.0	2.0	5.3435686459704	0.887	4.0	stim	poldrack-single-stim	s572	False	1
81.782	1.5	81.031	n/a	-1.0	2.59	columbia_card_task_fmri	n/a	n/a	-1.0	n/a	n/a	n/a	n/a	n/a	n/a	n/a	n/a	ITI	poldrack-single-stim	s572	False	0
83.623	1.44	85.063	0.4346868996388231	draw_card	1.44	columbia_card_task_fmri	13.0	0.8333333333333334	89.0	-70.0	0.1666666666666666	12.0	1.0	2.0	-2.3741411082576214	1.44	1.0	stim	poldrack-single-stim	s572	False	0
85.82	1.5	85.069	n/a	-1.0	2.318	columbia_card_task_fmri	n/a	n/a	-1.0	n/a	n/a	n/a	n/a	n/a	n/a	n/a	n/a	ITI	poldrack-single-stim	s572	False	0
87.389	2.003	89.392	0.4346868996388231	draw_card	2.003	columbia_card_task_fmri	15.0	0.8333333333333334	89.0	-80.0	0.1666666666666666	12.0	1.0	2.0	2.09471549981042	2.003	n/a	stim	poldrack-single-stim	s572	False	1
89.393	1.682	91.075	-1.00470703975512	draw_card	1.682	columbia_card_task_fmri	15.0	0.8181818181818181	89.0	-80.0	0.1818181818181818	12.0	2.0	2.0	3.3305279840810584	1.682	n/a	stim	poldrack-single-stim	s572	False	1
91.077	1.951	93.028	-2.7319797670278447	draw_card	1.951	columbia_card_task_fmri	15.0	0.8	89.0	-80.0	0.2	12.0	3.0	2.0	4.688756226624051	1.951	3.0	stim	poldrack-single-stim	s572	False	0
93.782	1.5	93.031	n/a	-1.0	2.25	columbia_card_task_fmri	n/a	n/a	-1.0	n/a	n/a	n/a	n/a	n/a	n/a	n/a	n/a	ITI	poldrack-single-stim	s572	False	0
95.284	2.494	97.778	-0.5319797670278437	draw_card	2.494	columbia_card_task_fmri	14.0	0.8	89.0	-65.0	0.2	15.0	1.0	3.0	-1.7069633094183525	2.494	n/a	stim	poldrack-single-stim	s572	False	1
97.78	1.71	99.49	-1.6605511955992718	draw_card	1.71	columbia_card_task_fmri	14.0	0.7857142857142857	89.0	-65.0	0.2142857142857142	15.0	2.0	3.0	-0.8918564215458176	1.71	n/a	stim	poldrack-single-stim	s572	False	1
99.492	1.688	101.18	-2.9627489977970765	draw_card	1.688	columbia_card_task_fmri	14.0	0.7692307692307692	89.0	-65.0	0.2307692307692307	15.0	3.0	3.0	-0.0235710190872708	1.688	n/a	stim	poldrack-single-stim	s572	False	1
101.183	1.908	103.091	-4.481979767027845	draw_card	1.908	columbia_card_task_fmri	14.0	0.75	89.0	-65.0	0.25	15.0	4.0	3.0	0.8991026898550842	1.908	n/a	stim	poldrack-single-stim	s572	False	1
103.093	1.927	105.02	-6.27743431248239	draw_card	1.927	columbia_card_task_fmri	14.0	0.7272727272727273	89.0	-65.0	0.2727272727272727	15.0	5.0	3.0	1.8740281822159448	1.927	5.0	stim	poldrack-single-stim	s572	False	0
105.775	1.5	105.024	n/a	-1.0	2.454	columbia_card_task_fmri	n/a	n/a	-1.0	n/a	n/a	n/a	n/a	n/a	n/a	n/a	n/a	ITI	poldrack-single-stim	s572	False	0
107.48	3.472	110.952	-0.6069797670278447	draw_card	3.472	columbia_card_task_fmri	1.0	0.9375	89.0	-45.0	0.0625	16.0	1.0	1.0	-22.125599313696377	3.472	n/a	stim	poldrack-single-stim	s572	False	1
110.953	1.209	112.162	-0.7986464336945112	draw_card	1.209	columbia_card_task_fmri	1.0	0.9333333333333332	89.0	-45.0	0.0666666666666666	16.0	2.0	1.0	-21.788127272844104	1.209	n/a	stim	poldrack-single-stim	s572	False	1
112.165	2.647	114.812	-1.0176940527421303	draw_card	2.647	columbia_card_task_fmri	1.0	0.9285714285714286	89.0	-45.0	0.0714285714285714	16.0	3.0	1.0	-21.417914963286805	2.647	n/a	stim	poldrack-single-stim	s572	False	1
114.814	2.121	116.935	-1.270441305489383	draw_card	2.121	columbia_card_task_fmri	1.0	0.9230769230769232	89.0	-45.0	0.0769230769230769	16.0	4.0	1.0	-21.009391422086573	2.121	4.0	stim	poldrack-single-stim	s572	False	0
117.688	1.5	116.937	n/a	-1.0	3.27	columbia_card_task_fmri	n/a	n/a	-1.0	n/a	n/a	n/a	n/a	n/a	n/a	n/a	n/a	ITI	poldrack-single-stim	s572	False	0
120.21	3.341	123.551	0.3305202329721552	draw_card	3.341	columbia_card_task_fmri	15.0	0.8125	89.0	-70.0	0.1875	16.0	1.0	3.0	-0.1316190140280824	3.341	n/a	stim	poldrack-single-stim	s572	False	1
123.553	1.309	124.862	-0.7319797670278447	draw_card	1.309	columbia_card_task_fmri	15.0	0.8	89.0	-70.0	0.2	16.0	2.0	3.0	0.6912428674243998	1.309	n/a	stim	poldrack-single-stim	s572	False	1
124.864	1.653	126.517	-1.94626548131356	draw_card	1.653	columbia_card_task_fmri	15.0	0.7857142857142857	89.0	-70.0	0.2142857142857142	16.0	3.0	3.0	1.568350219441669	1.653	n/a	stim	poldrack-single-stim	s572	False	1
126.519	0.861	127.38	-3.347364382412461	end_round	0.861	columbia_card_task_fmri	15.0	0.7692307692307692	71.0	-70.0	0.2307692307692307	16.0	4.0	3.0	2.5026760274487216	0.861	3.0	stim	poldrack-single-stim	s572	False	1
128.135	1.5	127.384	n/a	-1.0	2.25	columbia_card_task_fmri	n/a	n/a	-1.0	n/a	n/a	n/a	n/a	n/a	n/a	n/a	n/a	ITI	poldrack-single-stim	s572	False	0
129.637	1.852	131.489	7.268020232972155	draw_card	1.852	columbia_card_task_fmri	30.0	0.7	89.0	-50.0	0.3	10.0	1.0	3.0	3.350134060838357	1.852	n/a	stim	poldrack-single-stim	s572	False	1
131.492	3.275	134.767	4.601353566305495	draw_card	3.275	columbia_card_task_fmri	30.0	0.6666666666666667	89.0	-50.0	0.3333333333333333	10.0	2.0	3.0	4.4012791164494445	3.275	n/a	stim	poldrack-single-stim	s572	False	1
134.769	0.764	135.533	1.2680202329721553	end_round	0.764	columbia_card_task_fmri	30.0	0.625	71.0	-50.0	0.375	10.0	3.0	3.0	5.418191342019874	0.764	2.0	stim	poldrack-single-stim	s572	False	1
136.286	1.5	135.535	n/a	-1.0	2.25	columbia_card_task_fmri	n/a	n/a	-1.0	n/a	n/a	n/a	n/a	n/a	n/a	n/a	n/a	ITI	poldrack-single-stim	s572	False	0
137.789	1.559	139.348	6.668020232972156	draw_card	1.559	columbia_card_task_fmri	17.0	0.8666666666666667	89.0	-70.0	0.1333333333333333	15.0	1.0	2.0	-3.7309097984040775	1.559	n/a	stim	poldrack-single-stim	s572	False	1
139.35	1.154	140.504	5.839448804400728	draw_card	1.154	columbia_card_task_fmri	17.0	0.8571428571428572	89.0	-70.0	0.1428571428571428	15.0	2.0	2.0	-2.862339959643627	1.154	n/a	stim	poldrack-single-stim	s572	False	1
140.507	1.884	142.391	4.88340484835677	draw_card	1.884	columbia_card_task_fmri	17.0	0.8461538461538461	89.0	-70.0	0.1538461538461538	15.0	3.0	2.0	-1.917087605000745	1.884	n/a	stim	poldrack-single-stim	s572	False	1
142.394	2.813	145.207	3.768020232972157	draw_card	2.813	columbia_card_task_fmri	17.0	0.8333333333333334	89.0	-70.0	0.1666666666666666	15.0	4.0	2.0	-0.884622641520636	2.813	n/a	stim	poldrack-single-stim	s572	False	1
145.209	3.588	148.797	2.449838414790335	draw_card	3.588	columbia_card_task_fmri	17.0	0.8181818181818181	89.0	-70.0	0.1818181818181818	15.0	5.0	2.0	0.2469866965047487	3.588	n/a	stim	poldrack-single-stim	s572	False	1
148.8	1.567	150.367	0.8680202329721567	end_round	1.567	columbia_card_task_fmri	17.0	0.8	71.0	-70.0	0.2	15.0	6.0	2.0	1.4906998525026012	1.567	5.0	stim	poldrack-single-stim	s572	False	1
151.119	1.5	150.368	n/a	-1.0	2.318	columbia_card_task_fmri	n/a	n/a	-1.0	n/a	n/a	n/a	n/a	n/a	n/a	n/a	n/a	ITI	poldrack-single-stim	s572	False	0
152.689	0.948	153.637	1.8930202329721555	draw_card	0.948	columbia_card_task_fmri	7.0	0.9375	89.0	-95.0	0.0625	16.0	1.0	1.0	-8.609585839973956	0.948	n/a	stim	poldrack-single-stim	s572	False	1
153.639	2.653	156.292	1.4680202329721554	draw_card	2.653	columbia_card_task_fmri	7.0	0.9333333333333332	89.0	-95.0	0.0666666666666666	16.0	2.0	1.0	-7.857546245701105	2.653	n/a	stim	poldrack-single-stim	s572	False	1
156.294	2.747	159.041	0.9823059472578696	end_round	2.747	columbia_card_task_fmri	7.0	0.9285714285714286	71.0	-95.0	0.0714285714285714	16.0	3.0	1.0	-7.032791486631275	2.747	2.0	stim	poldrack-single-stim	s572	False	1
159.793	1.5	159.042	n/a	-1.0	2.726	columbia_card_task_fmri	n/a	n/a	-1.0	n/a	n/a	n/a	n/a	n/a	n/a	n/a	n/a	ITI	poldrack-single-stim	s572	False	0
161.772	1.402	163.174	3.4555202329721557	draw_card	1.402	columbia_card_task_fmri	9.0	0.9375	89.0	-100.0	0.0625	16.0	1.0	1.0	-6.917242825177862	1.402	n/a	stim	poldrack-single-stim	s572	False	1
163.175	1.715	164.89	3.0013535663054887	draw_card	1.715	columbia_card_task_fmri	9.0	0.9333333333333332	89.0	-100.0	0.0666666666666666	16.0	2.0	1.0	-6.1134651115674	1.715	n/a	stim	poldrack-single-stim	s572	False	1
164.893	1.626	166.519	2.4823059472578706	draw_card	1.626	columbia_card_task_fmri	9.0	0.9285714285714286	89.0	-100.0	0.0714285714285714	16.0	3.0	1.0	-5.231978032152686	1.626	n/a	stim	poldrack-single-stim	s572	False	1
166.522	1.79	168.312	1.8834048483567711	draw_card	1.79	columbia_card_task_fmri	9.0	0.9230769230769232	89.0	-100.0	0.0769230769230769	16.0	4.0	1.0	-4.259568735467621	1.79	n/a	stim	poldrack-single-stim	s572	False	1
168.315	2.198	170.513	1.1846868996388231	draw_card	2.198	columbia_card_task_fmri	9.0	0.9166666666666666	89.0	-100.0	0.0833333333333333	16.0	5.0	1.0	-3.1797116040622413	2.198	n/a	stim	poldrack-single-stim	s572	False	1
170.514	2.312	172.826	0.3589293238812452	draw_card	2.312	columbia_card_task_fmri	9.0	0.9090909090909092	89.0	-100.0	0.0909090909090909	16.0	6.0	1.0	-1.9714518444160087	2.312	n/a	stim	poldrack-single-stim	s572	False	1
172.829	1.865	174.694	-0.6319797670278451	end_round	1.865	columbia_card_task_fmri	9.0	0.9	71.0	-100.0	0.1	16.0	7.0	1.0	-0.6078181272121412	1.865	6.0	stim	poldrack-single-stim	s572	False	1
175.447	1.5	174.696	n/a	-1.0	2.386	columbia_card_task_fmri	n/a	n/a	-1.0	n/a	n/a	n/a	n/a	n/a	n/a	n/a	n/a	ITI	poldrack-single-stim	s572	False	0
177.085	1.399	178.484	4.393020232972155	draw_card	1.399	columbia_card_task_fmri	15.0	0.875	89.0	-80.0	0.125	16.0	1.0	2.0	-1.888519534277048	1.399	n/a	stim	poldrack-single-stim	s572	False	1
178.487	1.807	180.294	3.601353566305489	draw_card	1.807	columbia_card_task_fmri	15.0	0.8666666666666667	89.0	-80.0	0.1333333333333333	16.0	2.0	2.0	-1.0137189798578206	1.807	n/a	stim	poldrack-single-stim	s572	False	1
180.297	1.992	182.289	2.696591661543586	draw_card	1.992	columbia_card_task_fmri	15.0	0.8571428571428572	89.0	-80.0	0.1428571428571428	16.0	3.0	2.0	-0.0651442381597604	1.992	n/a	stim	poldrack-single-stim	s572	False	1
182.291	1.66	183.951	1.6526356175875383	draw_card	1.66	columbia_card_task_fmri	15.0	0.8461538461538461	89.0	-80.0	0.1538461538461538	16.0	4.0	2.0	0.9671677554251304	1.66	4.0	stim	poldrack-single-stim	s572	False	0
184.707	1.5	183.956	n/a	-1.0	2.318	columbia_card_task_fmri	n/a	n/a	-1.0	n/a	n/a	n/a	n/a	n/a	n/a	n/a	n/a	ITI	poldrack-single-stim	s572	False	0
186.279	3.749	190.028	6.518020232972155	draw_card	3.749	columbia_card_task_fmri	16.0	0.875	89.0	-70.0	0.125	16.0	1.0	2.0	-4.862315544586604	3.749	n/a	stim	poldrack-single-stim	s572	False	1
190.029	1.821	191.85	5.8013535663054885	draw_card	1.821	columbia_card_task_fmri	16.0	0.8666666666666667	89.0	-70.0	0.1333333333333333	16.0	2.0	2.0	-4.070528783949673	1.821	n/a	stim	poldrack-single-stim	s572	False	1
191.852	2.286	194.138	4.982305947257871	end_round	2.286	columbia_card_task_fmri	16.0	0.8571428571428572	71.0	-70.0	0.1428571428571428	16.0	3.0	2.0	-3.211960406644259	2.286	2.0	stim	poldrack-single-stim	s572	False	1
194.895	1.5	194.144	n/a	-1.0	2.25	columbia_card_task_fmri	n/a	n/a	-1.0	n/a	n/a	n/a	n/a	n/a	n/a	n/a	n/a	ITI	poldrack-single-stim	s572	False	0
196.397	1.137	197.534	7.830520232972155	draw_card	1.137	columbia_card_task_fmri	30.0	0.6875	89.0	-45.0	0.3125	16.0	1.0	5.0	1.4541545384874368	1.137	n/a	stim	poldrack-single-stim	s572	False	1
197.536	2.598	200.134	6.268020232972159	draw_card	2.598	columbia_card_task_fmri	30.0	0.6666666666666667	89.0	-45.0	0.3333333333333333	16.0	2.0	5.0	2.045676401072022	2.598	n/a	stim	poldrack-single-stim	s572	False	1
200.137	1.263	201.4	4.482305947257867	end_round	1.263	columbia_card_task_fmri	30.0	0.6428571428571428	71.0	-45.0	0.3571428571428571	16.0	3.0	5.0	2.6267765517726787	1.263	2.0	stim	poldrack-single-stim	s572	False	1
202.153	1.5	201.402	n/a	-1.0	2.25	columbia_card_task_fmri	n/a	n/a	-1.0	n/a	n/a	n/a	n/a	n/a	n/a	n/a	n/a	ITI	poldrack-single-stim	s572	False	0
203.655	2.684	206.339	-0.3986464336945108	draw_card	2.684	columbia_card_task_fmri	13.0	0.8333333333333334	89.0	-75.0	0.1666666666666666	6.0	1.0	1.0	-0.5122260908871183	2.684	n/a	stim	poldrack-single-stim	s572	False	1
206.341	2.739	209.08	-3.3319797670278444	draw_card	2.739	columbia_card_task_fmri	13.0	0.8	89.0	-75.0	0.2	6.0	2.0	1.0	1.8904375918400265	2.739	n/a	stim	poldrack-single-stim	s572	False	1
209.083	1.108	210.191	-7.731979767027845	end_round	1.108	columbia_card_task_fmri	13.0	0.75	71.0	-75.0	0.25	6.0	3.0	1.0	4.793815679507794	1.108	2.0	stim	poldrack-single-stim	s572	False	1
210.946	1.5	210.195	n/a	-1.0	2.454	columbia_card_task_fmri	n/a	n/a	-1.0	n/a	n/a	n/a	n/a	n/a	n/a	n/a	n/a	ITI	poldrack-single-stim	s572	False	0
212.653	1.5	214.153	1.268020232972157	draw_card	1.5	columbia_card_task_fmri	14.0	0.8333333333333334	89.0	-70.0	0.1666666666666666	6.0	1.0	1.0	-2.001772134990976	1.5	n/a	stim	poldrack-single-stim	s572	False	1
214.154	2.994	217.148	-1.5319797670278437	draw_card	2.994	columbia_card_task_fmri	14.0	0.8	89.0	-70.0	0.2	6.0	2.0	1.0	0.2915240613954637	2.994	n/a	stim	poldrack-single-stim	s572	False	1
217.151	3.075	220.226	-5.731979767027845	end_round	3.075	columbia_card_task_fmri	14.0	0.75	71.0	-70.0	0.25	6.0	3.0	1.0	3.0627686595552603	3.075	2.0	stim	poldrack-single-stim	s572	False	1
220.98	1.5	220.229	n/a	-1.0	2.454	columbia_card_task_fmri	n/a	n/a	-1.0	n/a	n/a	n/a	n/a	n/a	n/a	n/a	n/a	ITI	poldrack-single-stim	s572	False	0
222.687	1.107	223.794	1.268020232972157	draw_card	1.107	columbia_card_task_fmri	16.0	0.8333333333333334	89.0	-80.0	0.1666666666666666	6.0	1.0	1.0	2.4671571869070306	1.107	n/a	stim	poldrack-single-stim	s572	False	1
223.798	1.902	225.7	-1.931979767027844	draw_card	1.902	columbia_card_task_fmri	16.0	0.8	89.0	-80.0	0.2	6.0	2.0	1.0	5.088536030940439	1.902	n/a	stim	poldrack-single-stim	s572	False	1
225.703	2.358	228.061	-6.731979767027845	draw_card	2.358	columbia_card_task_fmri	16.0	0.75	89.0	-80.0	0.25	6.0	3.0	1.0	8.256160477720663	2.358	n/a	stim	poldrack-single-stim	s572	False	1
228.063	0.919	228.982	-14.73197976702784	end_round	0.919	columbia_card_task_fmri	16.0	0.6666666666666667	71.0	-80.0	0.3333333333333333	6.0	4.0	1.0	11.940201049369216	0.919	3.0	stim	poldrack-single-stim	s572	False	1
229.738	1.5	228.987	n/a	-1.0	2.522	columbia_card_task_fmri	n/a	n/a	-1.0	n/a	n/a	n/a	n/a	n/a	n/a	n/a	n/a	ITI	poldrack-single-stim	s572	False	0
231.512	0.85	232.362	3.768020232972157	draw_card	0.85	columbia_card_task_fmri	17.0	0.8333333333333334	89.0	-70.0	0.1666666666666666	6.0	1.0	1.0	-0.884622641520636	0.85	n/a	stim	poldrack-single-stim	s572	False	1
232.364	2.434	234.798	0.8680202329721567	draw_card	2.434	columbia_card_task_fmri	17.0	0.8	89.0	-70.0	0.2	6.0	2.0	1.0	1.4906998525026012	2.434	2.0	stim	poldrack-single-stim	s572	False	0
235.554	1.5	234.803	n/a	-1.0	2.386	columbia_card_task_fmri	n/a	n/a	-1.0	n/a	n/a	n/a	n/a	n/a	n/a	n/a	n/a	ITI	poldrack-single-stim	s572	False	0
237.192	2.058	239.25	3.7680202329721553	draw_card	2.058	columbia_card_task_fmri	25.0	0.75	89.0	-65.0	0.25	8.0	1.0	2.0	5.659372621697699	2.058	n/a	stim	poldrack-single-stim	s572	False	1
239.253	1.965	241.218	0.5537345186864435	draw_card	1.965	columbia_card_task_fmri	25.0	0.7142857142857143	89.0	-65.0	0.2857142857142857	8.0	2.0	2.0	7.345229926353241	1.965	n/a	stim	poldrack-single-stim	s572	False	1
241.221	2.366	243.587	-3.731979767027841	draw_card	2.366	columbia_card_task_fmri	25.0	0.6666666666666667	89.0	-65.0	0.3333333333333333	8.0	3.0	2.0	9.112957492289029	2.366	n/a	stim	poldrack-single-stim	s572	False	1
243.589	3.623	247.212	-9.731979767027845	draw_card	3.623	columbia_card_task_fmri	25.0	0.6	89.0	-65.0	0.4	8.0	4.0	2.0	10.776651136267953	3.623	n/a	stim	poldrack-single-stim	s572	False	1
247.215	2.623	249.838	-18.731979767027845	end_round	2.623	columbia_card_task_fmri	25.0	0.5	71.0	-65.0	0.5	8.0	5.0	2.0	11.685467594885104	2.623	4.0	stim	poldrack-single-stim	s572	False	1
250.591	1.5	249.84	n/a	-1.0	2.454	columbia_card_task_fmri	n/a	n/a	-1.0	n/a	n/a	n/a	n/a	n/a	n/a	n/a	n/a	ITI	poldrack-single-stim	s572	False	0
252.298	0.726	253.024	3.7680202329721553	draw_card	0.726	columbia_card_task_fmri	30.0	0.75	89.0	-80.0	0.25	8.0	1.0	2.0	14.31587839084456	0.726	n/a	stim	poldrack-single-stim	s572	False	1
253.027	2.206	255.233	-0.1605511955992682	draw_card	2.206	columbia_card_task_fmri	30.0	0.7142857142857143	89.0	-80.0	0.2857142857142857	8.0	2.0	2.0	16.376715993553248	2.206	n/a	stim	poldrack-single-stim	s572	False	1
255.236	2.502	257.738	-5.3986464336945055	end_round	2.502	columbia_card_task_fmri	30.0	0.6666666666666667	71.0	-80.0	0.3333333333333333	8.0	3.0	2.0	18.53760454951545	2.502	2.0	stim	poldrack-single-stim	s572	False	1
258.496	1.5	257.745	n/a	-1.0	2.522	columbia_card_task_fmri	n/a	n/a	-1.0	n/a	n/a	n/a	n/a	n/a	n/a	n/a	n/a	ITI	poldrack-single-stim	s572	False	0
260.272	1.029	261.301	3.4680202329721563	draw_card	1.029	columbia_card_task_fmri	13.0	0.9	89.0	-95.0	0.1	10.0	1.0	1.0	-0.907590744796572	1.029	n/a	stim	poldrack-single-stim	s572	False	1
261.304	1.001	262.305	2.2680202329721557	draw_card	1.001	columbia_card_task_fmri	13.0	0.8888888888888888	89.0	-95.0	0.1111111111111111	10.0	2.0	1.0	0.632409336733815	1.001	2.0	stim	poldrack-single-stim	s572	False	0
263.062	1.5	262.311	n/a	-1.0	2.522	columbia_card_task_fmri	n/a	n/a	-1.0	n/a	n/a	n/a	n/a	n/a	n/a	n/a	n/a	ITI	poldrack-single-stim	s572	False	0
264.836	2.831	267.667	4.868020232972155	draw_card	2.831	columbia_card_task_fmri	14.0	0.9	89.0	-90.0	0.1	10.0	1.0	1.0	-2.106637540342426	2.831	n/a	stim	poldrack-single-stim	s572	False	1
267.67	2.866	270.536	3.712464677416598	draw_card	2.866	columbia_card_task_fmri	14.0	0.8888888888888888	89.0	-90.0	0.1111111111111111	10.0	2.0	1.0	-0.6237593657232949	2.866	n/a	stim	poldrack-single-stim	s572	False	1
270.54	3.238	273.778	2.2680202329721557	draw_card	3.238	columbia_card_task_fmri	14.0	0.875	89.0	-90.0	0.125	10.0	3.0	1.0	1.0857388019804546	3.238	n/a	stim	poldrack-single-stim	s572	False	1
273.78	1.713	275.493	0.4108773758292994	draw_card	1.713	columbia_card_task_fmri	14.0	0.8571428571428572	89.0	-90.0	0.1428571428571428	10.0	4.0	1.0	3.082108993660647	1.713	n/a	stim	poldrack-single-stim	s572	False	1
275.497	2.226	277.723	-2.065313100361177	end_round	2.226	columbia_card_task_fmri	14.0	0.8333333333333334	71.0	-90.0	0.1666666666666666	10.0	5.0	1.0	5.446854143346968	2.226	4.0	stim	poldrack-single-stim	s572	False	1
278.477	1.5	277.726	n/a	-1.0	2.59	columbia_card_task_fmri	n/a	n/a	-1.0	n/a	n/a	n/a	n/a	n/a	n/a	n/a	n/a	ITI	poldrack-single-stim	s572	False	0
280.32	1.335	281.655	0.0680202329721559	draw_card	1.335	columbia_card_task_fmri	16.0	0.8	89.0	-70.0	0.2	10.0	1.0	2.0	1.0909682061135015	1.335	n/a	stim	poldrack-single-stim	s572	False	1
281.658	0.61	282.268	-1.8430908781389557	draw_card	0.61	columbia_card_task_fmri	16.0	0.7777777777777778	89.0	-70.0	0.2222222222222222	10.0	2.0	2.0	2.443699314459778	0.61	2.0	stim	poldrack-single-stim	s572	False	0
283.023	1.5	282.272	n/a	-1.0	2.454	columbia_card_task_fmri	n/a	n/a	-1.0	n/a	n/a	n/a	n/a	n/a	n/a	n/a	n/a	ITI	poldrack-single-stim	s572	False	0
284.731	2.41	287.141	-0.6486464336945108	end_round	2.41	columbia_card_task_fmri	7.0	0.9166666666666666	71.0	-100.0	0.0833333333333333	12.0	1.0	1.0	-3.731984276036279	2.41	0.0	stim	poldrack-single-stim	s572	False	1
287.896	1.5	287.145	n/a	-1.0	2.318	columbia_card_task_fmri	n/a	n/a	-1.0	n/a	n/a	n/a	n/a	n/a	n/a	n/a	n/a	ITI	poldrack-single-stim	s572	False	0
289.468	0.83	290.298	-0.398646433694509	draw_card	0.83	columbia_card_task_fmri	14.0	0.8333333333333334	89.0	-80.0	0.1666666666666666	12.0	1.0	2.0	1.722278835685053	0.83	n/a	stim	poldrack-single-stim	s572	False	1
290.3	1.41	291.71	-1.8228888579369384	draw_card	1.41	columbia_card_task_fmri	14.0	0.8181818181818181	89.0	-80.0	0.1818181818181818	12.0	2.0	2.0	2.945066578719093	1.41	n/a	stim	poldrack-single-stim	s572	False	1
291.714	1.923	293.637	-3.531979767027844	draw_card	1.923	columbia_card_task_fmri	14.0	0.8	89.0	-80.0	0.2	12.0	3.0	2.0	4.2889811033718175	1.923	n/a	stim	poldrack-single-stim	s572	False	1
293.639	2.226	295.865	-5.620868655916734	draw_card	2.226	columbia_card_task_fmri	14.0	0.7777777777777778	89.0	-80.0	0.2222222222222222	12.0	4.0	2.0	5.7677049870038815	2.226	n/a	stim	poldrack-single-stim	s572	False	1
295.868	3.576	299.444	-8.231979767027845	end_round	3.576	columbia_card_task_fmri	14.0	0.75	71.0	-80.0	0.25	12.0	5.0	2.0	7.390546264563547	3.576	4.0	stim	poldrack-single-stim	s572	False	1
300.199	1.5	299.448	n/a	-1.0	2.25	columbia_card_task_fmri	n/a	n/a	-1.0	n/a	n/a	n/a	n/a	n/a	n/a	n/a	n/a	ITI	poldrack-single-stim	s572	False	0
301.702	0.522	302.224	1.2680202329721553	draw_card	0.522	columbia_card_task_fmri	15.0	0.8333333333333334	89.0	-75.0	0.1666666666666666	12.0	1.0	2.0	0.2325857529524739	0.522	n/a	stim	poldrack-single-stim	s572	False	1
302.227	1.276	303.503	-0.0956161306642098	draw_card	1.276	columbia_card_task_fmri	15.0	0.8181818181818181	89.0	-75.0	0.1818181818181818	12.0	2.0	2.0	1.4032727299029517	1.276	n/a	stim	poldrack-single-stim	s572	False	1
303.507	2.262	305.769	-1.7319797670278447	draw_card	2.262	columbia_card_task_fmri	15.0	0.8	89.0	-75.0	0.2	12.0	3.0	2.0	2.689930537999452	2.262	n/a	stim	poldrack-single-stim	s572	False	1
305.772	2.426	308.198	-3.731979767027843	draw_card	2.426	columbia_card_task_fmri	15.0	0.7777777777777778	89.0	-75.0	0.2222222222222222	12.0	4.0	2.0	4.105659698349015	2.426	n/a	stim	poldrack-single-stim	s572	False	1
308.201	3.05	311.251	-6.231979767027845	draw_card	3.05	columbia_card_task_fmri	15.0	0.75	89.0	-75.0	0.25	12.0	5.0	2.0	5.659372621697699	3.05	5.0	stim	poldrack-single-stim	s572	False	0
312.005	1.5	311.254	n/a	-1.0	2.658	columbia_card_task_fmri	n/a	n/a	-1.0	n/a	n/a	n/a	n/a	n/a	n/a	n/a	n/a	ITI	poldrack-single-stim	s572	False	0
313.917	1.342	315.259	0.2680202329721552	draw_card	1.342	columbia_card_task_fmri	15.0	0.8	89.0	-65.0	0.2	15.0	1.0	3.0	-1.3072809439666386	1.342	n/a	stim	poldrack-single-stim	s572	False	1
315.261	1.482	316.743	-0.8748369098849871	draw_card	1.482	columbia_card_task_fmri	15.0	0.7857142857142857	89.0	-65.0	0.2142857142857142	15.0	2.0	3.0	-0.4818401777830203	1.482	2.0	stim	poldrack-single-stim	s572	False	0
317.499	1.5	316.748	n/a	-1.0	2.454	columbia_card_task_fmri	n/a	n/a	-1.0	n/a	n/a	n/a	n/a	n/a	n/a	n/a	n/a	ITI	poldrack-single-stim	s572	False	0
319.206	1.034	320.24	-0.4819797670278447	draw_card	1.034	columbia_card_task_fmri	14.0	0.8125	89.0	-70.0	0.1875	16.0	1.0	3.0	-0.5216432309384729	1.034	1.0	stim	poldrack-single-stim	s572	False	0
320.997	1.5	320.246	n/a	-1.0	2.386	columbia_card_task_fmri	n/a	n/a	-1.0	n/a	n/a	n/a	n/a	n/a	n/a	n/a	n/a	ITI	poldrack-single-stim	s572	False	0
322.636	2.667	325.303	-0.5444797670278447	draw_card	2.667	columbia_card_task_fmri	11.0	0.6875	89.0	-30.0	0.3125	16.0	1.0	5.0	-14.28612891538895	2.667	n/a	stim	poldrack-single-stim	s572	False	1
325.307	0.785	326.092	-1.3986464336945108	end_round	0.785	columbia_card_task_fmri	11.0	0.6666666666666667	71.0	-30.0	0.3333333333333333	16.0	2.0	5.0	-13.963258103231308	0.785	1.0	stim	poldrack-single-stim	s572	False	1
326.847	1.5	326.096	n/a	-1.0	2.59	columbia_card_task_fmri	n/a	n/a	-1.0	n/a	n/a	n/a	n/a	n/a	n/a	n/a	n/a	ITI	poldrack-single-stim	s572	False	0
328.69	2.19	330.88	4.268020232972155	draw_card	2.19	columbia_card_task_fmri	15.0	0.8666666666666667	89.0	-75.0	0.1333333333333333	15.0	1.0	2.0	-2.712010810870911	2.19	n/a	stim	poldrack-single-stim	s572	False	1
330.883	2.485	333.368	3.4108773758292994	draw_card	2.485	columbia_card_task_fmri	15.0	0.8571428571428572	89.0	-75.0	0.1428571428571428	15.0	2.0	2.0	-1.8134377817369725	2.485	n/a	stim	poldrack-single-stim	s572	False	1
333.372	1.679	335.051	2.421866386818309	draw_card	1.679	columbia_card_task_fmri	15.0	0.8461538461538461	89.0	-75.0	0.1538461538461538	15.0	3.0	2.0	-0.8355366759332128	1.679	n/a	stim	poldrack-single-stim	s572	False	1
335.053	1.749	336.802	1.2680202329721553	draw_card	1.749	columbia_card_task_fmri	15.0	0.8333333333333334	89.0	-75.0	0.1666666666666666	15.0	4.0	2.0	0.2325857529524739	1.749	n/a	stim	poldrack-single-stim	s572	False	1
336.806	2.498	339.304	-0.0956161306642098	end_round	2.498	columbia_card_task_fmri	15.0	0.8181818181818181	71.0	-75.0	0.1818181818181818	15.0	5.0	2.0	1.4032727299029517	2.498	4.0	stim	poldrack-single-stim	s572	False	1
340.058	1.5	339.307	n/a	-1.0	2.318	columbia_card_task_fmri	n/a	n/a	-1.0	n/a	n/a	n/a	n/a	n/a	n/a	n/a	n/a	ITI	poldrack-single-stim	s572	False	0
341.629	0.735	342.364	6.0013535663054896	draw_card	0.735	columbia_card_task_fmri	17.0	0.8666666666666667	89.0	-75.0	0.1333333333333333	15.0	1.0	2.0	-2.032712073834105	0.735	n/a	stim	poldrack-single-stim	s572	False	1
342.367	1.395	343.762	5.125163090115015	draw_card	1.395	columbia_card_task_fmri	17.0	0.8571428571428572	89.0	-75.0	0.1428571428571428	15.0	2.0	2.0	-1.114137848209495	1.395	2.0	stim	poldrack-single-stim	s572	False	0
344.516	1.5	343.765	n/a	-1.0	2.59	columbia_card_task_fmri	n/a	n/a	-1.0	n/a	n/a	n/a	n/a	n/a	n/a	n/a	n/a	ITI	poldrack-single-stim	s572	False	0
346.36	4.239	350.599	1.5805202329721553	draw_card	4.239	columbia_card_task_fmri	2.0	0.9375	89.0	-25.0	0.0625	16.0	1.0	1.0	-26.674863138044223	4.239	n/a	stim	poldrack-single-stim	s572	False	1
350.603	1.72	352.323	1.4680202329721552	end_round	1.72	columbia_card_task_fmri	2.0	0.9333333333333332	71.0	-25.0	0.0666666666666666	16.0	2.0	1.0	-26.479082875258197	1.72	1.0	stim	poldrack-single-stim	s572	False	1
353.078	1.5	352.327	n/a	-1.0	2.386	columbia_card_task_fmri	n/a	n/a	-1.0	n/a	n/a	n/a	n/a	n/a	n/a	n/a	n/a	ITI	poldrack-single-stim	s572	False	0
354.717	0.989	355.706	3.7680202329721553	draw_card	0.989	columbia_card_task_fmri	9.0	0.9375	89.0	-95.0	0.0625	16.0	1.0	1.0	-8.126087880683851	0.989	n/a	stim	poldrack-single-stim	s572	False	1
355.71	1.377	357.087	3.3346868996388226	draw_card	1.377	columbia_card_task_fmri	9.0	0.9333333333333332	89.0	-95.0	0.0666666666666666	16.0	2.0	1.0	-7.359265125732552	1.377	n/a	stim	poldrack-single-stim	s572	False	1
357.089	1.702	358.791	2.8394488044007278	draw_card	1.702	columbia_card_task_fmri	9.0	0.9285714285714286	89.0	-95.0	0.0714285714285714	16.0	3.0	1.0	-6.518300265027488	1.702	n/a	stim	poldrack-single-stim	s572	False	1
358.795	1.403	360.198	2.2680202329721557	end_round	1.403	columbia_card_task_fmri	9.0	0.9230769230769232	71.0	-95.0	0.0769230769230769	16.0	4.0	1.0	-5.590586786636756	1.403	3.0	stim	poldrack-single-stim	s572	False	1
360.954	1.5	360.203	n/a	-1.0	2.318	columbia_card_task_fmri	n/a	n/a	-1.0	n/a	n/a	n/a	n/a	n/a	n/a	n/a	n/a	ITI	poldrack-single-stim	s572	False	0
362.526	1.07	363.596	5.330520232972155	draw_card	1.07	columbia_card_task_fmri	11.0	0.9375	89.0	-100.0	0.0625	16.0	1.0	1.0	-6.433667980875786	1.07	n/a	stim	poldrack-single-stim	s572	False	1
363.599	1.821	365.42	4.868020232972156	draw_card	1.821	columbia_card_task_fmri	11.0	0.9333333333333332	89.0	-100.0	0.0666666666666666	16.0	2.0	1.0	-5.615109366213272	1.821	n/a	stim	poldrack-single-stim	s572	False	1
365.422	1.843	367.265	4.339448804400728	draw_card	1.843	columbia_card_task_fmri	11.0	0.9285714285714286	89.0	-100.0	0.0714285714285714	16.0	3.0	1.0	-4.717414515648233	1.843	n/a	stim	poldrack-single-stim	s572	False	1
367.268	1.716	368.984	3.729558694510618	draw_card	1.716	columbia_card_task_fmri	11.0	0.9230769230769232	89.0	-100.0	0.0769230769230769	16.0	4.0	1.0	-3.7271280450772686	1.716	n/a	stim	poldrack-single-stim	s572	False	1
368.988	2.966	371.954	3.0180202329721557	draw_card	2.966	columbia_card_task_fmri	11.0	0.9166666666666666	89.0	-100.0	0.0833333333333333	16.0	5.0	1.0	-2.6274210049757265	2.966	n/a	stim	poldrack-single-stim	s572	False	1
371.957	2.544	374.501	2.177111142063064	draw_card	2.544	columbia_card_task_fmri	11.0	0.9090909090909092	89.0	-100.0	0.0909090909090909	16.0	6.0	1.0	-1.3969539828810331	2.544	n/a	stim	poldrack-single-stim	s572	False	1
374.505	2.911	377.416	1.1680202329721556	draw_card	2.911	columbia_card_task_fmri	11.0	0.9	89.0	-100.0	0.1	16.0	7.0	1.0	-0.0082606146553487	2.911	n/a	stim	poldrack-single-stim	s572	False	1
377.419	3.683	381.102	-0.0653131003611786	draw_card	3.683	columbia_card_task_fmri	11.0	0.8888888888888888	89.0	-100.0	0.1111111111111111	16.0	8.0	1.0	1.5745788610970308	3.683	n/a	stim	poldrack-single-stim	s572	False	1
381.106	2.651	383.757	-1.6069797670278447	end_round	2.651	columbia_card_task_fmri	11.0	0.875	71.0	-100.0	0.125	16.0	9.0	1.0	3.3992985817513315	2.651	8.0	stim	poldrack-single-stim	s572	False	1
384.512	1.5	383.761	n/a	-1.0	2.318	columbia_card_task_fmri	n/a	n/a	-1.0	n/a	n/a	n/a	n/a	n/a	n/a	n/a	n/a	ITI	poldrack-single-stim	s572	False	0
386.083	1.167	387.25	5.893020232972155	draw_card	1.167	columbia_card_task_fmri	16.0	0.875	89.0	-75.0	0.125	16.0	1.0	2.0	-3.2102718670882595	1.167	n/a	stim	poldrack-single-stim	s572	False	1
387.253	2.037	389.29	5.134686899638822	draw_card	2.037	columbia_card_task_fmri	16.0	0.8666666666666667	89.0	-75.0	0.1333333333333333	16.0	2.0	2.0	-2.372364573195945	2.037	n/a	stim	poldrack-single-stim	s572	False	1
389.293	2.221	391.514	4.268020232972157	draw_card	2.221	columbia_card_task_fmri	16.0	0.8571428571428572	89.0	-75.0	0.1428571428571428	16.0	3.0	2.0	-1.4637908568436728	2.221	3.0	stim	poldrack-single-stim	s572	False	0
392.273	1.5	391.522	n/a	-1.0	2.318	columbia_card_task_fmri	n/a	n/a	-1.0	n/a	n/a	n/a	n/a	n/a	n/a	n/a	n/a	ITI	poldrack-single-stim	s572	False	0
393.844	0.707	394.551	6.143020232972155	draw_card	0.707	columbia_card_task_fmri	17.0	0.875	89.0	-80.0	0.125	16.0	1.0	2.0	-1.2276086677604994	0.707	n/a	stim	poldrack-single-stim	s572	False	1
394.555	1.461	396.016	5.334686899638824	draw_card	1.461	columbia_card_task_fmri	17.0	0.8666666666666667	89.0	-80.0	0.1333333333333333	16.0	2.0	2.0	-0.3343624193327343	1.461	n/a	stim	poldrack-single-stim	s572	False	1
396.018	1.584	397.602	4.410877375829301	draw_card	1.584	columbia_card_task_fmri	17.0	0.8571428571428572	89.0	-80.0	0.1428571428571428	16.0	3.0	2.0	0.6342118752134667	1.584	n/a	stim	poldrack-single-stim	s572	False	1
397.606	1.786	399.392	3.344943309895232	draw_card	1.786	columbia_card_task_fmri	17.0	0.8461538461538461	89.0	-80.0	0.1538461538461538	16.0	4.0	2.0	1.6882870626335489	1.786	4.0	stim	poldrack-single-stim	s572	False	0
400.147	1.5	399.396	n/a	-1.0	2.386	columbia_card_task_fmri	n/a	n/a	-1.0	n/a	n/a	n/a	n/a	n/a	n/a	n/a	n/a	ITI	poldrack-single-stim	s572	False	0
412.794	2.528	415.322	0.4346868996388231	draw_card	2.528	columbia_card_task_fmri	13.0	0.8333333333333334	89.0	-70.0	0.1666666666666666	6.0	1.0	1.0	-2.3741411082576214	2.528	n/a	stim	poldrack-single-stim	s572	False	1
415.326	0.728	416.054	-2.3319797670278444	end_round	0.728	columbia_card_task_fmri	13.0	0.8	71.0	-70.0	0.2	6.0	2.0	1.0	-0.1081879761909476	0.728	1.0	stim	poldrack-single-stim	s572	False	1
416.811	1.5	416.06	n/a	-1.0	2.25	columbia_card_task_fmri	n/a	n/a	-1.0	n/a	n/a	n/a	n/a	n/a	n/a	n/a	n/a	ITI	poldrack-single-stim	s572	False	0
418.314	2.826	421.14	0.4346868996388231	draw_card	2.826	columbia_card_task_fmri	15.0	0.8333333333333334	89.0	-80.0	0.1666666666666666	6.0	1.0	1.0	2.09471549981042	2.826	n/a	stim	poldrack-single-stim	s572	False	1
421.143	2.41	423.553	-2.7319797670278447	draw_card	2.41	columbia_card_task_fmri	15.0	0.8	89.0	-80.0	0.2	6.0	2.0	1.0	4.688756226624051	2.41	n/a	stim	poldrack-single-stim	s572	False	1
423.556	2.875	426.431	-7.481979767027845	draw_card	2.875	columbia_card_task_fmri	15.0	0.75	89.0	-80.0	0.25	6.0	3.0	1.0	7.823351208521927	2.875	3.0	stim	poldrack-single-stim	s572	False	0
427.187	1.5	426.436	n/a	-1.0	2.386	columbia_card_task_fmri	n/a	n/a	-1.0	n/a	n/a	n/a	n/a	n/a	n/a	n/a	n/a	ITI	poldrack-single-stim	s572	False	0
428.827	0.966	429.793	2.101353566305489	draw_card	0.966	columbia_card_task_fmri	16.0	0.8333333333333334	89.0	-75.0	0.1666666666666666	6.0	1.0	1.0	0.6050006348220194	0.966	1.0	stim	poldrack-single-stim	s572	False	0
430.551	1.5	429.8	n/a	-1.0	2.59	columbia_card_task_fmri	n/a	n/a	-1.0	n/a	n/a	n/a	n/a	n/a	n/a	n/a	n/a	ITI	poldrack-single-stim	s572	False	0
432.395	2.312	434.707	3.2680202329721557	draw_card	2.312	columbia_card_task_fmri	21.0	0.75	89.0	-55.0	0.25	8.0	1.0	2.0	-0.399008720093235	2.312	n/a	stim	poldrack-single-stim	s572	False	1
434.711	1.628	436.339	0.5537345186864417	draw_card	1.628	columbia_card_task_fmri	21.0	0.7142857142857143	89.0	-55.0	0.2857142857142857	8.0	2.0	2.0	1.024313871916668	1.628	n/a	stim	poldrack-single-stim	s572	False	1
436.343	2.119	438.462	-3.065313100361175	draw_card	2.119	columbia_card_task_fmri	21.0	0.6666666666666667	89.0	-55.0	0.3333333333333333	8.0	3.0	2.0	2.5167820118066544	2.119	n/a	stim	poldrack-single-stim	s572	False	1
438.467	1.116	439.583	-8.131979767027845	end_round	1.116	columbia_card_task_fmri	21.0	0.6	71.0	-55.0	0.4	8.0	4.0	2.0	3.921436202713103	1.116	3.0	stim	poldrack-single-stim	s572	False	1
440.34	1.5	439.589	n/a	-1.0	2.658	columbia_card_task_fmri	n/a	n/a	-1.0	n/a	n/a	n/a	n/a	n/a	n/a	n/a	n/a	ITI	poldrack-single-stim	s572	False	0
442.25	0.866	443.116	4.518020232972155	draw_card	0.866	columbia_card_task_fmri	26.0	0.75	89.0	-65.0	0.25	8.0	1.0	2.0	6.092158808605312	0.866	n/a	stim	poldrack-single-stim	s572	False	1
443.119	1.641	444.76	1.2680202329721588	end_round	1.641	columbia_card_task_fmri	26.0	0.7142857142857143	71.0	-65.0	0.2857142857142857	8.0	2.0	2.0	7.796766746072805	1.641	1.0	stim	poldrack-single-stim	s572	False	1
445.518	1.5	444.767	n/a	-1.0	2.386	columbia_card_task_fmri	n/a	n/a	-1.0	n/a	n/a	n/a	n/a	n/a	n/a	n/a	n/a	ITI	poldrack-single-stim	s572	False	0
447.158	1.336	448.494	-0.3986464336945108	draw_card	1.336	columbia_card_task_fmri	15.0	0.7777777777777778	89.0	-60.0	0.2222222222222222	9.0	1.0	2.0	-2.12614320459706	1.336	n/a	stim	poldrack-single-stim	s572	False	1
448.497	1.997	450.494	-2.4819797670278447	draw_card	1.997	columbia_card_task_fmri	15.0	0.75	89.0	-60.0	0.25	9.0	2.0	2.0	-0.8316960672296716	1.997	n/a	stim	poldrack-single-stim	s572	False	1
450.497	2.063	452.56	-5.160551195599272	draw_card	2.063	columbia_card_task_fmri	15.0	0.7142857142857143	89.0	-60.0	0.2857142857142857	9.0	3.0	2.0	0.5728718062625404	2.063	n/a	stim	poldrack-single-stim	s572	False	1
452.564	0.765	453.329	-8.731979767027843	end_round	0.765	columbia_card_task_fmri	15.0	0.6666666666666667	71.0	-60.0	0.3333333333333333	9.0	4.0	2.0	2.045676401072022	0.765	3.0	stim	poldrack-single-stim	s572	False	1
454.084	1.5	453.333	n/a	-1.0	2.386	columbia_card_task_fmri	n/a	n/a	-1.0	n/a	n/a	n/a	n/a	n/a	n/a	n/a	n/a	ITI	poldrack-single-stim	s572	False	0
455.724	1.448	457.172	3.968020232972156	draw_card	1.448	columbia_card_task_fmri	13.0	0.9	89.0	-90.0	0.1	10.0	1.0	1.0	-2.406387685529939	1.448	n/a	stim	poldrack-single-stim	s572	False	1
457.175	1.455	458.63	2.82357578852771	draw_card	1.455	columbia_card_task_fmri	13.0	0.8888888888888888	89.0	-90.0	0.1111111111111111	10.0	2.0	1.0	-0.9377905098660833	1.455	2.0	stim	poldrack-single-stim	s572	False	0
459.388	1.5	458.637	n/a	-1.0	2.25	columbia_card_task_fmri	n/a	n/a	-1.0	n/a	n/a	n/a	n/a	n/a	n/a	n/a	n/a	ITI	poldrack-single-stim	s572	False	0
460.892	1.347	462.239	5.268020232972155	draw_card	1.347	columbia_card_task_fmri	15.0	0.9	89.0	-95.0	0.1	10.0	1.0	1.0	-0.3080413800159718	1.347	n/a	stim	poldrack-single-stim	s572	False	1
462.244	1.914	464.158	4.045798010749932	draw_card	1.914	columbia_card_task_fmri	15.0	0.8888888888888888	89.0	-95.0	0.1111111111111111	10.0	2.0	1.0	1.260518481032605	1.914	n/a	stim	poldrack-single-stim	s572	False	1
464.162	1.916	466.078	2.5180202329721557	draw_card	1.916	columbia_card_task_fmri	15.0	0.875	89.0	-95.0	0.125	10.0	3.0	1.0	3.0687785774566976	1.916	n/a	stim	poldrack-single-stim	s572	False	1
466.082	1.981	468.063	0.5537345186864417	draw_card	1.981	columbia_card_task_fmri	15.0	0.8571428571428572	89.0	-95.0	0.1428571428571428	10.0	4.0	1.0	5.180467714986058	1.981	n/a	stim	poldrack-single-stim	s572	False	1
468.067	3.767	471.834	-2.065313100361177	draw_card	3.767	columbia_card_task_fmri	15.0	0.8333333333333334	89.0	-95.0	0.1666666666666666	10.0	5.0	1.0	7.681791585774789	3.767	n/a	stim	poldrack-single-stim	s572	False	1
471.837	1.362	473.199	-5.731979767027845	end_round	1.362	columbia_card_task_fmri	15.0	0.8	71.0	-95.0	0.2	10.0	6.0	1.0	10.685873376840313	1.362	5.0	stim	poldrack-single-stim	s572	False	1
473.955	1.5	473.204	n/a	-1.0	2.318	columbia_card_task_fmri	n/a	n/a	-1.0	n/a	n/a	n/a	n/a	n/a	n/a	n/a	n/a	ITI	poldrack-single-stim	s572	False	0
475.528	1.277	476.805	1.068020232972156	draw_card	1.277	columbia_card_task_fmri	16.0	0.8	89.0	-65.0	0.2	10.0	1.0	2.0	-0.907590744796572	1.277	n/a	stim	poldrack-single-stim	s572	False	1
476.81	2.061	478.871	-0.731979767027843	draw_card	2.061	columbia_card_task_fmri	16.0	0.7777777777777778	89.0	-65.0	0.2222222222222222	10.0	2.0	2.0	0.3663873693352784	2.061	2.0	stim	poldrack-single-stim	s572	False	0
479.629	1.5	478.878	n/a	-1.0	2.25	columbia_card_task_fmri	n/a	n/a	-1.0	n/a	n/a	n/a	n/a	n/a	n/a	n/a	n/a	ITI	poldrack-single-stim	s572	False	0
481.132	0.661	481.793	-0.2319797670278447	draw_card	0.661	columbia_card_task_fmri	7.0	0.9166666666666666	89.0	-95.0	0.0833333333333333	12.0	1.0	1.0	-5.112580617764625	0.661	n/a	stim	poldrack-single-stim	s572	False	1
481.797	2.345	484.142	-1.004707039755118	end_round	2.345	columbia_card_task_fmri	7.0	0.9090909090909092	71.0	-95.0	0.0909090909090909	12.0	2.0	1.0	-3.982051961921812	2.345	1.0	stim	poldrack-single-stim	s572	False	1
484.899	1.5	484.148	n/a	-1.0	2.25	columbia_card_task_fmri	n/a	n/a	-1.0	n/a	n/a	n/a	n/a	n/a	n/a	n/a	n/a	ITI	poldrack-single-stim	s572	False	0
486.403	1.046	487.449	0.4346868996388231	draw_card	1.046	columbia_card_task_fmri	14.0	0.8333333333333334	89.0	-75.0	0.1666666666666666	12.0	1.0	2.0	-0.1398232226355631	1.046	n/a	stim	poldrack-single-stim	s572	False	1
487.453	1.591	489.044	-0.9137979488460282	draw_card	1.591	columbia_card_task_fmri	14.0	0.8181818181818181	89.0	-75.0	0.1818181818181818	12.0	2.0	2.0	1.0178380822781037	1.591	n/a	stim	poldrack-single-stim	s572	False	1
489.047	1.94	490.987	-2.531979767027844	draw_card	1.94	columbia_card_task_fmri	14.0	0.8	89.0	-75.0	0.2	12.0	3.0	2.0	2.290181219010215	1.94	n/a	stim	poldrack-single-stim	s572	False	1
490.991	2.167	493.158	-4.50975754480562	draw_card	2.167	columbia_card_task_fmri	14.0	0.7777777777777778	89.0	-75.0	0.2222222222222222	12.0	4.0	2.0	3.690161195894646	2.167	4.0	stim	poldrack-single-stim	s572	False	0
493.915	1.5	493.164	n/a	-1.0	2.386	columbia_card_task_fmri	n/a	n/a	-1.0	n/a	n/a	n/a	n/a	n/a	n/a	n/a	n/a	ITI	poldrack-single-stim	s572	False	0
495.554	0.796	496.35	2.101353566305489	draw_card	0.796	columbia_card_task_fmri	15.0	0.8333333333333334	89.0	-70.0	0.1666666666666666	12.0	1.0	2.0	-1.6293958994249849	0.796	1.0	stim	poldrack-single-stim	s572	False	0
497.109	1.5	496.358	n/a	-1.0	2.386	columbia_card_task_fmri	n/a	n/a	-1.0	n/a	n/a	n/a	n/a	n/a	n/a	n/a	n/a	ITI	poldrack-single-stim	s572	False	0
498.749	1.603	500.352	0.0680202329721559	draw_card	1.603	columbia_card_task_fmri	16.0	0.8	89.0	-70.0	0.2	15.0	1.0	3.0	1.0909682061135015	1.603	n/a	stim	poldrack-single-stim	s572	False	1
500.357	1.125	501.482	-1.1605511955992736	draw_card	1.125	columbia_card_task_fmri	16.0	0.7857142857142857	89.0	-70.0	0.2142857142857142	15.0	2.0	3.0	1.9784083596380668	1.125	n/a	stim	poldrack-single-stim	s572	False	1
501.486	2.197	503.683	-2.5781336131816914	draw_card	2.197	columbia_card_task_fmri	16.0	0.7692307692307692	89.0	-70.0	0.2307692307692307	15.0	3.0	3.0	2.923740285646595	2.197	n/a	stim	poldrack-single-stim	s572	False	1
503.686	2.425	506.111	-4.231979767027845	draw_card	2.425	columbia_card_task_fmri	16.0	0.75	89.0	-70.0	0.25	15.0	4.0	3.0	3.928280507725205	2.425	n/a	stim	poldrack-single-stim	s572	False	1
506.116	1.952	508.068	-6.186525221573298	end_round	1.952	columbia_card_task_fmri	16.0	0.7272727272727273	71.0	-70.0	0.2727272727272727	15.0	5.0	3.0	4.989702381617093	1.952	4.0	stim	poldrack-single-stim	s572	False	1
508.823	1.5	508.072	n/a	-1.0	2.726	columbia_card_task_fmri	n/a	n/a	-1.0	n/a	n/a	n/a	n/a	n/a	n/a	n/a	n/a	ITI	poldrack-single-stim	s572	False	0
510.803	1.019	511.822	0.4555202329721552	draw_card	1.019	columbia_card_task_fmri	14.0	0.8125	89.0	-65.0	0.1875	16.0	1.0	3.0	-2.4716550209816006	1.019	n/a	stim	poldrack-single-stim	s572	False	1
511.826	1.585	513.411	-0.5319797670278437	draw_card	1.585	columbia_card_task_fmri	14.0	0.8	89.0	-65.0	0.2	16.0	2.0	3.0	-1.7069633094183525	1.585	n/a	stim	poldrack-single-stim	s572	False	1
513.415	1.861	515.276	-1.6605511955992718	draw_card	1.861	columbia_card_task_fmri	14.0	0.7857142857142857	89.0	-65.0	0.2142857142857142	16.0	3.0	3.0	-0.8918564215458176	1.861	n/a	stim	poldrack-single-stim	s572	False	1
515.28	2.288	517.568	-2.9627489977970765	draw_card	2.288	columbia_card_task_fmri	14.0	0.7692307692307692	89.0	-65.0	0.2307692307692307	16.0	4.0	3.0	-0.0235710190872708	2.288	n/a	stim	poldrack-single-stim	s572	False	1
517.573	2.726	520.299	-4.481979767027845	draw_card	2.726	columbia_card_task_fmri	14.0	0.75	89.0	-65.0	0.25	16.0	5.0	3.0	0.8991026898550842	2.726	n/a	stim	poldrack-single-stim	s572	False	1
520.303	1.029	521.332	-6.27743431248239	end_round	1.029	columbia_card_task_fmri	14.0	0.7272727272727273	71.0	-65.0	0.2727272727272727	16.0	6.0	3.0	1.8740281822159448	1.029	5.0	stim	poldrack-single-stim	s572	False	1
522.088	1.5	521.337	n/a	-1.0	2.454	columbia_card_task_fmri	n/a	n/a	-1.0	n/a	n/a	n/a	n/a	n/a	n/a	n/a	n/a	ITI	poldrack-single-stim	s572	False	0
523.797	0.7	524.497	0.2055202329721552	draw_card	0.7	columbia_card_task_fmri	16.0	0.8125	89.0	-75.0	0.1875	16.0	1.0	3.0	2.208659149943415	0.7	n/a	stim	poldrack-single-stim	s572	False	1
524.501	1.416	525.917	-0.931979767027844	draw_card	1.416	columbia_card_task_fmri	16.0	0.8	89.0	-75.0	0.2	16.0	2.0	3.0	3.0896853613965902	1.416	n/a	stim	poldrack-single-stim	s572	False	1
525.922	1.358	527.28	-2.231979767027843	draw_card	1.358	columbia_card_task_fmri	16.0	0.7857142857142857	89.0	-75.0	0.2142857142857142	16.0	3.0	3.0	4.028787254641976	1.358	n/a	stim	poldrack-single-stim	s572	False	1
527.285	1.938	529.223	-3.731979767027848	draw_card	1.938	columbia_card_task_fmri	16.0	0.7692307692307692	89.0	-75.0	0.2307692307692307	16.0	4.0	3.0	5.029147476578089	1.938	n/a	stim	poldrack-single-stim	s572	False	1
529.226	1.937	531.163	-5.481979767027845	draw_card	1.937	columbia_card_task_fmri	16.0	0.75	89.0	-75.0	0.25	16.0	5.0	3.0	6.092158808605312	1.937	n/a	stim	poldrack-single-stim	s572	False	1
531.168	1.261	532.429	-7.550161585209661	end_round	1.261	columbia_card_task_fmri	16.0	0.7272727272727273	71.0	-75.0	0.2727272727272727	16.0	6.0	3.0	7.215358841988468	1.261	5.0	stim	poldrack-single-stim	s572	False	1
533.184	1.5	532.433	n/a	-1.0	2.318	columbia_card_task_fmri	n/a	n/a	-1.0	n/a	n/a	n/a	n/a	n/a	n/a	n/a	n/a	ITI	poldrack-single-stim	s572	False	0
534.756	0.594	535.35	4.468020232972156	draw_card	0.594	columbia_card_task_fmri	16.0	0.8666666666666667	89.0	-80.0	0.1333333333333333	15.0	1.0	2.0	-0.6740433669293964	0.594	n/a	stim	poldrack-single-stim	s572	False	1
535.354	1.499	536.853	3.5537345186864435	draw_card	1.499	columbia_card_task_fmri	16.0	0.8571428571428572	89.0	-80.0	0.1428571428571428	15.0	2.0	2.0	0.2845312270308255	1.499	n/a	stim	poldrack-single-stim	s572	False	1
536.857	1.716	538.573	2.498789463741385	draw_card	1.716	columbia_card_task_fmri	16.0	0.8461538461538461	89.0	-80.0	0.1538461538461538	15.0	3.0	2.0	1.3277248953192853	1.716	n/a	stim	poldrack-single-stim	s572	False	1
538.577	1.906	540.483	1.268020232972157	draw_card	1.906	columbia_card_task_fmri	16.0	0.8333333333333334	89.0	-80.0	0.1666666666666666	15.0	4.0	2.0	2.4671571869070306	1.906	n/a	stim	poldrack-single-stim	s572	False	1
540.487	2.206	542.693	-0.1865252215733015	draw_card	2.206	columbia_card_task_fmri	16.0	0.8181818181818181	89.0	-80.0	0.1818181818181818	15.0	5.0	2.0	3.715994243515617	2.206	n/a	stim	poldrack-single-stim	s572	False	1
542.698	1.811	544.509	-1.931979767027844	draw_card	1.811	columbia_card_task_fmri	16.0	0.8	89.0	-80.0	0.2	15.0	6.0	2.0	5.088536030940439	1.811	n/a	stim	poldrack-single-stim	s572	False	1
544.513	1.435	545.948	-4.065313100361179	end_round	1.435	columbia_card_task_fmri	16.0	0.7777777777777778	71.0	-80.0	0.2222222222222222	15.0	7.0	2.0	6.598756157541011	1.435	6.0	stim	poldrack-single-stim	s572	False	1
546.705	1.5	545.954	n/a	-1.0	2.318	columbia_card_task_fmri	n/a	n/a	-1.0	n/a	n/a	n/a	n/a	n/a	n/a	n/a	n/a	ITI	poldrack-single-stim	s572	False	0
548.276	0.852	549.128	5.334686899638824	draw_card	0.852	columbia_card_task_fmri	17.0	0.8666666666666667	89.0	-80.0	0.1333333333333333	15.0	1.0	2.0	-0.3343624193327343	0.852	n/a	stim	poldrack-single-stim	s572	False	1
549.132	1.591	550.723	4.410877375829301	draw_card	1.591	columbia_card_task_fmri	17.0	0.8571428571428572	89.0	-80.0	0.1428571428571428	15.0	2.0	2.0	0.6342118752134667	1.591	2.0	stim	poldrack-single-stim	s572	False	0
551.478	1.5	550.727	n/a	-1.0	2.59	columbia_card_task_fmri	n/a	n/a	-1.0	n/a	n/a	n/a	n/a	n/a	n/a	n/a	n/a	ITI	poldrack-single-stim	s572	False	0
553.322	2.788	556.11	1.2680202329721553	draw_card	2.788	columbia_card_task_fmri	1.0	0.9375	89.0	-15.0	0.0625	16.0	1.0	1.0	-29.257118038990537	2.788	n/a	stim	poldrack-single-stim	s572	False	1
556.115	1.456	557.571	1.2013535663054886	draw_card	1.456	columbia_card_task_fmri	1.0	0.9333333333333332	89.0	-15.0	0.0666666666666666	16.0	2.0	1.0	-29.14470215180135	1.456	n/a	stim	poldrack-single-stim	s572	False	1
557.575	1.412	558.987	1.1251630901150125	draw_card	1.412	columbia_card_task_fmri	1.0	0.9285714285714286	89.0	-15.0	0.0714285714285714	16.0	3.0	1.0	-29.021075648458	1.412	n/a	stim	poldrack-single-stim	s572	False	1
558.991	2.028	561.019	1.0372510022029244	draw_card	2.028	columbia_card_task_fmri	1.0	0.9230769230769232	89.0	-15.0	0.0769230769230769	16.0	4.0	1.0	-28.884317017098265	2.028	4.0	stim	poldrack-single-stim	s572	False	0
561.774	1.5	561.023	n/a	-1.0	2.726	columbia_card_task_fmri	n/a	n/a	-1.0	n/a	n/a	n/a	n/a	n/a	n/a	n/a	n/a	ITI	poldrack-single-stim	s572	False	0
563.755	1.257	565.012	4.393020232972155	draw_card	1.257	columbia_card_task_fmri	10.0	0.9375	89.0	-100.0	0.0625	16.0	1.0	1.0	-6.675457890043376	1.257	n/a	stim	poldrack-single-stim	s572	False	1
565.017	2.243	567.26	3.9346868996388222	draw_card	2.243	columbia_card_task_fmri	10.0	0.9333333333333332	89.0	-100.0	0.0666666666666666	16.0	2.0	1.0	-5.864289652780684	2.243	n/a	stim	poldrack-single-stim	s572	False	1
567.265	1.777	569.042	3.4108773758292994	draw_card	1.777	columbia_card_task_fmri	10.0	0.9285714285714286	89.0	-100.0	0.0714285714285714	16.0	3.0	1.0	-4.974698612374635	1.777	n/a	stim	poldrack-single-stim	s572	False	1
569.046	1.666	570.712	2.8064817714336945	draw_card	1.666	columbia_card_task_fmri	10.0	0.9230769230769232	89.0	-100.0	0.0769230769230769	16.0	4.0	1.0	-3.9933506508260095	1.666	n/a	stim	poldrack-single-stim	s572	False	1
570.717	2.361	573.078	2.101353566305489	draw_card	2.361	columbia_card_task_fmri	10.0	0.9166666666666666	89.0	-100.0	0.0833333333333333	16.0	5.0	1.0	-2.903568484399763	2.361	n/a	stim	poldrack-single-stim	s572	False	1
573.081	2.298	575.379	1.2680202329721535	end_round	2.298	columbia_card_task_fmri	10.0	0.9090909090909092	71.0	-100.0	0.0909090909090909	16.0	6.0	1.0	-1.6842050098169177	2.298	5.0	stim	poldrack-single-stim	s572	False	1
576.139	1.5	575.388	n/a	-1.0	2.522	columbia_card_task_fmri	n/a	n/a	-1.0	n/a	n/a	n/a	n/a	n/a	n/a	n/a	n/a	ITI	poldrack-single-stim	s572	False	0
577.915	0.558	578.473	5.018020232972155	draw_card	0.558	columbia_card_task_fmri	15.0	0.875	89.0	-75.0	0.125	16.0	1.0	2.0	-3.540694369339054	0.558	n/a	stim	poldrack-single-stim	s572	False	1
578.479	1.613	580.092	4.268020232972155	draw_card	1.613	columbia_card_task_fmri	15.0	0.8666666666666667	89.0	-75.0	0.1333333333333333	16.0	2.0	2.0	-2.712010810870911	1.613	n/a	stim	poldrack-single-stim	s572	False	1
580.096	2.109	582.205	3.4108773758292994	draw_card	2.109	columbia_card_task_fmri	15.0	0.8571428571428572	89.0	-75.0	0.1428571428571428	16.0	3.0	2.0	-1.8134377817369725	2.109	n/a	stim	poldrack-single-stim	s572	False	1
582.21	2.536	584.746	2.421866386818309	draw_card	2.536	columbia_card_task_fmri	15.0	0.8461538461538461	89.0	-75.0	0.1538461538461538	16.0	4.0	2.0	-0.8355366759332128	2.536	n/a	stim	poldrack-single-stim	s572	False	1
584.751	2.056	586.807	1.2680202329721553	draw_card	2.056	columbia_card_task_fmri	15.0	0.8333333333333334	89.0	-75.0	0.1666666666666666	16.0	5.0	2.0	0.2325857529524739	2.056	n/a	stim	poldrack-single-stim	s572	False	1
586.812	3.564	590.376	-0.0956161306642098	draw_card	3.564	columbia_card_task_fmri	15.0	0.8181818181818181	89.0	-75.0	0.1818181818181818	16.0	6.0	2.0	1.4032727299029517	3.564	6.0	stim	poldrack-single-stim	s572	False	0
591.131	1.5	590.38	n/a	-1.0	3.134	columbia_card_task_fmri	n/a	n/a	-1.0	n/a	n/a	n/a	n/a	n/a	n/a	n/a	n/a	ITI	poldrack-single-stim	s572	False	0
593.52	1.299	594.819	5.268020232972155	draw_card	1.299	columbia_card_task_fmri	16.0	0.875	89.0	-80.0	0.125	16.0	1.0	2.0	-1.5580668423297226	1.299	n/a	stim	poldrack-single-stim	s572	False	1
594.824	1.247	596.071	4.468020232972156	draw_card	1.247	columbia_card_task_fmri	16.0	0.8666666666666667	89.0	-80.0	0.1333333333333333	16.0	2.0	2.0	-0.6740433669293964	1.247	n/a	stim	poldrack-single-stim	s572	False	1
596.076	1.693	597.769	3.5537345186864435	draw_card	1.693	columbia_card_task_fmri	16.0	0.8571428571428572	89.0	-80.0	0.1428571428571428	16.0	3.0	2.0	0.2845312270308255	1.693	n/a	stim	poldrack-single-stim	s572	False	1
597.773	1.234	599.007	2.498789463741385	draw_card	1.234	columbia_card_task_fmri	16.0	0.8461538461538461	89.0	-80.0	0.1538461538461538	16.0	4.0	2.0	1.3277248953192853	1.234	4.0	stim	poldrack-single-stim	s572	False	0
599.764	1.5	599.013	n/a	-1.0	2.386	columbia_card_task_fmri	n/a	n/a	-1.0	n/a	n/a	n/a	n/a	n/a	n/a	n/a	n/a	ITI	poldrack-single-stim	s572	False	0
601.404	3.65	605.054	2.4555202329721557	end_round	3.65	columbia_card_task_fmri	4.0	0.6875	71.0	-5.0	0.3125	16.0	1.0	5.0	-28.97232314876184	3.65	0.0	stim	poldrack-single-stim	s572	False	1
605.812	1.5	605.061	n/a	-1.0	2.386	columbia_card_task_fmri	n/a	n/a	-1.0	n/a	n/a	n/a	n/a	n/a	n/a	n/a	n/a	ITI	poldrack-single-stim	s572	False	0
607.452	4.575	612.027	-0.398646433694509	draw_card	4.575	columbia_card_task_fmri	14.0	0.8333333333333334	89.0	-80.0	0.1666666666666666	6.0	1.0	1.0	1.722278835685053	4.575	1.0	stim	poldrack-single-stim	s572	False	0
612.787	1.5	612.036	n/a	-1.0	2.318	columbia_card_task_fmri	n/a	n/a	-1.0	n/a	n/a	n/a	n/a	n/a	n/a	n/a	n/a	ITI	poldrack-single-stim	s572	False	0
614.359	1.268	615.627	1.2680202329721553	draw_card	1.268	columbia_card_task_fmri	15.0	0.8333333333333334	89.0	-75.0	0.1666666666666666	6.0	1.0	1.0	0.2325857529524739	1.268	n/a	stim	poldrack-single-stim	s572	False	1
615.632	2.623	618.255	-1.7319797670278447	draw_card	2.623	columbia_card_task_fmri	15.0	0.8	89.0	-75.0	0.2	6.0	2.0	1.0	2.689930537999452	2.623	n/a	stim	poldrack-single-stim	s572	False	1
618.26	0.539	618.799	-6.231979767027845	end_round	0.539	columbia_card_task_fmri	15.0	0.75	71.0	-75.0	0.25	6.0	3.0	1.0	5.659372621697699	0.539	2.0	stim	poldrack-single-stim	s572	False	1
619.559	1.5	618.808	n/a	-1.0	2.318	columbia_card_task_fmri	n/a	n/a	-1.0	n/a	n/a	n/a	n/a	n/a	n/a	n/a	n/a	ITI	poldrack-single-stim	s572	False	0
621.132	1.58	622.712	2.934686899638823	draw_card	1.58	columbia_card_task_fmri	16.0	0.8333333333333334	89.0	-70.0	0.1666666666666666	6.0	1.0	1.0	-1.2570126544926552	1.58	n/a	stim	poldrack-single-stim	s572	False	1
622.717	1.835	624.552	0.0680202329721559	draw_card	1.835	columbia_card_task_fmri	16.0	0.8	89.0	-70.0	0.2	6.0	2.0	1.0	1.0909682061135015	1.835	2.0	stim	poldrack-single-stim	s572	False	0
625.308	1.5	624.557	n/a	-1.0	2.862	columbia_card_task_fmri	n/a	n/a	-1.0	n/a	n/a	n/a	n/a	n/a	n/a	n/a	n/a	ITI	poldrack-single-stim	s572	False	0
627.426	1.29	628.716	3.5180202329721557	draw_card	1.29	columbia_card_task_fmri	23.0	0.75	89.0	-60.0	0.25	8.0	1.0	2.0	2.6300220080757697	1.29	n/a	stim	poldrack-single-stim	s572	False	1
628.72	2.243	630.963	0.5537345186864435	end_round	2.243	columbia_card_task_fmri	23.0	0.7142857142857143	71.0	-60.0	0.2857142857142857	8.0	2.0	2.0	4.184618568234519	2.243	1.0	stim	poldrack-single-stim	s572	False	1
631.718	1.5	630.967	n/a	-1.0	2.726	columbia_card_task_fmri	n/a	n/a	-1.0	n/a	n/a	n/a	n/a	n/a	n/a	n/a	n/a	ITI	poldrack-single-stim	s572	False	0
633.698	1.074	634.772	4.018020232972155	draw_card	1.074	columbia_card_task_fmri	27.0	0.75	89.0	-70.0	0.25	8.0	1.0	2.0	8.688973938513165	1.074	n/a	stim	poldrack-single-stim	s572	False	1
634.776	2.115	636.891	0.55373451868644	draw_card	2.115	columbia_card_task_fmri	27.0	0.7142857142857143	89.0	-70.0	0.2857142857142857	8.0	2.0	2.0	10.506081618371098	2.115	2.0	stim	poldrack-single-stim	s572	False	0
637.65	1.5	636.899	n/a	-1.0	2.25	columbia_card_task_fmri	n/a	n/a	-1.0	n/a	n/a	n/a	n/a	n/a	n/a	n/a	n/a	ITI	poldrack-single-stim	s572	False	0
639.154	1.517	640.671	-0.731979767027843	draw_card	1.517	columbia_card_task_fmri	16.0	0.7777777777777778	89.0	-65.0	0.2222222222222222	9.0	1.0	2.0	0.3663873693352784	1.517	n/a	stim	poldrack-single-stim	s572	False	1
640.676	1.75	642.426	-2.9819797670278447	draw_card	1.75	columbia_card_task_fmri	16.0	0.75	89.0	-65.0	0.25	9.0	2.0	2.0	1.7645483936435795	1.75	2.0	stim	poldrack-single-stim	s572	False	0
643.182	1.5	642.431	n/a	-1.0	2.318	columbia_card_task_fmri	n/a	n/a	-1.0	n/a	n/a	n/a	n/a	n/a	n/a	n/a	n/a	ITI	poldrack-single-stim	s572	False	0
644.755	0.724	645.479	4.468020232972156	draw_card	0.724	columbia_card_task_fmri	13.0	0.9	89.0	-85.0	0.1	10.0	1.0	1.0	-3.90506202806278	0.724	n/a	stim	poldrack-single-stim	s572	False	1
645.484	1.943	647.427	3.379131344083266	draw_card	1.943	columbia_card_task_fmri	13.0	0.8888888888888888	89.0	-85.0	0.1111111111111111	10.0	2.0	1.0	-2.5078732986509777	1.943	n/a	stim	poldrack-single-stim	s572	False	1
647.432	1.135	648.567	2.0180202329721557	end_round	1.135	columbia_card_task_fmri	13.0	0.875	71.0	-85.0	0.125	10.0	3.0	1.0	-0.8971451781442283	1.135	2.0	stim	poldrack-single-stim	s572	False	1
649.326	1.5	648.575	n/a	-1.0	2.454	columbia_card_task_fmri	n/a	n/a	-1.0	n/a	n/a	n/a	n/a	n/a	n/a	n/a	n/a	ITI	poldrack-single-stim	s572	False	0
651.035	0.723	651.758	-0.5319797670278437	draw_card	0.723	columbia_card_task_fmri	14.0	0.8	89.0	-65.0	0.2	10.0	1.0	2.0	-1.7069633094183525	0.723	n/a	stim	poldrack-single-stim	s572	False	1
651.763	1.867	653.63	-2.2875353225833983	end_round	1.867	columbia_card_task_fmri	14.0	0.7777777777777778	71.0	-65.0	0.2222222222222222	10.0	2.0	2.0	-0.4644883162179241	1.867	1.0	stim	poldrack-single-stim	s572	False	1
654.385	1.5	653.634	n/a	-1.0	2.522	columbia_card_task_fmri	n/a	n/a	-1.0	n/a	n/a	n/a	n/a	n/a	n/a	n/a	n/a	ITI	poldrack-single-stim	s572	False	0
656.163	0.84	657.003	0.8680202329721567	draw_card	0.84	columbia_card_task_fmri	17.0	0.8	89.0	-70.0	0.2	10.0	1.0	2.0	1.4906998525026012	0.84	1.0	stim	poldrack-single-stim	s572	False	0
657.759	1.5	657.008	n/a	-1.0	2.318	columbia_card_task_fmri	n/a	n/a	-1.0	n/a	n/a	n/a	n/a	n/a	n/a	n/a	n/a	ITI	poldrack-single-stim	s572	False	0
659.331	0.599	659.93	-0.3986464336945108	draw_card	0.599	columbia_card_task_fmri	13.0	0.8333333333333334	89.0	-75.0	0.1666666666666666	12.0	1.0	2.0	-0.5122260908871183	0.599	n/a	stim	poldrack-single-stim	s572	False	1
659.934	1.903	661.837	-1.7319797670278465	draw_card	1.903	columbia_card_task_fmri	13.0	0.8181818181818181	89.0	-75.0	0.1818181818181818	12.0	2.0	2.0	0.632409336733808	1.903	n/a	stim	poldrack-single-stim	s572	False	1
661.841	2.338	664.179	-3.3319797670278444	draw_card	2.338	columbia_card_task_fmri	13.0	0.8	89.0	-75.0	0.2	12.0	3.0	2.0	1.8904375918400265	2.338	n/a	stim	poldrack-single-stim	s572	False	1
664.184	3.179	667.363	-5.287535322583398	draw_card	3.179	columbia_card_task_fmri	13.0	0.7777777777777778	89.0	-75.0	0.2222222222222222	12.0	4.0	2.0	3.274668170543144	3.179	n/a	stim	poldrack-single-stim	s572	False	1
667.368	0.776	668.144	-7.731979767027845	end_round	0.776	columbia_card_task_fmri	13.0	0.75	71.0	-75.0	0.25	12.0	5.0	2.0	4.793815679507794	0.776	4.0	stim	poldrack-single-stim	s572	False	1
668.905	1.5	668.154	n/a	-1.0	2.522	columbia_card_task_fmri	n/a	n/a	-1.0	n/a	n/a	n/a	n/a	n/a	n/a	n/a	n/a	ITI	poldrack-single-stim	s572	False	0
670.681	0.709	671.39	1.268020232972157	draw_card	0.709	columbia_card_task_fmri	14.0	0.8333333333333334	89.0	-70.0	0.1666666666666666	12.0	1.0	2.0	-2.001772134990976	0.709	n/a	stim	poldrack-single-stim	s572	False	1
671.395	1.666	673.061	-0.0047070397551198	draw_card	1.666	columbia_card_task_fmri	14.0	0.8181818181818181	89.0	-70.0	0.1818181818181818	12.0	2.0	2.0	-0.909242415042968	1.666	n/a	stim	poldrack-single-stim	s572	False	1
673.066	1.894	674.96	-1.5319797670278437	draw_card	1.894	columbia_card_task_fmri	14.0	0.8	89.0	-70.0	0.2	12.0	3.0	2.0	0.2915240613954637	1.894	n/a	stim	poldrack-single-stim	s572	False	1
674.965	3.283	678.248	-3.398646433694511	draw_card	3.283	columbia_card_task_fmri	14.0	0.7777777777777778	89.0	-70.0	0.2222222222222222	12.0	4.0	2.0	1.6127547474475108	3.283	4.0	stim	poldrack-single-stim	s572	False	0
679.007	1.5	678.256	n/a	-1.0	2.998	columbia_card_task_fmri	n/a	n/a	-1.0	n/a	n/a	n/a	n/a	n/a	n/a	n/a	n/a	ITI	poldrack-single-stim	s572	False	0
