duration	onset	block_duration	movement_onset	planning	condition	exp_stage	experiment_exp_id	key_press	problem_id	response_time	trial_id	trial_type	worker_id	junk
2.928	3.011	2.928	5.939	1	UA_with_intermediate	practice	ward_and_allport	71	0.0	2.928	to_hand	poldrack-single-stim	s572	False
0.1	5.941	0.486	6.427	0	UA_with_intermediate	practice	ward_and_allport	82	0.0	0.486	to_board	poldrack-single-stim	s572	False
0.1	6.429	0.589	7.018	0	UA_with_intermediate	practice	ward_and_allport	71	0.0	0.589	to_hand	poldrack-single-stim	s572	False
0.1	7.019	0.474	7.493	0	UA_with_intermediate	practice	ward_and_allport	89	0.0	0.474	to_board	poldrack-single-stim	s572	False
0.1	7.494	0.603	8.097	0	UA_with_intermediate	practice	ward_and_allport	82	0.0	0.603	to_hand	poldrack-single-stim	s572	False
0.1	8.099	0.337	8.436	0	UA_with_intermediate	practice	ward_and_allport	89	0.0	0.337	to_board	poldrack-single-stim	s572	False
1.0	8.44	2.5	8.439	0	UA_with_intermediate	practice	ward_and_allport	-1	0.0	n/a	feedback	poldrack-single-stim	s572	False
3.439	10.943	3.439	14.382	1	UA_with_intermediate	practice	ward_and_allport	89	1.0	3.439	to_hand	poldrack-single-stim	s572	False
0.1	14.383	0.324	14.707	0	UA_with_intermediate	practice	ward_and_allport	82	1.0	0.324	to_board	poldrack-single-stim	s572	False
0.1	14.709	0.457	15.166	0	UA_with_intermediate	practice	ward_and_allport	71	1.0	0.457	to_hand	poldrack-single-stim	s572	False
0.1	15.168	0.367	15.535	0	UA_with_intermediate	practice	ward_and_allport	89	1.0	0.367	to_board	poldrack-single-stim	s572	False
0.1	15.536	1.453	16.989	0	UA_with_intermediate	practice	ward_and_allport	82	1.0	1.453	to_hand	poldrack-single-stim	s572	False
0.1	16.99	0.295	17.285	0	UA_with_intermediate	practice	ward_and_allport	89	1.0	0.295	to_board	poldrack-single-stim	s572	False
1.0	17.289	2.1	17.288	0	UA_with_intermediate	practice	ward_and_allport	-1	1.0	n/a	feedback	poldrack-single-stim	s572	False
4.024	19.391	4.024	23.415	1	UA_without_intermediate	practice	ward_and_allport	82	2.0	4.024	to_hand	poldrack-single-stim	s572	False
0.1	23.415	0.355	23.77	0	UA_without_intermediate	practice	ward_and_allport	89	2.0	0.355	to_board	poldrack-single-stim	s572	False
0.1	23.772	0.454	24.226	0	UA_without_intermediate	practice	ward_and_allport	71	2.0	0.454	to_hand	poldrack-single-stim	s572	False
0.1	24.228	0.282	24.51	0	UA_without_intermediate	practice	ward_and_allport	89	2.0	0.282	to_board	poldrack-single-stim	s572	False
0.1	24.512	0.345	24.857	0	UA_without_intermediate	practice	ward_and_allport	71	2.0	0.345	to_hand	poldrack-single-stim	s572	False
0.1	24.858	0.351	25.209	0	UA_without_intermediate	practice	ward_and_allport	89	2.0	0.351	to_board	poldrack-single-stim	s572	False
1.0	25.216	2.2	25.215	0	UA_without_intermediate	practice	ward_and_allport	-1	2.0	n/a	feedback	poldrack-single-stim	s572	False
3.356	27.418	3.356	30.774	1	UA_without_intermediate	practice	ward_and_allport	71	3.0	3.356	to_hand	poldrack-single-stim	s572	False
0.1	30.774	0.321	31.095	0	UA_without_intermediate	practice	ward_and_allport	89	3.0	0.321	to_board	poldrack-single-stim	s572	False
0.1	31.098	1.072	32.17	0	UA_without_intermediate	practice	ward_and_allport	82	3.0	1.072	to_hand	poldrack-single-stim	s572	False
0.1	32.171	0.268	32.439	0	UA_without_intermediate	practice	ward_and_allport	89	3.0	0.268	to_board	poldrack-single-stim	s572	False
0.1	32.441	0.316	32.757	0	UA_without_intermediate	practice	ward_and_allport	71	3.0	0.316	to_hand	poldrack-single-stim	s572	False
0.1	32.758	0.256	33.014	0	UA_without_intermediate	practice	ward_and_allport	89	3.0	0.256	to_board	poldrack-single-stim	s572	False
1.0	33.021	2.0	33.02	0	UA_without_intermediate	practice	ward_and_allport	-1	3.0	n/a	feedback	poldrack-single-stim	s572	False
2.988	37.027	2.988	40.015	1	PA_without_intermediate	test	ward_and_allport	89	0.0	2.988	to_hand	poldrack-single-stim	s572	False
0.1	40.016	0.278	40.294	0	PA_without_intermediate	test	ward_and_allport	71	0.0	0.278	to_board	poldrack-single-stim	s572	False
0.1	40.295	0.999	41.294	0	PA_without_intermediate	test	ward_and_allport	89	0.0	0.999	to_hand	poldrack-single-stim	s572	False
0.1	41.296	0.694	41.99	0	PA_without_intermediate	test	ward_and_allport	71	0.0	0.694	to_board	poldrack-single-stim	s572	False
0.1	41.991	0.437	42.428	0	PA_without_intermediate	test	ward_and_allport	89	0.0	0.437	to_hand	poldrack-single-stim	s572	False
0.1	42.429	0.247	42.676	0	PA_without_intermediate	test	ward_and_allport	82	0.0	0.247	to_board	poldrack-single-stim	s572	False
1.0	42.68	3.088	42.679	0	PA_without_intermediate	test	ward_and_allport	-1	0.0	n/a	feedback	poldrack-single-stim	s572	False
10.755	45.77	10.755	56.525	1	PA_with_intermediate	test	ward_and_allport	82	1.0	10.755	to_hand	poldrack-single-stim	s572	False
0.1	56.527	0.374	56.901	0	PA_with_intermediate	test	ward_and_allport	71	1.0	0.374	to_board	poldrack-single-stim	s572	False
0.1	56.903	1.152	58.055	0	PA_with_intermediate	test	ward_and_allport	82	1.0	1.152	to_hand	poldrack-single-stim	s572	False
0.1	58.055	0.296	58.351	0	PA_with_intermediate	test	ward_and_allport	89	1.0	0.296	to_board	poldrack-single-stim	s572	False
0.1	58.354	0.482	58.836	0	PA_with_intermediate	test	ward_and_allport	71	1.0	0.482	to_hand	poldrack-single-stim	s572	False
0.1	58.838	0.279	59.117	0	PA_with_intermediate	test	ward_and_allport	82	1.0	0.279	to_board	poldrack-single-stim	s572	False
1.0	59.123	2.0	59.122	0	PA_with_intermediate	test	ward_and_allport	-1	1.0	n/a	feedback	poldrack-single-stim	s572	False
4.842	61.125	4.842	65.967	1	PA_without_intermediate	test	ward_and_allport	71	2.0	4.842	to_hand	poldrack-single-stim	s572	False
0.1	65.969	0.239	66.208	0	PA_without_intermediate	test	ward_and_allport	89	2.0	0.239	to_board	poldrack-single-stim	s572	False
0.1	66.21	0.362	66.572	0	PA_without_intermediate	test	ward_and_allport	71	2.0	0.362	to_hand	poldrack-single-stim	s572	False
0.1	66.574	0.319	66.893	0	PA_without_intermediate	test	ward_and_allport	82	2.0	0.319	to_board	poldrack-single-stim	s572	False
0.1	66.895	0.374	67.269	0	PA_without_intermediate	test	ward_and_allport	71	2.0	0.374	to_hand	poldrack-single-stim	s572	False
0.1	67.27	0.3	67.57	0	PA_without_intermediate	test	ward_and_allport	89	2.0	0.3	to_board	poldrack-single-stim	s572	False
1.0	67.577	2.0	67.576	0	PA_without_intermediate	test	ward_and_allport	-1	2.0	n/a	feedback	poldrack-single-stim	s572	False
3.542	69.579	3.542	73.121	1	PA_without_intermediate	test	ward_and_allport	82	3.0	3.542	to_hand	poldrack-single-stim	s572	False
0.1	73.121	0.268	73.389	0	PA_without_intermediate	test	ward_and_allport	71	3.0	0.268	to_board	poldrack-single-stim	s572	False
0.1	73.392	0.363	73.755	0	PA_without_intermediate	test	ward_and_allport	82	3.0	0.363	to_hand	poldrack-single-stim	s572	False
0.1	73.755	0.25	74.005	0	PA_without_intermediate	test	ward_and_allport	89	3.0	0.25	to_board	poldrack-single-stim	s572	False
0.1	74.007	0.595	74.602	0	PA_without_intermediate	test	ward_and_allport	82	3.0	0.595	to_hand	poldrack-single-stim	s572	False
0.1	74.604	0.233	74.837	0	PA_without_intermediate	test	ward_and_allport	71	3.0	0.233	to_board	poldrack-single-stim	s572	False
1.0	74.841	2.0	74.84	0	PA_without_intermediate	test	ward_and_allport	-1	3.0	n/a	feedback	poldrack-single-stim	s572	False
3.716	76.844	3.716	80.56	1	PA_with_intermediate	test	ward_and_allport	82	4.0	3.716	to_hand	poldrack-single-stim	s572	False
0.1	80.56	0.272	80.832	0	PA_with_intermediate	test	ward_and_allport	71	4.0	0.272	to_board	poldrack-single-stim	s572	False
0.1	80.835	0.636	81.471	0	PA_with_intermediate	test	ward_and_allport	82	4.0	0.636	to_hand	poldrack-single-stim	s572	False
0.1	81.471	0.422	81.893	0	PA_with_intermediate	test	ward_and_allport	89	4.0	0.422	to_board	poldrack-single-stim	s572	False
0.1	81.896	1.027	82.923	0	PA_with_intermediate	test	ward_and_allport	71	4.0	1.027	to_hand	poldrack-single-stim	s572	False
0.1	82.924	0.228	83.152	0	PA_with_intermediate	test	ward_and_allport	89	4.0	0.228	to_board	poldrack-single-stim	s572	False
1.0	83.156	2.544	83.155	0	PA_with_intermediate	test	ward_and_allport	-1	4.0	n/a	feedback	poldrack-single-stim	s572	False
2.583	85.703	2.583	88.286	1	PA_without_intermediate	test	ward_and_allport	71	5.0	2.583	to_hand	poldrack-single-stim	s572	False
0.1	88.287	0.281	88.568	0	PA_without_intermediate	test	ward_and_allport	89	5.0	0.281	to_board	poldrack-single-stim	s572	False
0.1	88.571	0.493	89.064	0	PA_without_intermediate	test	ward_and_allport	71	5.0	0.493	to_hand	poldrack-single-stim	s572	False
0.1	89.065	0.288	89.353	0	PA_without_intermediate	test	ward_and_allport	89	5.0	0.288	to_board	poldrack-single-stim	s572	False
0.1	89.356	0.644	90.0	0	PA_without_intermediate	test	ward_and_allport	71	5.0	0.644	to_hand	poldrack-single-stim	s572	False
0.1	90.002	0.256	90.258	0	PA_without_intermediate	test	ward_and_allport	82	5.0	0.256	to_board	poldrack-single-stim	s572	False
1.0	90.266	2.272	90.265	0	PA_without_intermediate	test	ward_and_allport	-1	5.0	n/a	feedback	poldrack-single-stim	s572	False
6.4	92.541	6.4	98.941	1	PA_with_intermediate	test	ward_and_allport	82	6.0	6.4	to_hand	poldrack-single-stim	s572	False
0.1	98.942	0.244	99.186	0	PA_with_intermediate	test	ward_and_allport	89	6.0	0.244	to_board	poldrack-single-stim	s572	False
0.1	99.188	0.78	99.968	0	PA_with_intermediate	test	ward_and_allport	82	6.0	0.78	to_hand	poldrack-single-stim	s572	False
0.1	99.969	0.26	100.229	0	PA_with_intermediate	test	ward_and_allport	71	6.0	0.26	to_board	poldrack-single-stim	s572	False
0.1	100.231	0.5	100.731	0	PA_with_intermediate	test	ward_and_allport	89	6.0	0.5	to_hand	poldrack-single-stim	s572	False
0.1	100.732	0.25	100.982	0	PA_with_intermediate	test	ward_and_allport	71	6.0	0.25	to_board	poldrack-single-stim	s572	False
1.0	100.986	4.04	100.985	0	PA_with_intermediate	test	ward_and_allport	-1	6.0	n/a	feedback	poldrack-single-stim	s572	False
2.795	105.028	2.795	107.823	1	PA_with_intermediate	test	ward_and_allport	71	7.0	2.795	to_hand	poldrack-single-stim	s572	False
0.1	107.825	0.228	108.053	0	PA_with_intermediate	test	ward_and_allport	89	7.0	0.228	to_board	poldrack-single-stim	s572	False
0.1	108.056	0.511	108.567	0	PA_with_intermediate	test	ward_and_allport	71	7.0	0.511	to_hand	poldrack-single-stim	s572	False
0.1	108.569	0.243	108.812	0	PA_with_intermediate	test	ward_and_allport	82	7.0	0.243	to_board	poldrack-single-stim	s572	False
0.1	108.814	0.607	109.421	0	PA_with_intermediate	test	ward_and_allport	89	7.0	0.607	to_hand	poldrack-single-stim	s572	False
0.1	109.422	0.228	109.65	0	PA_with_intermediate	test	ward_and_allport	82	7.0	0.228	to_board	poldrack-single-stim	s572	False
1.0	109.659	2.272	109.658	0	PA_with_intermediate	test	ward_and_allport	-1	7.0	n/a	feedback	poldrack-single-stim	s572	False
4.089	111.934	4.089	116.023	1	PA_with_intermediate	test	ward_and_allport	89	8.0	4.089	to_hand	poldrack-single-stim	s572	False
0.1	116.024	0.249	116.273	0	PA_with_intermediate	test	ward_and_allport	71	8.0	0.249	to_board	poldrack-single-stim	s572	False
0.1	116.276	0.755	117.031	0	PA_with_intermediate	test	ward_and_allport	89	8.0	0.755	to_hand	poldrack-single-stim	s572	False
0.1	117.032	0.219	117.251	0	PA_with_intermediate	test	ward_and_allport	82	8.0	0.219	to_board	poldrack-single-stim	s572	False
0.1	117.254	0.637	117.891	0	PA_with_intermediate	test	ward_and_allport	71	8.0	0.637	to_hand	poldrack-single-stim	s572	False
0.1	117.892	0.221	118.113	0	PA_with_intermediate	test	ward_and_allport	82	8.0	0.221	to_board	poldrack-single-stim	s572	False
1.0	118.12	2.136	118.119	0	PA_with_intermediate	test	ward_and_allport	-1	8.0	n/a	feedback	poldrack-single-stim	s572	False
4.458	120.26	4.458	124.718	1	PA_with_intermediate	test	ward_and_allport	82	9.0	4.458	to_hand	poldrack-single-stim	s572	False
0.1	124.719	0.269	124.988	0	PA_with_intermediate	test	ward_and_allport	89	9.0	0.269	to_board	poldrack-single-stim	s572	False
0.1	124.992	0.624	125.616	0	PA_with_intermediate	test	ward_and_allport	89	9.0	0.624	to_hand	poldrack-single-stim	s572	False
0.1	125.617	1.026	126.643	0	PA_with_intermediate	test	ward_and_allport	89	9.0	1.026	to_board	poldrack-single-stim	s572	False
0.1	126.646	0.933	127.579	0	PA_with_intermediate	test	ward_and_allport	82	9.0	0.933	to_hand	poldrack-single-stim	s572	False
0.1	127.581	0.462	128.043	0	PA_with_intermediate	test	ward_and_allport	71	9.0	0.462	to_board	poldrack-single-stim	s572	False
0.1	128.045	0.847	128.892	0	PA_with_intermediate	test	ward_and_allport	89	9.0	0.847	to_hand	poldrack-single-stim	s572	False
0.1	128.894	0.363	129.257	0	PA_with_intermediate	test	ward_and_allport	82	9.0	0.363	to_board	poldrack-single-stim	s572	False
1.0	129.261	2.0	129.26	0	PA_with_intermediate	test	ward_and_allport	-1	9.0	n/a	feedback	poldrack-single-stim	s572	False
4.132	131.265	4.132	135.397	1	PA_with_intermediate	test	ward_and_allport	71	10.0	4.132	to_hand	poldrack-single-stim	s572	False
0.1	135.398	0.267	135.665	0	PA_with_intermediate	test	ward_and_allport	89	10.0	0.267	to_board	poldrack-single-stim	s572	False
0.1	135.669	0.31	135.979	0	PA_with_intermediate	test	ward_and_allport	71	10.0	0.31	to_hand	poldrack-single-stim	s572	False
0.1	135.979	0.32	136.299	0	PA_with_intermediate	test	ward_and_allport	82	10.0	0.32	to_board	poldrack-single-stim	s572	False
0.1	136.303	0.35	136.653	0	PA_with_intermediate	test	ward_and_allport	89	10.0	0.35	to_hand	poldrack-single-stim	s572	False
0.1	136.655	0.295	136.95	0	PA_with_intermediate	test	ward_and_allport	82	10.0	0.295	to_board	poldrack-single-stim	s572	False
1.0	136.956	2.0	136.955	0	PA_with_intermediate	test	ward_and_allport	-1	10.0	n/a	feedback	poldrack-single-stim	s572	False
3.972	138.96	3.972	142.932	1	PA_without_intermediate	test	ward_and_allport	82	11.0	3.972	to_hand	poldrack-single-stim	s572	False
0.1	142.934	0.304	143.238	0	PA_without_intermediate	test	ward_and_allport	71	11.0	0.304	to_board	poldrack-single-stim	s572	False
0.1	143.242	0.913	144.155	0	PA_without_intermediate	test	ward_and_allport	82	11.0	0.913	to_hand	poldrack-single-stim	s572	False
0.1	144.155	0.238	144.393	0	PA_without_intermediate	test	ward_and_allport	71	11.0	0.238	to_board	poldrack-single-stim	s572	False
0.1	144.397	2.549	146.946	0	PA_without_intermediate	test	ward_and_allport	82	11.0	2.549	to_hand	poldrack-single-stim	s572	False
0.1	146.948	0.174	147.122	0	PA_without_intermediate	test	ward_and_allport	89	11.0	0.174	to_board	poldrack-single-stim	s572	False
1.0	147.129	2.408	147.128	0	PA_without_intermediate	test	ward_and_allport	-1	11.0	n/a	feedback	poldrack-single-stim	s572	False
3.965	149.541	3.965	153.506	1	PA_with_intermediate	test	ward_and_allport	71	12.0	3.965	to_hand	poldrack-single-stim	s572	False
0.1	153.507	0.317	153.824	0	PA_with_intermediate	test	ward_and_allport	82	12.0	0.317	to_board	poldrack-single-stim	s572	False
0.1	153.829	0.537	154.366	0	PA_with_intermediate	test	ward_and_allport	71	12.0	0.537	to_hand	poldrack-single-stim	s572	False
0.1	154.367	0.282	154.649	0	PA_with_intermediate	test	ward_and_allport	89	12.0	0.282	to_board	poldrack-single-stim	s572	False
0.1	154.654	0.358	155.012	0	PA_with_intermediate	test	ward_and_allport	82	12.0	0.358	to_hand	poldrack-single-stim	s572	False
0.1	155.013	0.238	155.251	0	PA_with_intermediate	test	ward_and_allport	89	12.0	0.238	to_board	poldrack-single-stim	s572	False
1.0	155.257	3.768	155.256	0	PA_with_intermediate	test	ward_and_allport	-1	12.0	n/a	feedback	poldrack-single-stim	s572	False
4.412	159.029	4.412	163.441	1	PA_with_intermediate	test	ward_and_allport	71	13.0	4.412	to_hand	poldrack-single-stim	s572	False
0.1	163.443	0.444	163.887	0	PA_with_intermediate	test	ward_and_allport	82	13.0	0.444	to_board	poldrack-single-stim	s572	False
0.1	163.892	0.403	164.295	0	PA_with_intermediate	test	ward_and_allport	71	13.0	0.403	to_hand	poldrack-single-stim	s572	False
0.1	164.296	0.26	164.556	0	PA_with_intermediate	test	ward_and_allport	89	13.0	0.26	to_board	poldrack-single-stim	s572	False
0.1	164.561	0.37	164.931	0	PA_with_intermediate	test	ward_and_allport	82	13.0	0.37	to_hand	poldrack-single-stim	s572	False
0.1	164.931	0.273	165.204	0	PA_with_intermediate	test	ward_and_allport	71	13.0	0.273	to_board	poldrack-single-stim	s572	False
1.0	165.21	2.68	165.209	0	PA_with_intermediate	test	ward_and_allport	-1	13.0	n/a	feedback	poldrack-single-stim	s572	False
5.278	167.893	5.278	173.171	1	PA_without_intermediate	test	ward_and_allport	82	14.0	5.278	to_hand	poldrack-single-stim	s572	False
0.1	173.173	0.252	173.425	0	PA_without_intermediate	test	ward_and_allport	89	14.0	0.252	to_board	poldrack-single-stim	s572	False
0.1	173.43	0.312	173.742	0	PA_without_intermediate	test	ward_and_allport	82	14.0	0.312	to_hand	poldrack-single-stim	s572	False
0.1	173.743	0.305	174.048	0	PA_without_intermediate	test	ward_and_allport	71	14.0	0.305	to_board	poldrack-single-stim	s572	False
0.1	174.051	0.447	174.498	0	PA_without_intermediate	test	ward_and_allport	82	14.0	0.447	to_hand	poldrack-single-stim	s572	False
0.1	174.5	0.256	174.756	0	PA_without_intermediate	test	ward_and_allport	89	14.0	0.256	to_board	poldrack-single-stim	s572	False
1.0	174.762	3.224	174.761	0	PA_without_intermediate	test	ward_and_allport	-1	14.0	n/a	feedback	poldrack-single-stim	s572	False
4.123	182.993	4.123	187.116	1	PA_without_intermediate	test	ward_and_allport	89	15.0	4.123	to_hand	poldrack-single-stim	s572	False
0.1	187.118	0.267	187.385	0	PA_without_intermediate	test	ward_and_allport	82	15.0	0.267	to_board	poldrack-single-stim	s572	False
0.1	187.389	0.377	187.766	0	PA_without_intermediate	test	ward_and_allport	89	15.0	0.377	to_hand	poldrack-single-stim	s572	False
0.1	187.766	0.28	188.046	0	PA_without_intermediate	test	ward_and_allport	82	15.0	0.28	to_board	poldrack-single-stim	s572	False
0.1	188.051	0.381	188.432	0	PA_without_intermediate	test	ward_and_allport	89	15.0	0.381	to_hand	poldrack-single-stim	s572	False
0.1	188.432	0.222	188.654	0	PA_without_intermediate	test	ward_and_allport	71	15.0	0.222	to_board	poldrack-single-stim	s572	False
1.0	188.659	3.36	188.658	0	PA_without_intermediate	test	ward_and_allport	-1	15.0	n/a	feedback	poldrack-single-stim	s572	False
3.193	192.023	3.193	195.216	1	PA_without_intermediate	test	ward_and_allport	82	16.0	3.193	to_hand	poldrack-single-stim	s572	False
0.1	195.217	0.216	195.433	0	PA_without_intermediate	test	ward_and_allport	89	16.0	0.216	to_board	poldrack-single-stim	s572	False
0.1	195.437	0.333	195.77	0	PA_without_intermediate	test	ward_and_allport	82	16.0	0.333	to_hand	poldrack-single-stim	s572	False
0.1	195.771	0.538	196.309	0	PA_without_intermediate	test	ward_and_allport	89	16.0	0.538	to_board	poldrack-single-stim	s572	False
0.1	196.313	0.606	196.919	0	PA_without_intermediate	test	ward_and_allport	82	16.0	0.606	to_hand	poldrack-single-stim	s572	False
0.1	196.92	0.226	197.146	0	PA_without_intermediate	test	ward_and_allport	71	16.0	0.226	to_board	poldrack-single-stim	s572	False
1.0	197.155	2.0	197.154	0	PA_without_intermediate	test	ward_and_allport	-1	16.0	n/a	feedback	poldrack-single-stim	s572	False
2.632	199.16	2.632	201.792	1	PA_without_intermediate	test	ward_and_allport	82	17.0	2.632	to_hand	poldrack-single-stim	s572	False
0.1	201.793	0.208	202.001	0	PA_without_intermediate	test	ward_and_allport	89	17.0	0.208	to_board	poldrack-single-stim	s572	False
0.1	202.006	0.324	202.33	0	PA_without_intermediate	test	ward_and_allport	82	17.0	0.324	to_hand	poldrack-single-stim	s572	False
0.1	202.331	0.333	202.664	0	PA_without_intermediate	test	ward_and_allport	89	17.0	0.333	to_board	poldrack-single-stim	s572	False
0.1	202.668	0.654	203.322	0	PA_without_intermediate	test	ward_and_allport	82	17.0	0.654	to_hand	poldrack-single-stim	s572	False
0.1	203.324	0.243	203.567	0	PA_without_intermediate	test	ward_and_allport	71	17.0	0.243	to_board	poldrack-single-stim	s572	False
1.0	203.574	2.408	203.573	0	PA_without_intermediate	test	ward_and_allport	-1	17.0	n/a	feedback	poldrack-single-stim	s572	False
3.576	205.987	3.576	209.563	1	PA_with_intermediate	test	ward_and_allport	82	18.0	3.576	to_hand	poldrack-single-stim	s572	False
0.1	209.564	0.26	209.824	0	PA_with_intermediate	test	ward_and_allport	71	18.0	0.26	to_board	poldrack-single-stim	s572	False
0.1	209.829	0.609	210.438	0	PA_with_intermediate	test	ward_and_allport	82	18.0	0.609	to_hand	poldrack-single-stim	s572	False
0.1	210.439	0.199	210.638	0	PA_with_intermediate	test	ward_and_allport	89	18.0	0.199	to_board	poldrack-single-stim	s572	False
0.1	210.643	0.698	211.341	0	PA_with_intermediate	test	ward_and_allport	71	18.0	0.698	to_hand	poldrack-single-stim	s572	False
0.1	211.343	0.209	211.552	0	PA_with_intermediate	test	ward_and_allport	82	18.0	0.209	to_board	poldrack-single-stim	s572	False
1.0	211.558	2.136	211.557	0	PA_with_intermediate	test	ward_and_allport	-1	18.0	n/a	feedback	poldrack-single-stim	s572	False
2.526	213.699	2.526	216.225	1	PA_without_intermediate	test	ward_and_allport	89	19.0	2.526	to_hand	poldrack-single-stim	s572	False
0.1	216.226	0.223	216.449	0	PA_without_intermediate	test	ward_and_allport	82	19.0	0.223	to_board	poldrack-single-stim	s572	False
0.1	216.453	0.942	217.395	0	PA_without_intermediate	test	ward_and_allport	89	19.0	0.942	to_hand	poldrack-single-stim	s572	False
0.1	217.397	0.311	217.708	0	PA_without_intermediate	test	ward_and_allport	71	19.0	0.311	to_board	poldrack-single-stim	s572	False
0.1	217.713	1.001	218.714	0	PA_without_intermediate	test	ward_and_allport	89	19.0	1.001	to_hand	poldrack-single-stim	s572	False
0.1	218.714	0.222	218.936	0	PA_without_intermediate	test	ward_and_allport	82	19.0	0.222	to_board	poldrack-single-stim	s572	False
1.0	218.945	5.128	218.944	0	PA_without_intermediate	test	ward_and_allport	-1	19.0	n/a	feedback	poldrack-single-stim	s572	False
3.397	224.077	3.397	227.474	1	PA_without_intermediate	test	ward_and_allport	71	20.0	3.397	to_hand	poldrack-single-stim	s572	False
0.1	227.476	0.231	227.707	0	PA_without_intermediate	test	ward_and_allport	89	20.0	0.231	to_board	poldrack-single-stim	s572	False
0.1	227.711	0.342	228.053	0	PA_without_intermediate	test	ward_and_allport	71	20.0	0.342	to_hand	poldrack-single-stim	s572	False
0.1	228.054	0.329	228.383	0	PA_without_intermediate	test	ward_and_allport	82	20.0	0.329	to_board	poldrack-single-stim	s572	False
0.1	228.389	0.409	228.798	0	PA_without_intermediate	test	ward_and_allport	71	20.0	0.409	to_hand	poldrack-single-stim	s572	False
0.1	228.799	0.38	229.179	0	PA_without_intermediate	test	ward_and_allport	89	20.0	0.38	to_board	poldrack-single-stim	s572	False
1.0	229.187	2.136	229.186	0	PA_without_intermediate	test	ward_and_allport	-1	20.0	n/a	feedback	poldrack-single-stim	s572	False
3.991	231.329	3.991	235.32	1	PA_without_intermediate	test	ward_and_allport	71	21.0	3.991	to_hand	poldrack-single-stim	s572	False
0.1	235.321	0.244	235.565	0	PA_without_intermediate	test	ward_and_allport	82	21.0	0.244	to_board	poldrack-single-stim	s572	False
0.1	235.569	0.436	236.005	0	PA_without_intermediate	test	ward_and_allport	71	21.0	0.436	to_hand	poldrack-single-stim	s572	False
0.1	236.007	0.292	236.299	0	PA_without_intermediate	test	ward_and_allport	82	21.0	0.292	to_board	poldrack-single-stim	s572	False
0.1	236.304	0.459	236.763	0	PA_without_intermediate	test	ward_and_allport	71	21.0	0.459	to_hand	poldrack-single-stim	s572	False
0.1	236.765	0.196	236.961	0	PA_without_intermediate	test	ward_and_allport	89	21.0	0.196	to_board	poldrack-single-stim	s572	False
1.0	236.97	5.264	236.969	0	PA_without_intermediate	test	ward_and_allport	-1	21.0	n/a	feedback	poldrack-single-stim	s572	False
3.626	242.238	3.626	245.864	1	PA_with_intermediate	test	ward_and_allport	89	22.0	3.626	to_hand	poldrack-single-stim	s572	False
0.1	245.865	0.26	246.125	0	PA_with_intermediate	test	ward_and_allport	82	22.0	0.26	to_board	poldrack-single-stim	s572	False
0.1	246.131	0.415	246.546	0	PA_with_intermediate	test	ward_and_allport	89	22.0	0.415	to_hand	poldrack-single-stim	s572	False
0.1	246.547	0.204	246.751	0	PA_with_intermediate	test	ward_and_allport	71	22.0	0.204	to_board	poldrack-single-stim	s572	False
0.1	246.757	0.284	247.041	0	PA_with_intermediate	test	ward_and_allport	82	22.0	0.284	to_hand	poldrack-single-stim	s572	False
0.1	247.043	0.243	247.286	0	PA_with_intermediate	test	ward_and_allport	71	22.0	0.243	to_board	poldrack-single-stim	s572	False
1.0	247.293	4.04	247.292	0	PA_with_intermediate	test	ward_and_allport	-1	22.0	n/a	feedback	poldrack-single-stim	s572	False
3.268	251.337	3.268	254.605	1	PA_with_intermediate	test	ward_and_allport	89	23.0	3.268	to_hand	poldrack-single-stim	s572	False
0.1	254.606	0.18	254.786	0	PA_with_intermediate	test	ward_and_allport	71	23.0	0.18	to_board	poldrack-single-stim	s572	False
0.1	254.793	0.348	255.141	0	PA_with_intermediate	test	ward_and_allport	89	23.0	0.348	to_hand	poldrack-single-stim	s572	False
0.1	255.141	0.343	255.484	0	PA_with_intermediate	test	ward_and_allport	82	23.0	0.343	to_board	poldrack-single-stim	s572	False
0.1	255.49	0.372	255.862	0	PA_with_intermediate	test	ward_and_allport	71	23.0	0.372	to_hand	poldrack-single-stim	s572	False
0.1	255.863	0.188	256.051	0	PA_with_intermediate	test	ward_and_allport	89	23.0	0.188	to_board	poldrack-single-stim	s572	False
1.0	256.061	2.136	256.06	0	PA_with_intermediate	test	ward_and_allport	-1	23.0	n/a	feedback	poldrack-single-stim	s572	False
3.185	258.204	3.185	261.389	1	PA_with_intermediate	test	ward_and_allport	82	24.0	3.185	to_hand	poldrack-single-stim	s572	False
0.1	261.39	0.232	261.622	0	PA_with_intermediate	test	ward_and_allport	89	24.0	0.232	to_board	poldrack-single-stim	s572	False
0.1	261.629	0.328	261.957	0	PA_with_intermediate	test	ward_and_allport	82	24.0	0.328	to_hand	poldrack-single-stim	s572	False
0.1	261.958	0.223	262.181	0	PA_with_intermediate	test	ward_and_allport	71	24.0	0.223	to_board	poldrack-single-stim	s572	False
0.1	262.187	0.349	262.536	0	PA_with_intermediate	test	ward_and_allport	89	24.0	0.349	to_hand	poldrack-single-stim	s572	False
0.1	262.537	0.201	262.738	0	PA_with_intermediate	test	ward_and_allport	82	24.0	0.201	to_board	poldrack-single-stim	s572	False
1.0	262.749	2.408	262.748	0	PA_with_intermediate	test	ward_and_allport	-1	24.0	n/a	feedback	poldrack-single-stim	s572	False
7.191	265.164	7.191	272.355	1	PA_without_intermediate	test	ward_and_allport	71	25.0	7.191	to_hand	poldrack-single-stim	s572	False
0.1	272.355	0.258	272.613	0	PA_without_intermediate	test	ward_and_allport	82	25.0	0.258	to_board	poldrack-single-stim	s572	False
0.1	272.619	0.507	273.126	0	PA_without_intermediate	test	ward_and_allport	71	25.0	0.507	to_hand	poldrack-single-stim	s572	False
0.1	273.128	0.272	273.4	0	PA_without_intermediate	test	ward_and_allport	89	25.0	0.272	to_board	poldrack-single-stim	s572	False
0.1	273.406	1.383	274.789	0	PA_without_intermediate	test	ward_and_allport	82	25.0	1.383	to_hand	poldrack-single-stim	s572	False
0.1	274.79	0.219	275.009	0	PA_without_intermediate	test	ward_and_allport	89	25.0	0.219	to_board	poldrack-single-stim	s572	False
0.1	275.015	0.401	275.416	0	PA_without_intermediate	test	ward_and_allport	71	25.0	0.401	to_hand	poldrack-single-stim	s572	False
0.1	275.417	0.244	275.661	0	PA_without_intermediate	test	ward_and_allport	82	25.0	0.244	to_board	poldrack-single-stim	s572	False
0.1	275.667	0.713	276.38	0	PA_without_intermediate	test	ward_and_allport	89	25.0	0.713	to_hand	poldrack-single-stim	s572	False
0.1	276.381	0.23	276.611	0	PA_without_intermediate	test	ward_and_allport	82	25.0	0.23	to_board	poldrack-single-stim	s572	False
0.1	276.617	1.07	277.687	0	PA_without_intermediate	test	ward_and_allport	82	25.0	1.07	to_hand	poldrack-single-stim	s572	False
0.1	277.687	0.27	277.957	0	PA_without_intermediate	test	ward_and_allport	89	25.0	0.27	to_board	poldrack-single-stim	s572	False
0.1	277.963	1.031	278.994	0	PA_without_intermediate	test	ward_and_allport	82	25.0	1.031	to_hand	poldrack-single-stim	s572	False
0.1	278.994	0.167	279.161	0	PA_without_intermediate	test	ward_and_allport	71	25.0	0.167	to_board	poldrack-single-stim	s572	False
0.1	279.166	0.89	280.056	0	PA_without_intermediate	test	ward_and_allport	89	25.0	0.89	to_hand	poldrack-single-stim	s572	False
0.1	280.057	0.299	280.356	0	PA_without_intermediate	test	ward_and_allport	82	25.0	0.299	to_board	poldrack-single-stim	s572	False
0.1	280.361	0.331	280.692	0	PA_without_intermediate	test	ward_and_allport	71	25.0	0.331	to_hand	poldrack-single-stim	s572	False
0.1	280.693	0.207	280.9	0	PA_without_intermediate	test	ward_and_allport	82	25.0	0.207	to_board	poldrack-single-stim	s572	False
1.0	280.907	2.68	280.906	0	PA_without_intermediate	test	ward_and_allport	-1	25.0	n/a	feedback	poldrack-single-stim	s572	False
4.444	283.592	4.444	288.036	1	PA_with_intermediate	test	ward_and_allport	89	26.0	4.444	to_hand	poldrack-single-stim	s572	False
0.1	288.037	0.205	288.242	0	PA_with_intermediate	test	ward_and_allport	82	26.0	0.205	to_board	poldrack-single-stim	s572	False
0.1	288.248	0.331	288.579	0	PA_with_intermediate	test	ward_and_allport	89	26.0	0.331	to_hand	poldrack-single-stim	s572	False
0.1	288.58	0.227	288.807	0	PA_with_intermediate	test	ward_and_allport	71	26.0	0.227	to_board	poldrack-single-stim	s572	False
0.1	288.814	0.343	289.157	0	PA_with_intermediate	test	ward_and_allport	82	26.0	0.343	to_hand	poldrack-single-stim	s572	False
0.1	289.159	0.255	289.414	0	PA_with_intermediate	test	ward_and_allport	71	26.0	0.255	to_board	poldrack-single-stim	s572	False
1.0	289.425	4.72	289.424	0	PA_with_intermediate	test	ward_and_allport	-1	26.0	n/a	feedback	poldrack-single-stim	s572	False
3.634	294.152	3.634	297.786	1	PA_without_intermediate	test	ward_and_allport	71	27.0	3.634	to_hand	poldrack-single-stim	s572	False
0.1	297.786	0.392	298.178	0	PA_without_intermediate	test	ward_and_allport	82	27.0	0.392	to_board	poldrack-single-stim	s572	False
0.1	298.185	0.363	298.548	0	PA_without_intermediate	test	ward_and_allport	71	27.0	0.363	to_hand	poldrack-single-stim	s572	False
0.1	298.549	0.255	298.804	0	PA_without_intermediate	test	ward_and_allport	82	27.0	0.255	to_board	poldrack-single-stim	s572	False
0.1	298.811	0.322	299.133	0	PA_without_intermediate	test	ward_and_allport	71	27.0	0.322	to_hand	poldrack-single-stim	s572	False
0.1	299.133	0.197	299.33	0	PA_without_intermediate	test	ward_and_allport	89	27.0	0.197	to_board	poldrack-single-stim	s572	False
1.0	299.337	3.224	299.336	0	PA_without_intermediate	test	ward_and_allport	-1	27.0	n/a	feedback	poldrack-single-stim	s572	False
4.078	302.568	4.078	306.646	1	PA_without_intermediate	test	ward_and_allport	71	28.0	4.078	to_hand	poldrack-single-stim	s572	False
0.1	306.647	0.199	306.846	0	PA_without_intermediate	test	ward_and_allport	82	28.0	0.199	to_board	poldrack-single-stim	s572	False
0.1	306.853	0.255	307.108	0	PA_without_intermediate	test	ward_and_allport	71	28.0	0.255	to_hand	poldrack-single-stim	s572	False
0.1	307.109	0.275	307.384	0	PA_without_intermediate	test	ward_and_allport	89	28.0	0.275	to_board	poldrack-single-stim	s572	False
0.1	307.391	0.397	307.788	0	PA_without_intermediate	test	ward_and_allport	71	28.0	0.397	to_hand	poldrack-single-stim	s572	False
0.1	307.789	0.219	308.008	0	PA_without_intermediate	test	ward_and_allport	82	28.0	0.219	to_board	poldrack-single-stim	s572	False
1.0	308.017	2.272	308.016	0	PA_without_intermediate	test	ward_and_allport	-1	28.0	n/a	feedback	poldrack-single-stim	s572	False
3.89	310.296	3.89	314.186	1	PA_with_intermediate	test	ward_and_allport	89	29.0	3.89	to_hand	poldrack-single-stim	s572	False
0.1	314.188	0.193	314.381	0	PA_with_intermediate	test	ward_and_allport	82	29.0	0.193	to_board	poldrack-single-stim	s572	False
0.1	314.387	0.475	314.862	0	PA_with_intermediate	test	ward_and_allport	89	29.0	0.475	to_hand	poldrack-single-stim	s572	False
0.1	314.864	0.195	315.059	0	PA_with_intermediate	test	ward_and_allport	71	29.0	0.195	to_board	poldrack-single-stim	s572	False
0.1	315.067	0.625	315.692	0	PA_with_intermediate	test	ward_and_allport	82	29.0	0.625	to_hand	poldrack-single-stim	s572	False
0.1	315.693	0.165	315.858	0	PA_with_intermediate	test	ward_and_allport	89	29.0	0.165	to_board	poldrack-single-stim	s572	False
1.0	315.869	3.632	315.868	0	PA_with_intermediate	test	ward_and_allport	-1	29.0	n/a	feedback	poldrack-single-stim	s572	False
3.436	324.512	3.436	327.948	1	PA_without_intermediate	test	ward_and_allport	89	30.0	3.436	to_hand	poldrack-single-stim	s572	False
0.1	327.949	0.224	328.173	0	PA_without_intermediate	test	ward_and_allport	82	30.0	0.224	to_board	poldrack-single-stim	s572	False
0.1	328.182	0.38	328.562	0	PA_without_intermediate	test	ward_and_allport	89	30.0	0.38	to_hand	poldrack-single-stim	s572	False
0.1	328.562	0.235	328.797	0	PA_without_intermediate	test	ward_and_allport	82	30.0	0.235	to_board	poldrack-single-stim	s572	False
0.1	328.805	0.371	329.176	0	PA_without_intermediate	test	ward_and_allport	89	30.0	0.371	to_hand	poldrack-single-stim	s572	False
0.1	329.177	0.19	329.367	0	PA_without_intermediate	test	ward_and_allport	71	30.0	0.19	to_board	poldrack-single-stim	s572	False
1.0	329.381	2.408	329.38	0	PA_without_intermediate	test	ward_and_allport	-1	30.0	n/a	feedback	poldrack-single-stim	s572	False
2.755	331.797	2.755	334.552	1	PA_without_intermediate	test	ward_and_allport	89	31.0	2.755	to_hand	poldrack-single-stim	s572	False
0.1	334.552	0.232	334.784	0	PA_without_intermediate	test	ward_and_allport	71	31.0	0.232	to_board	poldrack-single-stim	s572	False
0.1	334.79	0.493	335.283	0	PA_without_intermediate	test	ward_and_allport	89	31.0	0.493	to_hand	poldrack-single-stim	s572	False
0.1	335.284	0.409	335.693	0	PA_without_intermediate	test	ward_and_allport	82	31.0	0.409	to_board	poldrack-single-stim	s572	False
0.1	335.7	0.325	336.025	0	PA_without_intermediate	test	ward_and_allport	89	31.0	0.325	to_hand	poldrack-single-stim	s572	False
0.1	336.026	0.171	336.197	0	PA_without_intermediate	test	ward_and_allport	71	31.0	0.171	to_board	poldrack-single-stim	s572	False
1.0	336.21	2.0	336.209	0	PA_without_intermediate	test	ward_and_allport	-1	31.0	n/a	feedback	poldrack-single-stim	s572	False
3.811	338.216	3.811	342.027	1	PA_with_intermediate	test	ward_and_allport	89	32.0	3.811	to_hand	poldrack-single-stim	s572	False
0.1	342.029	0.227	342.256	0	PA_with_intermediate	test	ward_and_allport	82	32.0	0.227	to_board	poldrack-single-stim	s572	False
0.1	342.261	0.282	342.543	0	PA_with_intermediate	test	ward_and_allport	89	32.0	0.282	to_hand	poldrack-single-stim	s572	False
0.1	342.544	0.275	342.819	0	PA_with_intermediate	test	ward_and_allport	71	32.0	0.275	to_board	poldrack-single-stim	s572	False
0.1	342.826	0.279	343.105	0	PA_with_intermediate	test	ward_and_allport	82	32.0	0.279	to_hand	poldrack-single-stim	s572	False
0.1	343.106	0.198	343.304	0	PA_with_intermediate	test	ward_and_allport	89	32.0	0.198	to_board	poldrack-single-stim	s572	False
1.0	343.315	2.0	343.314	0	PA_with_intermediate	test	ward_and_allport	-1	32.0	n/a	feedback	poldrack-single-stim	s572	False
3.979	345.324	3.979	349.303	1	PA_with_intermediate	test	ward_and_allport	89	33.0	3.979	to_hand	poldrack-single-stim	s572	False
0.1	349.304	0.206	349.51	0	PA_with_intermediate	test	ward_and_allport	71	33.0	0.206	to_board	poldrack-single-stim	s572	False
0.1	349.518	0.392	349.91	0	PA_with_intermediate	test	ward_and_allport	89	33.0	0.392	to_hand	poldrack-single-stim	s572	False
0.1	349.911	0.202	350.113	0	PA_with_intermediate	test	ward_and_allport	82	33.0	0.202	to_board	poldrack-single-stim	s572	False
0.1	350.123	0.457	350.58	0	PA_with_intermediate	test	ward_and_allport	71	33.0	0.457	to_hand	poldrack-single-stim	s572	False
0.1	350.582	0.177	350.759	0	PA_with_intermediate	test	ward_and_allport	89	33.0	0.177	to_board	poldrack-single-stim	s572	False
1.0	350.771	2.0	350.77	0	PA_with_intermediate	test	ward_and_allport	-1	33.0	n/a	feedback	poldrack-single-stim	s572	False
3.926	352.779	3.926	356.705	1	PA_with_intermediate	test	ward_and_allport	71	34.0	3.926	to_hand	poldrack-single-stim	s572	False
0.1	356.706	0.19	356.896	0	PA_with_intermediate	test	ward_and_allport	89	34.0	0.19	to_board	poldrack-single-stim	s572	False
0.1	356.902	0.284	357.186	0	PA_with_intermediate	test	ward_and_allport	71	34.0	0.284	to_hand	poldrack-single-stim	s572	False
0.1	357.187	0.252	357.439	0	PA_with_intermediate	test	ward_and_allport	82	34.0	0.252	to_board	poldrack-single-stim	s572	False
0.1	357.446	0.478	357.924	0	PA_with_intermediate	test	ward_and_allport	89	34.0	0.478	to_hand	poldrack-single-stim	s572	False
0.1	357.926	0.201	358.127	0	PA_with_intermediate	test	ward_and_allport	71	34.0	0.201	to_board	poldrack-single-stim	s572	False
1.0	358.139	2.408	358.138	0	PA_with_intermediate	test	ward_and_allport	-1	34.0	n/a	feedback	poldrack-single-stim	s572	False
4.937	360.556	4.937	365.493	1	PA_without_intermediate	test	ward_and_allport	82	35.0	4.937	to_hand	poldrack-single-stim	s572	False
0.1	365.495	0.264	365.759	0	PA_without_intermediate	test	ward_and_allport	71	35.0	0.264	to_board	poldrack-single-stim	s572	False
0.1	365.767	0.456	366.223	0	PA_without_intermediate	test	ward_and_allport	82	35.0	0.456	to_hand	poldrack-single-stim	s572	False
0.1	366.225	0.227	366.452	0	PA_without_intermediate	test	ward_and_allport	71	35.0	0.227	to_board	poldrack-single-stim	s572	False
0.1	366.46	0.986	367.446	0	PA_without_intermediate	test	ward_and_allport	82	35.0	0.986	to_hand	poldrack-single-stim	s572	False
0.1	367.447	0.182	367.629	0	PA_without_intermediate	test	ward_and_allport	89	35.0	0.182	to_board	poldrack-single-stim	s572	False
1.0	367.641	2.816	367.64	0	PA_without_intermediate	test	ward_and_allport	-1	35.0	n/a	feedback	poldrack-single-stim	s572	False
3.526	370.466	3.526	373.992	1	PA_with_intermediate	test	ward_and_allport	82	36.0	3.526	to_hand	poldrack-single-stim	s572	False
0.1	373.993	0.233	374.226	0	PA_with_intermediate	test	ward_and_allport	71	36.0	0.233	to_board	poldrack-single-stim	s572	False
0.1	374.235	0.389	374.624	0	PA_with_intermediate	test	ward_and_allport	82	36.0	0.389	to_hand	poldrack-single-stim	s572	False
0.1	374.625	0.178	374.803	0	PA_with_intermediate	test	ward_and_allport	89	36.0	0.178	to_board	poldrack-single-stim	s572	False
0.1	374.812	0.388	375.2	0	PA_with_intermediate	test	ward_and_allport	71	36.0	0.388	to_hand	poldrack-single-stim	s572	False
0.1	375.201	0.199	375.4	0	PA_with_intermediate	test	ward_and_allport	89	36.0	0.199	to_board	poldrack-single-stim	s572	False
1.0	375.412	4.176	375.411	0	PA_with_intermediate	test	ward_and_allport	-1	36.0	n/a	feedback	poldrack-single-stim	s572	False
3.952	379.594	3.952	383.546	1	PA_with_intermediate	test	ward_and_allport	82	37.0	3.952	to_hand	poldrack-single-stim	s572	False
0.1	383.548	0.202	383.75	0	PA_with_intermediate	test	ward_and_allport	89	37.0	0.202	to_board	poldrack-single-stim	s572	False
0.1	383.757	0.307	384.064	0	PA_with_intermediate	test	ward_and_allport	82	37.0	0.307	to_hand	poldrack-single-stim	s572	False
0.1	384.065	0.214	384.279	0	PA_with_intermediate	test	ward_and_allport	71	37.0	0.214	to_board	poldrack-single-stim	s572	False
0.1	384.289	0.354	384.643	0	PA_with_intermediate	test	ward_and_allport	89	37.0	0.354	to_hand	poldrack-single-stim	s572	False
0.1	384.645	0.185	384.83	0	PA_with_intermediate	test	ward_and_allport	71	37.0	0.185	to_board	poldrack-single-stim	s572	False
1.0	384.842	3.36	384.841	0	PA_with_intermediate	test	ward_and_allport	-1	37.0	n/a	feedback	poldrack-single-stim	s572	False
4.47	388.209	4.47	392.679	1	PA_with_intermediate	test	ward_and_allport	89	38.0	4.47	to_hand	poldrack-single-stim	s572	False
0.1	392.68	0.253	392.933	0	PA_with_intermediate	test	ward_and_allport	71	38.0	0.253	to_board	poldrack-single-stim	s572	False
0.1	392.942	0.238	393.18	0	PA_with_intermediate	test	ward_and_allport	89	38.0	0.238	to_hand	poldrack-single-stim	s572	False
0.1	393.181	0.199	393.38	0	PA_with_intermediate	test	ward_and_allport	82	38.0	0.199	to_board	poldrack-single-stim	s572	False
0.1	393.389	0.316	393.705	0	PA_with_intermediate	test	ward_and_allport	71	38.0	0.316	to_hand	poldrack-single-stim	s572	False
0.1	393.706	0.214	393.92	0	PA_with_intermediate	test	ward_and_allport	82	38.0	0.214	to_board	poldrack-single-stim	s572	False
1.0	393.93	2.0	393.929	0	PA_with_intermediate	test	ward_and_allport	-1	38.0	n/a	feedback	poldrack-single-stim	s572	False
3.92	395.937	3.92	399.857	1	PA_without_intermediate	test	ward_and_allport	89	39.0	3.92	to_hand	poldrack-single-stim	s572	False
0.1	399.857	0.177	400.034	0	PA_without_intermediate	test	ward_and_allport	71	39.0	0.177	to_board	poldrack-single-stim	s572	False
0.1	400.042	0.342	400.384	0	PA_without_intermediate	test	ward_and_allport	89	39.0	0.342	to_hand	poldrack-single-stim	s572	False
0.1	400.384	0.201	400.585	0	PA_without_intermediate	test	ward_and_allport	71	39.0	0.201	to_board	poldrack-single-stim	s572	False
0.1	400.595	0.332	400.927	0	PA_without_intermediate	test	ward_and_allport	89	39.0	0.332	to_hand	poldrack-single-stim	s572	False
0.1	400.927	0.179	401.106	0	PA_without_intermediate	test	ward_and_allport	82	39.0	0.179	to_board	poldrack-single-stim	s572	False
1.0	401.117	2.408	401.116	0	PA_without_intermediate	test	ward_and_allport	-1	39.0	n/a	feedback	poldrack-single-stim	s572	False
4.616	403.532	4.616	408.148	1	PA_with_intermediate	test	ward_and_allport	71	40.0	4.616	to_hand	poldrack-single-stim	s572	False
0.1	408.149	0.171	408.32	0	PA_with_intermediate	test	ward_and_allport	89	40.0	0.171	to_board	poldrack-single-stim	s572	False
0.1	408.327	0.547	408.874	0	PA_with_intermediate	test	ward_and_allport	71	40.0	0.547	to_hand	poldrack-single-stim	s572	False
0.1	408.875	0.192	409.067	0	PA_with_intermediate	test	ward_and_allport	82	40.0	0.192	to_board	poldrack-single-stim	s572	False
0.1	409.075	0.452	409.527	0	PA_with_intermediate	test	ward_and_allport	89	40.0	0.452	to_hand	poldrack-single-stim	s572	False
0.1	409.529	0.156	409.685	0	PA_with_intermediate	test	ward_and_allport	71	40.0	0.156	to_board	poldrack-single-stim	s572	False
1.0	409.696	2.816	409.695	0	PA_with_intermediate	test	ward_and_allport	-1	40.0	n/a	feedback	poldrack-single-stim	s572	False
3.591	412.521	3.591	416.112	1	PA_without_intermediate	test	ward_and_allport	89	41.0	3.591	to_hand	poldrack-single-stim	s572	False
0.1	416.114	0.204	416.318	0	PA_without_intermediate	test	ward_and_allport	82	41.0	0.204	to_board	poldrack-single-stim	s572	False
0.1	416.326	0.279	416.605	0	PA_without_intermediate	test	ward_and_allport	89	41.0	0.279	to_hand	poldrack-single-stim	s572	False
0.1	416.606	0.205	416.811	0	PA_without_intermediate	test	ward_and_allport	71	41.0	0.205	to_board	poldrack-single-stim	s572	False
0.1	416.819	0.282	417.101	0	PA_without_intermediate	test	ward_and_allport	89	41.0	0.282	to_hand	poldrack-single-stim	s572	False
0.1	417.102	0.357	417.459	0	PA_without_intermediate	test	ward_and_allport	82	41.0	0.357	to_board	poldrack-single-stim	s572	False
1.0	417.472	3.088	417.471	0	PA_without_intermediate	test	ward_and_allport	-1	41.0	n/a	feedback	poldrack-single-stim	s572	False
4.571	420.569	4.571	425.14	1	PA_without_intermediate	test	ward_and_allport	82	42.0	4.571	to_hand	poldrack-single-stim	s572	False
0.1	425.141	0.252	425.393	0	PA_without_intermediate	test	ward_and_allport	71	42.0	0.252	to_board	poldrack-single-stim	s572	False
0.1	425.4	1.237	426.637	0	PA_without_intermediate	test	ward_and_allport	82	42.0	1.237	to_hand	poldrack-single-stim	s572	False
0.1	426.638	0.234	426.872	0	PA_without_intermediate	test	ward_and_allport	89	42.0	0.234	to_board	poldrack-single-stim	s572	False
0.1	426.88	1.201	428.081	0	PA_without_intermediate	test	ward_and_allport	82	42.0	1.201	to_hand	poldrack-single-stim	s572	False
0.1	428.082	0.187	428.269	0	PA_without_intermediate	test	ward_and_allport	71	42.0	0.187	to_board	poldrack-single-stim	s572	False
1.0	428.28	2.136	428.279	0	PA_without_intermediate	test	ward_and_allport	-1	42.0	n/a	feedback	poldrack-single-stim	s572	False
2.917	430.424	2.917	433.341	1	PA_without_intermediate	test	ward_and_allport	71	43.0	2.917	to_hand	poldrack-single-stim	s572	False
0.1	433.342	0.207	433.549	0	PA_without_intermediate	test	ward_and_allport	89	43.0	0.207	to_board	poldrack-single-stim	s572	False
0.1	433.557	0.301	433.858	0	PA_without_intermediate	test	ward_and_allport	71	43.0	0.301	to_hand	poldrack-single-stim	s572	False
0.1	433.859	0.259	434.118	0	PA_without_intermediate	test	ward_and_allport	89	43.0	0.259	to_board	poldrack-single-stim	s572	False
0.1	434.129	0.52	434.649	0	PA_without_intermediate	test	ward_and_allport	71	43.0	0.52	to_hand	poldrack-single-stim	s572	False
0.1	434.649	0.211	434.86	0	PA_without_intermediate	test	ward_and_allport	82	43.0	0.211	to_board	poldrack-single-stim	s572	False
1.0	434.87	7.168	434.869	0	PA_without_intermediate	test	ward_and_allport	-1	43.0	n/a	feedback	poldrack-single-stim	s572	False
4.233	442.046	4.233	446.279	1	PA_without_intermediate	test	ward_and_allport	82	44.0	4.233	to_hand	poldrack-single-stim	s572	False
0.1	446.28	0.214	446.494	0	PA_without_intermediate	test	ward_and_allport	89	44.0	0.214	to_board	poldrack-single-stim	s572	False
0.1	446.504	0.273	446.777	0	PA_without_intermediate	test	ward_and_allport	82	44.0	0.273	to_hand	poldrack-single-stim	s572	False
0.1	446.778	0.237	447.015	0	PA_without_intermediate	test	ward_and_allport	71	44.0	0.237	to_board	poldrack-single-stim	s572	False
0.1	447.027	0.358	447.385	0	PA_without_intermediate	test	ward_and_allport	82	44.0	0.358	to_hand	poldrack-single-stim	s572	False
0.1	447.386	0.185	447.571	0	PA_without_intermediate	test	ward_and_allport	89	44.0	0.185	to_board	poldrack-single-stim	s572	False
1.0	447.582	2.816	447.581	0	PA_without_intermediate	test	ward_and_allport	-1	44.0	n/a	feedback	poldrack-single-stim	s572	False
5.204	455.412	5.204	460.616	1	PA_with_intermediate	test	ward_and_allport	71	45.0	5.204	to_hand	poldrack-single-stim	s572	False
0.1	460.617	0.186	460.803	0	PA_with_intermediate	test	ward_and_allport	82	45.0	0.186	to_board	poldrack-single-stim	s572	False
0.1	460.813	0.293	461.106	0	PA_with_intermediate	test	ward_and_allport	71	45.0	0.293	to_hand	poldrack-single-stim	s572	False
0.1	461.107	0.233	461.34	0	PA_with_intermediate	test	ward_and_allport	89	45.0	0.233	to_board	poldrack-single-stim	s572	False
0.1	461.351	0.641	461.992	0	PA_with_intermediate	test	ward_and_allport	82	45.0	0.641	to_hand	poldrack-single-stim	s572	False
0.1	461.992	0.197	462.189	0	PA_with_intermediate	test	ward_and_allport	89	45.0	0.197	to_board	poldrack-single-stim	s572	False
1.0	462.201	2.952	462.2	0	PA_with_intermediate	test	ward_and_allport	-1	45.0	n/a	feedback	poldrack-single-stim	s572	False
3.278	465.162	3.278	468.44	1	PA_with_intermediate	test	ward_and_allport	71	46.0	3.278	to_hand	poldrack-single-stim	s572	False
0.1	468.442	0.163	468.605	0	PA_with_intermediate	test	ward_and_allport	82	46.0	0.163	to_board	poldrack-single-stim	s572	False
0.1	468.612	0.318	468.93	0	PA_with_intermediate	test	ward_and_allport	71	46.0	0.318	to_hand	poldrack-single-stim	s572	False
0.1	468.931	0.194	469.125	0	PA_with_intermediate	test	ward_and_allport	89	46.0	0.194	to_board	poldrack-single-stim	s572	False
0.1	469.134	0.341	469.475	0	PA_with_intermediate	test	ward_and_allport	82	46.0	0.341	to_hand	poldrack-single-stim	s572	False
0.1	469.476	0.171	469.647	0	PA_with_intermediate	test	ward_and_allport	71	46.0	0.171	to_board	poldrack-single-stim	s572	False
1.0	469.658	2.136	469.657	0	PA_with_intermediate	test	ward_and_allport	-1	46.0	n/a	feedback	poldrack-single-stim	s572	False
3.573	471.803	3.573	475.376	1	PA_without_intermediate	test	ward_and_allport	89	47.0	3.573	to_hand	poldrack-single-stim	s572	False
0.1	475.376	0.141	475.517	0	PA_without_intermediate	test	ward_and_allport	71	47.0	0.141	to_board	poldrack-single-stim	s572	False
0.1	475.525	0.282	475.807	0	PA_without_intermediate	test	ward_and_allport	89	47.0	0.282	to_hand	poldrack-single-stim	s572	False
0.1	475.807	0.211	476.018	0	PA_without_intermediate	test	ward_and_allport	82	47.0	0.211	to_board	poldrack-single-stim	s572	False
0.1	476.026	0.394	476.42	0	PA_without_intermediate	test	ward_and_allport	89	47.0	0.394	to_hand	poldrack-single-stim	s572	False
0.1	476.421	0.183	476.604	0	PA_without_intermediate	test	ward_and_allport	71	47.0	0.183	to_board	poldrack-single-stim	s572	False
1.0	476.612	2.68	476.611	0	PA_without_intermediate	test	ward_and_allport	-1	47.0	n/a	feedback	poldrack-single-stim	s572	False
