onset	duration	movement_onset	block_duration	condition	correct	correct_response	experiment_exp_id	key_press	response_time	trial_id	trial_type	worker_id	junk
3.015	0.5	3.014	0.5	AX	n/a	n/a	dot_pattern_expectancy	-1.0	n/a	cue	AX	s574	False
5.519	0.5	5.957	2.18	AX	1.0	89.0	dot_pattern_expectancy	89.0	0.438	probe	AX	s574	False
7.7	0.5	7.699	0.5	AY	n/a	n/a	dot_pattern_expectancy	-1.0	n/a	cue	AY	s574	False
10.204	0.5	10.811	2.316	AY	1.0	71.0	dot_pattern_expectancy	71.0	0.607	probe	AY	s574	False
12.522	0.5	12.521	0.5	AY	n/a	n/a	dot_pattern_expectancy	-1.0	n/a	cue	AY	s574	False
15.032	0.5	15.493	1.636	AY	1.0	71.0	dot_pattern_expectancy	71.0	0.461	probe	AY	s574	False
16.671	0.5	16.67	0.5	BX	n/a	n/a	dot_pattern_expectancy	-1.0	n/a	cue	BX	s574	False
19.178	0.5	19.519	1.908	BX	1.0	71.0	dot_pattern_expectancy	71.0	0.341	probe	BX	s574	False
21.088	0.5	21.087	0.5	AX	n/a	n/a	dot_pattern_expectancy	-1.0	n/a	cue	AX	s574	False
23.595	0.5	24.02	3.54	AX	1.0	89.0	dot_pattern_expectancy	89.0	0.425	probe	AX	s574	False
27.141	0.5	27.14	0.5	BX	n/a	n/a	dot_pattern_expectancy	-1.0	n/a	cue	BX	s574	False
29.649	0.5	29.987	1.636	BX	1.0	71.0	dot_pattern_expectancy	71.0	0.338	probe	BX	s574	False
31.291	0.5	31.29	0.5	BY	n/a	n/a	dot_pattern_expectancy	-1.0	n/a	cue	BY	s574	False
33.8	0.5	34.566	1.5	BY	1.0	71.0	dot_pattern_expectancy	71.0	0.766	probe	BY	s574	False
35.302	0.5	35.301	0.5	AX	n/a	n/a	dot_pattern_expectancy	-1.0	n/a	cue	AX	s574	False
37.813	0.5	38.174	1.5	AX	1.0	89.0	dot_pattern_expectancy	89.0	0.361	probe	AX	s574	False
39.316	0.5	39.315	0.5	AX	n/a	n/a	dot_pattern_expectancy	-1.0	n/a	cue	AX	s574	False
41.821	0.5	42.215	1.772	AX	1.0	89.0	dot_pattern_expectancy	89.0	0.394	probe	AX	s574	False
43.595	0.5	43.594	0.5	BY	n/a	n/a	dot_pattern_expectancy	-1.0	n/a	cue	BY	s574	False
46.102	0.5	46.445	2.452	BY	1.0	71.0	dot_pattern_expectancy	71.0	0.343	probe	BY	s574	False
48.555	0.5	48.554	0.5	AX	n/a	n/a	dot_pattern_expectancy	-1.0	n/a	cue	AX	s574	False
51.062	0.5	51.449	1.908	AX	1.0	89.0	dot_pattern_expectancy	89.0	0.387	probe	AX	s574	False
52.972	0.5	52.971	0.5	BX	n/a	n/a	dot_pattern_expectancy	-1.0	n/a	cue	BX	s574	False
55.478	0.5	55.859	1.636	BX	1.0	71.0	dot_pattern_expectancy	71.0	0.381	probe	BX	s574	False
57.116	0.5	57.115	0.5	AX	n/a	n/a	dot_pattern_expectancy	-1.0	n/a	cue	AX	s574	False
59.627	0.5	60.236	1.5	AX	1.0	89.0	dot_pattern_expectancy	89.0	0.609	probe	AX	s574	False
61.132	0.5	61.131	0.5	AX	n/a	n/a	dot_pattern_expectancy	-1.0	n/a	cue	AX	s574	False
63.639	0.5	64.427	1.636	AX	1.0	89.0	dot_pattern_expectancy	89.0	0.788	probe	AX	s574	False
65.276	0.5	65.275	0.5	AX	n/a	n/a	dot_pattern_expectancy	-1.0	n/a	cue	AX	s574	False
67.782	0.5	68.471	1.636	AX	1.0	89.0	dot_pattern_expectancy	89.0	0.689	probe	AX	s574	False
69.42	0.5	69.419	0.5	BY	n/a	n/a	dot_pattern_expectancy	-1.0	n/a	cue	BY	s574	False
71.927	0.5	72.744	2.452	BY	1.0	71.0	dot_pattern_expectancy	71.0	0.817	probe	BY	s574	False
74.386	0.5	74.385	0.5	AX	n/a	n/a	dot_pattern_expectancy	-1.0	n/a	cue	AX	s574	False
76.895	0.5	77.371	1.5	AX	1.0	89.0	dot_pattern_expectancy	89.0	0.476	probe	AX	s574	False
78.399	0.5	78.398	0.5	BY	n/a	n/a	dot_pattern_expectancy	-1.0	n/a	cue	BY	s574	False
80.907	0.5	80.906	1.5	BY	0.0	71.0	dot_pattern_expectancy	-1.0	n/a	probe	BY	s574	False
82.412	0.5	82.411	0.5	AX	n/a	n/a	dot_pattern_expectancy	-1.0	n/a	cue	AX	s574	False
84.921	0.5	86.521	1.636	AX	1.0	89.0	dot_pattern_expectancy	89.0	1.6	probe	AX	s574	False
86.559	0.5	86.558	0.5	AX	n/a	n/a	dot_pattern_expectancy	-1.0	n/a	cue	AX	s574	False
89.064	0.5	89.552	1.636	AX	1.0	89.0	dot_pattern_expectancy	89.0	0.488	probe	AX	s574	False
90.703	0.5	90.702	0.5	AY	n/a	n/a	dot_pattern_expectancy	-1.0	n/a	cue	AY	s574	False
93.213	0.5	93.682	1.636	AY	1.0	71.0	dot_pattern_expectancy	71.0	0.469	probe	AY	s574	False
94.851	0.5	94.85	0.5	AX	n/a	n/a	dot_pattern_expectancy	-1.0	n/a	cue	AX	s574	False
97.362	0.5	97.895	1.5	AX	1.0	89.0	dot_pattern_expectancy	89.0	0.533	probe	AX	s574	False
98.867	0.5	98.866	0.5	AX	n/a	n/a	dot_pattern_expectancy	-1.0	n/a	cue	AX	s574	False
101.379	0.5	101.757	1.5	AX	1.0	89.0	dot_pattern_expectancy	89.0	0.378	probe	AX	s574	False
102.88	0.5	102.879	0.5	AX	n/a	n/a	dot_pattern_expectancy	-1.0	n/a	cue	AX	s574	False
105.387	0.5	105.698	1.772	AX	1.0	89.0	dot_pattern_expectancy	89.0	0.311	probe	AX	s574	False
107.161	0.5	107.16	0.5	AX	n/a	n/a	dot_pattern_expectancy	-1.0	n/a	cue	AX	s574	False
109.667	0.5	110.034	2.18	AX	1.0	89.0	dot_pattern_expectancy	89.0	0.367	probe	AX	s574	False
111.849	0.5	111.848	0.5	BX	n/a	n/a	dot_pattern_expectancy	-1.0	n/a	cue	BX	s574	False
114.358	0.5	114.624	1.772	BX	1.0	71.0	dot_pattern_expectancy	71.0	0.266	probe	BX	s574	False
116.131	0.5	116.13	0.5	BY	n/a	n/a	dot_pattern_expectancy	-1.0	n/a	cue	BY	s574	False
118.643	0.5	118.642	1.5	BY	0.0	71.0	dot_pattern_expectancy	-1.0	n/a	probe	BY	s574	False
120.148	0.5	120.147	0.5	AX	n/a	n/a	dot_pattern_expectancy	-1.0	n/a	cue	AX	s574	False
122.659	0.5	123.438	1.5	AX	1.0	89.0	dot_pattern_expectancy	89.0	0.779	probe	AX	s574	False
124.161	0.5	124.16	0.5	AX	n/a	n/a	dot_pattern_expectancy	-1.0	n/a	cue	AX	s574	False
126.671	0.5	127.074	1.636	AX	1.0	89.0	dot_pattern_expectancy	89.0	0.403	probe	AX	s574	False
128.308	0.5	128.307	0.5	AY	n/a	n/a	dot_pattern_expectancy	-1.0	n/a	cue	AY	s574	False
130.815	0.5	131.386	2.18	AY	1.0	71.0	dot_pattern_expectancy	71.0	0.571	probe	AY	s574	False
132.996	0.5	132.995	0.5	AY	n/a	n/a	dot_pattern_expectancy	-1.0	n/a	cue	AY	s574	False
135.504	0.5	136.059	2.316	AY	1.0	71.0	dot_pattern_expectancy	71.0	0.555	probe	AY	s574	False
137.823	0.5	137.822	0.5	BX	n/a	n/a	dot_pattern_expectancy	-1.0	n/a	cue	BX	s574	False
140.33	0.5	140.878	1.636	BX	1.0	71.0	dot_pattern_expectancy	71.0	0.548	probe	BX	s574	False
141.967	0.5	141.966	0.5	BX	n/a	n/a	dot_pattern_expectancy	-1.0	n/a	cue	BX	s574	False
144.474	0.5	145.077	2.18	BX	1.0	71.0	dot_pattern_expectancy	71.0	0.603	probe	BX	s574	False
146.656	0.5	146.655	0.5	AY	n/a	n/a	dot_pattern_expectancy	-1.0	n/a	cue	AY	s574	False
149.165	0.5	149.778	2.044	AY	1.0	71.0	dot_pattern_expectancy	71.0	0.613	probe	AY	s574	False
151.211	0.5	151.21	0.5	AX	n/a	n/a	dot_pattern_expectancy	-1.0	n/a	cue	AX	s574	False
153.72	0.5	154.499	1.772	AX	1.0	89.0	dot_pattern_expectancy	89.0	0.779	probe	AX	s574	False
155.493	0.5	155.492	0.5	AX	n/a	n/a	dot_pattern_expectancy	-1.0	n/a	cue	AX	s574	False
158.003	0.5	158.437	1.5	AX	1.0	89.0	dot_pattern_expectancy	89.0	0.434	probe	AX	s574	False
159.504	0.5	159.503	0.5	AX	n/a	n/a	dot_pattern_expectancy	-1.0	n/a	cue	AX	s574	False
162.011	0.5	162.425	2.18	AX	1.0	89.0	dot_pattern_expectancy	89.0	0.414	probe	AX	s574	False
164.192	0.5	164.191	0.5	AY	n/a	n/a	dot_pattern_expectancy	-1.0	n/a	cue	AY	s574	False
166.704	0.5	167.512	2.452	AY	0.0	71.0	dot_pattern_expectancy	89.0	0.808	probe	AY	s574	False
169.162	0.5	169.161	0.5	AX	n/a	n/a	dot_pattern_expectancy	-1.0	n/a	cue	AX	s574	False
171.665	0.5	172.086	1.636	AX	1.0	89.0	dot_pattern_expectancy	89.0	0.421	probe	AX	s574	False
173.302	0.5	173.301	0.5	AX	n/a	n/a	dot_pattern_expectancy	-1.0	n/a	cue	AX	s574	False
175.809	0.5	176.332	1.908	AX	1.0	89.0	dot_pattern_expectancy	89.0	0.523	probe	AX	s574	False
188.236	0.5	188.235	0.5	AX	n/a	n/a	dot_pattern_expectancy	-1.0	n/a	cue	AX	s574	False
190.745	0.5	191.186	1.772	AX	1.0	89.0	dot_pattern_expectancy	89.0	0.441	probe	AX	s574	False
192.519	0.5	192.518	0.5	AX	n/a	n/a	dot_pattern_expectancy	-1.0	n/a	cue	AX	s574	False
195.026	0.5	195.799	1.5	AX	1.0	89.0	dot_pattern_expectancy	89.0	0.773	probe	AX	s574	False
196.529	0.5	196.528	0.5	AY	n/a	n/a	dot_pattern_expectancy	-1.0	n/a	cue	AY	s574	False
199.036	0.5	199.701	2.452	AY	1.0	71.0	dot_pattern_expectancy	71.0	0.665	probe	AY	s574	False
201.49	0.5	201.489	0.5	AY	n/a	n/a	dot_pattern_expectancy	-1.0	n/a	cue	AY	s574	False
203.999	0.5	204.876	1.772	AY	1.0	71.0	dot_pattern_expectancy	71.0	0.877	probe	AY	s574	False
205.773	0.5	205.772	0.5	AX	n/a	n/a	dot_pattern_expectancy	-1.0	n/a	cue	AX	s574	False
208.279	0.5	209.853	1.908	AX	1.0	89.0	dot_pattern_expectancy	89.0	1.574	probe	AX	s574	False
210.193	0.5	210.192	0.5	AX	n/a	n/a	dot_pattern_expectancy	-1.0	n/a	cue	AX	s574	False
212.696	0.5	213.207	1.908	AX	1.0	89.0	dot_pattern_expectancy	89.0	0.511	probe	AX	s574	False
214.605	0.5	214.604	0.5	AX	n/a	n/a	dot_pattern_expectancy	-1.0	n/a	cue	AX	s574	False
217.115	0.5	217.772	2.588	AX	1.0	89.0	dot_pattern_expectancy	89.0	0.657	probe	AX	s574	False
219.704	0.5	219.703	0.5	AY	n/a	n/a	dot_pattern_expectancy	-1.0	n/a	cue	AY	s574	False
222.216	0.5	223.474	1.5	AY	1.0	71.0	dot_pattern_expectancy	71.0	1.258	probe	AY	s574	False
223.72	0.5	223.719	0.5	BY	n/a	n/a	dot_pattern_expectancy	-1.0	n/a	cue	BY	s574	False
226.232	0.5	226.669	1.5	BY	1.0	71.0	dot_pattern_expectancy	71.0	0.437	probe	BY	s574	False
227.736	0.5	227.735	0.5	BY	n/a	n/a	dot_pattern_expectancy	-1.0	n/a	cue	BY	s574	False
230.246	0.5	230.777	1.5	BY	1.0	71.0	dot_pattern_expectancy	71.0	0.531	probe	BY	s574	False
231.747	0.5	231.746	0.5	AX	n/a	n/a	dot_pattern_expectancy	-1.0	n/a	cue	AX	s574	False
234.254	0.5	234.933	1.636	AX	1.0	89.0	dot_pattern_expectancy	89.0	0.679	probe	AX	s574	False
235.892	0.5	235.891	0.5	BX	n/a	n/a	dot_pattern_expectancy	-1.0	n/a	cue	BX	s574	False
238.401	0.5	238.82	2.044	BX	1.0	71.0	dot_pattern_expectancy	71.0	0.419	probe	BX	s574	False
240.446	0.5	240.445	0.5	AX	n/a	n/a	dot_pattern_expectancy	-1.0	n/a	cue	AX	s574	False
242.955	0.5	243.293	1.772	AX	1.0	89.0	dot_pattern_expectancy	89.0	0.338	probe	AX	s574	False
244.733	0.5	244.732	0.5	BX	n/a	n/a	dot_pattern_expectancy	-1.0	n/a	cue	BX	s574	False
247.238	0.5	249.144	2.588	BX	0.0	71.0	dot_pattern_expectancy	89.0	1.906	probe	BX	s574	False
249.832	0.5	249.831	0.5	AY	n/a	n/a	dot_pattern_expectancy	-1.0	n/a	cue	AY	s574	False
252.34	0.5	252.949	1.5	AY	1.0	71.0	dot_pattern_expectancy	71.0	0.609	probe	AY	s574	False
253.841	0.5	253.84	0.5	AX	n/a	n/a	dot_pattern_expectancy	-1.0	n/a	cue	AX	s574	False
256.351	0.5	257.665	2.452	AX	1.0	89.0	dot_pattern_expectancy	89.0	1.314	probe	AX	s574	False
258.804	0.5	258.803	0.5	BY	n/a	n/a	dot_pattern_expectancy	-1.0	n/a	cue	BY	s574	False
261.311	0.5	261.31	1.636	BY	0.0	71.0	dot_pattern_expectancy	-1.0	n/a	probe	BY	s574	False
262.953	0.5	262.952	0.5	AX	n/a	n/a	dot_pattern_expectancy	-1.0	n/a	cue	AX	s574	False
265.461	0.5	265.46	1.636	AX	0.0	89.0	dot_pattern_expectancy	-1.0	n/a	probe	AX	s574	False
267.098	0.5	267.097	0.5	AX	n/a	n/a	dot_pattern_expectancy	-1.0	n/a	cue	AX	s574	False
269.609	0.5	269.997	1.5	AX	1.0	89.0	dot_pattern_expectancy	89.0	0.388	probe	AX	s574	False
271.114	0.5	271.113	0.5	BY	n/a	n/a	dot_pattern_expectancy	-1.0	n/a	cue	BY	s574	False
273.621	0.5	273.92	1.636	BY	1.0	71.0	dot_pattern_expectancy	71.0	0.299	probe	BY	s574	False
275.258	0.5	275.257	0.5	AX	n/a	n/a	dot_pattern_expectancy	-1.0	n/a	cue	AX	s574	False
277.768	0.5	278.322	1.5	AX	1.0	89.0	dot_pattern_expectancy	89.0	0.554	probe	AX	s574	False
279.269	0.5	279.268	0.5	AY	n/a	n/a	dot_pattern_expectancy	-1.0	n/a	cue	AY	s574	False
281.776	0.5	282.354	2.18	AY	1.0	71.0	dot_pattern_expectancy	71.0	0.578	probe	AY	s574	False
283.958	0.5	283.957	0.5	AX	n/a	n/a	dot_pattern_expectancy	-1.0	n/a	cue	AX	s574	False
286.466	0.5	286.82	1.5	AX	1.0	89.0	dot_pattern_expectancy	89.0	0.354	probe	AX	s574	False
287.968	0.5	287.967	0.5	AX	n/a	n/a	dot_pattern_expectancy	-1.0	n/a	cue	AX	s574	False
290.475	0.5	290.945	1.908	AX	1.0	89.0	dot_pattern_expectancy	89.0	0.47	probe	AX	s574	False
292.385	0.5	292.384	0.5	BY	n/a	n/a	dot_pattern_expectancy	-1.0	n/a	cue	BY	s574	False
294.891	0.5	295.281	1.636	BY	1.0	71.0	dot_pattern_expectancy	71.0	0.39	probe	BY	s574	False
296.529	0.5	296.528	0.5	BY	n/a	n/a	dot_pattern_expectancy	-1.0	n/a	cue	BY	s574	False
299.035	0.5	299.866	1.636	BY	1.0	71.0	dot_pattern_expectancy	71.0	0.831	probe	BY	s574	False
300.673	0.5	300.672	0.5	AX	n/a	n/a	dot_pattern_expectancy	-1.0	n/a	cue	AX	s574	False
303.18	0.5	304.804	1.636	AX	0.0	89.0	dot_pattern_expectancy	71.0	1.624	probe	AX	s574	False
304.817	0.5	304.816	0.5	AX	n/a	n/a	dot_pattern_expectancy	-1.0	n/a	cue	AX	s574	False
307.326	0.5	307.716	1.5	AX	1.0	89.0	dot_pattern_expectancy	89.0	0.39	probe	AX	s574	False
308.828	0.5	308.827	0.5	BY	n/a	n/a	dot_pattern_expectancy	-1.0	n/a	cue	BY	s574	False
311.337	0.5	311.336	2.044	BY	0.0	71.0	dot_pattern_expectancy	-1.0	n/a	probe	BY	s574	False
313.383	0.5	313.382	0.5	AY	n/a	n/a	dot_pattern_expectancy	-1.0	n/a	cue	AY	s574	False
315.889	0.5	316.634	2.18	AY	1.0	71.0	dot_pattern_expectancy	71.0	0.745	probe	AY	s574	False
318.071	0.5	318.07	0.5	AY	n/a	n/a	dot_pattern_expectancy	-1.0	n/a	cue	AY	s574	False
320.583	0.5	321.066	1.636	AY	1.0	71.0	dot_pattern_expectancy	71.0	0.483	probe	AY	s574	False
322.221	0.5	322.22	0.5	AY	n/a	n/a	dot_pattern_expectancy	-1.0	n/a	cue	AY	s574	False
324.73	0.5	325.168	1.772	AY	1.0	71.0	dot_pattern_expectancy	71.0	0.438	probe	AY	s574	False
326.504	0.5	326.503	0.5	BY	n/a	n/a	dot_pattern_expectancy	-1.0	n/a	cue	BY	s574	False
329.012	0.5	329.254	1.5	BY	1.0	71.0	dot_pattern_expectancy	71.0	0.242	probe	BY	s574	False
330.517	0.5	330.516	0.5	BX	n/a	n/a	dot_pattern_expectancy	-1.0	n/a	cue	BX	s574	False
333.026	0.5	333.405	1.908	BX	1.0	71.0	dot_pattern_expectancy	71.0	0.379	probe	BX	s574	False
334.936	0.5	334.935	0.5	AX	n/a	n/a	dot_pattern_expectancy	-1.0	n/a	cue	AX	s574	False
337.445	0.5	338.463	2.044	AX	1.0	89.0	dot_pattern_expectancy	89.0	1.018	probe	AX	s574	False
339.495	0.5	339.494	0.5	AX	n/a	n/a	dot_pattern_expectancy	-1.0	n/a	cue	AX	s574	False
341.997	0.5	342.782	1.636	AX	1.0	89.0	dot_pattern_expectancy	89.0	0.785	probe	AX	s574	False
343.635	0.5	343.634	0.5	AX	n/a	n/a	dot_pattern_expectancy	-1.0	n/a	cue	AX	s574	False
346.144	0.5	347.182	1.772	AX	1.0	89.0	dot_pattern_expectancy	89.0	1.038	probe	AX	s574	False
347.918	0.5	347.917	0.5	AX	n/a	n/a	dot_pattern_expectancy	-1.0	n/a	cue	AX	s574	False
350.424	0.5	350.878	1.636	AX	1.0	89.0	dot_pattern_expectancy	89.0	0.454	probe	AX	s574	False
352.062	0.5	352.061	0.5	BX	n/a	n/a	dot_pattern_expectancy	-1.0	n/a	cue	BX	s574	False
354.57	0.5	355.766	1.772	BX	0.0	71.0	dot_pattern_expectancy	89.0	1.196	probe	BX	s574	False
356.345	0.5	356.344	0.5	AX	n/a	n/a	dot_pattern_expectancy	-1.0	n/a	cue	AX	s574	False
358.849	0.5	359.244	1.5	AX	1.0	89.0	dot_pattern_expectancy	89.0	0.395	probe	AX	s574	False
370.865	0.5	370.864	0.5	BY	n/a	n/a	dot_pattern_expectancy	-1.0	n/a	cue	BY	s574	False
373.369	0.5	374.026	1.636	BY	1.0	71.0	dot_pattern_expectancy	71.0	0.657	probe	BY	s574	False
375.007	0.5	375.006	0.5	AY	n/a	n/a	dot_pattern_expectancy	-1.0	n/a	cue	AY	s574	False
377.518	0.5	378.2	1.5	AY	1.0	71.0	dot_pattern_expectancy	71.0	0.682	probe	AY	s574	False
379.023	0.5	379.022	0.5	AX	n/a	n/a	dot_pattern_expectancy	-1.0	n/a	cue	AX	s574	False
381.532	0.5	383.015	2.044	AX	1.0	89.0	dot_pattern_expectancy	89.0	1.483	probe	AX	s574	False
383.578	0.5	383.577	0.5	BY	n/a	n/a	dot_pattern_expectancy	-1.0	n/a	cue	BY	s574	False
386.087	0.5	386.244	1.772	BY	1.0	71.0	dot_pattern_expectancy	71.0	0.157	probe	BY	s574	False
387.861	0.5	387.86	0.5	BX	n/a	n/a	dot_pattern_expectancy	-1.0	n/a	cue	BX	s574	False
390.367	0.5	390.96	1.636	BX	1.0	71.0	dot_pattern_expectancy	71.0	0.593	probe	BX	s574	False
392.005	0.5	392.004	0.5	AX	n/a	n/a	dot_pattern_expectancy	-1.0	n/a	cue	AX	s574	False
394.512	0.5	395.468	1.636	AX	1.0	89.0	dot_pattern_expectancy	89.0	0.956	probe	AX	s574	False
396.149	0.5	396.148	0.5	AX	n/a	n/a	dot_pattern_expectancy	-1.0	n/a	cue	AX	s574	False
398.658	0.5	399.813	1.5	AX	1.0	89.0	dot_pattern_expectancy	89.0	1.155	probe	AX	s574	False
400.16	0.5	400.159	0.5	AX	n/a	n/a	dot_pattern_expectancy	-1.0	n/a	cue	AX	s574	False
402.67	0.5	402.669	1.5	AX	0.0	89.0	dot_pattern_expectancy	-1.0	n/a	probe	AX	s574	False
404.177	0.5	404.176	0.5	AY	n/a	n/a	dot_pattern_expectancy	-1.0	n/a	cue	AY	s574	False
406.686	0.5	407.419	2.044	AY	1.0	71.0	dot_pattern_expectancy	71.0	0.733	probe	AY	s574	False
408.737	0.5	408.736	0.5	AX	n/a	n/a	dot_pattern_expectancy	-1.0	n/a	cue	AX	s574	False
411.249	0.5	411.635	2.452	AX	1.0	89.0	dot_pattern_expectancy	89.0	0.386	probe	AX	s574	False
413.708	0.5	413.707	0.5	AX	n/a	n/a	dot_pattern_expectancy	-1.0	n/a	cue	AX	s574	False
416.219	0.5	416.676	1.908	AX	1.0	89.0	dot_pattern_expectancy	89.0	0.457	probe	AX	s574	False
418.135	0.5	418.134	0.5	AX	n/a	n/a	dot_pattern_expectancy	-1.0	n/a	cue	AX	s574	False
420.644	0.5	421.372	1.5	AX	1.0	89.0	dot_pattern_expectancy	89.0	0.728	probe	AX	s574	False
422.151	0.5	422.15	0.5	AX	n/a	n/a	dot_pattern_expectancy	-1.0	n/a	cue	AX	s574	False
424.662	0.5	425.301	1.908	AX	1.0	89.0	dot_pattern_expectancy	89.0	0.639	probe	AX	s574	False
426.572	0.5	426.571	0.5	BX	n/a	n/a	dot_pattern_expectancy	-1.0	n/a	cue	BX	s574	False
429.083	0.5	429.37	2.18	BX	1.0	71.0	dot_pattern_expectancy	71.0	0.287	probe	BX	s574	False
431.266	0.5	431.265	0.5	AX	n/a	n/a	dot_pattern_expectancy	-1.0	n/a	cue	AX	s574	False
433.77	0.5	434.229	1.5	AX	1.0	89.0	dot_pattern_expectancy	89.0	0.459	probe	AX	s574	False
435.276	0.5	435.275	0.5	BY	n/a	n/a	dot_pattern_expectancy	-1.0	n/a	cue	BY	s574	False
437.787	0.5	438.68	1.908	BY	1.0	71.0	dot_pattern_expectancy	71.0	0.893	probe	BY	s574	False
439.698	0.5	439.697	0.5	BX	n/a	n/a	dot_pattern_expectancy	-1.0	n/a	cue	BX	s574	False
442.207	0.5	442.804	2.316	BX	0.0	71.0	dot_pattern_expectancy	89.0	0.597	probe	BX	s574	False
444.53	0.5	444.529	0.5	AY	n/a	n/a	dot_pattern_expectancy	-1.0	n/a	cue	AY	s574	False
447.04	0.5	447.039	2.316	AY	0.0	71.0	dot_pattern_expectancy	-1.0	n/a	probe	AY	s574	False
449.363	0.5	449.362	0.5	BX	n/a	n/a	dot_pattern_expectancy	-1.0	n/a	cue	BX	s574	False
451.874	0.5	452.168	1.636	BX	1.0	71.0	dot_pattern_expectancy	71.0	0.294	probe	BX	s574	False
453.511	0.5	453.51	0.5	AY	n/a	n/a	dot_pattern_expectancy	-1.0	n/a	cue	AY	s574	False
456.023	0.5	456.554	1.5	AY	1.0	71.0	dot_pattern_expectancy	71.0	0.531	probe	AY	s574	False
457.525	0.5	457.524	0.5	BY	n/a	n/a	dot_pattern_expectancy	-1.0	n/a	cue	BY	s574	False
460.029	0.5	460.655	1.908	BY	1.0	71.0	dot_pattern_expectancy	71.0	0.626	probe	BY	s574	False
461.943	0.5	461.942	0.5	AX	n/a	n/a	dot_pattern_expectancy	-1.0	n/a	cue	AX	s574	False
464.448	0.5	464.792	1.5	AX	1.0	89.0	dot_pattern_expectancy	89.0	0.344	probe	AX	s574	False
465.949	0.5	465.948	0.5	AY	n/a	n/a	dot_pattern_expectancy	-1.0	n/a	cue	AY	s574	False
468.459	0.5	468.937	2.316	AY	1.0	71.0	dot_pattern_expectancy	71.0	0.478	probe	AY	s574	False
470.776	0.5	470.775	0.5	AX	n/a	n/a	dot_pattern_expectancy	-1.0	n/a	cue	AX	s574	False
473.286	0.5	474.499	1.5	AX	1.0	89.0	dot_pattern_expectancy	89.0	1.213	probe	AX	s574	False
474.787	0.5	474.786	0.5	AY	n/a	n/a	dot_pattern_expectancy	-1.0	n/a	cue	AY	s574	False
477.294	0.5	478.03	2.724	AY	1.0	71.0	dot_pattern_expectancy	71.0	0.736	probe	AY	s574	False
480.023	0.5	480.022	0.5	AX	n/a	n/a	dot_pattern_expectancy	-1.0	n/a	cue	AX	s574	False
482.531	0.5	483.43	1.5	AX	1.0	89.0	dot_pattern_expectancy	89.0	0.899	probe	AX	s574	False
484.035	0.5	484.034	0.5	AX	n/a	n/a	dot_pattern_expectancy	-1.0	n/a	cue	AX	s574	False
486.542	0.5	487.239	1.636	AX	1.0	89.0	dot_pattern_expectancy	89.0	0.697	probe	AX	s574	False
488.18	0.5	488.179	0.5	AX	n/a	n/a	dot_pattern_expectancy	-1.0	n/a	cue	AX	s574	False
490.686	0.5	491.051	1.636	AX	1.0	89.0	dot_pattern_expectancy	89.0	0.365	probe	AX	s574	False
492.326	0.5	492.325	0.5	AX	n/a	n/a	dot_pattern_expectancy	-1.0	n/a	cue	AX	s574	False
494.833	0.5	496.144	1.772	AX	1.0	89.0	dot_pattern_expectancy	89.0	1.311	probe	AX	s574	False
496.607	0.5	496.606	0.5	BY	n/a	n/a	dot_pattern_expectancy	-1.0	n/a	cue	BY	s574	False
499.116	0.5	499.421	1.772	BY	1.0	71.0	dot_pattern_expectancy	71.0	0.305	probe	BY	s574	False
500.89	0.5	500.889	0.5	AX	n/a	n/a	dot_pattern_expectancy	-1.0	n/a	cue	AX	s574	False
503.401	0.5	504.577	1.5	AX	1.0	89.0	dot_pattern_expectancy	89.0	1.176	probe	AX	s574	False
504.906	0.5	504.905	0.5	BY	n/a	n/a	dot_pattern_expectancy	-1.0	n/a	cue	BY	s574	False
507.412	0.5	508.165	2.452	BY	1.0	71.0	dot_pattern_expectancy	71.0	0.753	probe	BY	s574	False
509.868	0.5	509.867	0.5	AX	n/a	n/a	dot_pattern_expectancy	-1.0	n/a	cue	AX	s574	False
512.378	0.5	512.883	1.636	AX	1.0	89.0	dot_pattern_expectancy	89.0	0.505	probe	AX	s574	False
514.016	0.5	514.015	0.5	AX	n/a	n/a	dot_pattern_expectancy	-1.0	n/a	cue	AX	s574	False
516.522	0.5	517.749	1.636	AX	0.0	89.0	dot_pattern_expectancy	71.0	1.227	probe	AX	s574	False
518.165	0.5	518.164	0.5	BX	n/a	n/a	dot_pattern_expectancy	-1.0	n/a	cue	BX	s574	False
520.677	0.5	521.269	1.5	BX	0.0	71.0	dot_pattern_expectancy	89.0	0.592	probe	BX	s574	False
522.181	0.5	522.18	0.5	BX	n/a	n/a	dot_pattern_expectancy	-1.0	n/a	cue	BX	s574	False
524.693	0.5	524.912	1.5	BX	1.0	71.0	dot_pattern_expectancy	71.0	0.219	probe	BX	s574	False
526.197	0.5	526.196	0.5	AX	n/a	n/a	dot_pattern_expectancy	-1.0	n/a	cue	AX	s574	False
528.701	0.5	528.992	2.316	AX	1.0	89.0	dot_pattern_expectancy	89.0	0.291	probe	AX	s574	False
531.019	0.5	531.018	0.5	AY	n/a	n/a	dot_pattern_expectancy	-1.0	n/a	cue	AY	s574	False
533.528	0.5	534.111	2.044	AY	1.0	71.0	dot_pattern_expectancy	71.0	0.583	probe	AY	s574	False
535.578	0.5	535.577	0.5	AX	n/a	n/a	dot_pattern_expectancy	-1.0	n/a	cue	AX	s574	False
538.083	0.5	538.952	3.948	AX	1.0	89.0	dot_pattern_expectancy	89.0	0.869	probe	AX	s574	False
542.033	0.5	542.032	0.5	AX	n/a	n/a	dot_pattern_expectancy	-1.0	n/a	cue	AX	s574	False
544.536	0.5	545.111	1.636	AX	1.0	89.0	dot_pattern_expectancy	89.0	0.575	probe	AX	s574	False
556.686	0.5	556.685	0.5	AY	n/a	n/a	dot_pattern_expectancy	-1.0	n/a	cue	AY	s574	False
559.191	0.5	559.839	1.636	AY	1.0	71.0	dot_pattern_expectancy	71.0	0.648	probe	AY	s574	False
560.828	0.5	560.827	0.5	AX	n/a	n/a	dot_pattern_expectancy	-1.0	n/a	cue	AX	s574	False
563.335	0.5	563.694	1.636	AX	1.0	89.0	dot_pattern_expectancy	89.0	0.359	probe	AX	s574	False
564.973	0.5	564.972	0.5	AX	n/a	n/a	dot_pattern_expectancy	-1.0	n/a	cue	AX	s574	False
567.482	0.5	567.813	1.5	AX	1.0	89.0	dot_pattern_expectancy	89.0	0.331	probe	AX	s574	False
568.983	0.5	568.982	0.5	AX	n/a	n/a	dot_pattern_expectancy	-1.0	n/a	cue	AX	s574	False
571.495	0.5	571.952	1.5	AX	1.0	89.0	dot_pattern_expectancy	89.0	0.457	probe	AX	s574	False
572.999	0.5	572.998	0.5	AX	n/a	n/a	dot_pattern_expectancy	-1.0	n/a	cue	AX	s574	False
575.506	0.5	576.077	1.908	AX	1.0	89.0	dot_pattern_expectancy	89.0	0.571	probe	AX	s574	False
577.416	0.5	577.415	0.5	BX	n/a	n/a	dot_pattern_expectancy	-1.0	n/a	cue	BX	s574	False
579.922	0.5	580.23	1.636	BX	1.0	71.0	dot_pattern_expectancy	71.0	0.308	probe	BX	s574	False
581.56	0.5	581.559	0.5	AX	n/a	n/a	dot_pattern_expectancy	-1.0	n/a	cue	AX	s574	False
584.069	0.5	584.676	2.044	AX	1.0	89.0	dot_pattern_expectancy	89.0	0.607	probe	AX	s574	False
586.115	0.5	586.114	0.5	AX	n/a	n/a	dot_pattern_expectancy	-1.0	n/a	cue	AX	s574	False
588.624	0.5	589.312	1.772	AX	1.0	89.0	dot_pattern_expectancy	89.0	0.688	probe	AX	s574	False
590.398	0.5	590.397	0.5	AX	n/a	n/a	dot_pattern_expectancy	-1.0	n/a	cue	AX	s574	False
592.909	0.5	593.724	1.5	AX	1.0	89.0	dot_pattern_expectancy	89.0	0.815	probe	AX	s574	False
594.414	0.5	594.413	0.5	AX	n/a	n/a	dot_pattern_expectancy	-1.0	n/a	cue	AX	s574	False
596.92	0.5	598.348	2.18	AX	1.0	89.0	dot_pattern_expectancy	89.0	1.428	probe	AX	s574	False
599.102	0.5	599.101	0.5	AX	n/a	n/a	dot_pattern_expectancy	-1.0	n/a	cue	AX	s574	False
601.606	0.5	601.99	1.5	AX	1.0	89.0	dot_pattern_expectancy	89.0	0.384	probe	AX	s574	False
603.107	0.5	603.106	0.5	BX	n/a	n/a	dot_pattern_expectancy	-1.0	n/a	cue	BX	s574	False
605.616	0.5	606.079	3.676	BX	1.0	71.0	dot_pattern_expectancy	71.0	0.463	probe	BX	s574	False
609.294	0.5	609.293	0.5	BY	n/a	n/a	dot_pattern_expectancy	-1.0	n/a	cue	BY	s574	False
611.801	0.5	612.124	1.636	BY	1.0	71.0	dot_pattern_expectancy	71.0	0.323	probe	BY	s574	False
613.438	0.5	613.437	0.5	BY	n/a	n/a	dot_pattern_expectancy	-1.0	n/a	cue	BY	s574	False
615.945	0.5	616.228	1.636	BY	1.0	71.0	dot_pattern_expectancy	71.0	0.283	probe	BY	s574	False
617.583	0.5	617.582	0.5	BX	n/a	n/a	dot_pattern_expectancy	-1.0	n/a	cue	BX	s574	False
620.092	0.5	620.442	1.5	BX	1.0	71.0	dot_pattern_expectancy	71.0	0.35	probe	BX	s574	False
621.594	0.5	621.593	0.5	AX	n/a	n/a	dot_pattern_expectancy	-1.0	n/a	cue	AX	s574	False
624.1	0.5	624.478	1.908	AX	1.0	89.0	dot_pattern_expectancy	89.0	0.378	probe	AX	s574	False
626.01	0.5	626.009	0.5	AX	n/a	n/a	dot_pattern_expectancy	-1.0	n/a	cue	AX	s574	False
628.516	0.5	629.089	1.636	AX	1.0	89.0	dot_pattern_expectancy	89.0	0.573	probe	AX	s574	False
630.154	0.5	630.153	0.5	BX	n/a	n/a	dot_pattern_expectancy	-1.0	n/a	cue	BX	s574	False
632.663	0.5	633.742	1.5	BX	1.0	71.0	dot_pattern_expectancy	71.0	1.079	probe	BX	s574	False
634.165	0.5	634.164	0.5	AX	n/a	n/a	dot_pattern_expectancy	-1.0	n/a	cue	AX	s574	False
636.672	0.5	636.671	1.908	AX	0.0	89.0	dot_pattern_expectancy	-1.0	n/a	probe	AX	s574	False
638.581	0.5	638.58	0.5	BY	n/a	n/a	dot_pattern_expectancy	-1.0	n/a	cue	BY	s574	False
641.088	0.5	641.538	2.18	BY	1.0	71.0	dot_pattern_expectancy	71.0	0.45	probe	BY	s574	False
643.269	0.5	643.268	0.5	AX	n/a	n/a	dot_pattern_expectancy	-1.0	n/a	cue	AX	s574	False
645.778	0.5	646.442	1.772	AX	1.0	89.0	dot_pattern_expectancy	89.0	0.664	probe	AX	s574	False
647.552	0.5	647.551	0.5	AX	n/a	n/a	dot_pattern_expectancy	-1.0	n/a	cue	AX	s574	False
650.061	0.5	650.616	1.5	AX	1.0	89.0	dot_pattern_expectancy	89.0	0.555	probe	AX	s574	False
651.563	0.5	651.562	0.5	AX	n/a	n/a	dot_pattern_expectancy	-1.0	n/a	cue	AX	s574	False
654.074	0.5	655.162	1.5	AX	1.0	89.0	dot_pattern_expectancy	89.0	1.088	probe	AX	s574	False
655.579	0.5	655.578	0.5	AX	n/a	n/a	dot_pattern_expectancy	-1.0	n/a	cue	AX	s574	False
658.088	0.5	658.645	2.044	AX	1.0	89.0	dot_pattern_expectancy	89.0	0.557	probe	AX	s574	False
660.134	0.5	660.133	0.5	AX	n/a	n/a	dot_pattern_expectancy	-1.0	n/a	cue	AX	s574	False
662.643	0.5	663.124	2.86	AX	1.0	89.0	dot_pattern_expectancy	89.0	0.481	probe	AX	s574	False
665.505	0.5	665.504	0.5	BX	n/a	n/a	dot_pattern_expectancy	-1.0	n/a	cue	BX	s574	False
668.016	0.5	668.278	1.5	BX	1.0	71.0	dot_pattern_expectancy	71.0	0.262	probe	BX	s574	False
669.521	0.5	669.52	0.5	BY	n/a	n/a	dot_pattern_expectancy	-1.0	n/a	cue	BY	s574	False
672.028	0.5	672.283	1.772	BY	1.0	71.0	dot_pattern_expectancy	71.0	0.255	probe	BY	s574	False
673.806	0.5	673.805	0.5	AX	n/a	n/a	dot_pattern_expectancy	-1.0	n/a	cue	AX	s574	False
676.313	0.5	676.671	1.772	AX	1.0	89.0	dot_pattern_expectancy	89.0	0.358	probe	AX	s574	False
678.087	0.5	678.086	0.5	AX	n/a	n/a	dot_pattern_expectancy	-1.0	n/a	cue	AX	s574	False
680.596	0.5	681.214	2.86	AX	0.0	89.0	dot_pattern_expectancy	71.0	0.618	probe	AX	s574	False
683.458	0.5	683.457	0.5	AX	n/a	n/a	dot_pattern_expectancy	-1.0	n/a	cue	AX	s574	False
685.967	0.5	686.665	1.772	AX	1.0	89.0	dot_pattern_expectancy	89.0	0.698	probe	AX	s574	False
687.74	0.5	687.739	0.5	BX	n/a	n/a	dot_pattern_expectancy	-1.0	n/a	cue	BX	s574	False
690.247	0.5	690.487	1.636	BX	1.0	71.0	dot_pattern_expectancy	71.0	0.24	probe	BX	s574	False
691.885	0.5	691.884	0.5	BX	n/a	n/a	dot_pattern_expectancy	-1.0	n/a	cue	BX	s574	False
694.396	0.5	694.876	2.452	BX	1.0	71.0	dot_pattern_expectancy	71.0	0.48	probe	BX	s574	False
696.852	0.5	696.851	0.5	AX	n/a	n/a	dot_pattern_expectancy	-1.0	n/a	cue	AX	s574	False
699.357	0.5	699.829	1.636	AX	1.0	89.0	dot_pattern_expectancy	89.0	0.472	probe	AX	s574	False
700.995	0.5	700.994	0.5	BX	n/a	n/a	dot_pattern_expectancy	-1.0	n/a	cue	BX	s574	False
703.504	0.5	703.503	1.5	BX	0.0	71.0	dot_pattern_expectancy	-1.0	n/a	probe	BX	s574	False
705.005	0.5	705.004	0.5	AX	n/a	n/a	dot_pattern_expectancy	-1.0	n/a	cue	AX	s574	False
707.512	0.5	707.982	1.636	AX	1.0	89.0	dot_pattern_expectancy	89.0	0.47	probe	AX	s574	False
709.149	0.5	709.148	0.5	AX	n/a	n/a	dot_pattern_expectancy	-1.0	n/a	cue	AX	s574	False
711.656	0.5	712.019	1.636	AX	1.0	89.0	dot_pattern_expectancy	89.0	0.363	probe	AX	s574	False
713.293	0.5	713.292	0.5	BY	n/a	n/a	dot_pattern_expectancy	-1.0	n/a	cue	BY	s574	False
715.8	0.5	716.022	2.18	BY	1.0	71.0	dot_pattern_expectancy	71.0	0.222	probe	BY	s574	False
717.982	0.5	717.981	0.5	AX	n/a	n/a	dot_pattern_expectancy	-1.0	n/a	cue	AX	s574	False
720.491	0.5	720.871	1.5	AX	1.0	89.0	dot_pattern_expectancy	89.0	0.38	probe	AX	s574	False
721.993	0.5	721.992	0.5	AY	n/a	n/a	dot_pattern_expectancy	-1.0	n/a	cue	AY	s574	False
724.499	0.5	725.497	1.636	AY	1.0	71.0	dot_pattern_expectancy	71.0	0.998	probe	AY	s574	False
726.137	0.5	726.136	0.5	AX	n/a	n/a	dot_pattern_expectancy	-1.0	n/a	cue	AX	s574	False
728.645	0.5	729.454	1.636	AX	1.0	89.0	dot_pattern_expectancy	89.0	0.809	probe	AX	s574	False
