duration	onset	block_duration	movement_onset	planning	condition	exp_stage	experiment_exp_id	key_press	problem_id	response_time	trial_id	trial_type	worker_id	junk
5.541	3.014	5.541	8.555	1	UA_with_intermediate	practice	ward_and_allport	71	0.0	5.541	to_hand	poldrack-single-stim	s574	False
0.1	8.557	1.052	9.609	0	UA_with_intermediate	practice	ward_and_allport	82	0.0	1.052	to_board	poldrack-single-stim	s574	False
0.1	9.612	0.404	10.016	0	UA_with_intermediate	practice	ward_and_allport	71	0.0	0.404	to_hand	poldrack-single-stim	s574	False
0.1	10.018	0.279	10.297	0	UA_with_intermediate	practice	ward_and_allport	89	0.0	0.279	to_board	poldrack-single-stim	s574	False
0.1	10.299	0.47	10.769	0	UA_with_intermediate	practice	ward_and_allport	82	0.0	0.47	to_hand	poldrack-single-stim	s574	False
0.1	10.77	0.247	11.017	0	UA_with_intermediate	practice	ward_and_allport	89	0.0	0.247	to_board	poldrack-single-stim	s574	False
1.0	11.02	2.5	11.019	0	UA_with_intermediate	practice	ward_and_allport	-1	0.0	n/a	feedback	poldrack-single-stim	s574	False
3.796	13.523	3.796	17.319	1	UA_with_intermediate	practice	ward_and_allport	71	1.0	3.796	to_hand	poldrack-single-stim	s574	False
0.1	17.32	0.264	17.584	0	UA_with_intermediate	practice	ward_and_allport	82	1.0	0.264	to_board	poldrack-single-stim	s574	False
0.1	17.585	1.487	19.072	0	UA_with_intermediate	practice	ward_and_allport	89	1.0	1.487	to_hand	poldrack-single-stim	s574	False
0.1	19.074	0.262	19.336	0	UA_with_intermediate	practice	ward_and_allport	71	1.0	0.262	to_board	poldrack-single-stim	s574	False
0.1	19.339	0.338	19.677	0	UA_with_intermediate	practice	ward_and_allport	82	1.0	0.338	to_hand	poldrack-single-stim	s574	False
0.1	19.679	0.221	19.9	0	UA_with_intermediate	practice	ward_and_allport	89	1.0	0.221	to_board	poldrack-single-stim	s574	False
0.1	19.902	0.649	20.551	0	UA_with_intermediate	practice	ward_and_allport	71	1.0	0.649	to_hand	poldrack-single-stim	s574	False
0.1	20.553	0.13	20.683	0	UA_with_intermediate	practice	ward_and_allport	89	1.0	0.13	to_board	poldrack-single-stim	s574	False
1.0	20.686	2.1	20.685	0	UA_with_intermediate	practice	ward_and_allport	-1	1.0	n/a	feedback	poldrack-single-stim	s574	False
3.606	22.79	3.606	26.396	1	UA_without_intermediate	practice	ward_and_allport	82	2.0	3.606	to_hand	poldrack-single-stim	s574	False
0.1	26.398	0.297	26.695	0	UA_without_intermediate	practice	ward_and_allport	89	2.0	0.297	to_board	poldrack-single-stim	s574	False
0.1	26.697	1.507	28.204	0	UA_without_intermediate	practice	ward_and_allport	71	2.0	1.507	to_hand	poldrack-single-stim	s574	False
0.1	28.204	0.244	28.448	0	UA_without_intermediate	practice	ward_and_allport	89	2.0	0.244	to_board	poldrack-single-stim	s574	False
0.1	28.45	0.335	28.785	0	UA_without_intermediate	practice	ward_and_allport	71	2.0	0.335	to_hand	poldrack-single-stim	s574	False
0.1	28.787	0.136	28.923	0	UA_without_intermediate	practice	ward_and_allport	89	2.0	0.136	to_board	poldrack-single-stim	s574	False
1.0	28.926	2.2	28.925	0	UA_without_intermediate	practice	ward_and_allport	-1	2.0	n/a	feedback	poldrack-single-stim	s574	False
2.777	31.128	2.777	33.905	1	UA_without_intermediate	practice	ward_and_allport	71	3.0	2.777	to_hand	poldrack-single-stim	s574	False
0.1	33.907	1.469	35.376	0	UA_without_intermediate	practice	ward_and_allport	89	3.0	1.469	to_board	poldrack-single-stim	s574	False
0.1	35.379	0.445	35.824	0	UA_without_intermediate	practice	ward_and_allport	82	3.0	0.445	to_hand	poldrack-single-stim	s574	False
0.1	35.825	0.229	36.054	0	UA_without_intermediate	practice	ward_and_allport	89	3.0	0.229	to_board	poldrack-single-stim	s574	False
0.1	36.057	0.257	36.314	0	UA_without_intermediate	practice	ward_and_allport	71	3.0	0.257	to_hand	poldrack-single-stim	s574	False
0.1	36.315	0.16	36.475	0	UA_without_intermediate	practice	ward_and_allport	89	3.0	0.16	to_board	poldrack-single-stim	s574	False
1.0	36.481	2.0	36.48	0	UA_without_intermediate	practice	ward_and_allport	-1	3.0	n/a	feedback	poldrack-single-stim	s574	False
3.375	40.486	3.375	43.861	1	PA_with_intermediate	test	ward_and_allport	82	0.0	3.375	to_hand	poldrack-single-stim	s574	False
0.1	43.862	0.996	44.858	0	PA_with_intermediate	test	ward_and_allport	89	0.0	0.996	to_board	poldrack-single-stim	s574	False
0.1	44.861	1.435	46.296	0	PA_with_intermediate	test	ward_and_allport	82	0.0	1.435	to_hand	poldrack-single-stim	s574	False
0.1	46.296	0.763	47.059	0	PA_with_intermediate	test	ward_and_allport	71	0.0	0.763	to_board	poldrack-single-stim	s574	False
0.1	47.061	1.866	48.927	0	PA_with_intermediate	test	ward_and_allport	89	0.0	1.866	to_hand	poldrack-single-stim	s574	False
0.1	48.928	0.48	49.408	0	PA_with_intermediate	test	ward_and_allport	71	0.0	0.48	to_board	poldrack-single-stim	s574	False
1.0	49.414	2.408	49.413	0	PA_with_intermediate	test	ward_and_allport	-1	0.0	n/a	feedback	poldrack-single-stim	s574	False
2.49	51.823	2.49	54.313	1	PA_without_intermediate	test	ward_and_allport	82	1.0	2.49	to_hand	poldrack-single-stim	s574	False
0.1	54.315	1.56	55.875	0	PA_without_intermediate	test	ward_and_allport	89	1.0	1.56	to_board	poldrack-single-stim	s574	False
0.1	55.877	1.34	57.217	0	PA_without_intermediate	test	ward_and_allport	82	1.0	1.34	to_hand	poldrack-single-stim	s574	False
0.1	57.218	0.419	57.637	0	PA_without_intermediate	test	ward_and_allport	71	1.0	0.419	to_board	poldrack-single-stim	s574	False
0.1	57.639	0.513	58.152	0	PA_without_intermediate	test	ward_and_allport	82	1.0	0.513	to_hand	poldrack-single-stim	s574	False
0.1	58.154	0.185	58.339	0	PA_without_intermediate	test	ward_and_allport	89	1.0	0.185	to_board	poldrack-single-stim	s574	False
1.0	58.345	2.68	58.344	0	PA_without_intermediate	test	ward_and_allport	-1	1.0	n/a	feedback	poldrack-single-stim	s574	False
2.659	61.028	2.659	63.687	1	PA_with_intermediate	test	ward_and_allport	82	2.0	2.659	to_hand	poldrack-single-stim	s574	False
0.1	63.688	0.599	64.287	0	PA_with_intermediate	test	ward_and_allport	71	2.0	0.599	to_board	poldrack-single-stim	s574	False
0.1	64.29	0.492	64.782	0	PA_with_intermediate	test	ward_and_allport	82	2.0	0.492	to_hand	poldrack-single-stim	s574	False
0.1	64.783	0.29	65.073	0	PA_with_intermediate	test	ward_and_allport	89	2.0	0.29	to_board	poldrack-single-stim	s574	False
0.1	65.076	0.369	65.445	0	PA_with_intermediate	test	ward_and_allport	71	2.0	0.369	to_hand	poldrack-single-stim	s574	False
0.1	65.446	0.559	66.005	0	PA_with_intermediate	test	ward_and_allport	82	2.0	0.559	to_board	poldrack-single-stim	s574	False
1.0	66.012	4.72	66.011	0	PA_with_intermediate	test	ward_and_allport	-1	2.0	n/a	feedback	poldrack-single-stim	s574	False
2.186	70.735	2.186	72.921	1	PA_without_intermediate	test	ward_and_allport	89	3.0	2.186	to_hand	poldrack-single-stim	s574	False
0.1	72.921	1.156	74.077	0	PA_without_intermediate	test	ward_and_allport	71	3.0	1.156	to_board	poldrack-single-stim	s574	False
0.1	74.079	0.59	74.669	0	PA_without_intermediate	test	ward_and_allport	89	3.0	0.59	to_hand	poldrack-single-stim	s574	False
0.1	74.671	0.693	75.364	0	PA_without_intermediate	test	ward_and_allport	71	3.0	0.693	to_board	poldrack-single-stim	s574	False
0.1	75.368	0.453	75.821	0	PA_without_intermediate	test	ward_and_allport	89	3.0	0.453	to_hand	poldrack-single-stim	s574	False
0.1	75.823	0.325	76.148	0	PA_without_intermediate	test	ward_and_allport	82	3.0	0.325	to_board	poldrack-single-stim	s574	False
1.0	76.153	3.224	76.152	0	PA_without_intermediate	test	ward_and_allport	-1	3.0	n/a	feedback	poldrack-single-stim	s574	False
2.666	79.379	2.666	82.045	1	PA_without_intermediate	test	ward_and_allport	89	4.0	2.666	to_hand	poldrack-single-stim	s574	False
0.1	82.047	0.711	82.758	0	PA_without_intermediate	test	ward_and_allport	82	4.0	0.711	to_board	poldrack-single-stim	s574	False
0.1	82.761	0.718	83.479	0	PA_without_intermediate	test	ward_and_allport	89	4.0	0.718	to_hand	poldrack-single-stim	s574	False
0.1	83.48	0.281	83.761	0	PA_without_intermediate	test	ward_and_allport	82	4.0	0.281	to_board	poldrack-single-stim	s574	False
0.1	83.763	0.289	84.052	0	PA_without_intermediate	test	ward_and_allport	89	4.0	0.289	to_hand	poldrack-single-stim	s574	False
0.1	84.054	0.203	84.257	0	PA_without_intermediate	test	ward_and_allport	71	4.0	0.203	to_board	poldrack-single-stim	s574	False
1.0	84.263	2.272	84.262	0	PA_without_intermediate	test	ward_and_allport	-1	4.0	n/a	feedback	poldrack-single-stim	s574	False
3.152	86.537	3.152	89.689	1	PA_with_intermediate	test	ward_and_allport	71	5.0	3.152	to_hand	poldrack-single-stim	s574	False
0.1	89.691	0.877	90.568	0	PA_with_intermediate	test	ward_and_allport	89	5.0	0.877	to_board	poldrack-single-stim	s574	False
0.1	90.572	0.333	90.905	0	PA_with_intermediate	test	ward_and_allport	71	5.0	0.333	to_hand	poldrack-single-stim	s574	False
0.1	90.906	0.336	91.242	0	PA_with_intermediate	test	ward_and_allport	82	5.0	0.336	to_board	poldrack-single-stim	s574	False
0.1	91.245	0.417	91.662	0	PA_with_intermediate	test	ward_and_allport	89	5.0	0.417	to_hand	poldrack-single-stim	s574	False
0.1	91.663	0.251	91.914	0	PA_with_intermediate	test	ward_and_allport	82	5.0	0.251	to_board	poldrack-single-stim	s574	False
1.0	91.922	3.632	91.921	0	PA_with_intermediate	test	ward_and_allport	-1	5.0	n/a	feedback	poldrack-single-stim	s574	False
2.308	95.557	2.308	97.865	1	PA_without_intermediate	test	ward_and_allport	89	6.0	2.308	to_hand	poldrack-single-stim	s574	False
0.1	97.867	0.368	98.235	0	PA_without_intermediate	test	ward_and_allport	82	6.0	0.368	to_board	poldrack-single-stim	s574	False
0.1	98.239	2.176	100.415	0	PA_without_intermediate	test	ward_and_allport	89	6.0	2.176	to_hand	poldrack-single-stim	s574	False
0.1	100.415	0.144	100.559	0	PA_without_intermediate	test	ward_and_allport	71	6.0	0.144	to_board	poldrack-single-stim	s574	False
0.1	100.562	0.522	101.084	0	PA_without_intermediate	test	ward_and_allport	89	6.0	0.522	to_hand	poldrack-single-stim	s574	False
0.1	101.086	0.132	101.218	0	PA_without_intermediate	test	ward_and_allport	82	6.0	0.132	to_board	poldrack-single-stim	s574	False
1.0	101.222	2.408	101.221	0	PA_without_intermediate	test	ward_and_allport	-1	6.0	n/a	feedback	poldrack-single-stim	s574	False
2.579	103.633	2.579	106.212	1	PA_without_intermediate	test	ward_and_allport	82	7.0	2.579	to_hand	poldrack-single-stim	s574	False
0.1	106.213	0.13	106.343	0	PA_without_intermediate	test	ward_and_allport	71	7.0	0.13	to_board	poldrack-single-stim	s574	False
0.1	106.346	0.719	107.065	0	PA_without_intermediate	test	ward_and_allport	82	7.0	0.719	to_hand	poldrack-single-stim	s574	False
0.1	107.067	0.12	107.187	0	PA_without_intermediate	test	ward_and_allport	89	7.0	0.12	to_board	poldrack-single-stim	s574	False
0.1	107.19	2.418	109.608	0	PA_without_intermediate	test	ward_and_allport	82	7.0	2.418	to_hand	poldrack-single-stim	s574	False
0.1	109.609	0.095	109.704	0	PA_without_intermediate	test	ward_and_allport	71	7.0	0.095	to_board	poldrack-single-stim	s574	False
1.0	109.71	2.0	109.709	0	PA_without_intermediate	test	ward_and_allport	-1	7.0	n/a	feedback	poldrack-single-stim	s574	False
3.61	111.714	3.61	115.324	1	PA_with_intermediate	test	ward_and_allport	71	8.0	3.61	to_hand	poldrack-single-stim	s574	False
0.1	115.325	0.18	115.505	0	PA_with_intermediate	test	ward_and_allport	82	8.0	0.18	to_board	poldrack-single-stim	s574	False
0.1	115.508	0.544	116.052	0	PA_with_intermediate	test	ward_and_allport	71	8.0	0.544	to_hand	poldrack-single-stim	s574	False
0.1	116.053	0.079	116.132	0	PA_with_intermediate	test	ward_and_allport	89	8.0	0.079	to_board	poldrack-single-stim	s574	False
0.1	116.136	0.464	116.6	0	PA_with_intermediate	test	ward_and_allport	82	8.0	0.464	to_hand	poldrack-single-stim	s574	False
0.1	116.602	0.091	116.693	0	PA_with_intermediate	test	ward_and_allport	89	8.0	0.091	to_board	poldrack-single-stim	s574	False
1.0	116.699	2.0	116.698	0	PA_with_intermediate	test	ward_and_allport	-1	8.0	n/a	feedback	poldrack-single-stim	s574	False
3.99	118.704	3.99	122.694	1	PA_with_intermediate	test	ward_and_allport	89	9.0	3.99	to_hand	poldrack-single-stim	s574	False
0.1	122.695	0.119	122.814	0	PA_with_intermediate	test	ward_and_allport	71	9.0	0.119	to_board	poldrack-single-stim	s574	False
0.1	122.819	0.283	123.102	0	PA_with_intermediate	test	ward_and_allport	89	9.0	0.283	to_hand	poldrack-single-stim	s574	False
0.1	123.103	0.156	123.259	0	PA_with_intermediate	test	ward_and_allport	82	9.0	0.156	to_board	poldrack-single-stim	s574	False
0.1	123.263	0.418	123.681	0	PA_with_intermediate	test	ward_and_allport	71	9.0	0.418	to_hand	poldrack-single-stim	s574	False
0.1	123.683	0.209	123.892	0	PA_with_intermediate	test	ward_and_allport	82	9.0	0.209	to_board	poldrack-single-stim	s574	False
1.0	123.897	2.0	123.896	0	PA_with_intermediate	test	ward_and_allport	-1	9.0	n/a	feedback	poldrack-single-stim	s574	False
2.592	125.9	2.592	128.492	1	PA_with_intermediate	test	ward_and_allport	71	10.0	2.592	to_hand	poldrack-single-stim	s574	False
0.1	128.494	0.243	128.737	0	PA_with_intermediate	test	ward_and_allport	82	10.0	0.243	to_board	poldrack-single-stim	s574	False
0.1	128.742	1.358	130.1	0	PA_with_intermediate	test	ward_and_allport	71	10.0	1.358	to_hand	poldrack-single-stim	s574	False
0.1	130.101	0.096	130.197	0	PA_with_intermediate	test	ward_and_allport	89	10.0	0.096	to_board	poldrack-single-stim	s574	False
0.1	130.202	0.438	130.64	0	PA_with_intermediate	test	ward_and_allport	82	10.0	0.438	to_hand	poldrack-single-stim	s574	False
0.1	130.641	0.067	130.708	0	PA_with_intermediate	test	ward_and_allport	71	10.0	0.067	to_board	poldrack-single-stim	s574	False
1.0	130.716	2.408	130.715	0	PA_with_intermediate	test	ward_and_allport	-1	10.0	n/a	feedback	poldrack-single-stim	s574	False
1.642	133.127	1.642	134.769	1	PA_without_intermediate	test	ward_and_allport	71	11.0	1.642	to_hand	poldrack-single-stim	s574	False
0.1	134.771	0.712	135.483	0	PA_without_intermediate	test	ward_and_allport	89	11.0	0.712	to_board	poldrack-single-stim	s574	False
0.1	135.487	0.485	135.972	0	PA_without_intermediate	test	ward_and_allport	71	11.0	0.485	to_hand	poldrack-single-stim	s574	False
0.1	135.973	0.096	136.069	0	PA_without_intermediate	test	ward_and_allport	89	11.0	0.096	to_board	poldrack-single-stim	s574	False
0.1	136.073	1.223	137.296	0	PA_without_intermediate	test	ward_and_allport	71	11.0	1.223	to_hand	poldrack-single-stim	s574	False
0.1	137.297	0.081	137.378	0	PA_without_intermediate	test	ward_and_allport	82	11.0	0.081	to_board	poldrack-single-stim	s574	False
1.0	137.385	2.816	137.384	0	PA_without_intermediate	test	ward_and_allport	-1	11.0	n/a	feedback	poldrack-single-stim	s574	False
2.889	140.204	2.889	143.093	1	PA_with_intermediate	test	ward_and_allport	71	12.0	2.889	to_hand	poldrack-single-stim	s574	False
0.1	143.095	0.543	143.638	0	PA_with_intermediate	test	ward_and_allport	89	12.0	0.543	to_board	poldrack-single-stim	s574	False
0.1	143.64	0.316	143.956	0	PA_with_intermediate	test	ward_and_allport	71	12.0	0.316	to_hand	poldrack-single-stim	s574	False
0.1	143.957	0.165	144.122	0	PA_with_intermediate	test	ward_and_allport	82	12.0	0.165	to_board	poldrack-single-stim	s574	False
0.1	144.127	0.232	144.359	0	PA_with_intermediate	test	ward_and_allport	89	12.0	0.232	to_hand	poldrack-single-stim	s574	False
0.1	144.359	0.174	144.533	0	PA_with_intermediate	test	ward_and_allport	82	12.0	0.174	to_board	poldrack-single-stim	s574	False
1.0	144.538	4.176	144.537	0	PA_with_intermediate	test	ward_and_allport	-1	12.0	n/a	feedback	poldrack-single-stim	s574	False
1.483	148.717	1.483	150.2	1	PA_with_intermediate	test	ward_and_allport	71	13.0	1.483	to_hand	poldrack-single-stim	s574	False
0.1	150.202	1.463	151.665	0	PA_with_intermediate	test	ward_and_allport	89	13.0	1.463	to_board	poldrack-single-stim	s574	False
0.1	151.67	0.362	152.032	0	PA_with_intermediate	test	ward_and_allport	71	13.0	0.362	to_hand	poldrack-single-stim	s574	False
0.1	152.033	0.147	152.18	0	PA_with_intermediate	test	ward_and_allport	82	13.0	0.147	to_board	poldrack-single-stim	s574	False
0.1	152.183	0.784	152.967	0	PA_with_intermediate	test	ward_and_allport	89	13.0	0.784	to_hand	poldrack-single-stim	s574	False
0.1	152.969	0.21	153.179	0	PA_with_intermediate	test	ward_and_allport	71	13.0	0.21	to_board	poldrack-single-stim	s574	False
1.0	153.183	3.36	153.182	0	PA_with_intermediate	test	ward_and_allport	-1	13.0	n/a	feedback	poldrack-single-stim	s574	False
3.745	156.549	3.745	160.294	1	PA_with_intermediate	test	ward_and_allport	89	14.0	3.745	to_hand	poldrack-single-stim	s574	False
0.1	160.295	0.909	161.204	0	PA_with_intermediate	test	ward_and_allport	82	14.0	0.909	to_board	poldrack-single-stim	s574	False
0.1	161.208	0.252	161.46	0	PA_with_intermediate	test	ward_and_allport	89	14.0	0.252	to_hand	poldrack-single-stim	s574	False
0.1	161.461	0.191	161.652	0	PA_with_intermediate	test	ward_and_allport	71	14.0	0.191	to_board	poldrack-single-stim	s574	False
0.1	161.655	0.281	161.936	0	PA_with_intermediate	test	ward_and_allport	82	14.0	0.281	to_hand	poldrack-single-stim	s574	False
0.1	161.938	0.899	162.837	0	PA_with_intermediate	test	ward_and_allport	71	14.0	0.899	to_board	poldrack-single-stim	s574	False
1.0	162.842	2.0	162.841	0	PA_with_intermediate	test	ward_and_allport	-1	14.0	n/a	feedback	poldrack-single-stim	s574	False
1.518	169.849	1.518	171.367	1	PA_without_intermediate	test	ward_and_allport	82	15.0	1.518	to_hand	poldrack-single-stim	s574	False
0.1	171.368	0.922	172.29	0	PA_without_intermediate	test	ward_and_allport	71	15.0	0.922	to_board	poldrack-single-stim	s574	False
0.1	172.295	0.221	172.516	0	PA_without_intermediate	test	ward_and_allport	82	15.0	0.221	to_hand	poldrack-single-stim	s574	False
0.1	172.517	0.19	172.707	0	PA_without_intermediate	test	ward_and_allport	71	15.0	0.19	to_board	poldrack-single-stim	s574	False
0.1	172.712	0.789	173.501	0	PA_without_intermediate	test	ward_and_allport	82	15.0	0.789	to_hand	poldrack-single-stim	s574	False
0.1	173.502	0.144	173.646	0	PA_without_intermediate	test	ward_and_allport	89	15.0	0.144	to_board	poldrack-single-stim	s574	False
1.0	173.656	2.408	173.655	0	PA_without_intermediate	test	ward_and_allport	-1	15.0	n/a	feedback	poldrack-single-stim	s574	False
3.756	176.069	3.756	179.825	1	PA_with_intermediate	test	ward_and_allport	71	16.0	3.756	to_hand	poldrack-single-stim	s574	False
0.1	179.825	0.252	180.077	0	PA_with_intermediate	test	ward_and_allport	89	16.0	0.252	to_board	poldrack-single-stim	s574	False
0.1	180.081	0.234	180.315	0	PA_with_intermediate	test	ward_and_allport	71	16.0	0.234	to_hand	poldrack-single-stim	s574	False
0.1	180.316	0.24	180.556	0	PA_with_intermediate	test	ward_and_allport	82	16.0	0.24	to_board	poldrack-single-stim	s574	False
0.1	180.561	0.208	180.769	0	PA_with_intermediate	test	ward_and_allport	89	16.0	0.208	to_hand	poldrack-single-stim	s574	False
0.1	180.769	0.172	180.941	0	PA_with_intermediate	test	ward_and_allport	71	16.0	0.172	to_board	poldrack-single-stim	s574	False
1.0	180.951	2.816	180.95	0	PA_with_intermediate	test	ward_and_allport	-1	16.0	n/a	feedback	poldrack-single-stim	s574	False
1.651	183.772	1.651	185.423	1	PA_without_intermediate	test	ward_and_allport	82	17.0	1.651	to_hand	poldrack-single-stim	s574	False
0.1	185.424	0.853	186.277	0	PA_without_intermediate	test	ward_and_allport	71	17.0	0.853	to_board	poldrack-single-stim	s574	False
0.1	186.283	0.516	186.799	0	PA_without_intermediate	test	ward_and_allport	82	17.0	0.516	to_hand	poldrack-single-stim	s574	False
0.1	186.8	0.867	187.667	0	PA_without_intermediate	test	ward_and_allport	71	17.0	0.867	to_board	poldrack-single-stim	s574	False
0.1	187.671	0.412	188.083	0	PA_without_intermediate	test	ward_and_allport	82	17.0	0.412	to_hand	poldrack-single-stim	s574	False
0.1	188.084	0.144	188.228	0	PA_without_intermediate	test	ward_and_allport	89	17.0	0.144	to_board	poldrack-single-stim	s574	False
1.0	188.235	3.088	188.234	0	PA_without_intermediate	test	ward_and_allport	-1	17.0	n/a	feedback	poldrack-single-stim	s574	False
1.393	191.328	1.393	192.721	1	PA_without_intermediate	test	ward_and_allport	89	18.0	1.393	to_hand	poldrack-single-stim	s574	False
0.1	192.723	0.945	193.668	0	PA_without_intermediate	test	ward_and_allport	82	18.0	0.945	to_board	poldrack-single-stim	s574	False
0.1	193.673	0.934	194.607	0	PA_without_intermediate	test	ward_and_allport	89	18.0	0.934	to_hand	poldrack-single-stim	s574	False
0.1	194.609	0.228	194.837	0	PA_without_intermediate	test	ward_and_allport	71	18.0	0.228	to_board	poldrack-single-stim	s574	False
0.1	194.842	0.34	195.182	0	PA_without_intermediate	test	ward_and_allport	89	18.0	0.34	to_hand	poldrack-single-stim	s574	False
0.1	195.183	0.211	195.394	0	PA_without_intermediate	test	ward_and_allport	82	18.0	0.211	to_board	poldrack-single-stim	s574	False
1.0	195.401	2.136	195.4	0	PA_without_intermediate	test	ward_and_allport	-1	18.0	n/a	feedback	poldrack-single-stim	s574	False
1.505	197.541	1.505	199.046	1	PA_without_intermediate	test	ward_and_allport	71	19.0	1.505	to_hand	poldrack-single-stim	s574	False
0.1	199.047	0.098	199.145	0	PA_without_intermediate	test	ward_and_allport	89	19.0	0.098	to_board	poldrack-single-stim	s574	False
0.1	199.15	0.849	199.999	0	PA_without_intermediate	test	ward_and_allport	71	19.0	0.849	to_hand	poldrack-single-stim	s574	False
0.1	200.0	0.052	200.052	0	PA_without_intermediate	test	ward_and_allport	89	19.0	0.052	to_board	poldrack-single-stim	s574	False
0.1	200.056	0.778	200.834	0	PA_without_intermediate	test	ward_and_allport	71	19.0	0.778	to_hand	poldrack-single-stim	s574	False
0.1	200.836	0.12	200.956	0	PA_without_intermediate	test	ward_and_allport	82	19.0	0.12	to_board	poldrack-single-stim	s574	False
1.0	200.962	7.168	200.961	0	PA_without_intermediate	test	ward_and_allport	-1	19.0	n/a	feedback	poldrack-single-stim	s574	False
1.966	208.135	1.966	210.101	1	PA_without_intermediate	test	ward_and_allport	71	20.0	1.966	to_hand	poldrack-single-stim	s574	False
0.1	210.102	0.137	210.239	0	PA_without_intermediate	test	ward_and_allport	89	20.0	0.137	to_board	poldrack-single-stim	s574	False
0.1	210.244	0.682	210.926	0	PA_without_intermediate	test	ward_and_allport	71	20.0	0.682	to_hand	poldrack-single-stim	s574	False
0.1	210.927	0.141	211.068	0	PA_without_intermediate	test	ward_and_allport	82	20.0	0.141	to_board	poldrack-single-stim	s574	False
0.1	211.073	0.624	211.697	0	PA_without_intermediate	test	ward_and_allport	71	20.0	0.624	to_hand	poldrack-single-stim	s574	False
0.1	211.698	0.043	211.741	0	PA_without_intermediate	test	ward_and_allport	89	20.0	0.043	to_board	poldrack-single-stim	s574	False
1.0	211.751	2.816	211.75	0	PA_without_intermediate	test	ward_and_allport	-1	20.0	n/a	feedback	poldrack-single-stim	s574	False
2.571	214.572	2.571	217.143	1	PA_with_intermediate	test	ward_and_allport	82	21.0	2.571	to_hand	poldrack-single-stim	s574	False
0.1	217.144	0.091	217.235	0	PA_with_intermediate	test	ward_and_allport	89	21.0	0.091	to_board	poldrack-single-stim	s574	False
0.1	217.241	0.914	218.155	0	PA_with_intermediate	test	ward_and_allport	82	21.0	0.914	to_hand	poldrack-single-stim	s574	False
0.1	218.156	0.107	218.263	0	PA_with_intermediate	test	ward_and_allport	71	21.0	0.107	to_board	poldrack-single-stim	s574	False
0.1	218.269	0.769	219.038	0	PA_with_intermediate	test	ward_and_allport	89	21.0	0.769	to_hand	poldrack-single-stim	s574	False
0.1	219.039	0.09	219.129	0	PA_with_intermediate	test	ward_and_allport	82	21.0	0.09	to_board	poldrack-single-stim	s574	False
1.0	219.135	2.952	219.134	0	PA_with_intermediate	test	ward_and_allport	-1	21.0	n/a	feedback	poldrack-single-stim	s574	False
2.863	222.092	2.863	224.955	1	PA_with_intermediate	test	ward_and_allport	82	22.0	2.863	to_hand	poldrack-single-stim	s574	False
0.1	224.957	0.076	225.033	0	PA_with_intermediate	test	ward_and_allport	71	22.0	0.076	to_board	poldrack-single-stim	s574	False
0.1	225.04	0.759	225.799	0	PA_with_intermediate	test	ward_and_allport	82	22.0	0.759	to_hand	poldrack-single-stim	s574	False
0.1	225.799	0.098	225.897	0	PA_with_intermediate	test	ward_and_allport	89	22.0	0.098	to_board	poldrack-single-stim	s574	False
0.1	225.904	1.518	227.422	0	PA_with_intermediate	test	ward_and_allport	71	22.0	1.518	to_hand	poldrack-single-stim	s574	False
0.1	227.422	0.087	227.509	0	PA_with_intermediate	test	ward_and_allport	82	22.0	0.087	to_board	poldrack-single-stim	s574	False
1.0	227.52	2.136	227.519	0	PA_with_intermediate	test	ward_and_allport	-1	22.0	n/a	feedback	poldrack-single-stim	s574	False
1.777	229.662	1.777	231.439	1	PA_without_intermediate	test	ward_and_allport	89	23.0	1.777	to_hand	poldrack-single-stim	s574	False
0.1	231.44	0.15	231.59	0	PA_without_intermediate	test	ward_and_allport	71	23.0	0.15	to_board	poldrack-single-stim	s574	False
0.1	231.596	1.198	232.794	0	PA_without_intermediate	test	ward_and_allport	89	23.0	1.198	to_hand	poldrack-single-stim	s574	False
0.1	232.795	0.098	232.893	0	PA_without_intermediate	test	ward_and_allport	82	23.0	0.098	to_board	poldrack-single-stim	s574	False
0.1	232.899	0.301	233.2	0	PA_without_intermediate	test	ward_and_allport	89	23.0	0.301	to_hand	poldrack-single-stim	s574	False
0.1	233.201	0.104	233.305	0	PA_without_intermediate	test	ward_and_allport	71	23.0	0.104	to_board	poldrack-single-stim	s574	False
1.0	233.312	2.68	233.311	0	PA_without_intermediate	test	ward_and_allport	-1	23.0	n/a	feedback	poldrack-single-stim	s574	False
1.756	235.999	1.756	237.755	1	PA_without_intermediate	test	ward_and_allport	89	24.0	1.756	to_hand	poldrack-single-stim	s574	False
0.1	237.756	0.068	237.824	0	PA_without_intermediate	test	ward_and_allport	71	24.0	0.068	to_board	poldrack-single-stim	s574	False
0.1	237.83	1.037	238.867	0	PA_without_intermediate	test	ward_and_allport	89	24.0	1.037	to_hand	poldrack-single-stim	s574	False
0.1	238.868	0.1	238.968	0	PA_without_intermediate	test	ward_and_allport	82	24.0	0.1	to_board	poldrack-single-stim	s574	False
0.1	238.975	0.292	239.267	0	PA_without_intermediate	test	ward_and_allport	89	24.0	0.292	to_hand	poldrack-single-stim	s574	False
0.1	239.268	0.075	239.343	0	PA_without_intermediate	test	ward_and_allport	71	24.0	0.075	to_board	poldrack-single-stim	s574	False
1.0	239.352	3.088	239.351	0	PA_without_intermediate	test	ward_and_allport	-1	24.0	n/a	feedback	poldrack-single-stim	s574	False
1.387	242.446	1.387	243.833	1	PA_with_intermediate	test	ward_and_allport	82	25.0	1.387	to_hand	poldrack-single-stim	s574	False
0.1	243.834	0.074	243.908	0	PA_with_intermediate	test	ward_and_allport	89	25.0	0.074	to_board	poldrack-single-stim	s574	False
0.1	243.915	1.509	245.424	0	PA_with_intermediate	test	ward_and_allport	82	25.0	1.509	to_hand	poldrack-single-stim	s574	False
0.1	245.425	0.14	245.565	0	PA_with_intermediate	test	ward_and_allport	71	25.0	0.14	to_board	poldrack-single-stim	s574	False
0.1	245.572	0.504	246.076	0	PA_with_intermediate	test	ward_and_allport	89	25.0	0.504	to_hand	poldrack-single-stim	s574	False
0.1	246.078	0.074	246.152	0	PA_with_intermediate	test	ward_and_allport	71	25.0	0.074	to_board	poldrack-single-stim	s574	False
1.0	246.163	2.0	246.162	0	PA_with_intermediate	test	ward_and_allport	-1	25.0	n/a	feedback	poldrack-single-stim	s574	False
1.094	248.169	1.094	249.263	1	PA_without_intermediate	test	ward_and_allport	82	26.0	1.094	to_hand	poldrack-single-stim	s574	False
0.1	249.264	0.043	249.307	0	PA_without_intermediate	test	ward_and_allport	71	26.0	0.043	to_board	poldrack-single-stim	s574	False
0.1	249.318	1.01	250.328	0	PA_without_intermediate	test	ward_and_allport	82	26.0	1.01	to_hand	poldrack-single-stim	s574	False
0.1	250.328	0.031	250.359	0	PA_without_intermediate	test	ward_and_allport	89	26.0	0.031	to_board	poldrack-single-stim	s574	False
0.1	250.369	0.818	251.187	0	PA_without_intermediate	test	ward_and_allport	82	26.0	0.818	to_hand	poldrack-single-stim	s574	False
0.1	251.187	0.073	251.26	0	PA_without_intermediate	test	ward_and_allport	71	26.0	0.073	to_board	poldrack-single-stim	s574	False
1.0	251.273	2.0	251.272	0	PA_without_intermediate	test	ward_and_allport	-1	26.0	n/a	feedback	poldrack-single-stim	s574	False
3.123	253.28	3.123	256.403	1	PA_without_intermediate	test	ward_and_allport	71	27.0	3.123	to_hand	poldrack-single-stim	s574	False
0.1	256.404	0.112	256.516	0	PA_without_intermediate	test	ward_and_allport	82	27.0	0.112	to_board	poldrack-single-stim	s574	False
0.1	256.523	0.514	257.037	0	PA_without_intermediate	test	ward_and_allport	71	27.0	0.514	to_hand	poldrack-single-stim	s574	False
0.1	257.039	0.08	257.119	0	PA_without_intermediate	test	ward_and_allport	89	27.0	0.08	to_board	poldrack-single-stim	s574	False
0.1	257.126	0.386	257.512	0	PA_without_intermediate	test	ward_and_allport	71	27.0	0.386	to_hand	poldrack-single-stim	s574	False
0.1	257.514	0.082	257.596	0	PA_without_intermediate	test	ward_and_allport	82	27.0	0.082	to_board	poldrack-single-stim	s574	False
1.0	257.604	2.0	257.603	0	PA_without_intermediate	test	ward_and_allport	-1	27.0	n/a	feedback	poldrack-single-stim	s574	False
1.823	259.61	1.823	261.433	1	PA_with_intermediate	test	ward_and_allport	89	28.0	1.823	to_hand	poldrack-single-stim	s574	False
0.1	261.435	0.12	261.555	0	PA_with_intermediate	test	ward_and_allport	82	28.0	0.12	to_board	poldrack-single-stim	s574	False
0.1	261.563	1.334	262.897	0	PA_with_intermediate	test	ward_and_allport	89	28.0	1.334	to_hand	poldrack-single-stim	s574	False
0.1	262.898	0.065	262.963	0	PA_with_intermediate	test	ward_and_allport	71	28.0	0.065	to_board	poldrack-single-stim	s574	False
0.1	262.97	0.839	263.809	0	PA_with_intermediate	test	ward_and_allport	71	28.0	0.839	to_hand	poldrack-single-stim	s574	False
0.1	263.809	0.007	263.816	0	PA_with_intermediate	test	ward_and_allport	82	28.0	0.007	to_board	poldrack-single-stim	s574	False
0.1	263.826	1.249	265.075	0	PA_with_intermediate	test	ward_and_allport	82	28.0	1.249	to_hand	poldrack-single-stim	s574	False
0.1	265.077	0.054	265.131	0	PA_with_intermediate	test	ward_and_allport	71	28.0	0.054	to_board	poldrack-single-stim	s574	False
0.1	265.138	0.506	265.644	0	PA_with_intermediate	test	ward_and_allport	82	28.0	0.506	to_hand	poldrack-single-stim	s574	False
0.1	265.646	0.038	265.684	0	PA_with_intermediate	test	ward_and_allport	71	28.0	0.038	to_board	poldrack-single-stim	s574	False
1.0	265.695	2.544	265.694	0	PA_with_intermediate	test	ward_and_allport	-1	28.0	n/a	feedback	poldrack-single-stim	s574	False
1.77	268.245	1.77	270.015	1	PA_without_intermediate	test	ward_and_allport	71	29.0	1.77	to_hand	poldrack-single-stim	s574	False
0.1	270.015	0.203	270.218	0	PA_without_intermediate	test	ward_and_allport	82	29.0	0.203	to_board	poldrack-single-stim	s574	False
0.1	270.225	0.649	270.874	0	PA_without_intermediate	test	ward_and_allport	71	29.0	0.649	to_hand	poldrack-single-stim	s574	False
0.1	270.875	0.116	270.991	0	PA_without_intermediate	test	ward_and_allport	89	29.0	0.116	to_board	poldrack-single-stim	s574	False
0.1	270.999	0.429	271.428	0	PA_without_intermediate	test	ward_and_allport	71	29.0	0.429	to_hand	poldrack-single-stim	s574	False
0.1	271.428	0.18	271.608	0	PA_without_intermediate	test	ward_and_allport	82	29.0	0.18	to_board	poldrack-single-stim	s574	False
1.0	271.62	2.272	271.619	0	PA_without_intermediate	test	ward_and_allport	-1	29.0	n/a	feedback	poldrack-single-stim	s574	False
1.506	278.903	1.506	280.409	1	PA_with_intermediate	test	ward_and_allport	82	30.0	1.506	to_hand	poldrack-single-stim	s574	False
0.1	280.411	0.26	280.671	0	PA_with_intermediate	test	ward_and_allport	71	30.0	0.26	to_board	poldrack-single-stim	s574	False
0.1	280.678	0.287	280.965	0	PA_with_intermediate	test	ward_and_allport	82	30.0	0.287	to_hand	poldrack-single-stim	s574	False
0.1	280.965	0.289	281.254	0	PA_with_intermediate	test	ward_and_allport	89	30.0	0.289	to_board	poldrack-single-stim	s574	False
0.1	281.262	0.597	281.859	0	PA_with_intermediate	test	ward_and_allport	71	30.0	0.597	to_hand	poldrack-single-stim	s574	False
0.1	281.86	0.231	282.091	0	PA_with_intermediate	test	ward_and_allport	89	30.0	0.231	to_board	poldrack-single-stim	s574	False
1.0	282.103	4.04	282.102	0	PA_with_intermediate	test	ward_and_allport	-1	30.0	n/a	feedback	poldrack-single-stim	s574	False
1.422	286.151	1.422	287.573	1	PA_with_intermediate	test	ward_and_allport	89	31.0	1.422	to_hand	poldrack-single-stim	s574	False
0.1	287.574	0.45	288.024	0	PA_with_intermediate	test	ward_and_allport	82	31.0	0.45	to_board	poldrack-single-stim	s574	False
0.1	288.032	1.92	289.952	0	PA_with_intermediate	test	ward_and_allport	82	31.0	1.92	to_hand	poldrack-single-stim	s574	False
0.1	289.954	0.102	290.056	0	PA_with_intermediate	test	ward_and_allport	71	31.0	0.102	to_board	poldrack-single-stim	s574	False
0.1	290.065	0.706	290.771	0	PA_with_intermediate	test	ward_and_allport	89	31.0	0.706	to_hand	poldrack-single-stim	s574	False
0.1	290.772	0.116	290.888	0	PA_with_intermediate	test	ward_and_allport	82	31.0	0.116	to_board	poldrack-single-stim	s574	False
0.1	290.896	0.878	291.774	0	PA_with_intermediate	test	ward_and_allport	71	31.0	0.878	to_hand	poldrack-single-stim	s574	False
0.1	291.775	0.074	291.849	0	PA_with_intermediate	test	ward_and_allport	89	31.0	0.074	to_board	poldrack-single-stim	s574	False
1.0	291.861	2.272	291.86	0	PA_with_intermediate	test	ward_and_allport	-1	31.0	n/a	feedback	poldrack-single-stim	s574	False
2.56	294.14	2.56	296.7	1	PA_with_intermediate	test	ward_and_allport	89	32.0	2.56	to_hand	poldrack-single-stim	s574	False
0.1	296.701	1.35	298.051	0	PA_with_intermediate	test	ward_and_allport	82	32.0	1.35	to_board	poldrack-single-stim	s574	False
0.1	298.058	0.79	298.848	0	PA_with_intermediate	test	ward_and_allport	89	32.0	0.79	to_hand	poldrack-single-stim	s574	False
0.1	298.849	0.296	299.145	0	PA_with_intermediate	test	ward_and_allport	71	32.0	0.296	to_board	poldrack-single-stim	s574	False
0.1	299.152	0.36	299.512	0	PA_with_intermediate	test	ward_and_allport	82	32.0	0.36	to_hand	poldrack-single-stim	s574	False
0.1	299.514	0.203	299.717	0	PA_with_intermediate	test	ward_and_allport	89	32.0	0.203	to_board	poldrack-single-stim	s574	False
1.0	299.731	2.136	299.73	0	PA_with_intermediate	test	ward_and_allport	-1	32.0	n/a	feedback	poldrack-single-stim	s574	False
2.729	301.876	2.729	304.605	1	PA_with_intermediate	test	ward_and_allport	71	33.0	2.729	to_hand	poldrack-single-stim	s574	False
0.1	304.606	0.213	304.819	0	PA_with_intermediate	test	ward_and_allport	82	33.0	0.213	to_board	poldrack-single-stim	s574	False
0.1	304.828	0.412	305.24	0	PA_with_intermediate	test	ward_and_allport	71	33.0	0.412	to_hand	poldrack-single-stim	s574	False
0.1	305.241	0.123	305.364	0	PA_with_intermediate	test	ward_and_allport	89	33.0	0.123	to_board	poldrack-single-stim	s574	False
0.1	305.372	0.312	305.684	0	PA_with_intermediate	test	ward_and_allport	82	33.0	0.312	to_hand	poldrack-single-stim	s574	False
0.1	305.685	0.141	305.826	0	PA_with_intermediate	test	ward_and_allport	89	33.0	0.141	to_board	poldrack-single-stim	s574	False
1.0	305.835	2.0	305.834	0	PA_with_intermediate	test	ward_and_allport	-1	33.0	n/a	feedback	poldrack-single-stim	s574	False
3.473	307.841	3.473	311.314	1	PA_with_intermediate	test	ward_and_allport	89	34.0	3.473	to_hand	poldrack-single-stim	s574	False
0.1	311.316	0.181	311.497	0	PA_with_intermediate	test	ward_and_allport	71	34.0	0.181	to_board	poldrack-single-stim	s574	False
0.1	311.504	0.462	311.966	0	PA_with_intermediate	test	ward_and_allport	89	34.0	0.462	to_hand	poldrack-single-stim	s574	False
0.1	311.967	0.227	312.194	0	PA_with_intermediate	test	ward_and_allport	82	34.0	0.227	to_board	poldrack-single-stim	s574	False
0.1	312.203	0.321	312.524	0	PA_with_intermediate	test	ward_and_allport	71	34.0	0.321	to_hand	poldrack-single-stim	s574	False
0.1	312.525	0.154	312.679	0	PA_with_intermediate	test	ward_and_allport	89	34.0	0.154	to_board	poldrack-single-stim	s574	False
1.0	312.688	2.0	312.687	0	PA_with_intermediate	test	ward_and_allport	-1	34.0	n/a	feedback	poldrack-single-stim	s574	False
1.404	314.696	1.404	316.1	1	PA_without_intermediate	test	ward_and_allport	82	35.0	1.404	to_hand	poldrack-single-stim	s574	False
0.1	316.101	0.562	316.663	0	PA_without_intermediate	test	ward_and_allport	89	35.0	0.562	to_board	poldrack-single-stim	s574	False
0.1	316.67	0.374	317.044	0	PA_without_intermediate	test	ward_and_allport	82	35.0	0.374	to_hand	poldrack-single-stim	s574	False
0.1	317.044	0.145	317.189	0	PA_without_intermediate	test	ward_and_allport	89	35.0	0.145	to_board	poldrack-single-stim	s574	False
0.1	317.196	0.839	318.035	0	PA_without_intermediate	test	ward_and_allport	82	35.0	0.839	to_hand	poldrack-single-stim	s574	False
0.1	318.036	0.232	318.268	0	PA_without_intermediate	test	ward_and_allport	71	35.0	0.232	to_board	poldrack-single-stim	s574	False
1.0	318.275	2.408	318.274	0	PA_without_intermediate	test	ward_and_allport	-1	35.0	n/a	feedback	poldrack-single-stim	s574	False
1.588	320.691	1.588	322.279	1	PA_with_intermediate	test	ward_and_allport	89	36.0	1.588	to_hand	poldrack-single-stim	s574	False
0.1	322.279	0.401	322.68	0	PA_with_intermediate	test	ward_and_allport	82	36.0	0.401	to_board	poldrack-single-stim	s574	False
0.1	322.686	1.081	323.767	0	PA_with_intermediate	test	ward_and_allport	82	36.0	1.081	to_hand	poldrack-single-stim	s574	False
0.1	323.769	0.2	323.969	0	PA_with_intermediate	test	ward_and_allport	71	36.0	0.2	to_board	poldrack-single-stim	s574	False
0.1	323.978	0.739	324.717	0	PA_with_intermediate	test	ward_and_allport	89	36.0	0.739	to_hand	poldrack-single-stim	s574	False
0.1	324.718	0.114	324.832	0	PA_with_intermediate	test	ward_and_allport	82	36.0	0.114	to_board	poldrack-single-stim	s574	False
0.1	324.842	0.3	325.142	0	PA_with_intermediate	test	ward_and_allport	71	36.0	0.3	to_hand	poldrack-single-stim	s574	False
0.1	325.143	0.171	325.314	0	PA_with_intermediate	test	ward_and_allport	82	36.0	0.171	to_board	poldrack-single-stim	s574	False
1.0	325.327	3.768	325.326	0	PA_with_intermediate	test	ward_and_allport	-1	36.0	n/a	feedback	poldrack-single-stim	s574	False
3.556	329.102	3.556	332.658	1	PA_with_intermediate	test	ward_and_allport	82	37.0	3.556	to_hand	poldrack-single-stim	s574	False
0.1	332.658	0.24	332.898	0	PA_with_intermediate	test	ward_and_allport	89	37.0	0.24	to_board	poldrack-single-stim	s574	False
0.1	332.906	1.103	334.009	0	PA_with_intermediate	test	ward_and_allport	82	37.0	1.103	to_hand	poldrack-single-stim	s574	False
0.1	334.01	0.252	334.262	0	PA_with_intermediate	test	ward_and_allport	71	37.0	0.252	to_board	poldrack-single-stim	s574	False
0.1	334.27	0.26	334.53	0	PA_with_intermediate	test	ward_and_allport	89	37.0	0.26	to_hand	poldrack-single-stim	s574	False
0.1	334.532	0.17	334.702	0	PA_with_intermediate	test	ward_and_allport	82	37.0	0.17	to_board	poldrack-single-stim	s574	False
1.0	334.713	2.68	334.712	0	PA_with_intermediate	test	ward_and_allport	-1	37.0	n/a	feedback	poldrack-single-stim	s574	False
2.164	337.403	2.164	339.567	1	PA_without_intermediate	test	ward_and_allport	71	38.0	2.164	to_hand	poldrack-single-stim	s574	False
0.1	339.568	0.281	339.849	0	PA_without_intermediate	test	ward_and_allport	82	38.0	0.281	to_board	poldrack-single-stim	s574	False
0.1	339.858	0.256	340.114	0	PA_without_intermediate	test	ward_and_allport	71	38.0	0.256	to_hand	poldrack-single-stim	s574	False
0.1	340.115	1.107	341.222	0	PA_without_intermediate	test	ward_and_allport	82	38.0	1.107	to_board	poldrack-single-stim	s574	False
0.1	341.231	0.6	341.831	0	PA_without_intermediate	test	ward_and_allport	71	38.0	0.6	to_hand	poldrack-single-stim	s574	False
0.1	341.832	0.099	341.931	0	PA_without_intermediate	test	ward_and_allport	89	38.0	0.099	to_board	poldrack-single-stim	s574	False
1.0	341.94	3.224	341.939	0	PA_without_intermediate	test	ward_and_allport	-1	38.0	n/a	feedback	poldrack-single-stim	s574	False
1.163	345.171	1.163	346.334	1	PA_without_intermediate	test	ward_and_allport	82	39.0	1.163	to_hand	poldrack-single-stim	s574	False
0.1	346.335	0.19	346.525	0	PA_without_intermediate	test	ward_and_allport	89	39.0	0.19	to_board	poldrack-single-stim	s574	False
0.1	346.532	1.361	347.893	0	PA_without_intermediate	test	ward_and_allport	82	39.0	1.361	to_hand	poldrack-single-stim	s574	False
0.1	347.894	0.174	348.068	0	PA_without_intermediate	test	ward_and_allport	71	39.0	0.174	to_board	poldrack-single-stim	s574	False
0.1	348.075	0.348	348.423	0	PA_without_intermediate	test	ward_and_allport	82	39.0	0.348	to_hand	poldrack-single-stim	s574	False
0.1	348.424	0.134	348.558	0	PA_without_intermediate	test	ward_and_allport	89	39.0	0.134	to_board	poldrack-single-stim	s574	False
1.0	348.567	3.36	348.566	0	PA_without_intermediate	test	ward_and_allport	-1	39.0	n/a	feedback	poldrack-single-stim	s574	False
2.219	351.937	2.219	354.156	1	PA_without_intermediate	test	ward_and_allport	89	40.0	2.219	to_hand	poldrack-single-stim	s574	False
0.1	354.156	0.326	354.482	0	PA_without_intermediate	test	ward_and_allport	82	40.0	0.326	to_board	poldrack-single-stim	s574	False
0.1	354.492	0.564	355.056	0	PA_without_intermediate	test	ward_and_allport	89	40.0	0.564	to_hand	poldrack-single-stim	s574	False
0.1	355.057	0.209	355.266	0	PA_without_intermediate	test	ward_and_allport	82	40.0	0.209	to_board	poldrack-single-stim	s574	False
0.1	355.276	1.113	356.389	0	PA_without_intermediate	test	ward_and_allport	89	40.0	1.113	to_hand	poldrack-single-stim	s574	False
0.1	356.39	0.328	356.718	0	PA_without_intermediate	test	ward_and_allport	71	40.0	0.328	to_board	poldrack-single-stim	s574	False
1.0	356.733	2.0	356.732	0	PA_without_intermediate	test	ward_and_allport	-1	40.0	n/a	feedback	poldrack-single-stim	s574	False
1.185	358.742	1.185	359.927	1	PA_without_intermediate	test	ward_and_allport	71	41.0	1.185	to_hand	poldrack-single-stim	s574	False
0.1	359.928	0.325	360.253	0	PA_without_intermediate	test	ward_and_allport	89	41.0	0.325	to_board	poldrack-single-stim	s574	False
0.1	360.26	0.878	361.138	0	PA_without_intermediate	test	ward_and_allport	71	41.0	0.878	to_hand	poldrack-single-stim	s574	False
0.1	361.14	0.347	361.487	0	PA_without_intermediate	test	ward_and_allport	82	41.0	0.347	to_board	poldrack-single-stim	s574	False
0.1	361.494	0.357	361.851	0	PA_without_intermediate	test	ward_and_allport	71	41.0	0.357	to_hand	poldrack-single-stim	s574	False
0.1	361.852	0.182	362.034	0	PA_without_intermediate	test	ward_and_allport	89	41.0	0.182	to_board	poldrack-single-stim	s574	False
1.0	362.042	2.408	362.041	0	PA_without_intermediate	test	ward_and_allport	-1	41.0	n/a	feedback	poldrack-single-stim	s574	False
2.564	364.458	2.564	367.022	1	PA_with_intermediate	test	ward_and_allport	89	42.0	2.564	to_hand	poldrack-single-stim	s574	False
0.1	367.023	1.583	368.606	0	PA_with_intermediate	test	ward_and_allport	82	42.0	1.583	to_board	poldrack-single-stim	s574	False
0.1	368.617	0.438	369.055	0	PA_with_intermediate	test	ward_and_allport	89	42.0	0.438	to_hand	poldrack-single-stim	s574	False
0.1	369.057	0.194	369.251	0	PA_with_intermediate	test	ward_and_allport	71	42.0	0.194	to_board	poldrack-single-stim	s574	False
0.1	369.262	0.316	369.578	0	PA_with_intermediate	test	ward_and_allport	82	42.0	0.316	to_hand	poldrack-single-stim	s574	False
0.1	369.578	0.215	369.793	0	PA_with_intermediate	test	ward_and_allport	89	42.0	0.215	to_board	poldrack-single-stim	s574	False
1.0	369.806	2.136	369.805	0	PA_with_intermediate	test	ward_and_allport	-1	42.0	n/a	feedback	poldrack-single-stim	s574	False
0.974	371.949	0.974	372.923	1	PA_without_intermediate	test	ward_and_allport	71	43.0	0.974	to_hand	poldrack-single-stim	s574	False
0.1	372.925	0.876	373.801	0	PA_without_intermediate	test	ward_and_allport	82	43.0	0.876	to_board	poldrack-single-stim	s574	False
0.1	373.81	0.195	374.005	0	PA_without_intermediate	test	ward_and_allport	71	43.0	0.195	to_hand	poldrack-single-stim	s574	False
0.1	374.005	0.23	374.235	0	PA_without_intermediate	test	ward_and_allport	82	43.0	0.23	to_board	poldrack-single-stim	s574	False
0.1	374.243	0.341	374.584	0	PA_without_intermediate	test	ward_and_allport	71	43.0	0.341	to_hand	poldrack-single-stim	s574	False
0.1	374.586	0.318	374.904	0	PA_without_intermediate	test	ward_and_allport	89	43.0	0.318	to_board	poldrack-single-stim	s574	False
1.0	374.918	5.128	374.917	0	PA_without_intermediate	test	ward_and_allport	-1	43.0	n/a	feedback	poldrack-single-stim	s574	False
1.168	380.054	1.168	381.222	1	PA_without_intermediate	test	ward_and_allport	82	44.0	1.168	to_hand	poldrack-single-stim	s574	False
0.1	381.223	0.224	381.447	0	PA_without_intermediate	test	ward_and_allport	89	44.0	0.224	to_board	poldrack-single-stim	s574	False
0.1	381.454	0.495	381.949	0	PA_without_intermediate	test	ward_and_allport	82	44.0	0.495	to_hand	poldrack-single-stim	s574	False
0.1	381.951	0.294	382.245	0	PA_without_intermediate	test	ward_and_allport	89	44.0	0.294	to_board	poldrack-single-stim	s574	False
0.1	382.254	0.422	382.676	0	PA_without_intermediate	test	ward_and_allport	82	44.0	0.422	to_hand	poldrack-single-stim	s574	False
0.1	382.678	0.22	382.898	0	PA_without_intermediate	test	ward_and_allport	71	44.0	0.22	to_board	poldrack-single-stim	s574	False
1.0	382.913	2.136	382.912	0	PA_without_intermediate	test	ward_and_allport	-1	44.0	n/a	feedback	poldrack-single-stim	s574	False
1.528	390.061	1.528	391.589	1	PA_without_intermediate	test	ward_and_allport	89	45.0	1.528	to_hand	poldrack-single-stim	s574	False
0.1	391.59	0.404	391.994	0	PA_without_intermediate	test	ward_and_allport	71	45.0	0.404	to_board	poldrack-single-stim	s574	False
0.1	392.004	0.355	392.359	0	PA_without_intermediate	test	ward_and_allport	89	45.0	0.355	to_hand	poldrack-single-stim	s574	False
0.1	392.361	0.288	392.649	0	PA_without_intermediate	test	ward_and_allport	71	45.0	0.288	to_board	poldrack-single-stim	s574	False
0.1	392.66	0.281	392.941	0	PA_without_intermediate	test	ward_and_allport	89	45.0	0.281	to_hand	poldrack-single-stim	s574	False
0.1	392.943	0.287	393.23	0	PA_without_intermediate	test	ward_and_allport	82	45.0	0.287	to_board	poldrack-single-stim	s574	False
1.0	393.241	5.264	393.24	0	PA_without_intermediate	test	ward_and_allport	-1	45.0	n/a	feedback	poldrack-single-stim	s574	False
1.921	398.514	1.921	400.435	1	PA_with_intermediate	test	ward_and_allport	71	46.0	1.921	to_hand	poldrack-single-stim	s574	False
0.1	400.436	0.891	401.327	0	PA_with_intermediate	test	ward_and_allport	82	46.0	0.891	to_board	poldrack-single-stim	s574	False
0.1	401.337	0.256	401.593	0	PA_with_intermediate	test	ward_and_allport	71	46.0	0.256	to_hand	poldrack-single-stim	s574	False
0.1	401.594	0.198	401.792	0	PA_with_intermediate	test	ward_and_allport	89	46.0	0.198	to_board	poldrack-single-stim	s574	False
0.1	401.804	0.243	402.047	0	PA_with_intermediate	test	ward_and_allport	82	46.0	0.243	to_hand	poldrack-single-stim	s574	False
0.1	402.049	0.195	402.244	0	PA_with_intermediate	test	ward_and_allport	71	46.0	0.195	to_board	poldrack-single-stim	s574	False
1.0	402.258	4.04	402.257	0	PA_with_intermediate	test	ward_and_allport	-1	46.0	n/a	feedback	poldrack-single-stim	s574	False
1.683	406.306	1.683	407.989	1	PA_with_intermediate	test	ward_and_allport	82	47.0	1.683	to_hand	poldrack-single-stim	s574	False
0.1	407.991	1.348	409.339	0	PA_with_intermediate	test	ward_and_allport	71	47.0	1.348	to_board	poldrack-single-stim	s574	False
0.1	409.347	0.229	409.576	0	PA_with_intermediate	test	ward_and_allport	82	47.0	0.229	to_hand	poldrack-single-stim	s574	False
0.1	409.577	0.265	409.842	0	PA_with_intermediate	test	ward_and_allport	89	47.0	0.265	to_board	poldrack-single-stim	s574	False
0.1	409.853	0.189	410.042	0	PA_with_intermediate	test	ward_and_allport	71	47.0	0.189	to_hand	poldrack-single-stim	s574	False
0.1	410.043	0.223	410.266	0	PA_with_intermediate	test	ward_and_allport	89	47.0	0.223	to_board	poldrack-single-stim	s574	False
1.0	410.279	2.136	410.278	0	PA_with_intermediate	test	ward_and_allport	-1	47.0	n/a	feedback	poldrack-single-stim	s574	False
