onset	duration	movement_onset	CTI	block_duration	correct	correct_response	cue	cue_switch	experiment_exp_id	key_press	response_time	stim_color	stim_number	switch_type	task	task_switch	trial_id	trial_type	worker_id	first_trial_of_block	junk
4.424	1.0	6.806	0.9	2.136	True	71.0	Orange-Blue	n/a	twobytwo	71.0	1.482	orange	4.0	task_switch	color	switch	stim	poldrack-single-stim	s574	1	False
6.669	1.0	7.917	0.1	2.68	True	71.0	Orange-Blue	stay	twobytwo	71.0	1.148	orange	9.0	cue_stay	color	stay	stim	poldrack-single-stim	s574	0	False
9.461	1.0	10.499	0.1	2.544	True	71.0	Color	switch	twobytwo	71.0	0.938	orange	2.0	cue_switch	color	stay	stim	poldrack-single-stim	s574	0	False
12.912	1.0	15.073	0.9	2.272	True	89.0	Orange-Blue	switch	twobytwo	89.0	1.261	blue	8.0	cue_switch	color	stay	stim	poldrack-single-stim	s574	0	False
16.093	1.0	17.441	0.9	2.272	True	89.0	Color	switch	twobytwo	89.0	0.448	blue	3.0	cue_switch	color	stay	stim	poldrack-single-stim	s574	0	False
19.272	1.0	20.758	0.9	2.408	True	89.0	Magnitude	n/a	twobytwo	89.0	0.586	orange	7.0	task_switch	magnitude	switch	stim	poldrack-single-stim	s574	0	False
22.585	1.0	24.288	0.9	2.136	True	89.0	Magnitude	stay	twobytwo	89.0	0.803	orange	6.0	cue_stay	magnitude	stay	stim	poldrack-single-stim	s574	0	False
24.827	1.0	26.063	0.1	2.272	True	71.0	Orange-Blue	n/a	twobytwo	71.0	1.136	orange	9.0	task_switch	color	switch	stim	poldrack-single-stim	s574	0	False
28.006	1.0	29.522	0.9	2.0	True	89.0	Color	switch	twobytwo	89.0	0.616	blue	3.0	cue_switch	color	stay	stim	poldrack-single-stim	s574	0	False
30.115	1.0	31.508	0.1	2.136	True	71.0	Orange-Blue	switch	twobytwo	71.0	1.293	orange	6.0	cue_switch	color	stay	stim	poldrack-single-stim	s574	0	False
33.158	1.0	34.532	0.9	2.272	True	89.0	Orange-Blue	stay	twobytwo	89.0	0.474	blue	1.0	cue_stay	color	stay	stim	poldrack-single-stim	s574	0	False
35.537	1.0	37.057	0.1	2.0	True	71.0	High-Low	n/a	twobytwo	71.0	1.42	blue	2.0	task_switch	magnitude	switch	stim	poldrack-single-stim	s574	0	False
37.646	1.0	38.858	0.1	2.68	True	71.0	Color	n/a	twobytwo	71.0	1.112	orange	9.0	task_switch	color	switch	stim	poldrack-single-stim	s574	0	False
41.233	1.0	42.64	0.9	2.0	True	71.0	Orange-Blue	switch	twobytwo	71.0	0.507	orange	6.0	cue_switch	color	stay	stim	poldrack-single-stim	s574	0	False
43.34	1.0	44.549	0.1	2.0	True	89.0	High-Low	n/a	twobytwo	89.0	1.109	orange	7.0	task_switch	magnitude	switch	stim	poldrack-single-stim	s574	0	False
45.447	1.0	46.746	0.1	2.0	True	71.0	High-Low	stay	twobytwo	71.0	1.199	orange	4.0	cue_stay	magnitude	stay	stim	poldrack-single-stim	s574	0	False
48.35	1.0	49.651	0.9	2.272	True	89.0	Orange-Blue	n/a	twobytwo	89.0	0.401	blue	9.0	task_switch	color	switch	stim	poldrack-single-stim	s574	0	False
50.732	1.0	51.743	0.1	2.0	True	89.0	Magnitude	n/a	twobytwo	89.0	0.911	blue	8.0	task_switch	magnitude	switch	stim	poldrack-single-stim	s574	0	False
52.841	1.0	54.145	0.1	2.0	True	71.0	Color	n/a	twobytwo	71.0	1.204	orange	9.0	task_switch	color	switch	stim	poldrack-single-stim	s574	0	False
55.751	1.0	57.101	0.9	2.0	True	89.0	Magnitude	n/a	twobytwo	89.0	0.45	blue	6.0	task_switch	magnitude	switch	stim	poldrack-single-stim	s574	0	False
58.661	1.0	60.037	0.9	2.68	True	89.0	Magnitude	stay	twobytwo	89.0	0.476	blue	8.0	cue_stay	magnitude	stay	stim	poldrack-single-stim	s574	0	False
62.248	1.0	64.147	0.9	2.0	True	71.0	Magnitude	stay	twobytwo	71.0	0.999	orange	4.0	cue_stay	magnitude	stay	stim	poldrack-single-stim	s574	0	False
65.157	1.0	66.858	0.9	2.136	True	71.0	Color	n/a	twobytwo	71.0	0.801	orange	2.0	task_switch	color	switch	stim	poldrack-single-stim	s574	0	False
68.199	1.0	70.236	0.9	2.408	True	89.0	Orange-Blue	switch	twobytwo	89.0	1.137	blue	7.0	cue_switch	color	stay	stim	poldrack-single-stim	s574	0	False
71.515	1.0	73.156	0.9	2.136	False	71.0	Orange-Blue	stay	twobytwo	89.0	0.741	orange	6.0	cue_stay	color	stay	stim	poldrack-single-stim	s574	0	False
74.557	1.0	75.911	0.9	2.0	True	71.0	Orange-Blue	stay	twobytwo	71.0	0.454	orange	4.0	cue_stay	color	stay	stim	poldrack-single-stim	s574	0	False
76.664	1.0	77.849	0.1	2.0	True	71.0	Magnitude	n/a	twobytwo	71.0	1.085	blue	3.0	task_switch	magnitude	switch	stim	poldrack-single-stim	s574	0	False
79.571	1.0	81.163	0.9	2.544	True	89.0	Color	n/a	twobytwo	89.0	0.692	blue	6.0	task_switch	color	switch	stim	poldrack-single-stim	s574	0	False
82.219	1.0	82.941	0.1	2.136	True	89.0	Color	stay	twobytwo	89.0	0.622	blue	9.0	cue_stay	color	stay	stim	poldrack-single-stim	s574	0	False
84.462	1.0	85.154	0.1	2.544	True	89.0	Color	stay	twobytwo	89.0	0.592	blue	2.0	cue_stay	color	stay	stim	poldrack-single-stim	s574	0	False
87.91	1.0	89.318	0.9	2.68	True	89.0	Magnitude	n/a	twobytwo	89.0	0.508	blue	9.0	task_switch	magnitude	switch	stim	poldrack-single-stim	s574	0	False
90.697	1.0	92.14	0.1	2.0	True	89.0	High-Low	switch	twobytwo	89.0	1.343	blue	6.0	cue_switch	magnitude	stay	stim	poldrack-single-stim	s574	0	False
92.802	1.0	93.856	0.1	2.272	True	89.0	Orange-Blue	n/a	twobytwo	89.0	0.954	blue	1.0	task_switch	color	switch	stim	poldrack-single-stim	s574	0	False
95.982	1.0	97.305	0.9	3.088	True	89.0	Magnitude	n/a	twobytwo	89.0	0.423	blue	7.0	task_switch	magnitude	switch	stim	poldrack-single-stim	s574	0	False
99.182	1.0	99.941	0.1	2.0	True	71.0	Orange-Blue	n/a	twobytwo	71.0	0.659	orange	1.0	task_switch	color	switch	stim	poldrack-single-stim	s574	0	False
101.292	1.0	102.519	0.1	2.136	True	89.0	Orange-Blue	stay	twobytwo	89.0	1.127	blue	8.0	cue_stay	color	stay	stim	poldrack-single-stim	s574	0	False
104.332	1.0	105.836	0.9	2.136	True	89.0	High-Low	n/a	twobytwo	89.0	0.604	blue	6.0	task_switch	magnitude	switch	stim	poldrack-single-stim	s574	0	False
107.375	1.0	109.189	0.9	2.0	True	71.0	High-Low	stay	twobytwo	71.0	0.914	blue	1.0	cue_stay	magnitude	stay	stim	poldrack-single-stim	s574	0	False
110.281	1.0	112.14	0.9	2.272	True	89.0	Magnitude	switch	twobytwo	89.0	0.959	orange	6.0	cue_switch	magnitude	stay	stim	poldrack-single-stim	s574	0	False
113.46	1.0	114.751	0.9	2.0	True	71.0	Orange-Blue	n/a	twobytwo	71.0	0.391	orange	1.0	task_switch	color	switch	stim	poldrack-single-stim	s574	0	False
116.364	1.0	117.909	0.9	2.136	True	89.0	High-Low	n/a	twobytwo	89.0	0.645	orange	8.0	task_switch	magnitude	switch	stim	poldrack-single-stim	s574	0	False
118.607	1.0	119.466	0.1	2.136	True	71.0	Color	n/a	twobytwo	71.0	0.759	orange	9.0	task_switch	color	switch	stim	poldrack-single-stim	s574	0	False
121.652	1.0	123.406	0.9	2.544	True	89.0	Color	stay	twobytwo	89.0	0.854	blue	8.0	cue_stay	color	stay	stim	poldrack-single-stim	s574	0	False
124.303	1.0	125.18	0.1	2.0	True	89.0	High-Low	n/a	twobytwo	89.0	0.777	blue	7.0	task_switch	magnitude	switch	stim	poldrack-single-stim	s574	0	False
126.41	1.0	127.558	0.1	2.136	False	89.0	High-Low	stay	twobytwo	71.0	1.048	orange	8.0	cue_stay	magnitude	stay	stim	poldrack-single-stim	s574	0	False
129.453	1.0	130.865	0.9	2.136	True	89.0	Orange-Blue	n/a	twobytwo	89.0	0.512	blue	3.0	task_switch	color	switch	stim	poldrack-single-stim	s574	0	False
131.698	1.0	132.789	0.1	2.136	True	89.0	High-Low	n/a	twobytwo	89.0	0.991	blue	6.0	task_switch	magnitude	switch	stim	poldrack-single-stim	s574	0	False
133.941	1.0	134.847	0.1	2.0	True	89.0	Orange-Blue	n/a	twobytwo	89.0	0.806	blue	8.0	task_switch	color	switch	stim	poldrack-single-stim	s574	0	False
136.05	1.0	137.212	0.1	2.136	True	71.0	Magnitude	n/a	twobytwo	71.0	1.062	orange	3.0	task_switch	magnitude	switch	stim	poldrack-single-stim	s574	0	False
139.093	1.0	140.717	0.9	2.0	True	71.0	Magnitude	stay	twobytwo	71.0	0.724	orange	3.0	cue_stay	magnitude	stay	stim	poldrack-single-stim	s574	0	False
141.997	1.0	143.437	0.9	2.136	True	71.0	High-Low	switch	twobytwo	71.0	0.54	blue	1.0	cue_switch	magnitude	stay	stim	poldrack-single-stim	s574	0	False
145.04	1.0	146.434	0.9	2.816	True	89.0	Orange-Blue	n/a	twobytwo	89.0	0.494	blue	2.0	task_switch	color	switch	stim	poldrack-single-stim	s574	0	False
147.96	1.0	148.953	0.1	2.136	True	71.0	Orange-Blue	stay	twobytwo	71.0	0.893	orange	6.0	cue_stay	color	stay	stim	poldrack-single-stim	s574	0	False
151.001	1.0	152.347	0.9	2.0	True	71.0	Orange-Blue	stay	twobytwo	71.0	0.446	orange	1.0	cue_stay	color	stay	stim	poldrack-single-stim	s574	0	False
153.11	1.0	154.358	0.1	2.0	True	71.0	Magnitude	n/a	twobytwo	71.0	1.148	orange	2.0	task_switch	magnitude	switch	stim	poldrack-single-stim	s574	0	False
155.217	1.0	156.129	0.1	2.272	True	71.0	Magnitude	stay	twobytwo	71.0	0.812	blue	4.0	cue_stay	magnitude	stay	stim	poldrack-single-stim	s574	0	False
157.593	1.0	158.828	0.1	2.0	True	89.0	Orange-Blue	n/a	twobytwo	89.0	1.135	blue	4.0	task_switch	color	switch	stim	poldrack-single-stim	s574	0	False
159.702	1.0	160.807	0.1	2.0	True	89.0	Magnitude	n/a	twobytwo	89.0	1.005	blue	6.0	task_switch	magnitude	switch	stim	poldrack-single-stim	s574	0	False
161.809	1.0	162.889	0.1	2.0	True	89.0	Color	n/a	twobytwo	89.0	0.98	blue	8.0	task_switch	color	switch	stim	poldrack-single-stim	s574	0	False
164.718	1.0	166.143	0.9	2.408	True	71.0	Magnitude	n/a	twobytwo	71.0	0.525	orange	1.0	task_switch	magnitude	switch	stim	poldrack-single-stim	s574	0	False
167.233	1.0	167.825	0.1	2.272	False	71.0	Magnitude	stay	twobytwo	89.0	0.492	blue	2.0	cue_stay	magnitude	stay	stim	poldrack-single-stim	s574	0	False
170.409	1.0	171.726	0.9	2.136	True	71.0	Orange-Blue	n/a	twobytwo	71.0	0.417	orange	8.0	task_switch	color	switch	stim	poldrack-single-stim	s574	0	False
173.45	1.0	175.097	0.9	2.0	True	89.0	Color	switch	twobytwo	89.0	0.747	blue	2.0	cue_switch	color	stay	stim	poldrack-single-stim	s574	0	False
176.359	1.0	177.84	0.9	2.0	True	89.0	Magnitude	n/a	twobytwo	89.0	0.581	orange	6.0	task_switch	magnitude	switch	stim	poldrack-single-stim	s574	0	False
178.468	1.0	179.563	0.1	2.136	True	71.0	Color	n/a	twobytwo	71.0	0.995	orange	3.0	task_switch	color	switch	stim	poldrack-single-stim	s574	0	False
181.511	1.0	183.236	0.9	2.0	True	71.0	Magnitude	n/a	twobytwo	71.0	0.825	orange	4.0	task_switch	magnitude	switch	stim	poldrack-single-stim	s574	0	False
184.415	1.0	185.723	0.9	2.136	True	89.0	Orange-Blue	n/a	twobytwo	89.0	0.408	blue	8.0	task_switch	color	switch	stim	poldrack-single-stim	s574	0	False
187.455	1.0	189.177	0.9	2.408	True	71.0	Orange-Blue	stay	twobytwo	71.0	0.822	orange	9.0	cue_stay	color	stay	stim	poldrack-single-stim	s574	0	False
190.767	1.0	192.209	0.9	2.136	True	89.0	Magnitude	n/a	twobytwo	89.0	0.542	orange	9.0	task_switch	magnitude	switch	stim	poldrack-single-stim	s574	0	False
193.81	1.0	195.74	0.9	2.0	True	71.0	Orange-Blue	n/a	twobytwo	71.0	1.03	orange	6.0	task_switch	color	switch	stim	poldrack-single-stim	s574	0	False
196.714	1.0	198.429	0.9	2.136	True	71.0	Magnitude	n/a	twobytwo	71.0	0.815	blue	4.0	task_switch	magnitude	switch	stim	poldrack-single-stim	s574	0	False
198.953	1.0	200.219	0.1	2.272	True	89.0	Magnitude	stay	twobytwo	89.0	1.166	orange	9.0	cue_stay	magnitude	stay	stim	poldrack-single-stim	s574	0	False
202.131	1.0	203.967	0.9	2.0	True	89.0	Orange-Blue	n/a	twobytwo	89.0	0.936	blue	9.0	task_switch	color	switch	stim	poldrack-single-stim	s574	0	False
204.24	1.0	205.015	0.1	2.408	True	89.0	High-Low	n/a	twobytwo	89.0	0.675	orange	6.0	task_switch	magnitude	switch	stim	poldrack-single-stim	s574	0	False
207.555	1.0	208.959	0.9	2.0	True	89.0	Magnitude	switch	twobytwo	89.0	0.504	blue	7.0	cue_switch	magnitude	stay	stim	poldrack-single-stim	s574	0	False
210.464	1.0	211.946	0.9	2.136	False	89.0	Orange-Blue	n/a	twobytwo	71.0	0.582	blue	3.0	task_switch	color	switch	stim	poldrack-single-stim	s574	0	False
213.504	1.0	215.026	0.9	2.408	True	71.0	High-Low	n/a	twobytwo	71.0	0.622	orange	1.0	task_switch	magnitude	switch	stim	poldrack-single-stim	s574	0	False
216.816	1.0	218.302	0.9	2.136	True	89.0	Orange-Blue	n/a	twobytwo	89.0	0.586	blue	1.0	task_switch	color	switch	stim	poldrack-single-stim	s574	0	False
219.857	1.0	221.365	0.9	2.408	True	71.0	Magnitude	n/a	twobytwo	71.0	0.608	orange	1.0	task_switch	magnitude	switch	stim	poldrack-single-stim	s574	0	False
223.169	1.0	224.655	0.9	2.136	False	89.0	Color	n/a	twobytwo	71.0	0.586	blue	4.0	task_switch	color	switch	stim	poldrack-single-stim	s574	0	False
239.732	1.0	241.527	0.9	2.0	True	71.0	Orange-Blue	n/a	twobytwo	71.0	0.895	orange	4.0	task_switch	color	switch	stim	poldrack-single-stim	s574	1	False
241.839	1.0	242.816	0.1	2.272	True	71.0	Orange-Blue	stay	twobytwo	71.0	0.877	orange	9.0	cue_stay	color	stay	stim	poldrack-single-stim	s574	0	False
244.223	1.0	245.332	0.1	2.0	True	71.0	Color	switch	twobytwo	71.0	1.009	orange	2.0	cue_switch	color	stay	stim	poldrack-single-stim	s574	0	False
247.135	1.0	248.695	0.9	2.272	True	89.0	Orange-Blue	switch	twobytwo	89.0	0.66	blue	8.0	cue_switch	color	stay	stim	poldrack-single-stim	s574	0	False
250.314	1.0	251.852	0.9	2.272	True	89.0	Color	switch	twobytwo	89.0	0.638	blue	3.0	cue_switch	color	stay	stim	poldrack-single-stim	s574	0	False
253.49	1.0	255.111	0.9	2.952	True	89.0	Magnitude	n/a	twobytwo	89.0	0.721	orange	7.0	task_switch	magnitude	switch	stim	poldrack-single-stim	s574	0	False
257.346	1.0	258.814	0.9	2.68	True	89.0	Magnitude	stay	twobytwo	89.0	0.568	orange	6.0	cue_stay	magnitude	stay	stim	poldrack-single-stim	s574	0	False
260.136	1.0	261.354	0.1	2.136	True	71.0	Orange-Blue	n/a	twobytwo	71.0	1.118	orange	9.0	task_switch	color	switch	stim	poldrack-single-stim	s574	0	False
263.178	1.0	264.547	0.9	2.272	True	89.0	Color	switch	twobytwo	89.0	0.469	blue	3.0	cue_switch	color	stay	stim	poldrack-single-stim	s574	0	False
265.557	1.0	266.404	0.1	2.272	True	71.0	Orange-Blue	switch	twobytwo	71.0	0.747	orange	6.0	cue_switch	color	stay	stim	poldrack-single-stim	s574	0	False
268.732	1.0	270.169	0.9	2.136	True	89.0	Orange-Blue	stay	twobytwo	89.0	0.537	blue	1.0	cue_stay	color	stay	stim	poldrack-single-stim	s574	0	False
270.973	1.0	272.31	0.1	2.408	True	71.0	Magnitude	n/a	twobytwo	71.0	1.237	blue	2.0	task_switch	magnitude	switch	stim	poldrack-single-stim	s574	0	False
273.485	1.0	274.405	0.1	2.136	False	71.0	Color	n/a	twobytwo	89.0	0.82	orange	9.0	task_switch	color	switch	stim	poldrack-single-stim	s574	0	False
276.525	1.0	278.21	0.9	2.136	True	71.0	Orange-Blue	switch	twobytwo	71.0	0.785	orange	6.0	cue_switch	color	stay	stim	poldrack-single-stim	s574	0	False
278.768	1.0	279.862	0.1	2.0	True	89.0	Magnitude	n/a	twobytwo	89.0	0.994	orange	7.0	task_switch	magnitude	switch	stim	poldrack-single-stim	s574	0	False
280.875	1.0	282.121	0.1	2.0	True	71.0	Magnitude	stay	twobytwo	71.0	1.146	orange	4.0	cue_stay	magnitude	stay	stim	poldrack-single-stim	s574	0	False
283.787	1.0	285.145	0.9	2.0	True	89.0	Orange-Blue	n/a	twobytwo	89.0	0.458	blue	9.0	task_switch	color	switch	stim	poldrack-single-stim	s574	0	False
285.898	1.0	286.811	0.1	2.0	True	89.0	High-Low	n/a	twobytwo	89.0	0.813	blue	8.0	task_switch	magnitude	switch	stim	poldrack-single-stim	s574	0	False
288.006	1.0	288.915	0.1	2.0	True	71.0	Orange-Blue	n/a	twobytwo	71.0	0.809	orange	9.0	task_switch	color	switch	stim	poldrack-single-stim	s574	0	False
290.913	1.0	292.333	0.9	2.272	True	89.0	High-Low	n/a	twobytwo	89.0	0.52	blue	6.0	task_switch	magnitude	switch	stim	poldrack-single-stim	s574	0	False
294.089	1.0	295.435	0.9	2.408	True	89.0	High-Low	stay	twobytwo	89.0	0.446	blue	8.0	cue_stay	magnitude	stay	stim	poldrack-single-stim	s574	0	False
297.404	1.0	298.755	0.9	2.0	True	71.0	High-Low	stay	twobytwo	71.0	0.451	orange	4.0	cue_stay	magnitude	stay	stim	poldrack-single-stim	s574	0	False
300.309	1.0	301.7	0.9	2.136	True	71.0	Color	n/a	twobytwo	71.0	0.491	orange	2.0	task_switch	color	switch	stim	poldrack-single-stim	s574	0	False
303.354	1.0	304.767	0.9	2.0	True	89.0	Orange-Blue	switch	twobytwo	89.0	0.513	blue	7.0	cue_switch	color	stay	stim	poldrack-single-stim	s574	0	False
306.26	1.0	307.55	0.9	2.136	True	71.0	Orange-Blue	stay	twobytwo	71.0	0.39	orange	6.0	cue_stay	color	stay	stim	poldrack-single-stim	s574	0	False
309.303	1.0	310.694	0.9	2.544	True	71.0	Orange-Blue	stay	twobytwo	71.0	0.491	orange	4.0	cue_stay	color	stay	stim	poldrack-single-stim	s574	0	False
311.951	1.0	312.851	0.1	2.68	True	71.0	Magnitude	n/a	twobytwo	71.0	0.8	blue	3.0	task_switch	magnitude	switch	stim	poldrack-single-stim	s574	0	False
315.538	1.0	316.94	0.9	3.088	True	89.0	Color	n/a	twobytwo	89.0	0.502	blue	6.0	task_switch	color	switch	stim	poldrack-single-stim	s574	0	False
318.73	1.0	319.363	0.1	2.136	True	89.0	Color	stay	twobytwo	89.0	0.533	blue	9.0	cue_stay	color	stay	stim	poldrack-single-stim	s574	0	False
320.973	1.0	321.673	0.1	2.544	True	89.0	Color	stay	twobytwo	89.0	0.6	blue	2.0	cue_stay	color	stay	stim	poldrack-single-stim	s574	0	False
324.421	1.0	325.8	0.9	2.0	True	89.0	High-Low	n/a	twobytwo	89.0	0.479	blue	9.0	task_switch	magnitude	switch	stim	poldrack-single-stim	s574	0	False
326.528	1.0	327.329	0.1	2.136	True	89.0	Magnitude	switch	twobytwo	89.0	0.701	blue	6.0	cue_switch	magnitude	stay	stim	poldrack-single-stim	s574	0	False
328.77	1.0	329.39	0.1	2.0	False	89.0	Color	n/a	twobytwo	71.0	0.52	blue	1.0	task_switch	color	switch	stim	poldrack-single-stim	s574	0	False
331.674	1.0	332.974	0.9	2.408	True	89.0	High-Low	n/a	twobytwo	89.0	0.4	blue	7.0	task_switch	magnitude	switch	stim	poldrack-single-stim	s574	0	False
334.189	1.0	334.985	0.1	2.0	True	71.0	Orange-Blue	n/a	twobytwo	71.0	0.696	orange	1.0	task_switch	color	switch	stim	poldrack-single-stim	s574	0	False
336.296	1.0	336.94	0.1	2.0	True	89.0	Orange-Blue	stay	twobytwo	89.0	0.544	blue	8.0	cue_stay	color	stay	stim	poldrack-single-stim	s574	0	False
339.203	1.0	340.538	0.9	2.0	True	89.0	Magnitude	n/a	twobytwo	89.0	0.435	blue	6.0	task_switch	magnitude	switch	stim	poldrack-single-stim	s574	0	False
342.105	1.0	343.59	0.9	2.68	True	71.0	Magnitude	stay	twobytwo	71.0	0.585	blue	1.0	cue_stay	magnitude	stay	stim	poldrack-single-stim	s574	0	False
345.694	1.0	347.128	0.9	2.272	True	89.0	High-Low	switch	twobytwo	89.0	0.534	orange	6.0	cue_switch	magnitude	stay	stim	poldrack-single-stim	s574	0	False
348.869	1.0	350.308	0.9	2.408	True	71.0	Color	n/a	twobytwo	71.0	0.539	orange	1.0	task_switch	color	switch	stim	poldrack-single-stim	s574	0	False
352.183	1.0	353.887	0.9	3.224	False	89.0	Magnitude	n/a	twobytwo	71.0	0.804	orange	8.0	task_switch	magnitude	switch	stim	poldrack-single-stim	s574	0	False
355.515	1.0	356.623	0.1	2.408	True	71.0	Orange-Blue	n/a	twobytwo	71.0	1.008	orange	9.0	task_switch	color	switch	stim	poldrack-single-stim	s574	0	False
358.83	1.0	360.135	0.9	2.816	True	89.0	Orange-Blue	stay	twobytwo	89.0	0.405	blue	8.0	cue_stay	color	stay	stim	poldrack-single-stim	s574	0	False
361.756	1.0	362.521	0.1	2.408	True	89.0	Magnitude	n/a	twobytwo	89.0	0.665	blue	7.0	task_switch	magnitude	switch	stim	poldrack-single-stim	s574	0	False
364.268	1.0	365.91	0.1	2.136	True	89.0	Magnitude	stay	twobytwo	89.0	1.542	orange	8.0	cue_stay	magnitude	stay	stim	poldrack-single-stim	s574	0	False
367.308	1.0	368.766	0.9	2.136	False	89.0	Orange-Blue	n/a	twobytwo	71.0	0.558	blue	3.0	task_switch	color	switch	stim	poldrack-single-stim	s574	0	False
369.551	1.0	370.375	0.1	2.0	True	89.0	High-Low	n/a	twobytwo	89.0	0.724	blue	6.0	task_switch	magnitude	switch	stim	poldrack-single-stim	s574	0	False
371.657	1.0	372.71	0.1	2.0	True	89.0	Color	n/a	twobytwo	89.0	0.953	blue	8.0	task_switch	color	switch	stim	poldrack-single-stim	s574	0	False
373.761	1.0	374.482	0.1	2.272	True	71.0	Magnitude	n/a	twobytwo	71.0	0.621	orange	3.0	task_switch	magnitude	switch	stim	poldrack-single-stim	s574	0	False
376.94	1.0	378.348	0.9	2.408	True	71.0	Magnitude	stay	twobytwo	71.0	0.508	orange	3.0	cue_stay	magnitude	stay	stim	poldrack-single-stim	s574	0	False
380.255	1.0	382.012	0.9	2.0	True	71.0	High-Low	switch	twobytwo	71.0	0.857	blue	1.0	cue_switch	magnitude	stay	stim	poldrack-single-stim	s574	0	False
383.159	1.0	384.723	0.9	2.136	True	89.0	Color	n/a	twobytwo	89.0	0.664	blue	2.0	task_switch	color	switch	stim	poldrack-single-stim	s574	0	False
385.407	1.0	386.342	0.1	2.0	True	71.0	Color	stay	twobytwo	71.0	0.835	orange	6.0	cue_stay	color	stay	stim	poldrack-single-stim	s574	0	False
388.315	1.0	389.84	0.9	2.408	True	71.0	Color	stay	twobytwo	71.0	0.625	orange	1.0	cue_stay	color	stay	stim	poldrack-single-stim	s574	0	False
390.831	1.0	391.728	0.1	2.272	True	71.0	High-Low	n/a	twobytwo	71.0	0.797	orange	2.0	task_switch	magnitude	switch	stim	poldrack-single-stim	s574	0	False
393.21	1.0	394.172	0.1	2.0	True	71.0	High-Low	stay	twobytwo	71.0	0.862	blue	4.0	cue_stay	magnitude	stay	stim	poldrack-single-stim	s574	0	False
395.317	1.0	396.408	0.1	2.272	False	89.0	Orange-Blue	n/a	twobytwo	71.0	0.991	blue	4.0	task_switch	color	switch	stim	poldrack-single-stim	s574	0	False
397.696	1.0	398.678	0.1	2.0	True	89.0	High-Low	n/a	twobytwo	89.0	0.882	blue	6.0	task_switch	magnitude	switch	stim	poldrack-single-stim	s574	0	False
399.802	1.0	400.764	0.1	2.0	True	89.0	Orange-Blue	n/a	twobytwo	89.0	0.862	blue	8.0	task_switch	color	switch	stim	poldrack-single-stim	s574	0	False
402.709	1.0	404.262	0.9	2.272	True	71.0	High-Low	n/a	twobytwo	71.0	0.653	orange	1.0	task_switch	magnitude	switch	stim	poldrack-single-stim	s574	0	False
405.085	1.0	405.868	0.1	2.136	True	71.0	High-Low	stay	twobytwo	71.0	0.683	blue	2.0	cue_stay	magnitude	stay	stim	poldrack-single-stim	s574	0	False
408.128	1.0	409.431	0.9	2.0	True	71.0	Color	n/a	twobytwo	71.0	0.403	orange	8.0	task_switch	color	switch	stim	poldrack-single-stim	s574	0	False
411.035	1.0	412.442	0.9	2.0	True	89.0	Orange-Blue	switch	twobytwo	89.0	0.507	blue	2.0	cue_switch	color	stay	stim	poldrack-single-stim	s574	0	False
413.942	1.0	415.295	0.9	2.0	True	89.0	Magnitude	n/a	twobytwo	89.0	0.453	orange	6.0	task_switch	magnitude	switch	stim	poldrack-single-stim	s574	0	False
416.048	1.0	416.807	0.1	2.0	True	71.0	Orange-Blue	n/a	twobytwo	71.0	0.659	orange	3.0	task_switch	color	switch	stim	poldrack-single-stim	s574	0	False
418.959	1.0	420.339	0.9	2.0	True	71.0	High-Low	n/a	twobytwo	71.0	0.48	orange	4.0	task_switch	magnitude	switch	stim	poldrack-single-stim	s574	0	False
421.864	1.0	423.364	0.9	2.136	True	89.0	Color	n/a	twobytwo	89.0	0.6	blue	8.0	task_switch	color	switch	stim	poldrack-single-stim	s574	0	False
424.906	1.0	426.573	0.9	2.0	True	71.0	Color	stay	twobytwo	71.0	0.767	orange	9.0	cue_stay	color	stay	stim	poldrack-single-stim	s574	0	False
427.813	1.0	429.641	0.9	2.0	True	89.0	High-Low	n/a	twobytwo	89.0	0.928	orange	9.0	task_switch	magnitude	switch	stim	poldrack-single-stim	s574	0	False
430.718	1.0	432.633	0.9	2.136	True	71.0	Color	n/a	twobytwo	71.0	1.015	orange	6.0	task_switch	color	switch	stim	poldrack-single-stim	s574	0	False
433.76	1.0	435.365	0.9	2.0	False	71.0	High-Low	n/a	twobytwo	89.0	0.705	blue	4.0	task_switch	magnitude	switch	stim	poldrack-single-stim	s574	0	False
435.871	1.0	436.814	0.1	2.136	False	89.0	High-Low	stay	twobytwo	71.0	0.843	orange	9.0	cue_stay	magnitude	stay	stim	poldrack-single-stim	s574	0	False
438.911	1.0	440.894	0.9	2.68	True	89.0	Orange-Blue	n/a	twobytwo	89.0	1.083	blue	9.0	task_switch	color	switch	stim	poldrack-single-stim	s574	0	False
441.697	1.0	442.569	0.1	2.272	True	89.0	Magnitude	n/a	twobytwo	89.0	0.772	orange	6.0	task_switch	magnitude	switch	stim	poldrack-single-stim	s574	0	False
444.874	1.0	446.498	0.9	2.136	True	89.0	High-Low	switch	twobytwo	89.0	0.724	blue	7.0	cue_switch	magnitude	stay	stim	poldrack-single-stim	s574	0	False
447.922	1.0	449.484	0.9	2.0	True	89.0	Color	n/a	twobytwo	89.0	0.662	blue	3.0	task_switch	color	switch	stim	poldrack-single-stim	s574	0	False
450.826	1.0	452.254	0.9	2.136	True	71.0	High-Low	n/a	twobytwo	71.0	0.528	orange	1.0	task_switch	magnitude	switch	stim	poldrack-single-stim	s574	0	False
453.871	1.0	455.34	0.9	2.68	True	89.0	Orange-Blue	n/a	twobytwo	89.0	0.569	blue	1.0	task_switch	color	switch	stim	poldrack-single-stim	s574	0	False
457.462	1.0	458.918	0.9	2.272	True	71.0	High-Low	n/a	twobytwo	71.0	0.556	orange	1.0	task_switch	magnitude	switch	stim	poldrack-single-stim	s574	0	False
460.642	1.0	462.364	0.9	2.0	True	89.0	Orange-Blue	n/a	twobytwo	89.0	0.822	blue	4.0	task_switch	color	switch	stim	poldrack-single-stim	s574	0	False
477.07	1.0	478.707	0.9	2.0	True	71.0	Orange-Blue	n/a	twobytwo	71.0	0.737	orange	4.0	task_switch	color	switch	stim	poldrack-single-stim	s574	1	False
479.174	1.0	479.845	0.1	2.136	True	71.0	Orange-Blue	stay	twobytwo	71.0	0.571	orange	9.0	cue_stay	color	stay	stim	poldrack-single-stim	s574	0	False
481.416	1.0	482.27	0.1	2.0	True	71.0	Color	switch	twobytwo	71.0	0.754	orange	2.0	cue_switch	color	stay	stim	poldrack-single-stim	s574	0	False
484.323	1.0	485.613	0.9	2.0	True	89.0	Orange-Blue	switch	twobytwo	89.0	0.39	blue	8.0	cue_switch	color	stay	stim	poldrack-single-stim	s574	0	False
487.23	1.0	488.564	0.9	2.0	True	89.0	Color	switch	twobytwo	89.0	0.434	blue	3.0	cue_switch	color	stay	stim	poldrack-single-stim	s574	0	False
490.137	1.0	491.779	0.9	2.272	True	89.0	Magnitude	n/a	twobytwo	89.0	0.742	orange	7.0	task_switch	magnitude	switch	stim	poldrack-single-stim	s574	0	False
493.313	1.0	494.861	0.9	2.408	True	89.0	Magnitude	stay	twobytwo	89.0	0.648	orange	6.0	cue_stay	magnitude	stay	stim	poldrack-single-stim	s574	0	False
495.828	1.0	496.749	0.1	2.0	False	71.0	Color	n/a	twobytwo	89.0	0.821	orange	9.0	task_switch	color	switch	stim	poldrack-single-stim	s574	0	False
498.734	1.0	500.7	0.9	2.0	True	89.0	Orange-Blue	switch	twobytwo	89.0	1.066	blue	3.0	cue_switch	color	stay	stim	poldrack-single-stim	s574	0	False
500.841	1.0	501.598	0.1	2.0	True	71.0	Color	switch	twobytwo	71.0	0.657	orange	6.0	cue_switch	color	stay	stim	poldrack-single-stim	s574	0	False
503.748	1.0	505.16	0.9	2.272	True	89.0	Color	stay	twobytwo	89.0	0.512	blue	1.0	cue_stay	color	stay	stim	poldrack-single-stim	s574	0	False
506.129	1.0	507.198	0.1	2.136	True	71.0	High-Low	n/a	twobytwo	71.0	0.969	blue	2.0	task_switch	magnitude	switch	stim	poldrack-single-stim	s574	0	False
508.372	1.0	509.19	0.1	2.0	True	71.0	Orange-Blue	n/a	twobytwo	71.0	0.718	orange	9.0	task_switch	color	switch	stim	poldrack-single-stim	s574	0	False
511.279	1.0	512.593	0.9	2.544	True	71.0	Color	switch	twobytwo	71.0	0.414	orange	6.0	cue_switch	color	stay	stim	poldrack-single-stim	s574	0	False
513.93	1.0	514.74	0.1	2.272	True	89.0	High-Low	n/a	twobytwo	89.0	0.71	orange	7.0	task_switch	magnitude	switch	stim	poldrack-single-stim	s574	0	False
516.305	1.0	517.024	0.1	2.272	True	71.0	High-Low	stay	twobytwo	71.0	0.619	orange	4.0	cue_stay	magnitude	stay	stim	poldrack-single-stim	s574	0	False
519.487	1.0	520.891	0.9	2.0	True	89.0	Orange-Blue	n/a	twobytwo	89.0	0.504	blue	9.0	task_switch	color	switch	stim	poldrack-single-stim	s574	0	False
521.594	1.0	522.599	0.1	2.0	True	89.0	High-Low	n/a	twobytwo	89.0	0.905	blue	8.0	task_switch	magnitude	switch	stim	poldrack-single-stim	s574	0	False
523.698	1.0	524.694	0.1	2.136	True	71.0	Color	n/a	twobytwo	71.0	0.896	orange	9.0	task_switch	color	switch	stim	poldrack-single-stim	s574	0	False
526.741	1.0	528.152	0.9	2.0	True	89.0	Magnitude	n/a	twobytwo	89.0	0.511	blue	6.0	task_switch	magnitude	switch	stim	poldrack-single-stim	s574	0	False
529.645	1.0	531.378	0.9	2.136	True	89.0	Magnitude	stay	twobytwo	89.0	0.833	blue	8.0	cue_stay	magnitude	stay	stim	poldrack-single-stim	s574	0	False
532.693	1.0	534.101	0.9	2.272	True	71.0	Magnitude	stay	twobytwo	71.0	0.508	orange	4.0	cue_stay	magnitude	stay	stim	poldrack-single-stim	s574	0	False
535.869	1.0	537.215	0.9	2.136	True	71.0	Color	n/a	twobytwo	71.0	0.446	orange	2.0	task_switch	color	switch	stim	poldrack-single-stim	s574	0	False
538.912	1.0	540.345	0.9	2.272	True	89.0	Orange-Blue	switch	twobytwo	89.0	0.533	blue	7.0	cue_switch	color	stay	stim	poldrack-single-stim	s574	0	False
542.091	1.0	543.416	0.9	2.0	True	71.0	Orange-Blue	stay	twobytwo	71.0	0.425	orange	6.0	cue_stay	color	stay	stim	poldrack-single-stim	s574	0	False
544.998	1.0	546.467	0.9	2.816	True	71.0	Orange-Blue	stay	twobytwo	71.0	0.569	orange	4.0	cue_stay	color	stay	stim	poldrack-single-stim	s574	0	False
547.923	1.0	548.97	0.1	2.408	True	71.0	Magnitude	n/a	twobytwo	71.0	0.947	blue	3.0	task_switch	magnitude	switch	stim	poldrack-single-stim	s574	0	False
551.238	1.0	552.661	0.9	2.0	True	89.0	Orange-Blue	n/a	twobytwo	89.0	0.523	blue	6.0	task_switch	color	switch	stim	poldrack-single-stim	s574	0	False
553.345	1.0	554.096	0.1	2.544	True	89.0	Orange-Blue	stay	twobytwo	89.0	0.651	blue	9.0	cue_stay	color	stay	stim	poldrack-single-stim	s574	0	False
556.001	1.0	556.697	0.1	2.136	True	89.0	Orange-Blue	stay	twobytwo	89.0	0.596	blue	2.0	cue_stay	color	stay	stim	poldrack-single-stim	s574	0	False
559.046	1.0	560.52	0.9	2.0	True	89.0	High-Low	n/a	twobytwo	89.0	0.574	blue	9.0	task_switch	magnitude	switch	stim	poldrack-single-stim	s574	0	False
561.156	1.0	562.032	0.1	2.0	True	89.0	Magnitude	switch	twobytwo	89.0	0.776	blue	6.0	cue_switch	magnitude	stay	stim	poldrack-single-stim	s574	0	False
563.262	1.0	564.521	0.1	2.136	True	89.0	Orange-Blue	n/a	twobytwo	89.0	1.159	blue	1.0	task_switch	color	switch	stim	poldrack-single-stim	s574	0	False
566.308	1.0	568.019	0.9	2.136	True	89.0	Magnitude	n/a	twobytwo	89.0	0.811	blue	7.0	task_switch	magnitude	switch	stim	poldrack-single-stim	s574	0	False
568.555	1.0	569.236	0.1	2.272	True	71.0	Color	n/a	twobytwo	71.0	0.581	orange	1.0	task_switch	color	switch	stim	poldrack-single-stim	s574	0	False
570.932	1.0	571.679	0.1	3.224	True	89.0	Color	stay	twobytwo	89.0	0.647	blue	8.0	cue_stay	color	stay	stim	poldrack-single-stim	s574	0	False
575.063	1.0	576.672	0.9	2.0	True	89.0	Magnitude	n/a	twobytwo	89.0	0.709	blue	6.0	task_switch	magnitude	switch	stim	poldrack-single-stim	s574	0	False
577.97	1.0	579.361	0.9	2.0	True	71.0	Magnitude	stay	twobytwo	71.0	0.491	blue	1.0	cue_stay	magnitude	stay	stim	poldrack-single-stim	s574	0	False
580.882	1.0	582.229	0.9	2.272	True	89.0	High-Low	switch	twobytwo	89.0	0.447	orange	6.0	cue_switch	magnitude	stay	stim	poldrack-single-stim	s574	0	False
584.058	1.0	585.45	0.9	2.136	True	71.0	Color	n/a	twobytwo	71.0	0.492	orange	1.0	task_switch	color	switch	stim	poldrack-single-stim	s574	0	False
587.106	1.0	588.495	0.9	2.0	True	89.0	High-Low	n/a	twobytwo	89.0	0.489	orange	8.0	task_switch	magnitude	switch	stim	poldrack-single-stim	s574	0	False
589.209	1.0	590.033	0.1	2.0	False	71.0	Orange-Blue	n/a	twobytwo	89.0	0.724	orange	9.0	task_switch	color	switch	stim	poldrack-single-stim	s574	0	False
592.12	1.0	593.479	0.9	2.0	True	89.0	Orange-Blue	stay	twobytwo	89.0	0.459	blue	8.0	cue_stay	color	stay	stim	poldrack-single-stim	s574	0	False
594.224	1.0	594.976	0.1	2.68	True	89.0	High-Low	n/a	twobytwo	89.0	0.652	blue	7.0	task_switch	magnitude	switch	stim	poldrack-single-stim	s574	0	False
597.009	1.0	597.985	0.1	2.0	True	89.0	High-Low	stay	twobytwo	89.0	0.876	orange	8.0	cue_stay	magnitude	stay	stim	poldrack-single-stim	s574	0	False
599.917	1.0	601.505	0.9	2.272	True	89.0	Orange-Blue	n/a	twobytwo	89.0	0.688	blue	3.0	task_switch	color	switch	stim	poldrack-single-stim	s574	0	False
602.296	1.0	603.872	0.1	2.0	False	89.0	Magnitude	n/a	twobytwo	71.0	1.476	blue	6.0	task_switch	magnitude	switch	stim	poldrack-single-stim	s574	0	False
604.403	1.0	605.292	0.1	2.272	True	89.0	Color	n/a	twobytwo	89.0	0.789	blue	8.0	task_switch	color	switch	stim	poldrack-single-stim	s574	0	False
606.779	1.0	607.538	0.1	2.952	True	71.0	High-Low	n/a	twobytwo	71.0	0.659	orange	3.0	task_switch	magnitude	switch	stim	poldrack-single-stim	s574	0	False
610.643	1.0	612.419	0.9	2.0	True	71.0	High-Low	stay	twobytwo	71.0	0.876	orange	3.0	cue_stay	magnitude	stay	stim	poldrack-single-stim	s574	0	False
613.55	1.0	615.608	0.9	2.0	True	71.0	Magnitude	switch	twobytwo	71.0	1.158	blue	1.0	cue_switch	magnitude	stay	stim	poldrack-single-stim	s574	0	False
616.457	1.0	617.883	0.9	2.0	True	89.0	Orange-Blue	n/a	twobytwo	89.0	0.526	blue	2.0	task_switch	color	switch	stim	poldrack-single-stim	s574	0	False
618.563	1.0	619.522	0.1	2.0	True	71.0	Orange-Blue	stay	twobytwo	71.0	0.859	orange	6.0	cue_stay	color	stay	stim	poldrack-single-stim	s574	0	False
621.467	1.0	622.869	0.9	2.136	True	71.0	Orange-Blue	stay	twobytwo	71.0	0.502	orange	1.0	cue_stay	color	stay	stim	poldrack-single-stim	s574	0	False
623.71	1.0	624.735	0.1	2.0	True	71.0	High-Low	n/a	twobytwo	71.0	0.925	orange	2.0	task_switch	magnitude	switch	stim	poldrack-single-stim	s574	0	False
625.817	1.0	626.757	0.1	2.0	True	71.0	High-Low	stay	twobytwo	71.0	0.84	blue	4.0	cue_stay	magnitude	stay	stim	poldrack-single-stim	s574	0	False
627.924	1.0	628.728	0.1	2.0	True	89.0	Orange-Blue	n/a	twobytwo	89.0	0.704	blue	4.0	task_switch	color	switch	stim	poldrack-single-stim	s574	0	False
630.031	1.0	630.799	0.1	2.272	True	89.0	Magnitude	n/a	twobytwo	89.0	0.668	blue	6.0	task_switch	magnitude	switch	stim	poldrack-single-stim	s574	0	False
632.407	1.0	633.283	0.1	2.136	True	89.0	Color	n/a	twobytwo	89.0	0.776	blue	8.0	task_switch	color	switch	stim	poldrack-single-stim	s574	0	False
635.449	1.0	636.85	0.9	2.0	True	71.0	Magnitude	n/a	twobytwo	71.0	0.501	orange	1.0	task_switch	magnitude	switch	stim	poldrack-single-stim	s574	0	False
637.559	1.0	638.176	0.1	2.136	True	71.0	Magnitude	stay	twobytwo	71.0	0.517	blue	2.0	cue_stay	magnitude	stay	stim	poldrack-single-stim	s574	0	False
640.601	1.0	642.174	0.9	2.816	True	71.0	Color	n/a	twobytwo	71.0	0.673	orange	8.0	task_switch	color	switch	stim	poldrack-single-stim	s574	0	False
644.322	1.0	645.754	0.9	2.408	True	89.0	Orange-Blue	switch	twobytwo	89.0	0.532	blue	2.0	cue_switch	color	stay	stim	poldrack-single-stim	s574	0	False
647.642	1.0	649.202	0.9	2.0	True	89.0	High-Low	n/a	twobytwo	89.0	0.66	orange	6.0	task_switch	magnitude	switch	stim	poldrack-single-stim	s574	0	False
649.746	1.0	650.743	0.1	2.136	True	71.0	Color	n/a	twobytwo	71.0	0.897	orange	3.0	task_switch	color	switch	stim	poldrack-single-stim	s574	0	False
652.791	1.0	654.493	0.9	2.136	True	71.0	Magnitude	n/a	twobytwo	71.0	0.802	orange	4.0	task_switch	magnitude	switch	stim	poldrack-single-stim	s574	0	False
655.837	1.0	657.186	0.9	2.136	True	89.0	Orange-Blue	n/a	twobytwo	89.0	0.449	blue	8.0	task_switch	color	switch	stim	poldrack-single-stim	s574	0	False
658.88	1.0	660.413	0.9	2.544	True	71.0	Orange-Blue	stay	twobytwo	71.0	0.633	orange	9.0	cue_stay	color	stay	stim	poldrack-single-stim	s574	0	False
662.328	1.0	663.829	0.9	2.136	True	89.0	High-Low	n/a	twobytwo	89.0	0.601	orange	9.0	task_switch	magnitude	switch	stim	poldrack-single-stim	s574	0	False
665.372	1.0	666.868	0.9	2.0	True	71.0	Orange-Blue	n/a	twobytwo	71.0	0.596	orange	6.0	task_switch	color	switch	stim	poldrack-single-stim	s574	0	False
668.277	1.0	669.769	0.9	2.0	True	71.0	High-Low	n/a	twobytwo	71.0	0.592	blue	4.0	task_switch	magnitude	switch	stim	poldrack-single-stim	s574	0	False
670.384	1.0	671.143	0.1	2.0	True	89.0	High-Low	stay	twobytwo	89.0	0.659	orange	9.0	cue_stay	magnitude	stay	stim	poldrack-single-stim	s574	0	False
673.291	1.0	674.739	0.9	2.0	True	89.0	Orange-Blue	n/a	twobytwo	89.0	0.548	blue	9.0	task_switch	color	switch	stim	poldrack-single-stim	s574	0	False
675.4	1.0	676.46	0.1	2.136	False	89.0	High-Low	n/a	twobytwo	71.0	0.96	orange	6.0	task_switch	magnitude	switch	stim	poldrack-single-stim	s574	0	False
678.443	1.0	680.385	0.9	2.0	True	89.0	Magnitude	switch	twobytwo	89.0	1.042	blue	7.0	cue_switch	magnitude	stay	stim	poldrack-single-stim	s574	0	False
681.35	1.0	682.925	0.9	2.0	False	89.0	Color	n/a	twobytwo	71.0	0.675	blue	3.0	task_switch	color	switch	stim	poldrack-single-stim	s574	0	False
684.257	1.0	685.928	0.9	2.0	True	71.0	Magnitude	n/a	twobytwo	71.0	0.771	orange	1.0	task_switch	magnitude	switch	stim	poldrack-single-stim	s574	0	False
687.166	1.0	688.59	0.9	2.136	True	89.0	Color	n/a	twobytwo	89.0	0.524	blue	1.0	task_switch	color	switch	stim	poldrack-single-stim	s574	0	False
690.206	1.0	691.688	0.9	2.136	True	71.0	High-Low	n/a	twobytwo	71.0	0.582	orange	1.0	task_switch	magnitude	switch	stim	poldrack-single-stim	s574	0	False
693.246	1.0	694.884	0.9	2.136	True	89.0	Color	n/a	twobytwo	89.0	0.738	blue	4.0	task_switch	color	switch	stim	poldrack-single-stim	s574	0	False
