onset	duration	movement_onset	EV	action	block_duration	experiment_exp_id	gain_amount	gain_probability	key_press	loss_amount	loss_probability	num_cards	num_click_in_round	num_loss_cards	risk	response_time	total_cards	trial_id	trial_type	worker_id	junk	feedback
3.013	1.253	4.266	-0.3689653155774648	draw_card	1.253	columbia_card_task_fmri	12.0	0.8333333333333334	89.0	-70.0	0.1666666666666666	6.0	1.0	1.0	-1.4355104246319286	1.253	1.0	stim	poldrack-single-stim	s574	False	0
5.021	1.5	4.27	n/a	-1.0	2.25	columbia_card_task_fmri	n/a	n/a	-1.0	n/a	n/a	n/a	n/a	n/a	n/a	n/a	n/a	ITI	poldrack-single-stim	s574	False	0
6.523	1.735	8.258	0.4643680177558691	draw_card	1.735	columbia_card_task_fmri	14.0	0.8333333333333334	89.0	-75.0	0.1666666666666666	6.0	1.0	1.0	1.1710711467837598	1.735	n/a	stim	poldrack-single-stim	s574	False	1
8.261	1.534	9.795	-2.5022986489107977	draw_card	1.534	columbia_card_task_fmri	14.0	0.8	89.0	-75.0	0.2	6.0	2.0	1.0	3.6009973392777823	1.534	n/a	stim	poldrack-single-stim	s574	False	1
9.797	2.718	12.515	-6.952298648910799	draw_card	2.718	columbia_card_task_fmri	14.0	0.75	89.0	-75.0	0.25	6.0	3.0	1.0	6.537326244363676	2.718	n/a	stim	poldrack-single-stim	s574	False	1
12.517	0.822	13.339	-14.368965315577466	end_round	0.822	columbia_card_task_fmri	14.0	0.6666666666666667	71.0	-75.0	0.3333333333333333	6.0	4.0	1.0	9.95242011751528	0.822	3.0	stim	poldrack-single-stim	s574	False	1
14.096	1.5	13.345	n/a	-1.0	2.386	columbia_card_task_fmri	n/a	n/a	-1.0	n/a	n/a	n/a	n/a	n/a	n/a	n/a	n/a	ITI	poldrack-single-stim	s574	False	0
15.734	0.945	16.679	2.131034684422535	draw_card	0.945	columbia_card_task_fmri	15.0	0.8333333333333334	89.0	-70.0	0.1666666666666666	6.0	1.0	1.0	-0.3184476339887609	0.945	n/a	stim	poldrack-single-stim	s574	False	1
16.681	0.728	17.409	-0.7022986489107987	draw_card	0.728	columbia_card_task_fmri	15.0	0.8	89.0	-70.0	0.2	6.0	2.0	1.0	2.0021092179002267	0.728	n/a	stim	poldrack-single-stim	s574	False	1
17.411	0.83	18.241	-4.952298648910799	draw_card	0.83	columbia_card_task_fmri	15.0	0.75	89.0	-70.0	0.25	6.0	3.0	1.0	4.806302703398607	0.83	n/a	stim	poldrack-single-stim	s574	False	1
18.242	2.64	20.882	-12.03563198224413	draw_card	2.64	columbia_card_task_fmri	15.0	0.6666666666666667	89.0	-70.0	0.3333333333333333	6.0	4.0	1.0	8.067745770232982	2.64	n/a	stim	poldrack-single-stim	s574	False	1
20.884	0.526	21.41	-26.2022986489108	end_round	0.526	columbia_card_task_fmri	15.0	0.5	71.0	-70.0	0.5	6.0	5.0	1.0	10.49716058902861	0.526	4.0	stim	poldrack-single-stim	s574	False	1
22.164	1.5	21.413	n/a	-1.0	2.59	columbia_card_task_fmri	n/a	n/a	-1.0	n/a	n/a	n/a	n/a	n/a	n/a	n/a	n/a	ITI	poldrack-single-stim	s574	False	0
24.005	0.584	24.589	2.964368017755869	draw_card	0.584	columbia_card_task_fmri	17.0	0.8333333333333334	89.0	-75.0	0.1666666666666666	6.0	1.0	1.0	2.2882782469392424	0.584	n/a	stim	poldrack-single-stim	s574	False	1
24.591	0.652	25.243	-0.1022986489107973	draw_card	0.652	columbia_card_task_fmri	17.0	0.8	89.0	-75.0	0.2	6.0	2.0	1.0	4.800226818514403	0.652	n/a	stim	poldrack-single-stim	s574	False	1
25.243	0.952	26.195	-4.702298648910799	draw_card	0.952	columbia_card_task_fmri	17.0	0.75	89.0	-75.0	0.25	6.0	3.0	1.0	7.835652472869995	0.952	3.0	stim	poldrack-single-stim	s574	False	0
26.95	1.5	26.199	n/a	-1.0	2.658	columbia_card_task_fmri	n/a	n/a	-1.0	n/a	n/a	n/a	n/a	n/a	n/a	n/a	n/a	ITI	poldrack-single-stim	s574	False	0
28.86	0.467	29.327	4.297701351089201	draw_card	0.467	columbia_card_task_fmri	24.0	0.75	89.0	-60.0	0.25	8.0	1.0	2.0	4.373562090615778	0.467	1.0	stim	poldrack-single-stim	s574	False	0
30.083	1.5	29.332	n/a	-1.0	2.386	columbia_card_task_fmri	n/a	n/a	-1.0	n/a	n/a	n/a	n/a	n/a	n/a	n/a	n/a	ITI	poldrack-single-stim	s574	False	0
31.721	0.505	32.226	4.297701351089201	draw_card	0.505	columbia_card_task_fmri	29.0	0.75	89.0	-75.0	0.25	8.0	1.0	2.0	13.029367804233274	0.505	1.0	stim	poldrack-single-stim	s574	False	0
32.982	1.5	32.231	n/a	-1.0	2.386	columbia_card_task_fmri	n/a	n/a	-1.0	n/a	n/a	n/a	n/a	n/a	n/a	n/a	n/a	ITI	poldrack-single-stim	s574	False	0
34.62	0.829	35.449	0.0754791288669816	draw_card	0.829	columbia_card_task_fmri	17.0	0.7777777777777778	89.0	-65.0	0.2222222222222222	9.0	1.0	2.0	2.0926996230677446	0.829	n/a	stim	poldrack-single-stim	s574	False	1
35.451	0.466	35.917	-2.2022986489107987	draw_card	0.466	columbia_card_task_fmri	17.0	0.75	89.0	-65.0	0.25	9.0	2.0	2.0	3.5081007544808145	0.466	n/a	stim	poldrack-single-stim	s574	False	1
35.919	0.659	36.578	-5.130870077482226	draw_card	0.659	columbia_card_task_fmri	17.0	0.7142857142857143	89.0	-65.0	0.2857142857142857	9.0	3.0	2.0	5.043900374455681	0.659	n/a	stim	poldrack-single-stim	s574	False	1
36.58	0.93	37.51	-9.03563198224413	draw_card	0.93	columbia_card_task_fmri	17.0	0.6666666666666667	89.0	-65.0	0.3333333333333333	9.0	4.0	2.0	6.654300382800976	0.93	n/a	stim	poldrack-single-stim	s574	False	1
37.512	1.815	39.327	-14.5022986489108	end_round	1.815	columbia_card_task_fmri	17.0	0.6	71.0	-65.0	0.4	9.0	5.0	2.0	8.169939840569128	1.815	4.0	stim	poldrack-single-stim	s574	False	1
40.084	1.5	39.333	n/a	-1.0	2.25	columbia_card_task_fmri	n/a	n/a	-1.0	n/a	n/a	n/a	n/a	n/a	n/a	n/a	n/a	ITI	poldrack-single-stim	s574	False	0
41.586	0.659	42.245	4.397701351089201	draw_card	0.659	columbia_card_task_fmri	14.0	0.9	89.0	-95.0	0.1	10.0	1.0	1.0	0.7030926467131735	0.659	n/a	stim	poldrack-single-stim	s574	False	1
42.246	0.447	42.693	3.1865902399780888	draw_card	0.447	columbia_card_task_fmri	14.0	0.8888888888888888	89.0	-95.0	0.1111111111111111	10.0	2.0	1.0	2.2573199560030237	0.447	n/a	stim	poldrack-single-stim	s574	False	1
42.694	0.399	43.093	1.6727013510892013	draw_card	0.399	columbia_card_task_fmri	14.0	0.875	89.0	-95.0	0.125	10.0	3.0	1.0	4.049065062253206	0.399	n/a	stim	poldrack-single-stim	s574	False	1
43.094	0.527	43.621	-0.2737272203393699	draw_card	0.527	columbia_card_task_fmri	14.0	0.8571428571428572	89.0	-95.0	0.1428571428571428	10.0	4.0	1.0	6.141477031038427	0.527	n/a	stim	poldrack-single-stim	s574	False	1
43.622	0.41	44.032	-2.868965315577463	draw_card	0.41	columbia_card_task_fmri	14.0	0.8333333333333334	89.0	-95.0	0.1666666666666666	10.0	5.0	1.0	8.619977495924523	0.41	5.0	stim	poldrack-single-stim	s574	False	0
44.789	1.5	44.038	n/a	-1.0	2.318	columbia_card_task_fmri	n/a	n/a	-1.0	n/a	n/a	n/a	n/a	n/a	n/a	n/a	n/a	ITI	poldrack-single-stim	s574	False	0
46.358	0.528	46.886	0.2977013510892012	draw_card	0.528	columbia_card_task_fmri	15.0	0.8	89.0	-65.0	0.2	10.0	1.0	2.0	0.0036552417949451	0.528	n/a	stim	poldrack-single-stim	s574	False	1
46.888	0.396	47.284	-1.4800764266885755	draw_card	0.396	columbia_card_task_fmri	15.0	0.7777777777777778	89.0	-65.0	0.2222222222222222	10.0	2.0	2.0	1.2618369984607227	0.396	n/a	stim	poldrack-single-stim	s574	False	1
47.287	0.772	48.059	-3.702298648910799	draw_card	0.772	columbia_card_task_fmri	15.0	0.75	89.0	-65.0	0.25	10.0	3.0	2.0	2.6426675927924634	0.772	3.0	stim	poldrack-single-stim	s574	False	0
48.814	1.5	48.063	n/a	-1.0	2.25	columbia_card_task_fmri	n/a	n/a	-1.0	n/a	n/a	n/a	n/a	n/a	n/a	n/a	n/a	ITI	poldrack-single-stim	s574	False	0
50.316	0.362	50.678	1.897701351089203	draw_card	0.362	columbia_card_task_fmri	17.0	0.8	89.0	-65.0	0.2	10.0	1.0	2.0	0.8030142339293391	0.362	n/a	stim	poldrack-single-stim	s574	False	1
50.679	0.358	51.037	0.0754791288669816	draw_card	0.358	columbia_card_task_fmri	17.0	0.7777777777777778	89.0	-65.0	0.2222222222222222	10.0	2.0	2.0	2.0926996230677446	0.358	2.0	stim	poldrack-single-stim	s574	False	0
51.791	1.5	51.04	n/a	-1.0	2.25	columbia_card_task_fmri	n/a	n/a	-1.0	n/a	n/a	n/a	n/a	n/a	n/a	n/a	n/a	ITI	poldrack-single-stim	s574	False	0
53.293	0.36	53.653	0.4643680177558691	draw_card	0.36	columbia_card_task_fmri	13.0	0.8333333333333334	89.0	-70.0	0.1666666666666666	12.0	1.0	2.0	-1.0631639516302158	0.36	n/a	stim	poldrack-single-stim	s574	False	1
53.655	1.638	55.293	-0.7932077398198922	draw_card	1.638	columbia_card_task_fmri	13.0	0.8181818181818181	89.0	-70.0	0.1818181818181818	12.0	2.0	2.0	0.0162973122074845	1.638	n/a	stim	poldrack-single-stim	s574	False	1
55.295	0.759	56.054	-2.3022986489107984	draw_card	0.759	columbia_card_task_fmri	13.0	0.8	89.0	-70.0	0.2	12.0	3.0	2.0	1.2027053010011102	0.759	n/a	stim	poldrack-single-stim	s574	False	1
56.055	0.479	56.534	-4.146743093355243	draw_card	0.479	columbia_card_task_fmri	13.0	0.7777777777777778	89.0	-70.0	0.2222222222222222	12.0	4.0	2.0	2.5081420702589767	0.479	n/a	stim	poldrack-single-stim	s574	False	1
56.535	0.478	57.013	-6.452298648910799	draw_card	0.478	columbia_card_task_fmri	13.0	0.75	89.0	-70.0	0.25	12.0	5.0	2.0	3.940828027869351	0.478	n/a	stim	poldrack-single-stim	s574	False	1
57.015	1.172	58.187	-9.416584363196511	draw_card	1.172	columbia_card_task_fmri	13.0	0.7142857142857143	89.0	-70.0	0.2857142857142857	12.0	6.0	2.0	5.495380716578595	1.172	6.0	stim	poldrack-single-stim	s574	False	0
58.941	1.5	58.19	n/a	-1.0	2.386	columbia_card_task_fmri	n/a	n/a	-1.0	n/a	n/a	n/a	n/a	n/a	n/a	n/a	n/a	ITI	poldrack-single-stim	s574	False	0
60.579	0.18	60.759	0.4643680177558691	draw_card	0.18	columbia_card_task_fmri	15.0	0.8333333333333334	89.0	-80.0	0.1666666666666666	12.0	1.0	2.0	3.405537517330181	0.18	n/a	stim	poldrack-single-stim	s574	False	1
60.761	0.342	61.103	-0.975025921638074	draw_card	0.342	columbia_card_task_fmri	15.0	0.8181818181818181	89.0	-80.0	0.1818181818181818	12.0	2.0	2.0	4.64131377475978	0.342	n/a	stim	poldrack-single-stim	s574	False	1
61.105	0.391	61.496	-2.7022986489107987	draw_card	0.391	columbia_card_task_fmri	15.0	0.8	89.0	-80.0	0.2	12.0	3.0	2.0	5.999504918284679	0.391	n/a	stim	poldrack-single-stim	s574	False	1
61.498	0.395	61.893	-4.813409760021911	draw_card	0.395	columbia_card_task_fmri	15.0	0.7777777777777778	89.0	-80.0	0.2222222222222222	12.0	4.0	2.0	7.493939138097239	0.395	n/a	stim	poldrack-single-stim	s574	False	1
61.895	2.112	64.007	-7.452298648910799	draw_card	2.112	columbia_card_task_fmri	15.0	0.75	89.0	-80.0	0.25	12.0	5.0	2.0	9.134023627395791	2.112	n/a	stim	poldrack-single-stim	s574	False	1
64.009	0.508	64.517	-10.845155791767937	end_round	0.508	columbia_card_task_fmri	15.0	0.7142857142857143	71.0	-80.0	0.2857142857142857	12.0	6.0	2.0	10.913593778463955	0.508	5.0	stim	poldrack-single-stim	s574	False	1
65.274	1.5	64.523	n/a	-1.0	2.386	columbia_card_task_fmri	n/a	n/a	-1.0	n/a	n/a	n/a	n/a	n/a	n/a	n/a	n/a	ITI	poldrack-single-stim	s574	False	0
66.911	0.701	67.612	-0.5022986489107977	draw_card	0.701	columbia_card_task_fmri	14.0	0.8	89.0	-65.0	0.2	15.0	1.0	3.0	-0.3960120983564685	0.701	1.0	stim	poldrack-single-stim	s574	False	0
68.368	1.5	67.617	n/a	-1.0	2.726	columbia_card_task_fmri	n/a	n/a	-1.0	n/a	n/a	n/a	n/a	n/a	n/a	n/a	n/a	ITI	poldrack-single-stim	s574	False	0
70.346	0.356	70.702	-0.5772986489107987	draw_card	0.356	columbia_card_task_fmri	1.0	0.9375	89.0	-45.0	0.0625	16.0	1.0	1.0	-20.812454937997583	0.356	n/a	stim	poldrack-single-stim	s574	False	1
70.705	0.451	71.156	-0.7689653155774652	draw_card	0.451	columbia_card_task_fmri	1.0	0.9333333333333332	89.0	-45.0	0.0666666666666666	16.0	2.0	1.0	-20.475082176300976	0.451	n/a	stim	poldrack-single-stim	s574	False	1
71.157	0.408	71.565	-0.9880129346250844	draw_card	0.408	columbia_card_task_fmri	1.0	0.9285714285714286	89.0	-45.0	0.0714285714285714	16.0	3.0	1.0	-20.10497231129599	0.408	n/a	stim	poldrack-single-stim	s574	False	1
71.567	2.82	74.387	-1.240760187372337	draw_card	2.82	columbia_card_task_fmri	1.0	0.9230769230769232	89.0	-45.0	0.0769230769230769	16.0	4.0	1.0	-19.696554675056117	2.82	n/a	stim	poldrack-single-stim	s574	False	1
74.389	1.126	75.515	-1.5356319822441322	draw_card	1.126	columbia_card_task_fmri	1.0	0.9166666666666666	89.0	-45.0	0.0833333333333333	16.0	5.0	1.0	-19.242861388584004	1.126	n/a	stim	poldrack-single-stim	s574	False	1
75.518	1.191	76.709	-1.8841168307289804	draw_card	1.191	columbia_card_task_fmri	1.0	0.9090909090909092	89.0	-45.0	0.0909090909090909	16.0	6.0	1.0	-18.73505637771028	1.191	n/a	stim	poldrack-single-stim	s574	False	1
76.711	0.619	77.33	-2.302298648910799	draw_card	0.619	columbia_card_task_fmri	1.0	0.9	89.0	-45.0	0.1	16.0	7.0	1.0	-18.161765657032763	0.619	7.0	stim	poldrack-single-stim	s574	False	0
78.086	1.5	77.335	n/a	-1.0	2.454	columbia_card_task_fmri	n/a	n/a	-1.0	n/a	n/a	n/a	n/a	n/a	n/a	n/a	n/a	ITI	poldrack-single-stim	s574	False	0
79.793	0.384	80.177	0.3602013510892012	draw_card	0.384	columbia_card_task_fmri	15.0	0.8125	89.0	-70.0	0.1875	16.0	1.0	3.0	1.1792750719357483	0.384	n/a	stim	poldrack-single-stim	s574	False	1
80.18	0.204	80.384	-0.7022986489107987	draw_card	0.204	columbia_card_task_fmri	15.0	0.8	89.0	-70.0	0.2	16.0	2.0	3.0	2.0021092179002267	0.204	n/a	stim	poldrack-single-stim	s574	False	1
80.386	0.214	80.6	-1.916584363196514	draw_card	0.214	columbia_card_task_fmri	15.0	0.7857142857142857	89.0	-70.0	0.2142857142857142	16.0	3.0	3.0	2.879188445973682	0.214	n/a	stim	poldrack-single-stim	s574	False	1
80.602	0.238	80.84	-3.3176832642954155	draw_card	0.238	columbia_card_task_fmri	15.0	0.7692307692307692	89.0	-70.0	0.2307692307692307	16.0	4.0	3.0	3.813485809674333	0.238	4.0	stim	poldrack-single-stim	s574	False	0
81.596	1.5	80.845	n/a	-1.0	2.318	columbia_card_task_fmri	n/a	n/a	-1.0	n/a	n/a	n/a	n/a	n/a	n/a	n/a	n/a	ITI	poldrack-single-stim	s574	False	0
83.167	2.235	85.402	7.297701351089201	draw_card	2.235	columbia_card_task_fmri	30.0	0.7	89.0	-50.0	0.3	10.0	1.0	3.0	4.660919296449691	2.235	n/a	stim	poldrack-single-stim	s574	False	1
85.404	1.691	87.095	4.6310346844225405	draw_card	1.691	columbia_card_task_fmri	30.0	0.6666666666666667	89.0	-50.0	0.3333333333333333	10.0	2.0	3.0	5.712035437528492	1.691	n/a	stim	poldrack-single-stim	s574	False	1
87.097	1.029	88.126	1.2977013510892013	draw_card	1.029	columbia_card_task_fmri	30.0	0.625	89.0	-50.0	0.375	10.0	3.0	3.0	6.728921183040619	1.029	3.0	stim	poldrack-single-stim	s574	False	0
88.88	1.5	88.129	n/a	-1.0	2.318	columbia_card_task_fmri	n/a	n/a	-1.0	n/a	n/a	n/a	n/a	n/a	n/a	n/a	n/a	ITI	poldrack-single-stim	s574	False	0
90.45	0.481	90.931	6.697701351089202	draw_card	0.481	columbia_card_task_fmri	17.0	0.8666666666666667	89.0	-70.0	0.1333333333333333	15.0	1.0	2.0	-2.4198762717054905	0.481	n/a	stim	poldrack-single-stim	s574	False	1
90.934	0.361	91.295	5.869129922517774	draw_card	0.361	columbia_card_task_fmri	17.0	0.8571428571428572	89.0	-70.0	0.1428571428571428	15.0	2.0	2.0	-1.5513430978286458	0.361	n/a	stim	poldrack-single-stim	s574	False	1
91.296	0.441	91.737	4.913085966473816	draw_card	0.441	columbia_card_task_fmri	17.0	0.8461538461538461	89.0	-70.0	0.1538461538461538	15.0	3.0	2.0	-0.6061283413905123	0.441	n/a	stim	poldrack-single-stim	s574	False	1
91.74	0.434	92.174	3.797701351089203	draw_card	0.434	columbia_card_task_fmri	17.0	0.8333333333333334	89.0	-70.0	0.1666666666666666	15.0	4.0	2.0	0.4262980578658428	0.434	n/a	stim	poldrack-single-stim	s574	False	1
92.177	0.563	92.74	2.479519532907381	draw_card	0.563	columbia_card_task_fmri	17.0	0.8181818181818181	89.0	-70.0	0.1818181818181818	15.0	5.0	2.0	1.5578678523117375	0.563	n/a	stim	poldrack-single-stim	s574	False	1
92.743	1.465	94.208	0.8977013510892027	end_round	1.465	columbia_card_task_fmri	17.0	0.8	71.0	-70.0	0.2	15.0	6.0	2.0	2.8015405116914422	1.465	5.0	stim	poldrack-single-stim	s574	False	1
94.962	1.5	94.211	n/a	-1.0	2.59	columbia_card_task_fmri	n/a	n/a	-1.0	n/a	n/a	n/a	n/a	n/a	n/a	n/a	n/a	ITI	poldrack-single-stim	s574	False	0
96.804	0.652	97.456	1.9227013510892013	draw_card	0.652	columbia_card_task_fmri	7.0	0.9375	89.0	-95.0	0.0625	16.0	1.0	1.0	-7.298298498897704	0.652	n/a	stim	poldrack-single-stim	s574	False	1
97.458	0.43	97.888	1.4977013510892014	draw_card	0.43	columbia_card_task_fmri	7.0	0.9333333333333332	89.0	-95.0	0.0666666666666666	16.0	2.0	1.0	-6.54630436695594	0.43	n/a	stim	poldrack-single-stim	s574	False	1
97.89	1.367	99.257	1.0119870653749157	draw_card	1.367	columbia_card_task_fmri	7.0	0.9285714285714286	89.0	-95.0	0.0714285714285714	16.0	3.0	1.0	-5.7215964770060666	1.367	n/a	stim	poldrack-single-stim	s574	False	1
99.259	1.177	100.436	0.4515475049353545	draw_card	1.177	columbia_card_task_fmri	7.0	0.9230769230769232	89.0	-95.0	0.0769230769230769	16.0	4.0	1.0	-4.811810988629148	1.177	n/a	stim	poldrack-single-stim	s574	False	1
100.438	1.991	102.429	-0.2022986489107987	draw_card	1.991	columbia_card_task_fmri	7.0	0.9166666666666666	89.0	-95.0	0.0833333333333333	16.0	5.0	1.0	-3.8014841162321247	1.991	n/a	stim	poldrack-single-stim	s574	False	1
102.431	1.707	104.138	-0.975025921638072	draw_card	1.707	columbia_card_task_fmri	7.0	0.9090909090909092	89.0	-95.0	0.0909090909090909	16.0	6.0	1.0	-2.671007429357431	1.707	6.0	stim	poldrack-single-stim	s574	False	0
104.896	1.5	104.145	n/a	-1.0	2.726	columbia_card_task_fmri	n/a	n/a	-1.0	n/a	n/a	n/a	n/a	n/a	n/a	n/a	n/a	ITI	poldrack-single-stim	s574	False	0
106.875	0.904	107.779	3.4852013510892013	draw_card	0.904	columbia_card_task_fmri	9.0	0.9375	89.0	-100.0	0.0625	16.0	1.0	1.0	-5.606054148220572	0.904	n/a	stim	poldrack-single-stim	s574	False	1
107.781	0.43	108.211	3.0310346844225347	draw_card	0.43	columbia_card_task_fmri	9.0	0.9333333333333332	89.0	-100.0	0.0666666666666666	16.0	2.0	1.0	-4.802318998087824	0.43	n/a	stim	poldrack-single-stim	s574	False	1
108.213	0.569	108.782	2.511987065374917	draw_card	0.569	columbia_card_task_fmri	9.0	0.9285714285714286	89.0	-100.0	0.0714285714285714	16.0	3.0	1.0	-3.9208757979554743	0.569	n/a	stim	poldrack-single-stim	s574	False	1
108.785	0.748	109.533	1.913085966473817	draw_card	0.748	columbia_card_task_fmri	9.0	0.9230769230769232	89.0	-100.0	0.0769230769230769	16.0	4.0	1.0	-2.948511820083553	0.748	n/a	stim	poldrack-single-stim	s574	False	1
109.536	0.16	109.696	1.2143680177558691	end_round	0.16	columbia_card_task_fmri	9.0	0.9166666666666666	71.0	-100.0	0.0833333333333333	16.0	5.0	1.0	-1.8687015899465005	0.16	4.0	stim	poldrack-single-stim	s574	False	1
110.449	1.5	109.698	n/a	-1.0	2.522	columbia_card_task_fmri	n/a	n/a	-1.0	n/a	n/a	n/a	n/a	n/a	n/a	n/a	n/a	ITI	poldrack-single-stim	s574	False	0
112.225	0.88	113.105	4.422701351089201	draw_card	0.88	columbia_card_task_fmri	15.0	0.875	89.0	-80.0	0.125	16.0	1.0	2.0	-0.5775613717959018	0.88	n/a	stim	poldrack-single-stim	s574	False	1
113.107	0.55	113.657	3.631034684422535	draw_card	0.55	columbia_card_task_fmri	15.0	0.8666666666666667	89.0	-80.0	0.1333333333333333	16.0	2.0	2.0	0.2972064067087103	0.55	n/a	stim	poldrack-single-stim	s574	False	1
113.66	0.414	114.074	2.726272779660632	draw_card	0.414	columbia_card_task_fmri	15.0	0.8571428571428572	89.0	-80.0	0.1428571428571428	16.0	3.0	2.0	1.245747556255388	0.414	n/a	stim	poldrack-single-stim	s574	False	1
114.077	1.261	115.338	1.6823167357045845	draw_card	1.261	columbia_card_task_fmri	15.0	0.8461538461538461	89.0	-80.0	0.1538461538461538	16.0	4.0	2.0	2.2780251034637686	1.261	n/a	stim	poldrack-single-stim	s574	False	1
115.34	0.908	116.248	0.4643680177558691	draw_card	0.908	columbia_card_task_fmri	15.0	0.8333333333333334	89.0	-80.0	0.1666666666666666	16.0	5.0	2.0	3.405537517330181	0.908	n/a	stim	poldrack-single-stim	s574	False	1
116.25	1.295	117.545	-0.975025921638074	draw_card	1.295	columbia_card_task_fmri	15.0	0.8181818181818181	89.0	-80.0	0.1818181818181818	16.0	6.0	2.0	4.64131377475978	1.295	n/a	stim	poldrack-single-stim	s574	False	1
117.548	0.398	117.946	-2.7022986489107987	end_round	0.398	columbia_card_task_fmri	15.0	0.8	71.0	-80.0	0.2	16.0	7.0	2.0	5.999504918284679	0.398	6.0	stim	poldrack-single-stim	s574	False	1
118.702	1.5	117.951	n/a	-1.0	3.134	columbia_card_task_fmri	n/a	n/a	-1.0	n/a	n/a	n/a	n/a	n/a	n/a	n/a	n/a	ITI	poldrack-single-stim	s574	False	0
121.087	0.838	121.925	6.547701351089201	draw_card	0.838	columbia_card_task_fmri	16.0	0.875	89.0	-70.0	0.125	16.0	1.0	2.0	-3.551230903099576	0.838	1.0	stim	poldrack-single-stim	s574	False	0
122.683	1.5	121.932	n/a	-1.0	2.386	columbia_card_task_fmri	n/a	n/a	-1.0	n/a	n/a	n/a	n/a	n/a	n/a	n/a	n/a	ITI	poldrack-single-stim	s574	False	0
124.322	0.135	124.457	7.860201351089201	draw_card	0.135	columbia_card_task_fmri	30.0	0.6875	89.0	-45.0	0.3125	16.0	1.0	5.0	2.7649963463384424	0.135	n/a	stim	poldrack-single-stim	s574	False	1
124.46	0.312	124.772	6.297701351089205	draw_card	0.312	columbia_card_task_fmri	30.0	0.6666666666666667	89.0	-45.0	0.3333333333333333	16.0	2.0	5.0	3.356499908339103	0.312	2.0	stim	poldrack-single-stim	s574	False	0
125.525	1.5	124.774	n/a	-1.0	2.386	columbia_card_task_fmri	n/a	n/a	-1.0	n/a	n/a	n/a	n/a	n/a	n/a	n/a	n/a	ITI	poldrack-single-stim	s574	False	0
127.163	1.387	128.55	-0.3689653155774648	draw_card	1.387	columbia_card_task_fmri	13.0	0.8333333333333334	89.0	-75.0	0.1666666666666666	6.0	1.0	1.0	0.7986812942566104	1.387	1.0	stim	poldrack-single-stim	s574	False	0
129.308	1.5	128.557	n/a	-1.0	2.318	columbia_card_task_fmri	n/a	n/a	-1.0	n/a	n/a	n/a	n/a	n/a	n/a	n/a	n/a	ITI	poldrack-single-stim	s574	False	0
130.881	0.601	131.482	1.297701351089203	draw_card	0.601	columbia_card_task_fmri	14.0	0.8333333333333334	89.0	-70.0	0.1666666666666666	6.0	1.0	1.0	-0.6908095954979778	0.601	n/a	stim	poldrack-single-stim	s574	False	1
131.485	0.463	131.948	-1.5022986489107977	draw_card	0.463	columbia_card_task_fmri	14.0	0.8	89.0	-70.0	0.2	6.0	2.0	1.0	1.6024037153013708	0.463	n/a	stim	poldrack-single-stim	s574	False	1
131.949	0.381	132.33	-5.702298648910799	draw_card	0.381	columbia_card_task_fmri	14.0	0.75	89.0	-70.0	0.25	6.0	3.0	1.0	4.373562090615778	0.381	n/a	stim	poldrack-single-stim	s574	False	1
132.334	0.389	132.723	-12.702298648910798	end_round	0.389	columbia_card_task_fmri	14.0	0.6666666666666667	71.0	-70.0	0.3333333333333333	6.0	4.0	1.0	7.596591216055742	0.389	3.0	stim	poldrack-single-stim	s574	False	1
133.479	1.5	132.728	n/a	-1.0	2.318	columbia_card_task_fmri	n/a	n/a	-1.0	n/a	n/a	n/a	n/a	n/a	n/a	n/a	n/a	ITI	poldrack-single-stim	s574	False	0
135.05	0.419	135.469	1.297701351089203	draw_card	0.419	columbia_card_task_fmri	16.0	0.8333333333333334	89.0	-80.0	0.1666666666666666	6.0	1.0	1.0	3.777968023309292	0.419	1.0	stim	poldrack-single-stim	s574	False	0
136.222	1.5	135.471	n/a	-1.0	2.862	columbia_card_task_fmri	n/a	n/a	-1.0	n/a	n/a	n/a	n/a	n/a	n/a	n/a	n/a	ITI	poldrack-single-stim	s574	False	0
138.337	3.661	141.998	3.797701351089203	end_round	3.661	columbia_card_task_fmri	17.0	0.8333333333333334	71.0	-70.0	0.1666666666666666	6.0	1.0	1.0	0.4262980578658428	3.661	0.0	stim	poldrack-single-stim	s574	False	1
142.753	1.5	142.002	n/a	-1.0	2.726	columbia_card_task_fmri	n/a	n/a	-1.0	n/a	n/a	n/a	n/a	n/a	n/a	n/a	n/a	ITI	poldrack-single-stim	s574	False	0
144.732	1.216	145.948	3.797701351089201	draw_card	1.216	columbia_card_task_fmri	25.0	0.75	89.0	-65.0	0.25	8.0	1.0	2.0	6.970096385067052	1.216	1.0	stim	poldrack-single-stim	s574	False	0
146.702	1.5	145.951	n/a	-1.0	2.25	columbia_card_task_fmri	n/a	n/a	-1.0	n/a	n/a	n/a	n/a	n/a	n/a	n/a	n/a	ITI	poldrack-single-stim	s574	False	0
148.205	1.762	149.967	3.797701351089201	end_round	1.762	columbia_card_task_fmri	30.0	0.75	71.0	-80.0	0.25	8.0	1.0	2.0	15.62642474800814	1.762	0.0	stim	poldrack-single-stim	s574	False	1
150.724	1.5	149.973	n/a	-1.0	2.318	columbia_card_task_fmri	n/a	n/a	-1.0	n/a	n/a	n/a	n/a	n/a	n/a	n/a	n/a	ITI	poldrack-single-stim	s574	False	0
152.295	0.954	153.249	3.4977013510892023	draw_card	0.954	columbia_card_task_fmri	13.0	0.9	89.0	-95.0	0.1	10.0	1.0	1.0	0.4033307857776407	0.954	n/a	stim	poldrack-single-stim	s574	False	1
153.252	0.538	153.79	2.2977013510892013	draw_card	0.538	columbia_card_task_fmri	13.0	0.8888888888888888	89.0	-95.0	0.1111111111111111	10.0	2.0	1.0	1.94327762565424	0.538	n/a	stim	poldrack-single-stim	s574	False	1
153.794	0.579	154.373	0.7977013510892013	draw_card	0.579	columbia_card_task_fmri	13.0	0.875	89.0	-95.0	0.125	10.0	3.0	1.0	3.718562213387948	0.579	n/a	stim	poldrack-single-stim	s574	False	1
154.375	0.739	155.114	-1.1308700774822258	draw_card	0.739	columbia_card_task_fmri	13.0	0.8571428571428572	89.0	-95.0	0.1428571428571428	10.0	4.0	1.0	5.791754151072425	0.739	n/a	stim	poldrack-single-stim	s574	False	1
155.117	0.563	155.68	-3.702298648910797	draw_card	0.563	columbia_card_task_fmri	13.0	0.8333333333333334	89.0	-95.0	0.1666666666666666	10.0	5.0	1.0	8.247491278287505	0.563	n/a	stim	poldrack-single-stim	s574	False	1
155.683	0.549	156.232	-7.302298648910798	end_round	0.549	columbia_card_task_fmri	13.0	0.8	71.0	-95.0	0.2	10.0	6.0	1.0	11.196839780267515	0.549	5.0	stim	poldrack-single-stim	s574	False	1
156.986	1.5	156.235	n/a	-1.0	2.454	columbia_card_task_fmri	n/a	n/a	-1.0	n/a	n/a	n/a	n/a	n/a	n/a	n/a	n/a	ITI	poldrack-single-stim	s574	False	0
158.693	0.438	159.131	4.897701351089201	draw_card	0.438	columbia_card_task_fmri	14.0	0.9	89.0	-90.0	0.1	10.0	1.0	1.0	-0.7956709196793987	0.438	n/a	stim	poldrack-single-stim	s574	False	1
159.134	0.302	159.436	3.742145795533644	draw_card	0.302	columbia_card_task_fmri	14.0	0.8888888888888888	89.0	-90.0	0.1111111111111111	10.0	2.0	1.0	0.6871519752531654	0.302	n/a	stim	poldrack-single-stim	s574	False	1
159.439	0.174	159.613	2.2977013510892013	draw_card	0.174	columbia_card_task_fmri	14.0	0.875	89.0	-90.0	0.125	10.0	3.0	1.0	2.396592325810694	0.174	n/a	stim	poldrack-single-stim	s574	False	1
159.616	0.353	159.969	0.4405584939463454	draw_card	0.353	columbia_card_task_fmri	14.0	0.8571428571428572	89.0	-90.0	0.1428571428571428	10.0	4.0	1.0	4.392901869089499	0.353	n/a	stim	poldrack-single-stim	s574	False	1
159.972	0.344	160.316	-2.035631982244131	draw_card	0.344	columbia_card_task_fmri	14.0	0.8333333333333334	89.0	-90.0	0.1666666666666666	10.0	5.0	1.0	6.75758325812086	0.344	5.0	stim	poldrack-single-stim	s574	False	0
161.07	1.5	160.319	n/a	-1.0	2.522	columbia_card_task_fmri	n/a	n/a	-1.0	n/a	n/a	n/a	n/a	n/a	n/a	n/a	n/a	ITI	poldrack-single-stim	s574	False	0
162.846	0.398	163.244	0.0977013510892019	draw_card	0.398	columbia_card_task_fmri	16.0	0.8	89.0	-70.0	0.2	10.0	1.0	2.0	2.401821561889122	0.398	n/a	stim	poldrack-single-stim	s574	False	1
163.247	0.199	163.446	-1.8134097600219092	draw_card	0.199	columbia_card_task_fmri	16.0	0.7777777777777778	89.0	-70.0	0.2222222222222222	10.0	2.0	2.0	3.754510848224463	0.199	n/a	stim	poldrack-single-stim	s574	False	1
163.448	0.238	163.686	-4.202298648910799	draw_card	0.238	columbia_card_task_fmri	16.0	0.75	89.0	-70.0	0.25	10.0	3.0	2.0	5.239049638010286	0.238	n/a	stim	poldrack-single-stim	s574	False	1
163.689	0.389	164.078	-7.27372722033937	end_round	0.389	columbia_card_task_fmri	16.0	0.7142857142857143	71.0	-70.0	0.2857142857142857	10.0	4.0	2.0	6.84985988817715	0.389	3.0	stim	poldrack-single-stim	s574	False	1
164.836	1.5	164.085	n/a	-1.0	2.318	columbia_card_task_fmri	n/a	n/a	-1.0	n/a	n/a	n/a	n/a	n/a	n/a	n/a	n/a	ITI	poldrack-single-stim	s574	False	0
166.406	1.537	167.943	-0.6189653155774648	draw_card	1.537	columbia_card_task_fmri	7.0	0.9166666666666666	89.0	-100.0	0.0833333333333333	12.0	1.0	1.0	-2.420950702648369	1.537	n/a	stim	poldrack-single-stim	s574	False	1
167.946	0.206	168.152	-1.4295713761835271	draw_card	0.206	columbia_card_task_fmri	7.0	0.9090909090909092	89.0	-100.0	0.0909090909090909	12.0	2.0	1.0	-1.2349484478284296	0.206	n/a	stim	poldrack-single-stim	s574	False	1
168.155	0.504	168.659	-2.402298648910799	draw_card	0.504	columbia_card_task_fmri	7.0	0.9	89.0	-100.0	0.1	12.0	3.0	1.0	0.1035733706417332	0.504	n/a	stim	poldrack-single-stim	s574	False	1
168.663	0.149	168.812	-3.591187537799688	draw_card	0.149	columbia_card_task_fmri	7.0	0.8888888888888888	89.0	-100.0	0.1111111111111111	12.0	4.0	1.0	1.6292395401449582	0.149	n/a	stim	poldrack-single-stim	s574	False	1
168.816	0.404	169.22	-5.077298648910799	draw_card	0.404	columbia_card_task_fmri	7.0	0.875	89.0	-100.0	0.125	12.0	5.0	1.0	3.3880633990901714	0.404	n/a	stim	poldrack-single-stim	s574	False	1
169.223	1.027	170.25	-6.988012934625083	end_round	1.027	columbia_card_task_fmri	7.0	0.8571428571428572	71.0	-100.0	0.1428571428571428	12.0	6.0	1.0	5.442035085013821	1.027	5.0	stim	poldrack-single-stim	s574	False	1
171.007	1.5	170.256	n/a	-1.0	2.522	columbia_card_task_fmri	n/a	n/a	-1.0	n/a	n/a	n/a	n/a	n/a	n/a	n/a	n/a	ITI	poldrack-single-stim	s574	False	0
172.782	1.975	174.757	-0.368965315577463	draw_card	1.975	columbia_card_task_fmri	14.0	0.8333333333333334	89.0	-80.0	0.1666666666666666	12.0	1.0	2.0	3.033112271745459	1.975	n/a	stim	poldrack-single-stim	s574	False	1
174.759	0.239	174.998	-1.7932077398198922	draw_card	0.239	columbia_card_task_fmri	14.0	0.8181818181818181	89.0	-80.0	0.1818181818181818	12.0	2.0	2.0	4.255863404035623	0.239	n/a	stim	poldrack-single-stim	s574	False	1
175.001	0.42	175.421	-3.5022986489107977	draw_card	0.42	columbia_card_task_fmri	14.0	0.8	89.0	-80.0	0.2	12.0	3.0	2.0	5.599740436420838	0.42	n/a	stim	poldrack-single-stim	s574	False	1
175.424	0.514	175.938	-5.591187537799688	end_round	0.514	columbia_card_task_fmri	14.0	0.7777777777777778	71.0	-80.0	0.2222222222222222	12.0	4.0	2.0	7.078426044851845	0.514	3.0	stim	poldrack-single-stim	s574	False	1
176.696	1.5	175.945	n/a	-1.0	2.998	columbia_card_task_fmri	n/a	n/a	-1.0	n/a	n/a	n/a	n/a	n/a	n/a	n/a	n/a	ITI	poldrack-single-stim	s574	False	0
178.947	1.22	180.167	1.2977013510892013	draw_card	1.22	columbia_card_task_fmri	15.0	0.8333333333333334	89.0	-75.0	0.1666666666666666	12.0	1.0	2.0	1.54346739524469	1.22	n/a	stim	poldrack-single-stim	s574	False	1
180.17	0.767	180.937	-0.0659350125471638	draw_card	0.767	columbia_card_task_fmri	15.0	0.8181818181818181	89.0	-75.0	0.1818181818181818	12.0	2.0	2.0	2.714116141054049	0.767	n/a	stim	poldrack-single-stim	s574	False	1
180.94	0.408	181.348	-1.7022986489107987	draw_card	0.408	columbia_card_task_fmri	15.0	0.8	89.0	-75.0	0.2	12.0	3.0	2.0	4.000734796998394	0.408	n/a	stim	poldrack-single-stim	s574	False	1
181.351	2.315	183.666	-3.702298648910797	draw_card	2.315	columbia_card_task_fmri	15.0	0.7777777777777778	89.0	-75.0	0.2222222222222222	12.0	4.0	2.0	5.416423987125604	2.315	4.0	stim	poldrack-single-stim	s574	False	0
184.422	1.5	183.671	n/a	-1.0	2.318	columbia_card_task_fmri	n/a	n/a	-1.0	n/a	n/a	n/a	n/a	n/a	n/a	n/a	n/a	ITI	poldrack-single-stim	s574	False	0
185.993	0.411	186.404	0.2977013510892012	draw_card	0.411	columbia_card_task_fmri	15.0	0.8	89.0	-65.0	0.2	15.0	1.0	3.0	0.0036552417949451	0.411	n/a	stim	poldrack-single-stim	s574	False	1
186.407	0.432	186.839	-0.8451557917679411	draw_card	0.432	columbia_card_task_fmri	15.0	0.7857142857142857	89.0	-65.0	0.2142857142857142	15.0	2.0	3.0	0.8290661342968306	0.432	n/a	stim	poldrack-single-stim	s574	False	1
186.843	0.193	187.036	-2.163837110449262	draw_card	0.193	columbia_card_task_fmri	15.0	0.7692307692307692	89.0	-65.0	0.2307692307692307	15.0	3.0	3.0	1.7083285296856872	0.193	n/a	stim	poldrack-single-stim	s574	False	1
187.039	0.193	187.232	-3.702298648910799	draw_card	0.193	columbia_card_task_fmri	15.0	0.75	89.0	-65.0	0.25	15.0	4.0	3.0	2.6426675927924634	0.193	4.0	stim	poldrack-single-stim	s574	False	0
187.989	1.5	187.238	n/a	-1.0	2.25	columbia_card_task_fmri	n/a	n/a	-1.0	n/a	n/a	n/a	n/a	n/a	n/a	n/a	n/a	ITI	poldrack-single-stim	s574	False	0
189.491	4.463	193.954	-0.4522986489107987	draw_card	4.463	columbia_card_task_fmri	14.0	0.8125	89.0	-70.0	0.1875	16.0	1.0	3.0	0.7892644871704277	4.463	1.0	stim	poldrack-single-stim	s574	False	0
194.711	1.5	193.96	n/a	-1.0	2.454	columbia_card_task_fmri	n/a	n/a	-1.0	n/a	n/a	n/a	n/a	n/a	n/a	n/a	n/a	ITI	poldrack-single-stim	s574	False	0
196.419	1.359	197.778	-0.5147986489107987	draw_card	1.359	columbia_card_task_fmri	11.0	0.6875	89.0	-30.0	0.3125	16.0	1.0	5.0	-12.974382606507326	1.359	1.0	stim	poldrack-single-stim	s574	False	0
198.534	1.5	197.783	n/a	-1.0	2.318	columbia_card_task_fmri	n/a	n/a	-1.0	n/a	n/a	n/a	n/a	n/a	n/a	n/a	n/a	ITI	poldrack-single-stim	s574	False	0
200.106	1.829	201.935	4.297701351089201	draw_card	1.829	columbia_card_task_fmri	15.0	0.8666666666666667	89.0	-75.0	0.1333333333333333	15.0	1.0	2.0	-1.4010200837449531	1.829	n/a	stim	poldrack-single-stim	s574	False	1
201.938	0.93	202.868	3.4405584939463454	draw_card	0.93	columbia_card_task_fmri	15.0	0.8571428571428572	89.0	-75.0	0.1428571428571428	15.0	2.0	2.0	-0.5024825036942921	0.93	n/a	stim	poldrack-single-stim	s574	False	1
202.87	1.06	203.93	2.4515475049353546	draw_card	1.06	columbia_card_task_fmri	15.0	0.8461538461538461	89.0	-75.0	0.1538461538461538	15.0	3.0	2.0	0.475382251030318	1.06	n/a	stim	poldrack-single-stim	s574	False	1
203.934	0.458	204.392	1.2977013510892013	draw_card	0.458	columbia_card_task_fmri	15.0	0.8333333333333334	89.0	-75.0	0.1666666666666666	15.0	4.0	2.0	1.54346739524469	0.458	n/a	stim	poldrack-single-stim	s574	False	1
204.396	0.949	205.345	-0.0659350125471638	draw_card	0.949	columbia_card_task_fmri	15.0	0.8181818181818181	89.0	-75.0	0.1818181818181818	15.0	5.0	2.0	2.714116141054049	0.949	n/a	stim	poldrack-single-stim	s574	False	1
205.349	1.367	206.716	-1.7022986489107987	draw_card	1.367	columbia_card_task_fmri	15.0	0.8	89.0	-75.0	0.2	15.0	6.0	2.0	4.000734796998394	1.367	n/a	stim	poldrack-single-stim	s574	False	1
206.719	0.495	207.214	-3.702298648910797	end_round	0.495	columbia_card_task_fmri	15.0	0.7777777777777778	71.0	-75.0	0.2222222222222222	15.0	7.0	2.0	5.416423987125604	0.495	6.0	stim	poldrack-single-stim	s574	False	1
207.969	1.5	207.218	n/a	-1.0	2.318	columbia_card_task_fmri	n/a	n/a	-1.0	n/a	n/a	n/a	n/a	n/a	n/a	n/a	n/a	ITI	poldrack-single-stim	s574	False	0
209.541	0.552	210.093	6.031034684422536	draw_card	0.552	columbia_card_task_fmri	17.0	0.8666666666666667	89.0	-75.0	0.1333333333333333	15.0	1.0	2.0	-0.7217483330590078	0.552	n/a	stim	poldrack-single-stim	s574	False	1
210.097	0.279	210.376	5.154844208232061	draw_card	0.279	columbia_card_task_fmri	17.0	0.8571428571428572	89.0	-75.0	0.1428571428571428	15.0	2.0	2.0	0.1967912102981586	0.279	n/a	stim	poldrack-single-stim	s574	False	1
210.38	0.269	210.649	4.143855197243048	draw_card	0.269	columbia_card_task_fmri	17.0	0.8461538461538461	89.0	-75.0	0.1538461538461538	15.0	3.0	2.0	1.196421631306734	0.269	n/a	stim	poldrack-single-stim	s574	False	1
210.652	1.608	212.26	2.964368017755869	draw_card	1.608	columbia_card_task_fmri	17.0	0.8333333333333334	89.0	-75.0	0.1666666666666666	15.0	4.0	2.0	2.2882782469392424	1.608	4.0	stim	poldrack-single-stim	s574	False	0
213.015	1.5	212.264	n/a	-1.0	2.59	columbia_card_task_fmri	n/a	n/a	-1.0	n/a	n/a	n/a	n/a	n/a	n/a	n/a	n/a	ITI	poldrack-single-stim	s574	False	0
214.858	0.778	215.636	1.6102013510892013	draw_card	0.778	columbia_card_task_fmri	2.0	0.9375	89.0	-25.0	0.0625	16.0	1.0	1.0	-25.35939900100549	0.778	n/a	stim	poldrack-single-stim	s574	False	1
215.64	0.592	216.232	1.4977013510892012	draw_card	0.592	columbia_card_task_fmri	2.0	0.9333333333333332	89.0	-25.0	0.0666666666666666	16.0	2.0	1.0	-25.16378191999427	0.592	n/a	stim	poldrack-single-stim	s574	False	1
216.235	0.238	216.473	1.3691299225177729	draw_card	0.238	columbia_card_task_fmri	2.0	0.9285714285714286	89.0	-25.0	0.0714285714285714	16.0	3.0	1.0	-24.949029039893468	0.238	n/a	stim	poldrack-single-stim	s574	False	1
216.476	0.188	216.664	1.2207782741661244	draw_card	0.188	columbia_card_task_fmri	2.0	0.9230769230769232	89.0	-25.0	0.0769230769230769	16.0	4.0	1.0	-24.711877964753977	0.188	n/a	stim	poldrack-single-stim	s574	False	1
216.668	0.182	216.85	1.0477013510892017	draw_card	0.182	columbia_card_task_fmri	2.0	0.9166666666666666	89.0	-25.0	0.0833333333333333	16.0	5.0	1.0	-24.448247331997468	0.182	n/a	stim	poldrack-single-stim	s574	False	1
216.852	0.252	217.104	0.8431558965437465	draw_card	0.252	columbia_card_task_fmri	2.0	0.9090909090909092	89.0	-25.0	0.0909090909090909	16.0	6.0	1.0	-24.152960584726657	0.252	6.0	stim	poldrack-single-stim	s574	False	0
217.862	1.5	217.111	n/a	-1.0	2.25	columbia_card_task_fmri	n/a	n/a	-1.0	n/a	n/a	n/a	n/a	n/a	n/a	n/a	n/a	ITI	poldrack-single-stim	s574	False	0
219.364	2.426	221.79	3.797701351089201	draw_card	2.426	columbia_card_task_fmri	9.0	0.9375	89.0	-95.0	0.0625	16.0	1.0	1.0	-6.814830079412161	2.426	n/a	stim	poldrack-single-stim	s574	False	1
221.793	0.216	222.009	3.3643680177558686	draw_card	0.216	columbia_card_task_fmri	9.0	0.9333333333333332	89.0	-95.0	0.0666666666666666	16.0	2.0	1.0	-6.048051919176835	0.216	2.0	stim	poldrack-single-stim	s574	False	0
222.764	1.5	222.013	n/a	-1.0	2.25	columbia_card_task_fmri	n/a	n/a	-1.0	n/a	n/a	n/a	n/a	n/a	n/a	n/a	n/a	ITI	poldrack-single-stim	s574	False	0
224.266	0.991	225.257	5.360201351089201	draw_card	0.991	columbia_card_task_fmri	11.0	0.9375	89.0	-100.0	0.0625	16.0	1.0	1.0	-5.12250521608712	0.991	n/a	stim	poldrack-single-stim	s574	False	1
225.261	2.059	227.32	4.897701351089202	draw_card	2.059	columbia_card_task_fmri	11.0	0.9333333333333332	89.0	-100.0	0.0666666666666666	16.0	2.0	1.0	-4.303988403120048	2.059	n/a	stim	poldrack-single-stim	s574	False	1
227.324	2.295	229.619	4.369129922517774	draw_card	2.295	columbia_card_task_fmri	11.0	0.9285714285714286	89.0	-100.0	0.0714285714285714	16.0	3.0	1.0	-3.406336646188578	2.295	n/a	stim	poldrack-single-stim	s574	False	1
229.623	1.149	230.772	3.759239812627664	draw_card	1.149	columbia_card_task_fmri	11.0	0.9230769230769232	89.0	-100.0	0.0769230769230769	16.0	4.0	1.0	-2.4160946826804484	1.149	n/a	stim	poldrack-single-stim	s574	False	1
230.775	0.955	231.73	3.0477013510892013	draw_card	0.955	columbia_card_task_fmri	11.0	0.9166666666666666	89.0	-100.0	0.0833333333333333	16.0	5.0	1.0	-1.3164337034138072	0.955	n/a	stim	poldrack-single-stim	s574	False	1
231.733	0.68	232.413	2.206792260180109	draw_card	0.68	columbia_card_task_fmri	11.0	0.9090909090909092	89.0	-100.0	0.0909090909090909	16.0	6.0	1.0	-0.0860144587542528	0.68	6.0	stim	poldrack-single-stim	s574	False	0
233.169	1.5	232.418	n/a	-1.0	2.522	columbia_card_task_fmri	n/a	n/a	-1.0	n/a	n/a	n/a	n/a	n/a	n/a	n/a	n/a	ITI	poldrack-single-stim	s574	False	0
234.944	0.755	235.699	5.922701351089201	draw_card	0.755	columbia_card_task_fmri	16.0	0.875	89.0	-75.0	0.125	16.0	1.0	2.0	-1.899260571887229	0.755	n/a	stim	poldrack-single-stim	s574	False	1
235.703	0.232	235.935	5.164368017755868	draw_card	0.232	columbia_card_task_fmri	16.0	0.8666666666666667	89.0	-75.0	0.1333333333333333	16.0	2.0	2.0	-1.0613874871401308	0.232	n/a	stim	poldrack-single-stim	s574	False	1
235.938	0.234	236.172	4.297701351089203	draw_card	0.234	columbia_card_task_fmri	16.0	0.8571428571428572	89.0	-75.0	0.1428571428571428	16.0	3.0	2.0	-0.1528488322816557	0.234	n/a	stim	poldrack-single-stim	s574	False	1
236.177	0.164	236.341	3.2977013510892013	draw_card	0.164	columbia_card_task_fmri	16.0	0.8461538461538461	89.0	-75.0	0.1538461538461538	16.0	4.0	2.0	0.8358988511382037	0.164	n/a	stim	poldrack-single-stim	s574	False	1
236.344	1.121	237.465	2.131034684422535	draw_card	1.121	columbia_card_task_fmri	16.0	0.8333333333333334	89.0	-75.0	0.1666666666666666	16.0	5.0	2.0	1.9158698290979288	1.121	5.0	stim	poldrack-single-stim	s574	False	0
238.221	1.5	237.47	n/a	-1.0	2.454	columbia_card_task_fmri	n/a	n/a	-1.0	n/a	n/a	n/a	n/a	n/a	n/a	n/a	n/a	ITI	poldrack-single-stim	s574	False	0
239.928	0.877	240.805	6.172701351089201	draw_card	0.877	columbia_card_task_fmri	17.0	0.875	89.0	-80.0	0.125	16.0	1.0	2.0	0.0833245675905871	0.877	n/a	stim	poldrack-single-stim	s574	False	1
240.808	0.19	240.998	5.3643680177558695	draw_card	0.19	columbia_card_task_fmri	17.0	0.8666666666666667	89.0	-80.0	0.1333333333333333	16.0	2.0	2.0	0.9765387127120136	0.19	n/a	stim	poldrack-single-stim	s574	False	1
241.002	0.188	241.19	4.440558493946347	draw_card	0.188	columbia_card_task_fmri	17.0	0.8571428571428572	89.0	-80.0	0.1428571428571428	16.0	3.0	2.0	1.9450801046442263	0.188	n/a	stim	poldrack-single-stim	s574	False	1
241.193	0.181	241.374	3.374624428012278	draw_card	0.181	columbia_card_task_fmri	17.0	0.8461538461538461	89.0	-80.0	0.1538461538461538	16.0	4.0	2.0	2.9991215529422206	0.181	n/a	stim	poldrack-single-stim	s574	False	1
241.377	0.366	241.743	2.131034684422537	end_round	0.366	columbia_card_task_fmri	17.0	0.8333333333333334	71.0	-80.0	0.1666666666666666	16.0	5.0	2.0	4.150403627202877	0.366	4.0	stim	poldrack-single-stim	s574	False	1
242.498	1.5	241.747	n/a	-1.0	2.25	columbia_card_task_fmri	n/a	n/a	-1.0	n/a	n/a	n/a	n/a	n/a	n/a	n/a	n/a	ITI	poldrack-single-stim	s574	False	0
255.009	1.614	256.623	0.4643680177558691	draw_card	1.614	columbia_card_task_fmri	13.0	0.8333333333333334	89.0	-70.0	0.1666666666666666	6.0	1.0	1.0	-1.0631639516302158	1.614	n/a	stim	poldrack-single-stim	s574	False	1
256.626	1.115	257.741	-2.3022986489107984	draw_card	1.115	columbia_card_task_fmri	13.0	0.8	89.0	-70.0	0.2	6.0	2.0	1.0	1.2027053010011102	1.115	n/a	stim	poldrack-single-stim	s574	False	1
257.746	1.386	259.132	-6.452298648910799	end_round	1.386	columbia_card_task_fmri	13.0	0.75	71.0	-70.0	0.25	6.0	3.0	1.0	3.940828027869351	1.386	2.0	stim	poldrack-single-stim	s574	False	1
259.888	1.5	259.137	n/a	-1.0	2.454	columbia_card_task_fmri	n/a	n/a	-1.0	n/a	n/a	n/a	n/a	n/a	n/a	n/a	n/a	ITI	poldrack-single-stim	s574	False	0
261.597	1.289	262.886	0.4643680177558691	draw_card	1.289	columbia_card_task_fmri	15.0	0.8333333333333334	89.0	-80.0	0.1666666666666666	6.0	1.0	1.0	3.405537517330181	1.289	n/a	stim	poldrack-single-stim	s574	False	1
262.89	0.369	263.259	-2.7022986489107987	draw_card	0.369	columbia_card_task_fmri	15.0	0.8	89.0	-80.0	0.2	6.0	2.0	1.0	5.999504918284679	0.369	n/a	stim	poldrack-single-stim	s574	False	1
263.262	0.752	264.014	-7.452298648910799	draw_card	0.752	columbia_card_task_fmri	15.0	0.75	89.0	-80.0	0.25	6.0	3.0	1.0	9.134023627395791	0.752	3.0	stim	poldrack-single-stim	s574	False	0
264.773	1.5	264.022	n/a	-1.0	2.454	columbia_card_task_fmri	n/a	n/a	-1.0	n/a	n/a	n/a	n/a	n/a	n/a	n/a	n/a	ITI	poldrack-single-stim	s574	False	0
266.481	0.382	266.863	2.131034684422535	draw_card	0.382	columbia_card_task_fmri	16.0	0.8333333333333334	89.0	-75.0	0.1666666666666666	6.0	1.0	1.0	1.9158698290979288	0.382	n/a	stim	poldrack-single-stim	s574	False	1
266.867	0.21	267.077	-0.902298648910798	draw_card	0.21	columbia_card_task_fmri	16.0	0.8	89.0	-75.0	0.2	6.0	2.0	1.0	4.4004780193235575	0.21	n/a	stim	poldrack-single-stim	s574	False	1
267.08	0.427	267.507	-5.452298648910799	end_round	0.427	columbia_card_task_fmri	16.0	0.75	71.0	-75.0	0.25	6.0	3.0	1.0	7.402871852404957	0.427	2.0	stim	poldrack-single-stim	s574	False	1
268.261	1.5	267.51	n/a	-1.0	2.522	columbia_card_task_fmri	n/a	n/a	-1.0	n/a	n/a	n/a	n/a	n/a	n/a	n/a	n/a	ITI	poldrack-single-stim	s574	False	0
270.037	0.782	270.819	3.2977013510892013	draw_card	0.782	columbia_card_task_fmri	21.0	0.75	89.0	-55.0	0.25	8.0	1.0	2.0	0.9118946768890624	0.782	n/a	stim	poldrack-single-stim	s574	False	1
270.823	0.198	271.021	0.5834156368034877	draw_card	0.198	columbia_card_task_fmri	21.0	0.7142857142857143	89.0	-55.0	0.2857142857142857	8.0	2.0	2.0	2.3351693735572	0.198	n/a	stim	poldrack-single-stim	s574	False	1
271.025	1.112	272.137	-3.035631982244129	draw_card	1.112	columbia_card_task_fmri	21.0	0.6666666666666667	89.0	-55.0	0.3333333333333333	8.0	3.0	2.0	3.827591375955116	1.112	n/a	stim	poldrack-single-stim	s574	False	1
272.14	0.425	272.565	-8.1022986489108	end_round	0.425	columbia_card_task_fmri	21.0	0.6	71.0	-55.0	0.4	8.0	4.0	2.0	5.232205520735079	0.425	3.0	stim	poldrack-single-stim	s574	False	1
273.324	1.5	272.573	n/a	-1.0	2.454	columbia_card_task_fmri	n/a	n/a	-1.0	n/a	n/a	n/a	n/a	n/a	n/a	n/a	n/a	ITI	poldrack-single-stim	s574	False	0
275.033	0.786	275.819	4.547701351089201	draw_card	0.786	columbia_card_task_fmri	26.0	0.75	89.0	-65.0	0.25	8.0	1.0	2.0	7.402871852404957	0.786	n/a	stim	poldrack-single-stim	s574	False	1
275.822	0.213	276.035	1.2977013510892048	draw_card	0.213	columbia_card_task_fmri	26.0	0.7142857142857143	89.0	-65.0	0.2857142857142857	8.0	2.0	2.0	9.107439762934971	0.213	n/a	stim	poldrack-single-stim	s574	False	1
276.039	0.186	276.225	-3.035631982244128	draw_card	0.186	columbia_card_task_fmri	26.0	0.6666666666666667	89.0	-65.0	0.3333333333333333	8.0	3.0	2.0	10.89478838133153	0.186	n/a	stim	poldrack-single-stim	s574	False	1
276.229	0.358	276.587	-9.1022986489108	end_round	0.358	columbia_card_task_fmri	26.0	0.6	71.0	-65.0	0.4	8.0	4.0	2.0	12.576949834828312	0.358	3.0	stim	poldrack-single-stim	s574	False	1
277.346	1.5	276.595	n/a	-1.0	2.658	columbia_card_task_fmri	n/a	n/a	-1.0	n/a	n/a	n/a	n/a	n/a	n/a	n/a	n/a	ITI	poldrack-single-stim	s574	False	0
279.258	0.597	279.855	-0.3689653155774648	draw_card	0.597	columbia_card_task_fmri	15.0	0.7777777777777778	89.0	-60.0	0.2222222222222222	9.0	1.0	2.0	-0.815175821783928	0.597	n/a	stim	poldrack-single-stim	s574	False	1
279.859	0.185	280.044	-2.4522986489107987	draw_card	0.185	columbia_card_task_fmri	15.0	0.75	89.0	-60.0	0.25	9.0	2.0	2.0	0.4792227212808839	0.185	n/a	stim	poldrack-single-stim	s574	False	1
280.048	0.295	280.343	-5.130870077482226	draw_card	0.295	columbia_card_task_fmri	15.0	0.7142857142857143	89.0	-60.0	0.2857142857142857	9.0	3.0	2.0	1.8837420636711213	0.295	n/a	stim	poldrack-single-stim	s574	False	1
280.346	0.486	280.832	-8.702298648910798	draw_card	0.486	columbia_card_task_fmri	15.0	0.6666666666666667	89.0	-60.0	0.3333333333333333	9.0	4.0	2.0	3.356499908339103	0.486	4.0	stim	poldrack-single-stim	s574	False	0
281.59	1.5	280.839	n/a	-1.0	2.386	columbia_card_task_fmri	n/a	n/a	-1.0	n/a	n/a	n/a	n/a	n/a	n/a	n/a	n/a	ITI	poldrack-single-stim	s574	False	0
283.229	0.412	283.641	3.9977013510892014	draw_card	0.412	columbia_card_task_fmri	13.0	0.9	89.0	-90.0	0.1	10.0	1.0	1.0	-1.0954092465211076	0.412	n/a	stim	poldrack-single-stim	s574	False	1
283.645	0.206	283.851	2.8532569066447566	draw_card	0.206	columbia_card_task_fmri	13.0	0.8888888888888888	89.0	-90.0	0.1111111111111111	10.0	2.0	1.0	0.3731321153945117	0.206	n/a	stim	poldrack-single-stim	s574	False	1
283.855	0.177	284.032	1.4227013510892013	draw_card	0.177	columbia_card_task_fmri	13.0	0.875	89.0	-90.0	0.125	10.0	3.0	1.0	2.0661108345193213	0.177	n/a	stim	poldrack-single-stim	s574	False	1
284.035	0.252	284.287	-0.4165843631965105	end_round	0.252	columbia_card_task_fmri	13.0	0.8571428571428572	71.0	-90.0	0.1428571428571428	10.0	4.0	1.0	4.043199178770173	0.252	3.0	stim	poldrack-single-stim	s574	False	1
285.043	1.5	284.292	n/a	-1.0	2.522	columbia_card_task_fmri	n/a	n/a	-1.0	n/a	n/a	n/a	n/a	n/a	n/a	n/a	n/a	ITI	poldrack-single-stim	s574	False	0
286.818	0.658	287.476	5.297701351089201	draw_card	0.658	columbia_card_task_fmri	15.0	0.9	89.0	-95.0	0.1	10.0	1.0	1.0	1.00285883238908	0.658	n/a	stim	poldrack-single-stim	s574	False	1
287.481	0.216	287.697	4.075479128866978	draw_card	0.216	columbia_card_task_fmri	15.0	0.8888888888888888	89.0	-95.0	0.1111111111111111	10.0	2.0	1.0	2.5713664155881304	0.216	n/a	stim	poldrack-single-stim	s574	False	1
287.7	0.171	287.871	2.5477013510892013	draw_card	0.171	columbia_card_task_fmri	15.0	0.875	89.0	-95.0	0.125	10.0	3.0	1.0	4.37957183579406	0.171	n/a	stim	poldrack-single-stim	s574	False	1
287.875	0.153	288.028	0.5834156368034877	draw_card	0.153	columbia_card_task_fmri	15.0	0.8571428571428572	89.0	-95.0	0.1428571428571428	10.0	4.0	1.0	6.491203621015892	0.153	n/a	stim	poldrack-single-stim	s574	False	1
288.032	0.343	288.375	-2.035631982244131	end_round	0.343	columbia_card_task_fmri	15.0	0.8333333333333334	71.0	-95.0	0.1666666666666666	10.0	5.0	1.0	8.992467197803109	0.343	4.0	stim	poldrack-single-stim	s574	False	1
289.13	1.5	288.379	n/a	-1.0	2.59	columbia_card_task_fmri	n/a	n/a	-1.0	n/a	n/a	n/a	n/a	n/a	n/a	n/a	n/a	ITI	poldrack-single-stim	s574	False	0
290.974	0.486	291.46	1.097701351089202	draw_card	0.486	columbia_card_task_fmri	16.0	0.8	89.0	-65.0	0.2	10.0	1.0	2.0	0.4033307857776407	0.486	n/a	stim	poldrack-single-stim	s574	False	1
291.463	0.196	291.659	-0.702298648910797	draw_card	0.196	columbia_card_task_fmri	16.0	0.7777777777777778	89.0	-65.0	0.2222222222222222	10.0	2.0	2.0	1.677264507624919	0.196	n/a	stim	poldrack-single-stim	s574	False	1
291.663	0.171	291.834	-2.9522986489107987	draw_card	0.171	columbia_card_task_fmri	16.0	0.75	89.0	-65.0	0.25	10.0	3.0	2.0	3.0753805215703025	0.171	n/a	stim	poldrack-single-stim	s574	False	1
291.838	0.136	291.974	-5.845155791767939	draw_card	0.136	columbia_card_task_fmri	16.0	0.7142857142857143	89.0	-65.0	0.2857142857142857	10.0	4.0	2.0	4.59242678183039	0.136	n/a	stim	poldrack-single-stim	s574	False	1
291.978	0.31	292.288	-9.702298648910794	end_round	0.31	columbia_card_task_fmri	16.0	0.6666666666666667	71.0	-65.0	0.3333333333333333	10.0	5.0	2.0	6.183164554452233	0.31	4.0	stim	poldrack-single-stim	s574	False	1
293.046	1.5	292.295	n/a	-1.0	2.386	columbia_card_task_fmri	n/a	n/a	-1.0	n/a	n/a	n/a	n/a	n/a	n/a	n/a	n/a	ITI	poldrack-single-stim	s574	False	0
294.685	1.226	295.911	-0.2022986489107987	draw_card	1.226	columbia_card_task_fmri	7.0	0.9166666666666666	89.0	-95.0	0.0833333333333333	12.0	1.0	1.0	-3.8014841162321247	1.226	n/a	stim	poldrack-single-stim	s574	False	1
295.915	0.338	296.253	-0.975025921638072	draw_card	0.338	columbia_card_task_fmri	7.0	0.9090909090909092	89.0	-95.0	0.0909090909090909	12.0	2.0	1.0	-2.671007429357431	0.338	n/a	stim	poldrack-single-stim	s574	False	1
296.257	0.788	297.045	-1.902298648910799	draw_card	0.788	columbia_card_task_fmri	7.0	0.9	89.0	-95.0	0.1	12.0	3.0	1.0	-1.3951424493594755	0.788	n/a	stim	poldrack-single-stim	s574	False	1
297.049	0.189	297.238	-3.0356319822441327	draw_card	0.189	columbia_card_task_fmri	7.0	0.8888888888888888	89.0	-95.0	0.1111111111111111	12.0	4.0	1.0	0.0591171480263383	0.189	n/a	stim	poldrack-single-stim	s574	False	1
297.243	0.473	297.716	-4.452298648910799	draw_card	0.473	columbia_card_task_fmri	7.0	0.875	89.0	-95.0	0.125	12.0	5.0	1.0	1.735633993462507	0.473	n/a	stim	poldrack-single-stim	s574	False	1
297.719	1.408	299.127	-6.27372722033937	draw_card	1.408	columbia_card_task_fmri	7.0	0.8571428571428572	89.0	-95.0	0.1428571428571428	12.0	6.0	1.0	3.693500884445229	1.408	n/a	stim	poldrack-single-stim	s574	False	1
299.132	0.459	299.591	-8.702298648910798	end_round	0.459	columbia_card_task_fmri	7.0	0.8333333333333334	71.0	-95.0	0.1666666666666666	12.0	7.0	1.0	6.012652873930037	0.459	6.0	stim	poldrack-single-stim	s574	False	1
300.347	1.5	299.596	n/a	-1.0	2.59	columbia_card_task_fmri	n/a	n/a	-1.0	n/a	n/a	n/a	n/a	n/a	n/a	n/a	n/a	ITI	poldrack-single-stim	s574	False	0
302.191	0.49	302.681	0.4643680177558691	draw_card	0.49	columbia_card_task_fmri	14.0	0.8333333333333334	89.0	-75.0	0.1666666666666666	12.0	1.0	2.0	1.1710711467837598	0.49	1.0	stim	poldrack-single-stim	s574	False	0
303.44	1.5	302.689	n/a	-1.0	2.318	columbia_card_task_fmri	n/a	n/a	-1.0	n/a	n/a	n/a	n/a	n/a	n/a	n/a	n/a	ITI	poldrack-single-stim	s574	False	0
305.013	0.5	305.513	2.131034684422535	draw_card	0.5	columbia_card_task_fmri	15.0	0.8333333333333334	89.0	-70.0	0.1666666666666666	12.0	1.0	2.0	-0.3184476339887609	0.5	n/a	stim	poldrack-single-stim	s574	False	1
305.516	0.261	305.777	0.8431558965437445	draw_card	0.261	columbia_card_task_fmri	15.0	0.8181818181818181	89.0	-70.0	0.1818181818181818	12.0	2.0	2.0	0.7870683884518499	0.261	2.0	stim	poldrack-single-stim	s574	False	0
306.536	1.5	305.785	n/a	-1.0	2.25	columbia_card_task_fmri	n/a	n/a	-1.0	n/a	n/a	n/a	n/a	n/a	n/a	n/a	n/a	ITI	poldrack-single-stim	s574	False	0
308.041	0.541	308.582	0.0977013510892019	draw_card	0.541	columbia_card_task_fmri	16.0	0.8	89.0	-70.0	0.2	15.0	1.0	3.0	2.401821561889122	0.541	n/a	stim	poldrack-single-stim	s574	False	1
308.587	0.216	308.803	-1.1308700774822276	draw_card	0.216	columbia_card_task_fmri	16.0	0.7857142857142857	89.0	-70.0	0.2142857142857142	15.0	2.0	3.0	3.2892339171559257	0.216	n/a	stim	poldrack-single-stim	s574	False	1
308.807	0.181	308.988	-2.548452495064645	draw_card	0.181	columbia_card_task_fmri	16.0	0.7692307692307692	89.0	-70.0	0.2307692307692307	15.0	3.0	3.0	4.23453772832233	0.181	n/a	stim	poldrack-single-stim	s574	False	1
308.993	0.182	309.175	-4.202298648910799	draw_card	0.182	columbia_card_task_fmri	16.0	0.75	89.0	-70.0	0.25	15.0	4.0	3.0	5.239049638010286	0.182	n/a	stim	poldrack-single-stim	s574	False	1
309.179	0.736	309.915	-6.156844103456252	draw_card	0.736	columbia_card_task_fmri	16.0	0.7272727272727273	89.0	-70.0	0.2727272727272727	15.0	5.0	3.0	6.30044320903243	0.736	n/a	stim	poldrack-single-stim	s574	False	1
309.919	0.496	310.415	-8.502298648910799	draw_card	0.496	columbia_card_task_fmri	16.0	0.7	89.0	-70.0	0.3	15.0	6.0	3.0	7.408863708855073	0.496	6.0	stim	poldrack-single-stim	s574	False	0
311.171	1.5	310.42	n/a	-1.0	2.454	columbia_card_task_fmri	n/a	n/a	-1.0	n/a	n/a	n/a	n/a	n/a	n/a	n/a	n/a	ITI	poldrack-single-stim	s574	False	0
312.879	0.481	313.36	0.4852013510892012	draw_card	0.481	columbia_card_task_fmri	14.0	0.8125	89.0	-65.0	0.1875	16.0	1.0	3.0	-1.160673978221368	0.481	n/a	stim	poldrack-single-stim	s574	False	1
313.364	0.243	313.607	-0.5022986489107977	draw_card	0.243	columbia_card_task_fmri	14.0	0.8	89.0	-65.0	0.2	16.0	2.0	3.0	-0.3960120983564685	0.243	n/a	stim	poldrack-single-stim	s574	False	1
313.613	0.232	313.845	-1.6308700774822258	draw_card	0.232	columbia_card_task_fmri	14.0	0.7857142857142857	89.0	-65.0	0.2142857142857142	16.0	3.0	3.0	0.4190645394954018	0.232	n/a	stim	poldrack-single-stim	s574	False	1
313.848	0.692	314.54	-2.9330678796800305	draw_card	0.692	columbia_card_task_fmri	14.0	0.7692307692307692	89.0	-65.0	0.2307692307692307	16.0	4.0	3.0	1.2873193468455495	0.692	n/a	stim	poldrack-single-stim	s574	False	1
314.543	0.402	314.945	-4.452298648910799	end_round	0.402	columbia_card_task_fmri	14.0	0.75	71.0	-65.0	0.25	16.0	5.0	3.0	2.209962245128189	0.402	4.0	stim	poldrack-single-stim	s574	False	1
315.699	1.5	314.948	n/a	-1.0	3.27	columbia_card_task_fmri	n/a	n/a	-1.0	n/a	n/a	n/a	n/a	n/a	n/a	n/a	n/a	ITI	poldrack-single-stim	s574	False	0
318.223	0.837	319.06	0.2352013510892012	draw_card	0.837	columbia_card_task_fmri	16.0	0.8125	89.0	-75.0	0.1875	16.0	1.0	3.0	3.519477721868384	0.837	n/a	stim	poldrack-single-stim	s574	False	1
319.064	0.178	319.242	-0.902298648910798	draw_card	0.178	columbia_card_task_fmri	16.0	0.8	89.0	-75.0	0.2	16.0	2.0	3.0	4.4004780193235575	0.178	n/a	stim	poldrack-single-stim	s574	False	1
319.248	0.176	319.424	-2.202298648910797	draw_card	0.176	columbia_card_task_fmri	16.0	0.7857142857142857	89.0	-75.0	0.2142857142857142	16.0	3.0	3.0	5.339553635983172	0.176	n/a	stim	poldrack-single-stim	s574	False	1
319.427	0.184	319.611	-3.7022986489108014	draw_card	0.184	columbia_card_task_fmri	16.0	0.7692307692307692	89.0	-75.0	0.2307692307692307	16.0	4.0	3.0	6.3398872823705545	0.184	4.0	stim	poldrack-single-stim	s574	False	0
320.368	1.5	319.617	n/a	-1.0	2.25	columbia_card_task_fmri	n/a	n/a	-1.0	n/a	n/a	n/a	n/a	n/a	n/a	n/a	n/a	ITI	poldrack-single-stim	s574	False	0
321.873	0.424	322.297	4.497701351089202	draw_card	0.424	columbia_card_task_fmri	16.0	0.8666666666666667	89.0	-80.0	0.1333333333333333	15.0	1.0	2.0	0.6368697663430467	0.424	n/a	stim	poldrack-single-stim	s574	False	1
322.301	0.176	322.477	3.583415636803489	draw_card	0.176	columbia_card_task_fmri	16.0	0.8571428571428572	89.0	-80.0	0.1428571428571428	15.0	2.0	2.0	1.5954111164876323	0.176	n/a	stim	poldrack-single-stim	s574	False	1
322.481	0.2	322.681	2.528470581858431	draw_card	0.2	columbia_card_task_fmri	16.0	0.8461538461538461	89.0	-80.0	0.1538461538461538	15.0	3.0	2.0	2.638570695686944	0.2	n/a	stim	poldrack-single-stim	s574	False	1
322.686	0.164	322.85	1.297701351089203	draw_card	0.164	columbia_card_task_fmri	16.0	0.8333333333333334	89.0	-80.0	0.1666666666666666	15.0	4.0	2.0	3.777968023309292	0.164	n/a	stim	poldrack-single-stim	s574	False	1
322.853	0.512	323.365	-0.1568441034562555	end_round	0.512	columbia_card_task_fmri	16.0	0.8181818181818181	71.0	-80.0	0.1818181818181818	15.0	5.0	2.0	5.02676922902694	0.512	4.0	stim	poldrack-single-stim	s574	False	1
324.122	1.5	323.371	n/a	-1.0	2.25	columbia_card_task_fmri	n/a	n/a	-1.0	n/a	n/a	n/a	n/a	n/a	n/a	n/a	n/a	ITI	poldrack-single-stim	s574	False	0
325.625	0.571	326.196	5.3643680177558695	draw_card	0.571	columbia_card_task_fmri	17.0	0.8666666666666667	89.0	-80.0	0.1333333333333333	15.0	1.0	2.0	0.9765387127120136	0.571	n/a	stim	poldrack-single-stim	s574	False	1
326.2	0.187	326.387	4.440558493946347	draw_card	0.187	columbia_card_task_fmri	17.0	0.8571428571428572	89.0	-80.0	0.1428571428571428	15.0	2.0	2.0	1.9450801046442263	0.187	n/a	stim	poldrack-single-stim	s574	False	1
326.393	0.188	326.581	3.374624428012278	draw_card	0.188	columbia_card_task_fmri	17.0	0.8461538461538461	89.0	-80.0	0.1538461538461538	15.0	3.0	2.0	2.9991215529422206	0.188	n/a	stim	poldrack-single-stim	s574	False	1
326.585	0.175	326.76	2.131034684422537	draw_card	0.175	columbia_card_task_fmri	17.0	0.8333333333333334	89.0	-80.0	0.1666666666666666	15.0	4.0	2.0	4.150403627202877	0.175	n/a	stim	poldrack-single-stim	s574	False	1
326.764	0.608	327.372	0.6613377147255628	draw_card	0.608	columbia_card_task_fmri	17.0	0.8181818181818181	89.0	-80.0	0.1818181818181818	15.0	5.0	2.0	5.412229609806047	0.608	n/a	stim	poldrack-single-stim	s574	False	1
327.376	0.375	327.751	-1.102298648910797	end_round	0.375	columbia_card_task_fmri	17.0	0.8	71.0	-80.0	0.2	15.0	6.0	2.0	6.79904843771947	0.375	5.0	stim	poldrack-single-stim	s574	False	1
328.508	1.5	327.757	n/a	-1.0	2.318	columbia_card_task_fmri	n/a	n/a	-1.0	n/a	n/a	n/a	n/a	n/a	n/a	n/a	n/a	ITI	poldrack-single-stim	s574	False	0
330.081	0.378	330.459	1.2977013510892013	draw_card	0.378	columbia_card_task_fmri	1.0	0.9375	89.0	-15.0	0.0625	16.0	1.0	1.0	-27.938038129635416	0.378	n/a	stim	poldrack-single-stim	s574	False	1
330.463	0.232	330.695	1.2310346844225346	draw_card	0.232	columbia_card_task_fmri	1.0	0.9333333333333332	89.0	-15.0	0.0666666666666666	16.0	2.0	1.0	-27.825872222213302	0.232	n/a	stim	poldrack-single-stim	s574	False	1
330.7	0.183	330.883	1.1548442082320585	draw_card	0.183	columbia_card_task_fmri	1.0	0.9285714285714286	89.0	-15.0	0.0714285714285714	16.0	3.0	1.0	-27.70250562403817	0.183	n/a	stim	poldrack-single-stim	s574	False	1
330.886	0.145	331.031	1.0669321203199704	draw_card	0.145	columbia_card_task_fmri	1.0	0.9230769230769232	89.0	-15.0	0.0769230769230769	16.0	4.0	1.0	-27.56601772530096	0.145	n/a	stim	poldrack-single-stim	s574	False	1
331.035	0.443	331.478	0.964368017755868	draw_card	0.443	columbia_card_task_fmri	1.0	0.9166666666666666	89.0	-15.0	0.0833333333333333	16.0	5.0	1.0	-27.41400454418425	0.443	n/a	stim	poldrack-single-stim	s574	False	1
331.482	0.338	331.82	0.8431558965437466	end_round	0.338	columbia_card_task_fmri	1.0	0.9090909090909092	71.0	-15.0	0.0909090909090909	16.0	6.0	1.0	-27.24341541344457	0.338	5.0	stim	poldrack-single-stim	s574	False	1
332.575	1.5	331.824	n/a	-1.0	2.726	columbia_card_task_fmri	n/a	n/a	-1.0	n/a	n/a	n/a	n/a	n/a	n/a	n/a	n/a	ITI	poldrack-single-stim	s574	False	0
334.555	0.465	335.02	4.422701351089201	draw_card	0.465	columbia_card_task_fmri	10.0	0.9375	89.0	-100.0	0.0625	16.0	1.0	1.0	-5.364282286543752	0.465	n/a	stim	poldrack-single-stim	s574	False	1
335.023	0.237	335.26	3.964368017755868	draw_card	0.237	columbia_card_task_fmri	10.0	0.9333333333333332	89.0	-100.0	0.0666666666666666	16.0	2.0	1.0	-4.553156228440134	0.237	n/a	stim	poldrack-single-stim	s574	False	1
335.264	0.214	335.478	3.4405584939463454	draw_card	0.214	columbia_card_task_fmri	10.0	0.9285714285714286	89.0	-100.0	0.0714285714285714	16.0	3.0	1.0	-3.6636086709549858	0.214	n/a	stim	poldrack-single-stim	s574	False	1
335.483	0.237	335.72	2.8361628895507405	draw_card	0.237	columbia_card_task_fmri	10.0	0.9230769230769232	89.0	-100.0	0.0769230769230769	16.0	4.0	1.0	-2.6823056186875256	0.237	n/a	stim	poldrack-single-stim	s574	False	1
335.724	0.226	335.95	2.131034684422535	draw_card	0.226	columbia_card_task_fmri	10.0	0.9166666666666666	89.0	-100.0	0.0833333333333333	16.0	5.0	1.0	-1.5925699295245297	0.226	n/a	stim	poldrack-single-stim	s574	False	1
335.954	0.204	336.158	1.2977013510891997	draw_card	0.204	columbia_card_task_fmri	10.0	0.9090909090909092	89.0	-100.0	0.0909090909090909	16.0	6.0	1.0	-0.3732546644990613	0.204	n/a	stim	poldrack-single-stim	s574	False	1
336.162	0.506	336.668	0.2977013510892012	draw_card	0.506	columbia_card_task_fmri	10.0	0.9	89.0	-100.0	0.1	16.0	7.0	1.0	1.00285883238908	0.506	n/a	stim	poldrack-single-stim	s574	False	1
336.672	0.306	336.978	-0.9245208711330202	end_round	0.306	columbia_card_task_fmri	10.0	0.8888888888888888	71.0	-100.0	0.1111111111111111	16.0	8.0	1.0	2.5713664155881304	0.306	7.0	stim	poldrack-single-stim	s574	False	1
337.736	1.5	336.985	n/a	-1.0	2.386	columbia_card_task_fmri	n/a	n/a	-1.0	n/a	n/a	n/a	n/a	n/a	n/a	n/a	n/a	ITI	poldrack-single-stim	s574	False	0
339.376	0.612	339.988	5.047701351089201	draw_card	0.612	columbia_card_task_fmri	15.0	0.875	89.0	-75.0	0.125	16.0	1.0	2.0	-2.2296690550128275	0.612	n/a	stim	poldrack-single-stim	s574	False	1
339.992	0.262	340.254	4.297701351089201	draw_card	0.262	columbia_card_task_fmri	15.0	0.8666666666666667	89.0	-75.0	0.1333333333333333	16.0	2.0	2.0	-1.4010200837449531	0.262	n/a	stim	poldrack-single-stim	s574	False	1
340.258	0.222	340.48	3.4405584939463454	draw_card	0.222	columbia_card_task_fmri	15.0	0.8571428571428572	89.0	-75.0	0.1428571428571428	16.0	3.0	2.0	-0.5024825036942921	0.222	3.0	stim	poldrack-single-stim	s574	False	0
341.239	1.5	340.488	n/a	-1.0	2.318	columbia_card_task_fmri	n/a	n/a	-1.0	n/a	n/a	n/a	n/a	n/a	n/a	n/a	n/a	ITI	poldrack-single-stim	s574	False	0
342.81	0.319	343.129	5.297701351089201	draw_card	0.319	columbia_card_task_fmri	16.0	0.875	89.0	-80.0	0.125	16.0	1.0	2.0	-0.247121272924911	0.319	n/a	stim	poldrack-single-stim	s574	False	1
343.133	0.151	343.284	4.497701351089202	draw_card	0.151	columbia_card_task_fmri	16.0	0.8666666666666667	89.0	-80.0	0.1333333333333333	16.0	2.0	2.0	0.6368697663430467	0.151	n/a	stim	poldrack-single-stim	s574	False	1
343.289	0.215	343.504	3.583415636803489	draw_card	0.215	columbia_card_task_fmri	16.0	0.8571428571428572	89.0	-80.0	0.1428571428571428	16.0	3.0	2.0	1.5954111164876323	0.215	3.0	stim	poldrack-single-stim	s574	False	0
344.264	1.5	343.513	n/a	-1.0	2.25	columbia_card_task_fmri	n/a	n/a	-1.0	n/a	n/a	n/a	n/a	n/a	n/a	n/a	n/a	ITI	poldrack-single-stim	s574	False	0
345.768	0.284	346.052	2.4852013510892013	draw_card	0.284	columbia_card_task_fmri	4.0	0.6875	89.0	-5.0	0.3125	16.0	1.0	5.0	-27.653851578900905	0.284	n/a	stim	poldrack-single-stim	s574	False	1
346.056	0.161	346.217	2.2977013510892017	draw_card	0.161	columbia_card_task_fmri	4.0	0.6666666666666667	89.0	-5.0	0.3333333333333333	16.0	2.0	5.0	-27.585978238962888	0.161	n/a	stim	poldrack-single-stim	s574	False	1
346.222	0.173	346.395	2.083415636803487	draw_card	0.173	columbia_card_task_fmri	4.0	0.6428571428571428	89.0	-5.0	0.3571428571428571	16.0	3.0	5.0	-27.519207371871776	0.173	n/a	stim	poldrack-single-stim	s574	False	1
346.4	0.308	346.708	1.83616288955074	draw_card	0.308	columbia_card_task_fmri	4.0	0.6153846153846154	89.0	-5.0	0.3846153846153846	16.0	4.0	5.0	-27.455850819453627	0.308	n/a	stim	poldrack-single-stim	s574	False	1
346.713	1.469	348.182	1.5477013510892008	end_round	1.469	columbia_card_task_fmri	4.0	0.5833333333333333	71.0	-5.0	0.4166666666666667	16.0	5.0	5.0	-27.399711814115765	1.469	4.0	stim	poldrack-single-stim	s574	False	1
348.939	1.5	348.188	n/a	-1.0	2.25	columbia_card_task_fmri	n/a	n/a	-1.0	n/a	n/a	n/a	n/a	n/a	n/a	n/a	n/a	ITI	poldrack-single-stim	s574	False	0
350.444	1.552	351.996	-0.368965315577463	draw_card	1.552	columbia_card_task_fmri	14.0	0.8333333333333334	89.0	-80.0	0.1666666666666666	6.0	1.0	1.0	3.033112271745459	1.552	n/a	stim	poldrack-single-stim	s574	False	1
352.001	0.579	352.58	-3.5022986489107977	draw_card	0.579	columbia_card_task_fmri	14.0	0.8	89.0	-80.0	0.2	6.0	2.0	1.0	5.599740436420838	0.579	n/a	stim	poldrack-single-stim	s574	False	1
352.584	1.501	354.085	-8.202298648910798	draw_card	1.501	columbia_card_task_fmri	14.0	0.75	89.0	-80.0	0.25	6.0	3.0	1.0	8.701228516019967	1.501	n/a	stim	poldrack-single-stim	s574	False	1
354.089	0.542	354.631	-16.035631982244126	end_round	0.542	columbia_card_task_fmri	14.0	0.6666666666666667	71.0	-80.0	0.3333333333333333	6.0	4.0	1.0	12.308375922219945	0.542	3.0	stim	poldrack-single-stim	s574	False	1
355.391	1.5	354.64	n/a	-1.0	2.454	columbia_card_task_fmri	n/a	n/a	-1.0	n/a	n/a	n/a	n/a	n/a	n/a	n/a	n/a	ITI	poldrack-single-stim	s574	False	0
357.1	0.363	357.463	1.2977013510892013	draw_card	0.363	columbia_card_task_fmri	15.0	0.8333333333333334	89.0	-75.0	0.1666666666666666	6.0	1.0	1.0	1.54346739524469	0.363	n/a	stim	poldrack-single-stim	s574	False	1
357.467	0.164	357.631	-1.7022986489107987	draw_card	0.164	columbia_card_task_fmri	15.0	0.8	89.0	-75.0	0.2	6.0	2.0	1.0	4.000734796998394	0.164	2.0	stim	poldrack-single-stim	s574	False	0
358.389	1.5	357.638	n/a	-1.0	2.454	columbia_card_task_fmri	n/a	n/a	-1.0	n/a	n/a	n/a	n/a	n/a	n/a	n/a	n/a	ITI	poldrack-single-stim	s574	False	0
360.098	0.33	360.428	2.964368017755869	draw_card	0.33	columbia_card_task_fmri	16.0	0.8333333333333334	89.0	-70.0	0.1666666666666666	6.0	1.0	1.0	0.0539216680355849	0.33	1.0	stim	poldrack-single-stim	s574	False	0
361.185	1.5	360.434	n/a	-1.0	2.522	columbia_card_task_fmri	n/a	n/a	-1.0	n/a	n/a	n/a	n/a	n/a	n/a	n/a	n/a	ITI	poldrack-single-stim	s574	False	0
362.961	2.231	365.192	3.5477013510892013	draw_card	2.231	columbia_card_task_fmri	23.0	0.75	89.0	-60.0	0.25	8.0	1.0	2.0	3.940828027869351	2.231	n/a	stim	poldrack-single-stim	s574	False	1
365.198	1.535	366.733	0.5834156368034895	draw_card	1.535	columbia_card_task_fmri	23.0	0.7142857142857143	89.0	-60.0	0.2857142857142857	8.0	2.0	2.0	5.495380716578588	1.535	2.0	stim	poldrack-single-stim	s574	False	0
367.492	1.5	366.741	n/a	-1.0	2.386	columbia_card_task_fmri	n/a	n/a	-1.0	n/a	n/a	n/a	n/a	n/a	n/a	n/a	n/a	ITI	poldrack-single-stim	s574	False	0
369.133	0.631	369.764	4.047701351089201	draw_card	0.631	columbia_card_task_fmri	27.0	0.75	89.0	-70.0	0.25	8.0	1.0	2.0	9.999627299557504	0.631	n/a	stim	poldrack-single-stim	s574	False	1
369.769	0.208	369.977	0.583415636803486	draw_card	0.208	columbia_card_task_fmri	27.0	0.7142857142857143	89.0	-70.0	0.2857142857142857	8.0	2.0	2.0	11.81669742151147	0.208	n/a	stim	poldrack-single-stim	s574	False	1
369.982	1.399	371.381	-4.035631982244127	end_round	1.399	columbia_card_task_fmri	27.0	0.6666666666666667	71.0	-70.0	0.3333333333333333	8.0	3.0	2.0	13.722002161951387	1.399	2.0	stim	poldrack-single-stim	s574	False	1
372.139	1.5	371.388	n/a	-1.0	2.454	columbia_card_task_fmri	n/a	n/a	-1.0	n/a	n/a	n/a	n/a	n/a	n/a	n/a	n/a	ITI	poldrack-single-stim	s574	False	0
373.847	0.302	374.149	-0.702298648910797	draw_card	0.302	columbia_card_task_fmri	16.0	0.7777777777777778	89.0	-65.0	0.2222222222222222	9.0	1.0	2.0	1.677264507624919	0.302	1.0	stim	poldrack-single-stim	s574	False	0
374.906	1.5	374.155	n/a	-1.0	2.522	columbia_card_task_fmri	n/a	n/a	-1.0	n/a	n/a	n/a	n/a	n/a	n/a	n/a	n/a	ITI	poldrack-single-stim	s574	False	0
376.682	0.026	376.708	4.497701351089202	draw_card	0.026	columbia_card_task_fmri	13.0	0.9	89.0	-85.0	0.1	10.0	1.0	1.0	-2.5940208894133683	0.026	n/a	stim	poldrack-single-stim	s574	False	1
376.714	0.189	376.903	3.408812462200312	draw_card	0.189	columbia_card_task_fmri	13.0	0.8888888888888888	89.0	-85.0	0.1111111111111111	10.0	2.0	1.0	-1.1968908062551264	0.189	n/a	stim	poldrack-single-stim	s574	False	1
376.908	1.057	377.965	2.0477013510892013	draw_card	1.057	columbia_card_task_fmri	13.0	0.875	89.0	-85.0	0.125	10.0	3.0	1.0	0.4137759742716866	1.057	n/a	stim	poldrack-single-stim	s574	False	1
377.97	0.341	378.311	0.297701351089203	end_round	0.341	columbia_card_task_fmri	13.0	0.8571428571428572	71.0	-85.0	0.1428571428571428	10.0	4.0	1.0	2.2947543548055336	0.341	3.0	stim	poldrack-single-stim	s574	False	1
379.068	1.5	378.317	n/a	-1.0	2.522	columbia_card_task_fmri	n/a	n/a	-1.0	n/a	n/a	n/a	n/a	n/a	n/a	n/a	n/a	ITI	poldrack-single-stim	s574	False	0
380.846	0.362	381.208	-0.5022986489107977	draw_card	0.362	columbia_card_task_fmri	14.0	0.8	89.0	-65.0	0.2	10.0	1.0	2.0	-0.3960120983564685	0.362	n/a	stim	poldrack-single-stim	s574	False	1
381.213	0.232	381.445	-2.2578542044663523	draw_card	0.232	columbia_card_task_fmri	14.0	0.7777777777777778	89.0	-65.0	0.2222222222222222	10.0	2.0	2.0	0.8464173839792437	0.232	n/a	stim	poldrack-single-stim	s574	False	1
381.45	0.69	382.14	-4.452298648910799	draw_card	0.69	columbia_card_task_fmri	14.0	0.75	89.0	-65.0	0.25	10.0	3.0	2.0	2.209962245128189	0.69	3.0	stim	poldrack-single-stim	s574	False	0
382.899	1.5	382.148	n/a	-1.0	2.59	columbia_card_task_fmri	n/a	n/a	-1.0	n/a	n/a	n/a	n/a	n/a	n/a	n/a	n/a	ITI	poldrack-single-stim	s574	False	0
384.744	0.328	385.072	0.8977013510892027	draw_card	0.328	columbia_card_task_fmri	17.0	0.8	89.0	-70.0	0.2	10.0	1.0	2.0	2.8015405116914422	0.328	1.0	stim	poldrack-single-stim	s574	False	0
385.83	1.5	385.079	n/a	-1.0	2.454	columbia_card_task_fmri	n/a	n/a	-1.0	n/a	n/a	n/a	n/a	n/a	n/a	n/a	n/a	ITI	poldrack-single-stim	s574	False	0
387.539	0.238	387.777	-0.3689653155774648	draw_card	0.238	columbia_card_task_fmri	13.0	0.8333333333333334	89.0	-75.0	0.1666666666666666	12.0	1.0	2.0	0.7986812942566104	0.238	n/a	stim	poldrack-single-stim	s574	False	1
387.782	0.842	388.624	-1.7022986489108003	draw_card	0.842	columbia_card_task_fmri	13.0	0.8181818181818181	89.0	-75.0	0.1818181818181818	12.0	2.0	2.0	1.94327762565424	0.842	2.0	stim	poldrack-single-stim	s574	False	0
389.385	1.5	388.634	n/a	-1.0	2.318	columbia_card_task_fmri	n/a	n/a	-1.0	n/a	n/a	n/a	n/a	n/a	n/a	n/a	n/a	ITI	poldrack-single-stim	s574	False	0
390.958	0.379	391.337	1.297701351089203	draw_card	0.379	columbia_card_task_fmri	14.0	0.8333333333333334	89.0	-70.0	0.1666666666666666	12.0	1.0	2.0	-0.6908095954979778	0.379	n/a	stim	poldrack-single-stim	s574	False	1
391.342	1.296	392.638	0.0249740783619261	end_round	1.296	columbia_card_task_fmri	14.0	0.8181818181818181	71.0	-70.0	0.1818181818181818	12.0	2.0	2.0	0.4016791753485549	1.296	1.0	stim	poldrack-single-stim	s574	False	1
393.394	1.5	392.643	n/a	-1.0	2.25	columbia_card_task_fmri	n/a	n/a	-1.0	n/a	n/a	n/a	n/a	n/a	n/a	n/a	n/a	ITI	poldrack-single-stim	s574	False	0
394.9	0.433	395.333	1.297701351089203	draw_card	0.433	columbia_card_task_fmri	16.0	0.8333333333333334	89.0	-80.0	0.1666666666666666	12.0	1.0	2.0	3.777968023309292	0.433	n/a	stim	poldrack-single-stim	s574	False	1
395.337	0.738	396.075	-0.1568441034562555	draw_card	0.738	columbia_card_task_fmri	16.0	0.8181818181818181	89.0	-80.0	0.1818181818181818	12.0	2.0	2.0	5.02676922902694	0.738	n/a	stim	poldrack-single-stim	s574	False	1
396.08	0.652	396.732	-1.902298648910798	end_round	0.652	columbia_card_task_fmri	16.0	0.8	71.0	-80.0	0.2	12.0	3.0	2.0	6.399274302533577	0.652	2.0	stim	poldrack-single-stim	s574	False	1
397.493	1.5	396.742	n/a	-1.0	2.658	columbia_card_task_fmri	n/a	n/a	-1.0	n/a	n/a	n/a	n/a	n/a	n/a	n/a	n/a	ITI	poldrack-single-stim	s574	False	0
399.407	0.349	399.756	1.097701351089202	draw_card	0.349	columbia_card_task_fmri	16.0	0.8	89.0	-65.0	0.2	15.0	1.0	3.0	0.4033307857776407	0.349	n/a	stim	poldrack-single-stim	s574	False	1
399.762	0.56	400.322	-0.0594415060536546	draw_card	0.56	columbia_card_task_fmri	16.0	0.7857142857142857	89.0	-65.0	0.2142857142857142	15.0	2.0	3.0	1.2390757274582356	0.56	n/a	stim	poldrack-single-stim	s574	False	1
400.327	0.411	400.738	-1.394606341218492	draw_card	0.411	columbia_card_task_fmri	16.0	0.7692307692307692	89.0	-65.0	0.2307692307692307	15.0	3.0	3.0	2.129345503019892	0.411	n/a	stim	poldrack-single-stim	s574	False	1
400.743	0.424	401.167	-2.9522986489107987	draw_card	0.424	columbia_card_task_fmri	16.0	0.75	89.0	-65.0	0.25	15.0	4.0	3.0	3.0753805215703025	0.424	n/a	stim	poldrack-single-stim	s574	False	1
401.174	1.009	402.183	-4.793207739819889	end_round	1.009	columbia_card_task_fmri	16.0	0.7272727272727273	71.0	-65.0	0.2727272727272727	15.0	5.0	3.0	4.074990152702668	1.009	4.0	stim	poldrack-single-stim	s574	False	1
402.94	1.5	402.189	n/a	-1.0	2.454	columbia_card_task_fmri	n/a	n/a	-1.0	n/a	n/a	n/a	n/a	n/a	n/a	n/a	n/a	ITI	poldrack-single-stim	s574	False	0
404.649	0.321	404.97	-0.5772986489107987	draw_card	0.321	columbia_card_task_fmri	15.0	0.8125	89.0	-75.0	0.1875	16.0	1.0	3.0	3.1294284851808456	0.321	n/a	stim	poldrack-single-stim	s574	False	1
404.975	0.444	405.419	-1.7022986489107987	draw_card	0.444	columbia_card_task_fmri	15.0	0.8	89.0	-75.0	0.2	16.0	2.0	3.0	4.000734796998394	0.444	n/a	stim	poldrack-single-stim	s574	False	1
405.425	0.41	405.835	-2.9880129346250834	draw_card	0.41	columbia_card_task_fmri	15.0	0.7857142857142857	89.0	-75.0	0.2142857142857142	16.0	3.0	3.0	4.929478060468334	0.41	n/a	stim	poldrack-single-stim	s574	False	1
405.839	0.769	406.608	-4.471529418141572	draw_card	0.769	columbia_card_task_fmri	15.0	0.7692307692307692	89.0	-75.0	0.2307692307692307	16.0	4.0	3.0	5.918806042364928	0.769	4.0	stim	poldrack-single-stim	s574	False	0
407.366	1.5	406.615	n/a	-1.0	2.386	columbia_card_task_fmri	n/a	n/a	-1.0	n/a	n/a	n/a	n/a	n/a	n/a	n/a	n/a	ITI	poldrack-single-stim	s574	False	0
409.007	0.097	409.104	-0.0147986489107987	draw_card	0.097	columbia_card_task_fmri	14.0	0.6875	89.0	-35.0	0.3125	16.0	1.0	5.0	-9.273495869596712	0.097	1.0	stim	poldrack-single-stim	s574	False	0
409.861	1.5	409.11	n/a	-1.0	2.59	columbia_card_task_fmri	n/a	n/a	-1.0	n/a	n/a	n/a	n/a	n/a	n/a	n/a	n/a	ITI	poldrack-single-stim	s574	False	0
411.706	2.396	414.102	5.164368017755868	draw_card	2.396	columbia_card_task_fmri	16.0	0.8666666666666667	89.0	-75.0	0.1333333333333333	15.0	1.0	2.0	-1.0613874871401308	2.396	n/a	stim	poldrack-single-stim	s574	False	1
414.106	0.631	414.737	4.297701351089203	draw_card	0.631	columbia_card_task_fmri	16.0	0.8571428571428572	89.0	-75.0	0.1428571428571428	15.0	2.0	2.0	-0.1528488322816557	0.631	n/a	stim	poldrack-single-stim	s574	False	1
414.742	2.059	416.801	3.2977013510892013	draw_card	2.059	columbia_card_task_fmri	16.0	0.8461538461538461	89.0	-75.0	0.1538461538461538	15.0	3.0	2.0	0.8358988511382037	2.059	n/a	stim	poldrack-single-stim	s574	False	1
416.807	0.44	417.247	2.131034684422535	draw_card	0.44	columbia_card_task_fmri	16.0	0.8333333333333334	89.0	-75.0	0.1666666666666666	15.0	4.0	2.0	1.9158698290979288	0.44	4.0	stim	poldrack-single-stim	s574	False	0
418.005	1.5	417.254	n/a	-1.0	2.318	columbia_card_task_fmri	n/a	n/a	-1.0	n/a	n/a	n/a	n/a	n/a	n/a	n/a	n/a	ITI	poldrack-single-stim	s574	False	0
419.579	0.156	419.735	5.831034684422535	draw_card	0.156	columbia_card_task_fmri	16.0	0.8666666666666667	89.0	-70.0	0.1333333333333333	15.0	1.0	2.0	-2.7594803290451964	0.156	1.0	stim	poldrack-single-stim	s574	False	0
420.495	1.5	419.744	n/a	-1.0	2.59	columbia_card_task_fmri	n/a	n/a	-1.0	n/a	n/a	n/a	n/a	n/a	n/a	n/a	n/a	ITI	poldrack-single-stim	s574	False	0
422.342	0.615	422.957	3.1727013510892013	draw_card	0.615	columbia_card_task_fmri	8.0	0.9375	89.0	-90.0	0.0625	16.0	1.0	1.0	-8.26515536876618	0.615	n/a	stim	poldrack-single-stim	s574	False	1
422.964	0.263	423.227	2.764368017755868	draw_card	0.263	columbia_card_task_fmri	8.0	0.9333333333333332	89.0	-90.0	0.0666666666666666	16.0	2.0	1.0	-7.542731641145565	0.263	n/a	stim	poldrack-single-stim	s574	False	1
423.234	0.243	423.477	2.297701351089202	draw_card	0.243	columbia_card_task_fmri	8.0	0.9285714285714286	89.0	-90.0	0.0714285714285714	16.0	3.0	1.0	-6.750448165808432	0.243	n/a	stim	poldrack-single-stim	s574	False	1
423.484	0.213	423.697	1.759239812627663	draw_card	0.213	columbia_card_task_fmri	8.0	0.9230769230769232	89.0	-90.0	0.0769230769230769	16.0	4.0	1.0	-5.876426192887298	0.213	n/a	stim	poldrack-single-stim	s574	False	1
423.704	0.502	424.206	1.1310346844225343	end_round	0.502	columbia_card_task_fmri	8.0	0.9166666666666666	71.0	-90.0	0.0833333333333333	16.0	5.0	1.0	-4.905808630134846	0.502	4.0	stim	poldrack-single-stim	s574	False	1
424.966	1.5	424.215	n/a	-1.0	2.386	columbia_card_task_fmri	n/a	n/a	-1.0	n/a	n/a	n/a	n/a	n/a	n/a	n/a	n/a	ITI	poldrack-single-stim	s574	False	0
426.609	0.694	427.303	4.735201351089201	draw_card	0.694	columbia_card_task_fmri	10.0	0.9375	89.0	-95.0	0.0625	16.0	1.0	1.0	-6.573086538160307	0.694	n/a	stim	poldrack-single-stim	s574	False	1
427.308	0.332	427.64	4.297701351089202	draw_card	0.332	columbia_card_task_fmri	10.0	0.9333333333333332	89.0	-95.0	0.0666666666666666	16.0	2.0	1.0	-5.79891663783329	0.332	n/a	stim	poldrack-single-stim	s574	False	1
427.644	0.196	427.84	3.797701351089202	draw_card	0.196	columbia_card_task_fmri	10.0	0.9285714285714286	89.0	-95.0	0.0714285714285714	16.0	3.0	1.0	-4.94989253578683	0.196	n/a	stim	poldrack-single-stim	s574	False	1
427.846	0.187	428.033	3.2207782741661246	draw_card	0.187	columbia_card_task_fmri	10.0	0.9230769230769232	89.0	-95.0	0.0769230769230769	16.0	4.0	1.0	-4.013286579675292	0.187	n/a	stim	poldrack-single-stim	s574	False	1
428.038	0.181	428.219	2.5477013510892013	draw_card	0.181	columbia_card_task_fmri	10.0	0.9166666666666666	89.0	-95.0	0.0833333333333333	16.0	5.0	1.0	-2.973179970811476	0.181	5.0	stim	poldrack-single-stim	s574	False	0
428.976	1.5	428.225	n/a	-1.0	2.318	columbia_card_task_fmri	n/a	n/a	-1.0	n/a	n/a	n/a	n/a	n/a	n/a	n/a	n/a	ITI	poldrack-single-stim	s574	False	0
430.549	0.213	430.762	5.672701351089201	draw_card	0.213	columbia_card_task_fmri	15.0	0.875	89.0	-70.0	0.125	16.0	1.0	2.0	-3.881602074554685	0.213	n/a	stim	poldrack-single-stim	s574	False	1
430.767	0.187	430.954	4.964368017755867	draw_card	0.187	columbia_card_task_fmri	15.0	0.8666666666666667	89.0	-70.0	0.1333333333333333	16.0	2.0	2.0	-3.099076619714946	0.187	n/a	stim	poldrack-single-stim	s574	False	1
430.958	0.369	431.327	4.154844208232059	draw_card	0.369	columbia_card_task_fmri	15.0	0.8571428571428572	89.0	-70.0	0.1428571428571428	16.0	3.0	2.0	-2.250547437199863	0.369	n/a	stim	poldrack-single-stim	s574	False	1
431.334	0.184	431.518	3.220778274166123	draw_card	0.184	columbia_card_task_fmri	15.0	0.8461538461538461	89.0	-70.0	0.1538461538461538	16.0	4.0	2.0	-1.327100427378351	0.184	n/a	stim	poldrack-single-stim	s574	False	1
431.523	0.357	431.88	2.131034684422535	draw_card	0.357	columbia_card_task_fmri	15.0	0.8333333333333334	89.0	-70.0	0.1666666666666666	16.0	5.0	2.0	-0.3184476339887609	0.357	n/a	stim	poldrack-single-stim	s574	False	1
431.885	0.179	432.064	0.8431558965437445	end_round	0.179	columbia_card_task_fmri	15.0	0.8181818181818181	71.0	-70.0	0.1818181818181818	16.0	6.0	2.0	0.7870683884518499	0.179	5.0	stim	poldrack-single-stim	s574	False	1
432.821	1.5	432.07	n/a	-1.0	2.318	columbia_card_task_fmri	n/a	n/a	-1.0	n/a	n/a	n/a	n/a	n/a	n/a	n/a	n/a	ITI	poldrack-single-stim	s574	False	0
434.393	0.274	434.667	4.672701351089201	draw_card	0.274	columbia_card_task_fmri	16.0	0.875	89.0	-85.0	0.125	16.0	1.0	2.0	1.4051619405608875	0.274	n/a	stim	poldrack-single-stim	s574	False	1
434.673	0.193	434.866	3.8310346844225354	draw_card	0.193	columbia_card_task_fmri	16.0	0.8666666666666667	89.0	-85.0	0.1333333333333333	16.0	2.0	2.0	2.335267051601498	0.193	n/a	stim	poldrack-single-stim	s574	False	1
434.871	0.154	435.025	2.869129922517774	draw_card	0.154	columbia_card_task_fmri	16.0	0.8571428571428572	89.0	-85.0	0.1428571428571428	16.0	3.0	2.0	3.3438071165154994	0.154	3.0	stim	poldrack-single-stim	s574	False	0
435.784	1.5	435.033	n/a	-1.0	2.318	columbia_card_task_fmri	n/a	n/a	-1.0	n/a	n/a	n/a	n/a	n/a	n/a	n/a	n/a	ITI	poldrack-single-stim	s574	False	0
