onset	duration	movement_onset	EV	action	block_duration	experiment_exp_id	gain_amount	gain_probability	key_press	loss_amount	loss_probability	num_cards	num_click_in_round	num_loss_cards	risk	response_time	total_cards	trial_id	trial_type	worker_id	junk	feedback
3.015	1.269	4.284	0.2786720407321579	draw_card	1.269	columbia_card_task_fmri	12.0	0.8333333333333334	89.0	-70.0	0.1666666666666666	6.0	1.0	1.0	-2.446393856767596	1.269	n/a	stim	poldrack-single-stim	s577	False	1
4.286	0.877	5.163	-2.4546612926011746	draw_card	0.877	columbia_card_task_fmri	12.0	0.8	89.0	-70.0	0.2	6.0	2.0	1.0	-0.2102068614624386	0.877	n/a	stim	poldrack-single-stim	s577	False	1
5.164	0.709	5.873	-6.5546612926011765	draw_card	0.709	columbia_card_task_fmri	12.0	0.75	89.0	-70.0	0.25	6.0	3.0	1.0	2.492447285705396	0.709	n/a	stim	poldrack-single-stim	s577	False	1
5.874	1.66	7.534	-13.387994625934509	draw_card	1.66	columbia_card_task_fmri	12.0	0.6666666666666667	89.0	-70.0	0.3333333333333333	6.0	4.0	1.0	5.63624539912955	1.66	4.0	stim	poldrack-single-stim	s577	False	0
8.291	1.5	7.54	n/a	-1.0	2.454	columbia_card_task_fmri	n/a	n/a	-1.0	n/a	n/a	n/a	n/a	n/a	n/a	n/a	n/a	ITI	poldrack-single-stim	s577	False	0
9.997	0.726	10.723	1.1120053740654918	draw_card	0.726	columbia_card_task_fmri	14.0	0.8333333333333334	89.0	-75.0	0.1666666666666666	6.0	1.0	1.0	0.1574958318828123	0.726	n/a	stim	poldrack-single-stim	s577	False	1
10.724	0.419	11.143	-1.854661292601175	draw_card	0.419	columbia_card_task_fmri	14.0	0.8	89.0	-75.0	0.2	6.0	2.0	1.0	2.585266891693649	0.419	n/a	stim	poldrack-single-stim	s577	False	1
11.144	0.746	11.89	-6.3046612926011765	end_round	0.746	columbia_card_task_fmri	14.0	0.75	71.0	-75.0	0.25	6.0	3.0	1.0	5.519353541156654	0.746	2.0	stim	poldrack-single-stim	s577	False	1
12.643	1.5	11.892	n/a	-1.0	2.454	columbia_card_task_fmri	n/a	n/a	-1.0	n/a	n/a	n/a	n/a	n/a	n/a	n/a	n/a	ITI	poldrack-single-stim	s577	False	0
14.348	0.525	14.873	2.778672040732158	draw_card	0.525	columbia_card_task_fmri	15.0	0.8333333333333334	89.0	-70.0	0.1666666666666666	6.0	1.0	1.0	-1.330538799643552	0.525	1.0	stim	poldrack-single-stim	s577	False	0
15.626	1.5	14.875	n/a	-1.0	2.522	columbia_card_task_fmri	n/a	n/a	-1.0	n/a	n/a	n/a	n/a	n/a	n/a	n/a	n/a	ITI	poldrack-single-stim	s577	False	0
17.399	0.955	18.354	3.612005374065492	end_round	0.955	columbia_card_task_fmri	17.0	0.8333333333333334	71.0	-75.0	0.1666666666666666	6.0	1.0	1.0	1.273674207314258	0.955	0.0	stim	poldrack-single-stim	s577	False	1
19.108	1.5	18.357	n/a	-1.0	2.454	columbia_card_task_fmri	n/a	n/a	-1.0	n/a	n/a	n/a	n/a	n/a	n/a	n/a	n/a	ITI	poldrack-single-stim	s577	False	0
20.814	0.915	21.729	4.945338707398824	draw_card	0.915	columbia_card_task_fmri	24.0	0.75	89.0	-60.0	0.25	8.0	1.0	2.0	3.357206661366739	0.915	1.0	stim	poldrack-single-stim	s577	False	0
22.483	1.5	21.732	n/a	-1.0	2.658	columbia_card_task_fmri	n/a	n/a	-1.0	n/a	n/a	n/a	n/a	n/a	n/a	n/a	n/a	ITI	poldrack-single-stim	s577	False	0
24.392	1.08	25.472	4.945338707398824	draw_card	1.08	columbia_card_task_fmri	29.0	0.75	89.0	-75.0	0.25	8.0	1.0	2.0	12.007474182685506	1.08	n/a	stim	poldrack-single-stim	s577	False	1
25.473	0.524	25.997	1.2310529931131122	draw_card	0.524	columbia_card_task_fmri	29.0	0.7142857142857143	89.0	-75.0	0.2857142857142857	8.0	2.0	2.0	13.954823370133312	0.524	n/a	stim	poldrack-single-stim	s577	False	1
25.998	1.422	27.42	-3.72132795926784	draw_card	1.422	columbia_card_task_fmri	29.0	0.6666666666666667	89.0	-75.0	0.3333333333333333	8.0	3.0	2.0	15.996805819074844	1.422	n/a	stim	poldrack-single-stim	s577	False	1
27.422	0.66	28.082	-10.654661292601178	end_round	0.66	columbia_card_task_fmri	29.0	0.6	71.0	-75.0	0.4	8.0	4.0	2.0	17.918667009169198	0.66	3.0	stim	poldrack-single-stim	s577	False	1
28.835	1.5	28.084	n/a	-1.0	2.386	columbia_card_task_fmri	n/a	n/a	-1.0	n/a	n/a	n/a	n/a	n/a	n/a	n/a	n/a	ITI	poldrack-single-stim	s577	False	0
30.472	0.763	31.235	0.7231164851766043	draw_card	0.763	columbia_card_task_fmri	17.0	0.7777777777777778	89.0	-65.0	0.2222222222222222	9.0	1.0	2.0	1.0782708138228827	0.763	n/a	stim	poldrack-single-stim	s577	False	1
31.237	0.484	31.721	-1.554661292601176	draw_card	0.484	columbia_card_task_fmri	17.0	0.75	89.0	-65.0	0.25	9.0	2.0	2.0	2.492447285705396	0.484	n/a	stim	poldrack-single-stim	s577	False	1
31.723	1.107	32.83	-4.483232721172604	draw_card	1.107	columbia_card_task_fmri	17.0	0.7142857142857143	89.0	-65.0	0.2857142857142857	9.0	3.0	2.0	4.027023746707968	1.107	n/a	stim	poldrack-single-stim	s577	False	1
32.832	1.893	34.725	-8.387994625934507	draw_card	1.893	columbia_card_task_fmri	17.0	0.6666666666666667	89.0	-65.0	0.3333333333333333	9.0	4.0	2.0	5.63624539912955	1.893	n/a	stim	poldrack-single-stim	s577	False	1
34.727	0.802	35.529	-13.854661292601175	end_round	0.802	columbia_card_task_fmri	17.0	0.6	71.0	-65.0	0.4	9.0	5.0	2.0	7.150862006916022	0.802	4.0	stim	poldrack-single-stim	s577	False	1
36.286	1.5	35.535	n/a	-1.0	2.522	columbia_card_task_fmri	n/a	n/a	-1.0	n/a	n/a	n/a	n/a	n/a	n/a	n/a	n/a	ITI	poldrack-single-stim	s577	False	0
38.059	0.781	38.84	5.045338707398823	draw_card	0.781	columbia_card_task_fmri	14.0	0.9	89.0	-95.0	0.1	10.0	1.0	1.0	-0.3100309105734382	0.781	n/a	stim	poldrack-single-stim	s577	False	1
38.842	0.53	39.372	3.834227596287712	draw_card	0.53	columbia_card_task_fmri	14.0	0.8888888888888888	89.0	-95.0	0.1111111111111111	10.0	2.0	1.0	1.2427435207071298	0.53	n/a	stim	poldrack-single-stim	s577	False	1
39.373	0.654	40.027	2.320338707398824	draw_card	0.654	columbia_card_task_fmri	14.0	0.875	89.0	-95.0	0.125	10.0	3.0	1.0	3.0329688845252534	0.654	n/a	stim	poldrack-single-stim	s577	False	1
40.03	1.167	41.197	0.3739101359702528	draw_card	1.167	columbia_card_task_fmri	14.0	0.8571428571428572	89.0	-95.0	0.1428571428571428	10.0	4.0	1.0	5.1237865085827465	1.167	n/a	stim	poldrack-single-stim	s577	False	1
41.198	0.615	41.813	-2.2213279592678403	end_round	0.615	columbia_card_task_fmri	14.0	0.8333333333333334	71.0	-95.0	0.1666666666666666	10.0	5.0	1.0	7.600610623039401	0.615	4.0	stim	poldrack-single-stim	s577	False	1
42.57	1.5	41.819	n/a	-1.0	2.59	columbia_card_task_fmri	n/a	n/a	-1.0	n/a	n/a	n/a	n/a	n/a	n/a	n/a	n/a	ITI	poldrack-single-stim	s577	False	0
44.411	0.627	45.038	0.945338707398824	draw_card	0.627	columbia_card_task_fmri	15.0	0.8	89.0	-65.0	0.2	10.0	1.0	2.0	-1.00876854670895	0.627	n/a	stim	poldrack-single-stim	s577	False	1
45.039	0.431	45.47	-0.8324390703789528	draw_card	0.431	columbia_card_task_fmri	15.0	0.7777777777777778	89.0	-65.0	0.2222222222222222	10.0	2.0	2.0	0.2481755325635788	0.431	n/a	stim	poldrack-single-stim	s577	False	1
45.472	0.539	46.011	-3.054661292601176	draw_card	0.539	columbia_card_task_fmri	15.0	0.75	89.0	-65.0	0.25	10.0	3.0	2.0	1.627751065732042	0.539	n/a	stim	poldrack-single-stim	s577	False	1
46.013	0.927	46.94	-5.911804149744031	draw_card	0.927	columbia_card_task_fmri	15.0	0.7142857142857143	89.0	-65.0	0.2857142857142857	10.0	4.0	2.0	3.124790124017906	0.927	n/a	stim	poldrack-single-stim	s577	False	1
46.942	0.773	47.715	-9.72132795926784	end_round	0.773	columbia_card_task_fmri	15.0	0.6666666666666667	71.0	-65.0	0.3333333333333333	10.0	5.0	2.0	4.694657730074098	0.773	4.0	stim	poldrack-single-stim	s577	False	1
48.468	1.5	47.717	n/a	-1.0	2.386	columbia_card_task_fmri	n/a	n/a	-1.0	n/a	n/a	n/a	n/a	n/a	n/a	n/a	n/a	ITI	poldrack-single-stim	s577	False	0
50.106	0.519	50.625	2.5453387073988254	draw_card	0.519	columbia_card_task_fmri	17.0	0.8	89.0	-65.0	0.2	10.0	1.0	2.0	-0.2102068614624386	0.519	n/a	stim	poldrack-single-stim	s577	False	1
50.626	0.565	51.191	0.7231164851766043	draw_card	0.565	columbia_card_task_fmri	17.0	0.7777777777777778	89.0	-65.0	0.2222222222222222	10.0	2.0	2.0	1.0782708138228827	0.565	2.0	stim	poldrack-single-stim	s577	False	0
51.944	1.5	51.193	n/a	-1.0	2.59	columbia_card_task_fmri	n/a	n/a	-1.0	n/a	n/a	n/a	n/a	n/a	n/a	n/a	n/a	ITI	poldrack-single-stim	s577	False	0
53.786	0.666	54.452	1.1120053740654918	draw_card	0.666	columbia_card_task_fmri	13.0	0.8333333333333334	89.0	-70.0	0.1666666666666666	12.0	1.0	2.0	-2.0744596209844595	0.666	n/a	stim	poldrack-single-stim	s577	False	1
54.453	0.367	54.82	-0.1455703835102695	draw_card	0.367	columbia_card_task_fmri	13.0	0.8181818181818181	89.0	-70.0	0.1818181818181818	12.0	2.0	2.0	-0.9961393950710972	0.367	n/a	stim	poldrack-single-stim	s577	False	1
54.822	0.702	55.524	-1.6546612926011757	draw_card	0.702	columbia_card_task_fmri	13.0	0.8	89.0	-70.0	0.2	12.0	3.0	2.0	0.1890999069764802	0.702	n/a	stim	poldrack-single-stim	s577	False	1
55.525	0.712	56.237	-3.4991057370456207	draw_card	0.712	columbia_card_task_fmri	13.0	0.7777777777777778	89.0	-70.0	0.2222222222222222	12.0	4.0	2.0	1.4933434085596602	0.712	4.0	stim	poldrack-single-stim	s577	False	0
56.991	1.5	56.24	n/a	-1.0	2.318	columbia_card_task_fmri	n/a	n/a	-1.0	n/a	n/a	n/a	n/a	n/a	n/a	n/a	n/a	ITI	poldrack-single-stim	s577	False	0
58.561	0.513	59.074	1.1120053740654918	draw_card	0.513	columbia_card_task_fmri	15.0	0.8333333333333334	89.0	-80.0	0.1666666666666666	12.0	1.0	2.0	2.389969505945458	0.513	n/a	stim	poldrack-single-stim	s577	False	1
59.075	0.421	59.496	-0.3273885653284512	draw_card	0.421	columbia_card_task_fmri	15.0	0.8181818181818181	89.0	-80.0	0.1818181818181818	12.0	2.0	2.0	3.6247478811395695	0.421	n/a	stim	poldrack-single-stim	s577	False	1
59.499	0.501	60.0	-2.054661292601176	draw_card	0.501	columbia_card_task_fmri	15.0	0.8	89.0	-80.0	0.2	12.0	3.0	2.0	4.98191703050675	0.501	n/a	stim	poldrack-single-stim	s577	False	1
60.003	1.02	61.023	-4.165772403712289	draw_card	1.02	columbia_card_task_fmri	15.0	0.7777777777777778	89.0	-80.0	0.2222222222222222	12.0	4.0	2.0	6.47530782912758	1.02	n/a	stim	poldrack-single-stim	s577	False	1
61.024	0.914	61.938	-6.8046612926011765	draw_card	0.914	columbia_card_task_fmri	15.0	0.75	89.0	-80.0	0.25	12.0	5.0	2.0	8.114334331852255	0.914	n/a	stim	poldrack-single-stim	s577	False	1
61.94	0.835	62.775	-10.197518435458315	end_round	0.835	columbia_card_task_fmri	15.0	0.7142857142857143	71.0	-80.0	0.2857142857142857	12.0	6.0	2.0	9.89284786514429	0.835	5.0	stim	poldrack-single-stim	s577	False	1
63.53	1.5	62.779	n/a	-1.0	2.25	columbia_card_task_fmri	n/a	n/a	-1.0	n/a	n/a	n/a	n/a	n/a	n/a	n/a	n/a	ITI	poldrack-single-stim	s577	False	0
65.032	0.891	65.923	0.145338707398825	draw_card	0.891	columbia_card_task_fmri	14.0	0.8	89.0	-65.0	0.2	15.0	1.0	3.0	-1.408022155652997	0.891	1.0	stim	poldrack-single-stim	s577	False	0
66.68	1.5	65.929	n/a	-1.0	2.454	columbia_card_task_fmri	n/a	n/a	-1.0	n/a	n/a	n/a	n/a	n/a	n/a	n/a	n/a	ITI	poldrack-single-stim	s577	False	0
68.385	1.13	69.515	0.0703387073988239	draw_card	1.13	columbia_card_task_fmri	1.0	0.9375	89.0	-45.0	0.0625	16.0	1.0	1.0	-21.764361823839707	1.13	n/a	stim	poldrack-single-stim	s577	False	1
69.518	0.441	69.959	-0.1213279592678424	draw_card	0.441	columbia_card_task_fmri	1.0	0.9333333333333332	89.0	-45.0	0.0666666666666666	16.0	2.0	1.0	-21.42969310387857	0.441	n/a	stim	poldrack-single-stim	s577	False	1
69.961	0.427	70.388	-0.3403755783154616	draw_card	0.427	columbia_card_task_fmri	1.0	0.9285714285714286	89.0	-45.0	0.0714285714285714	16.0	3.0	1.0	-21.062375555917	0.427	3.0	stim	poldrack-single-stim	s577	False	0
71.142	1.5	70.391	n/a	-1.0	3.27	columbia_card_task_fmri	n/a	n/a	-1.0	n/a	n/a	n/a	n/a	n/a	n/a	n/a	n/a	ITI	poldrack-single-stim	s577	False	0
73.663	0.658	74.321	1.007838707398824	draw_card	0.658	columbia_card_task_fmri	15.0	0.8125	89.0	-70.0	0.1875	16.0	1.0	3.0	0.1656919508905332	0.658	n/a	stim	poldrack-single-stim	s577	False	1
74.324	0.512	74.836	-0.054661292601176	draw_card	0.512	columbia_card_task_fmri	15.0	0.8	89.0	-70.0	0.2	16.0	2.0	3.0	0.9877622556475316	0.512	n/a	stim	poldrack-single-stim	s577	False	1
74.837	0.624	75.461	-1.268947006886891	draw_card	0.624	columbia_card_task_fmri	15.0	0.7857142857142857	89.0	-70.0	0.2142857142857142	16.0	3.0	3.0	1.864066889940048	0.624	n/a	stim	poldrack-single-stim	s577	False	1
75.464	0.684	76.148	-2.6700459079857928	draw_card	0.684	columbia_card_task_fmri	15.0	0.7692307692307692	89.0	-70.0	0.2307692307692307	16.0	4.0	3.0	2.797580782040882	0.684	n/a	stim	poldrack-single-stim	s577	False	1
76.15	0.58	76.73	-4.3046612926011765	draw_card	0.58	columbia_card_task_fmri	15.0	0.75	89.0	-70.0	0.25	16.0	5.0	3.0	3.7896086434285294	0.58	n/a	stim	poldrack-single-stim	s577	False	1
76.731	0.554	77.285	-6.236479474419356	draw_card	0.554	columbia_card_task_fmri	15.0	0.7272727272727273	89.0	-70.0	0.2727272727272727	16.0	6.0	3.0	4.837856967336521	0.554	n/a	stim	poldrack-single-stim	s577	False	1
77.287	0.771	78.058	-8.554661292601176	draw_card	0.771	columbia_card_task_fmri	15.0	0.7	89.0	-70.0	0.3	16.0	7.0	3.0	5.932595917696993	0.771	n/a	stim	poldrack-single-stim	s577	False	1
78.06	0.588	78.648	-11.387994625934509	draw_card	0.588	columbia_card_task_fmri	15.0	0.6666666666666667	89.0	-70.0	0.3333333333333333	16.0	8.0	3.0	7.048734474516117	0.588	n/a	stim	poldrack-single-stim	s577	False	1
78.65	0.529	79.179	-14.929661292601176	draw_card	0.529	columbia_card_task_fmri	15.0	0.625	89.0	-70.0	0.375	16.0	9.0	3.0	8.128559813269142	0.529	9.0	stim	poldrack-single-stim	s577	False	0
79.933	1.5	79.182	n/a	-1.0	2.25	columbia_card_task_fmri	n/a	n/a	-1.0	n/a	n/a	n/a	n/a	n/a	n/a	n/a	n/a	ITI	poldrack-single-stim	s577	False	0
81.435	0.766	82.201	7.945338707398823	draw_card	0.766	columbia_card_task_fmri	30.0	0.7	89.0	-50.0	0.3	10.0	1.0	3.0	3.6443381126213055	0.766	n/a	stim	poldrack-single-stim	s577	False	1
82.203	0.441	82.644	5.278672040732163	draw_card	0.441	columbia_card_task_fmri	30.0	0.6666666666666667	89.0	-50.0	0.3333333333333333	10.0	2.0	3.0	4.694657730074098	0.441	n/a	stim	poldrack-single-stim	s577	False	1
82.646	0.628	83.274	1.945338707398824	draw_card	0.628	columbia_card_task_fmri	30.0	0.625	89.0	-50.0	0.375	10.0	3.0	3.0	5.710813969794536	0.628	3.0	stim	poldrack-single-stim	s577	False	0
84.029	1.5	83.278	n/a	-1.0	2.25	columbia_card_task_fmri	n/a	n/a	-1.0	n/a	n/a	n/a	n/a	n/a	n/a	n/a	n/a	ITI	poldrack-single-stim	s577	False	0
85.531	0.57	86.101	7.345338707398824	draw_card	0.57	columbia_card_task_fmri	17.0	0.8666666666666667	89.0	-70.0	0.1333333333333333	15.0	1.0	2.0	-3.429620019564119	0.57	n/a	stim	poldrack-single-stim	s577	False	1
86.104	0.449	86.553	6.5167672788273965	draw_card	0.449	columbia_card_task_fmri	17.0	0.8571428571428572	89.0	-70.0	0.1428571428571428	15.0	2.0	2.0	-2.5620962366363536	0.449	n/a	stim	poldrack-single-stim	s577	False	1
86.556	0.464	87.02	5.560723322783439	draw_card	0.464	columbia_card_task_fmri	17.0	0.8461538461538461	89.0	-70.0	0.1538461538461538	15.0	3.0	2.0	-1.6179166735521555	0.464	n/a	stim	poldrack-single-stim	s577	False	1
87.021	0.903	87.924	4.445338707398825	draw_card	0.903	columbia_card_task_fmri	17.0	0.8333333333333334	89.0	-70.0	0.1666666666666666	15.0	4.0	2.0	-0.5865521752156511	0.903	n/a	stim	poldrack-single-stim	s577	False	1
87.927	0.447	88.374	3.127156889217004	draw_card	0.447	columbia_card_task_fmri	17.0	0.8181818181818181	89.0	-70.0	0.1818181818181818	15.0	5.0	2.0	0.5439286387272162	0.447	n/a	stim	poldrack-single-stim	s577	False	1
88.376	0.55	88.926	1.5453387073988254	draw_card	0.55	columbia_card_task_fmri	17.0	0.8	89.0	-70.0	0.2	15.0	6.0	2.0	1.7864859583792452	0.55	n/a	stim	poldrack-single-stim	s577	False	1
88.928	0.825	89.753	-0.3879946259345082	end_round	0.825	columbia_card_task_fmri	17.0	0.7777777777777778	71.0	-70.0	0.2222222222222222	15.0	7.0	2.0	3.153786803377137	0.825	6.0	stim	poldrack-single-stim	s577	False	1
90.51	1.5	89.759	n/a	-1.0	2.318	columbia_card_task_fmri	n/a	n/a	-1.0	n/a	n/a	n/a	n/a	n/a	n/a	n/a	n/a	ITI	poldrack-single-stim	s577	False	0
92.081	0.667	92.748	2.570338707398824	draw_card	0.667	columbia_card_task_fmri	7.0	0.9375	89.0	-95.0	0.0625	16.0	1.0	1.0	-8.301057786890336	0.667	n/a	stim	poldrack-single-stim	s577	False	1
92.751	0.353	93.104	2.145338707398824	draw_card	0.353	columbia_card_task_fmri	7.0	0.9333333333333332	89.0	-95.0	0.0666666666666666	16.0	2.0	1.0	-7.550314265142781	0.353	n/a	stim	poldrack-single-stim	s577	False	1
93.107	0.395	93.502	1.6596244216845384	draw_card	0.395	columbia_card_task_fmri	7.0	0.9285714285714286	89.0	-95.0	0.0714285714285714	16.0	3.0	1.0	-6.726895884021243	0.395	n/a	stim	poldrack-single-stim	s577	False	1
93.505	0.864	94.369	1.0991848612449773	draw_card	0.864	columbia_card_task_fmri	7.0	0.9230769230769232	89.0	-95.0	0.0769230769230769	16.0	4.0	1.0	-5.818442453991821	0.864	n/a	stim	poldrack-single-stim	s577	False	1
94.371	0.393	94.764	0.445338707398824	draw_card	0.393	columbia_card_task_fmri	7.0	0.9166666666666666	89.0	-95.0	0.0833333333333333	16.0	5.0	1.0	-4.809494406694995	0.393	5.0	stim	poldrack-single-stim	s577	False	0
95.52	1.5	94.769	n/a	-1.0	2.726	columbia_card_task_fmri	n/a	n/a	-1.0	n/a	n/a	n/a	n/a	n/a	n/a	n/a	n/a	ITI	poldrack-single-stim	s577	False	0
97.499	0.595	98.094	4.132838707398824	draw_card	0.595	columbia_card_task_fmri	9.0	0.9375	89.0	-100.0	0.0625	16.0	1.0	1.0	-6.611527800964243	0.595	n/a	stim	poldrack-single-stim	s577	False	1
98.096	0.431	98.527	3.678672040732157	draw_card	0.431	columbia_card_task_fmri	9.0	0.9333333333333332	89.0	-100.0	0.0666666666666666	16.0	2.0	1.0	-5.808963892765021	0.431	n/a	stim	poldrack-single-stim	s577	False	1
98.529	0.469	98.998	3.1596244216845397	draw_card	0.469	columbia_card_task_fmri	9.0	0.9285714285714286	89.0	-100.0	0.0714285714285714	16.0	3.0	1.0	-4.928728306184819	0.469	n/a	stim	poldrack-single-stim	s577	False	1
99.001	3.018	102.019	2.56072332278344	draw_card	3.018	columbia_card_task_fmri	9.0	0.9230769230769232	89.0	-100.0	0.0769230769230769	16.0	4.0	1.0	-3.957611728837097	3.018	n/a	stim	poldrack-single-stim	s577	False	1
102.022	0.599	102.621	1.862005374065492	draw_card	0.599	columbia_card_task_fmri	9.0	0.9166666666666666	89.0	-100.0	0.0833333333333333	16.0	5.0	1.0	-2.8790926313984	0.599	n/a	stim	poldrack-single-stim	s577	False	1
102.623	0.547	103.17	1.036247798307914	draw_card	0.547	columbia_card_task_fmri	9.0	0.9090909090909092	89.0	-100.0	0.0909090909090909	16.0	6.0	1.0	-1.672220963373796	0.547	n/a	stim	poldrack-single-stim	s577	False	1
103.172	0.534	103.706	0.0453387073988236	draw_card	0.534	columbia_card_task_fmri	9.0	0.9	89.0	-100.0	0.1	16.0	7.0	1.0	-0.3100309105734382	0.534	n/a	stim	poldrack-single-stim	s577	False	1
103.708	0.631	104.339	-1.1657724037122867	draw_card	0.631	columbia_card_task_fmri	9.0	0.8888888888888888	89.0	-100.0	0.1111111111111111	16.0	8.0	1.0	1.242743520707123	0.631	n/a	stim	poldrack-single-stim	s577	False	1
104.342	0.937	105.279	-2.679661292601176	end_round	0.937	columbia_card_task_fmri	9.0	0.875	71.0	-100.0	0.125	16.0	9.0	1.0	3.0329688845252534	0.937	8.0	stim	poldrack-single-stim	s577	False	1
106.032	1.5	105.281	n/a	-1.0	2.386	columbia_card_task_fmri	n/a	n/a	-1.0	n/a	n/a	n/a	n/a	n/a	n/a	n/a	n/a	ITI	poldrack-single-stim	s577	False	0
107.671	0.474	108.145	5.070338707398824	draw_card	0.474	columbia_card_task_fmri	15.0	0.875	89.0	-80.0	0.125	16.0	1.0	2.0	-1.5893800230166306	0.474	n/a	stim	poldrack-single-stim	s577	False	1
108.147	0.397	108.544	4.2786720407321575	draw_card	0.397	columbia_card_task_fmri	15.0	0.8666666666666667	89.0	-80.0	0.1333333333333333	16.0	2.0	2.0	-0.7155147547772245	0.397	n/a	stim	poldrack-single-stim	s577	False	1
108.547	0.46	109.007	3.3739101359702546	draw_card	0.46	columbia_card_task_fmri	15.0	0.8571428571428572	89.0	-80.0	0.1428571428571428	16.0	3.0	2.0	0.2321013275261094	0.46	n/a	stim	poldrack-single-stim	s577	False	1
109.01	0.739	109.749	2.3299540920142072	draw_card	0.739	columbia_card_task_fmri	15.0	0.8461538461538461	89.0	-80.0	0.1538461538461538	16.0	4.0	2.0	1.2634302006650913	0.739	4.0	stim	poldrack-single-stim	s577	False	0
110.506	1.5	109.755	n/a	-1.0	2.318	columbia_card_task_fmri	n/a	n/a	-1.0	n/a	n/a	n/a	n/a	n/a	n/a	n/a	n/a	ITI	poldrack-single-stim	s577	False	0
112.077	0.526	112.603	7.195338707398824	draw_card	0.526	columbia_card_task_fmri	16.0	0.875	89.0	-70.0	0.125	16.0	1.0	2.0	-4.55956763063385	0.526	n/a	stim	poldrack-single-stim	s577	False	1
112.605	0.414	113.019	6.478672040732157	draw_card	0.414	columbia_card_task_fmri	16.0	0.8666666666666667	89.0	-70.0	0.1333333333333333	16.0	2.0	2.0	-3.768813131132834	0.414	n/a	stim	poldrack-single-stim	s577	False	1
113.022	0.424	113.446	5.659624421684539	draw_card	0.424	columbia_card_task_fmri	16.0	0.8571428571428572	89.0	-70.0	0.1428571428571428	16.0	3.0	2.0	-2.9113028622723647	0.424	n/a	stim	poldrack-single-stim	s577	False	1
113.448	0.92	114.368	4.714569476629592	draw_card	0.92	columbia_card_task_fmri	16.0	0.8461538461538461	89.0	-70.0	0.1538461538461538	16.0	4.0	2.0	-1.978018991701262	0.92	n/a	stim	poldrack-single-stim	s577	False	1
114.371	1.248	115.619	3.612005374065492	draw_card	1.248	columbia_card_task_fmri	16.0	0.8333333333333334	89.0	-70.0	0.1666666666666666	16.0	5.0	2.0	-0.9585534269461604	1.248	n/a	stim	poldrack-single-stim	s577	False	1
115.622	0.788	116.41	2.308975071035185	end_round	0.788	columbia_card_task_fmri	16.0	0.8181818181818181	71.0	-70.0	0.1818181818181818	16.0	6.0	2.0	0.158888054369342	0.788	5.0	stim	poldrack-single-stim	s577	False	1
117.166	1.5	116.415	n/a	-1.0	2.25	columbia_card_task_fmri	n/a	n/a	-1.0	n/a	n/a	n/a	n/a	n/a	n/a	n/a	n/a	ITI	poldrack-single-stim	s577	False	0
118.671	0.559	119.23	8.507838707398824	draw_card	0.559	columbia_card_task_fmri	30.0	0.6875	89.0	-45.0	0.3125	16.0	1.0	5.0	1.7499734305145296	0.559	1.0	stim	poldrack-single-stim	s577	False	0
119.986	1.5	119.235	n/a	-1.0	2.25	columbia_card_task_fmri	n/a	n/a	-1.0	n/a	n/a	n/a	n/a	n/a	n/a	n/a	n/a	ITI	poldrack-single-stim	s577	False	0
121.489	0.507	121.996	0.2786720407321579	draw_card	0.507	columbia_card_task_fmri	13.0	0.8333333333333334	89.0	-75.0	0.1666666666666666	6.0	1.0	1.0	-0.2145355838515996	0.507	n/a	stim	poldrack-single-stim	s577	False	1
121.999	0.503	122.502	-2.654661292601176	draw_card	0.503	columbia_card_task_fmri	13.0	0.8	89.0	-75.0	0.2	6.0	2.0	1.0	2.185869514344752	0.503	n/a	stim	poldrack-single-stim	s577	False	1
122.504	0.572	123.076	-7.0546612926011765	draw_card	0.572	columbia_card_task_fmri	13.0	0.75	89.0	-75.0	0.25	6.0	3.0	1.0	5.086897702714268	0.572	n/a	stim	poldrack-single-stim	s577	False	1
123.08	1.394	124.474	-14.387994625934509	draw_card	1.394	columbia_card_task_fmri	13.0	0.6666666666666667	89.0	-75.0	0.3333333333333333	6.0	4.0	1.0	8.461340928049346	1.394	n/a	stim	poldrack-single-stim	s577	False	1
124.477	0.689	125.166	-29.05466129260117	end_round	0.689	columbia_card_task_fmri	13.0	0.5	71.0	-75.0	0.5	6.0	5.0	1.0	10.975138528839388	0.689	4.0	stim	poldrack-single-stim	s577	False	1
125.922	1.5	125.171	n/a	-1.0	2.454	columbia_card_task_fmri	n/a	n/a	-1.0	n/a	n/a	n/a	n/a	n/a	n/a	n/a	n/a	ITI	poldrack-single-stim	s577	False	0
127.629	0.687	128.316	1.9453387073988255	draw_card	0.687	columbia_card_task_fmri	14.0	0.8333333333333334	89.0	-70.0	0.1666666666666666	6.0	1.0	1.0	-1.70250772834326	0.687	n/a	stim	poldrack-single-stim	s577	False	1
128.318	0.453	128.771	-0.854661292601175	draw_card	0.453	columbia_card_task_fmri	14.0	0.8	89.0	-70.0	0.2	6.0	2.0	1.0	0.5884231390596355	0.453	n/a	stim	poldrack-single-stim	s577	False	1
128.774	1.02	129.794	-5.0546612926011765	end_round	1.02	columbia_card_task_fmri	14.0	0.75	71.0	-70.0	0.25	6.0	3.0	1.0	3.357206661366739	1.02	2.0	stim	poldrack-single-stim	s577	False	1
130.55	1.5	129.799	n/a	-1.0	2.454	columbia_card_task_fmri	n/a	n/a	-1.0	n/a	n/a	n/a	n/a	n/a	n/a	n/a	n/a	ITI	poldrack-single-stim	s577	False	0
132.257	1.239	133.496	1.9453387073988255	end_round	1.239	columbia_card_task_fmri	16.0	0.8333333333333334	71.0	-80.0	0.1666666666666666	6.0	1.0	1.0	2.7620920329364367	1.239	0.0	stim	poldrack-single-stim	s577	False	1
134.249	1.5	133.498	n/a	-1.0	2.522	columbia_card_task_fmri	n/a	n/a	-1.0	n/a	n/a	n/a	n/a	n/a	n/a	n/a	n/a	ITI	poldrack-single-stim	s577	False	0
136.024	0.842	136.866	4.445338707398825	draw_card	0.842	columbia_card_task_fmri	17.0	0.8333333333333334	89.0	-70.0	0.1666666666666666	6.0	1.0	1.0	-0.5865521752156511	0.842	n/a	stim	poldrack-single-stim	s577	False	1
136.868	0.59	137.458	1.5453387073988254	draw_card	0.59	columbia_card_task_fmri	17.0	0.8	89.0	-70.0	0.2	6.0	2.0	1.0	1.7864859583792452	0.59	n/a	stim	poldrack-single-stim	s577	False	1
137.461	0.545	138.006	-2.804661292601176	draw_card	0.545	columbia_card_task_fmri	17.0	0.75	89.0	-70.0	0.25	6.0	3.0	1.0	4.654454640478306	0.545	n/a	stim	poldrack-single-stim	s577	False	1
138.009	0.609	138.618	-10.054661292601176	end_round	0.609	columbia_card_task_fmri	17.0	0.6666666666666667	71.0	-70.0	0.3333333333333333	6.0	4.0	1.0	7.990459816016504	0.609	3.0	stim	poldrack-single-stim	s577	False	1
139.372	1.5	138.621	n/a	-1.0	2.386	columbia_card_task_fmri	n/a	n/a	-1.0	n/a	n/a	n/a	n/a	n/a	n/a	n/a	n/a	ITI	poldrack-single-stim	s577	False	0
141.011	1.015	142.026	4.445338707398824	draw_card	1.015	columbia_card_task_fmri	25.0	0.75	89.0	-65.0	0.25	8.0	1.0	2.0	5.951821731008515	1.015	n/a	stim	poldrack-single-stim	s577	False	1
142.03	0.515	142.545	1.2310529931131122	draw_card	0.515	columbia_card_task_fmri	25.0	0.7142857142857143	89.0	-65.0	0.2857142857142857	8.0	2.0	2.0	7.636523542077086	0.515	n/a	stim	poldrack-single-stim	s577	False	1
142.547	0.458	143.005	-3.0546612926011725	draw_card	0.458	columbia_card_task_fmri	25.0	0.6666666666666667	89.0	-65.0	0.3333333333333333	8.0	3.0	2.0	9.403137990072224	0.458	n/a	stim	poldrack-single-stim	s577	False	1
143.008	1.004	144.012	-9.054661292601176	draw_card	1.004	columbia_card_task_fmri	25.0	0.6	89.0	-65.0	0.4	8.0	4.0	2.0	11.065865451714934	1.004	n/a	stim	poldrack-single-stim	s577	False	1
144.017	0.582	144.599	-18.05466129260117	end_round	0.582	columbia_card_task_fmri	25.0	0.5	71.0	-65.0	0.5	8.0	5.0	2.0	11.974184254675857	0.582	4.0	stim	poldrack-single-stim	s577	False	1
145.356	1.5	144.605	n/a	-1.0	2.454	columbia_card_task_fmri	n/a	n/a	-1.0	n/a	n/a	n/a	n/a	n/a	n/a	n/a	n/a	ITI	poldrack-single-stim	s577	False	0
147.063	0.899	147.962	4.445338707398824	draw_card	0.899	columbia_card_task_fmri	30.0	0.75	89.0	-80.0	0.25	8.0	1.0	2.0	14.603261581326478	0.899	n/a	stim	poldrack-single-stim	s577	False	1
147.965	0.484	148.449	0.5167672788274005	draw_card	0.484	columbia_card_task_fmri	30.0	0.7142857142857143	89.0	-80.0	0.2857142857142857	8.0	2.0	2.0	16.663152982977692	0.484	2.0	stim	poldrack-single-stim	s577	False	0
149.204	1.5	148.453	n/a	-1.0	2.522	columbia_card_task_fmri	n/a	n/a	-1.0	n/a	n/a	n/a	n/a	n/a	n/a	n/a	n/a	ITI	poldrack-single-stim	s577	False	0
150.98	0.743	151.723	4.145338707398825	end_round	0.743	columbia_card_task_fmri	13.0	0.9	71.0	-95.0	0.1	10.0	1.0	1.0	-0.6094965586435279	0.743	0.0	stim	poldrack-single-stim	s577	False	1
152.479	1.5	151.728	n/a	-1.0	2.522	columbia_card_task_fmri	n/a	n/a	-1.0	n/a	n/a	n/a	n/a	n/a	n/a	n/a	n/a	ITI	poldrack-single-stim	s577	False	0
154.253	0.852	155.105	5.545338707398823	draw_card	0.852	columbia_card_task_fmri	14.0	0.9	89.0	-90.0	0.1	10.0	1.0	1.0	-1.8072566812729176	0.852	n/a	stim	poldrack-single-stim	s577	False	1
155.109	0.917	156.026	4.389783151843266	draw_card	0.917	columbia_card_task_fmri	14.0	0.8888888888888888	89.0	-90.0	0.1111111111111111	10.0	2.0	1.0	-0.325955966567065	0.917	n/a	stim	poldrack-single-stim	s577	False	1
156.029	0.395	156.424	2.945338707398824	draw_card	0.395	columbia_card_task_fmri	14.0	0.875	89.0	-90.0	0.125	10.0	3.0	1.0	1.3818920969211916	0.395	n/a	stim	poldrack-single-stim	s577	False	1
156.427	0.423	156.85	1.088195850255968	draw_card	0.423	columbia_card_task_fmri	14.0	0.8571428571428572	89.0	-90.0	0.1428571428571428	10.0	4.0	1.0	3.3765311343621534	0.423	n/a	stim	poldrack-single-stim	s577	False	1
156.853	0.589	157.442	-1.3879946259345082	draw_card	0.589	columbia_card_task_fmri	14.0	0.8333333333333334	89.0	-90.0	0.1666666666666666	10.0	5.0	1.0	5.739456036710848	0.589	n/a	stim	poldrack-single-stim	s577	False	1
157.445	0.744	158.189	-4.854661292601175	draw_card	0.744	columbia_card_task_fmri	14.0	0.8	89.0	-90.0	0.2	10.0	6.0	1.0	8.577615678253437	0.744	n/a	stim	poldrack-single-stim	s577	False	1
158.191	0.663	158.854	-10.054661292601176	draw_card	0.663	columbia_card_task_fmri	14.0	0.75	89.0	-90.0	0.25	10.0	7.0	1.0	12.007474182685506	0.663	n/a	stim	poldrack-single-stim	s577	False	1
158.858	0.944	159.802	-18.72132795926784	draw_card	0.944	columbia_card_task_fmri	14.0	0.6666666666666667	89.0	-90.0	0.3333333333333333	10.0	8.0	1.0	15.996805819074844	0.944	n/a	stim	poldrack-single-stim	s577	False	1
159.804	2.52	162.324	-36.054661292601175	end_round	2.52	columbia_card_task_fmri	14.0	0.5	71.0	-90.0	0.5	10.0	9.0	1.0	18.96853081713945	2.52	8.0	stim	poldrack-single-stim	s577	False	1
163.083	1.5	162.332	n/a	-1.0	2.59	columbia_card_task_fmri	n/a	n/a	-1.0	n/a	n/a	n/a	n/a	n/a	n/a	n/a	n/a	ITI	poldrack-single-stim	s577	False	0
164.926	1.074	166.0	0.7453387073988247	draw_card	1.074	columbia_card_task_fmri	16.0	0.8	89.0	-70.0	0.2	10.0	1.0	2.0	1.387116704427484	1.074	1.0	stim	poldrack-single-stim	s577	False	0
166.755	1.5	166.004	n/a	-1.0	2.454	columbia_card_task_fmri	n/a	n/a	-1.0	n/a	n/a	n/a	n/a	n/a	n/a	n/a	n/a	ITI	poldrack-single-stim	s577	False	0
168.462	0.67	169.132	0.0286720407321579	draw_card	0.67	columbia_card_task_fmri	7.0	0.9166666666666666	89.0	-100.0	0.0833333333333333	12.0	1.0	1.0	-3.43069316520873	0.67	1.0	stim	poldrack-single-stim	s577	False	0
169.887	1.5	169.136	n/a	-1.0	2.318	columbia_card_task_fmri	n/a	n/a	-1.0	n/a	n/a	n/a	n/a	n/a	n/a	n/a	n/a	ITI	poldrack-single-stim	s577	False	0
171.458	0.767	172.225	0.2786720407321597	draw_card	0.767	columbia_card_task_fmri	14.0	0.8333333333333334	89.0	-80.0	0.1666666666666666	12.0	1.0	2.0	2.0178587704771687	0.767	n/a	stim	poldrack-single-stim	s577	False	1
172.227	0.467	172.694	-1.1455703835102695	draw_card	0.467	columbia_card_task_fmri	14.0	0.8181818181818181	89.0	-80.0	0.1818181818181818	12.0	2.0	2.0	3.2396014728235443	0.467	n/a	stim	poldrack-single-stim	s577	False	1
172.696	0.552	173.248	-2.854661292601175	draw_card	0.552	columbia_card_task_fmri	14.0	0.8	89.0	-80.0	0.2	12.0	3.0	2.0	4.5824457037302295	0.552	n/a	stim	poldrack-single-stim	s577	False	1
173.252	0.434	173.686	-4.943550181490066	draw_card	0.434	columbia_card_task_fmri	14.0	0.7777777777777778	89.0	-80.0	0.2222222222222222	12.0	4.0	2.0	6.060076852283942	0.434	n/a	stim	poldrack-single-stim	s577	False	1
173.689	0.749	174.438	-7.554661292601176	draw_card	0.749	columbia_card_task_fmri	14.0	0.75	89.0	-80.0	0.25	12.0	5.0	2.0	7.681810139355946	0.749	5.0	stim	poldrack-single-stim	s577	False	0
175.194	1.5	174.443	n/a	-1.0	2.25	columbia_card_task_fmri	n/a	n/a	-1.0	n/a	n/a	n/a	n/a	n/a	n/a	n/a	n/a	ITI	poldrack-single-stim	s577	False	0
176.698	0.98	177.678	1.945338707398824	draw_card	0.98	columbia_card_task_fmri	15.0	0.8333333333333334	89.0	-75.0	0.1666666666666666	12.0	1.0	2.0	0.5295415795268212	0.98	n/a	stim	poldrack-single-stim	s577	False	1
177.682	0.392	178.074	0.5817023437624589	draw_card	0.392	columbia_card_task_fmri	15.0	0.8181818181818181	89.0	-75.0	0.1818181818181818	12.0	2.0	2.0	1.6991373846166198	0.392	n/a	stim	poldrack-single-stim	s577	False	1
178.078	0.377	178.455	-1.054661292601176	draw_card	0.377	columbia_card_task_fmri	15.0	0.8	89.0	-75.0	0.2	12.0	3.0	2.0	2.9846776310774104	0.377	3.0	stim	poldrack-single-stim	s577	False	0
179.213	1.5	178.462	n/a	-1.0	2.658	columbia_card_task_fmri	n/a	n/a	-1.0	n/a	n/a	n/a	n/a	n/a	n/a	n/a	n/a	ITI	poldrack-single-stim	s577	False	0
181.124	0.757	181.881	0.945338707398824	draw_card	0.757	columbia_card_task_fmri	15.0	0.8	89.0	-65.0	0.2	15.0	1.0	3.0	-1.00876854670895	0.757	n/a	stim	poldrack-single-stim	s577	False	1
181.885	0.414	182.299	-0.1975184354583183	draw_card	0.414	columbia_card_task_fmri	15.0	0.7857142857142857	89.0	-65.0	0.2142857142857142	15.0	2.0	3.0	-0.1841802941920463	0.414	n/a	stim	poldrack-single-stim	s577	False	1
182.302	0.356	182.658	-1.5161997541396397	draw_card	0.356	columbia_card_task_fmri	15.0	0.7692307692307692	89.0	-65.0	0.2307692307692307	15.0	3.0	3.0	0.6942500140493166	0.356	n/a	stim	poldrack-single-stim	s577	False	1
182.662	0.551	183.213	-3.054661292601176	draw_card	0.551	columbia_card_task_fmri	15.0	0.75	89.0	-65.0	0.25	15.0	4.0	3.0	1.627751065732042	0.551	n/a	stim	poldrack-single-stim	s577	False	1
183.216	0.467	183.683	-4.872843110782993	draw_card	0.467	columbia_card_task_fmri	15.0	0.7272727272727273	89.0	-65.0	0.2727272727272727	15.0	5.0	3.0	2.614165526332542	0.467	n/a	stim	poldrack-single-stim	s577	False	1
183.686	0.567	184.253	-7.0546612926011765	draw_card	0.567	columbia_card_task_fmri	15.0	0.7	89.0	-65.0	0.3	15.0	6.0	3.0	3.6443381126213055	0.567	n/a	stim	poldrack-single-stim	s577	False	1
184.257	0.61	184.867	-9.72132795926784	draw_card	0.61	columbia_card_task_fmri	15.0	0.6666666666666667	89.0	-65.0	0.3333333333333333	15.0	7.0	3.0	4.694657730074098	0.61	7.0	stim	poldrack-single-stim	s577	False	0
185.625	1.5	184.874	n/a	-1.0	2.454	columbia_card_task_fmri	n/a	n/a	-1.0	n/a	n/a	n/a	n/a	n/a	n/a	n/a	n/a	ITI	poldrack-single-stim	s577	False	0
187.333	0.613	187.946	0.1953387073988239	draw_card	0.613	columbia_card_task_fmri	14.0	0.8125	89.0	-70.0	0.1875	16.0	1.0	3.0	-0.2239432216517372	0.613	n/a	stim	poldrack-single-stim	s577	False	1
187.95	0.412	188.362	-0.854661292601175	draw_card	0.412	columbia_card_task_fmri	14.0	0.8	89.0	-70.0	0.2	16.0	2.0	3.0	0.5884231390596355	0.412	n/a	stim	poldrack-single-stim	s577	False	1
188.365	0.351	188.716	-2.054661292601176	draw_card	0.351	columbia_card_task_fmri	14.0	0.7857142857142857	89.0	-70.0	0.2142857142857142	16.0	3.0	3.0	1.4543853181331556	0.351	3.0	stim	poldrack-single-stim	s577	False	0
189.472	1.5	188.721	n/a	-1.0	2.386	columbia_card_task_fmri	n/a	n/a	-1.0	n/a	n/a	n/a	n/a	n/a	n/a	n/a	n/a	ITI	poldrack-single-stim	s577	False	0
191.111	2.09	193.201	0.1328387073988239	draw_card	2.09	columbia_card_task_fmri	11.0	0.6875	89.0	-30.0	0.3125	16.0	1.0	5.0	-13.964528259677852	2.09	n/a	stim	poldrack-single-stim	s577	False	1
193.205	0.481	193.686	-0.7213279592678421	draw_card	0.481	columbia_card_task_fmri	11.0	0.6666666666666667	89.0	-30.0	0.3333333333333333	16.0	2.0	5.0	-13.642605678647511	0.481	n/a	stim	poldrack-single-stim	s577	False	1
193.689	0.514	194.203	-1.6975184354583202	draw_card	0.514	columbia_card_task_fmri	11.0	0.6428571428571428	89.0	-30.0	0.3571428571428571	16.0	3.0	5.0	-13.326308963374242	0.514	n/a	stim	poldrack-single-stim	s577	False	1
194.207	0.445	194.652	-2.8238920618319443	draw_card	0.445	columbia_card_task_fmri	11.0	0.6153846153846154	89.0	-30.0	0.3846153846153846	16.0	4.0	5.0	-13.026532907302672	0.445	4.0	stim	poldrack-single-stim	s577	False	0
195.41	1.5	194.659	n/a	-1.0	2.59	columbia_card_task_fmri	n/a	n/a	-1.0	n/a	n/a	n/a	n/a	n/a	n/a	n/a	n/a	ITI	poldrack-single-stim	s577	False	0
197.253	0.9	198.153	4.945338707398824	draw_card	0.9	columbia_card_task_fmri	15.0	0.8666666666666667	89.0	-75.0	0.1333333333333333	15.0	1.0	2.0	-2.411942121894402	0.9	n/a	stim	poldrack-single-stim	s577	False	1
198.156	0.445	198.601	4.088195850255968	draw_card	0.445	columbia_card_task_fmri	15.0	0.8571428571428572	89.0	-75.0	0.1428571428571428	15.0	2.0	2.0	-1.5143805769696037	0.445	n/a	stim	poldrack-single-stim	s577	False	1
198.604	0.446	199.05	3.0991848612449773	draw_card	0.446	columbia_card_task_fmri	15.0	0.8461538461538461	89.0	-75.0	0.1538461538461538	15.0	3.0	2.0	-0.5375167899497413	0.446	n/a	stim	poldrack-single-stim	s577	False	1
199.054	0.406	199.46	1.945338707398824	draw_card	0.406	columbia_card_task_fmri	15.0	0.8333333333333334	89.0	-75.0	0.1666666666666666	15.0	4.0	2.0	0.5295415795268212	0.406	n/a	stim	poldrack-single-stim	s577	False	1
199.463	0.484	199.947	0.5817023437624589	draw_card	0.484	columbia_card_task_fmri	15.0	0.8181818181818181	89.0	-75.0	0.1818181818181818	15.0	5.0	2.0	1.6991373846166198	0.484	5.0	stim	poldrack-single-stim	s577	False	0
200.706	1.5	199.955	n/a	-1.0	2.318	columbia_card_task_fmri	n/a	n/a	-1.0	n/a	n/a	n/a	n/a	n/a	n/a	n/a	n/a	ITI	poldrack-single-stim	s577	False	0
202.276	0.555	202.831	6.678672040732158	draw_card	0.555	columbia_card_task_fmri	17.0	0.8666666666666667	89.0	-75.0	0.1333333333333333	15.0	1.0	2.0	-1.733413389579784	0.555	n/a	stim	poldrack-single-stim	s577	False	1
202.834	0.361	203.195	5.802481564541683	draw_card	0.361	columbia_card_task_fmri	17.0	0.8571428571428572	89.0	-75.0	0.1428571428571428	15.0	2.0	2.0	-0.8158288375007601	0.361	n/a	stim	poldrack-single-stim	s577	False	1
203.199	0.34	203.539	4.79149255355267	draw_card	0.34	columbia_card_task_fmri	17.0	0.8461538461538461	89.0	-75.0	0.1538461538461538	15.0	3.0	2.0	0.1828222075143202	0.34	n/a	stim	poldrack-single-stim	s577	False	1
203.542	0.506	204.048	3.612005374065492	draw_card	0.506	columbia_card_task_fmri	17.0	0.8333333333333334	89.0	-75.0	0.1666666666666666	15.0	4.0	2.0	1.273674207314258	0.506	n/a	stim	poldrack-single-stim	s577	False	1
204.051	0.513	204.564	2.218065980126096	draw_card	0.513	columbia_card_task_fmri	17.0	0.8181818181818181	89.0	-75.0	0.1818181818181818	15.0	5.0	2.0	2.4693443293806965	0.513	n/a	stim	poldrack-single-stim	s577	False	1
204.567	0.68	205.247	0.5453387073988254	end_round	0.68	columbia_card_task_fmri	17.0	0.8	71.0	-75.0	0.2	15.0	6.0	2.0	3.783537458054965	0.68	5.0	stim	poldrack-single-stim	s577	False	1
206.002	1.5	205.251	n/a	-1.0	2.59	columbia_card_task_fmri	n/a	n/a	-1.0	n/a	n/a	n/a	n/a	n/a	n/a	n/a	n/a	ITI	poldrack-single-stim	s577	False	0
207.845	0.611	208.456	2.257838707398824	draw_card	0.611	columbia_card_task_fmri	2.0	0.9375	89.0	-25.0	0.0625	16.0	1.0	1.0	-26.24881317580809	0.611	n/a	stim	poldrack-single-stim	s577	False	1
208.46	0.377	208.837	2.145338707398824	draw_card	0.377	columbia_card_task_fmri	2.0	0.9333333333333332	89.0	-25.0	0.0666666666666666	16.0	2.0	1.0	-26.05754176047551	0.377	n/a	stim	poldrack-single-stim	s577	False	1
208.841	0.387	209.228	2.016767278827396	draw_card	0.387	columbia_card_task_fmri	2.0	0.9285714285714286	89.0	-25.0	0.0714285714285714	16.0	3.0	1.0	-25.84729151767972	0.387	n/a	stim	poldrack-single-stim	s577	False	1
209.231	0.388	209.619	1.868415630475747	draw_card	0.388	columbia_card_task_fmri	2.0	0.9230769230769232	89.0	-25.0	0.0769230769230769	16.0	4.0	1.0	-25.61481436295053	0.388	n/a	stim	poldrack-single-stim	s577	False	1
209.624	0.378	210.002	1.6953387073988242	draw_card	0.378	columbia_card_task_fmri	2.0	0.9166666666666666	89.0	-25.0	0.0833333333333333	16.0	5.0	1.0	-25.356045443927982	0.378	n/a	stim	poldrack-single-stim	s577	False	1
210.005	0.403	210.408	1.4907932528533692	draw_card	0.403	columbia_card_task_fmri	2.0	0.9090909090909092	89.0	-25.0	0.0909090909090909	16.0	6.0	1.0	-25.06582733927119	0.403	n/a	stim	poldrack-single-stim	s577	False	1
210.412	0.964	211.376	1.245338707398824	draw_card	0.964	columbia_card_task_fmri	2.0	0.9	89.0	-25.0	0.1	16.0	7.0	1.0	-24.737517685209284	0.964	7.0	stim	poldrack-single-stim	s577	False	0
212.131	1.5	211.38	n/a	-1.0	2.386	columbia_card_task_fmri	n/a	n/a	-1.0	n/a	n/a	n/a	n/a	n/a	n/a	n/a	n/a	ITI	poldrack-single-stim	s577	False	0
213.772	0.587	214.359	4.445338707398824	draw_card	0.587	columbia_card_task_fmri	9.0	0.9375	89.0	-95.0	0.0625	16.0	1.0	1.0	-7.818401947390864	0.587	n/a	stim	poldrack-single-stim	s577	False	1
214.363	0.352	214.715	4.012005374065492	draw_card	0.352	columbia_card_task_fmri	9.0	0.9333333333333332	89.0	-95.0	0.0666666666666666	16.0	2.0	1.0	-7.052850650854435	0.352	n/a	stim	poldrack-single-stim	s577	False	1
214.719	0.377	215.096	3.516767278827396	draw_card	0.377	columbia_card_task_fmri	9.0	0.9285714285714286	89.0	-95.0	0.0714285714285714	16.0	3.0	1.0	-6.213196769397552	0.377	n/a	stim	poldrack-single-stim	s577	False	1
215.1	0.443	215.543	2.945338707398824	draw_card	0.443	columbia_card_task_fmri	9.0	0.9230769230769232	89.0	-95.0	0.0769230769230769	16.0	4.0	1.0	-5.286837501110959	0.443	n/a	stim	poldrack-single-stim	s577	False	1
215.547	0.816	216.363	2.278672040732158	draw_card	0.816	columbia_card_task_fmri	9.0	0.9166666666666666	89.0	-95.0	0.0833333333333333	16.0	5.0	1.0	-4.258009853465492	0.816	n/a	stim	poldrack-single-stim	s577	False	1
216.368	0.897	217.265	1.490793252853369	draw_card	0.897	columbia_card_task_fmri	9.0	0.9090909090909092	89.0	-95.0	0.0909090909090909	16.0	6.0	1.0	-3.106725563002847	0.897	n/a	stim	poldrack-single-stim	s577	False	1
217.269	0.817	218.086	0.5453387073988236	end_round	0.817	columbia_card_task_fmri	9.0	0.9	71.0	-95.0	0.1	16.0	7.0	1.0	-1.8072566812729176	0.817	6.0	stim	poldrack-single-stim	s577	False	1
218.845	1.5	218.094	n/a	-1.0	2.318	columbia_card_task_fmri	n/a	n/a	-1.0	n/a	n/a	n/a	n/a	n/a	n/a	n/a	n/a	ITI	poldrack-single-stim	s577	False	0
220.416	0.584	221.0	6.007838707398824	draw_card	0.584	columbia_card_task_fmri	11.0	0.9375	89.0	-100.0	0.0625	16.0	1.0	1.0	-6.128691888891975	0.584	n/a	stim	poldrack-single-stim	s577	False	1
221.005	0.477	221.482	5.545338707398825	draw_card	0.477	columbia_card_task_fmri	11.0	0.9333333333333332	89.0	-100.0	0.0666666666666666	16.0	2.0	1.0	-5.311325448325171	0.477	n/a	stim	poldrack-single-stim	s577	False	1
221.486	0.598	222.084	5.0167672788273965	draw_card	0.598	columbia_card_task_fmri	11.0	0.9285714285714286	89.0	-100.0	0.0714285714285714	16.0	3.0	1.0	-4.414859772901558	0.598	n/a	stim	poldrack-single-stim	s577	False	1
222.088	0.512	222.6	4.406877168937287	draw_card	0.512	columbia_card_task_fmri	11.0	0.9230769230769232	89.0	-100.0	0.0769230769230769	16.0	4.0	1.0	-3.425842953560373	0.512	n/a	stim	poldrack-single-stim	s577	False	1
222.604	0.595	223.199	3.695338707398824	draw_card	0.595	columbia_card_task_fmri	11.0	0.9166666666666666	89.0	-100.0	0.0833333333333333	16.0	5.0	1.0	-2.3274500549413126	0.595	n/a	stim	poldrack-single-stim	s577	False	1
223.204	0.852	224.056	2.8544296164897323	draw_card	0.852	columbia_card_task_fmri	11.0	0.9090909090909092	89.0	-100.0	0.0909090909090909	16.0	6.0	1.0	-1.098346321804712	0.852	n/a	stim	poldrack-single-stim	s577	False	1
224.059	1.036	225.095	1.8453387073988243	end_round	1.036	columbia_card_task_fmri	11.0	0.9	71.0	-100.0	0.1	16.0	7.0	1.0	0.288929194626796	1.036	6.0	stim	poldrack-single-stim	s577	False	1
225.854	1.5	225.103	n/a	-1.0	2.318	columbia_card_task_fmri	n/a	n/a	-1.0	n/a	n/a	n/a	n/a	n/a	n/a	n/a	n/a	ITI	poldrack-single-stim	s577	False	0
227.425	0.73	228.155	6.570338707398824	draw_card	0.73	columbia_card_task_fmri	16.0	0.875	89.0	-75.0	0.125	16.0	1.0	2.0	-2.909616344367045	0.73	n/a	stim	poldrack-single-stim	s577	False	1
228.159	0.461	228.62	5.812005374065491	draw_card	0.461	columbia_card_task_fmri	16.0	0.8666666666666667	89.0	-75.0	0.1333333333333333	16.0	2.0	2.0	-2.0726850995509025	0.461	n/a	stim	poldrack-single-stim	s577	False	1
228.624	0.364	228.988	4.945338707398825	draw_card	0.364	columbia_card_task_fmri	16.0	0.8571428571428572	89.0	-75.0	0.1428571428571428	16.0	3.0	2.0	-1.1651118437141932	0.364	n/a	stim	poldrack-single-stim	s577	False	1
228.993	0.403	229.396	3.945338707398824	draw_card	0.403	columbia_card_task_fmri	16.0	0.8461538461538461	89.0	-75.0	0.1538461538461538	16.0	4.0	2.0	-0.1773542149048665	0.403	n/a	stim	poldrack-single-stim	s577	False	1
229.399	0.438	229.837	2.778672040732158	draw_card	0.438	columbia_card_task_fmri	16.0	0.8333333333333334	89.0	-75.0	0.1666666666666666	16.0	5.0	2.0	0.9016011881755476	0.438	n/a	stim	poldrack-single-stim	s577	False	1
229.841	0.441	230.282	1.3998841619442772	draw_card	0.441	columbia_card_task_fmri	16.0	0.8181818181818181	89.0	-75.0	0.1818181818181818	16.0	6.0	2.0	2.084234375929654	0.441	6.0	stim	poldrack-single-stim	s577	False	0
231.037	1.5	230.286	n/a	-1.0	2.318	columbia_card_task_fmri	n/a	n/a	-1.0	n/a	n/a	n/a	n/a	n/a	n/a	n/a	n/a	ITI	poldrack-single-stim	s577	False	0
232.609	0.451	233.06	6.820338707398824	draw_card	0.451	columbia_card_task_fmri	17.0	0.875	89.0	-80.0	0.125	16.0	1.0	2.0	-0.9291804643019574	0.451	n/a	stim	poldrack-single-stim	s577	False	1
233.063	0.42	233.483	6.012005374065492	draw_card	0.42	columbia_card_task_fmri	17.0	0.8666666666666667	89.0	-80.0	0.1333333333333333	16.0	2.0	2.0	-0.0368503664214188	0.42	n/a	stim	poldrack-single-stim	s577	False	1
233.487	0.509	233.996	5.088195850255969	draw_card	0.509	columbia_card_task_fmri	17.0	0.8571428571428572	89.0	-80.0	0.1428571428571428	16.0	3.0	2.0	0.9307848909057485	0.509	n/a	stim	poldrack-single-stim	s577	False	1
233.999	0.872	234.871	4.0222617843219	draw_card	0.872	columbia_card_task_fmri	17.0	0.8461538461538461	89.0	-80.0	0.1538461538461538	16.0	4.0	2.0	1.9838970892471155	0.872	n/a	stim	poldrack-single-stim	s577	False	1
234.874	0.876	235.75	2.77867204073216	end_round	0.876	columbia_card_task_fmri	17.0	0.8333333333333334	71.0	-80.0	0.1666666666666666	16.0	5.0	2.0	3.1342259878334886	0.876	4.0	stim	poldrack-single-stim	s577	False	1
236.506	1.5	235.755	n/a	-1.0	2.386	columbia_card_task_fmri	n/a	n/a	-1.0	n/a	n/a	n/a	n/a	n/a	n/a	n/a	n/a	ITI	poldrack-single-stim	s577	False	0
249.157	1.73	250.887	1.1120053740654918	draw_card	1.73	columbia_card_task_fmri	13.0	0.8333333333333334	89.0	-70.0	0.1666666666666666	6.0	1.0	1.0	-2.0744596209844595	1.73	n/a	stim	poldrack-single-stim	s577	False	1
250.892	0.362	251.254	-1.6546612926011757	draw_card	0.362	columbia_card_task_fmri	13.0	0.8	89.0	-70.0	0.2	6.0	2.0	1.0	0.1890999069764802	0.362	n/a	stim	poldrack-single-stim	s577	False	1
251.258	0.361	251.619	-5.8046612926011765	draw_card	0.361	columbia_card_task_fmri	13.0	0.75	89.0	-70.0	0.25	6.0	3.0	1.0	2.9248193635756365	0.361	n/a	stim	poldrack-single-stim	s577	False	1
251.623	0.421	252.044	-12.72132795926784	draw_card	0.421	columbia_card_task_fmri	13.0	0.6666666666666667	89.0	-70.0	0.3333333333333333	6.0	4.0	1.0	6.107061265149575	0.421	n/a	stim	poldrack-single-stim	s577	False	1
252.047	0.499	252.546	-26.55466129260117	draw_card	0.499	columbia_card_task_fmri	13.0	0.5	89.0	-70.0	0.5	6.0	5.0	1.0	8.477725100532076	0.499	5.0	stim	poldrack-single-stim	s577	False	0
253.303	1.5	252.552	n/a	-1.0	2.25	columbia_card_task_fmri	n/a	n/a	-1.0	n/a	n/a	n/a	n/a	n/a	n/a	n/a	n/a	ITI	poldrack-single-stim	s577	False	0
254.807	0.545	255.352	1.1120053740654918	draw_card	0.545	columbia_card_task_fmri	15.0	0.8333333333333334	89.0	-80.0	0.1666666666666666	6.0	1.0	1.0	2.389969505945458	0.545	n/a	stim	poldrack-single-stim	s577	False	1
255.355	0.35	255.705	-2.054661292601176	draw_card	0.35	columbia_card_task_fmri	15.0	0.8	89.0	-80.0	0.2	6.0	2.0	1.0	4.98191703050675	0.35	2.0	stim	poldrack-single-stim	s577	False	0
256.463	1.5	255.712	n/a	-1.0	2.386	columbia_card_task_fmri	n/a	n/a	-1.0	n/a	n/a	n/a	n/a	n/a	n/a	n/a	n/a	ITI	poldrack-single-stim	s577	False	0
258.104	0.484	258.588	2.778672040732158	draw_card	0.484	columbia_card_task_fmri	16.0	0.8333333333333334	89.0	-75.0	0.1666666666666666	6.0	1.0	1.0	0.9016011881755476	0.484	n/a	stim	poldrack-single-stim	s577	False	1
258.593	0.415	259.008	-0.2546612926011753	draw_card	0.415	columbia_card_task_fmri	16.0	0.8	89.0	-75.0	0.2	6.0	2.0	1.0	3.384101293265161	0.415	n/a	stim	poldrack-single-stim	s577	False	1
259.012	0.662	259.674	-4.8046612926011765	draw_card	0.662	columbia_card_task_fmri	16.0	0.75	89.0	-75.0	0.25	6.0	3.0	1.0	6.384301866087249	0.662	n/a	stim	poldrack-single-stim	s577	False	1
259.678	0.853	260.531	-12.387994625934509	end_round	0.853	columbia_card_task_fmri	16.0	0.6666666666666667	71.0	-75.0	0.3333333333333333	6.0	4.0	1.0	9.87405317599996	0.853	3.0	stim	poldrack-single-stim	s577	False	1
261.29	1.5	260.539	n/a	-1.0	2.59	columbia_card_task_fmri	n/a	n/a	-1.0	n/a	n/a	n/a	n/a	n/a	n/a	n/a	n/a	ITI	poldrack-single-stim	s577	False	0
263.134	0.733	263.867	3.945338707398824	draw_card	0.733	columbia_card_task_fmri	21.0	0.75	89.0	-55.0	0.25	8.0	1.0	2.0	-0.1014320289170171	0.733	1.0	stim	poldrack-single-stim	s577	False	0
264.624	1.5	263.873	n/a	-1.0	2.658	columbia_card_task_fmri	n/a	n/a	-1.0	n/a	n/a	n/a	n/a	n/a	n/a	n/a	n/a	ITI	poldrack-single-stim	s577	False	0
266.535	0.471	267.006	5.195338707398824	draw_card	0.471	columbia_card_task_fmri	26.0	0.75	89.0	-65.0	0.25	8.0	1.0	2.0	6.384301866087249	0.471	n/a	stim	poldrack-single-stim	s577	False	1
267.01	0.459	267.469	1.9453387073988275	draw_card	0.459	columbia_card_task_fmri	26.0	0.7142857142857143	89.0	-65.0	0.2857142857142857	8.0	2.0	2.0	8.087766944027763	0.459	2.0	stim	poldrack-single-stim	s577	False	0
268.227	1.5	267.476	n/a	-1.0	2.386	columbia_card_task_fmri	n/a	n/a	-1.0	n/a	n/a	n/a	n/a	n/a	n/a	n/a	n/a	ITI	poldrack-single-stim	s577	False	0
269.867	0.499	270.366	0.2786720407321579	draw_card	0.499	columbia_card_task_fmri	15.0	0.7777777777777778	89.0	-60.0	0.2222222222222222	9.0	1.0	2.0	-1.8267405984165848	0.499	1.0	stim	poldrack-single-stim	s577	False	0
271.125	1.5	270.374	n/a	-1.0	2.386	columbia_card_task_fmri	n/a	n/a	-1.0	n/a	n/a	n/a	n/a	n/a	n/a	n/a	n/a	ITI	poldrack-single-stim	s577	False	0
272.765	0.559	273.324	4.645338707398825	draw_card	0.559	columbia_card_task_fmri	13.0	0.9	89.0	-90.0	0.1	10.0	1.0	1.0	-2.1066696079694616	0.559	1.0	stim	poldrack-single-stim	s577	False	0
274.083	1.5	273.332	n/a	-1.0	2.25	columbia_card_task_fmri	n/a	n/a	-1.0	n/a	n/a	n/a	n/a	n/a	n/a	n/a	n/a	ITI	poldrack-single-stim	s577	False	0
275.587	0.636	276.223	5.945338707398824	draw_card	0.636	columbia_card_task_fmri	15.0	0.9	89.0	-95.0	0.1	10.0	1.0	1.0	-0.0105555724868793	0.636	n/a	stim	poldrack-single-stim	s577	False	1
276.226	0.676	276.902	4.7231164851766	draw_card	0.676	columbia_card_task_fmri	15.0	0.8888888888888888	89.0	-95.0	0.1111111111111111	10.0	2.0	1.0	1.556512245468646	0.676	n/a	stim	poldrack-single-stim	s577	False	1
276.907	0.389	277.296	3.195338707398824	draw_card	0.389	columbia_card_task_fmri	15.0	0.875	89.0	-95.0	0.125	10.0	3.0	1.0	3.36321164870008	0.389	3.0	stim	poldrack-single-stim	s577	False	0
278.052	1.5	277.301	n/a	-1.0	2.318	columbia_card_task_fmri	n/a	n/a	-1.0	n/a	n/a	n/a	n/a	n/a	n/a	n/a	n/a	ITI	poldrack-single-stim	s577	False	0
279.623	0.427	280.05	1.745338707398825	draw_card	0.427	columbia_card_task_fmri	16.0	0.8	89.0	-65.0	0.2	10.0	1.0	2.0	-0.6094965586435279	0.427	n/a	stim	poldrack-single-stim	s577	False	1
280.055	0.399	280.454	-0.0546612926011742	draw_card	0.399	columbia_card_task_fmri	16.0	0.7777777777777778	89.0	-65.0	0.2222222222222222	10.0	2.0	2.0	0.6632146504529928	0.399	2.0	stim	poldrack-single-stim	s577	False	0
281.208	1.5	280.457	n/a	-1.0	2.25	columbia_card_task_fmri	n/a	n/a	-1.0	n/a	n/a	n/a	n/a	n/a	n/a	n/a	n/a	ITI	poldrack-single-stim	s577	False	0
282.712	0.647	283.359	0.445338707398824	draw_card	0.647	columbia_card_task_fmri	7.0	0.9166666666666666	89.0	-95.0	0.0833333333333333	12.0	1.0	1.0	-4.809494406694995	0.647	n/a	stim	poldrack-single-stim	s577	False	1
283.363	0.544	283.907	-0.3273885653284494	draw_card	0.544	columbia_card_task_fmri	7.0	0.9090909090909092	89.0	-95.0	0.0909090909090909	12.0	2.0	1.0	-3.6804482044512703	0.544	n/a	stim	poldrack-single-stim	s577	False	1
283.912	0.505	284.417	-1.2546612926011762	draw_card	0.505	columbia_card_task_fmri	7.0	0.9	89.0	-95.0	0.1	12.0	3.0	1.0	-2.406071057854497	0.505	n/a	stim	poldrack-single-stim	s577	False	1
284.421	0.997	285.418	-2.38799462593451	end_round	0.997	columbia_card_task_fmri	7.0	0.8888888888888888	71.0	-95.0	0.1111111111111111	12.0	4.0	1.0	-0.953363240780334	0.997	3.0	stim	poldrack-single-stim	s577	False	1
286.174	1.5	285.423	n/a	-1.0	2.25	columbia_card_task_fmri	n/a	n/a	-1.0	n/a	n/a	n/a	n/a	n/a	n/a	n/a	n/a	ITI	poldrack-single-stim	s577	False	0
287.678	0.535	288.213	1.1120053740654918	draw_card	0.535	columbia_card_task_fmri	14.0	0.8333333333333334	89.0	-75.0	0.1666666666666666	12.0	1.0	2.0	0.1574958318828123	0.535	n/a	stim	poldrack-single-stim	s577	False	1
288.218	0.403	288.621	-0.2364794744193594	draw_card	0.403	columbia_card_task_fmri	14.0	0.8181818181818181	89.0	-75.0	0.1818181818181818	12.0	2.0	2.0	1.314053790991743	0.403	n/a	stim	poldrack-single-stim	s577	False	1
288.625	0.379	289.004	-1.854661292601175	draw_card	0.379	columbia_card_task_fmri	14.0	0.8	89.0	-75.0	0.2	12.0	3.0	2.0	2.585266891693649	0.379	n/a	stim	poldrack-single-stim	s577	False	1
289.008	0.388	289.396	-3.832439070378951	draw_card	0.388	columbia_card_task_fmri	14.0	0.7777777777777778	89.0	-75.0	0.2222222222222222	12.0	4.0	2.0	3.9840931101358095	0.388	n/a	stim	poldrack-single-stim	s577	False	1
289.4	0.445	289.845	-6.3046612926011765	draw_card	0.445	columbia_card_task_fmri	14.0	0.75	89.0	-75.0	0.25	12.0	5.0	2.0	5.519353541156654	0.445	5.0	stim	poldrack-single-stim	s577	False	0
290.603	1.5	289.852	n/a	-1.0	2.386	columbia_card_task_fmri	n/a	n/a	-1.0	n/a	n/a	n/a	n/a	n/a	n/a	n/a	n/a	ITI	poldrack-single-stim	s577	False	0
292.243	0.359	292.602	2.778672040732158	draw_card	0.359	columbia_card_task_fmri	15.0	0.8333333333333334	89.0	-70.0	0.1666666666666666	12.0	1.0	2.0	-1.330538799643552	0.359	1.0	stim	poldrack-single-stim	s577	False	0
293.361	1.5	292.61	n/a	-1.0	2.386	columbia_card_task_fmri	n/a	n/a	-1.0	n/a	n/a	n/a	n/a	n/a	n/a	n/a	n/a	ITI	poldrack-single-stim	s577	False	0
295.001	0.439	295.44	0.7453387073988247	draw_card	0.439	columbia_card_task_fmri	16.0	0.8	89.0	-70.0	0.2	15.0	1.0	3.0	1.387116704427484	0.439	n/a	stim	poldrack-single-stim	s577	False	1
295.445	0.368	295.813	-0.4832327211726048	draw_card	0.368	columbia_card_task_fmri	16.0	0.7857142857142857	89.0	-70.0	0.2142857142857142	15.0	2.0	3.0	2.2737634117394734	0.368	n/a	stim	poldrack-single-stim	s577	False	1
295.816	0.349	296.165	-1.9008151387550227	draw_card	0.349	columbia_card_task_fmri	16.0	0.7692307692307692	89.0	-70.0	0.2307692307692307	15.0	3.0	3.0	3.218292802781036	0.349	3.0	stim	poldrack-single-stim	s577	False	0
296.925	1.5	296.174	n/a	-1.0	2.726	columbia_card_task_fmri	n/a	n/a	-1.0	n/a	n/a	n/a	n/a	n/a	n/a	n/a	n/a	ITI	poldrack-single-stim	s577	False	0
298.904	0.41	299.314	1.132838707398824	draw_card	0.41	columbia_card_task_fmri	14.0	0.8125	89.0	-65.0	0.1875	16.0	1.0	3.0	-2.171862650768549	0.41	n/a	stim	poldrack-single-stim	s577	False	1
299.319	0.362	299.681	0.145338707398825	draw_card	0.362	columbia_card_task_fmri	14.0	0.8	89.0	-65.0	0.2	16.0	2.0	3.0	-1.408022155652997	0.362	n/a	stim	poldrack-single-stim	s577	False	1
299.685	0.373	300.058	-0.9832327211726032	draw_card	0.373	columbia_card_task_fmri	14.0	0.7857142857142857	89.0	-65.0	0.2142857142857142	16.0	3.0	3.0	-0.5937784883173336	0.373	3.0	stim	poldrack-single-stim	s577	False	0
300.817	1.5	300.066	n/a	-1.0	2.454	columbia_card_task_fmri	n/a	n/a	-1.0	n/a	n/a	n/a	n/a	n/a	n/a	n/a	n/a	ITI	poldrack-single-stim	s577	False	0
302.525	0.628	303.153	0.882838707398824	draw_card	0.628	columbia_card_task_fmri	16.0	0.8125	89.0	-75.0	0.1875	16.0	1.0	3.0	2.503814803966229	0.628	n/a	stim	poldrack-single-stim	s577	False	1
303.158	0.421	303.579	-0.2546612926011753	draw_card	0.421	columbia_card_task_fmri	16.0	0.8	89.0	-75.0	0.2	16.0	2.0	3.0	3.384101293265161	0.421	n/a	stim	poldrack-single-stim	s577	False	1
303.584	0.358	303.942	-1.5546612926011742	draw_card	0.358	columbia_card_task_fmri	16.0	0.7857142857142857	89.0	-75.0	0.2142857142857142	16.0	3.0	3.0	4.3224530697955	0.358	3.0	stim	poldrack-single-stim	s577	False	0
304.698	1.5	303.947	n/a	-1.0	2.318	columbia_card_task_fmri	n/a	n/a	-1.0	n/a	n/a	n/a	n/a	n/a	n/a	n/a	n/a	ITI	poldrack-single-stim	s577	False	0
306.271	0.438	306.709	5.145338707398825	draw_card	0.438	columbia_card_task_fmri	16.0	0.8666666666666667	89.0	-80.0	0.1333333333333333	15.0	1.0	2.0	-0.3761888193449252	0.438	n/a	stim	poldrack-single-stim	s577	False	1
306.714	0.443	307.157	4.231052993113112	draw_card	0.443	columbia_card_task_fmri	16.0	0.8571428571428572	89.0	-80.0	0.1428571428571428	15.0	2.0	2.0	0.5814370273754932	0.443	n/a	stim	poldrack-single-stim	s577	False	1
307.162	0.58	307.742	3.176107938168054	draw_card	0.58	columbia_card_task_fmri	16.0	0.8461538461538461	89.0	-80.0	0.1538461538461538	15.0	3.0	2.0	1.623657744658523	0.58	n/a	stim	poldrack-single-stim	s577	False	1
307.747	1.123	308.87	1.9453387073988255	draw_card	1.123	columbia_card_task_fmri	16.0	0.8333333333333334	89.0	-80.0	0.1666666666666666	15.0	4.0	2.0	2.7620920329364367	1.123	n/a	stim	poldrack-single-stim	s577	False	1
308.873	0.792	309.665	0.4907932528533671	draw_card	0.792	columbia_card_task_fmri	16.0	0.8181818181818181	89.0	-80.0	0.1818181818181818	15.0	5.0	2.0	4.009905686447148	0.792	n/a	stim	poldrack-single-stim	s577	False	1
309.67	0.657	310.327	-1.254661292601175	end_round	0.657	columbia_card_task_fmri	16.0	0.8	71.0	-80.0	0.2	15.0	6.0	2.0	5.381399349934966	0.657	5.0	stim	poldrack-single-stim	s577	False	1
311.088	1.5	310.337	n/a	-1.0	2.318	columbia_card_task_fmri	n/a	n/a	-1.0	n/a	n/a	n/a	n/a	n/a	n/a	n/a	n/a	ITI	poldrack-single-stim	s577	False	0
312.663	0.763	313.426	6.012005374065492	draw_card	0.763	columbia_card_task_fmri	17.0	0.8666666666666667	89.0	-80.0	0.1333333333333333	15.0	1.0	2.0	-0.0368503664214188	0.763	n/a	stim	poldrack-single-stim	s577	False	1
313.431	0.44	313.871	5.088195850255969	draw_card	0.44	columbia_card_task_fmri	17.0	0.8571428571428572	89.0	-80.0	0.1428571428571428	15.0	2.0	2.0	0.9307848909057485	0.44	n/a	stim	poldrack-single-stim	s577	False	1
313.876	0.491	314.367	4.0222617843219	draw_card	0.491	columbia_card_task_fmri	17.0	0.8461538461538461	89.0	-80.0	0.1538461538461538	15.0	3.0	2.0	1.9838970892471155	0.491	n/a	stim	poldrack-single-stim	s577	False	1
314.372	0.536	314.908	2.77867204073216	draw_card	0.536	columbia_card_task_fmri	17.0	0.8333333333333334	89.0	-80.0	0.1666666666666666	15.0	4.0	2.0	3.1342259878334886	0.536	4.0	stim	poldrack-single-stim	s577	False	0
315.666	1.5	314.915	n/a	-1.0	2.59	columbia_card_task_fmri	n/a	n/a	-1.0	n/a	n/a	n/a	n/a	n/a	n/a	n/a	n/a	ITI	poldrack-single-stim	s577	False	0
317.51	0.381	317.891	1.945338707398824	draw_card	0.381	columbia_card_task_fmri	1.0	0.9375	89.0	-15.0	0.0625	16.0	1.0	1.0	-28.73375361406356	0.381	1.0	stim	poldrack-single-stim	s577	False	0
318.648	1.5	317.897	n/a	-1.0	2.726	columbia_card_task_fmri	n/a	n/a	-1.0	n/a	n/a	n/a	n/a	n/a	n/a	n/a	n/a	ITI	poldrack-single-stim	s577	False	0
320.628	0.477	321.105	5.070338707398824	draw_card	0.477	columbia_card_task_fmri	10.0	0.9375	89.0	-100.0	0.0625	16.0	1.0	1.0	-6.370115671649792	0.477	n/a	stim	poldrack-single-stim	s577	False	1
321.11	0.383	321.493	4.612005374065491	draw_card	0.383	columbia_card_task_fmri	10.0	0.9333333333333332	89.0	-100.0	0.0666666666666666	16.0	2.0	1.0	-5.560150327450462	0.383	n/a	stim	poldrack-single-stim	s577	False	1
321.498	0.4	321.898	4.088195850255968	draw_card	0.4	columbia_card_task_fmri	10.0	0.9285714285714286	89.0	-100.0	0.0714285714285714	16.0	3.0	1.0	-4.671799521172922	0.4	n/a	stim	poldrack-single-stim	s577	False	1
321.902	0.414	322.316	3.483800245860363	draw_card	0.414	columbia_card_task_fmri	10.0	0.9230769230769232	89.0	-100.0	0.0769230769230769	16.0	4.0	1.0	-3.6917326415860794	0.414	n/a	stim	poldrack-single-stim	s577	False	1
322.322	0.452	322.774	2.778672040732158	draw_card	0.452	columbia_card_task_fmri	10.0	0.9166666666666666	89.0	-100.0	0.0833333333333333	16.0	5.0	1.0	-2.603276455762021	0.452	5.0	stim	poldrack-single-stim	s577	False	0
323.53	1.5	322.779	n/a	-1.0	2.522	columbia_card_task_fmri	n/a	n/a	-1.0	n/a	n/a	n/a	n/a	n/a	n/a	n/a	n/a	ITI	poldrack-single-stim	s577	False	0
325.305	0.455	325.76	5.695338707398824	draw_card	0.455	columbia_card_task_fmri	15.0	0.875	89.0	-75.0	0.125	16.0	1.0	2.0	-3.2396388817961324	0.455	n/a	stim	poldrack-single-stim	s577	False	1
325.765	0.409	326.174	4.945338707398824	draw_card	0.409	columbia_card_task_fmri	15.0	0.8666666666666667	89.0	-75.0	0.1333333333333333	16.0	2.0	2.0	-2.411942121894402	0.409	n/a	stim	poldrack-single-stim	s577	False	1
326.179	0.5	326.679	4.088195850255968	draw_card	0.5	columbia_card_task_fmri	15.0	0.8571428571428572	89.0	-75.0	0.1428571428571428	16.0	3.0	2.0	-1.5143805769696037	0.5	n/a	stim	poldrack-single-stim	s577	False	1
326.683	0.454	327.137	3.0991848612449773	draw_card	0.454	columbia_card_task_fmri	15.0	0.8461538461538461	89.0	-75.0	0.1538461538461538	16.0	4.0	2.0	-0.5375167899497413	0.454	n/a	stim	poldrack-single-stim	s577	False	1
327.141	0.731	327.872	1.945338707398824	end_round	0.731	columbia_card_task_fmri	15.0	0.8333333333333334	71.0	-75.0	0.1666666666666666	16.0	5.0	2.0	0.5295415795268212	0.731	4.0	stim	poldrack-single-stim	s577	False	1
328.63	1.5	327.879	n/a	-1.0	3.134	columbia_card_task_fmri	n/a	n/a	-1.0	n/a	n/a	n/a	n/a	n/a	n/a	n/a	n/a	ITI	poldrack-single-stim	s577	False	0
331.018	0.61	331.628	5.945338707398824	draw_card	0.61	columbia_card_task_fmri	16.0	0.875	89.0	-80.0	0.125	16.0	1.0	2.0	-1.2592866748786982	0.61	n/a	stim	poldrack-single-stim	s577	False	1
331.632	0.403	332.035	5.145338707398825	draw_card	0.403	columbia_card_task_fmri	16.0	0.8666666666666667	89.0	-80.0	0.1333333333333333	16.0	2.0	2.0	-0.3761888193449252	0.403	n/a	stim	poldrack-single-stim	s577	False	1
332.039	0.407	332.446	4.231052993113112	draw_card	0.407	columbia_card_task_fmri	16.0	0.8571428571428572	89.0	-80.0	0.1428571428571428	16.0	3.0	2.0	0.5814370273754932	0.407	n/a	stim	poldrack-single-stim	s577	False	1
332.451	0.372	332.823	3.176107938168054	draw_card	0.372	columbia_card_task_fmri	16.0	0.8461538461538461	89.0	-80.0	0.1538461538461538	16.0	4.0	2.0	1.623657744658523	0.372	n/a	stim	poldrack-single-stim	s577	False	1
332.827	0.557	333.384	1.9453387073988255	draw_card	0.557	columbia_card_task_fmri	16.0	0.8333333333333334	89.0	-80.0	0.1666666666666666	16.0	5.0	2.0	2.7620920329364367	0.557	5.0	stim	poldrack-single-stim	s577	False	0
334.141	1.5	333.39	n/a	-1.0	2.386	columbia_card_task_fmri	n/a	n/a	-1.0	n/a	n/a	n/a	n/a	n/a	n/a	n/a	n/a	ITI	poldrack-single-stim	s577	False	0
335.781	0.574	336.355	3.132838707398824	draw_card	0.574	columbia_card_task_fmri	4.0	0.6875	89.0	-5.0	0.3125	16.0	1.0	5.0	-28.464944585045597	0.574	n/a	stim	poldrack-single-stim	s577	False	1
336.359	0.39	336.749	2.9453387073988244	draw_card	0.39	columbia_card_task_fmri	4.0	0.6666666666666667	89.0	-5.0	0.3333333333333333	16.0	2.0	5.0	-28.400474373926524	0.39	n/a	stim	poldrack-single-stim	s577	False	1
336.754	0.497	337.251	2.731052993113109	draw_card	0.497	columbia_card_task_fmri	4.0	0.6428571428571428	89.0	-5.0	0.3571428571428571	16.0	3.0	5.0	-28.33695846399128	0.497	3.0	stim	poldrack-single-stim	s577	False	0
338.008	1.5	337.257	n/a	-1.0	2.386	columbia_card_task_fmri	n/a	n/a	-1.0	n/a	n/a	n/a	n/a	n/a	n/a	n/a	n/a	ITI	poldrack-single-stim	s577	False	0
339.648	1.016	340.664	0.2786720407321597	draw_card	1.016	columbia_card_task_fmri	14.0	0.8333333333333334	89.0	-80.0	0.1666666666666666	6.0	1.0	1.0	2.0178587704771687	1.016	n/a	stim	poldrack-single-stim	s577	False	1
340.669	0.44	341.109	-2.854661292601175	draw_card	0.44	columbia_card_task_fmri	14.0	0.8	89.0	-80.0	0.2	6.0	2.0	1.0	4.5824457037302295	0.44	n/a	stim	poldrack-single-stim	s577	False	1
341.114	0.41	341.524	-7.554661292601176	draw_card	0.41	columbia_card_task_fmri	14.0	0.75	89.0	-80.0	0.25	6.0	3.0	1.0	7.681810139355946	0.41	3.0	stim	poldrack-single-stim	s577	False	0
342.282	1.5	341.531	n/a	-1.0	2.318	columbia_card_task_fmri	n/a	n/a	-1.0	n/a	n/a	n/a	n/a	n/a	n/a	n/a	n/a	ITI	poldrack-single-stim	s577	False	0
343.855	0.651	344.506	1.945338707398824	draw_card	0.651	columbia_card_task_fmri	15.0	0.8333333333333334	89.0	-75.0	0.1666666666666666	6.0	1.0	1.0	0.5295415795268212	0.651	n/a	stim	poldrack-single-stim	s577	False	1
344.511	0.448	344.959	-1.054661292601176	draw_card	0.448	columbia_card_task_fmri	15.0	0.8	89.0	-75.0	0.2	6.0	2.0	1.0	2.9846776310774104	0.448	n/a	stim	poldrack-single-stim	s577	False	1
344.963	0.412	345.375	-5.5546612926011765	draw_card	0.412	columbia_card_task_fmri	15.0	0.75	89.0	-75.0	0.25	6.0	3.0	1.0	5.951821731008515	0.412	3.0	stim	poldrack-single-stim	s577	False	0
346.133	1.5	345.382	n/a	-1.0	2.318	columbia_card_task_fmri	n/a	n/a	-1.0	n/a	n/a	n/a	n/a	n/a	n/a	n/a	n/a	ITI	poldrack-single-stim	s577	False	0
347.706	0.443	348.149	3.612005374065492	draw_card	0.443	columbia_card_task_fmri	16.0	0.8333333333333334	89.0	-70.0	0.1666666666666666	6.0	1.0	1.0	-0.9585534269461604	0.443	n/a	stim	poldrack-single-stim	s577	False	1
348.154	0.384	348.538	0.7453387073988247	draw_card	0.384	columbia_card_task_fmri	16.0	0.8	89.0	-70.0	0.2	6.0	2.0	1.0	1.387116704427484	0.384	2.0	stim	poldrack-single-stim	s577	False	0
349.297	1.5	348.546	n/a	-1.0	2.862	columbia_card_task_fmri	n/a	n/a	-1.0	n/a	n/a	n/a	n/a	n/a	n/a	n/a	n/a	ITI	poldrack-single-stim	s577	False	0
351.414	0.724	352.138	4.195338707398824	end_round	0.724	columbia_card_task_fmri	23.0	0.75	71.0	-60.0	0.25	8.0	1.0	2.0	2.9248193635756365	0.724	0.0	stim	poldrack-single-stim	s577	False	1
352.894	1.5	352.143	n/a	-1.0	2.726	columbia_card_task_fmri	n/a	n/a	-1.0	n/a	n/a	n/a	n/a	n/a	n/a	n/a	n/a	ITI	poldrack-single-stim	s577	False	0
354.876	0.681	355.557	4.695338707398824	draw_card	0.681	columbia_card_task_fmri	27.0	0.75	89.0	-70.0	0.25	8.0	1.0	2.0	8.979412884547934	0.681	1.0	stim	poldrack-single-stim	s577	False	0
356.315	1.5	355.564	n/a	-1.0	2.25	columbia_card_task_fmri	n/a	n/a	-1.0	n/a	n/a	n/a	n/a	n/a	n/a	n/a	n/a	ITI	poldrack-single-stim	s577	False	0
357.819	0.757	358.576	-0.0546612926011742	draw_card	0.757	columbia_card_task_fmri	16.0	0.7777777777777778	89.0	-65.0	0.2222222222222222	9.0	1.0	2.0	0.6632146504529928	0.757	n/a	stim	poldrack-single-stim	s577	False	1
358.58	0.59	359.17	-2.304661292601176	draw_card	0.59	columbia_card_task_fmri	16.0	0.75	89.0	-65.0	0.25	9.0	2.0	2.0	2.060090989759054	0.59	n/a	stim	poldrack-single-stim	s577	False	1
359.175	1.113	360.288	-5.197518435458317	draw_card	1.113	columbia_card_task_fmri	16.0	0.7142857142857143	89.0	-65.0	0.2857142857142857	9.0	3.0	2.0	3.575899086067821	1.113	n/a	stim	poldrack-single-stim	s577	False	1
360.292	0.701	360.993	-9.054661292601171	end_round	0.701	columbia_card_task_fmri	16.0	0.6666666666666667	71.0	-65.0	0.3333333333333333	9.0	4.0	2.0	5.16544403990855	0.701	3.0	stim	poldrack-single-stim	s577	False	1
361.751	1.5	361.0	n/a	-1.0	2.318	columbia_card_task_fmri	n/a	n/a	-1.0	n/a	n/a	n/a	n/a	n/a	n/a	n/a	n/a	ITI	poldrack-single-stim	s577	False	0
363.323	0.96	364.283	5.145338707398825	draw_card	0.96	columbia_card_task_fmri	13.0	0.9	89.0	-85.0	0.1	10.0	1.0	1.0	-3.6035550921809367	0.96	n/a	stim	poldrack-single-stim	s577	False	1
364.289	0.417	364.706	4.056449818509934	draw_card	0.417	columbia_card_task_fmri	13.0	0.8888888888888888	89.0	-85.0	0.1111111111111111	10.0	2.0	1.0	-2.2080395663128023	0.417	n/a	stim	poldrack-single-stim	s577	False	1
364.71	0.474	365.184	2.695338707398824	draw_card	0.474	columbia_card_task_fmri	13.0	0.875	89.0	-85.0	0.125	10.0	3.0	1.0	-0.5990617835990193	0.474	n/a	stim	poldrack-single-stim	s577	False	1
365.189	0.733	365.922	0.9453387073988258	draw_card	0.733	columbia_card_task_fmri	13.0	0.8571428571428572	89.0	-85.0	0.1428571428571428	10.0	4.0	1.0	1.280144546972366	0.733	4.0	stim	poldrack-single-stim	s577	False	0
366.679	1.5	365.928	n/a	-1.0	2.454	columbia_card_task_fmri	n/a	n/a	-1.0	n/a	n/a	n/a	n/a	n/a	n/a	n/a	n/a	ITI	poldrack-single-stim	s577	False	0
368.389	1.015	369.404	0.145338707398825	draw_card	1.015	columbia_card_task_fmri	14.0	0.8	89.0	-65.0	0.2	10.0	1.0	2.0	-1.408022155652997	1.015	n/a	stim	poldrack-single-stim	s577	False	1
369.408	0.452	369.86	-1.6102168481567296	draw_card	0.452	columbia_card_task_fmri	14.0	0.7777777777777778	89.0	-65.0	0.2222222222222222	10.0	2.0	2.0	-0.1668458947699918	0.452	n/a	stim	poldrack-single-stim	s577	False	1
369.865	0.414	370.279	-3.804661292601176	draw_card	0.414	columbia_card_task_fmri	14.0	0.75	89.0	-65.0	0.25	10.0	3.0	2.0	1.195428133375536	0.414	n/a	stim	poldrack-single-stim	s577	False	1
370.284	0.624	370.908	-6.626089864029746	draw_card	0.624	columbia_card_task_fmri	14.0	0.7142857142857143	89.0	-65.0	0.2857142857142857	10.0	4.0	2.0	2.6736974549736843	0.624	n/a	stim	poldrack-single-stim	s577	False	1
370.912	1.305	372.217	-10.387994625934509	draw_card	1.305	columbia_card_task_fmri	14.0	0.6666666666666667	89.0	-65.0	0.3333333333333333	10.0	5.0	2.0	4.223887039595326	1.305	5.0	stim	poldrack-single-stim	s577	False	0
372.974	1.5	372.223	n/a	-1.0	2.522	columbia_card_task_fmri	n/a	n/a	-1.0	n/a	n/a	n/a	n/a	n/a	n/a	n/a	n/a	ITI	poldrack-single-stim	s577	False	0
374.751	0.464	375.215	1.5453387073988254	draw_card	0.464	columbia_card_task_fmri	17.0	0.8	89.0	-70.0	0.2	10.0	1.0	2.0	1.7864859583792452	0.464	1.0	stim	poldrack-single-stim	s577	False	0
375.975	1.5	375.224	n/a	-1.0	2.318	columbia_card_task_fmri	n/a	n/a	-1.0	n/a	n/a	n/a	n/a	n/a	n/a	n/a	n/a	ITI	poldrack-single-stim	s577	False	0
377.549	0.524	378.073	0.2786720407321579	draw_card	0.524	columbia_card_task_fmri	13.0	0.8333333333333334	89.0	-75.0	0.1666666666666666	12.0	1.0	2.0	-0.2145355838515996	0.524	n/a	stim	poldrack-single-stim	s577	False	1
378.078	0.393	378.471	-1.0546612926011778	draw_card	0.393	columbia_card_task_fmri	13.0	0.8181818181818181	89.0	-75.0	0.1818181818181818	12.0	2.0	2.0	0.9289840503236632	0.393	n/a	stim	poldrack-single-stim	s577	False	1
378.476	0.371	378.847	-2.654661292601176	draw_card	0.371	columbia_card_task_fmri	13.0	0.8	89.0	-75.0	0.2	12.0	3.0	2.0	2.185869514344752	0.371	3.0	stim	poldrack-single-stim	s577	False	0
379.606	1.5	378.855	n/a	-1.0	2.522	columbia_card_task_fmri	n/a	n/a	-1.0	n/a	n/a	n/a	n/a	n/a	n/a	n/a	n/a	ITI	poldrack-single-stim	s577	False	0
381.383	0.862	382.245	1.9453387073988255	draw_card	0.862	columbia_card_task_fmri	14.0	0.8333333333333334	89.0	-70.0	0.1666666666666666	12.0	1.0	2.0	-1.70250772834326	0.862	n/a	stim	poldrack-single-stim	s577	False	1
382.251	0.371	382.622	0.6726114346715488	draw_card	0.371	columbia_card_task_fmri	14.0	0.8181818181818181	89.0	-70.0	0.1818181818181818	12.0	2.0	2.0	-0.6111465218674041	0.371	n/a	stim	poldrack-single-stim	s577	False	1
382.627	0.453	383.08	-0.854661292601175	draw_card	0.453	columbia_card_task_fmri	14.0	0.8	89.0	-70.0	0.2	12.0	3.0	2.0	0.5884231390596355	0.453	n/a	stim	poldrack-single-stim	s577	False	1
383.086	0.411	383.497	-2.721327959267842	draw_card	0.411	columbia_card_task_fmri	14.0	0.7777777777777778	89.0	-70.0	0.2222222222222222	12.0	4.0	2.0	1.9084318496773776	0.411	n/a	stim	poldrack-single-stim	s577	False	1
383.502	0.496	383.998	-5.0546612926011765	draw_card	0.496	columbia_card_task_fmri	14.0	0.75	89.0	-70.0	0.25	12.0	5.0	2.0	3.357206661366739	0.496	n/a	stim	poldrack-single-stim	s577	False	1
384.002	0.726	384.728	-8.054661292601176	draw_card	0.726	columbia_card_task_fmri	14.0	0.7142857142857143	89.0	-70.0	0.2857142857142857	12.0	6.0	2.0	4.929317927144822	0.726	n/a	stim	poldrack-single-stim	s577	False	1
384.732	0.87	385.602	-12.054661292601176	end_round	0.87	columbia_card_task_fmri	14.0	0.6666666666666667	71.0	-70.0	0.3333333333333333	12.0	7.0	2.0	6.57789112113894	0.87	6.0	stim	poldrack-single-stim	s577	False	1
386.362	1.5	385.611	n/a	-1.0	2.998	columbia_card_task_fmri	n/a	n/a	-1.0	n/a	n/a	n/a	n/a	n/a	n/a	n/a	n/a	ITI	poldrack-single-stim	s577	False	0
388.615	0.836	389.451	1.9453387073988255	draw_card	0.836	columbia_card_task_fmri	16.0	0.8333333333333334	89.0	-80.0	0.1666666666666666	12.0	1.0	2.0	2.7620920329364367	0.836	n/a	stim	poldrack-single-stim	s577	False	1
389.456	0.381	389.837	0.4907932528533671	draw_card	0.381	columbia_card_task_fmri	16.0	0.8181818181818181	89.0	-80.0	0.1818181818181818	12.0	2.0	2.0	4.009905686447148	0.381	n/a	stim	poldrack-single-stim	s577	False	1
389.843	0.395	390.238	-1.254661292601175	draw_card	0.395	columbia_card_task_fmri	16.0	0.8	89.0	-80.0	0.2	12.0	3.0	2.0	5.381399349934966	0.395	3.0	stim	poldrack-single-stim	s577	False	0
391.0	1.5	390.249	n/a	-1.0	2.318	columbia_card_task_fmri	n/a	n/a	-1.0	n/a	n/a	n/a	n/a	n/a	n/a	n/a	n/a	ITI	poldrack-single-stim	s577	False	0
392.574	0.534	393.108	1.745338707398825	draw_card	0.534	columbia_card_task_fmri	16.0	0.8	89.0	-65.0	0.2	15.0	1.0	3.0	-0.6094965586435279	0.534	n/a	stim	poldrack-single-stim	s577	False	1
393.113	0.3	393.413	0.5881958502559681	draw_card	0.3	columbia_card_task_fmri	16.0	0.7857142857142857	89.0	-65.0	0.2142857142857142	15.0	2.0	3.0	0.2254358214617013	0.3	n/a	stim	poldrack-single-stim	s577	False	1
393.42	0.306	393.726	-0.7469689849088694	draw_card	0.306	columbia_card_task_fmri	16.0	0.7692307692307692	89.0	-65.0	0.2307692307692307	15.0	3.0	3.0	1.114883707988383	0.306	n/a	stim	poldrack-single-stim	s577	False	1
393.731	0.454	394.185	-2.304661292601176	draw_card	0.454	columbia_card_task_fmri	16.0	0.75	89.0	-65.0	0.25	15.0	4.0	3.0	2.060090989759054	0.454	n/a	stim	poldrack-single-stim	s577	False	1
394.191	0.366	394.557	-4.145570383510266	draw_card	0.366	columbia_card_task_fmri	16.0	0.7272727272727273	89.0	-65.0	0.2727272727272727	15.0	5.0	3.0	3.0588730914425497	0.366	n/a	stim	poldrack-single-stim	s577	False	1
394.561	0.92	395.481	-6.354661292601177	draw_card	0.92	columbia_card_task_fmri	16.0	0.7	89.0	-65.0	0.3	15.0	6.0	3.0	4.101959808078114	0.92	n/a	stim	poldrack-single-stim	s577	False	1
395.486	0.761	396.247	-9.054661292601171	end_round	0.761	columbia_card_task_fmri	16.0	0.6666666666666667	71.0	-65.0	0.3333333333333333	15.0	7.0	3.0	5.16544403990855	0.761	6.0	stim	poldrack-single-stim	s577	False	1
397.004	1.5	396.253	n/a	-1.0	2.25	columbia_card_task_fmri	n/a	n/a	-1.0	n/a	n/a	n/a	n/a	n/a	n/a	n/a	n/a	ITI	poldrack-single-stim	s577	False	0
398.509	0.624	399.133	0.0703387073988239	draw_card	0.624	columbia_card_task_fmri	15.0	0.8125	89.0	-75.0	0.1875	16.0	1.0	3.0	2.114093007571149	0.624	n/a	stim	poldrack-single-stim	s577	False	1
399.138	0.363	399.501	-1.054661292601176	draw_card	0.363	columbia_card_task_fmri	15.0	0.8	89.0	-75.0	0.2	16.0	2.0	3.0	2.9846776310774104	0.363	2.0	stim	poldrack-single-stim	s577	False	0
400.26	1.5	399.509	n/a	-1.0	2.454	columbia_card_task_fmri	n/a	n/a	-1.0	n/a	n/a	n/a	n/a	n/a	n/a	n/a	n/a	ITI	poldrack-single-stim	s577	False	0
401.969	0.733	402.702	0.632838707398824	draw_card	0.733	columbia_card_task_fmri	14.0	0.6875	89.0	-35.0	0.3125	16.0	1.0	5.0	-10.272577615562923	0.733	n/a	stim	poldrack-single-stim	s577	False	1
402.708	0.339	403.047	-0.3879946259345082	draw_card	0.339	columbia_card_task_fmri	14.0	0.6666666666666667	89.0	-35.0	0.3333333333333333	16.0	2.0	5.0	-9.887251232399247	0.339	n/a	stim	poldrack-single-stim	s577	False	1
403.052	0.434	403.486	-1.554661292601176	draw_card	0.434	columbia_card_task_fmri	14.0	0.6428571428571428	89.0	-35.0	0.3571428571428571	16.0	3.0	5.0	-9.508677520238102	0.434	n/a	stim	poldrack-single-stim	s577	False	1
403.493	0.429	403.922	-2.900815138755021	draw_card	0.429	columbia_card_task_fmri	14.0	0.6153846153846154	89.0	-35.0	0.3846153846153846	16.0	4.0	5.0	-9.149893656716095	0.429	4.0	stim	poldrack-single-stim	s577	False	0
404.68	1.5	403.929	n/a	-1.0	2.318	columbia_card_task_fmri	n/a	n/a	-1.0	n/a	n/a	n/a	n/a	n/a	n/a	n/a	n/a	ITI	poldrack-single-stim	s577	False	0
406.254	0.5	406.754	5.812005374065491	draw_card	0.5	columbia_card_task_fmri	16.0	0.8666666666666667	89.0	-75.0	0.1333333333333333	15.0	1.0	2.0	-2.0726850995509025	0.5	n/a	stim	poldrack-single-stim	s577	False	1
406.761	0.377	407.138	4.945338707398825	draw_card	0.377	columbia_card_task_fmri	16.0	0.8571428571428572	89.0	-75.0	0.1428571428571428	15.0	2.0	2.0	-1.1651118437141932	0.377	n/a	stim	poldrack-single-stim	s577	False	1
407.143	0.418	407.561	3.945338707398824	draw_card	0.418	columbia_card_task_fmri	16.0	0.8461538461538461	89.0	-75.0	0.1538461538461538	15.0	3.0	2.0	-0.1773542149048665	0.418	n/a	stim	poldrack-single-stim	s577	False	1
407.567	0.419	407.986	2.778672040732158	draw_card	0.419	columbia_card_task_fmri	16.0	0.8333333333333334	89.0	-75.0	0.1666666666666666	15.0	4.0	2.0	0.9016011881755476	0.419	n/a	stim	poldrack-single-stim	s577	False	1
407.991	1.002	408.993	1.3998841619442772	end_round	1.002	columbia_card_task_fmri	16.0	0.8181818181818181	71.0	-75.0	0.1818181818181818	15.0	5.0	2.0	2.084234375929654	1.002	4.0	stim	poldrack-single-stim	s577	False	1
409.752	1.5	409.001	n/a	-1.0	2.318	columbia_card_task_fmri	n/a	n/a	-1.0	n/a	n/a	n/a	n/a	n/a	n/a	n/a	n/a	ITI	poldrack-single-stim	s577	False	0
411.327	0.58	411.907	6.478672040732157	draw_card	0.58	columbia_card_task_fmri	16.0	0.8666666666666667	89.0	-70.0	0.1333333333333333	15.0	1.0	2.0	-3.768813131132834	0.58	n/a	stim	poldrack-single-stim	s577	False	1
411.912	0.383	412.295	5.659624421684539	draw_card	0.383	columbia_card_task_fmri	16.0	0.8571428571428572	89.0	-70.0	0.1428571428571428	15.0	2.0	2.0	-2.9113028622723647	0.383	n/a	stim	poldrack-single-stim	s577	False	1
412.299	0.407	412.706	4.714569476629592	draw_card	0.407	columbia_card_task_fmri	16.0	0.8461538461538461	89.0	-70.0	0.1538461538461538	15.0	3.0	2.0	-1.978018991701262	0.407	n/a	stim	poldrack-single-stim	s577	False	1
412.712	0.413	413.125	3.612005374065492	draw_card	0.413	columbia_card_task_fmri	16.0	0.8333333333333334	89.0	-70.0	0.1666666666666666	15.0	4.0	2.0	-0.9585534269461604	0.413	n/a	stim	poldrack-single-stim	s577	False	1
413.13	0.709	413.839	2.308975071035185	end_round	0.709	columbia_card_task_fmri	16.0	0.8181818181818181	71.0	-70.0	0.1818181818181818	15.0	5.0	2.0	0.158888054369342	0.709	4.0	stim	poldrack-single-stim	s577	False	1
414.595	1.5	413.844	n/a	-1.0	2.59	columbia_card_task_fmri	n/a	n/a	-1.0	n/a	n/a	n/a	n/a	n/a	n/a	n/a	n/a	ITI	poldrack-single-stim	s577	False	0
416.439	0.437	416.876	3.820338707398824	end_round	0.437	columbia_card_task_fmri	8.0	0.9375	71.0	-90.0	0.0625	16.0	1.0	1.0	-9.26619069521104	0.437	0.0	stim	poldrack-single-stim	s577	False	1
417.634	1.5	416.883	n/a	-1.0	2.25	columbia_card_task_fmri	n/a	n/a	-1.0	n/a	n/a	n/a	n/a	n/a	n/a	n/a	n/a	ITI	poldrack-single-stim	s577	False	0
419.139	0.806	419.945	5.382838707398824	draw_card	0.806	columbia_card_task_fmri	10.0	0.9375	89.0	-95.0	0.0625	16.0	1.0	1.0	-7.5770531621475	0.806	n/a	stim	poldrack-single-stim	s577	False	1
419.951	0.386	420.337	4.945338707398825	draw_card	0.386	columbia_card_task_fmri	10.0	0.9333333333333332	89.0	-95.0	0.0666666666666666	16.0	2.0	1.0	-6.804098585148701	0.386	n/a	stim	poldrack-single-stim	s577	False	1
420.345	0.385	420.73	4.445338707398825	draw_card	0.385	columbia_card_task_fmri	10.0	0.9285714285714286	89.0	-95.0	0.0714285714285714	16.0	3.0	1.0	-5.9563275800791935	0.385	n/a	stim	poldrack-single-stim	s577	False	1
420.736	0.351	421.087	3.8684156304757473	draw_card	0.351	columbia_card_task_fmri	10.0	0.9230769230769232	89.0	-95.0	0.0769230769230769	16.0	4.0	1.0	-5.02101604066311	0.351	n/a	stim	poldrack-single-stim	s577	False	1
421.094	0.38	421.474	3.195338707398824	draw_card	0.38	columbia_card_task_fmri	10.0	0.9166666666666666	89.0	-95.0	0.0833333333333333	16.0	5.0	1.0	-3.982249264389541	0.38	n/a	stim	poldrack-single-stim	s577	False	1
421.478	0.774	422.252	2.399884161944277	draw_card	0.774	columbia_card_task_fmri	10.0	0.9090909090909092	89.0	-95.0	0.0909090909090909	16.0	6.0	1.0	-2.819846627350305	0.774	n/a	stim	poldrack-single-stim	s577	False	1
422.258	0.588	422.846	1.445338707398824	draw_card	0.588	columbia_card_task_fmri	10.0	0.9	89.0	-95.0	0.1	16.0	7.0	1.0	-1.5078326044097707	0.588	n/a	stim	poldrack-single-stim	s577	False	1
422.85	0.518	423.368	0.2786720407321579	draw_card	0.518	columbia_card_task_fmri	10.0	0.8888888888888888	89.0	-95.0	0.1111111111111111	16.0	8.0	1.0	-0.0122361993570336	0.518	n/a	stim	poldrack-single-stim	s577	False	1
423.374	0.433	423.807	-1.179661292601176	draw_card	0.433	columbia_card_task_fmri	10.0	0.875	89.0	-95.0	0.125	16.0	9.0	1.0	1.7120883159595408	0.433	n/a	stim	poldrack-single-stim	s577	False	1
423.811	0.399	424.21	-3.0546612926011742	draw_card	0.399	columbia_card_task_fmri	10.0	0.8571428571428572	89.0	-95.0	0.1428571428571428	16.0	10.0	1.0	3.7259641123680254	0.399	n/a	stim	poldrack-single-stim	s577	False	1
424.215	0.723	424.938	-5.554661292601175	draw_card	0.723	columbia_card_task_fmri	10.0	0.8333333333333334	89.0	-95.0	0.1666666666666666	16.0	11.0	1.0	6.111669953610232	0.723	n/a	stim	poldrack-single-stim	s577	False	1
424.944	0.952	425.896	-9.054661292601176	draw_card	0.952	columbia_card_task_fmri	10.0	0.8	89.0	-95.0	0.2	16.0	12.0	1.0	8.977183191295964	0.952	n/a	stim	poldrack-single-stim	s577	False	1
425.902	0.475	426.377	-14.304661292601176	draw_card	0.475	columbia_card_task_fmri	10.0	0.75	89.0	-95.0	0.25	16.0	13.0	1.0	12.440087275214276	0.475	13.0	stim	poldrack-single-stim	s577	False	0
427.133	1.5	426.382	n/a	-1.0	2.25	columbia_card_task_fmri	n/a	n/a	-1.0	n/a	n/a	n/a	n/a	n/a	n/a	n/a	n/a	ITI	poldrack-single-stim	s577	False	0
428.637	0.487	429.124	6.320338707398824	draw_card	0.487	columbia_card_task_fmri	15.0	0.875	89.0	-70.0	0.125	16.0	1.0	2.0	-4.889506632498037	0.487	n/a	stim	poldrack-single-stim	s577	False	1
429.13	0.371	429.501	5.61200537406549	draw_card	0.371	columbia_card_task_fmri	15.0	0.8666666666666667	89.0	-70.0	0.1333333333333333	16.0	2.0	2.0	-4.107988853499773	0.371	n/a	stim	poldrack-single-stim	s577	False	1
429.506	0.303	429.809	4.802481564541681	draw_card	0.303	columbia_card_task_fmri	15.0	0.8571428571428572	89.0	-70.0	0.1428571428571428	16.0	3.0	2.0	-3.260492588978529	0.303	n/a	stim	poldrack-single-stim	s577	False	1
429.815	0.355	430.17	3.8684156304757455	draw_card	0.355	columbia_card_task_fmri	15.0	0.8461538461538461	89.0	-70.0	0.1538461538461538	16.0	4.0	2.0	-2.3381049141568155	0.355	n/a	stim	poldrack-single-stim	s577	False	1
430.174	0.382	430.556	2.778672040732158	draw_card	0.382	columbia_card_task_fmri	15.0	0.8333333333333334	89.0	-70.0	0.1666666666666666	16.0	5.0	2.0	-1.330538799643552	0.382	n/a	stim	poldrack-single-stim	s577	False	1
430.562	0.38	430.942	1.4907932528533672	draw_card	0.38	columbia_card_task_fmri	15.0	0.8181818181818181	89.0	-70.0	0.1818181818181818	16.0	6.0	2.0	-0.2261371812403467	0.38	n/a	stim	poldrack-single-stim	s577	False	1
430.946	1.085	432.031	-0.054661292601176	draw_card	1.085	columbia_card_task_fmri	15.0	0.8	89.0	-70.0	0.2	16.0	7.0	2.0	0.9877622556475316	1.085	n/a	stim	poldrack-single-stim	s577	False	1
432.036	0.69	432.726	-1.9435501814900653	draw_card	0.69	columbia_card_task_fmri	15.0	0.7777777777777778	89.0	-70.0	0.2222222222222222	16.0	8.0	2.0	2.323535579612347	0.69	n/a	stim	poldrack-single-stim	s577	False	1
432.731	0.746	433.477	-4.3046612926011765	end_round	0.746	columbia_card_task_fmri	15.0	0.75	71.0	-70.0	0.25	16.0	9.0	2.0	3.7896086434285294	0.746	8.0	stim	poldrack-single-stim	s577	False	1
434.234	1.5	433.483	n/a	-1.0	2.522	columbia_card_task_fmri	n/a	n/a	-1.0	n/a	n/a	n/a	n/a	n/a	n/a	n/a	n/a	ITI	poldrack-single-stim	s577	False	0
436.011	1.068	437.079	5.320338707398824	draw_card	1.068	columbia_card_task_fmri	16.0	0.875	89.0	-85.0	0.125	16.0	1.0	2.0	0.3913653881764105	1.068	n/a	stim	poldrack-single-stim	s577	False	1
437.086	0.362	437.448	4.478672040732157	draw_card	0.362	columbia_card_task_fmri	16.0	0.8666666666666667	89.0	-85.0	0.1333333333333333	16.0	2.0	2.0	1.3206212087754563	0.362	n/a	stim	poldrack-single-stim	s577	False	1
437.455	0.362	437.817	3.516767278827397	draw_card	0.362	columbia_card_task_fmri	16.0	0.8571428571428572	89.0	-85.0	0.1428571428571428	16.0	3.0	2.0	2.32829077856357	0.362	3.0	stim	poldrack-single-stim	s577	False	0
438.577	1.5	437.826	n/a	-1.0	2.454	columbia_card_task_fmri	n/a	n/a	-1.0	n/a	n/a	n/a	n/a	n/a	n/a	n/a	n/a	ITI	poldrack-single-stim	s577	False	0
