onset	duration	movement_onset	block_duration	condition	correct	correct_response	experiment_exp_id	key_press	response_time	trial_id	trial_type	worker_id	junk
3.014	0.5	3.013	0.5	BY	n/a	n/a	dot_pattern_expectancy	-1.0	n/a	cue	BY	s577	False
5.519	0.5	6.363	1.636	BY	1.0	71.0	dot_pattern_expectancy	71.0	0.844	probe	BY	s577	False
7.156	0.5	7.155	0.5	AY	n/a	n/a	dot_pattern_expectancy	-1.0	n/a	cue	AY	s577	False
9.666	0.5	10.363	1.5	AY	1.0	71.0	dot_pattern_expectancy	71.0	0.697	probe	AY	s577	False
11.167	0.5	11.166	0.5	AX	n/a	n/a	dot_pattern_expectancy	-1.0	n/a	cue	AX	s577	False
13.677	0.5	14.088	2.044	AX	1.0	89.0	dot_pattern_expectancy	89.0	0.411	probe	AX	s577	False
15.722	0.5	15.721	0.5	BY	n/a	n/a	dot_pattern_expectancy	-1.0	n/a	cue	BY	s577	False
18.231	0.5	18.701	1.772	BY	1.0	71.0	dot_pattern_expectancy	71.0	0.47	probe	BY	s577	False
20.005	0.5	20.004	0.5	BX	n/a	n/a	dot_pattern_expectancy	-1.0	n/a	cue	BX	s577	False
22.512	0.5	23.316	1.636	BX	1.0	71.0	dot_pattern_expectancy	71.0	0.804	probe	BX	s577	False
24.154	0.5	24.153	0.5	AX	n/a	n/a	dot_pattern_expectancy	-1.0	n/a	cue	AX	s577	False
26.661	0.5	27.326	1.636	AX	1.0	89.0	dot_pattern_expectancy	89.0	0.665	probe	AX	s577	False
28.298	0.5	28.297	0.5	AX	n/a	n/a	dot_pattern_expectancy	-1.0	n/a	cue	AX	s577	False
30.808	0.5	31.321	1.5	AX	1.0	89.0	dot_pattern_expectancy	89.0	0.513	probe	AX	s577	False
32.309	0.5	32.308	0.5	AX	n/a	n/a	dot_pattern_expectancy	-1.0	n/a	cue	AX	s577	False
34.82	0.5	35.503	1.5	AX	0.0	89.0	dot_pattern_expectancy	71.0	0.683	probe	AX	s577	False
36.323	0.5	36.322	0.5	AY	n/a	n/a	dot_pattern_expectancy	-1.0	n/a	cue	AY	s577	False
38.829	0.5	39.786	2.044	AY	1.0	71.0	dot_pattern_expectancy	71.0	0.957	probe	AY	s577	False
40.875	0.5	40.874	0.5	AX	n/a	n/a	dot_pattern_expectancy	-1.0	n/a	cue	AX	s577	False
43.381	0.5	44.014	2.452	AX	1.0	89.0	dot_pattern_expectancy	89.0	0.633	probe	AX	s577	False
45.835	0.5	45.834	0.5	AX	n/a	n/a	dot_pattern_expectancy	-1.0	n/a	cue	AX	s577	False
48.342	0.5	48.838	1.908	AX	1.0	89.0	dot_pattern_expectancy	89.0	0.496	probe	AX	s577	False
50.251	0.5	50.25	0.5	AX	n/a	n/a	dot_pattern_expectancy	-1.0	n/a	cue	AX	s577	False
52.76	0.5	53.409	1.5	AX	1.0	89.0	dot_pattern_expectancy	89.0	0.649	probe	AX	s577	False
54.262	0.5	54.261	0.5	AX	n/a	n/a	dot_pattern_expectancy	-1.0	n/a	cue	AX	s577	False
56.769	0.5	57.484	1.908	AX	0.0	89.0	dot_pattern_expectancy	71.0	0.715	probe	AX	s577	False
58.679	0.5	58.678	0.5	BX	n/a	n/a	dot_pattern_expectancy	-1.0	n/a	cue	BX	s577	False
61.185	0.5	61.703	2.18	BX	1.0	71.0	dot_pattern_expectancy	71.0	0.518	probe	BX	s577	False
63.366	0.5	63.365	0.5	AX	n/a	n/a	dot_pattern_expectancy	-1.0	n/a	cue	AX	s577	False
65.876	0.5	66.402	1.5	AX	1.0	89.0	dot_pattern_expectancy	89.0	0.526	probe	AX	s577	False
67.377	0.5	67.376	0.5	BY	n/a	n/a	dot_pattern_expectancy	-1.0	n/a	cue	BY	s577	False
69.884	0.5	70.425	1.908	BY	1.0	71.0	dot_pattern_expectancy	71.0	0.541	probe	BY	s577	False
71.793	0.5	71.792	0.5	BX	n/a	n/a	dot_pattern_expectancy	-1.0	n/a	cue	BX	s577	False
74.302	0.5	75.346	2.316	BX	0.0	71.0	dot_pattern_expectancy	89.0	1.044	probe	BX	s577	False
76.62	0.5	76.619	0.5	AY	n/a	n/a	dot_pattern_expectancy	-1.0	n/a	cue	AY	s577	False
79.129	0.5	80.295	2.316	AY	0.0	71.0	dot_pattern_expectancy	89.0	1.166	probe	AY	s577	False
81.451	0.5	81.45	0.5	BX	n/a	n/a	dot_pattern_expectancy	-1.0	n/a	cue	BX	s577	False
83.953	0.5	84.932	1.636	BX	1.0	71.0	dot_pattern_expectancy	71.0	0.979	probe	BX	s577	False
85.591	0.5	85.59	0.5	AY	n/a	n/a	dot_pattern_expectancy	-1.0	n/a	cue	AY	s577	False
88.1	0.5	89.05	1.5	AY	0.0	71.0	dot_pattern_expectancy	89.0	0.95	probe	AY	s577	False
89.602	0.5	89.601	0.5	BY	n/a	n/a	dot_pattern_expectancy	-1.0	n/a	cue	BY	s577	False
92.108	0.5	93.146	1.908	BY	1.0	71.0	dot_pattern_expectancy	71.0	1.038	probe	BY	s577	False
94.018	0.5	94.017	0.5	AX	n/a	n/a	dot_pattern_expectancy	-1.0	n/a	cue	AX	s577	False
96.527	0.5	97.152	1.5	AX	0.0	89.0	dot_pattern_expectancy	71.0	0.625	probe	AX	s577	False
98.029	0.5	98.028	0.5	AY	n/a	n/a	dot_pattern_expectancy	-1.0	n/a	cue	AY	s577	False
100.538	0.5	101.362	2.316	AY	1.0	71.0	dot_pattern_expectancy	71.0	0.824	probe	AY	s577	False
102.856	0.5	102.855	0.5	AX	n/a	n/a	dot_pattern_expectancy	-1.0	n/a	cue	AX	s577	False
105.363	0.5	105.826	1.5	AX	1.0	89.0	dot_pattern_expectancy	89.0	0.463	probe	AX	s577	False
106.869	0.5	106.868	0.5	AY	n/a	n/a	dot_pattern_expectancy	-1.0	n/a	cue	AY	s577	False
109.373	0.5	109.959	2.724	AY	1.0	71.0	dot_pattern_expectancy	71.0	0.586	probe	AY	s577	False
112.099	0.5	112.098	0.5	AX	n/a	n/a	dot_pattern_expectancy	-1.0	n/a	cue	AX	s577	False
114.61	0.5	115.319	1.5	AX	1.0	89.0	dot_pattern_expectancy	89.0	0.709	probe	AX	s577	False
116.115	0.5	116.114	0.5	AX	n/a	n/a	dot_pattern_expectancy	-1.0	n/a	cue	AX	s577	False
118.624	0.5	118.623	1.636	AX	0.0	89.0	dot_pattern_expectancy	-1.0	n/a	probe	AX	s577	False
120.264	0.5	120.263	0.5	AX	n/a	n/a	dot_pattern_expectancy	-1.0	n/a	cue	AX	s577	False
122.771	0.5	123.481	1.636	AX	1.0	89.0	dot_pattern_expectancy	89.0	0.71	probe	AX	s577	False
124.408	0.5	124.407	0.5	AX	n/a	n/a	dot_pattern_expectancy	-1.0	n/a	cue	AX	s577	False
126.918	0.5	127.58	1.772	AX	1.0	89.0	dot_pattern_expectancy	89.0	0.662	probe	AX	s577	False
128.691	0.5	128.69	0.5	BY	n/a	n/a	dot_pattern_expectancy	-1.0	n/a	cue	BY	s577	False
131.2	0.5	131.509	1.772	BY	1.0	71.0	dot_pattern_expectancy	71.0	0.309	probe	BY	s577	False
132.974	0.5	132.973	0.5	AX	n/a	n/a	dot_pattern_expectancy	-1.0	n/a	cue	AX	s577	False
135.483	0.5	136.074	1.5	AX	1.0	89.0	dot_pattern_expectancy	89.0	0.591	probe	AX	s577	False
136.985	0.5	136.984	0.5	BY	n/a	n/a	dot_pattern_expectancy	-1.0	n/a	cue	BY	s577	False
139.491	0.5	140.15	2.452	BY	1.0	71.0	dot_pattern_expectancy	71.0	0.659	probe	BY	s577	False
141.95	0.5	141.949	0.5	AX	n/a	n/a	dot_pattern_expectancy	-1.0	n/a	cue	AX	s577	False
144.457	0.5	145.118	1.636	AX	1.0	89.0	dot_pattern_expectancy	89.0	0.661	probe	AX	s577	False
146.098	0.5	146.097	0.5	AX	n/a	n/a	dot_pattern_expectancy	-1.0	n/a	cue	AX	s577	False
148.601	0.5	148.6	1.636	AX	0.0	89.0	dot_pattern_expectancy	-1.0	n/a	probe	AX	s577	False
150.238	0.5	150.237	0.5	BX	n/a	n/a	dot_pattern_expectancy	-1.0	n/a	cue	BX	s577	False
152.75	0.5	153.298	1.5	BX	1.0	71.0	dot_pattern_expectancy	71.0	0.548	probe	BX	s577	False
154.255	0.5	154.254	0.5	BX	n/a	n/a	dot_pattern_expectancy	-1.0	n/a	cue	BX	s577	False
156.764	0.5	157.326	1.5	BX	1.0	71.0	dot_pattern_expectancy	71.0	0.562	probe	BX	s577	False
158.265	0.5	158.264	0.5	AX	n/a	n/a	dot_pattern_expectancy	-1.0	n/a	cue	AX	s577	False
160.775	0.5	161.887	2.316	AX	1.0	89.0	dot_pattern_expectancy	89.0	1.112	probe	AX	s577	False
163.092	0.5	163.091	0.5	AY	n/a	n/a	dot_pattern_expectancy	-1.0	n/a	cue	AY	s577	False
165.602	0.5	166.602	2.044	AY	1.0	71.0	dot_pattern_expectancy	71.0	1.0	probe	AY	s577	False
167.647	0.5	167.646	0.5	AX	n/a	n/a	dot_pattern_expectancy	-1.0	n/a	cue	AX	s577	False
170.154	0.5	171.863	3.948	AX	0.0	89.0	dot_pattern_expectancy	71.0	1.709	probe	AX	s577	False
174.106	0.5	174.105	0.5	AX	n/a	n/a	dot_pattern_expectancy	-1.0	n/a	cue	AX	s577	False
176.613	0.5	177.245	1.636	AX	0.0	89.0	dot_pattern_expectancy	71.0	0.632	probe	AX	s577	False
188.765	0.5	188.764	0.5	AY	n/a	n/a	dot_pattern_expectancy	-1.0	n/a	cue	AY	s577	False
191.269	0.5	192.398	1.636	AY	0.0	71.0	dot_pattern_expectancy	89.0	1.129	probe	AY	s577	False
192.907	0.5	192.906	0.5	AX	n/a	n/a	dot_pattern_expectancy	-1.0	n/a	cue	AX	s577	False
195.413	0.5	196.072	1.636	AX	1.0	89.0	dot_pattern_expectancy	89.0	0.659	probe	AX	s577	False
197.051	0.5	197.05	0.5	AX	n/a	n/a	dot_pattern_expectancy	-1.0	n/a	cue	AX	s577	False
199.562	0.5	200.275	1.5	AX	1.0	89.0	dot_pattern_expectancy	89.0	0.713	probe	AX	s577	False
201.067	0.5	201.066	0.5	AX	n/a	n/a	dot_pattern_expectancy	-1.0	n/a	cue	AX	s577	False
203.576	0.5	204.34	1.5	AX	1.0	89.0	dot_pattern_expectancy	89.0	0.764	probe	AX	s577	False
205.078	0.5	205.077	0.5	AX	n/a	n/a	dot_pattern_expectancy	-1.0	n/a	cue	AX	s577	False
207.59	0.5	208.253	1.908	AX	1.0	89.0	dot_pattern_expectancy	89.0	0.663	probe	AX	s577	False
209.499	0.5	209.498	0.5	BX	n/a	n/a	dot_pattern_expectancy	-1.0	n/a	cue	BX	s577	False
212.006	0.5	212.413	1.636	BX	1.0	71.0	dot_pattern_expectancy	71.0	0.407	probe	BX	s577	False
213.645	0.5	213.644	0.5	AX	n/a	n/a	dot_pattern_expectancy	-1.0	n/a	cue	AX	s577	False
216.153	0.5	216.824	2.044	AX	1.0	89.0	dot_pattern_expectancy	89.0	0.671	probe	AX	s577	False
218.198	0.5	218.197	0.5	AX	n/a	n/a	dot_pattern_expectancy	-1.0	n/a	cue	AX	s577	False
220.706	0.5	221.256	1.772	AX	1.0	89.0	dot_pattern_expectancy	89.0	0.55	probe	AX	s577	False
222.481	0.5	222.48	0.5	AX	n/a	n/a	dot_pattern_expectancy	-1.0	n/a	cue	AX	s577	False
224.99	0.5	225.601	1.5	AX	1.0	89.0	dot_pattern_expectancy	89.0	0.611	probe	AX	s577	False
226.492	0.5	226.491	0.5	AX	n/a	n/a	dot_pattern_expectancy	-1.0	n/a	cue	AX	s577	False
228.998	0.5	229.381	2.18	AX	1.0	89.0	dot_pattern_expectancy	89.0	0.383	probe	AX	s577	False
231.182	0.5	231.181	0.5	AX	n/a	n/a	dot_pattern_expectancy	-1.0	n/a	cue	AX	s577	False
233.689	0.5	234.196	1.5	AX	1.0	89.0	dot_pattern_expectancy	89.0	0.507	probe	AX	s577	False
235.191	0.5	235.19	0.5	BX	n/a	n/a	dot_pattern_expectancy	-1.0	n/a	cue	BX	s577	False
237.7	0.5	238.233	3.676	BX	1.0	71.0	dot_pattern_expectancy	71.0	0.533	probe	BX	s577	False
241.378	0.5	241.377	0.5	BY	n/a	n/a	dot_pattern_expectancy	-1.0	n/a	cue	BY	s577	False
243.884	0.5	245.162	1.636	BY	1.0	71.0	dot_pattern_expectancy	71.0	1.278	probe	BY	s577	False
245.522	0.5	245.521	0.5	BY	n/a	n/a	dot_pattern_expectancy	-1.0	n/a	cue	BY	s577	False
248.028	0.5	248.551	1.636	BY	1.0	71.0	dot_pattern_expectancy	71.0	0.523	probe	BY	s577	False
249.666	0.5	249.665	0.5	BX	n/a	n/a	dot_pattern_expectancy	-1.0	n/a	cue	BX	s577	False
252.175	0.5	252.558	1.5	BX	1.0	71.0	dot_pattern_expectancy	71.0	0.383	probe	BX	s577	False
253.68	0.5	253.679	0.5	AX	n/a	n/a	dot_pattern_expectancy	-1.0	n/a	cue	AX	s577	False
256.189	0.5	257.079	1.908	AX	0.0	89.0	dot_pattern_expectancy	71.0	0.89	probe	AX	s577	False
258.098	0.5	258.097	0.5	AX	n/a	n/a	dot_pattern_expectancy	-1.0	n/a	cue	AX	s577	False
260.605	0.5	261.916	1.636	AX	0.0	89.0	dot_pattern_expectancy	71.0	1.311	probe	AX	s577	False
262.242	0.5	262.241	0.5	BX	n/a	n/a	dot_pattern_expectancy	-1.0	n/a	cue	BX	s577	False
264.752	0.5	265.772	1.5	BX	1.0	71.0	dot_pattern_expectancy	71.0	1.02	probe	BX	s577	False
266.253	0.5	266.252	0.5	AX	n/a	n/a	dot_pattern_expectancy	-1.0	n/a	cue	AX	s577	False
268.76	0.5	269.165	1.908	AX	1.0	89.0	dot_pattern_expectancy	89.0	0.405	probe	AX	s577	False
270.669	0.5	270.668	0.5	BY	n/a	n/a	dot_pattern_expectancy	-1.0	n/a	cue	BY	s577	False
273.176	0.5	273.612	2.18	BY	1.0	71.0	dot_pattern_expectancy	71.0	0.436	probe	BY	s577	False
275.357	0.5	275.356	0.5	AX	n/a	n/a	dot_pattern_expectancy	-1.0	n/a	cue	AX	s577	False
277.867	0.5	278.917	1.772	AX	1.0	89.0	dot_pattern_expectancy	89.0	1.05	probe	AX	s577	False
279.64	0.5	279.639	0.5	AX	n/a	n/a	dot_pattern_expectancy	-1.0	n/a	cue	AX	s577	False
282.149	0.5	283.315	1.5	AX	1.0	89.0	dot_pattern_expectancy	89.0	1.166	probe	AX	s577	False
283.651	0.5	283.65	0.5	AX	n/a	n/a	dot_pattern_expectancy	-1.0	n/a	cue	AX	s577	False
286.159	0.5	286.158	1.5	AX	0.0	89.0	dot_pattern_expectancy	-1.0	n/a	probe	AX	s577	False
287.662	0.5	287.661	0.5	AX	n/a	n/a	dot_pattern_expectancy	-1.0	n/a	cue	AX	s577	False
290.171	0.5	291.894	2.044	AX	1.0	89.0	dot_pattern_expectancy	89.0	1.723	probe	AX	s577	False
292.217	0.5	292.216	0.5	AX	n/a	n/a	dot_pattern_expectancy	-1.0	n/a	cue	AX	s577	False
294.726	0.5	295.512	2.86	AX	1.0	89.0	dot_pattern_expectancy	89.0	0.786	probe	AX	s577	False
297.587	0.5	297.586	0.5	BX	n/a	n/a	dot_pattern_expectancy	-1.0	n/a	cue	BX	s577	False
300.099	0.5	300.977	1.5	BX	1.0	71.0	dot_pattern_expectancy	71.0	0.878	probe	BX	s577	False
301.604	0.5	301.603	0.5	BY	n/a	n/a	dot_pattern_expectancy	-1.0	n/a	cue	BY	s577	False
304.113	0.5	304.529	1.772	BY	1.0	71.0	dot_pattern_expectancy	71.0	0.416	probe	BY	s577	False
305.886	0.5	305.885	0.5	AX	n/a	n/a	dot_pattern_expectancy	-1.0	n/a	cue	AX	s577	False
308.397	0.5	308.872	1.772	AX	0.0	89.0	dot_pattern_expectancy	71.0	0.475	probe	AX	s577	False
310.175	0.5	310.174	0.5	AX	n/a	n/a	dot_pattern_expectancy	-1.0	n/a	cue	AX	s577	False
312.682	0.5	312.681	2.86	AX	0.0	89.0	dot_pattern_expectancy	-1.0	n/a	probe	AX	s577	False
315.545	0.5	315.544	0.5	AX	n/a	n/a	dot_pattern_expectancy	-1.0	n/a	cue	AX	s577	False
318.055	0.5	318.756	1.772	AX	1.0	89.0	dot_pattern_expectancy	89.0	0.701	probe	AX	s577	False
319.828	0.5	319.827	0.5	BX	n/a	n/a	dot_pattern_expectancy	-1.0	n/a	cue	BX	s577	False
322.335	0.5	323.668	1.636	BX	1.0	71.0	dot_pattern_expectancy	71.0	1.333	probe	BX	s577	False
323.972	0.5	323.971	0.5	BX	n/a	n/a	dot_pattern_expectancy	-1.0	n/a	cue	BX	s577	False
326.479	0.5	326.478	2.452	BX	0.0	71.0	dot_pattern_expectancy	-1.0	n/a	probe	BX	s577	False
328.933	0.5	328.932	0.5	AX	n/a	n/a	dot_pattern_expectancy	-1.0	n/a	cue	AX	s577	False
331.439	0.5	332.629	1.636	AX	0.0	89.0	dot_pattern_expectancy	71.0	1.19	probe	AX	s577	False
333.077	0.5	333.076	0.5	BX	n/a	n/a	dot_pattern_expectancy	-1.0	n/a	cue	BX	s577	False
335.586	0.5	336.717	1.5	BX	1.0	71.0	dot_pattern_expectancy	71.0	1.131	probe	BX	s577	False
337.088	0.5	337.087	0.5	AX	n/a	n/a	dot_pattern_expectancy	-1.0	n/a	cue	AX	s577	False
339.594	0.5	340.217	1.636	AX	1.0	89.0	dot_pattern_expectancy	89.0	0.623	probe	AX	s577	False
341.232	0.5	341.231	0.5	AX	n/a	n/a	dot_pattern_expectancy	-1.0	n/a	cue	AX	s577	False
343.738	0.5	344.395	1.636	AX	1.0	89.0	dot_pattern_expectancy	89.0	0.657	probe	AX	s577	False
345.376	0.5	345.375	0.5	BY	n/a	n/a	dot_pattern_expectancy	-1.0	n/a	cue	BY	s577	False
347.883	0.5	347.882	2.18	BY	0.0	71.0	dot_pattern_expectancy	-1.0	n/a	probe	BY	s577	False
350.064	0.5	350.063	0.5	AX	n/a	n/a	dot_pattern_expectancy	-1.0	n/a	cue	AX	s577	False
352.573	0.5	353.677	1.5	AX	0.0	89.0	dot_pattern_expectancy	71.0	1.104	probe	AX	s577	False
354.075	0.5	354.074	0.5	AY	n/a	n/a	dot_pattern_expectancy	-1.0	n/a	cue	AY	s577	False
356.581	0.5	357.478	1.636	AY	1.0	71.0	dot_pattern_expectancy	71.0	0.897	probe	AY	s577	False
358.219	0.5	358.218	0.5	AX	n/a	n/a	dot_pattern_expectancy	-1.0	n/a	cue	AX	s577	False
360.726	0.5	360.725	1.636	AX	0.0	89.0	dot_pattern_expectancy	-1.0	n/a	probe	AX	s577	False
372.878	0.5	372.877	0.5	AX	n/a	n/a	dot_pattern_expectancy	-1.0	n/a	cue	AX	s577	False
375.382	0.5	376.119	2.18	AX	1.0	89.0	dot_pattern_expectancy	89.0	0.737	probe	AX	s577	False
377.564	0.5	377.563	0.5	AY	n/a	n/a	dot_pattern_expectancy	-1.0	n/a	cue	AY	s577	False
380.073	0.5	380.752	2.316	AY	1.0	71.0	dot_pattern_expectancy	71.0	0.679	probe	AY	s577	False
382.39	0.5	382.389	0.5	AY	n/a	n/a	dot_pattern_expectancy	-1.0	n/a	cue	AY	s577	False
384.897	0.5	385.759	1.636	AY	1.0	71.0	dot_pattern_expectancy	71.0	0.862	probe	AY	s577	False
386.535	0.5	386.534	0.5	BX	n/a	n/a	dot_pattern_expectancy	-1.0	n/a	cue	BX	s577	False
389.041	0.5	389.676	1.908	BX	1.0	71.0	dot_pattern_expectancy	71.0	0.635	probe	BX	s577	False
390.951	0.5	390.95	0.5	AX	n/a	n/a	dot_pattern_expectancy	-1.0	n/a	cue	AX	s577	False
393.457	0.5	394.183	3.54	AX	0.0	89.0	dot_pattern_expectancy	71.0	0.726	probe	AX	s577	False
396.999	0.5	396.998	0.5	BX	n/a	n/a	dot_pattern_expectancy	-1.0	n/a	cue	BX	s577	False
399.505	0.5	399.94	1.636	BX	1.0	71.0	dot_pattern_expectancy	71.0	0.435	probe	BX	s577	False
401.147	0.5	401.146	0.5	BY	n/a	n/a	dot_pattern_expectancy	-1.0	n/a	cue	BY	s577	False
403.658	0.5	404.266	1.5	BY	1.0	71.0	dot_pattern_expectancy	71.0	0.608	probe	BY	s577	False
405.159	0.5	405.158	0.5	AX	n/a	n/a	dot_pattern_expectancy	-1.0	n/a	cue	AX	s577	False
407.667	0.5	408.579	1.5	AX	0.0	89.0	dot_pattern_expectancy	71.0	0.912	probe	AX	s577	False
409.17	0.5	409.169	0.5	AX	n/a	n/a	dot_pattern_expectancy	-1.0	n/a	cue	AX	s577	False
411.679	0.5	412.161	1.772	AX	1.0	89.0	dot_pattern_expectancy	89.0	0.482	probe	AX	s577	False
413.453	0.5	413.452	0.5	BY	n/a	n/a	dot_pattern_expectancy	-1.0	n/a	cue	BY	s577	False
415.959	0.5	417.246	2.452	BY	1.0	71.0	dot_pattern_expectancy	71.0	1.287	probe	BY	s577	False
418.413	0.5	418.412	0.5	AX	n/a	n/a	dot_pattern_expectancy	-1.0	n/a	cue	AX	s577	False
420.919	0.5	421.765	1.908	AX	1.0	89.0	dot_pattern_expectancy	89.0	0.846	probe	AX	s577	False
422.829	0.5	422.828	0.5	BX	n/a	n/a	dot_pattern_expectancy	-1.0	n/a	cue	BX	s577	False
425.336	0.5	426.153	1.636	BX	1.0	71.0	dot_pattern_expectancy	71.0	0.817	probe	BX	s577	False
426.973	0.5	426.972	0.5	AX	n/a	n/a	dot_pattern_expectancy	-1.0	n/a	cue	AX	s577	False
429.482	0.5	430.233	1.5	AX	0.0	89.0	dot_pattern_expectancy	71.0	0.751	probe	AX	s577	False
430.984	0.5	430.983	0.5	AX	n/a	n/a	dot_pattern_expectancy	-1.0	n/a	cue	AX	s577	False
433.491	0.5	434.041	1.636	AX	1.0	89.0	dot_pattern_expectancy	89.0	0.55	probe	AX	s577	False
435.132	0.5	435.131	0.5	AX	n/a	n/a	dot_pattern_expectancy	-1.0	n/a	cue	AX	s577	False
437.635	0.5	438.37	1.636	AX	1.0	89.0	dot_pattern_expectancy	89.0	0.735	probe	AX	s577	False
439.275	0.5	439.274	0.5	BY	n/a	n/a	dot_pattern_expectancy	-1.0	n/a	cue	BY	s577	False
441.779	0.5	442.345	2.452	BY	1.0	71.0	dot_pattern_expectancy	71.0	0.566	probe	BY	s577	False
444.232	0.5	444.231	0.5	AX	n/a	n/a	dot_pattern_expectancy	-1.0	n/a	cue	AX	s577	False
446.742	0.5	447.266	1.5	AX	1.0	89.0	dot_pattern_expectancy	89.0	0.524	probe	AX	s577	False
448.249	0.5	448.248	0.5	BY	n/a	n/a	dot_pattern_expectancy	-1.0	n/a	cue	BY	s577	False
450.758	0.5	450.757	1.5	BY	0.0	71.0	dot_pattern_expectancy	-1.0	n/a	probe	BY	s577	False
452.259	0.5	452.258	0.5	AX	n/a	n/a	dot_pattern_expectancy	-1.0	n/a	cue	AX	s577	False
454.766	0.5	455.886	1.636	AX	1.0	89.0	dot_pattern_expectancy	89.0	1.12	probe	AX	s577	False
456.404	0.5	456.403	0.5	AX	n/a	n/a	dot_pattern_expectancy	-1.0	n/a	cue	AX	s577	False
458.91	0.5	459.663	1.636	AX	1.0	89.0	dot_pattern_expectancy	89.0	0.753	probe	AX	s577	False
460.548	0.5	460.547	0.5	AY	n/a	n/a	dot_pattern_expectancy	-1.0	n/a	cue	AY	s577	False
463.06	0.5	463.79	1.636	AY	0.0	71.0	dot_pattern_expectancy	89.0	0.73	probe	AY	s577	False
464.699	0.5	464.698	0.5	AX	n/a	n/a	dot_pattern_expectancy	-1.0	n/a	cue	AX	s577	False
467.206	0.5	467.661	1.5	AX	1.0	89.0	dot_pattern_expectancy	89.0	0.455	probe	AX	s577	False
468.708	0.5	468.707	0.5	AX	n/a	n/a	dot_pattern_expectancy	-1.0	n/a	cue	AX	s577	False
471.217	0.5	471.959	1.5	AX	1.0	89.0	dot_pattern_expectancy	89.0	0.742	probe	AX	s577	False
472.719	0.5	472.718	0.5	AX	n/a	n/a	dot_pattern_expectancy	-1.0	n/a	cue	AX	s577	False
475.228	0.5	476.018	1.772	AX	0.0	89.0	dot_pattern_expectancy	71.0	0.79	probe	AX	s577	False
477.002	0.5	477.001	0.5	AX	n/a	n/a	dot_pattern_expectancy	-1.0	n/a	cue	AX	s577	False
479.508	0.5	480.912	2.18	AX	1.0	89.0	dot_pattern_expectancy	89.0	1.404	probe	AX	s577	False
481.69	0.5	481.689	0.5	BX	n/a	n/a	dot_pattern_expectancy	-1.0	n/a	cue	BX	s577	False
484.199	0.5	484.542	1.772	BX	1.0	71.0	dot_pattern_expectancy	71.0	0.343	probe	BX	s577	False
485.973	0.5	485.972	0.5	BY	n/a	n/a	dot_pattern_expectancy	-1.0	n/a	cue	BY	s577	False
488.484	0.5	489.417	1.5	BY	1.0	71.0	dot_pattern_expectancy	71.0	0.933	probe	BY	s577	False
489.989	0.5	489.988	0.5	AX	n/a	n/a	dot_pattern_expectancy	-1.0	n/a	cue	AX	s577	False
492.498	0.5	493.315	1.5	AX	1.0	89.0	dot_pattern_expectancy	89.0	0.817	probe	AX	s577	False
493.999	0.5	493.998	0.5	AX	n/a	n/a	dot_pattern_expectancy	-1.0	n/a	cue	AX	s577	False
496.51	0.5	497.482	1.636	AX	0.0	89.0	dot_pattern_expectancy	71.0	0.972	probe	AX	s577	False
498.149	0.5	498.148	0.5	AY	n/a	n/a	dot_pattern_expectancy	-1.0	n/a	cue	AY	s577	False
500.656	0.5	501.812	2.18	AY	0.0	71.0	dot_pattern_expectancy	89.0	1.156	probe	AY	s577	False
502.837	0.5	502.836	0.5	AY	n/a	n/a	dot_pattern_expectancy	-1.0	n/a	cue	AY	s577	False
505.346	0.5	505.345	2.316	AY	0.0	71.0	dot_pattern_expectancy	-1.0	n/a	probe	AY	s577	False
507.664	0.5	507.663	0.5	BX	n/a	n/a	dot_pattern_expectancy	-1.0	n/a	cue	BX	s577	False
510.176	0.5	510.648	1.636	BX	1.0	71.0	dot_pattern_expectancy	71.0	0.472	probe	BX	s577	False
511.813	0.5	511.812	0.5	BX	n/a	n/a	dot_pattern_expectancy	-1.0	n/a	cue	BX	s577	False
514.324	0.5	514.983	2.18	BX	1.0	71.0	dot_pattern_expectancy	71.0	0.659	probe	BX	s577	False
516.51	0.5	516.509	0.5	AY	n/a	n/a	dot_pattern_expectancy	-1.0	n/a	cue	AY	s577	False
519.016	0.5	520.589	2.044	AY	1.0	71.0	dot_pattern_expectancy	71.0	1.573	probe	AY	s577	False
521.062	0.5	521.061	0.5	AX	n/a	n/a	dot_pattern_expectancy	-1.0	n/a	cue	AX	s577	False
523.571	0.5	524.519	1.772	AX	1.0	89.0	dot_pattern_expectancy	89.0	0.948	probe	AX	s577	False
525.344	0.5	525.343	0.5	AX	n/a	n/a	dot_pattern_expectancy	-1.0	n/a	cue	AX	s577	False
527.854	0.5	527.853	1.5	AX	0.0	89.0	dot_pattern_expectancy	-1.0	n/a	probe	AX	s577	False
529.355	0.5	529.354	0.5	AX	n/a	n/a	dot_pattern_expectancy	-1.0	n/a	cue	AX	s577	False
531.862	0.5	532.722	2.18	AX	1.0	89.0	dot_pattern_expectancy	89.0	0.86	probe	AX	s577	False
534.044	0.5	534.043	0.5	AY	n/a	n/a	dot_pattern_expectancy	-1.0	n/a	cue	AY	s577	False
536.55	0.5	537.385	2.452	AY	1.0	71.0	dot_pattern_expectancy	71.0	0.835	probe	AY	s577	False
539.004	0.5	539.003	0.5	AX	n/a	n/a	dot_pattern_expectancy	-1.0	n/a	cue	AX	s577	False
541.51	0.5	542.14	1.636	AX	1.0	89.0	dot_pattern_expectancy	89.0	0.63	probe	AX	s577	False
543.148	0.5	543.147	0.5	AX	n/a	n/a	dot_pattern_expectancy	-1.0	n/a	cue	AX	s577	False
545.654	0.5	546.25	1.908	AX	1.0	89.0	dot_pattern_expectancy	89.0	0.596	probe	AX	s577	False
558.079	0.5	558.078	0.5	AX	n/a	n/a	dot_pattern_expectancy	-1.0	n/a	cue	AX	s577	False
560.586	0.5	560.585	1.772	AX	0.0	89.0	dot_pattern_expectancy	-1.0	n/a	probe	AX	s577	False
562.359	0.5	562.358	0.5	AX	n/a	n/a	dot_pattern_expectancy	-1.0	n/a	cue	AX	s577	False
564.868	0.5	566.361	1.5	AX	0.0	89.0	dot_pattern_expectancy	71.0	1.493	probe	AX	s577	False
566.37	0.5	566.369	0.5	AY	n/a	n/a	dot_pattern_expectancy	-1.0	n/a	cue	AY	s577	False
568.877	0.5	569.877	2.452	AY	1.0	71.0	dot_pattern_expectancy	71.0	1.0	probe	AY	s577	False
571.33	0.5	571.329	0.5	AY	n/a	n/a	dot_pattern_expectancy	-1.0	n/a	cue	AY	s577	False
573.839	0.5	574.579	1.772	AY	1.0	71.0	dot_pattern_expectancy	71.0	0.74	probe	AY	s577	False
575.617	0.5	575.616	0.5	AX	n/a	n/a	dot_pattern_expectancy	-1.0	n/a	cue	AX	s577	False
578.12	0.5	579.049	1.908	AX	1.0	89.0	dot_pattern_expectancy	89.0	0.929	probe	AX	s577	False
580.029	0.5	580.028	0.5	AX	n/a	n/a	dot_pattern_expectancy	-1.0	n/a	cue	AX	s577	False
582.536	0.5	583.417	1.908	AX	0.0	89.0	dot_pattern_expectancy	71.0	0.881	probe	AX	s577	False
584.445	0.5	584.444	0.5	AX	n/a	n/a	dot_pattern_expectancy	-1.0	n/a	cue	AX	s577	False
586.955	0.5	587.574	2.588	AX	1.0	89.0	dot_pattern_expectancy	89.0	0.619	probe	AX	s577	False
589.544	0.5	589.543	0.5	AY	n/a	n/a	dot_pattern_expectancy	-1.0	n/a	cue	AY	s577	False
592.056	0.5	592.759	1.5	AY	1.0	71.0	dot_pattern_expectancy	71.0	0.703	probe	AY	s577	False
593.56	0.5	593.559	0.5	BY	n/a	n/a	dot_pattern_expectancy	-1.0	n/a	cue	BY	s577	False
596.064	0.5	596.715	1.5	BY	1.0	71.0	dot_pattern_expectancy	71.0	0.651	probe	BY	s577	False
597.566	0.5	597.565	0.5	BY	n/a	n/a	dot_pattern_expectancy	-1.0	n/a	cue	BY	s577	False
600.076	0.5	600.946	1.5	BY	1.0	71.0	dot_pattern_expectancy	71.0	0.87	probe	BY	s577	False
601.582	0.5	601.581	0.5	AX	n/a	n/a	dot_pattern_expectancy	-1.0	n/a	cue	AX	s577	False
604.089	0.5	605.155	1.636	AX	0.0	89.0	dot_pattern_expectancy	71.0	1.066	probe	AX	s577	False
605.726	0.5	605.725	0.5	BX	n/a	n/a	dot_pattern_expectancy	-1.0	n/a	cue	BX	s577	False
608.235	0.5	608.655	2.044	BX	1.0	71.0	dot_pattern_expectancy	71.0	0.42	probe	BX	s577	False
610.281	0.5	610.28	0.5	AX	n/a	n/a	dot_pattern_expectancy	-1.0	n/a	cue	AX	s577	False
612.789	0.5	614.115	1.772	AX	1.0	89.0	dot_pattern_expectancy	89.0	1.326	probe	AX	s577	False
614.564	0.5	614.563	0.5	BX	n/a	n/a	dot_pattern_expectancy	-1.0	n/a	cue	BX	s577	False
617.073	0.5	618.035	2.588	BX	1.0	71.0	dot_pattern_expectancy	71.0	0.962	probe	BX	s577	False
619.663	0.5	619.662	0.5	AY	n/a	n/a	dot_pattern_expectancy	-1.0	n/a	cue	AY	s577	False
622.172	0.5	622.958	1.5	AY	1.0	71.0	dot_pattern_expectancy	71.0	0.786	probe	AY	s577	False
623.674	0.5	623.673	0.5	AX	n/a	n/a	dot_pattern_expectancy	-1.0	n/a	cue	AX	s577	False
626.18	0.5	626.179	2.452	AX	0.0	89.0	dot_pattern_expectancy	-1.0	n/a	probe	AX	s577	False
628.634	0.5	628.633	0.5	BY	n/a	n/a	dot_pattern_expectancy	-1.0	n/a	cue	BY	s577	False
631.14	0.5	631.431	1.636	BY	1.0	71.0	dot_pattern_expectancy	71.0	0.291	probe	BY	s577	False
632.778	0.5	632.777	0.5	AX	n/a	n/a	dot_pattern_expectancy	-1.0	n/a	cue	AX	s577	False
635.288	0.5	636.427	1.636	AX	1.0	89.0	dot_pattern_expectancy	89.0	1.139	probe	AX	s577	False
636.927	0.5	636.926	0.5	AX	n/a	n/a	dot_pattern_expectancy	-1.0	n/a	cue	AX	s577	False
639.436	0.5	640.222	1.5	AX	0.0	89.0	dot_pattern_expectancy	71.0	0.786	probe	AX	s577	False
640.938	0.5	640.937	0.5	BY	n/a	n/a	dot_pattern_expectancy	-1.0	n/a	cue	BY	s577	False
643.445	0.5	643.444	1.636	BY	0.0	71.0	dot_pattern_expectancy	-1.0	n/a	probe	BY	s577	False
645.082	0.5	645.081	0.5	AX	n/a	n/a	dot_pattern_expectancy	-1.0	n/a	cue	AX	s577	False
647.591	0.5	648.999	1.5	AX	0.0	89.0	dot_pattern_expectancy	71.0	1.408	probe	AX	s577	False
649.093	0.5	649.092	0.5	AY	n/a	n/a	dot_pattern_expectancy	-1.0	n/a	cue	AY	s577	False
651.599	0.5	652.373	2.18	AY	1.0	71.0	dot_pattern_expectancy	71.0	0.774	probe	AY	s577	False
653.781	0.5	653.78	0.5	AX	n/a	n/a	dot_pattern_expectancy	-1.0	n/a	cue	AX	s577	False
656.29	0.5	656.75	1.5	AX	1.0	89.0	dot_pattern_expectancy	89.0	0.46	probe	AX	s577	False
657.792	0.5	657.791	0.5	AX	n/a	n/a	dot_pattern_expectancy	-1.0	n/a	cue	AX	s577	False
660.299	0.5	661.267	1.908	AX	1.0	89.0	dot_pattern_expectancy	89.0	0.968	probe	AX	s577	False
662.208	0.5	662.207	0.5	BY	n/a	n/a	dot_pattern_expectancy	-1.0	n/a	cue	BY	s577	False
664.715	0.5	665.252	1.636	BY	1.0	71.0	dot_pattern_expectancy	71.0	0.537	probe	BY	s577	False
666.356	0.5	666.355	0.5	BY	n/a	n/a	dot_pattern_expectancy	-1.0	n/a	cue	BY	s577	False
668.864	0.5	668.863	1.636	BY	0.0	71.0	dot_pattern_expectancy	-1.0	n/a	probe	BY	s577	False
670.501	0.5	670.5	0.5	AX	n/a	n/a	dot_pattern_expectancy	-1.0	n/a	cue	AX	s577	False
673.008	0.5	674.182	1.636	AX	1.0	89.0	dot_pattern_expectancy	89.0	1.174	probe	AX	s577	False
674.646	0.5	674.645	0.5	AX	n/a	n/a	dot_pattern_expectancy	-1.0	n/a	cue	AX	s577	False
677.155	0.5	677.772	1.5	AX	1.0	89.0	dot_pattern_expectancy	89.0	0.617	probe	AX	s577	False
678.656	0.5	678.655	0.5	BY	n/a	n/a	dot_pattern_expectancy	-1.0	n/a	cue	BY	s577	False
681.166	0.5	681.165	2.044	BY	0.0	71.0	dot_pattern_expectancy	-1.0	n/a	probe	BY	s577	False
683.216	0.5	683.215	0.5	AY	n/a	n/a	dot_pattern_expectancy	-1.0	n/a	cue	AY	s577	False
685.723	0.5	686.576	2.18	AY	1.0	71.0	dot_pattern_expectancy	71.0	0.853	probe	AY	s577	False
687.905	0.5	687.904	0.5	AY	n/a	n/a	dot_pattern_expectancy	-1.0	n/a	cue	AY	s577	False
690.412	0.5	691.226	1.636	AY	0.0	71.0	dot_pattern_expectancy	89.0	0.814	probe	AY	s577	False
692.049	0.5	692.048	0.5	AY	n/a	n/a	dot_pattern_expectancy	-1.0	n/a	cue	AY	s577	False
694.558	0.5	695.553	1.772	AY	1.0	71.0	dot_pattern_expectancy	71.0	0.995	probe	AY	s577	False
696.332	0.5	696.331	0.5	BY	n/a	n/a	dot_pattern_expectancy	-1.0	n/a	cue	BY	s577	False
698.843	0.5	698.842	1.5	BY	0.0	71.0	dot_pattern_expectancy	-1.0	n/a	probe	BY	s577	False
700.348	0.5	700.347	0.5	BX	n/a	n/a	dot_pattern_expectancy	-1.0	n/a	cue	BX	s577	False
702.858	0.5	704.094	1.908	BX	1.0	71.0	dot_pattern_expectancy	71.0	1.236	probe	BX	s577	False
704.769	0.5	704.768	0.5	AX	n/a	n/a	dot_pattern_expectancy	-1.0	n/a	cue	AX	s577	False
707.279	0.5	708.472	2.044	AX	0.0	89.0	dot_pattern_expectancy	71.0	1.193	probe	AX	s577	False
709.324	0.5	709.323	0.5	AX	n/a	n/a	dot_pattern_expectancy	-1.0	n/a	cue	AX	s577	False
711.831	0.5	712.775	1.636	AX	1.0	89.0	dot_pattern_expectancy	89.0	0.944	probe	AX	s577	False
713.468	0.5	713.467	0.5	AX	n/a	n/a	dot_pattern_expectancy	-1.0	n/a	cue	AX	s577	False
715.978	0.5	716.559	1.772	AX	1.0	89.0	dot_pattern_expectancy	89.0	0.581	probe	AX	s577	False
717.751	0.5	717.75	0.5	AX	n/a	n/a	dot_pattern_expectancy	-1.0	n/a	cue	AX	s577	False
720.258	0.5	721.315	1.636	AX	1.0	89.0	dot_pattern_expectancy	89.0	1.057	probe	AX	s577	False
721.895	0.5	721.894	0.5	BX	n/a	n/a	dot_pattern_expectancy	-1.0	n/a	cue	BX	s577	False
724.405	0.5	725.298	1.772	BX	1.0	71.0	dot_pattern_expectancy	71.0	0.893	probe	BX	s577	False
726.178	0.5	726.177	0.5	AX	n/a	n/a	dot_pattern_expectancy	-1.0	n/a	cue	AX	s577	False
728.687	0.5	729.32	1.5	AX	1.0	89.0	dot_pattern_expectancy	89.0	0.633	probe	AX	s577	False
