onset	duration	movement_onset	CTI	block_duration	correct	correct_response	cue	cue_switch	experiment_exp_id	key_press	response_time	stim_color	stim_number	switch_type	task	task_switch	trial_id	trial_type	worker_id	first_trial_of_block	junk
3.622	1.0	5.095	0.1	3.224	True	89.0	Orange-Blue	stay	twobytwo	89.0	1.373	blue	6.0	cue_stay	color	stay	stim	poldrack-single-stim	s577	1	False
7.756	1.0	9.252	0.9	2.408	True	89.0	Magnitude	n/a	twobytwo	89.0	0.596	orange	3.0	task_switch	magnitude	switch	stim	poldrack-single-stim	s577	0	False
11.07	1.0	12.532	0.9	2.816	False	89.0	Orange-Blue	n/a	twobytwo	71.0	0.562	blue	7.0	task_switch	color	switch	stim	poldrack-single-stim	s577	0	False
13.99	1.0	14.723	0.1	2.408	True	89.0	Magnitude	n/a	twobytwo	89.0	0.633	orange	2.0	task_switch	magnitude	switch	stim	poldrack-single-stim	s577	0	False
16.506	1.0	17.305	0.1	2.136	True	89.0	Orange-Blue	n/a	twobytwo	89.0	0.699	blue	8.0	task_switch	color	switch	stim	poldrack-single-stim	s577	0	False
18.753	1.0	19.618	0.1	2.136	True	89.0	Orange-Blue	stay	twobytwo	89.0	0.765	blue	3.0	cue_stay	color	stay	stim	poldrack-single-stim	s577	0	False
21.795	1.0	23.152	0.9	2.0	True	89.0	Color	switch	twobytwo	89.0	0.457	blue	6.0	cue_switch	color	stay	stim	poldrack-single-stim	s577	0	False
24.703	1.0	26.005	0.9	2.0	True	71.0	Orange-Blue	switch	twobytwo	71.0	0.402	orange	7.0	cue_switch	color	stay	stim	poldrack-single-stim	s577	0	False
27.61	1.0	29.085	0.9	2.272	True	71.0	High-Low	n/a	twobytwo	71.0	0.575	orange	6.0	task_switch	magnitude	switch	stim	poldrack-single-stim	s577	0	False
29.991	1.0	31.45	0.1	2.408	True	71.0	Orange-Blue	n/a	twobytwo	71.0	1.359	orange	4.0	task_switch	color	switch	stim	poldrack-single-stim	s577	0	False
32.505	1.0	33.843	0.1	2.0	False	71.0	High-Low	n/a	twobytwo	89.0	1.238	blue	8.0	task_switch	magnitude	switch	stim	poldrack-single-stim	s577	0	False
34.611	1.0	35.648	0.1	2.136	True	71.0	Magnitude	switch	twobytwo	71.0	0.937	orange	8.0	cue_switch	magnitude	stay	stim	poldrack-single-stim	s577	0	False
36.858	1.0	37.55	0.1	2.0	True	89.0	Color	n/a	twobytwo	89.0	0.592	blue	3.0	task_switch	color	switch	stim	poldrack-single-stim	s577	0	False
39.761	1.0	41.532	0.9	2.408	True	71.0	High-Low	n/a	twobytwo	71.0	0.871	blue	7.0	task_switch	magnitude	switch	stim	poldrack-single-stim	s577	0	False
42.276	1.0	43.071	0.1	2.272	True	71.0	Magnitude	switch	twobytwo	71.0	0.695	orange	6.0	cue_switch	magnitude	stay	stim	poldrack-single-stim	s577	0	False
44.655	1.0	45.516	0.1	2.0	True	89.0	Color	n/a	twobytwo	89.0	0.761	blue	2.0	task_switch	color	switch	stim	poldrack-single-stim	s577	0	False
47.562	1.0	49.193	0.9	2.272	True	89.0	Orange-Blue	switch	twobytwo	89.0	0.731	blue	1.0	cue_switch	color	stay	stim	poldrack-single-stim	s577	0	False
49.941	1.0	50.937	0.1	2.0	True	89.0	High-Low	n/a	twobytwo	89.0	0.896	blue	1.0	task_switch	magnitude	switch	stim	poldrack-single-stim	s577	0	False
52.848	1.0	54.089	0.9	2.0	True	71.0	Orange-Blue	n/a	twobytwo	71.0	0.341	orange	6.0	task_switch	color	switch	stim	poldrack-single-stim	s577	0	False
55.76	1.0	57.673	0.9	2.272	True	71.0	Orange-Blue	stay	twobytwo	71.0	1.013	orange	1.0	cue_stay	color	stay	stim	poldrack-single-stim	s577	0	False
58.144	1.0	59.219	0.1	2.136	True	71.0	Magnitude	n/a	twobytwo	71.0	0.975	orange	6.0	task_switch	magnitude	switch	stim	poldrack-single-stim	s577	0	False
60.389	1.0	61.217	0.1	2.0	True	89.0	Color	n/a	twobytwo	89.0	0.728	blue	2.0	task_switch	color	switch	stim	poldrack-single-stim	s577	0	False
62.496	1.0	63.842	0.1	2.0	True	71.0	Color	stay	twobytwo	71.0	1.246	orange	3.0	cue_stay	color	stay	stim	poldrack-single-stim	s577	0	False
64.602	1.0	65.499	0.1	2.0	True	71.0	Magnitude	n/a	twobytwo	71.0	0.797	orange	8.0	task_switch	magnitude	switch	stim	poldrack-single-stim	s577	0	False
67.509	1.0	68.949	0.9	2.0	True	71.0	High-Low	switch	twobytwo	71.0	0.54	orange	6.0	cue_switch	magnitude	stay	stim	poldrack-single-stim	s577	0	False
70.421	1.0	71.841	0.9	2.0	True	71.0	High-Low	stay	twobytwo	71.0	0.52	orange	7.0	cue_stay	magnitude	stay	stim	poldrack-single-stim	s577	0	False
73.33	1.0	74.804	0.9	2.136	True	89.0	Orange-Blue	n/a	twobytwo	89.0	0.574	blue	3.0	task_switch	color	switch	stim	poldrack-single-stim	s577	0	False
75.574	1.0	75.573	0.1	2.0	False	71.0	Orange-Blue	stay	twobytwo	-1.0	n/a	orange	7.0	cue_stay	color	stay	stim	poldrack-single-stim	s577	0	False
77.68	1.0	78.7	0.1	2.0	False	71.0	High-Low	n/a	twobytwo	89.0	0.92	blue	8.0	task_switch	magnitude	switch	stim	poldrack-single-stim	s577	0	False
80.587	1.0	82.438	0.9	2.136	True	71.0	Magnitude	switch	twobytwo	71.0	0.951	blue	9.0	cue_switch	magnitude	stay	stim	poldrack-single-stim	s577	0	False
82.832	1.0	84.004	0.1	2.0	True	71.0	High-Low	switch	twobytwo	71.0	1.072	blue	6.0	cue_switch	magnitude	stay	stim	poldrack-single-stim	s577	0	False
85.739	1.0	87.36	0.9	2.136	False	71.0	Orange-Blue	n/a	twobytwo	89.0	0.721	orange	1.0	task_switch	color	switch	stim	poldrack-single-stim	s577	0	False
88.782	1.0	90.345	0.9	2.68	True	71.0	High-Low	n/a	twobytwo	71.0	0.663	orange	7.0	task_switch	magnitude	switch	stim	poldrack-single-stim	s577	0	False
92.369	1.0	94.01	0.9	2.272	True	89.0	High-Low	stay	twobytwo	89.0	0.741	orange	1.0	cue_stay	magnitude	stay	stim	poldrack-single-stim	s577	0	False
94.746	1.0	95.61	0.1	2.136	True	71.0	High-Low	stay	twobytwo	71.0	0.764	orange	7.0	cue_stay	magnitude	stay	stim	poldrack-single-stim	s577	0	False
96.99	1.0	98.498	0.1	2.0	True	89.0	Orange-Blue	n/a	twobytwo	89.0	1.408	blue	6.0	task_switch	color	switch	stim	poldrack-single-stim	s577	0	False
99.897	1.0	101.303	0.9	2.136	True	71.0	High-Low	n/a	twobytwo	71.0	0.506	orange	9.0	task_switch	magnitude	switch	stim	poldrack-single-stim	s577	0	False
102.937	1.0	104.696	0.9	2.68	True	71.0	Color	n/a	twobytwo	71.0	0.859	orange	4.0	task_switch	color	switch	stim	poldrack-single-stim	s577	0	False
105.724	1.0	106.607	0.1	2.272	True	89.0	Magnitude	n/a	twobytwo	89.0	0.783	orange	1.0	task_switch	magnitude	switch	stim	poldrack-single-stim	s577	0	False
108.102	1.0	109.091	0.1	2.0	False	89.0	High-Low	switch	twobytwo	71.0	0.889	blue	3.0	cue_switch	magnitude	stay	stim	poldrack-single-stim	s577	0	False
110.209	1.0	111.047	0.1	2.0	True	71.0	Color	n/a	twobytwo	71.0	0.738	orange	6.0	task_switch	color	switch	stim	poldrack-single-stim	s577	0	False
112.313	1.0	113.119	0.1	2.136	True	71.0	Color	stay	twobytwo	71.0	0.706	orange	1.0	cue_stay	color	stay	stim	poldrack-single-stim	s577	0	False
115.356	1.0	116.754	0.9	2.0	True	89.0	Color	stay	twobytwo	89.0	0.498	blue	2.0	cue_stay	color	stay	stim	poldrack-single-stim	s577	0	False
117.463	1.0	118.857	0.1	2.0	True	71.0	Color	stay	twobytwo	71.0	1.294	orange	4.0	cue_stay	color	stay	stim	poldrack-single-stim	s577	0	False
119.569	1.0	120.764	0.1	2.0	True	71.0	Orange-Blue	switch	twobytwo	71.0	1.095	orange	3.0	cue_switch	color	stay	stim	poldrack-single-stim	s577	0	False
122.482	1.0	123.835	0.9	2.272	False	71.0	High-Low	n/a	twobytwo	89.0	0.453	blue	8.0	task_switch	magnitude	switch	stim	poldrack-single-stim	s577	0	False
125.658	1.0	126.93	0.9	2.408	True	89.0	Color	n/a	twobytwo	89.0	0.372	blue	8.0	task_switch	color	switch	stim	poldrack-single-stim	s577	0	False
128.172	1.0	129.158	0.1	2.0	True	71.0	Color	stay	twobytwo	71.0	0.886	orange	4.0	cue_stay	color	stay	stim	poldrack-single-stim	s577	0	False
130.279	1.0	131.294	0.1	2.0	True	71.0	Color	stay	twobytwo	71.0	0.915	orange	1.0	cue_stay	color	stay	stim	poldrack-single-stim	s577	0	False
132.386	1.0	133.598	0.1	2.0	True	71.0	High-Low	n/a	twobytwo	71.0	1.112	orange	7.0	task_switch	magnitude	switch	stim	poldrack-single-stim	s577	0	False
134.493	1.0	135.581	0.1	2.272	True	71.0	Orange-Blue	n/a	twobytwo	71.0	0.988	orange	1.0	task_switch	color	switch	stim	poldrack-single-stim	s577	0	False
136.869	1.0	138.225	0.1	2.136	True	89.0	Orange-Blue	stay	twobytwo	89.0	1.256	blue	9.0	cue_stay	color	stay	stim	poldrack-single-stim	s577	0	False
139.911	1.0	142.007	0.9	2.0	False	89.0	Magnitude	n/a	twobytwo	71.0	1.196	blue	2.0	task_switch	magnitude	switch	stim	poldrack-single-stim	s577	0	False
142.02	1.0	143.365	0.1	2.544	True	71.0	High-Low	switch	twobytwo	71.0	1.245	blue	8.0	cue_switch	magnitude	stay	stim	poldrack-single-stim	s577	0	False
145.473	1.0	146.862	0.9	2.272	True	71.0	Color	n/a	twobytwo	71.0	0.489	orange	9.0	task_switch	color	switch	stim	poldrack-single-stim	s577	0	False
148.65	1.0	149.945	0.9	2.272	True	89.0	Color	stay	twobytwo	89.0	0.395	blue	6.0	cue_stay	color	stay	stim	poldrack-single-stim	s577	0	False
151.03	1.0	152.554	0.1	2.0	True	89.0	Orange-Blue	switch	twobytwo	89.0	1.424	blue	6.0	cue_switch	color	stay	stim	poldrack-single-stim	s577	0	False
153.138	1.0	153.969	0.1	2.0	True	89.0	Orange-Blue	stay	twobytwo	89.0	0.731	blue	3.0	cue_stay	color	stay	stim	poldrack-single-stim	s577	0	False
155.243	1.0	156.431	0.1	2.136	True	89.0	High-Low	n/a	twobytwo	89.0	1.088	orange	2.0	task_switch	magnitude	switch	stim	poldrack-single-stim	s577	0	False
158.289	1.0	159.846	0.9	2.0	True	71.0	Color	n/a	twobytwo	71.0	0.657	orange	4.0	task_switch	color	switch	stim	poldrack-single-stim	s577	0	False
160.395	1.0	160.394	0.1	2.136	False	89.0	Orange-Blue	switch	twobytwo	-1.0	n/a	blue	6.0	cue_switch	color	stay	stim	poldrack-single-stim	s577	0	False
162.637	1.0	163.306	0.1	2.272	True	89.0	High-Low	n/a	twobytwo	89.0	0.569	blue	4.0	task_switch	magnitude	switch	stim	poldrack-single-stim	s577	0	False
165.819	1.0	167.126	0.9	2.136	True	89.0	Orange-Blue	n/a	twobytwo	89.0	0.407	blue	7.0	task_switch	color	switch	stim	poldrack-single-stim	s577	0	False
168.067	1.0	168.83	0.1	2.272	True	71.0	Orange-Blue	stay	twobytwo	71.0	0.663	orange	7.0	cue_stay	color	stay	stim	poldrack-single-stim	s577	0	False
170.446	1.0	171.49	0.1	2.0	True	89.0	High-Low	n/a	twobytwo	89.0	0.944	orange	3.0	task_switch	magnitude	switch	stim	poldrack-single-stim	s577	0	False
173.352	1.0	174.905	0.9	2.816	True	71.0	High-Low	stay	twobytwo	71.0	0.653	blue	9.0	cue_stay	magnitude	stay	stim	poldrack-single-stim	s577	0	False
177.072	1.0	177.071	0.9	2.408	False	89.0	Magnitude	switch	twobytwo	-1.0	n/a	blue	2.0	cue_switch	magnitude	stay	stim	poldrack-single-stim	s577	0	False
179.584	1.0	180.431	0.1	2.0	True	71.0	Magnitude	stay	twobytwo	71.0	0.747	blue	6.0	cue_stay	magnitude	stay	stim	poldrack-single-stim	s577	0	False
182.494	1.0	184.391	0.9	2.544	True	89.0	Magnitude	stay	twobytwo	89.0	0.997	blue	4.0	cue_stay	magnitude	stay	stim	poldrack-single-stim	s577	0	False
185.142	1.0	185.141	0.1	2.136	False	71.0	Color	n/a	twobytwo	-1.0	n/a	orange	9.0	task_switch	color	switch	stim	poldrack-single-stim	s577	0	False
187.385	1.0	188.333	0.1	2.0	True	89.0	Magnitude	n/a	twobytwo	89.0	0.848	blue	2.0	task_switch	magnitude	switch	stim	poldrack-single-stim	s577	0	False
190.292	1.0	191.756	0.9	2.0	True	71.0	Magnitude	stay	twobytwo	71.0	0.564	orange	9.0	cue_stay	magnitude	stay	stim	poldrack-single-stim	s577	0	False
192.396	1.0	193.499	0.1	2.136	True	71.0	High-Low	switch	twobytwo	71.0	1.003	orange	6.0	cue_switch	magnitude	stay	stim	poldrack-single-stim	s577	0	False
195.444	1.0	197.284	0.9	2.136	True	71.0	High-Low	stay	twobytwo	71.0	0.94	blue	6.0	cue_stay	magnitude	stay	stim	poldrack-single-stim	s577	0	False
198.489	1.0	200.141	0.9	2.272	False	71.0	Orange-Blue	n/a	twobytwo	89.0	0.752	orange	1.0	task_switch	color	switch	stim	poldrack-single-stim	s577	0	False
201.67	1.0	203.87	0.9	3.224	True	71.0	Color	switch	twobytwo	71.0	1.3	orange	1.0	cue_switch	color	stay	stim	poldrack-single-stim	s577	0	False
205.801	1.0	207.292	0.9	2.0	True	71.0	Orange-Blue	switch	twobytwo	71.0	0.591	orange	4.0	cue_switch	color	stay	stim	poldrack-single-stim	s577	0	False
208.708	1.0	210.156	0.9	2.0	True	71.0	Magnitude	n/a	twobytwo	71.0	0.548	orange	6.0	task_switch	magnitude	switch	stim	poldrack-single-stim	s577	0	False
211.614	1.0	213.573	0.9	2.272	True	71.0	Orange-Blue	n/a	twobytwo	71.0	1.059	orange	2.0	task_switch	color	switch	stim	poldrack-single-stim	s577	0	False
213.991	1.0	215.52	0.1	2.136	True	71.0	High-Low	n/a	twobytwo	71.0	1.429	orange	8.0	task_switch	magnitude	switch	stim	poldrack-single-stim	s577	0	False
229.754	1.0	231.134	0.1	2.0	True	71.0	High-Low	stay	twobytwo	71.0	1.28	blue	6.0	cue_stay	magnitude	stay	stim	poldrack-single-stim	s577	1	False
232.661	1.0	234.491	0.9	2.0	True	71.0	Color	n/a	twobytwo	71.0	0.93	orange	3.0	task_switch	color	switch	stim	poldrack-single-stim	s577	0	False
235.573	1.0	237.053	0.9	2.0	True	71.0	Magnitude	n/a	twobytwo	71.0	0.58	blue	7.0	task_switch	magnitude	switch	stim	poldrack-single-stim	s577	0	False
237.682	1.0	238.592	0.1	2.68	True	71.0	Color	n/a	twobytwo	71.0	0.81	orange	2.0	task_switch	color	switch	stim	poldrack-single-stim	s577	0	False
240.469	1.0	241.254	0.1	2.0	False	71.0	High-Low	n/a	twobytwo	89.0	0.685	blue	8.0	task_switch	magnitude	switch	stim	poldrack-single-stim	s577	0	False
242.578	1.0	243.97	0.1	2.272	True	89.0	High-Low	stay	twobytwo	89.0	1.292	blue	3.0	cue_stay	magnitude	stay	stim	poldrack-single-stim	s577	0	False
245.76	1.0	247.303	0.9	2.0	True	71.0	Magnitude	switch	twobytwo	71.0	0.643	blue	6.0	cue_switch	magnitude	stay	stim	poldrack-single-stim	s577	0	False
248.667	1.0	250.183	0.9	2.272	True	71.0	High-Low	switch	twobytwo	71.0	0.616	orange	7.0	cue_switch	magnitude	stay	stim	poldrack-single-stim	s577	0	False
251.843	1.0	253.912	0.9	2.952	True	71.0	Color	n/a	twobytwo	71.0	1.169	orange	6.0	task_switch	color	switch	stim	poldrack-single-stim	s577	0	False
254.901	1.0	255.788	0.1	2.0	True	89.0	High-Low	n/a	twobytwo	89.0	0.787	orange	4.0	task_switch	magnitude	switch	stim	poldrack-single-stim	s577	0	False
257.008	1.0	258.151	0.1	2.0	True	89.0	Color	n/a	twobytwo	89.0	1.043	blue	8.0	task_switch	color	switch	stim	poldrack-single-stim	s577	0	False
259.115	1.0	260.287	0.1	2.0	True	71.0	Orange-Blue	switch	twobytwo	71.0	1.072	orange	8.0	cue_switch	color	stay	stim	poldrack-single-stim	s577	0	False
261.222	1.0	262.471	0.1	2.0	True	89.0	High-Low	n/a	twobytwo	89.0	1.149	blue	3.0	task_switch	magnitude	switch	stim	poldrack-single-stim	s577	0	False
264.126	1.0	265.997	0.9	2.136	False	89.0	Orange-Blue	n/a	twobytwo	71.0	0.971	blue	7.0	task_switch	color	switch	stim	poldrack-single-stim	s577	0	False
266.369	1.0	266.368	0.1	2.0	False	71.0	Color	switch	twobytwo	-1.0	n/a	orange	6.0	cue_switch	color	stay	stim	poldrack-single-stim	s577	0	False
268.475	1.0	269.635	0.1	2.0	True	89.0	High-Low	n/a	twobytwo	89.0	1.06	blue	2.0	task_switch	magnitude	switch	stim	poldrack-single-stim	s577	0	False
271.379	1.0	272.88	0.9	2.0	True	89.0	Magnitude	switch	twobytwo	89.0	0.601	blue	1.0	cue_switch	magnitude	stay	stim	poldrack-single-stim	s577	0	False
273.489	1.0	274.84	0.1	2.272	True	89.0	Orange-Blue	n/a	twobytwo	89.0	1.251	blue	1.0	task_switch	color	switch	stim	poldrack-single-stim	s577	0	False
276.664	1.0	278.337	0.9	2.136	True	71.0	High-Low	n/a	twobytwo	71.0	0.773	orange	6.0	task_switch	magnitude	switch	stim	poldrack-single-stim	s577	0	False
279.708	1.0	281.339	0.9	2.0	True	89.0	High-Low	stay	twobytwo	89.0	0.731	orange	1.0	cue_stay	magnitude	stay	stim	poldrack-single-stim	s577	0	False
281.813	1.0	283.204	0.1	2.136	False	71.0	Orange-Blue	n/a	twobytwo	89.0	1.291	orange	6.0	task_switch	color	switch	stim	poldrack-single-stim	s577	0	False
284.06	1.0	285.082	0.1	2.816	True	89.0	Magnitude	n/a	twobytwo	89.0	0.922	blue	2.0	task_switch	magnitude	switch	stim	poldrack-single-stim	s577	0	False
286.986	1.0	287.908	0.1	2.408	True	89.0	Magnitude	stay	twobytwo	89.0	0.822	orange	3.0	cue_stay	magnitude	stay	stim	poldrack-single-stim	s577	0	False
289.505	1.0	290.373	0.1	2.0	True	71.0	Color	n/a	twobytwo	71.0	0.768	orange	8.0	task_switch	color	switch	stim	poldrack-single-stim	s577	0	False
292.409	1.0	294.073	0.9	2.136	True	71.0	Orange-Blue	switch	twobytwo	71.0	0.764	orange	6.0	cue_switch	color	stay	stim	poldrack-single-stim	s577	0	False
295.452	1.0	295.451	0.9	2.136	False	71.0	Orange-Blue	stay	twobytwo	-1.0	n/a	orange	7.0	cue_stay	color	stay	stim	poldrack-single-stim	s577	0	False
298.495	1.0	300.028	0.9	2.136	True	89.0	Magnitude	n/a	twobytwo	89.0	0.633	blue	3.0	task_switch	magnitude	switch	stim	poldrack-single-stim	s577	0	False
300.735	1.0	301.612	0.1	2.544	True	71.0	Magnitude	stay	twobytwo	71.0	0.777	orange	7.0	cue_stay	magnitude	stay	stim	poldrack-single-stim	s577	0	False
303.386	1.0	304.562	0.1	2.136	False	89.0	Color	n/a	twobytwo	71.0	1.076	blue	8.0	task_switch	color	switch	stim	poldrack-single-stim	s577	0	False
306.434	1.0	307.912	0.9	2.0	True	89.0	Orange-Blue	switch	twobytwo	89.0	0.578	blue	9.0	cue_switch	color	stay	stim	poldrack-single-stim	s577	0	False
308.54	1.0	309.253	0.1	2.0	True	89.0	Color	switch	twobytwo	89.0	0.613	blue	6.0	cue_switch	color	stay	stim	poldrack-single-stim	s577	0	False
311.447	1.0	313.036	0.9	2.0	True	89.0	High-Low	n/a	twobytwo	89.0	0.689	orange	1.0	task_switch	magnitude	switch	stim	poldrack-single-stim	s577	0	False
314.354	1.0	315.916	0.9	2.0	True	71.0	Color	n/a	twobytwo	71.0	0.662	orange	7.0	task_switch	color	switch	stim	poldrack-single-stim	s577	0	False
317.258	1.0	318.985	0.9	2.136	True	71.0	Color	stay	twobytwo	71.0	0.827	orange	1.0	cue_stay	color	stay	stim	poldrack-single-stim	s577	0	False
319.501	1.0	320.236	0.1	2.0	True	71.0	Color	stay	twobytwo	71.0	0.635	orange	7.0	cue_stay	color	stay	stim	poldrack-single-stim	s577	0	False
321.607	1.0	322.556	0.1	2.0	True	71.0	Magnitude	n/a	twobytwo	71.0	0.849	blue	6.0	task_switch	magnitude	switch	stim	poldrack-single-stim	s577	0	False
324.512	1.0	324.511	0.9	2.0	False	71.0	Orange-Blue	n/a	twobytwo	-1.0	n/a	orange	9.0	task_switch	color	switch	stim	poldrack-single-stim	s577	0	False
327.421	1.0	329.225	0.9	2.136	True	89.0	Magnitude	n/a	twobytwo	89.0	0.904	orange	4.0	task_switch	magnitude	switch	stim	poldrack-single-stim	s577	0	False
329.664	1.0	329.663	0.1	2.136	False	71.0	Color	n/a	twobytwo	-1.0	n/a	orange	1.0	task_switch	color	switch	stim	poldrack-single-stim	s577	0	False
331.904	1.0	333.018	0.1	2.136	False	89.0	Orange-Blue	switch	twobytwo	71.0	1.014	blue	3.0	cue_switch	color	stay	stim	poldrack-single-stim	s577	0	False
334.149	1.0	335.37	0.1	2.136	True	71.0	Magnitude	n/a	twobytwo	71.0	1.121	orange	6.0	task_switch	magnitude	switch	stim	poldrack-single-stim	s577	0	False
336.389	1.0	337.224	0.1	2.68	True	89.0	Magnitude	stay	twobytwo	89.0	0.735	orange	1.0	cue_stay	magnitude	stay	stim	poldrack-single-stim	s577	0	False
339.976	1.0	341.868	0.9	2.544	True	89.0	Magnitude	stay	twobytwo	89.0	0.992	blue	2.0	cue_stay	magnitude	stay	stim	poldrack-single-stim	s577	0	False
342.632	1.0	343.687	0.1	2.272	True	89.0	Magnitude	stay	twobytwo	89.0	0.955	orange	4.0	cue_stay	magnitude	stay	stim	poldrack-single-stim	s577	0	False
345.016	1.0	346.391	0.1	2.272	True	89.0	High-Low	switch	twobytwo	89.0	1.275	orange	3.0	cue_switch	magnitude	stay	stim	poldrack-single-stim	s577	0	False
348.191	1.0	350.359	0.9	2.408	False	89.0	Color	n/a	twobytwo	71.0	1.268	blue	8.0	task_switch	color	switch	stim	poldrack-single-stim	s577	0	False
351.504	1.0	353.517	0.9	2.136	False	71.0	High-Low	n/a	twobytwo	89.0	1.113	blue	8.0	task_switch	magnitude	switch	stim	poldrack-single-stim	s577	0	False
353.747	1.0	355.092	0.1	2.272	True	89.0	High-Low	stay	twobytwo	89.0	1.245	orange	4.0	cue_stay	magnitude	stay	stim	poldrack-single-stim	s577	0	False
356.126	1.0	356.91	0.1	2.0	True	89.0	High-Low	stay	twobytwo	89.0	0.684	orange	1.0	cue_stay	magnitude	stay	stim	poldrack-single-stim	s577	0	False
358.23	1.0	359.306	0.1	2.136	True	71.0	Orange-Blue	n/a	twobytwo	71.0	0.976	orange	7.0	task_switch	color	switch	stim	poldrack-single-stim	s577	0	False
360.473	1.0	361.275	0.1	2.272	True	89.0	Magnitude	n/a	twobytwo	89.0	0.702	orange	1.0	task_switch	magnitude	switch	stim	poldrack-single-stim	s577	0	False
362.851	1.0	364.105	0.1	2.0	False	71.0	Magnitude	stay	twobytwo	89.0	1.154	blue	9.0	cue_stay	magnitude	stay	stim	poldrack-single-stim	s577	0	False
365.759	1.0	367.62	0.9	2.68	True	89.0	Orange-Blue	n/a	twobytwo	89.0	0.961	blue	2.0	task_switch	color	switch	stim	poldrack-single-stim	s577	0	False
368.548	1.0	369.416	0.1	2.0	True	89.0	Color	switch	twobytwo	89.0	0.768	blue	8.0	cue_switch	color	stay	stim	poldrack-single-stim	s577	0	False
371.454	1.0	372.9	0.9	2.0	True	71.0	High-Low	n/a	twobytwo	71.0	0.546	orange	9.0	task_switch	magnitude	switch	stim	poldrack-single-stim	s577	0	False
374.361	1.0	376.318	0.9	2.0	False	71.0	High-Low	stay	twobytwo	89.0	1.057	blue	6.0	cue_stay	magnitude	stay	stim	poldrack-single-stim	s577	0	False
376.468	1.0	378.103	0.1	2.272	True	71.0	Magnitude	switch	twobytwo	71.0	1.535	blue	6.0	cue_switch	magnitude	stay	stim	poldrack-single-stim	s577	0	False
378.847	1.0	379.69	0.1	2.0	True	89.0	Magnitude	stay	twobytwo	89.0	0.743	blue	3.0	cue_stay	magnitude	stay	stim	poldrack-single-stim	s577	0	False
380.953	1.0	381.968	0.1	2.0	True	71.0	Orange-Blue	n/a	twobytwo	71.0	0.915	orange	2.0	task_switch	color	switch	stim	poldrack-single-stim	s577	0	False
383.865	1.0	385.859	0.9	2.0	True	89.0	High-Low	n/a	twobytwo	89.0	1.094	orange	4.0	task_switch	magnitude	switch	stim	poldrack-single-stim	s577	0	False
385.975	1.0	386.933	0.1	2.68	True	71.0	Magnitude	switch	twobytwo	71.0	0.858	blue	6.0	cue_switch	magnitude	stay	stim	poldrack-single-stim	s577	0	False
388.761	1.0	390.062	0.1	2.0	True	89.0	Color	n/a	twobytwo	89.0	1.201	blue	4.0	task_switch	color	switch	stim	poldrack-single-stim	s577	0	False
391.671	1.0	393.365	0.9	2.136	True	71.0	Magnitude	n/a	twobytwo	71.0	0.794	blue	7.0	task_switch	magnitude	switch	stim	poldrack-single-stim	s577	0	False
393.91	1.0	395.509	0.1	2.408	True	71.0	Magnitude	stay	twobytwo	71.0	1.499	orange	7.0	cue_stay	magnitude	stay	stim	poldrack-single-stim	s577	0	False
396.423	1.0	397.275	0.1	2.136	False	71.0	Color	n/a	twobytwo	89.0	0.752	orange	3.0	task_switch	color	switch	stim	poldrack-single-stim	s577	0	False
399.466	1.0	399.465	0.9	2.0	False	89.0	Color	stay	twobytwo	-1.0	n/a	blue	9.0	cue_stay	color	stay	stim	poldrack-single-stim	s577	0	False
402.373	1.0	404.105	0.9	2.0	True	89.0	Orange-Blue	switch	twobytwo	89.0	0.832	blue	2.0	cue_switch	color	stay	stim	poldrack-single-stim	s577	0	False
404.479	1.0	405.468	0.1	2.544	True	89.0	Orange-Blue	stay	twobytwo	89.0	0.889	blue	6.0	cue_stay	color	stay	stim	poldrack-single-stim	s577	0	False
407.93	1.0	409.388	0.9	2.136	True	89.0	Orange-Blue	stay	twobytwo	89.0	0.558	blue	4.0	cue_stay	color	stay	stim	poldrack-single-stim	s577	0	False
410.176	1.0	411.762	0.1	2.544	True	71.0	Magnitude	n/a	twobytwo	71.0	1.486	orange	9.0	task_switch	magnitude	switch	stim	poldrack-single-stim	s577	0	False
412.829	1.0	413.693	0.1	2.68	True	89.0	Orange-Blue	n/a	twobytwo	89.0	0.764	blue	2.0	task_switch	color	switch	stim	poldrack-single-stim	s577	0	False
416.421	1.0	418.153	0.9	2.0	True	71.0	Orange-Blue	stay	twobytwo	71.0	0.832	orange	9.0	cue_stay	color	stay	stim	poldrack-single-stim	s577	0	False
418.525	1.0	418.524	0.1	2.272	False	71.0	Color	switch	twobytwo	-1.0	n/a	orange	6.0	cue_switch	color	stay	stim	poldrack-single-stim	s577	0	False
421.706	1.0	423.407	0.9	3.088	True	89.0	Color	stay	twobytwo	89.0	0.801	blue	6.0	cue_stay	color	stay	stim	poldrack-single-stim	s577	0	False
425.701	1.0	427.073	0.9	2.0	False	89.0	Magnitude	n/a	twobytwo	71.0	0.472	orange	1.0	task_switch	magnitude	switch	stim	poldrack-single-stim	s577	0	False
428.605	1.0	430.601	0.9	2.136	True	89.0	High-Low	switch	twobytwo	89.0	1.096	orange	1.0	cue_switch	magnitude	stay	stim	poldrack-single-stim	s577	0	False
431.645	1.0	433.325	0.9	2.136	True	89.0	Magnitude	switch	twobytwo	89.0	0.78	orange	4.0	cue_switch	magnitude	stay	stim	poldrack-single-stim	s577	0	False
434.688	1.0	436.545	0.9	2.0	False	71.0	Orange-Blue	n/a	twobytwo	89.0	0.957	orange	6.0	task_switch	color	switch	stim	poldrack-single-stim	s577	0	False
437.598	1.0	439.214	0.9	2.272	True	89.0	Magnitude	n/a	twobytwo	89.0	0.716	orange	2.0	task_switch	magnitude	switch	stim	poldrack-single-stim	s577	0	False
439.979	1.0	441.386	0.1	2.0	True	71.0	Color	n/a	twobytwo	71.0	1.307	orange	8.0	task_switch	color	switch	stim	poldrack-single-stim	s577	0	False
455.603	1.0	457.263	0.1	2.136	True	71.0	Magnitude	stay	twobytwo	71.0	1.56	blue	6.0	cue_stay	magnitude	stay	stim	poldrack-single-stim	s577	1	False
458.644	1.0	459.993	0.9	2.136	True	71.0	Orange-Blue	n/a	twobytwo	71.0	0.449	orange	3.0	task_switch	color	switch	stim	poldrack-single-stim	s577	0	False
461.686	1.0	463.704	0.9	2.544	True	71.0	High-Low	n/a	twobytwo	71.0	1.118	blue	7.0	task_switch	magnitude	switch	stim	poldrack-single-stim	s577	0	False
464.337	1.0	465.837	0.1	2.0	True	71.0	Orange-Blue	n/a	twobytwo	71.0	1.4	orange	2.0	task_switch	color	switch	stim	poldrack-single-stim	s577	0	False
466.446	1.0	467.683	0.1	2.136	True	71.0	Magnitude	n/a	twobytwo	71.0	1.137	blue	8.0	task_switch	magnitude	switch	stim	poldrack-single-stim	s577	0	False
468.691	1.0	469.648	0.1	2.136	False	89.0	Magnitude	stay	twobytwo	71.0	0.857	blue	3.0	cue_stay	magnitude	stay	stim	poldrack-single-stim	s577	0	False
471.732	1.0	473.272	0.9	2.136	True	71.0	High-Low	switch	twobytwo	71.0	0.64	blue	6.0	cue_switch	magnitude	stay	stim	poldrack-single-stim	s577	0	False
474.774	1.0	476.285	0.9	2.0	True	71.0	Magnitude	switch	twobytwo	71.0	0.611	orange	7.0	cue_switch	magnitude	stay	stim	poldrack-single-stim	s577	0	False
477.679	1.0	479.936	0.9	2.136	True	71.0	Color	n/a	twobytwo	71.0	1.357	orange	6.0	task_switch	color	switch	stim	poldrack-single-stim	s577	0	False
479.922	1.0	481.009	0.1	2.0	True	89.0	Magnitude	n/a	twobytwo	89.0	0.987	orange	4.0	task_switch	magnitude	switch	stim	poldrack-single-stim	s577	0	False
482.026	1.0	483.465	0.1	2.136	True	89.0	Orange-Blue	n/a	twobytwo	89.0	1.339	blue	8.0	task_switch	color	switch	stim	poldrack-single-stim	s577	0	False
484.268	1.0	484.267	0.1	2.816	False	71.0	Color	switch	twobytwo	-1.0	n/a	orange	8.0	cue_switch	color	stay	stim	poldrack-single-stim	s577	0	False
487.188	1.0	488.283	0.1	2.136	True	89.0	High-Low	n/a	twobytwo	89.0	0.995	blue	3.0	task_switch	magnitude	switch	stim	poldrack-single-stim	s577	0	False
490.233	1.0	491.988	0.9	2.0	True	89.0	Orange-Blue	n/a	twobytwo	89.0	0.855	blue	7.0	task_switch	color	switch	stim	poldrack-single-stim	s577	0	False
492.343	1.0	493.221	0.1	2.0	True	71.0	Color	switch	twobytwo	71.0	0.778	orange	6.0	cue_switch	color	stay	stim	poldrack-single-stim	s577	0	False
494.45	1.0	495.535	0.1	2.272	True	89.0	Magnitude	n/a	twobytwo	89.0	0.985	blue	2.0	task_switch	magnitude	switch	stim	poldrack-single-stim	s577	0	False
497.629	1.0	497.628	0.9	2.0	False	89.0	High-Low	switch	twobytwo	-1.0	n/a	blue	1.0	cue_switch	magnitude	stay	stim	poldrack-single-stim	s577	0	False
499.736	1.0	500.644	0.1	2.0	True	89.0	Color	n/a	twobytwo	89.0	0.808	blue	1.0	task_switch	color	switch	stim	poldrack-single-stim	s577	0	False
502.648	1.0	502.647	0.9	2.0	False	71.0	High-Low	n/a	twobytwo	-1.0	n/a	orange	6.0	task_switch	magnitude	switch	stim	poldrack-single-stim	s577	0	False
505.55	1.0	507.428	0.9	2.408	True	89.0	High-Low	stay	twobytwo	89.0	0.978	orange	1.0	cue_stay	magnitude	stay	stim	poldrack-single-stim	s577	0	False
508.067	1.0	509.414	0.1	2.272	True	71.0	Orange-Blue	n/a	twobytwo	71.0	1.247	orange	6.0	task_switch	color	switch	stim	poldrack-single-stim	s577	0	False
510.443	1.0	511.587	0.1	2.136	True	89.0	Magnitude	n/a	twobytwo	89.0	1.044	blue	2.0	task_switch	magnitude	switch	stim	poldrack-single-stim	s577	0	False
512.691	1.0	513.724	0.1	2.0	True	89.0	Magnitude	stay	twobytwo	89.0	0.933	orange	3.0	cue_stay	magnitude	stay	stim	poldrack-single-stim	s577	0	False
514.797	1.0	516.198	0.1	2.0	False	71.0	Color	n/a	twobytwo	89.0	1.301	orange	8.0	task_switch	color	switch	stim	poldrack-single-stim	s577	0	False
517.707	1.0	519.035	0.9	2.136	True	71.0	Orange-Blue	switch	twobytwo	71.0	0.428	orange	6.0	cue_switch	color	stay	stim	poldrack-single-stim	s577	0	False
520.749	1.0	520.748	0.9	2.0	False	71.0	Orange-Blue	stay	twobytwo	-1.0	n/a	orange	7.0	cue_stay	color	stay	stim	poldrack-single-stim	s577	0	False
523.656	1.0	523.655	0.9	2.136	False	89.0	Magnitude	n/a	twobytwo	-1.0	n/a	blue	3.0	task_switch	magnitude	switch	stim	poldrack-single-stim	s577	0	False
525.899	1.0	526.718	0.1	2.408	True	71.0	Magnitude	stay	twobytwo	71.0	0.719	orange	7.0	cue_stay	magnitude	stay	stim	poldrack-single-stim	s577	0	False
528.416	1.0	530.004	0.1	2.136	True	89.0	Color	n/a	twobytwo	89.0	1.488	blue	8.0	task_switch	color	switch	stim	poldrack-single-stim	s577	0	False
531.464	1.0	532.966	0.9	2.0	True	89.0	Orange-Blue	switch	twobytwo	89.0	0.602	blue	9.0	cue_switch	color	stay	stim	poldrack-single-stim	s577	0	False
533.569	1.0	534.532	0.1	2.136	True	89.0	Color	switch	twobytwo	89.0	0.863	blue	6.0	cue_switch	color	stay	stim	poldrack-single-stim	s577	0	False
536.611	1.0	536.61	0.9	2.272	False	89.0	High-Low	n/a	twobytwo	-1.0	n/a	orange	1.0	task_switch	magnitude	switch	stim	poldrack-single-stim	s577	0	False
539.79	1.0	542.062	0.9	2.0	True	71.0	Color	n/a	twobytwo	71.0	1.372	orange	7.0	task_switch	color	switch	stim	poldrack-single-stim	s577	0	False
542.694	1.0	544.339	0.9	2.408	True	71.0	Color	stay	twobytwo	71.0	0.745	orange	1.0	cue_stay	color	stay	stim	poldrack-single-stim	s577	0	False
545.214	1.0	546.13	0.1	2.0	True	71.0	Color	stay	twobytwo	71.0	0.816	orange	7.0	cue_stay	color	stay	stim	poldrack-single-stim	s577	0	False
547.321	1.0	548.501	0.1	2.136	True	71.0	Magnitude	n/a	twobytwo	71.0	1.08	blue	6.0	task_switch	magnitude	switch	stim	poldrack-single-stim	s577	0	False
550.366	1.0	551.79	0.9	2.408	True	71.0	Orange-Blue	n/a	twobytwo	71.0	0.524	orange	9.0	task_switch	color	switch	stim	poldrack-single-stim	s577	0	False
553.681	1.0	555.658	0.9	2.136	True	89.0	Magnitude	n/a	twobytwo	89.0	1.077	orange	4.0	task_switch	magnitude	switch	stim	poldrack-single-stim	s577	0	False
555.921	1.0	557.138	0.1	2.408	True	71.0	Orange-Blue	n/a	twobytwo	71.0	1.117	orange	1.0	task_switch	color	switch	stim	poldrack-single-stim	s577	0	False
558.439	1.0	559.597	0.1	2.136	False	89.0	Color	switch	twobytwo	71.0	1.058	blue	3.0	cue_switch	color	stay	stim	poldrack-single-stim	s577	0	False
560.679	1.0	561.556	0.1	2.0	True	71.0	Magnitude	n/a	twobytwo	71.0	0.777	orange	6.0	task_switch	magnitude	switch	stim	poldrack-single-stim	s577	0	False
562.788	1.0	563.894	0.1	2.272	True	89.0	Magnitude	stay	twobytwo	89.0	1.006	orange	1.0	cue_stay	magnitude	stay	stim	poldrack-single-stim	s577	0	False
565.967	1.0	568.03	0.9	2.0	True	89.0	Magnitude	stay	twobytwo	89.0	1.163	blue	2.0	cue_stay	magnitude	stay	stim	poldrack-single-stim	s577	0	False
568.074	1.0	569.525	0.1	2.272	True	89.0	Magnitude	stay	twobytwo	89.0	1.351	orange	4.0	cue_stay	magnitude	stay	stim	poldrack-single-stim	s577	0	False
570.458	1.0	571.233	0.1	2.272	True	89.0	High-Low	switch	twobytwo	89.0	0.675	orange	3.0	cue_switch	magnitude	stay	stim	poldrack-single-stim	s577	0	False
573.634	1.0	575.055	0.9	2.952	True	89.0	Orange-Blue	n/a	twobytwo	89.0	0.521	blue	8.0	task_switch	color	switch	stim	poldrack-single-stim	s577	0	False
577.488	1.0	579.668	0.9	2.68	False	71.0	Magnitude	n/a	twobytwo	89.0	1.28	blue	8.0	task_switch	magnitude	switch	stim	poldrack-single-stim	s577	0	False
580.274	1.0	580.273	0.1	2.136	False	89.0	Magnitude	stay	twobytwo	-1.0	n/a	orange	4.0	cue_stay	magnitude	stay	stim	poldrack-single-stim	s577	0	False
582.517	1.0	583.435	0.1	2.272	True	89.0	Magnitude	stay	twobytwo	89.0	0.818	orange	1.0	cue_stay	magnitude	stay	stim	poldrack-single-stim	s577	0	False
584.901	1.0	585.873	0.1	2.272	True	71.0	Color	n/a	twobytwo	71.0	0.872	orange	7.0	task_switch	color	switch	stim	poldrack-single-stim	s577	0	False
587.282	1.0	588.321	0.1	2.136	True	89.0	Magnitude	n/a	twobytwo	89.0	0.939	orange	1.0	task_switch	magnitude	switch	stim	poldrack-single-stim	s577	0	False
589.522	1.0	590.423	0.1	2.408	True	71.0	Magnitude	stay	twobytwo	71.0	0.801	blue	9.0	cue_stay	magnitude	stay	stim	poldrack-single-stim	s577	0	False
592.834	1.0	594.378	0.9	2.136	True	89.0	Orange-Blue	n/a	twobytwo	89.0	0.644	blue	2.0	task_switch	color	switch	stim	poldrack-single-stim	s577	0	False
595.074	1.0	596.243	0.1	2.136	True	89.0	Color	switch	twobytwo	89.0	1.069	blue	8.0	cue_switch	color	stay	stim	poldrack-single-stim	s577	0	False
598.115	1.0	598.114	0.9	2.0	False	71.0	High-Low	n/a	twobytwo	-1.0	n/a	orange	9.0	task_switch	magnitude	switch	stim	poldrack-single-stim	s577	0	False
601.024	1.0	602.71	0.9	2.0	True	71.0	High-Low	stay	twobytwo	71.0	0.786	blue	6.0	cue_stay	magnitude	stay	stim	poldrack-single-stim	s577	0	False
603.131	1.0	604.17	0.1	2.0	True	71.0	Magnitude	switch	twobytwo	71.0	0.939	blue	6.0	cue_switch	magnitude	stay	stim	poldrack-single-stim	s577	0	False
605.237	1.0	606.068	0.1	2.0	True	89.0	Magnitude	stay	twobytwo	89.0	0.731	blue	3.0	cue_stay	magnitude	stay	stim	poldrack-single-stim	s577	0	False
607.343	1.0	608.436	0.1	2.0	True	71.0	Orange-Blue	n/a	twobytwo	71.0	0.993	orange	2.0	task_switch	color	switch	stim	poldrack-single-stim	s577	0	False
610.251	1.0	612.246	0.9	2.272	False	89.0	High-Low	n/a	twobytwo	71.0	1.095	orange	4.0	task_switch	magnitude	switch	stim	poldrack-single-stim	s577	0	False
612.63	1.0	613.546	0.1	2.408	True	71.0	Magnitude	switch	twobytwo	71.0	0.816	blue	6.0	cue_switch	magnitude	stay	stim	poldrack-single-stim	s577	0	False
615.147	1.0	616.107	0.1	2.0	True	89.0	Color	n/a	twobytwo	89.0	0.86	blue	4.0	task_switch	color	switch	stim	poldrack-single-stim	s577	0	False
618.051	1.0	619.586	0.9	2.136	True	71.0	Magnitude	n/a	twobytwo	71.0	0.635	blue	7.0	task_switch	magnitude	switch	stim	poldrack-single-stim	s577	0	False
620.292	1.0	620.291	0.1	2.0	False	71.0	Magnitude	stay	twobytwo	-1.0	n/a	orange	7.0	cue_stay	magnitude	stay	stim	poldrack-single-stim	s577	0	False
622.398	1.0	622.397	0.1	2.136	False	71.0	Orange-Blue	n/a	twobytwo	-1.0	n/a	orange	3.0	task_switch	color	switch	stim	poldrack-single-stim	s577	0	False
625.446	1.0	626.845	0.9	2.544	True	89.0	Orange-Blue	stay	twobytwo	89.0	0.499	blue	9.0	cue_stay	color	stay	stim	poldrack-single-stim	s577	0	False
628.894	1.0	630.781	0.9	2.68	False	89.0	Color	switch	twobytwo	71.0	0.987	blue	2.0	cue_switch	color	stay	stim	poldrack-single-stim	s577	0	False
631.681	1.0	632.624	0.1	3.088	True	89.0	Color	stay	twobytwo	89.0	0.843	blue	6.0	cue_stay	color	stay	stim	poldrack-single-stim	s577	0	False
635.673	1.0	637.253	0.9	2.136	True	89.0	Color	stay	twobytwo	89.0	0.68	blue	4.0	cue_stay	color	stay	stim	poldrack-single-stim	s577	0	False
637.916	1.0	639.025	0.1	2.544	True	71.0	High-Low	n/a	twobytwo	71.0	1.009	orange	9.0	task_switch	magnitude	switch	stim	poldrack-single-stim	s577	0	False
640.566	1.0	641.396	0.1	2.0	True	89.0	Color	n/a	twobytwo	89.0	0.73	blue	2.0	task_switch	color	switch	stim	poldrack-single-stim	s577	0	False
643.47	1.0	645.441	0.9	2.136	True	71.0	Color	stay	twobytwo	71.0	1.071	orange	9.0	cue_stay	color	stay	stim	poldrack-single-stim	s577	0	False
645.713	1.0	646.782	0.1	2.0	True	71.0	Orange-Blue	switch	twobytwo	71.0	0.969	orange	6.0	cue_switch	color	stay	stim	poldrack-single-stim	s577	0	False
648.617	1.0	648.616	0.9	2.408	False	89.0	Orange-Blue	stay	twobytwo	-1.0	n/a	blue	6.0	cue_stay	color	stay	stim	poldrack-single-stim	s577	0	False
651.934	1.0	651.933	0.9	2.0	False	89.0	High-Low	n/a	twobytwo	-1.0	n/a	orange	1.0	task_switch	magnitude	switch	stim	poldrack-single-stim	s577	0	False
654.843	1.0	654.842	0.9	2.0	False	89.0	Magnitude	switch	twobytwo	-1.0	n/a	orange	1.0	cue_switch	magnitude	stay	stim	poldrack-single-stim	s577	0	False
657.748	1.0	659.422	0.9	2.0	True	89.0	High-Low	switch	twobytwo	89.0	0.774	orange	4.0	cue_switch	magnitude	stay	stim	poldrack-single-stim	s577	0	False
660.654	1.0	662.615	0.9	2.68	True	71.0	Orange-Blue	n/a	twobytwo	71.0	1.061	orange	6.0	task_switch	color	switch	stim	poldrack-single-stim	s577	0	False
664.242	1.0	665.952	0.9	2.272	True	89.0	Magnitude	n/a	twobytwo	89.0	0.81	orange	2.0	task_switch	magnitude	switch	stim	poldrack-single-stim	s577	0	False
666.618	1.0	667.683	0.1	2.408	True	71.0	Color	n/a	twobytwo	71.0	0.965	orange	8.0	task_switch	color	switch	stim	poldrack-single-stim	s577	0	False
