onset	duration	movement_onset	block_duration	condition	correct	correct_response	experiment_exp_id	key_press	response_time	trial_id	trial_type	worker_id	junk
3.025	0.5	3.024	0.5	AX	n/a	n/a	dot_pattern_expectancy	-1.0	n/a	cue	AX	s579	False
5.536	0.5	5.946	2.18	AX	1.0	89.0	dot_pattern_expectancy	89.0	0.41	probe	AX	s579	False
7.72	0.5	7.719	0.5	AY	n/a	n/a	dot_pattern_expectancy	-1.0	n/a	cue	AY	s579	False
10.228	0.5	10.656	2.316	AY	0.0	71.0	dot_pattern_expectancy	89.0	0.428	probe	AY	s579	False
12.552	0.5	12.551	0.5	AY	n/a	n/a	dot_pattern_expectancy	-1.0	n/a	cue	AY	s579	False
15.064	0.5	15.582	1.636	AY	1.0	71.0	dot_pattern_expectancy	71.0	0.518	probe	AY	s579	False
16.702	0.5	16.701	0.5	BX	n/a	n/a	dot_pattern_expectancy	-1.0	n/a	cue	BX	s579	False
19.215	0.5	19.515	1.908	BX	1.0	71.0	dot_pattern_expectancy	71.0	0.3	probe	BX	s579	False
21.131	0.5	21.13	0.5	AX	n/a	n/a	dot_pattern_expectancy	-1.0	n/a	cue	AX	s579	False
23.644	0.5	24.081	3.54	AX	1.0	89.0	dot_pattern_expectancy	89.0	0.437	probe	AX	s579	False
27.191	0.5	27.19	0.5	BX	n/a	n/a	dot_pattern_expectancy	-1.0	n/a	cue	BX	s579	False
29.706	0.5	29.971	1.636	BX	1.0	71.0	dot_pattern_expectancy	71.0	0.265	probe	BX	s579	False
31.347	0.5	31.346	0.5	BY	n/a	n/a	dot_pattern_expectancy	-1.0	n/a	cue	BY	s579	False
33.853	0.5	34.122	1.5	BY	1.0	71.0	dot_pattern_expectancy	71.0	0.269	probe	BY	s579	False
35.36	0.5	35.359	0.5	AX	n/a	n/a	dot_pattern_expectancy	-1.0	n/a	cue	AX	s579	False
37.871	0.5	38.294	1.5	AX	1.0	89.0	dot_pattern_expectancy	89.0	0.423	probe	AX	s579	False
39.375	0.5	39.374	0.5	AX	n/a	n/a	dot_pattern_expectancy	-1.0	n/a	cue	AX	s579	False
41.884	0.5	42.279	1.772	AX	1.0	89.0	dot_pattern_expectancy	89.0	0.395	probe	AX	s579	False
43.664	0.5	43.663	0.5	BY	n/a	n/a	dot_pattern_expectancy	-1.0	n/a	cue	BY	s579	False
46.178	0.5	46.594	2.452	BY	1.0	71.0	dot_pattern_expectancy	71.0	0.416	probe	BY	s579	False
48.637	0.5	48.636	0.5	AX	n/a	n/a	dot_pattern_expectancy	-1.0	n/a	cue	AX	s579	False
51.148	0.5	51.625	1.908	AX	1.0	89.0	dot_pattern_expectancy	89.0	0.477	probe	AX	s579	False
53.063	0.5	53.062	0.5	BX	n/a	n/a	dot_pattern_expectancy	-1.0	n/a	cue	BX	s579	False
55.57	0.5	55.914	1.636	BX	1.0	71.0	dot_pattern_expectancy	71.0	0.344	probe	BX	s579	False
57.213	0.5	57.212	0.5	AX	n/a	n/a	dot_pattern_expectancy	-1.0	n/a	cue	AX	s579	False
59.719	0.5	60.139	1.5	AX	1.0	89.0	dot_pattern_expectancy	89.0	0.42	probe	AX	s579	False
61.226	0.5	61.225	0.5	AX	n/a	n/a	dot_pattern_expectancy	-1.0	n/a	cue	AX	s579	False
63.737	0.5	64.123	1.636	AX	1.0	89.0	dot_pattern_expectancy	89.0	0.386	probe	AX	s579	False
65.375	0.5	65.374	0.5	AX	n/a	n/a	dot_pattern_expectancy	-1.0	n/a	cue	AX	s579	False
67.886	0.5	68.356	1.636	AX	1.0	89.0	dot_pattern_expectancy	89.0	0.47	probe	AX	s579	False
69.529	0.5	69.528	0.5	BY	n/a	n/a	dot_pattern_expectancy	-1.0	n/a	cue	BY	s579	False
72.043	0.5	72.292	2.452	BY	1.0	71.0	dot_pattern_expectancy	71.0	0.249	probe	BY	s579	False
74.503	0.5	74.502	0.5	AX	n/a	n/a	dot_pattern_expectancy	-1.0	n/a	cue	AX	s579	False
77.013	0.5	77.389	1.5	AX	1.0	89.0	dot_pattern_expectancy	89.0	0.376	probe	AX	s579	False
78.521	0.5	78.52	0.5	BY	n/a	n/a	dot_pattern_expectancy	-1.0	n/a	cue	BY	s579	False
81.034	0.5	81.39	1.5	BY	1.0	71.0	dot_pattern_expectancy	71.0	0.356	probe	BY	s579	False
82.542	0.5	82.541	0.5	AX	n/a	n/a	dot_pattern_expectancy	-1.0	n/a	cue	AX	s579	False
85.046	0.5	85.356	1.636	AX	1.0	89.0	dot_pattern_expectancy	89.0	0.31	probe	AX	s579	False
86.69	0.5	86.689	0.5	AX	n/a	n/a	dot_pattern_expectancy	-1.0	n/a	cue	AX	s579	False
89.202	0.5	89.603	1.636	AX	1.0	89.0	dot_pattern_expectancy	89.0	0.401	probe	AX	s579	False
90.845	0.5	90.844	0.5	AY	n/a	n/a	dot_pattern_expectancy	-1.0	n/a	cue	AY	s579	False
93.359	0.5	93.928	1.636	AY	1.0	71.0	dot_pattern_expectancy	71.0	0.569	probe	AY	s579	False
95.001	0.5	95.0	0.5	AX	n/a	n/a	dot_pattern_expectancy	-1.0	n/a	cue	AX	s579	False
97.51	0.5	97.954	1.5	AX	1.0	89.0	dot_pattern_expectancy	89.0	0.444	probe	AX	s579	False
99.016	0.5	99.015	0.5	AX	n/a	n/a	dot_pattern_expectancy	-1.0	n/a	cue	AX	s579	False
101.532	0.5	101.978	1.5	AX	1.0	89.0	dot_pattern_expectancy	89.0	0.446	probe	AX	s579	False
103.038	0.5	103.037	0.5	AX	n/a	n/a	dot_pattern_expectancy	-1.0	n/a	cue	AX	s579	False
105.55	0.5	106.009	1.772	AX	1.0	89.0	dot_pattern_expectancy	89.0	0.459	probe	AX	s579	False
107.324	0.5	107.323	0.5	AX	n/a	n/a	dot_pattern_expectancy	-1.0	n/a	cue	AX	s579	False
109.835	0.5	110.384	2.18	AX	1.0	89.0	dot_pattern_expectancy	89.0	0.549	probe	AX	s579	False
112.021	0.5	112.02	0.5	BX	n/a	n/a	dot_pattern_expectancy	-1.0	n/a	cue	BX	s579	False
114.528	0.5	114.8	1.772	BX	1.0	71.0	dot_pattern_expectancy	71.0	0.272	probe	BX	s579	False
116.307	0.5	116.306	0.5	BY	n/a	n/a	dot_pattern_expectancy	-1.0	n/a	cue	BY	s579	False
118.821	0.5	118.82	1.5	BY	0.0	71.0	dot_pattern_expectancy	-1.0	n/a	probe	BY	s579	False
120.327	0.5	120.326	0.5	AX	n/a	n/a	dot_pattern_expectancy	-1.0	n/a	cue	AX	s579	False
122.84	0.5	123.264	1.5	AX	1.0	89.0	dot_pattern_expectancy	89.0	0.424	probe	AX	s579	False
124.345	0.5	124.344	0.5	AX	n/a	n/a	dot_pattern_expectancy	-1.0	n/a	cue	AX	s579	False
126.856	0.5	127.181	1.636	AX	1.0	89.0	dot_pattern_expectancy	89.0	0.325	probe	AX	s579	False
128.499	0.5	128.498	0.5	AY	n/a	n/a	dot_pattern_expectancy	-1.0	n/a	cue	AY	s579	False
131.013	0.5	131.509	2.18	AY	1.0	71.0	dot_pattern_expectancy	71.0	0.496	probe	AY	s579	False
133.2	0.5	133.199	0.5	AY	n/a	n/a	dot_pattern_expectancy	-1.0	n/a	cue	AY	s579	False
135.713	0.5	136.306	2.316	AY	1.0	71.0	dot_pattern_expectancy	71.0	0.593	probe	AY	s579	False
138.037	0.5	138.036	0.5	BX	n/a	n/a	dot_pattern_expectancy	-1.0	n/a	cue	BX	s579	False
140.544	0.5	140.846	1.636	BX	1.0	71.0	dot_pattern_expectancy	71.0	0.302	probe	BX	s579	False
142.186	0.5	142.185	0.5	BX	n/a	n/a	dot_pattern_expectancy	-1.0	n/a	cue	BX	s579	False
144.697	0.5	144.944	2.18	BX	1.0	71.0	dot_pattern_expectancy	71.0	0.247	probe	BX	s579	False
146.881	0.5	146.88	0.5	AY	n/a	n/a	dot_pattern_expectancy	-1.0	n/a	cue	AY	s579	False
149.394	0.5	149.826	2.044	AY	1.0	71.0	dot_pattern_expectancy	71.0	0.432	probe	AY	s579	False
151.442	0.5	151.441	0.5	AX	n/a	n/a	dot_pattern_expectancy	-1.0	n/a	cue	AX	s579	False
153.945	0.5	154.328	1.772	AX	1.0	89.0	dot_pattern_expectancy	89.0	0.383	probe	AX	s579	False
155.724	0.5	155.723	0.5	AX	n/a	n/a	dot_pattern_expectancy	-1.0	n/a	cue	AX	s579	False
158.237	0.5	158.588	1.5	AX	1.0	89.0	dot_pattern_expectancy	89.0	0.351	probe	AX	s579	False
159.741	0.5	159.74	0.5	AX	n/a	n/a	dot_pattern_expectancy	-1.0	n/a	cue	AX	s579	False
162.254	0.5	162.581	2.18	AX	1.0	89.0	dot_pattern_expectancy	89.0	0.327	probe	AX	s579	False
164.442	0.5	164.441	0.5	AY	n/a	n/a	dot_pattern_expectancy	-1.0	n/a	cue	AY	s579	False
166.955	0.5	167.348	2.452	AY	1.0	71.0	dot_pattern_expectancy	71.0	0.393	probe	AY	s579	False
169.415	0.5	169.414	0.5	AX	n/a	n/a	dot_pattern_expectancy	-1.0	n/a	cue	AX	s579	False
171.925	0.5	172.384	1.636	AX	1.0	89.0	dot_pattern_expectancy	89.0	0.459	probe	AX	s579	False
173.568	0.5	173.567	0.5	AX	n/a	n/a	dot_pattern_expectancy	-1.0	n/a	cue	AX	s579	False
176.076	0.5	176.442	1.908	AX	1.0	89.0	dot_pattern_expectancy	89.0	0.366	probe	AX	s579	False
188.509	0.5	188.508	0.5	AX	n/a	n/a	dot_pattern_expectancy	-1.0	n/a	cue	AX	s579	False
191.017	0.5	191.354	1.772	AX	1.0	89.0	dot_pattern_expectancy	89.0	0.337	probe	AX	s579	False
192.797	0.5	192.796	0.5	AX	n/a	n/a	dot_pattern_expectancy	-1.0	n/a	cue	AX	s579	False
195.305	0.5	195.711	1.5	AX	1.0	89.0	dot_pattern_expectancy	89.0	0.406	probe	AX	s579	False
196.813	0.5	196.812	0.5	AY	n/a	n/a	dot_pattern_expectancy	-1.0	n/a	cue	AY	s579	False
199.326	0.5	199.669	2.452	AY	1.0	71.0	dot_pattern_expectancy	71.0	0.343	probe	AY	s579	False
201.784	0.5	201.783	0.5	AY	n/a	n/a	dot_pattern_expectancy	-1.0	n/a	cue	AY	s579	False
204.287	0.5	204.785	1.772	AY	1.0	71.0	dot_pattern_expectancy	71.0	0.498	probe	AY	s579	False
206.066	0.5	206.065	0.5	AX	n/a	n/a	dot_pattern_expectancy	-1.0	n/a	cue	AX	s579	False
208.577	0.5	209.061	1.908	AX	1.0	89.0	dot_pattern_expectancy	89.0	0.484	probe	AX	s579	False
210.493	0.5	210.492	0.5	AX	n/a	n/a	dot_pattern_expectancy	-1.0	n/a	cue	AX	s579	False
213.003	0.5	213.412	1.908	AX	1.0	89.0	dot_pattern_expectancy	89.0	0.409	probe	AX	s579	False
214.919	0.5	214.918	0.5	AX	n/a	n/a	dot_pattern_expectancy	-1.0	n/a	cue	AX	s579	False
217.43	0.5	217.842	2.588	AX	1.0	89.0	dot_pattern_expectancy	89.0	0.412	probe	AX	s579	False
220.026	0.5	220.025	0.5	AY	n/a	n/a	dot_pattern_expectancy	-1.0	n/a	cue	AY	s579	False
222.534	0.5	223.009	1.5	AY	1.0	71.0	dot_pattern_expectancy	71.0	0.475	probe	AY	s579	False
224.039	0.5	224.038	0.5	BY	n/a	n/a	dot_pattern_expectancy	-1.0	n/a	cue	BY	s579	False
226.551	0.5	226.55	1.5	BY	0.0	71.0	dot_pattern_expectancy	-1.0	n/a	probe	BY	s579	False
228.059	0.5	228.058	0.5	BY	n/a	n/a	dot_pattern_expectancy	-1.0	n/a	cue	BY	s579	False
230.571	0.5	230.884	1.5	BY	1.0	71.0	dot_pattern_expectancy	71.0	0.313	probe	BY	s579	False
232.074	0.5	232.073	0.5	AX	n/a	n/a	dot_pattern_expectancy	-1.0	n/a	cue	AX	s579	False
234.581	0.5	234.903	1.636	AX	1.0	89.0	dot_pattern_expectancy	89.0	0.322	probe	AX	s579	False
236.224	0.5	236.223	0.5	BX	n/a	n/a	dot_pattern_expectancy	-1.0	n/a	cue	BX	s579	False
238.735	0.5	238.734	2.044	BX	0.0	71.0	dot_pattern_expectancy	-1.0	n/a	probe	BX	s579	False
240.786	0.5	240.785	0.5	AX	n/a	n/a	dot_pattern_expectancy	-1.0	n/a	cue	AX	s579	False
243.297	0.5	243.685	1.772	AX	1.0	89.0	dot_pattern_expectancy	89.0	0.388	probe	AX	s579	False
245.072	0.5	245.071	0.5	BX	n/a	n/a	dot_pattern_expectancy	-1.0	n/a	cue	BX	s579	False
247.585	0.5	247.64	2.588	BX	1.0	71.0	dot_pattern_expectancy	71.0	0.055	probe	BX	s579	False
250.18	0.5	250.179	0.5	AY	n/a	n/a	dot_pattern_expectancy	-1.0	n/a	cue	AY	s579	False
252.685	0.5	253.197	1.5	AY	1.0	71.0	dot_pattern_expectancy	71.0	0.512	probe	AY	s579	False
254.193	0.5	254.192	0.5	AX	n/a	n/a	dot_pattern_expectancy	-1.0	n/a	cue	AX	s579	False
256.706	0.5	257.105	2.452	AX	1.0	89.0	dot_pattern_expectancy	89.0	0.399	probe	AX	s579	False
259.165	0.5	259.164	0.5	BY	n/a	n/a	dot_pattern_expectancy	-1.0	n/a	cue	BY	s579	False
261.675	0.5	262.006	1.636	BY	1.0	71.0	dot_pattern_expectancy	71.0	0.331	probe	BY	s579	False
263.318	0.5	263.317	0.5	AX	n/a	n/a	dot_pattern_expectancy	-1.0	n/a	cue	AX	s579	False
265.826	0.5	266.448	1.636	AX	1.0	89.0	dot_pattern_expectancy	89.0	0.622	probe	AX	s579	False
267.47	0.5	267.469	0.5	AX	n/a	n/a	dot_pattern_expectancy	-1.0	n/a	cue	AX	s579	False
269.977	0.5	270.355	1.5	AX	1.0	89.0	dot_pattern_expectancy	89.0	0.378	probe	AX	s579	False
271.48	0.5	271.479	0.5	BY	n/a	n/a	dot_pattern_expectancy	-1.0	n/a	cue	BY	s579	False
273.985	0.5	274.208	1.636	BY	1.0	71.0	dot_pattern_expectancy	71.0	0.223	probe	BY	s579	False
275.628	0.5	275.627	0.5	AX	n/a	n/a	dot_pattern_expectancy	-1.0	n/a	cue	AX	s579	False
278.138	0.5	278.51	1.5	AX	1.0	89.0	dot_pattern_expectancy	89.0	0.372	probe	AX	s579	False
279.645	0.5	279.644	0.5	AY	n/a	n/a	dot_pattern_expectancy	-1.0	n/a	cue	AY	s579	False
282.154	0.5	282.55	2.18	AY	1.0	71.0	dot_pattern_expectancy	71.0	0.396	probe	AY	s579	False
284.338	0.5	284.337	0.5	AX	n/a	n/a	dot_pattern_expectancy	-1.0	n/a	cue	AX	s579	False
286.847	0.5	287.185	1.5	AX	1.0	89.0	dot_pattern_expectancy	89.0	0.338	probe	AX	s579	False
288.354	0.5	288.353	0.5	AX	n/a	n/a	dot_pattern_expectancy	-1.0	n/a	cue	AX	s579	False
290.862	0.5	291.234	1.908	AX	1.0	89.0	dot_pattern_expectancy	89.0	0.372	probe	AX	s579	False
292.778	0.5	292.777	0.5	BY	n/a	n/a	dot_pattern_expectancy	-1.0	n/a	cue	BY	s579	False
295.289	0.5	295.566	1.636	BY	1.0	71.0	dot_pattern_expectancy	71.0	0.277	probe	BY	s579	False
296.932	0.5	296.931	0.5	BY	n/a	n/a	dot_pattern_expectancy	-1.0	n/a	cue	BY	s579	False
299.445	0.5	299.991	1.636	BY	1.0	71.0	dot_pattern_expectancy	71.0	0.546	probe	BY	s579	False
301.09	0.5	301.089	0.5	AX	n/a	n/a	dot_pattern_expectancy	-1.0	n/a	cue	AX	s579	False
303.597	0.5	303.995	1.636	AX	1.0	89.0	dot_pattern_expectancy	89.0	0.398	probe	AX	s579	False
305.239	0.5	305.238	0.5	AX	n/a	n/a	dot_pattern_expectancy	-1.0	n/a	cue	AX	s579	False
307.752	0.5	308.11	1.5	AX	1.0	89.0	dot_pattern_expectancy	89.0	0.358	probe	AX	s579	False
309.259	0.5	309.258	0.5	BY	n/a	n/a	dot_pattern_expectancy	-1.0	n/a	cue	BY	s579	False
311.772	0.5	312.047	2.044	BY	1.0	71.0	dot_pattern_expectancy	71.0	0.275	probe	BY	s579	False
313.823	0.5	313.822	0.5	AY	n/a	n/a	dot_pattern_expectancy	-1.0	n/a	cue	AY	s579	False
316.335	0.5	316.795	2.18	AY	1.0	71.0	dot_pattern_expectancy	71.0	0.46	probe	AY	s579	False
318.52	0.5	318.519	0.5	AY	n/a	n/a	dot_pattern_expectancy	-1.0	n/a	cue	AY	s579	False
321.033	0.5	321.412	1.636	AY	0.0	71.0	dot_pattern_expectancy	89.0	0.379	probe	AY	s579	False
322.677	0.5	322.676	0.5	AY	n/a	n/a	dot_pattern_expectancy	-1.0	n/a	cue	AY	s579	False
325.189	0.5	325.698	1.772	AY	1.0	71.0	dot_pattern_expectancy	71.0	0.509	probe	AY	s579	False
326.964	0.5	326.963	0.5	BY	n/a	n/a	dot_pattern_expectancy	-1.0	n/a	cue	BY	s579	False
329.477	0.5	329.803	1.5	BY	1.0	71.0	dot_pattern_expectancy	71.0	0.326	probe	BY	s579	False
330.98	0.5	330.979	0.5	BX	n/a	n/a	dot_pattern_expectancy	-1.0	n/a	cue	BX	s579	False
333.492	0.5	333.917	1.908	BX	1.0	71.0	dot_pattern_expectancy	71.0	0.425	probe	BX	s579	False
335.408	0.5	335.407	0.5	AX	n/a	n/a	dot_pattern_expectancy	-1.0	n/a	cue	AX	s579	False
337.918	0.5	338.46	2.044	AX	1.0	89.0	dot_pattern_expectancy	89.0	0.542	probe	AX	s579	False
339.969	0.5	339.968	0.5	AX	n/a	n/a	dot_pattern_expectancy	-1.0	n/a	cue	AX	s579	False
342.481	0.5	342.876	1.636	AX	1.0	89.0	dot_pattern_expectancy	89.0	0.395	probe	AX	s579	False
344.124	0.5	344.123	0.5	AX	n/a	n/a	dot_pattern_expectancy	-1.0	n/a	cue	AX	s579	False
346.638	0.5	347.051	1.772	AX	1.0	89.0	dot_pattern_expectancy	89.0	0.413	probe	AX	s579	False
348.417	0.5	348.416	0.5	AX	n/a	n/a	dot_pattern_expectancy	-1.0	n/a	cue	AX	s579	False
350.929	0.5	351.355	1.636	AX	1.0	89.0	dot_pattern_expectancy	89.0	0.426	probe	AX	s579	False
352.572	0.5	352.571	0.5	BX	n/a	n/a	dot_pattern_expectancy	-1.0	n/a	cue	BX	s579	False
355.077	0.5	355.159	1.772	BX	1.0	71.0	dot_pattern_expectancy	71.0	0.082	probe	BX	s579	False
356.851	0.5	356.85	0.5	AX	n/a	n/a	dot_pattern_expectancy	-1.0	n/a	cue	AX	s579	False
359.364	0.5	359.707	1.5	AX	1.0	89.0	dot_pattern_expectancy	89.0	0.343	probe	AX	s579	False
371.388	0.5	371.387	0.5	BY	n/a	n/a	dot_pattern_expectancy	-1.0	n/a	cue	BY	s579	False
373.898	0.5	374.371	1.636	BY	1.0	71.0	dot_pattern_expectancy	71.0	0.473	probe	BY	s579	False
375.537	0.5	375.536	0.5	AY	n/a	n/a	dot_pattern_expectancy	-1.0	n/a	cue	AY	s579	False
378.048	0.5	378.495	1.5	AY	1.0	71.0	dot_pattern_expectancy	71.0	0.447	probe	AY	s579	False
379.553	0.5	379.552	0.5	AX	n/a	n/a	dot_pattern_expectancy	-1.0	n/a	cue	AX	s579	False
382.062	0.5	382.507	2.044	AX	1.0	89.0	dot_pattern_expectancy	89.0	0.445	probe	AX	s579	False
384.111	0.5	384.11	0.5	BY	n/a	n/a	dot_pattern_expectancy	-1.0	n/a	cue	BY	s579	False
386.617	0.5	386.912	1.772	BY	1.0	71.0	dot_pattern_expectancy	71.0	0.295	probe	BY	s579	False
388.396	0.5	388.395	0.5	BX	n/a	n/a	dot_pattern_expectancy	-1.0	n/a	cue	BX	s579	False
390.906	0.5	391.197	1.636	BX	1.0	71.0	dot_pattern_expectancy	71.0	0.291	probe	BX	s579	False
392.546	0.5	392.545	0.5	AX	n/a	n/a	dot_pattern_expectancy	-1.0	n/a	cue	AX	s579	False
395.059	0.5	395.426	1.636	AX	1.0	89.0	dot_pattern_expectancy	89.0	0.367	probe	AX	s579	False
396.702	0.5	396.701	0.5	AX	n/a	n/a	dot_pattern_expectancy	-1.0	n/a	cue	AX	s579	False
399.213	0.5	399.597	1.5	AX	1.0	89.0	dot_pattern_expectancy	89.0	0.384	probe	AX	s579	False
400.717	0.5	400.716	0.5	AX	n/a	n/a	dot_pattern_expectancy	-1.0	n/a	cue	AX	s579	False
403.23	0.5	403.688	1.5	AX	1.0	89.0	dot_pattern_expectancy	89.0	0.458	probe	AX	s579	False
404.737	0.5	404.736	0.5	AY	n/a	n/a	dot_pattern_expectancy	-1.0	n/a	cue	AY	s579	False
407.242	0.5	407.68	2.044	AY	1.0	71.0	dot_pattern_expectancy	71.0	0.438	probe	AY	s579	False
409.294	0.5	409.293	0.5	AX	n/a	n/a	dot_pattern_expectancy	-1.0	n/a	cue	AX	s579	False
411.807	0.5	412.282	2.452	AX	1.0	89.0	dot_pattern_expectancy	89.0	0.475	probe	AX	s579	False
414.267	0.5	414.266	0.5	AX	n/a	n/a	dot_pattern_expectancy	-1.0	n/a	cue	AX	s579	False
416.776	0.5	417.116	1.908	AX	1.0	89.0	dot_pattern_expectancy	89.0	0.34	probe	AX	s579	False
418.69	0.5	418.689	0.5	AX	n/a	n/a	dot_pattern_expectancy	-1.0	n/a	cue	AX	s579	False
421.2	0.5	421.579	1.5	AX	1.0	89.0	dot_pattern_expectancy	89.0	0.379	probe	AX	s579	False
422.707	0.5	422.706	0.5	AX	n/a	n/a	dot_pattern_expectancy	-1.0	n/a	cue	AX	s579	False
425.221	0.5	425.59	1.908	AX	1.0	89.0	dot_pattern_expectancy	89.0	0.369	probe	AX	s579	False
427.136	0.5	427.135	0.5	BX	n/a	n/a	dot_pattern_expectancy	-1.0	n/a	cue	BX	s579	False
429.647	0.5	429.896	2.18	BX	1.0	71.0	dot_pattern_expectancy	71.0	0.249	probe	BX	s579	False
431.834	0.5	431.833	0.5	AX	n/a	n/a	dot_pattern_expectancy	-1.0	n/a	cue	AX	s579	False
434.347	0.5	434.748	1.5	AX	1.0	89.0	dot_pattern_expectancy	89.0	0.401	probe	AX	s579	False
435.852	0.5	435.851	0.5	BY	n/a	n/a	dot_pattern_expectancy	-1.0	n/a	cue	BY	s579	False
438.36	0.5	438.618	1.908	BY	1.0	71.0	dot_pattern_expectancy	71.0	0.258	probe	BY	s579	False
440.272	0.5	440.271	0.5	BX	n/a	n/a	dot_pattern_expectancy	-1.0	n/a	cue	BX	s579	False
442.785	0.5	443.18	2.316	BX	1.0	71.0	dot_pattern_expectancy	71.0	0.395	probe	BX	s579	False
445.109	0.5	445.108	0.5	AY	n/a	n/a	dot_pattern_expectancy	-1.0	n/a	cue	AY	s579	False
447.622	0.5	448.11	2.316	AY	1.0	71.0	dot_pattern_expectancy	71.0	0.488	probe	AY	s579	False
449.941	0.5	449.94	0.5	BX	n/a	n/a	dot_pattern_expectancy	-1.0	n/a	cue	BX	s579	False
452.446	0.5	452.792	1.636	BX	1.0	71.0	dot_pattern_expectancy	71.0	0.346	probe	BX	s579	False
454.088	0.5	454.087	0.5	AY	n/a	n/a	dot_pattern_expectancy	-1.0	n/a	cue	AY	s579	False
456.601	0.5	457.112	1.5	AY	1.0	71.0	dot_pattern_expectancy	71.0	0.511	probe	AY	s579	False
458.108	0.5	458.107	0.5	BY	n/a	n/a	dot_pattern_expectancy	-1.0	n/a	cue	BY	s579	False
460.621	0.5	460.937	1.908	BY	1.0	71.0	dot_pattern_expectancy	71.0	0.316	probe	BY	s579	False
462.536	0.5	462.535	0.5	AX	n/a	n/a	dot_pattern_expectancy	-1.0	n/a	cue	AX	s579	False
465.048	0.5	465.354	1.5	AX	0.0	89.0	dot_pattern_expectancy	71.0	0.306	probe	AX	s579	False
466.553	0.5	466.552	0.5	AY	n/a	n/a	dot_pattern_expectancy	-1.0	n/a	cue	AY	s579	False
469.067	0.5	469.367	2.316	AY	1.0	71.0	dot_pattern_expectancy	71.0	0.3	probe	AY	s579	False
471.39	0.5	471.389	0.5	AX	n/a	n/a	dot_pattern_expectancy	-1.0	n/a	cue	AX	s579	False
473.902	0.5	474.288	1.5	AX	1.0	89.0	dot_pattern_expectancy	89.0	0.386	probe	AX	s579	False
475.409	0.5	475.408	0.5	AY	n/a	n/a	dot_pattern_expectancy	-1.0	n/a	cue	AY	s579	False
477.922	0.5	478.485	2.724	AY	1.0	71.0	dot_pattern_expectancy	71.0	0.563	probe	AY	s579	False
480.654	0.5	480.653	0.5	AX	n/a	n/a	dot_pattern_expectancy	-1.0	n/a	cue	AX	s579	False
483.167	0.5	483.71	1.5	AX	1.0	89.0	dot_pattern_expectancy	89.0	0.543	probe	AX	s579	False
484.673	0.5	484.672	0.5	AX	n/a	n/a	dot_pattern_expectancy	-1.0	n/a	cue	AX	s579	False
487.187	0.5	487.491	1.636	AX	1.0	89.0	dot_pattern_expectancy	89.0	0.304	probe	AX	s579	False
488.827	0.5	488.826	0.5	AX	n/a	n/a	dot_pattern_expectancy	-1.0	n/a	cue	AX	s579	False
491.336	0.5	491.687	1.636	AX	1.0	89.0	dot_pattern_expectancy	89.0	0.351	probe	AX	s579	False
492.979	0.5	492.978	0.5	AX	n/a	n/a	dot_pattern_expectancy	-1.0	n/a	cue	AX	s579	False
495.491	0.5	495.801	1.772	AX	1.0	89.0	dot_pattern_expectancy	89.0	0.31	probe	AX	s579	False
497.268	0.5	497.267	0.5	BY	n/a	n/a	dot_pattern_expectancy	-1.0	n/a	cue	BY	s579	False
499.776	0.5	500.091	1.772	BY	1.0	71.0	dot_pattern_expectancy	71.0	0.315	probe	BY	s579	False
501.556	0.5	501.555	0.5	AX	n/a	n/a	dot_pattern_expectancy	-1.0	n/a	cue	AX	s579	False
504.065	0.5	504.544	1.5	AX	1.0	89.0	dot_pattern_expectancy	89.0	0.479	probe	AX	s579	False
505.575	0.5	505.574	0.5	BY	n/a	n/a	dot_pattern_expectancy	-1.0	n/a	cue	BY	s579	False
508.086	0.5	508.338	2.452	BY	1.0	71.0	dot_pattern_expectancy	71.0	0.252	probe	BY	s579	False
510.545	0.5	510.544	0.5	AX	n/a	n/a	dot_pattern_expectancy	-1.0	n/a	cue	AX	s579	False
513.054	0.5	513.489	1.636	AX	1.0	89.0	dot_pattern_expectancy	89.0	0.435	probe	AX	s579	False
514.697	0.5	514.696	0.5	AX	n/a	n/a	dot_pattern_expectancy	-1.0	n/a	cue	AX	s579	False
517.206	0.5	517.802	1.636	AX	0.0	89.0	dot_pattern_expectancy	71.0	0.596	probe	AX	s579	False
518.849	0.5	518.848	0.5	BX	n/a	n/a	dot_pattern_expectancy	-1.0	n/a	cue	BX	s579	False
521.357	0.5	521.626	1.5	BX	1.0	71.0	dot_pattern_expectancy	71.0	0.269	probe	BX	s579	False
522.861	0.5	522.86	0.5	BX	n/a	n/a	dot_pattern_expectancy	-1.0	n/a	cue	BX	s579	False
525.369	0.5	525.671	1.5	BX	1.0	71.0	dot_pattern_expectancy	71.0	0.302	probe	BX	s579	False
526.875	0.5	526.874	0.5	AX	n/a	n/a	dot_pattern_expectancy	-1.0	n/a	cue	AX	s579	False
529.388	0.5	529.795	2.316	AX	1.0	89.0	dot_pattern_expectancy	89.0	0.407	probe	AX	s579	False
531.71	0.5	531.709	0.5	AY	n/a	n/a	dot_pattern_expectancy	-1.0	n/a	cue	AY	s579	False
534.223	0.5	534.712	2.044	AY	1.0	71.0	dot_pattern_expectancy	71.0	0.489	probe	AY	s579	False
536.274	0.5	536.273	0.5	AX	n/a	n/a	dot_pattern_expectancy	-1.0	n/a	cue	AX	s579	False
538.786	0.5	539.269	3.948	AX	1.0	89.0	dot_pattern_expectancy	89.0	0.483	probe	AX	s579	False
542.742	0.5	542.741	0.5	AX	n/a	n/a	dot_pattern_expectancy	-1.0	n/a	cue	AX	s579	False
545.255	0.5	545.728	1.636	AX	1.0	89.0	dot_pattern_expectancy	89.0	0.473	probe	AX	s579	False
557.417	0.5	557.416	0.5	AY	n/a	n/a	dot_pattern_expectancy	-1.0	n/a	cue	AY	s579	False
559.93	0.5	560.534	1.636	AY	1.0	71.0	dot_pattern_expectancy	71.0	0.604	probe	AY	s579	False
561.573	0.5	561.572	0.5	AX	n/a	n/a	dot_pattern_expectancy	-1.0	n/a	cue	AX	s579	False
564.087	0.5	564.494	1.636	AX	1.0	89.0	dot_pattern_expectancy	89.0	0.407	probe	AX	s579	False
565.73	0.5	565.729	0.5	AX	n/a	n/a	dot_pattern_expectancy	-1.0	n/a	cue	AX	s579	False
568.243	0.5	568.743	1.5	AX	1.0	89.0	dot_pattern_expectancy	89.0	0.5	probe	AX	s579	False
569.751	0.5	569.75	0.5	AX	n/a	n/a	dot_pattern_expectancy	-1.0	n/a	cue	AX	s579	False
572.259	0.5	572.622	1.5	AX	1.0	89.0	dot_pattern_expectancy	89.0	0.363	probe	AX	s579	False
573.763	0.5	573.762	0.5	AX	n/a	n/a	dot_pattern_expectancy	-1.0	n/a	cue	AX	s579	False
576.276	0.5	576.734	1.908	AX	1.0	89.0	dot_pattern_expectancy	89.0	0.458	probe	AX	s579	False
578.189	0.5	578.188	0.5	BX	n/a	n/a	dot_pattern_expectancy	-1.0	n/a	cue	BX	s579	False
580.703	0.5	581.017	1.636	BX	1.0	71.0	dot_pattern_expectancy	71.0	0.314	probe	BX	s579	False
582.346	0.5	582.345	0.5	AX	n/a	n/a	dot_pattern_expectancy	-1.0	n/a	cue	AX	s579	False
584.86	0.5	585.344	2.044	AX	1.0	89.0	dot_pattern_expectancy	89.0	0.484	probe	AX	s579	False
586.911	0.5	586.91	0.5	AX	n/a	n/a	dot_pattern_expectancy	-1.0	n/a	cue	AX	s579	False
589.423	0.5	589.968	1.772	AX	1.0	89.0	dot_pattern_expectancy	89.0	0.545	probe	AX	s579	False
591.202	0.5	591.201	0.5	AX	n/a	n/a	dot_pattern_expectancy	-1.0	n/a	cue	AX	s579	False
593.715	0.5	594.132	1.5	AX	1.0	89.0	dot_pattern_expectancy	89.0	0.417	probe	AX	s579	False
595.223	0.5	595.222	0.5	AX	n/a	n/a	dot_pattern_expectancy	-1.0	n/a	cue	AX	s579	False
597.733	0.5	598.281	2.18	AX	1.0	89.0	dot_pattern_expectancy	89.0	0.548	probe	AX	s579	False
599.92	0.5	599.919	0.5	AX	n/a	n/a	dot_pattern_expectancy	-1.0	n/a	cue	AX	s579	False
602.43	0.5	602.888	1.5	AX	1.0	89.0	dot_pattern_expectancy	89.0	0.458	probe	AX	s579	False
603.936	0.5	603.935	0.5	BX	n/a	n/a	dot_pattern_expectancy	-1.0	n/a	cue	BX	s579	False
606.444	0.5	606.732	3.676	BX	1.0	71.0	dot_pattern_expectancy	71.0	0.288	probe	BX	s579	False
610.125	0.5	610.124	0.5	BY	n/a	n/a	dot_pattern_expectancy	-1.0	n/a	cue	BY	s579	False
612.637	0.5	612.861	1.636	BY	1.0	71.0	dot_pattern_expectancy	71.0	0.224	probe	BY	s579	False
614.277	0.5	614.276	0.5	BY	n/a	n/a	dot_pattern_expectancy	-1.0	n/a	cue	BY	s579	False
616.781	0.5	617.376	1.636	BY	1.0	71.0	dot_pattern_expectancy	71.0	0.595	probe	BY	s579	False
618.422	0.5	618.421	0.5	BX	n/a	n/a	dot_pattern_expectancy	-1.0	n/a	cue	BX	s579	False
620.935	0.5	621.173	1.5	BX	1.0	71.0	dot_pattern_expectancy	71.0	0.238	probe	BX	s579	False
622.44	0.5	622.439	0.5	AX	n/a	n/a	dot_pattern_expectancy	-1.0	n/a	cue	AX	s579	False
624.949	0.5	625.265	1.908	AX	1.0	89.0	dot_pattern_expectancy	89.0	0.316	probe	AX	s579	False
626.865	0.5	626.864	0.5	AX	n/a	n/a	dot_pattern_expectancy	-1.0	n/a	cue	AX	s579	False
629.369	0.5	629.718	1.636	AX	1.0	89.0	dot_pattern_expectancy	89.0	0.349	probe	AX	s579	False
631.013	0.5	631.012	0.5	BX	n/a	n/a	dot_pattern_expectancy	-1.0	n/a	cue	BX	s579	False
633.526	0.5	633.85	1.5	BX	1.0	71.0	dot_pattern_expectancy	71.0	0.324	probe	BX	s579	False
635.033	0.5	635.032	0.5	AX	n/a	n/a	dot_pattern_expectancy	-1.0	n/a	cue	AX	s579	False
637.546	0.5	637.92	1.908	AX	1.0	89.0	dot_pattern_expectancy	89.0	0.374	probe	AX	s579	False
639.461	0.5	639.46	0.5	BY	n/a	n/a	dot_pattern_expectancy	-1.0	n/a	cue	BY	s579	False
641.974	0.5	642.276	2.18	BY	1.0	71.0	dot_pattern_expectancy	71.0	0.302	probe	BY	s579	False
644.157	0.5	644.156	0.5	AX	n/a	n/a	dot_pattern_expectancy	-1.0	n/a	cue	AX	s579	False
646.665	0.5	646.962	1.772	AX	1.0	89.0	dot_pattern_expectancy	89.0	0.297	probe	AX	s579	False
648.446	0.5	648.445	0.5	AX	n/a	n/a	dot_pattern_expectancy	-1.0	n/a	cue	AX	s579	False
650.955	0.5	651.438	1.5	AX	1.0	89.0	dot_pattern_expectancy	89.0	0.483	probe	AX	s579	False
652.462	0.5	652.461	0.5	AX	n/a	n/a	dot_pattern_expectancy	-1.0	n/a	cue	AX	s579	False
654.975	0.5	655.368	1.5	AX	1.0	89.0	dot_pattern_expectancy	89.0	0.393	probe	AX	s579	False
656.482	0.5	656.481	0.5	AX	n/a	n/a	dot_pattern_expectancy	-1.0	n/a	cue	AX	s579	False
658.996	0.5	659.442	2.044	AX	1.0	89.0	dot_pattern_expectancy	89.0	0.446	probe	AX	s579	False
661.048	0.5	661.047	0.5	AX	n/a	n/a	dot_pattern_expectancy	-1.0	n/a	cue	AX	s579	False
663.556	0.5	663.992	2.86	AX	1.0	89.0	dot_pattern_expectancy	89.0	0.436	probe	AX	s579	False
666.419	0.5	666.418	0.5	BX	n/a	n/a	dot_pattern_expectancy	-1.0	n/a	cue	BX	s579	False
668.932	0.5	669.243	1.5	BX	1.0	71.0	dot_pattern_expectancy	71.0	0.311	probe	BX	s579	False
670.435	0.5	670.434	0.5	BY	n/a	n/a	dot_pattern_expectancy	-1.0	n/a	cue	BY	s579	False
672.943	0.5	673.21	1.772	BY	1.0	71.0	dot_pattern_expectancy	71.0	0.267	probe	BY	s579	False
674.723	0.5	674.722	0.5	AX	n/a	n/a	dot_pattern_expectancy	-1.0	n/a	cue	AX	s579	False
677.226	0.5	677.511	1.772	AX	1.0	89.0	dot_pattern_expectancy	89.0	0.285	probe	AX	s579	False
679.003	0.5	679.002	0.5	AX	n/a	n/a	dot_pattern_expectancy	-1.0	n/a	cue	AX	s579	False
681.512	0.5	681.909	2.86	AX	1.0	89.0	dot_pattern_expectancy	89.0	0.397	probe	AX	s579	False
684.376	0.5	684.375	0.5	AX	n/a	n/a	dot_pattern_expectancy	-1.0	n/a	cue	AX	s579	False
686.884	0.5	687.271	1.772	AX	1.0	89.0	dot_pattern_expectancy	89.0	0.387	probe	AX	s579	False
688.661	0.5	688.66	0.5	BX	n/a	n/a	dot_pattern_expectancy	-1.0	n/a	cue	BX	s579	False
691.171	0.5	691.463	1.636	BX	1.0	71.0	dot_pattern_expectancy	71.0	0.292	probe	BX	s579	False
692.815	0.5	692.814	0.5	BX	n/a	n/a	dot_pattern_expectancy	-1.0	n/a	cue	BX	s579	False
695.329	0.5	695.57	2.452	BX	1.0	71.0	dot_pattern_expectancy	71.0	0.241	probe	BX	s579	False
697.788	0.5	697.787	0.5	AX	n/a	n/a	dot_pattern_expectancy	-1.0	n/a	cue	AX	s579	False
700.298	0.5	700.641	1.636	AX	1.0	89.0	dot_pattern_expectancy	89.0	0.343	probe	AX	s579	False
701.937	0.5	701.936	0.5	BX	n/a	n/a	dot_pattern_expectancy	-1.0	n/a	cue	BX	s579	False
704.445	0.5	704.509	1.5	BX	1.0	71.0	dot_pattern_expectancy	71.0	0.064	probe	BX	s579	False
705.953	0.5	705.952	0.5	AX	n/a	n/a	dot_pattern_expectancy	-1.0	n/a	cue	AX	s579	False
708.463	0.5	708.776	1.636	AX	1.0	89.0	dot_pattern_expectancy	89.0	0.313	probe	AX	s579	False
710.103	0.5	710.102	0.5	AX	n/a	n/a	dot_pattern_expectancy	-1.0	n/a	cue	AX	s579	False
712.612	0.5	713.005	1.636	AX	1.0	89.0	dot_pattern_expectancy	89.0	0.393	probe	AX	s579	False
714.255	0.5	714.254	0.5	BY	n/a	n/a	dot_pattern_expectancy	-1.0	n/a	cue	BY	s579	False
716.767	0.5	717.304	2.18	BY	1.0	71.0	dot_pattern_expectancy	71.0	0.537	probe	BY	s579	False
718.952	0.5	718.951	0.5	AX	n/a	n/a	dot_pattern_expectancy	-1.0	n/a	cue	AX	s579	False
721.465	0.5	721.766	1.5	AX	1.0	89.0	dot_pattern_expectancy	89.0	0.301	probe	AX	s579	False
722.973	0.5	722.972	0.5	AY	n/a	n/a	dot_pattern_expectancy	-1.0	n/a	cue	AY	s579	False
725.487	0.5	726.117	1.636	AY	1.0	71.0	dot_pattern_expectancy	71.0	0.63	probe	AY	s579	False
727.125	0.5	727.124	0.5	AX	n/a	n/a	dot_pattern_expectancy	-1.0	n/a	cue	AX	s579	False
729.635	0.5	729.953	1.636	AX	1.0	89.0	dot_pattern_expectancy	89.0	0.318	probe	AX	s579	False
