duration	onset	block_duration	movement_onset	planning	condition	exp_stage	experiment_exp_id	key_press	problem_id	response_time	trial_id	trial_type	worker_id	junk
4.186	3.017	4.186	7.203	1	UA_with_intermediate	practice	ward_and_allport	71	0.0	4.186	to_hand	poldrack-single-stim	s579	False
0.1	7.204	1.468	8.672	0	UA_with_intermediate	practice	ward_and_allport	82	0.0	1.468	to_board	poldrack-single-stim	s579	False
0.1	8.673	0.483	9.156	0	UA_with_intermediate	practice	ward_and_allport	71	0.0	0.483	to_hand	poldrack-single-stim	s579	False
0.1	9.157	0.493	9.65	0	UA_with_intermediate	practice	ward_and_allport	89	0.0	0.493	to_board	poldrack-single-stim	s579	False
0.1	9.651	1.466	11.117	0	UA_with_intermediate	practice	ward_and_allport	82	0.0	1.466	to_hand	poldrack-single-stim	s579	False
0.1	11.118	0.695	11.813	0	UA_with_intermediate	practice	ward_and_allport	89	0.0	0.695	to_board	poldrack-single-stim	s579	False
1.0	11.818	2.5	11.817	0	UA_with_intermediate	practice	ward_and_allport	-1	0.0	n/a	feedback	poldrack-single-stim	s579	False
3.404	14.321	3.404	17.725	1	UA_with_intermediate	practice	ward_and_allport	89	1.0	3.404	to_hand	poldrack-single-stim	s579	False
0.1	17.726	0.754	18.48	0	UA_with_intermediate	practice	ward_and_allport	82	1.0	0.754	to_board	poldrack-single-stim	s579	False
0.1	18.48	1.051	19.531	0	UA_with_intermediate	practice	ward_and_allport	71	1.0	1.051	to_hand	poldrack-single-stim	s579	False
0.1	19.533	0.456	19.989	0	UA_with_intermediate	practice	ward_and_allport	89	1.0	0.456	to_board	poldrack-single-stim	s579	False
0.1	19.991	0.826	20.817	0	UA_with_intermediate	practice	ward_and_allport	82	1.0	0.826	to_hand	poldrack-single-stim	s579	False
0.1	20.818	0.398	21.216	0	UA_with_intermediate	practice	ward_and_allport	89	1.0	0.398	to_board	poldrack-single-stim	s579	False
1.0	21.221	2.1	21.22	0	UA_with_intermediate	practice	ward_and_allport	-1	1.0	n/a	feedback	poldrack-single-stim	s579	False
2.528	23.322	2.528	25.85	1	UA_without_intermediate	practice	ward_and_allport	82	2.0	2.528	to_hand	poldrack-single-stim	s579	False
0.1	25.852	0.497	26.349	0	UA_without_intermediate	practice	ward_and_allport	89	2.0	0.497	to_board	poldrack-single-stim	s579	False
0.1	26.351	1.479	27.83	0	UA_without_intermediate	practice	ward_and_allport	71	2.0	1.479	to_hand	poldrack-single-stim	s579	False
0.1	27.831	0.522	28.353	0	UA_without_intermediate	practice	ward_and_allport	89	2.0	0.522	to_board	poldrack-single-stim	s579	False
0.1	28.355	0.772	29.127	0	UA_without_intermediate	practice	ward_and_allport	71	2.0	0.772	to_hand	poldrack-single-stim	s579	False
0.1	29.127	0.363	29.49	0	UA_without_intermediate	practice	ward_and_allport	89	2.0	0.363	to_board	poldrack-single-stim	s579	False
1.0	29.495	2.2	29.494	0	UA_without_intermediate	practice	ward_and_allport	-1	2.0	n/a	feedback	poldrack-single-stim	s579	False
2.982	31.696	2.982	34.678	1	UA_without_intermediate	practice	ward_and_allport	71	3.0	2.982	to_hand	poldrack-single-stim	s579	False
0.1	34.68	0.381	35.061	0	UA_without_intermediate	practice	ward_and_allport	89	3.0	0.381	to_board	poldrack-single-stim	s579	False
0.1	35.063	0.494	35.557	0	UA_without_intermediate	practice	ward_and_allport	82	3.0	0.494	to_hand	poldrack-single-stim	s579	False
0.1	35.558	0.517	36.075	0	UA_without_intermediate	practice	ward_and_allport	89	3.0	0.517	to_board	poldrack-single-stim	s579	False
0.1	36.076	0.543	36.619	0	UA_without_intermediate	practice	ward_and_allport	71	3.0	0.543	to_hand	poldrack-single-stim	s579	False
0.1	36.62	0.341	36.961	0	UA_without_intermediate	practice	ward_and_allport	89	3.0	0.341	to_board	poldrack-single-stim	s579	False
1.0	36.964	2.0	36.963	0	UA_without_intermediate	practice	ward_and_allport	-1	3.0	n/a	feedback	poldrack-single-stim	s579	False
6.582	40.97	6.582	47.552	1	PA_with_intermediate	test	ward_and_allport	82	0.0	6.582	to_hand	poldrack-single-stim	s579	False
0.1	47.553	0.788	48.341	0	PA_with_intermediate	test	ward_and_allport	71	0.0	0.788	to_board	poldrack-single-stim	s579	False
0.1	48.344	1.024	49.368	0	PA_with_intermediate	test	ward_and_allport	71	0.0	1.024	to_hand	poldrack-single-stim	s579	False
0.1	49.369	1.021	50.39	0	PA_with_intermediate	test	ward_and_allport	71	0.0	1.021	to_board	poldrack-single-stim	s579	False
0.1	50.392	0.458	50.85	0	PA_with_intermediate	test	ward_and_allport	82	0.0	0.458	to_hand	poldrack-single-stim	s579	False
0.1	50.85	0.415	51.265	0	PA_with_intermediate	test	ward_and_allport	89	0.0	0.415	to_board	poldrack-single-stim	s579	False
0.1	51.266	1.711	52.977	0	PA_with_intermediate	test	ward_and_allport	71	0.0	1.711	to_hand	poldrack-single-stim	s579	False
0.1	52.978	0.812	53.79	0	PA_with_intermediate	test	ward_and_allport	82	0.0	0.812	to_board	poldrack-single-stim	s579	False
1.0	53.795	2.408	53.794	0	PA_with_intermediate	test	ward_and_allport	-1	0.0	n/a	feedback	poldrack-single-stim	s579	False
3.905	56.204	3.905	60.109	1	PA_without_intermediate	test	ward_and_allport	71	1.0	3.905	to_hand	poldrack-single-stim	s579	False
0.1	60.111	0.85	60.961	0	PA_without_intermediate	test	ward_and_allport	89	1.0	0.85	to_board	poldrack-single-stim	s579	False
0.1	60.963	1.566	62.529	0	PA_without_intermediate	test	ward_and_allport	89	1.0	1.566	to_hand	poldrack-single-stim	s579	False
0.1	62.529	0.39	62.919	0	PA_without_intermediate	test	ward_and_allport	82	1.0	0.39	to_board	poldrack-single-stim	s579	False
0.1	62.922	1.297	64.219	0	PA_without_intermediate	test	ward_and_allport	71	1.0	1.297	to_hand	poldrack-single-stim	s579	False
0.1	64.22	0.633	64.853	0	PA_without_intermediate	test	ward_and_allport	82	1.0	0.633	to_board	poldrack-single-stim	s579	False
0.1	64.855	0.63	65.485	0	PA_without_intermediate	test	ward_and_allport	71	1.0	0.63	to_hand	poldrack-single-stim	s579	False
0.1	65.486	0.416	65.902	0	PA_without_intermediate	test	ward_and_allport	89	1.0	0.416	to_board	poldrack-single-stim	s579	False
1.0	65.907	2.68	65.906	0	PA_without_intermediate	test	ward_and_allport	-1	1.0	n/a	feedback	poldrack-single-stim	s579	False
5.581	68.59	5.581	74.171	1	PA_with_intermediate	test	ward_and_allport	82	2.0	5.581	to_hand	poldrack-single-stim	s579	False
0.1	74.172	0.392	74.564	0	PA_with_intermediate	test	ward_and_allport	71	2.0	0.392	to_board	poldrack-single-stim	s579	False
0.1	74.566	0.67	75.236	0	PA_with_intermediate	test	ward_and_allport	82	2.0	0.67	to_hand	poldrack-single-stim	s579	False
0.1	75.237	0.395	75.632	0	PA_with_intermediate	test	ward_and_allport	89	2.0	0.395	to_board	poldrack-single-stim	s579	False
0.1	75.634	0.617	76.251	0	PA_with_intermediate	test	ward_and_allport	71	2.0	0.617	to_hand	poldrack-single-stim	s579	False
0.1	76.253	0.468	76.721	0	PA_with_intermediate	test	ward_and_allport	82	2.0	0.468	to_board	poldrack-single-stim	s579	False
1.0	76.727	4.72	76.726	0	PA_with_intermediate	test	ward_and_allport	-1	2.0	n/a	feedback	poldrack-single-stim	s579	False
5.056	81.45	5.056	86.506	1	PA_without_intermediate	test	ward_and_allport	82	3.0	5.056	to_hand	poldrack-single-stim	s579	False
0.1	86.507	0.403	86.91	0	PA_without_intermediate	test	ward_and_allport	89	3.0	0.403	to_board	poldrack-single-stim	s579	False
0.1	86.913	0.715	87.628	0	PA_without_intermediate	test	ward_and_allport	82	3.0	0.715	to_hand	poldrack-single-stim	s579	False
0.1	87.629	0.546	88.175	0	PA_without_intermediate	test	ward_and_allport	71	3.0	0.546	to_board	poldrack-single-stim	s579	False
0.1	88.179	0.59	88.769	0	PA_without_intermediate	test	ward_and_allport	82	3.0	0.59	to_hand	poldrack-single-stim	s579	False
0.1	88.77	0.462	89.232	0	PA_without_intermediate	test	ward_and_allport	89	3.0	0.462	to_board	poldrack-single-stim	s579	False
1.0	89.236	3.224	89.235	0	PA_without_intermediate	test	ward_and_allport	-1	3.0	n/a	feedback	poldrack-single-stim	s579	False
4.069	92.463	4.069	96.532	1	PA_without_intermediate	test	ward_and_allport	71	4.0	4.069	to_hand	poldrack-single-stim	s579	False
0.1	96.533	0.331	96.864	0	PA_without_intermediate	test	ward_and_allport	82	4.0	0.331	to_board	poldrack-single-stim	s579	False
0.1	96.866	0.459	97.325	0	PA_without_intermediate	test	ward_and_allport	71	4.0	0.459	to_hand	poldrack-single-stim	s579	False
0.1	97.327	0.347	97.674	0	PA_without_intermediate	test	ward_and_allport	89	4.0	0.347	to_board	poldrack-single-stim	s579	False
0.1	97.676	0.398	98.074	0	PA_without_intermediate	test	ward_and_allport	71	4.0	0.398	to_hand	poldrack-single-stim	s579	False
0.1	98.076	0.333	98.409	0	PA_without_intermediate	test	ward_and_allport	82	4.0	0.333	to_board	poldrack-single-stim	s579	False
1.0	98.413	2.272	98.412	0	PA_without_intermediate	test	ward_and_allport	-1	4.0	n/a	feedback	poldrack-single-stim	s579	False
3.615	100.687	3.615	104.302	1	PA_with_intermediate	test	ward_and_allport	89	5.0	3.615	to_hand	poldrack-single-stim	s579	False
0.1	104.303	0.391	104.694	0	PA_with_intermediate	test	ward_and_allport	82	5.0	0.391	to_board	poldrack-single-stim	s579	False
0.1	104.698	0.911	105.609	0	PA_with_intermediate	test	ward_and_allport	89	5.0	0.911	to_hand	poldrack-single-stim	s579	False
0.1	105.61	0.404	106.014	0	PA_with_intermediate	test	ward_and_allport	71	5.0	0.404	to_board	poldrack-single-stim	s579	False
0.1	106.016	0.782	106.798	0	PA_with_intermediate	test	ward_and_allport	82	5.0	0.782	to_hand	poldrack-single-stim	s579	False
0.1	106.8	0.659	107.459	0	PA_with_intermediate	test	ward_and_allport	71	5.0	0.659	to_board	poldrack-single-stim	s579	False
1.0	107.464	3.632	107.463	0	PA_with_intermediate	test	ward_and_allport	-1	5.0	n/a	feedback	poldrack-single-stim	s579	False
3.44	111.099	3.44	114.539	1	PA_without_intermediate	test	ward_and_allport	82	6.0	3.44	to_hand	poldrack-single-stim	s579	False
0.1	114.54	0.527	115.067	0	PA_without_intermediate	test	ward_and_allport	71	6.0	0.527	to_board	poldrack-single-stim	s579	False
0.1	115.07	0.621	115.691	0	PA_without_intermediate	test	ward_and_allport	82	6.0	0.621	to_hand	poldrack-single-stim	s579	False
0.1	115.692	0.6	116.292	0	PA_without_intermediate	test	ward_and_allport	71	6.0	0.6	to_board	poldrack-single-stim	s579	False
0.1	116.295	0.426	116.721	0	PA_without_intermediate	test	ward_and_allport	82	6.0	0.426	to_hand	poldrack-single-stim	s579	False
0.1	116.722	0.461	117.183	0	PA_without_intermediate	test	ward_and_allport	89	6.0	0.461	to_board	poldrack-single-stim	s579	False
1.0	117.189	2.408	117.188	0	PA_without_intermediate	test	ward_and_allport	-1	6.0	n/a	feedback	poldrack-single-stim	s579	False
3.052	119.6	3.052	122.652	1	PA_without_intermediate	test	ward_and_allport	71	7.0	3.052	to_hand	poldrack-single-stim	s579	False
0.1	122.653	0.374	123.027	0	PA_without_intermediate	test	ward_and_allport	82	7.0	0.374	to_board	poldrack-single-stim	s579	False
0.1	123.03	0.4	123.43	0	PA_without_intermediate	test	ward_and_allport	71	7.0	0.4	to_hand	poldrack-single-stim	s579	False
0.1	123.432	0.412	123.844	0	PA_without_intermediate	test	ward_and_allport	89	7.0	0.412	to_board	poldrack-single-stim	s579	False
0.1	123.847	0.412	124.259	0	PA_without_intermediate	test	ward_and_allport	71	7.0	0.412	to_hand	poldrack-single-stim	s579	False
0.1	124.26	0.386	124.646	0	PA_without_intermediate	test	ward_and_allport	82	7.0	0.386	to_board	poldrack-single-stim	s579	False
1.0	124.654	2.0	124.653	0	PA_without_intermediate	test	ward_and_allport	-1	7.0	n/a	feedback	poldrack-single-stim	s579	False
3.911	126.657	3.911	130.568	1	PA_with_intermediate	test	ward_and_allport	89	8.0	3.911	to_hand	poldrack-single-stim	s579	False
0.1	130.569	0.321	130.89	0	PA_with_intermediate	test	ward_and_allport	71	8.0	0.321	to_board	poldrack-single-stim	s579	False
0.1	130.894	0.568	131.462	0	PA_with_intermediate	test	ward_and_allport	89	8.0	0.568	to_hand	poldrack-single-stim	s579	False
0.1	131.462	0.42	131.882	0	PA_with_intermediate	test	ward_and_allport	82	8.0	0.42	to_board	poldrack-single-stim	s579	False
0.1	131.885	0.461	132.346	0	PA_with_intermediate	test	ward_and_allport	71	8.0	0.461	to_hand	poldrack-single-stim	s579	False
0.1	132.348	0.438	132.786	0	PA_with_intermediate	test	ward_and_allport	89	8.0	0.438	to_board	poldrack-single-stim	s579	False
1.0	132.793	2.0	132.792	0	PA_with_intermediate	test	ward_and_allport	-1	8.0	n/a	feedback	poldrack-single-stim	s579	False
3.713	134.796	3.713	138.509	1	PA_with_intermediate	test	ward_and_allport	89	9.0	3.713	to_hand	poldrack-single-stim	s579	False
0.1	138.511	0.423	138.934	0	PA_with_intermediate	test	ward_and_allport	82	9.0	0.423	to_board	poldrack-single-stim	s579	False
0.1	138.938	0.503	139.441	0	PA_with_intermediate	test	ward_and_allport	89	9.0	0.503	to_hand	poldrack-single-stim	s579	False
0.1	139.441	0.403	139.844	0	PA_with_intermediate	test	ward_and_allport	71	9.0	0.403	to_board	poldrack-single-stim	s579	False
0.1	139.848	0.548	140.396	0	PA_with_intermediate	test	ward_and_allport	82	9.0	0.548	to_hand	poldrack-single-stim	s579	False
0.1	140.396	0.37	140.766	0	PA_with_intermediate	test	ward_and_allport	89	9.0	0.37	to_board	poldrack-single-stim	s579	False
1.0	140.772	2.0	140.771	0	PA_with_intermediate	test	ward_and_allport	-1	9.0	n/a	feedback	poldrack-single-stim	s579	False
2.478	142.776	2.478	145.254	1	PA_with_intermediate	test	ward_and_allport	71	10.0	2.478	to_hand	poldrack-single-stim	s579	False
0.1	145.256	0.392	145.648	0	PA_with_intermediate	test	ward_and_allport	89	10.0	0.392	to_board	poldrack-single-stim	s579	False
0.1	145.653	0.492	146.145	0	PA_with_intermediate	test	ward_and_allport	71	10.0	0.492	to_hand	poldrack-single-stim	s579	False
0.1	146.145	0.5	146.645	0	PA_with_intermediate	test	ward_and_allport	82	10.0	0.5	to_board	poldrack-single-stim	s579	False
0.1	146.649	0.459	147.108	0	PA_with_intermediate	test	ward_and_allport	89	10.0	0.459	to_hand	poldrack-single-stim	s579	False
0.1	147.109	1.138	148.247	0	PA_with_intermediate	test	ward_and_allport	82	10.0	1.138	to_board	poldrack-single-stim	s579	False
1.0	148.252	2.408	148.251	0	PA_with_intermediate	test	ward_and_allport	-1	10.0	n/a	feedback	poldrack-single-stim	s579	False
2.905	150.665	2.905	153.57	1	PA_without_intermediate	test	ward_and_allport	82	11.0	2.905	to_hand	poldrack-single-stim	s579	False
0.1	153.571	0.408	153.979	0	PA_without_intermediate	test	ward_and_allport	89	11.0	0.408	to_board	poldrack-single-stim	s579	False
0.1	153.983	0.684	154.667	0	PA_without_intermediate	test	ward_and_allport	82	11.0	0.684	to_hand	poldrack-single-stim	s579	False
0.1	154.668	0.548	155.216	0	PA_without_intermediate	test	ward_and_allport	89	11.0	0.548	to_board	poldrack-single-stim	s579	False
0.1	155.22	0.871	156.091	0	PA_without_intermediate	test	ward_and_allport	82	11.0	0.871	to_hand	poldrack-single-stim	s579	False
0.1	156.092	0.522	156.614	0	PA_without_intermediate	test	ward_and_allport	71	11.0	0.522	to_board	poldrack-single-stim	s579	False
1.0	156.618	2.816	156.617	0	PA_without_intermediate	test	ward_and_allport	-1	11.0	n/a	feedback	poldrack-single-stim	s579	False
2.346	159.439	2.346	161.785	1	PA_with_intermediate	test	ward_and_allport	71	12.0	2.346	to_hand	poldrack-single-stim	s579	False
0.1	161.787	0.376	162.163	0	PA_with_intermediate	test	ward_and_allport	89	12.0	0.376	to_board	poldrack-single-stim	s579	False
0.1	162.168	0.443	162.611	0	PA_with_intermediate	test	ward_and_allport	71	12.0	0.443	to_hand	poldrack-single-stim	s579	False
0.1	162.612	0.49	163.102	0	PA_with_intermediate	test	ward_and_allport	82	12.0	0.49	to_board	poldrack-single-stim	s579	False
0.1	163.106	0.397	163.503	0	PA_with_intermediate	test	ward_and_allport	89	12.0	0.397	to_hand	poldrack-single-stim	s579	False
0.1	163.504	0.667	164.171	0	PA_with_intermediate	test	ward_and_allport	82	12.0	0.667	to_board	poldrack-single-stim	s579	False
1.0	164.181	4.176	164.18	0	PA_with_intermediate	test	ward_and_allport	-1	12.0	n/a	feedback	poldrack-single-stim	s579	False
3.786	168.36	3.786	172.146	1	PA_with_intermediate	test	ward_and_allport	71	13.0	3.786	to_hand	poldrack-single-stim	s579	False
0.1	172.147	0.446	172.593	0	PA_with_intermediate	test	ward_and_allport	82	13.0	0.446	to_board	poldrack-single-stim	s579	False
0.1	172.598	0.427	173.025	0	PA_with_intermediate	test	ward_and_allport	71	13.0	0.427	to_hand	poldrack-single-stim	s579	False
0.1	173.025	0.398	173.423	0	PA_with_intermediate	test	ward_and_allport	89	13.0	0.398	to_board	poldrack-single-stim	s579	False
0.1	173.427	0.432	173.859	0	PA_with_intermediate	test	ward_and_allport	82	13.0	0.432	to_hand	poldrack-single-stim	s579	False
0.1	173.861	0.394	174.255	0	PA_with_intermediate	test	ward_and_allport	89	13.0	0.394	to_board	poldrack-single-stim	s579	False
1.0	174.261	3.36	174.26	0	PA_with_intermediate	test	ward_and_allport	-1	13.0	n/a	feedback	poldrack-single-stim	s579	False
2.568	177.625	2.568	180.193	1	PA_with_intermediate	test	ward_and_allport	71	14.0	2.568	to_hand	poldrack-single-stim	s579	False
0.1	180.193	0.437	180.63	0	PA_with_intermediate	test	ward_and_allport	82	14.0	0.437	to_board	poldrack-single-stim	s579	False
0.1	180.634	0.412	181.046	0	PA_with_intermediate	test	ward_and_allport	71	14.0	0.412	to_hand	poldrack-single-stim	s579	False
0.1	181.048	0.356	181.404	0	PA_with_intermediate	test	ward_and_allport	89	14.0	0.356	to_board	poldrack-single-stim	s579	False
0.1	181.409	0.371	181.78	0	PA_with_intermediate	test	ward_and_allport	82	14.0	0.371	to_hand	poldrack-single-stim	s579	False
0.1	181.781	0.339	182.12	0	PA_with_intermediate	test	ward_and_allport	71	14.0	0.339	to_board	poldrack-single-stim	s579	False
1.0	182.128	2.0	182.127	0	PA_with_intermediate	test	ward_and_allport	-1	14.0	n/a	feedback	poldrack-single-stim	s579	False
4.865	189.136	4.865	194.001	1	PA_without_intermediate	test	ward_and_allport	71	15.0	4.865	to_hand	poldrack-single-stim	s579	False
0.1	194.002	0.378	194.38	0	PA_without_intermediate	test	ward_and_allport	89	15.0	0.378	to_board	poldrack-single-stim	s579	False
0.1	194.383	0.382	194.765	0	PA_without_intermediate	test	ward_and_allport	71	15.0	0.382	to_hand	poldrack-single-stim	s579	False
0.1	194.766	0.432	195.198	0	PA_without_intermediate	test	ward_and_allport	82	15.0	0.432	to_board	poldrack-single-stim	s579	False
0.1	195.203	0.618	195.821	0	PA_without_intermediate	test	ward_and_allport	71	15.0	0.618	to_hand	poldrack-single-stim	s579	False
0.1	195.822	0.36	196.182	0	PA_without_intermediate	test	ward_and_allport	89	15.0	0.36	to_board	poldrack-single-stim	s579	False
1.0	196.189	2.408	196.188	0	PA_without_intermediate	test	ward_and_allport	-1	15.0	n/a	feedback	poldrack-single-stim	s579	False
3.501	198.601	3.501	202.102	1	PA_with_intermediate	test	ward_and_allport	89	16.0	3.501	to_hand	poldrack-single-stim	s579	False
0.1	202.104	0.42	202.524	0	PA_with_intermediate	test	ward_and_allport	71	16.0	0.42	to_board	poldrack-single-stim	s579	False
0.1	202.528	0.39	202.918	0	PA_with_intermediate	test	ward_and_allport	89	16.0	0.39	to_hand	poldrack-single-stim	s579	False
0.1	202.919	0.445	203.364	0	PA_with_intermediate	test	ward_and_allport	82	16.0	0.445	to_board	poldrack-single-stim	s579	False
0.1	203.369	0.395	203.764	0	PA_with_intermediate	test	ward_and_allport	71	16.0	0.395	to_hand	poldrack-single-stim	s579	False
0.1	203.765	0.457	204.222	0	PA_with_intermediate	test	ward_and_allport	82	16.0	0.457	to_board	poldrack-single-stim	s579	False
1.0	204.231	2.816	204.23	0	PA_with_intermediate	test	ward_and_allport	-1	16.0	n/a	feedback	poldrack-single-stim	s579	False
3.426	207.052	3.426	210.478	1	PA_without_intermediate	test	ward_and_allport	71	17.0	3.426	to_hand	poldrack-single-stim	s579	False
0.1	210.479	0.322	210.801	0	PA_without_intermediate	test	ward_and_allport	89	17.0	0.322	to_board	poldrack-single-stim	s579	False
0.1	210.804	0.352	211.156	0	PA_without_intermediate	test	ward_and_allport	71	17.0	0.352	to_hand	poldrack-single-stim	s579	False
0.1	211.157	0.392	211.549	0	PA_without_intermediate	test	ward_and_allport	82	17.0	0.392	to_board	poldrack-single-stim	s579	False
0.1	211.555	0.342	211.897	0	PA_without_intermediate	test	ward_and_allport	71	17.0	0.342	to_hand	poldrack-single-stim	s579	False
0.1	211.898	0.392	212.29	0	PA_without_intermediate	test	ward_and_allport	89	17.0	0.392	to_board	poldrack-single-stim	s579	False
1.0	212.295	3.088	212.294	0	PA_without_intermediate	test	ward_and_allport	-1	17.0	n/a	feedback	poldrack-single-stim	s579	False
3.182	215.387	3.182	218.569	1	PA_without_intermediate	test	ward_and_allport	89	18.0	3.182	to_hand	poldrack-single-stim	s579	False
0.1	218.57	0.357	218.927	0	PA_without_intermediate	test	ward_and_allport	82	18.0	0.357	to_board	poldrack-single-stim	s579	False
0.1	218.932	0.345	219.277	0	PA_without_intermediate	test	ward_and_allport	89	18.0	0.345	to_hand	poldrack-single-stim	s579	False
0.1	219.279	0.377	219.656	0	PA_without_intermediate	test	ward_and_allport	71	18.0	0.377	to_board	poldrack-single-stim	s579	False
0.1	219.66	0.338	219.998	0	PA_without_intermediate	test	ward_and_allport	89	18.0	0.338	to_hand	poldrack-single-stim	s579	False
0.1	220.0	0.497	220.497	0	PA_without_intermediate	test	ward_and_allport	82	18.0	0.497	to_board	poldrack-single-stim	s579	False
1.0	220.506	2.136	220.505	0	PA_without_intermediate	test	ward_and_allport	-1	18.0	n/a	feedback	poldrack-single-stim	s579	False
2.808	222.647	2.808	225.455	1	PA_without_intermediate	test	ward_and_allport	82	19.0	2.808	to_hand	poldrack-single-stim	s579	False
0.1	225.456	0.319	225.775	0	PA_without_intermediate	test	ward_and_allport	71	19.0	0.319	to_board	poldrack-single-stim	s579	False
0.1	225.78	0.395	226.175	0	PA_without_intermediate	test	ward_and_allport	82	19.0	0.395	to_hand	poldrack-single-stim	s579	False
0.1	226.176	0.377	226.553	0	PA_without_intermediate	test	ward_and_allport	89	19.0	0.377	to_board	poldrack-single-stim	s579	False
0.1	226.557	0.79	227.347	0	PA_without_intermediate	test	ward_and_allport	82	19.0	0.79	to_hand	poldrack-single-stim	s579	False
0.1	227.349	0.42	227.769	0	PA_without_intermediate	test	ward_and_allport	71	19.0	0.42	to_board	poldrack-single-stim	s579	False
1.0	227.778	7.168	227.777	0	PA_without_intermediate	test	ward_and_allport	-1	19.0	n/a	feedback	poldrack-single-stim	s579	False
3.485	234.951	3.485	238.436	1	PA_without_intermediate	test	ward_and_allport	82	20.0	3.485	to_hand	poldrack-single-stim	s579	False
0.1	238.438	0.3	238.738	0	PA_without_intermediate	test	ward_and_allport	71	20.0	0.3	to_board	poldrack-single-stim	s579	False
0.1	238.743	0.374	239.117	0	PA_without_intermediate	test	ward_and_allport	82	20.0	0.374	to_hand	poldrack-single-stim	s579	False
0.1	239.117	0.355	239.472	0	PA_without_intermediate	test	ward_and_allport	71	20.0	0.355	to_board	poldrack-single-stim	s579	False
0.1	239.477	0.415	239.892	0	PA_without_intermediate	test	ward_and_allport	82	20.0	0.415	to_hand	poldrack-single-stim	s579	False
0.1	239.894	0.313	240.207	0	PA_without_intermediate	test	ward_and_allport	89	20.0	0.313	to_board	poldrack-single-stim	s579	False
1.0	240.216	2.816	240.215	0	PA_without_intermediate	test	ward_and_allport	-1	20.0	n/a	feedback	poldrack-single-stim	s579	False
5.468	243.037	5.468	248.505	1	PA_with_intermediate	test	ward_and_allport	89	21.0	5.468	to_hand	poldrack-single-stim	s579	False
0.1	248.507	0.3	248.807	0	PA_with_intermediate	test	ward_and_allport	71	21.0	0.3	to_board	poldrack-single-stim	s579	False
0.1	248.812	0.334	249.146	0	PA_with_intermediate	test	ward_and_allport	89	21.0	0.334	to_hand	poldrack-single-stim	s579	False
0.1	249.147	0.422	249.569	0	PA_with_intermediate	test	ward_and_allport	82	21.0	0.422	to_board	poldrack-single-stim	s579	False
0.1	249.575	0.406	249.981	0	PA_with_intermediate	test	ward_and_allport	71	21.0	0.406	to_hand	poldrack-single-stim	s579	False
0.1	249.981	0.3	250.281	0	PA_with_intermediate	test	ward_and_allport	89	21.0	0.3	to_board	poldrack-single-stim	s579	False
1.0	250.289	2.952	250.288	0	PA_with_intermediate	test	ward_and_allport	-1	21.0	n/a	feedback	poldrack-single-stim	s579	False
2.849	253.246	2.849	256.095	1	PA_with_intermediate	test	ward_and_allport	71	22.0	2.849	to_hand	poldrack-single-stim	s579	False
0.1	256.095	0.305	256.4	0	PA_with_intermediate	test	ward_and_allport	89	22.0	0.305	to_board	poldrack-single-stim	s579	False
0.1	256.406	0.329	256.735	0	PA_with_intermediate	test	ward_and_allport	71	22.0	0.329	to_hand	poldrack-single-stim	s579	False
0.1	256.736	0.375	257.111	0	PA_with_intermediate	test	ward_and_allport	82	22.0	0.375	to_board	poldrack-single-stim	s579	False
0.1	257.116	0.293	257.409	0	PA_with_intermediate	test	ward_and_allport	89	22.0	0.293	to_hand	poldrack-single-stim	s579	False
0.1	257.411	0.327	257.738	0	PA_with_intermediate	test	ward_and_allport	71	22.0	0.327	to_board	poldrack-single-stim	s579	False
1.0	257.745	2.136	257.744	0	PA_with_intermediate	test	ward_and_allport	-1	22.0	n/a	feedback	poldrack-single-stim	s579	False
4.598	259.887	4.598	264.485	1	PA_without_intermediate	test	ward_and_allport	89	23.0	4.598	to_hand	poldrack-single-stim	s579	False
0.1	264.487	0.321	264.808	0	PA_without_intermediate	test	ward_and_allport	71	23.0	0.321	to_board	poldrack-single-stim	s579	False
0.1	264.813	0.36	265.173	0	PA_without_intermediate	test	ward_and_allport	89	23.0	0.36	to_hand	poldrack-single-stim	s579	False
0.1	265.175	0.372	265.547	0	PA_without_intermediate	test	ward_and_allport	71	23.0	0.372	to_board	poldrack-single-stim	s579	False
0.1	265.554	0.33	265.884	0	PA_without_intermediate	test	ward_and_allport	89	23.0	0.33	to_hand	poldrack-single-stim	s579	False
0.1	265.884	0.421	266.305	0	PA_without_intermediate	test	ward_and_allport	82	23.0	0.421	to_board	poldrack-single-stim	s579	False
1.0	266.316	2.68	266.315	0	PA_without_intermediate	test	ward_and_allport	-1	23.0	n/a	feedback	poldrack-single-stim	s579	False
2.96	269.003	2.96	271.963	1	PA_without_intermediate	test	ward_and_allport	82	24.0	2.96	to_hand	poldrack-single-stim	s579	False
0.1	271.964	0.336	272.3	0	PA_without_intermediate	test	ward_and_allport	89	24.0	0.336	to_board	poldrack-single-stim	s579	False
0.1	272.305	0.628	272.933	0	PA_without_intermediate	test	ward_and_allport	82	24.0	0.628	to_hand	poldrack-single-stim	s579	False
0.1	272.934	0.351	273.285	0	PA_without_intermediate	test	ward_and_allport	71	24.0	0.351	to_board	poldrack-single-stim	s579	False
0.1	273.292	0.356	273.648	0	PA_without_intermediate	test	ward_and_allport	82	24.0	0.356	to_hand	poldrack-single-stim	s579	False
0.1	273.649	0.327	273.976	0	PA_without_intermediate	test	ward_and_allport	89	24.0	0.327	to_board	poldrack-single-stim	s579	False
1.0	273.983	3.088	273.982	0	PA_without_intermediate	test	ward_and_allport	-1	24.0	n/a	feedback	poldrack-single-stim	s579	False
2.086	277.077	2.086	279.163	1	PA_with_intermediate	test	ward_and_allport	71	25.0	2.086	to_hand	poldrack-single-stim	s579	False
0.1	279.165	0.293	279.458	0	PA_with_intermediate	test	ward_and_allport	89	25.0	0.293	to_board	poldrack-single-stim	s579	False
0.1	279.465	0.312	279.777	0	PA_with_intermediate	test	ward_and_allport	71	25.0	0.312	to_hand	poldrack-single-stim	s579	False
0.1	279.778	0.341	280.119	0	PA_with_intermediate	test	ward_and_allport	82	25.0	0.341	to_board	poldrack-single-stim	s579	False
0.1	280.125	0.282	280.407	0	PA_with_intermediate	test	ward_and_allport	89	25.0	0.282	to_hand	poldrack-single-stim	s579	False
0.1	280.408	0.324	280.732	0	PA_with_intermediate	test	ward_and_allport	71	25.0	0.324	to_board	poldrack-single-stim	s579	False
1.0	280.741	2.0	280.74	0	PA_with_intermediate	test	ward_and_allport	-1	25.0	n/a	feedback	poldrack-single-stim	s579	False
1.465	282.748	1.465	284.213	1	PA_without_intermediate	test	ward_and_allport	71	26.0	1.465	to_hand	poldrack-single-stim	s579	False
0.1	284.213	0.502	284.715	0	PA_without_intermediate	test	ward_and_allport	82	26.0	0.502	to_board	poldrack-single-stim	s579	False
0.1	284.722	0.372	285.094	0	PA_without_intermediate	test	ward_and_allport	71	26.0	0.372	to_hand	poldrack-single-stim	s579	False
0.1	285.095	0.388	285.483	0	PA_without_intermediate	test	ward_and_allport	82	26.0	0.388	to_board	poldrack-single-stim	s579	False
0.1	285.491	1.364	286.855	0	PA_without_intermediate	test	ward_and_allport	71	26.0	1.364	to_hand	poldrack-single-stim	s579	False
0.1	286.856	0.332	287.188	0	PA_without_intermediate	test	ward_and_allport	89	26.0	0.332	to_board	poldrack-single-stim	s579	False
1.0	287.2	2.0	287.199	0	PA_without_intermediate	test	ward_and_allport	-1	26.0	n/a	feedback	poldrack-single-stim	s579	False
3.703	289.207	3.703	292.91	1	PA_without_intermediate	test	ward_and_allport	82	27.0	3.703	to_hand	poldrack-single-stim	s579	False
0.1	292.91	0.493	293.403	0	PA_without_intermediate	test	ward_and_allport	89	27.0	0.493	to_board	poldrack-single-stim	s579	False
0.1	293.41	0.367	293.777	0	PA_without_intermediate	test	ward_and_allport	82	27.0	0.367	to_hand	poldrack-single-stim	s579	False
0.1	293.778	0.412	294.19	0	PA_without_intermediate	test	ward_and_allport	89	27.0	0.412	to_board	poldrack-single-stim	s579	False
0.1	294.197	0.592	294.789	0	PA_without_intermediate	test	ward_and_allport	82	27.0	0.592	to_hand	poldrack-single-stim	s579	False
0.1	294.79	0.341	295.131	0	PA_without_intermediate	test	ward_and_allport	71	27.0	0.341	to_board	poldrack-single-stim	s579	False
1.0	295.14	2.0	295.139	0	PA_without_intermediate	test	ward_and_allport	-1	27.0	n/a	feedback	poldrack-single-stim	s579	False
3.204	297.147	3.204	300.351	1	PA_with_intermediate	test	ward_and_allport	82	28.0	3.204	to_hand	poldrack-single-stim	s579	False
0.1	300.352	0.319	300.671	0	PA_with_intermediate	test	ward_and_allport	89	28.0	0.319	to_board	poldrack-single-stim	s579	False
0.1	300.679	0.477	301.156	0	PA_with_intermediate	test	ward_and_allport	82	28.0	0.477	to_hand	poldrack-single-stim	s579	False
0.1	301.158	0.476	301.634	0	PA_with_intermediate	test	ward_and_allport	71	28.0	0.476	to_board	poldrack-single-stim	s579	False
0.1	301.641	0.446	302.087	0	PA_with_intermediate	test	ward_and_allport	89	28.0	0.446	to_hand	poldrack-single-stim	s579	False
0.1	302.087	0.444	302.531	0	PA_with_intermediate	test	ward_and_allport	82	28.0	0.444	to_board	poldrack-single-stim	s579	False
1.0	302.539	2.544	302.538	0	PA_with_intermediate	test	ward_and_allport	-1	28.0	n/a	feedback	poldrack-single-stim	s579	False
5.21	305.091	5.21	310.301	1	PA_without_intermediate	test	ward_and_allport	89	29.0	5.21	to_hand	poldrack-single-stim	s579	False
0.1	310.302	0.429	310.731	0	PA_without_intermediate	test	ward_and_allport	82	29.0	0.429	to_board	poldrack-single-stim	s579	False
0.1	310.738	0.362	311.1	0	PA_without_intermediate	test	ward_and_allport	89	29.0	0.362	to_hand	poldrack-single-stim	s579	False
0.1	311.1	0.388	311.488	0	PA_without_intermediate	test	ward_and_allport	71	29.0	0.388	to_board	poldrack-single-stim	s579	False
0.1	311.496	0.287	311.783	0	PA_without_intermediate	test	ward_and_allport	89	29.0	0.287	to_hand	poldrack-single-stim	s579	False
0.1	311.783	0.411	312.194	0	PA_without_intermediate	test	ward_and_allport	82	29.0	0.411	to_board	poldrack-single-stim	s579	False
1.0	312.203	2.272	312.202	0	PA_without_intermediate	test	ward_and_allport	-1	29.0	n/a	feedback	poldrack-single-stim	s579	False
8.965	319.486	8.965	328.451	1	PA_with_intermediate	test	ward_and_allport	82	30.0	8.965	to_hand	poldrack-single-stim	s579	False
0.1	328.452	0.335	328.787	0	PA_with_intermediate	test	ward_and_allport	71	30.0	0.335	to_board	poldrack-single-stim	s579	False
0.1	328.793	0.421	329.214	0	PA_with_intermediate	test	ward_and_allport	82	30.0	0.421	to_hand	poldrack-single-stim	s579	False
0.1	329.215	0.336	329.551	0	PA_with_intermediate	test	ward_and_allport	89	30.0	0.336	to_board	poldrack-single-stim	s579	False
0.1	329.558	0.728	330.286	0	PA_with_intermediate	test	ward_and_allport	71	30.0	0.728	to_hand	poldrack-single-stim	s579	False
0.1	330.288	0.334	330.622	0	PA_with_intermediate	test	ward_and_allport	89	30.0	0.334	to_board	poldrack-single-stim	s579	False
1.0	330.634	4.04	330.633	0	PA_with_intermediate	test	ward_and_allport	-1	30.0	n/a	feedback	poldrack-single-stim	s579	False
3.669	334.68	3.669	338.349	1	PA_with_intermediate	test	ward_and_allport	89	31.0	3.669	to_hand	poldrack-single-stim	s579	False
0.1	338.351	0.382	338.733	0	PA_with_intermediate	test	ward_and_allport	82	31.0	0.382	to_board	poldrack-single-stim	s579	False
0.1	338.741	0.353	339.094	0	PA_with_intermediate	test	ward_and_allport	89	31.0	0.353	to_hand	poldrack-single-stim	s579	False
0.1	339.096	0.527	339.623	0	PA_with_intermediate	test	ward_and_allport	71	31.0	0.527	to_board	poldrack-single-stim	s579	False
0.1	339.632	0.422	340.054	0	PA_with_intermediate	test	ward_and_allport	82	31.0	0.422	to_hand	poldrack-single-stim	s579	False
0.1	340.056	0.386	340.442	0	PA_with_intermediate	test	ward_and_allport	89	31.0	0.386	to_board	poldrack-single-stim	s579	False
1.0	340.451	2.272	340.45	0	PA_with_intermediate	test	ward_and_allport	-1	31.0	n/a	feedback	poldrack-single-stim	s579	False
2.639	342.732	2.639	345.371	1	PA_with_intermediate	test	ward_and_allport	71	32.0	2.639	to_hand	poldrack-single-stim	s579	False
0.1	345.373	0.424	345.797	0	PA_with_intermediate	test	ward_and_allport	82	32.0	0.424	to_board	poldrack-single-stim	s579	False
0.1	345.806	0.867	346.673	0	PA_with_intermediate	test	ward_and_allport	71	32.0	0.867	to_hand	poldrack-single-stim	s579	False
0.1	346.673	0.349	347.022	0	PA_with_intermediate	test	ward_and_allport	89	32.0	0.349	to_board	poldrack-single-stim	s579	False
0.1	347.03	1.261	348.291	0	PA_with_intermediate	test	ward_and_allport	82	32.0	1.261	to_hand	poldrack-single-stim	s579	False
0.1	348.292	0.332	348.624	0	PA_with_intermediate	test	ward_and_allport	89	32.0	0.332	to_board	poldrack-single-stim	s579	False
1.0	348.634	2.136	348.633	0	PA_with_intermediate	test	ward_and_allport	-1	32.0	n/a	feedback	poldrack-single-stim	s579	False
3.394	350.776	3.394	354.17	1	PA_with_intermediate	test	ward_and_allport	82	33.0	3.394	to_hand	poldrack-single-stim	s579	False
0.1	354.171	0.345	354.516	0	PA_with_intermediate	test	ward_and_allport	89	33.0	0.345	to_board	poldrack-single-stim	s579	False
0.1	354.523	0.552	355.075	0	PA_with_intermediate	test	ward_and_allport	82	33.0	0.552	to_hand	poldrack-single-stim	s579	False
0.1	355.076	0.346	355.422	0	PA_with_intermediate	test	ward_and_allport	71	33.0	0.346	to_board	poldrack-single-stim	s579	False
0.1	355.429	0.396	355.825	0	PA_with_intermediate	test	ward_and_allport	89	33.0	0.396	to_hand	poldrack-single-stim	s579	False
0.1	355.825	0.463	356.288	0	PA_with_intermediate	test	ward_and_allport	82	33.0	0.463	to_board	poldrack-single-stim	s579	False
1.0	356.301	2.0	356.3	0	PA_with_intermediate	test	ward_and_allport	-1	33.0	n/a	feedback	poldrack-single-stim	s579	False
3.21	358.311	3.21	361.521	1	PA_with_intermediate	test	ward_and_allport	82	34.0	3.21	to_hand	poldrack-single-stim	s579	False
0.1	361.521	0.291	361.812	0	PA_with_intermediate	test	ward_and_allport	89	34.0	0.291	to_board	poldrack-single-stim	s579	False
0.1	361.82	0.426	362.246	0	PA_with_intermediate	test	ward_and_allport	82	34.0	0.426	to_hand	poldrack-single-stim	s579	False
0.1	362.246	0.387	362.633	0	PA_with_intermediate	test	ward_and_allport	71	34.0	0.387	to_board	poldrack-single-stim	s579	False
0.1	362.641	0.332	362.973	0	PA_with_intermediate	test	ward_and_allport	89	34.0	0.332	to_hand	poldrack-single-stim	s579	False
0.1	362.975	0.359	363.334	0	PA_with_intermediate	test	ward_and_allport	71	34.0	0.359	to_board	poldrack-single-stim	s579	False
1.0	363.342	2.0	363.341	0	PA_with_intermediate	test	ward_and_allport	-1	34.0	n/a	feedback	poldrack-single-stim	s579	False
3.962	365.347	3.962	369.309	1	PA_without_intermediate	test	ward_and_allport	89	35.0	3.962	to_hand	poldrack-single-stim	s579	False
0.1	369.31	0.341	369.651	0	PA_without_intermediate	test	ward_and_allport	82	35.0	0.341	to_board	poldrack-single-stim	s579	False
0.1	369.657	0.335	369.992	0	PA_without_intermediate	test	ward_and_allport	89	35.0	0.335	to_hand	poldrack-single-stim	s579	False
0.1	369.994	0.671	370.665	0	PA_without_intermediate	test	ward_and_allport	82	35.0	0.671	to_board	poldrack-single-stim	s579	False
0.1	370.672	0.48	371.152	0	PA_without_intermediate	test	ward_and_allport	89	35.0	0.48	to_hand	poldrack-single-stim	s579	False
0.1	371.153	0.345	371.498	0	PA_without_intermediate	test	ward_and_allport	71	35.0	0.345	to_board	poldrack-single-stim	s579	False
1.0	371.51	2.408	371.509	0	PA_without_intermediate	test	ward_and_allport	-1	35.0	n/a	feedback	poldrack-single-stim	s579	False
3.053	373.928	3.053	376.981	1	PA_with_intermediate	test	ward_and_allport	82	36.0	3.053	to_hand	poldrack-single-stim	s579	False
0.1	376.982	0.29	377.272	0	PA_with_intermediate	test	ward_and_allport	89	36.0	0.29	to_board	poldrack-single-stim	s579	False
0.1	377.281	0.393	377.674	0	PA_with_intermediate	test	ward_and_allport	82	36.0	0.393	to_hand	poldrack-single-stim	s579	False
0.1	377.675	0.34	378.015	0	PA_with_intermediate	test	ward_and_allport	71	36.0	0.34	to_board	poldrack-single-stim	s579	False
0.1	378.025	0.331	378.356	0	PA_with_intermediate	test	ward_and_allport	89	36.0	0.331	to_hand	poldrack-single-stim	s579	False
0.1	378.358	0.28	378.638	0	PA_with_intermediate	test	ward_and_allport	71	36.0	0.28	to_board	poldrack-single-stim	s579	False
1.0	378.647	3.768	378.646	0	PA_with_intermediate	test	ward_and_allport	-1	36.0	n/a	feedback	poldrack-single-stim	s579	False
3.078	382.422	3.078	385.5	1	PA_with_intermediate	test	ward_and_allport	89	37.0	3.078	to_hand	poldrack-single-stim	s579	False
0.1	385.501	0.294	385.795	0	PA_with_intermediate	test	ward_and_allport	71	37.0	0.294	to_board	poldrack-single-stim	s579	False
0.1	385.802	0.316	386.118	0	PA_with_intermediate	test	ward_and_allport	89	37.0	0.316	to_hand	poldrack-single-stim	s579	False
0.1	386.119	0.392	386.511	0	PA_with_intermediate	test	ward_and_allport	82	37.0	0.392	to_board	poldrack-single-stim	s579	False
0.1	386.52	0.608	387.128	0	PA_with_intermediate	test	ward_and_allport	71	37.0	0.608	to_hand	poldrack-single-stim	s579	False
0.1	387.13	0.356	387.486	0	PA_with_intermediate	test	ward_and_allport	82	37.0	0.356	to_board	poldrack-single-stim	s579	False
1.0	387.5	2.68	387.499	0	PA_with_intermediate	test	ward_and_allport	-1	37.0	n/a	feedback	poldrack-single-stim	s579	False
3.669	390.188	3.669	393.857	1	PA_without_intermediate	test	ward_and_allport	89	38.0	3.669	to_hand	poldrack-single-stim	s579	False
0.1	393.858	0.319	394.177	0	PA_without_intermediate	test	ward_and_allport	82	38.0	0.319	to_board	poldrack-single-stim	s579	False
0.1	394.185	1.132	395.317	0	PA_without_intermediate	test	ward_and_allport	82	38.0	1.132	to_hand	poldrack-single-stim	s579	False
0.1	395.317	0.592	395.909	0	PA_without_intermediate	test	ward_and_allport	71	38.0	0.592	to_board	poldrack-single-stim	s579	False
0.1	395.916	0.518	396.434	0	PA_without_intermediate	test	ward_and_allport	89	38.0	0.518	to_hand	poldrack-single-stim	s579	False
0.1	396.436	0.482	396.918	0	PA_without_intermediate	test	ward_and_allport	82	38.0	0.482	to_board	poldrack-single-stim	s579	False
0.1	396.928	0.413	397.341	0	PA_without_intermediate	test	ward_and_allport	89	38.0	0.413	to_hand	poldrack-single-stim	s579	False
0.1	397.341	0.467	397.808	0	PA_without_intermediate	test	ward_and_allport	71	38.0	0.467	to_board	poldrack-single-stim	s579	False
1.0	397.821	3.224	397.82	0	PA_without_intermediate	test	ward_and_allport	-1	38.0	n/a	feedback	poldrack-single-stim	s579	False
3.127	401.053	3.127	404.18	1	PA_without_intermediate	test	ward_and_allport	89	39.0	3.127	to_hand	poldrack-single-stim	s579	False
0.1	404.182	0.295	404.477	0	PA_without_intermediate	test	ward_and_allport	71	39.0	0.295	to_board	poldrack-single-stim	s579	False
0.1	404.483	0.368	404.851	0	PA_without_intermediate	test	ward_and_allport	89	39.0	0.368	to_hand	poldrack-single-stim	s579	False
0.1	404.852	0.391	405.243	0	PA_without_intermediate	test	ward_and_allport	82	39.0	0.391	to_board	poldrack-single-stim	s579	False
0.1	405.251	0.358	405.609	0	PA_without_intermediate	test	ward_and_allport	89	39.0	0.358	to_hand	poldrack-single-stim	s579	False
0.1	405.611	0.374	405.985	0	PA_without_intermediate	test	ward_and_allport	71	39.0	0.374	to_board	poldrack-single-stim	s579	False
1.0	405.994	3.36	405.993	0	PA_without_intermediate	test	ward_and_allport	-1	39.0	n/a	feedback	poldrack-single-stim	s579	False
2.911	409.363	2.911	412.274	1	PA_without_intermediate	test	ward_and_allport	89	40.0	2.911	to_hand	poldrack-single-stim	s579	False
0.1	412.276	0.332	412.608	0	PA_without_intermediate	test	ward_and_allport	82	40.0	0.332	to_board	poldrack-single-stim	s579	False
0.1	412.618	0.526	413.144	0	PA_without_intermediate	test	ward_and_allport	89	40.0	0.526	to_hand	poldrack-single-stim	s579	False
0.1	413.145	0.41	413.555	0	PA_without_intermediate	test	ward_and_allport	82	40.0	0.41	to_board	poldrack-single-stim	s579	False
0.1	413.565	0.402	413.967	0	PA_without_intermediate	test	ward_and_allport	89	40.0	0.402	to_hand	poldrack-single-stim	s579	False
0.1	413.968	0.378	414.346	0	PA_without_intermediate	test	ward_and_allport	71	40.0	0.378	to_board	poldrack-single-stim	s579	False
1.0	414.357	2.0	414.356	0	PA_without_intermediate	test	ward_and_allport	-1	40.0	n/a	feedback	poldrack-single-stim	s579	False
2.476	416.365	2.476	418.841	1	PA_without_intermediate	test	ward_and_allport	71	41.0	2.476	to_hand	poldrack-single-stim	s579	False
0.1	418.843	0.411	419.254	0	PA_without_intermediate	test	ward_and_allport	89	41.0	0.411	to_board	poldrack-single-stim	s579	False
0.1	419.261	0.35	419.611	0	PA_without_intermediate	test	ward_and_allport	71	41.0	0.35	to_hand	poldrack-single-stim	s579	False
0.1	419.611	0.387	419.998	0	PA_without_intermediate	test	ward_and_allport	89	41.0	0.387	to_board	poldrack-single-stim	s579	False
0.1	420.004	0.615	420.619	0	PA_without_intermediate	test	ward_and_allport	71	41.0	0.615	to_hand	poldrack-single-stim	s579	False
0.1	420.62	0.367	420.987	0	PA_without_intermediate	test	ward_and_allport	82	41.0	0.367	to_board	poldrack-single-stim	s579	False
1.0	420.995	2.408	420.994	0	PA_without_intermediate	test	ward_and_allport	-1	41.0	n/a	feedback	poldrack-single-stim	s579	False
4.006	423.409	4.006	427.415	1	PA_with_intermediate	test	ward_and_allport	71	42.0	4.006	to_hand	poldrack-single-stim	s579	False
0.1	427.416	0.341	427.757	0	PA_with_intermediate	test	ward_and_allport	82	42.0	0.341	to_board	poldrack-single-stim	s579	False
0.1	427.765	0.301	428.066	0	PA_with_intermediate	test	ward_and_allport	71	42.0	0.301	to_hand	poldrack-single-stim	s579	False
0.1	428.067	0.344	428.411	0	PA_with_intermediate	test	ward_and_allport	89	42.0	0.344	to_board	poldrack-single-stim	s579	False
0.1	428.42	0.433	428.853	0	PA_with_intermediate	test	ward_and_allport	82	42.0	0.433	to_hand	poldrack-single-stim	s579	False
0.1	428.854	0.326	429.18	0	PA_with_intermediate	test	ward_and_allport	71	42.0	0.326	to_board	poldrack-single-stim	s579	False
1.0	429.193	2.136	429.192	0	PA_with_intermediate	test	ward_and_allport	-1	42.0	n/a	feedback	poldrack-single-stim	s579	False
2.622	431.338	2.622	433.96	1	PA_without_intermediate	test	ward_and_allport	89	43.0	2.622	to_hand	poldrack-single-stim	s579	False
0.1	433.961	0.316	434.277	0	PA_without_intermediate	test	ward_and_allport	71	43.0	0.316	to_board	poldrack-single-stim	s579	False
0.1	434.285	0.402	434.687	0	PA_without_intermediate	test	ward_and_allport	89	43.0	0.402	to_hand	poldrack-single-stim	s579	False
0.1	434.688	0.35	435.038	0	PA_without_intermediate	test	ward_and_allport	71	43.0	0.35	to_board	poldrack-single-stim	s579	False
0.1	435.046	0.378	435.424	0	PA_without_intermediate	test	ward_and_allport	89	43.0	0.378	to_hand	poldrack-single-stim	s579	False
0.1	435.425	0.388	435.813	0	PA_without_intermediate	test	ward_and_allport	82	43.0	0.388	to_board	poldrack-single-stim	s579	False
1.0	435.822	5.128	435.821	0	PA_without_intermediate	test	ward_and_allport	-1	43.0	n/a	feedback	poldrack-single-stim	s579	False
3.339	440.958	3.339	444.297	1	PA_without_intermediate	test	ward_and_allport	82	44.0	3.339	to_hand	poldrack-single-stim	s579	False
0.1	444.299	0.324	444.623	0	PA_without_intermediate	test	ward_and_allport	71	44.0	0.324	to_board	poldrack-single-stim	s579	False
0.1	444.633	0.414	445.047	0	PA_without_intermediate	test	ward_and_allport	82	44.0	0.414	to_hand	poldrack-single-stim	s579	False
0.1	445.047	0.61	445.657	0	PA_without_intermediate	test	ward_and_allport	89	44.0	0.61	to_board	poldrack-single-stim	s579	False
0.1	445.667	0.419	446.086	0	PA_without_intermediate	test	ward_and_allport	82	44.0	0.419	to_hand	poldrack-single-stim	s579	False
0.1	446.087	0.342	446.429	0	PA_without_intermediate	test	ward_and_allport	71	44.0	0.342	to_board	poldrack-single-stim	s579	False
1.0	446.441	2.136	446.44	0	PA_without_intermediate	test	ward_and_allport	-1	44.0	n/a	feedback	poldrack-single-stim	s579	False
3.958	453.588	3.958	457.546	1	PA_without_intermediate	test	ward_and_allport	71	45.0	3.958	to_hand	poldrack-single-stim	s579	False
0.1	457.546	0.283	457.829	0	PA_without_intermediate	test	ward_and_allport	89	45.0	0.283	to_board	poldrack-single-stim	s579	False
0.1	457.838	0.306	458.144	0	PA_without_intermediate	test	ward_and_allport	71	45.0	0.306	to_hand	poldrack-single-stim	s579	False
0.1	458.146	0.342	458.488	0	PA_without_intermediate	test	ward_and_allport	89	45.0	0.342	to_board	poldrack-single-stim	s579	False
0.1	458.5	0.289	458.789	0	PA_without_intermediate	test	ward_and_allport	71	45.0	0.289	to_hand	poldrack-single-stim	s579	False
0.1	458.791	0.378	459.169	0	PA_without_intermediate	test	ward_and_allport	82	45.0	0.378	to_board	poldrack-single-stim	s579	False
1.0	459.181	5.264	459.18	0	PA_without_intermediate	test	ward_and_allport	-1	45.0	n/a	feedback	poldrack-single-stim	s579	False
3.837	464.455	3.837	468.292	1	PA_with_intermediate	test	ward_and_allport	82	46.0	3.837	to_hand	poldrack-single-stim	s579	False
0.1	468.294	0.316	468.61	0	PA_with_intermediate	test	ward_and_allport	89	46.0	0.316	to_board	poldrack-single-stim	s579	False
0.1	468.62	0.355	468.975	0	PA_with_intermediate	test	ward_and_allport	82	46.0	0.355	to_hand	poldrack-single-stim	s579	False
0.1	468.976	0.317	469.293	0	PA_with_intermediate	test	ward_and_allport	89	46.0	0.317	to_board	poldrack-single-stim	s579	False
0.1	469.305	1.721	471.026	0	PA_with_intermediate	test	ward_and_allport	82	46.0	1.721	to_hand	poldrack-single-stim	s579	False
0.1	471.026	0.654	471.68	0	PA_with_intermediate	test	ward_and_allport	82	46.0	0.654	to_board	poldrack-single-stim	s579	False
0.1	471.691	0.433	472.124	0	PA_with_intermediate	test	ward_and_allport	89	46.0	0.433	to_hand	poldrack-single-stim	s579	False
0.1	472.126	0.36	472.486	0	PA_with_intermediate	test	ward_and_allport	71	46.0	0.36	to_board	poldrack-single-stim	s579	False
0.1	472.495	1.065	473.56	0	PA_with_intermediate	test	ward_and_allport	89	46.0	1.065	to_hand	poldrack-single-stim	s579	False
0.1	473.561	0.277	473.838	0	PA_with_intermediate	test	ward_and_allport	71	46.0	0.277	to_board	poldrack-single-stim	s579	False
0.1	473.845	0.71	474.555	0	PA_with_intermediate	test	ward_and_allport	71	46.0	0.71	to_hand	poldrack-single-stim	s579	False
0.1	474.556	0.42	474.976	0	PA_with_intermediate	test	ward_and_allport	82	46.0	0.42	to_board	poldrack-single-stim	s579	False
0.1	474.984	0.988	475.972	0	PA_with_intermediate	test	ward_and_allport	71	46.0	0.988	to_hand	poldrack-single-stim	s579	False
0.1	475.974	0.333	476.307	0	PA_with_intermediate	test	ward_and_allport	89	46.0	0.333	to_board	poldrack-single-stim	s579	False
0.1	476.315	0.759	477.074	0	PA_with_intermediate	test	ward_and_allport	82	46.0	0.759	to_hand	poldrack-single-stim	s579	False
0.1	477.075	0.315	477.39	0	PA_with_intermediate	test	ward_and_allport	89	46.0	0.315	to_board	poldrack-single-stim	s579	False
1.0	477.403	4.04	477.402	0	PA_with_intermediate	test	ward_and_allport	-1	46.0	n/a	feedback	poldrack-single-stim	s579	False
3.954	481.451	3.954	485.405	1	PA_with_intermediate	test	ward_and_allport	89	47.0	3.954	to_hand	poldrack-single-stim	s579	False
0.1	485.406	0.299	485.705	0	PA_with_intermediate	test	ward_and_allport	82	47.0	0.299	to_board	poldrack-single-stim	s579	False
0.1	485.712	0.312	486.024	0	PA_with_intermediate	test	ward_and_allport	89	47.0	0.312	to_hand	poldrack-single-stim	s579	False
0.1	486.026	0.345	486.371	0	PA_with_intermediate	test	ward_and_allport	71	47.0	0.345	to_board	poldrack-single-stim	s579	False
0.1	486.381	0.557	486.938	0	PA_with_intermediate	test	ward_and_allport	82	47.0	0.557	to_hand	poldrack-single-stim	s579	False
0.1	486.939	0.434	487.373	0	PA_with_intermediate	test	ward_and_allport	71	47.0	0.434	to_board	poldrack-single-stim	s579	False
1.0	487.387	2.136	487.386	0	PA_with_intermediate	test	ward_and_allport	-1	47.0	n/a	feedback	poldrack-single-stim	s579	False
