onset	duration	SS_delay	block_duration	correct	correct_response	experiment_exp_id	key_press	passed_check	response_time	stopped	trial_id	trial_type	worker_id	junk
3.015	0.85	0.1	3.066	1.0	71.0	stop_signal	71.0	True	0.738	False	stim	stop_failure	s579	False
6.087	0.85	0.05	2.25	1.0	89.0	stop_signal	-1.0	True	n/a	True	stim	stop_success	s579	False
8.34	0.85	0.1	2.386	1.0	89.0	stop_signal	89.0	True	0.423	False	stim	go	s579	False
10.73	0.85	0.1	2.386	1.0	71.0	stop_signal	-1.0	True	n/a	True	stim	stop_success	s579	False
13.118	0.85	0.15	2.522	0.0	71.0	stop_signal	89.0	True	0.423	False	stim	go	s579	False
15.642	0.85	0.15	2.386	1.0	71.0	stop_signal	71.0	True	0.447	False	stim	go	s579	False
18.032	0.85	0.15	2.386	1.0	89.0	stop_signal	89.0	True	0.453	False	stim	go	s579	False
20.424	0.85	0.15	2.794	1.0	71.0	stop_signal	71.0	True	0.427	False	stim	stop_failure	s579	False
23.221	0.85	0.1	2.386	1.0	71.0	stop_signal	71.0	True	0.479	False	stim	go	s579	False
25.61	0.85	0.1	2.25	1.0	71.0	stop_signal	71.0	True	0.433	False	stim	stop_failure	s579	False
27.864	0.85	0.05	2.522	1.0	89.0	stop_signal	-1.0	True	n/a	True	stim	stop_success	s579	False
30.389	0.85	0.1	2.386	1.0	89.0	stop_signal	-1.0	True	n/a	True	stim	stop_success	s579	False
32.779	0.85	0.15	2.386	0.0	71.0	stop_signal	89.0	True	0.427	False	stim	go	s579	False
35.168	0.85	0.15	2.25	1.0	71.0	stop_signal	71.0	True	0.481	False	stim	stop_failure	s579	False
37.424	0.85	0.1	2.386	1.0	71.0	stop_signal	71.0	True	0.501	False	stim	go	s579	False
39.814	0.85	0.1	2.25	1.0	71.0	stop_signal	71.0	True	0.566	False	stim	go	s579	False
42.067	0.85	0.1	2.25	1.0	71.0	stop_signal	-1.0	True	n/a	True	stim	stop_success	s579	False
44.323	0.85	0.15	2.25	0.0	89.0	stop_signal	71.0	True	0.426	False	stim	go	s579	False
46.575	0.85	0.15	2.386	1.0	89.0	stop_signal	89.0	True	0.458	False	stim	go	s579	False
48.964	0.85	0.15	2.25	1.0	89.0	stop_signal	-1.0	True	n/a	True	stim	stop_success	s579	False
51.22	0.85	0.2	2.25	1.0	89.0	stop_signal	-1.0	True	n/a	True	stim	stop_success	s579	False
53.473	0.85	0.25	2.386	1.0	71.0	stop_signal	71.0	True	0.507	False	stim	stop_failure	s579	False
55.863	0.85	0.2	2.386	1.0	71.0	stop_signal	-1.0	True	n/a	True	stim	stop_success	s579	False
58.255	0.85	0.25	2.25	1.0	89.0	stop_signal	89.0	True	0.447	False	stim	go	s579	False
60.511	0.85	0.25	2.522	1.0	89.0	stop_signal	89.0	True	0.584	False	stim	stop_failure	s579	False
63.035	0.85	0.2	2.25	1.0	71.0	stop_signal	71.0	True	0.503	False	stim	go	s579	False
65.287	0.85	0.2	2.386	0.0	89.0	stop_signal	71.0	True	0.484	False	stim	go	s579	False
67.679	0.85	0.2	2.25	1.0	71.0	stop_signal	71.0	True	0.524	False	stim	go	s579	False
69.935	0.85	0.2	2.25	1.0	89.0	stop_signal	89.0	True	0.399	False	stim	stop_failure	s579	False
72.189	0.85	0.15	2.386	0.0	89.0	stop_signal	71.0	True	0.468	False	stim	go	s579	False
74.578	0.85	0.15	2.522	1.0	89.0	stop_signal	89.0	True	0.512	False	stim	go	s579	False
77.106	0.85	0.15	2.386	1.0	89.0	stop_signal	89.0	True	0.472	False	stim	go	s579	False
79.498	0.85	0.15	2.522	1.0	89.0	stop_signal	89.0	True	0.39	False	stim	go	s579	False
82.024	0.85	0.15	2.93	1.0	89.0	stop_signal	89.0	True	0.379	False	stim	stop_failure	s579	False
84.96	0.85	0.1	2.522	0.0	71.0	stop_signal	89.0	True	0.443	False	stim	go	s579	False
87.488	0.85	0.1	2.522	1.0	89.0	stop_signal	89.0	True	0.709	False	stim	go	s579	False
90.016	0.85	0.1	2.25	1.0	71.0	stop_signal	71.0	True	0.671	False	stim	go	s579	False
92.272	0.85	0.1	2.522	1.0	89.0	stop_signal	-1.0	True	n/a	True	stim	stop_success	s579	False
94.798	0.85	0.15	2.386	0.0	89.0	stop_signal	71.0	True	0.562	False	stim	go	s579	False
97.19	0.85	0.15	2.25	1.0	71.0	stop_signal	71.0	True	0.555	False	stim	go	s579	False
99.442	0.85	0.15	2.386	1.0	71.0	stop_signal	71.0	True	0.605	False	stim	go	s579	False
112.347	0.85	0.15	2.25	1.0	89.0	stop_signal	89.0	True	0.687	False	stim	go	s579	False
114.6	0.85	0.15	2.386	1.0	71.0	stop_signal	-1.0	True	n/a	True	stim	stop_success	s579	False
116.988	0.85	0.2	2.522	1.0	71.0	stop_signal	71.0	True	0.418	False	stim	go	s579	False
119.516	0.85	0.2	2.25	1.0	71.0	stop_signal	71.0	True	0.367	False	stim	stop_failure	s579	False
121.77	0.85	0.15	2.386	1.0	89.0	stop_signal	-1.0	True	n/a	True	stim	stop_success	s579	False
124.159	0.85	0.2	2.658	1.0	89.0	stop_signal	89.0	True	0.407	False	stim	go	s579	False
126.82	0.85	0.2	2.25	1.0	71.0	stop_signal	-1.0	True	n/a	True	stim	stop_success	s579	False
129.071	0.85	0.25	3.202	1.0	71.0	stop_signal	71.0	True	0.437	False	stim	go	s579	False
132.275	0.85	0.25	2.386	1.0	89.0	stop_signal	89.0	True	0.518	False	stim	go	s579	False
134.666	0.85	0.25	2.386	1.0	89.0	stop_signal	89.0	True	0.388	False	stim	go	s579	False
137.058	0.85	0.25	2.522	1.0	89.0	stop_signal	89.0	True	0.301	False	stim	stop_failure	s579	False
139.586	0.85	0.2	2.25	1.0	71.0	stop_signal	71.0	True	0.493	False	stim	go	s579	False
141.843	0.85	0.2	2.25	1.0	89.0	stop_signal	89.0	True	0.54	False	stim	stop_failure	s579	False
144.097	0.85	0.15	2.25	1.0	71.0	stop_signal	-1.0	True	n/a	True	stim	stop_success	s579	False
146.352	0.85	0.2	2.93	1.0	71.0	stop_signal	71.0	True	0.412	False	stim	go	s579	False
149.288	0.85	0.2	2.522	1.0	71.0	stop_signal	71.0	True	0.411	False	stim	go	s579	False
151.816	0.85	0.2	2.522	1.0	71.0	stop_signal	71.0	True	0.426	False	stim	go	s579	False
154.344	0.85	0.2	2.25	0.0	89.0	stop_signal	71.0	True	0.344	False	stim	go	s579	False
156.599	0.85	0.2	2.522	1.0	89.0	stop_signal	89.0	True	0.515	False	stim	stop_failure	s579	False
159.123	0.85	0.15	2.25	1.0	71.0	stop_signal	-1.0	True	n/a	True	stim	stop_success	s579	False
161.377	0.85	0.2	2.386	1.0	71.0	stop_signal	71.0	True	0.488	False	stim	go	s579	False
163.769	0.85	0.2	2.25	1.0	89.0	stop_signal	-1.0	True	n/a	True	stim	stop_success	s579	False
166.022	0.85	0.25	2.658	0.0	71.0	stop_signal	89.0	True	0.465	False	stim	go	s579	False
168.684	0.85	0.25	2.658	1.0	71.0	stop_signal	71.0	True	0.598	False	stim	go	s579	False
171.348	0.85	0.25	2.25	1.0	89.0	stop_signal	89.0	True	0.483	False	stim	go	s579	False
173.604	0.85	0.25	2.25	0.0	71.0	stop_signal	89.0	True	0.409	False	stim	go	s579	False
175.857	0.85	0.25	2.386	1.0	71.0	stop_signal	71.0	True	0.465	False	stim	go	s579	False
178.25	0.85	0.25	2.794	0.0	89.0	stop_signal	71.0	True	0.494	False	stim	stop_failure	s579	False
181.047	0.85	0.2	2.386	1.0	71.0	stop_signal	-1.0	True	n/a	True	stim	stop_success	s579	False
183.439	0.85	0.25	2.25	1.0	89.0	stop_signal	-1.0	True	n/a	True	stim	stop_success	s579	False
185.695	0.85	0.3	2.25	1.0	89.0	stop_signal	89.0	True	0.539	False	stim	stop_failure	s579	False
187.951	0.85	0.25	2.25	1.0	89.0	stop_signal	-1.0	True	n/a	True	stim	stop_success	s579	False
190.205	0.85	0.3	2.658	1.0	71.0	stop_signal	71.0	True	0.548	False	stim	go	s579	False
192.866	0.85	0.3	2.658	1.0	71.0	stop_signal	71.0	True	0.409	False	stim	go	s579	False
195.53	0.85	0.3	2.25	1.0	89.0	stop_signal	89.0	True	0.409	False	stim	go	s579	False
197.786	0.85	0.3	2.522	1.0	89.0	stop_signal	89.0	True	0.555	False	stim	go	s579	False
200.314	0.85	0.3	2.25	0.0	71.0	stop_signal	89.0	True	0.375	False	stim	go	s579	False
202.568	0.85	0.3	2.522	1.0	71.0	stop_signal	71.0	True	0.44	False	stim	stop_failure	s579	False
205.093	0.85	0.25	2.522	1.0	89.0	stop_signal	89.0	True	0.48	False	stim	go	s579	False
207.618	0.85	0.25	2.522	1.0	71.0	stop_signal	71.0	True	0.49	False	stim	stop_failure	s579	False
210.147	0.85	0.2	2.386	1.0	89.0	stop_signal	-1.0	True	n/a	True	stim	stop_success	s579	False
212.539	0.85	0.25	2.522	1.0	89.0	stop_signal	-1.0	True	n/a	True	stim	stop_success	s579	False
225.575	0.85	0.3	2.522	1.0	89.0	stop_signal	89.0	True	0.567	False	stim	go	s579	False
228.103	0.85	0.3	2.386	1.0	71.0	stop_signal	71.0	True	0.543	False	stim	go	s579	False
230.492	0.85	0.3	2.25	1.0	71.0	stop_signal	71.0	True	0.431	False	stim	go	s579	False
232.748	0.85	0.3	2.522	1.0	89.0	stop_signal	89.0	True	0.569	False	stim	go	s579	False
235.276	0.85	0.3	2.794	1.0	89.0	stop_signal	89.0	True	0.348	False	stim	go	s579	False
238.073	0.85	0.3	2.522	0.0	71.0	stop_signal	89.0	True	0.418	False	stim	stop_failure	s579	False
240.596	0.85	0.25	2.386	1.0	71.0	stop_signal	71.0	True	0.605	False	stim	stop_failure	s579	False
242.989	0.85	0.2	2.25	1.0	89.0	stop_signal	89.0	True	0.523	False	stim	go	s579	False
245.245	0.85	0.2	2.25	1.0	71.0	stop_signal	71.0	True	0.409	False	stim	stop_failure	s579	False
247.501	0.85	0.15	2.25	1.0	71.0	stop_signal	-1.0	True	n/a	True	stim	stop_success	s579	False
249.757	0.85	0.2	2.25	1.0	89.0	stop_signal	-1.0	True	n/a	True	stim	stop_success	s579	False
252.013	0.85	0.25	2.522	1.0	89.0	stop_signal	89.0	True	0.566	False	stim	go	s579	False
254.541	0.85	0.25	2.25	1.0	71.0	stop_signal	71.0	True	0.515	False	stim	go	s579	False
256.797	0.85	0.25	2.25	1.0	71.0	stop_signal	-1.0	True	n/a	True	stim	stop_success	s579	False
259.053	0.85	0.3	2.25	1.0	71.0	stop_signal	71.0	True	0.502	False	stim	go	s579	False
261.309	0.85	0.3	2.25	1.0	71.0	stop_signal	71.0	True	0.368	False	stim	go	s579	False
263.563	0.85	0.3	2.386	1.0	71.0	stop_signal	71.0	True	0.6	False	stim	go	s579	False
265.955	0.85	0.3	2.25	1.0	89.0	stop_signal	89.0	True	0.541	False	stim	go	s579	False
268.211	0.85	0.3	2.25	1.0	71.0	stop_signal	71.0	True	0.396	False	stim	stop_failure	s579	False
270.464	0.85	0.25	2.25	1.0	89.0	stop_signal	89.0	True	0.463	False	stim	go	s579	False
272.718	0.85	0.25	2.25	1.0	89.0	stop_signal	-1.0	True	n/a	True	stim	stop_success	s579	False
274.974	0.85	0.3	2.522	0.0	71.0	stop_signal	89.0	True	0.385	False	stim	stop_failure	s579	False
277.499	0.85	0.25	2.386	1.0	71.0	stop_signal	71.0	True	0.491	False	stim	go	s579	False
279.892	0.85	0.25	2.522	1.0	71.0	stop_signal	71.0	True	0.58	False	stim	go	s579	False
282.42	0.85	0.25	2.25	1.0	71.0	stop_signal	-1.0	True	n/a	True	stim	stop_success	s579	False
284.673	0.85	0.3	2.386	0.0	71.0	stop_signal	89.0	True	0.666	False	stim	go	s579	False
287.062	0.85	0.3	2.386	1.0	71.0	stop_signal	71.0	True	0.534	False	stim	go	s579	False
289.455	0.85	0.3	2.25	1.0	71.0	stop_signal	71.0	True	0.399	False	stim	go	s579	False
291.708	0.85	0.3	2.386	1.0	89.0	stop_signal	89.0	True	0.515	False	stim	go	s579	False
294.096	0.85	0.3	2.386	1.0	89.0	stop_signal	89.0	True	0.551	False	stim	go	s579	False
296.487	0.85	0.3	2.386	1.0	89.0	stop_signal	89.0	True	0.457	False	stim	stop_failure	s579	False
298.876	0.85	0.25	2.658	0.0	89.0	stop_signal	-1.0	True	n/a	True	stim	go	s579	False
301.541	0.85	0.25	2.522	1.0	89.0	stop_signal	89.0	True	0.592	False	stim	go	s579	False
304.069	0.85	0.25	2.25	1.0	89.0	stop_signal	89.0	True	0.457	False	stim	stop_failure	s579	False
306.322	0.85	0.2	2.93	1.0	71.0	stop_signal	71.0	True	0.438	False	stim	stop_failure	s579	False
309.258	0.85	0.15	2.25	0.0	89.0	stop_signal	71.0	True	0.463	False	stim	go	s579	False
311.514	0.85	0.15	2.522	1.0	89.0	stop_signal	89.0	True	0.488	False	stim	go	s579	False
314.042	0.85	0.15	2.25	1.0	89.0	stop_signal	89.0	True	0.572	False	stim	stop_failure	s579	False
316.293	0.85	0.1	2.25	1.0	71.0	stop_signal	71.0	True	0.571	False	stim	go	s579	False
318.549	0.85	0.1	2.25	1.0	89.0	stop_signal	89.0	True	0.437	False	stim	go	s579	False
320.805	0.85	0.1	2.25	1.0	89.0	stop_signal	89.0	True	0.457	False	stim	go	s579	False
323.061	0.85	0.1	2.522	0.0	89.0	stop_signal	71.0	True	0.647	False	stim	go	s579	False
