onset	duration	movement_onset	EV	action	block_duration	experiment_exp_id	gain_amount	gain_probability	key_press	loss_amount	loss_probability	num_cards	num_click_in_round	num_loss_cards	risk	response_time	total_cards	trial_id	trial_type	worker_id	junk	feedback
3.015	2.994	6.009	-0.8535500343673419	draw_card	2.994	columbia_card_task_fmri	12.0	0.8333333333333334	89.0	-70.0	0.1666666666666666	6.0	1.0	1.0	-1.0897823103597268	2.994	n/a	stim	poldrack-single-stim	s579	False	1
6.012	1.655	7.667	-3.5868833677006746	draw_card	1.655	columbia_card_task_fmri	12.0	0.8	89.0	-70.0	0.2	6.0	2.0	1.0	1.1498834716280797	1.655	n/a	stim	poldrack-single-stim	s579	False	1
7.669	1.386	9.055	-7.686883367700676	end_round	1.386	columbia_card_task_fmri	12.0	0.75	71.0	-70.0	0.25	6.0	3.0	1.0	3.856156963455177	1.386	2.0	stim	poldrack-single-stim	s579	False	1
9.808	1.5	9.057	n/a	-1.0	2.25	columbia_card_task_fmri	n/a	n/a	-1.0	n/a	n/a	n/a	n/a	n/a	n/a	n/a	n/a	ITI	poldrack-single-stim	s579	False	0
11.309	3.269	14.578	-0.0202167010340079	draw_card	3.269	columbia_card_task_fmri	14.0	0.8333333333333334	89.0	-75.0	0.1666666666666666	6.0	1.0	1.0	1.5181132633929335	3.269	n/a	stim	poldrack-single-stim	s579	False	1
14.579	1.407	15.986	-2.986883367700675	draw_card	1.407	columbia_card_task_fmri	14.0	0.8	89.0	-75.0	0.2	6.0	2.0	1.0	3.949091106980724	1.407	n/a	stim	poldrack-single-stim	s579	False	1
15.988	4.735	20.723	-7.436883367700676	draw_card	4.735	columbia_card_task_fmri	14.0	0.75	89.0	-75.0	0.25	6.0	3.0	1.0	6.886513875922553	4.735	n/a	stim	poldrack-single-stim	s579	False	1
20.725	0.526	21.251	-14.85355003436734	end_round	0.526	columbia_card_task_fmri	14.0	0.6666666666666667	71.0	-75.0	0.3333333333333333	6.0	4.0	1.0	10.302687370334006	0.526	3.0	stim	poldrack-single-stim	s579	False	1
22.003	1.5	21.252	n/a	-1.0	2.386	columbia_card_task_fmri	n/a	n/a	-1.0	n/a	n/a	n/a	n/a	n/a	n/a	n/a	n/a	ITI	poldrack-single-stim	s579	False	0
23.641	2.384	26.025	1.646449965632658	draw_card	2.384	columbia_card_task_fmri	15.0	0.8333333333333334	89.0	-70.0	0.1666666666666666	6.0	1.0	1.0	0.0278700787707215	2.384	n/a	stim	poldrack-single-stim	s579	False	1
26.027	2.081	28.108	-1.1868833677006758	draw_card	2.081	columbia_card_task_fmri	15.0	0.8	89.0	-70.0	0.2	6.0	2.0	1.0	2.349527913147924	2.081	2.0	stim	poldrack-single-stim	s579	False	0
28.86	1.5	28.109	n/a	-1.0	2.59	columbia_card_task_fmri	n/a	n/a	-1.0	n/a	n/a	n/a	n/a	n/a	n/a	n/a	n/a	ITI	poldrack-single-stim	s579	False	0
30.701	1.638	32.339	2.479783298965992	draw_card	1.638	columbia_card_task_fmri	17.0	0.8333333333333334	89.0	-75.0	0.1666666666666666	6.0	1.0	1.0	2.6358223923402804	1.638	n/a	stim	poldrack-single-stim	s579	False	1
32.34	1.461	33.801	-0.5868833677006744	draw_card	1.461	columbia_card_task_fmri	17.0	0.8	89.0	-75.0	0.2	6.0	2.0	1.0	5.148788419318471	1.461	2.0	stim	poldrack-single-stim	s579	False	0
34.558	1.5	33.807	n/a	-1.0	2.658	columbia_card_task_fmri	n/a	n/a	-1.0	n/a	n/a	n/a	n/a	n/a	n/a	n/a	n/a	ITI	poldrack-single-stim	s579	False	0
36.468	1.859	38.327	3.813116632299324	draw_card	1.859	columbia_card_task_fmri	24.0	0.75	89.0	-60.0	0.25	8.0	1.0	2.0	4.721960779781746	1.859	1.0	stim	poldrack-single-stim	s579	False	0
39.081	1.5	38.33	n/a	-1.0	2.386	columbia_card_task_fmri	n/a	n/a	-1.0	n/a	n/a	n/a	n/a	n/a	n/a	n/a	n/a	ITI	poldrack-single-stim	s579	False	0
40.719	1.843	42.562	3.813116632299324	draw_card	1.843	columbia_card_task_fmri	29.0	0.75	89.0	-75.0	0.25	8.0	1.0	2.0	13.380467551836432	1.843	n/a	stim	poldrack-single-stim	s579	False	1
42.564	5.74	48.304	0.0988309180136124	draw_card	5.74	columbia_card_task_fmri	29.0	0.7142857142857143	89.0	-75.0	0.2857142857142857	8.0	2.0	2.0	15.329253041752407	5.74	2.0	stim	poldrack-single-stim	s579	False	0
49.06	1.5	48.309	n/a	-1.0	2.386	columbia_card_task_fmri	n/a	n/a	-1.0	n/a	n/a	n/a	n/a	n/a	n/a	n/a	n/a	ITI	poldrack-single-stim	s579	False	0
50.697	1.184	51.881	-0.4091055899228955	draw_card	1.184	columbia_card_task_fmri	17.0	0.7777777777777778	89.0	-65.0	0.2222222222222222	9.0	1.0	2.0	2.440158258957446	1.184	n/a	stim	poldrack-single-stim	s579	False	1
51.883	3.267	55.15	-2.686883367700676	end_round	3.267	columbia_card_task_fmri	17.0	0.75	71.0	-65.0	0.25	9.0	2.0	2.0	3.856156963455177	3.267	1.0	stim	poldrack-single-stim	s579	False	1
55.906	1.5	55.155	n/a	-1.0	2.25	columbia_card_task_fmri	n/a	n/a	-1.0	n/a	n/a	n/a	n/a	n/a	n/a	n/a	n/a	ITI	poldrack-single-stim	s579	False	0
57.407	2.727	60.134	3.913116632299324	end_round	2.727	columbia_card_task_fmri	14.0	0.9	71.0	-95.0	0.1	10.0	1.0	1.0	1.0499142789090214	2.727	0.0	stim	poldrack-single-stim	s579	False	1
60.888	1.5	60.137	n/a	-1.0	2.318	columbia_card_task_fmri	n/a	n/a	-1.0	n/a	n/a	n/a	n/a	n/a	n/a	n/a	n/a	ITI	poldrack-single-stim	s579	False	0
62.458	1.917	64.375	-0.1868833677006758	draw_card	1.917	columbia_card_task_fmri	15.0	0.8	89.0	-65.0	0.2	10.0	1.0	2.0	0.3501353185804277	1.917	n/a	stim	poldrack-single-stim	s579	False	1
64.377	3.362	67.739	-1.9646611454784528	end_round	3.362	columbia_card_task_fmri	15.0	0.7777777777777778	71.0	-65.0	0.2222222222222222	10.0	2.0	2.0	1.6089211603208255	3.362	1.0	stim	poldrack-single-stim	s579	False	1
68.493	1.5	67.742	n/a	-1.0	2.25	columbia_card_task_fmri	n/a	n/a	-1.0	n/a	n/a	n/a	n/a	n/a	n/a	n/a	n/a	ITI	poldrack-single-stim	s579	False	0
69.994	2.525	72.519	1.4131166322993256	draw_card	2.525	columbia_card_task_fmri	17.0	0.8	89.0	-65.0	0.2	10.0	1.0	2.0	1.1498834716280797	2.525	n/a	stim	poldrack-single-stim	s579	False	1
72.521	1.664	74.185	-0.4091055899228955	draw_card	1.664	columbia_card_task_fmri	17.0	0.7777777777777778	89.0	-65.0	0.2222222222222222	10.0	2.0	2.0	2.440158258957446	1.664	n/a	stim	poldrack-single-stim	s579	False	1
74.186	1.042	75.228	-2.686883367700676	end_round	1.042	columbia_card_task_fmri	17.0	0.75	71.0	-65.0	0.25	10.0	3.0	2.0	3.856156963455177	1.042	2.0	stim	poldrack-single-stim	s579	False	1
75.981	1.5	75.23	n/a	-1.0	2.25	columbia_card_task_fmri	n/a	n/a	-1.0	n/a	n/a	n/a	n/a	n/a	n/a	n/a	n/a	ITI	poldrack-single-stim	s579	False	0
77.483	2.27	79.753	-0.0202167010340079	draw_card	2.27	columbia_card_task_fmri	13.0	0.8333333333333334	89.0	-70.0	0.1666666666666666	12.0	1.0	2.0	-0.7172345774586084	2.27	n/a	stim	poldrack-single-stim	s579	False	1
79.754	3.954	83.708	-1.2777924586097693	draw_card	3.954	columbia_card_task_fmri	13.0	0.8181818181818181	89.0	-70.0	0.1818181818181818	12.0	2.0	2.0	0.3627836949145262	3.954	n/a	stim	poldrack-single-stim	s579	False	1
83.711	1.475	85.186	-2.786883367700676	end_round	1.475	columbia_card_task_fmri	13.0	0.8	71.0	-70.0	0.2	12.0	3.0	2.0	1.5497620975225246	1.475	2.0	stim	poldrack-single-stim	s579	False	1
85.94	1.5	85.189	n/a	-1.0	2.386	columbia_card_task_fmri	n/a	n/a	-1.0	n/a	n/a	n/a	n/a	n/a	n/a	n/a	n/a	ITI	poldrack-single-stim	s579	False	0
87.579	4.134	91.713	-0.0202167010340079	draw_card	4.134	columbia_card_task_fmri	15.0	0.8333333333333334	89.0	-80.0	0.1666666666666666	12.0	1.0	2.0	3.7535520303658094	4.134	n/a	stim	poldrack-single-stim	s579	False	1
91.715	0.992	92.707	-1.459610640427951	draw_card	0.992	columbia_card_task_fmri	15.0	0.8181818181818181	89.0	-80.0	0.1818181818181818	12.0	2.0	2.0	4.9898151418196335	0.992	n/a	stim	poldrack-single-stim	s579	False	1
92.709	1.229	93.938	-3.186883367700676	draw_card	1.229	columbia_card_task_fmri	15.0	0.8	89.0	-80.0	0.2	12.0	3.0	2.0	6.348504841991016	1.229	n/a	stim	poldrack-single-stim	s579	False	1
93.939	1.137	95.076	-5.2979944788117885	end_round	1.137	columbia_card_task_fmri	15.0	0.7777777777777778	71.0	-80.0	0.2222222222222222	12.0	4.0	2.0	7.843448009462847	1.137	3.0	stim	poldrack-single-stim	s579	False	1
95.831	1.5	95.08	n/a	-1.0	2.386	columbia_card_task_fmri	n/a	n/a	-1.0	n/a	n/a	n/a	n/a	n/a	n/a	n/a	n/a	ITI	poldrack-single-stim	s579	False	0
97.468	2.297	99.765	-0.9868833677006748	draw_card	2.297	columbia_card_task_fmri	14.0	0.8	89.0	-65.0	0.2	15.0	1.0	3.0	-0.049733978373613	2.297	n/a	stim	poldrack-single-stim	s579	False	1
99.767	1.205	100.972	-2.115454796272103	draw_card	1.205	columbia_card_task_fmri	14.0	0.7857142857142857	89.0	-65.0	0.2142857142857142	15.0	2.0	3.0	0.7657492499042604	1.205	n/a	stim	poldrack-single-stim	s579	False	1
100.974	1.144	102.118	-3.417652598469908	end_round	1.144	columbia_card_task_fmri	14.0	0.7692307692307692	71.0	-65.0	0.2307692307692307	15.0	3.0	3.0	1.6344152716099811	1.144	2.0	stim	poldrack-single-stim	s579	False	1
102.872	1.5	102.121	n/a	-1.0	2.726	columbia_card_task_fmri	n/a	n/a	-1.0	n/a	n/a	n/a	n/a	n/a	n/a	n/a	n/a	ITI	poldrack-single-stim	s579	False	0
104.85	3.604	108.454	-1.0618833677006758	draw_card	3.604	columbia_card_task_fmri	1.0	0.9375	89.0	-45.0	0.0625	16.0	1.0	1.0	-20.495717201822536	3.604	n/a	stim	poldrack-single-stim	s579	False	1
108.456	1.225	109.681	-1.2535500343673422	draw_card	1.225	columbia_card_task_fmri	1.0	0.9333333333333332	89.0	-45.0	0.0666666666666666	16.0	2.0	1.0	-20.157003587869607	1.225	n/a	stim	poldrack-single-stim	s579	False	1
109.683	1.188	110.871	-1.4725976534149614	end_round	1.188	columbia_card_task_fmri	1.0	0.9285714285714286	71.0	-45.0	0.0714285714285714	16.0	3.0	1.0	-19.78551057287264	1.188	2.0	stim	poldrack-single-stim	s579	False	1
111.628	1.5	110.877	n/a	-1.0	2.454	columbia_card_task_fmri	n/a	n/a	-1.0	n/a	n/a	n/a	n/a	n/a	n/a	n/a	n/a	ITI	poldrack-single-stim	s579	False	0
113.334	2.354	115.688	-0.1243833677006758	draw_card	2.354	columbia_card_task_fmri	15.0	0.8125	89.0	-70.0	0.1875	16.0	1.0	3.0	1.5263209982863728	2.354	n/a	stim	poldrack-single-stim	s579	False	1
115.69	4.487	120.177	-1.1868833677006758	draw_card	4.487	columbia_card_task_fmri	15.0	0.8	89.0	-70.0	0.2	16.0	2.0	3.0	2.349527913147924	4.487	n/a	stim	poldrack-single-stim	s579	False	1
120.179	1.351	121.53	-2.401169081986392	draw_card	1.351	columbia_card_task_fmri	15.0	0.7857142857142857	89.0	-70.0	0.2142857142857142	16.0	3.0	3.0	3.226985119439732	1.351	n/a	stim	poldrack-single-stim	s579	False	1
121.532	1.211	122.743	-3.802267983085293	end_round	1.211	columbia_card_task_fmri	15.0	0.7692307692307692	71.0	-70.0	0.2307692307692307	16.0	4.0	3.0	4.161664755383889	1.211	3.0	stim	poldrack-single-stim	s579	False	1
123.499	1.5	122.748	n/a	-1.0	2.318	columbia_card_task_fmri	n/a	n/a	-1.0	n/a	n/a	n/a	n/a	n/a	n/a	n/a	n/a	ITI	poldrack-single-stim	s579	False	0
125.068	1.545	126.613	6.813116632299324	draw_card	1.545	columbia_card_task_fmri	30.0	0.7	89.0	-50.0	0.3	10.0	1.0	3.0	5.009428122941962	1.545	1.0	stim	poldrack-single-stim	s579	False	0
127.366	1.5	126.615	n/a	-1.0	2.318	columbia_card_task_fmri	n/a	n/a	-1.0	n/a	n/a	n/a	n/a	n/a	n/a	n/a	n/a	ITI	poldrack-single-stim	s579	False	0
128.936	1.434	130.37	6.213116632299324	draw_card	1.434	columbia_card_task_fmri	17.0	0.8666666666666667	89.0	-70.0	0.1333333333333333	15.0	1.0	2.0	-2.074704630485812	1.434	n/a	stim	poldrack-single-stim	s579	False	1
130.372	1.227	131.599	5.384545203727897	draw_card	1.227	columbia_card_task_fmri	17.0	0.8571428571428572	89.0	-70.0	0.1428571428571428	15.0	2.0	2.0	-1.2056785970686832	1.227	n/a	stim	poldrack-single-stim	s579	False	1
131.601	0.994	132.595	4.428501247683939	end_round	0.994	columbia_card_task_fmri	17.0	0.8461538461538461	71.0	-70.0	0.1538461538461538	15.0	3.0	2.0	-0.2599584581146708	0.994	2.0	stim	poldrack-single-stim	s579	False	1
133.35	1.5	132.599	n/a	-1.0	2.59	columbia_card_task_fmri	n/a	n/a	-1.0	n/a	n/a	n/a	n/a	n/a	n/a	n/a	n/a	ITI	poldrack-single-stim	s579	False	0
135.193	2.512	137.705	1.4381166322993242	end_round	2.512	columbia_card_task_fmri	7.0	0.9375	71.0	-95.0	0.0625	16.0	1.0	1.0	-6.956539361294482	2.512	0.0	stim	poldrack-single-stim	s579	False	1
138.457	1.5	137.706	n/a	-1.0	2.726	columbia_card_task_fmri	n/a	n/a	-1.0	n/a	n/a	n/a	n/a	n/a	n/a	n/a	n/a	ITI	poldrack-single-stim	s579	False	0
140.436	4.397	144.833	3.000616632299324	draw_card	4.397	columbia_card_task_fmri	9.0	0.9375	89.0	-100.0	0.0625	16.0	1.0	1.0	-5.262968339890254	4.397	n/a	stim	poldrack-single-stim	s579	False	1
144.834	1.445	146.279	2.5464499656326574	draw_card	1.445	columbia_card_task_fmri	9.0	0.9333333333333332	89.0	-100.0	0.0666666666666666	16.0	2.0	1.0	-4.458660924882253	1.445	n/a	stim	poldrack-single-stim	s579	False	1
146.282	2.328	148.61	2.0274023465850397	draw_card	2.328	columbia_card_task_fmri	9.0	0.9285714285714286	89.0	-100.0	0.0714285714285714	16.0	3.0	1.0	-3.576627803883799	2.328	n/a	stim	poldrack-single-stim	s579	False	1
148.611	4.518	153.129	1.42850124768394	draw_card	4.518	columbia_card_task_fmri	9.0	0.9230769230769232	89.0	-100.0	0.0769230769230769	16.0	4.0	1.0	-2.60365458793034	4.518	n/a	stim	poldrack-single-stim	s579	False	1
153.131	1.044	154.175	0.729783298965992	end_round	1.044	columbia_card_task_fmri	9.0	0.9166666666666666	71.0	-100.0	0.0833333333333333	16.0	5.0	1.0	-1.523213883482775	1.044	4.0	stim	poldrack-single-stim	s579	False	1
154.934	1.5	154.183	n/a	-1.0	2.522	columbia_card_task_fmri	n/a	n/a	-1.0	n/a	n/a	n/a	n/a	n/a	n/a	n/a	n/a	ITI	poldrack-single-stim	s579	False	0
156.707	2.871	159.578	3.938116632299324	draw_card	2.871	columbia_card_task_fmri	15.0	0.875	89.0	-80.0	0.125	16.0	1.0	2.0	-0.2313766878542402	2.871	n/a	stim	poldrack-single-stim	s579	False	1
159.58	3.233	162.813	3.146449965632658	draw_card	3.233	columbia_card_task_fmri	15.0	0.8666666666666667	89.0	-80.0	0.1333333333333333	16.0	2.0	2.0	0.6438316345392678	3.233	n/a	stim	poldrack-single-stim	s579	False	1
162.816	1.003	163.819	2.2416880608707546	end_round	1.003	columbia_card_task_fmri	15.0	0.8571428571428572	71.0	-80.0	0.1428571428571428	16.0	3.0	2.0	1.5928242817824767	1.003	2.0	stim	poldrack-single-stim	s579	False	1
164.573	1.5	163.822	n/a	-1.0	3.134	columbia_card_task_fmri	n/a	n/a	-1.0	n/a	n/a	n/a	n/a	n/a	n/a	n/a	n/a	ITI	poldrack-single-stim	s579	False	0
166.958	2.718	169.676	6.063116632299324	draw_card	2.718	columbia_card_task_fmri	16.0	0.875	89.0	-70.0	0.125	16.0	1.0	2.0	-3.2067463992292677	2.718	n/a	stim	poldrack-single-stim	s579	False	1
169.678	1.577	171.255	5.346449965632657	draw_card	1.577	columbia_card_task_fmri	16.0	0.8666666666666667	89.0	-70.0	0.1333333333333333	16.0	2.0	2.0	-2.4145093634039547	1.577	n/a	stim	poldrack-single-stim	s579	False	1
171.258	1.482	172.74	4.527402346585039	draw_card	1.482	columbia_card_task_fmri	16.0	0.8571428571428572	89.0	-70.0	0.1428571428571428	16.0	3.0	2.0	-1.5554795072321106	1.482	n/a	stim	poldrack-single-stim	s579	False	1
172.742	4.239	176.981	3.582347401530092	draw_card	4.239	columbia_card_task_fmri	16.0	0.8461538461538461	89.0	-70.0	0.1538461538461538	16.0	4.0	2.0	-0.6206372739209023	4.239	n/a	stim	poldrack-single-stim	s579	False	1
176.983	3.123	180.106	2.479783298965992	end_round	3.123	columbia_card_task_fmri	16.0	0.8333333333333334	71.0	-70.0	0.1666666666666666	16.0	5.0	2.0	0.4004267885088808	3.123	4.0	stim	poldrack-single-stim	s579	False	1
180.863	1.5	180.112	n/a	-1.0	2.386	columbia_card_task_fmri	n/a	n/a	-1.0	n/a	n/a	n/a	n/a	n/a	n/a	n/a	n/a	ITI	poldrack-single-stim	s579	False	0
182.502	1.319	183.821	7.375616632299324	end_round	1.319	columbia_card_task_fmri	30.0	0.6875	71.0	-45.0	0.3125	16.0	1.0	5.0	3.112744888481153	1.319	0.0	stim	poldrack-single-stim	s579	False	1
184.575	1.5	183.824	n/a	-1.0	2.386	columbia_card_task_fmri	n/a	n/a	-1.0	n/a	n/a	n/a	n/a	n/a	n/a	n/a	n/a	ITI	poldrack-single-stim	s579	False	0
186.213	3.132	189.345	-0.8535500343673419	draw_card	3.132	columbia_card_task_fmri	13.0	0.8333333333333334	89.0	-75.0	0.1666666666666666	6.0	1.0	1.0	1.1455484736353725	3.132	n/a	stim	poldrack-single-stim	s579	False	1
189.347	1.677	191.024	-3.786883367700676	end_round	1.677	columbia_card_task_fmri	13.0	0.8	71.0	-75.0	0.2	6.0	2.0	1.0	3.549196587243763	1.677	1.0	stim	poldrack-single-stim	s579	False	1
191.779	1.5	191.028	n/a	-1.0	2.318	columbia_card_task_fmri	n/a	n/a	-1.0	n/a	n/a	n/a	n/a	n/a	n/a	n/a	n/a	ITI	poldrack-single-stim	s579	False	0
193.349	1.14	194.489	0.813116632299326	draw_card	1.14	columbia_card_task_fmri	14.0	0.8333333333333334	89.0	-70.0	0.1666666666666666	6.0	1.0	1.0	-0.3446837446365833	1.14	n/a	stim	poldrack-single-stim	s579	False	1
194.492	1.679	196.171	-1.9868833677006748	draw_card	1.679	columbia_card_task_fmri	14.0	0.8	89.0	-70.0	0.2	6.0	2.0	1.0	1.949643611992606	1.679	n/a	stim	poldrack-single-stim	s579	False	1
196.172	2.965	199.137	-6.186883367700676	end_round	2.965	columbia_card_task_fmri	14.0	0.75	71.0	-70.0	0.25	6.0	3.0	1.0	4.721960779781746	2.965	2.0	stim	poldrack-single-stim	s579	False	1
199.891	1.5	199.14	n/a	-1.0	2.318	columbia_card_task_fmri	n/a	n/a	-1.0	n/a	n/a	n/a	n/a	n/a	n/a	n/a	n/a	ITI	poldrack-single-stim	s579	False	0
201.461	4.684	206.145	0.813116632299326	draw_card	4.684	columbia_card_task_fmri	16.0	0.8333333333333334	89.0	-80.0	0.1666666666666666	6.0	1.0	1.0	4.126132801801475	4.684	1.0	stim	poldrack-single-stim	s579	False	0
206.9	1.5	206.149	n/a	-1.0	2.862	columbia_card_task_fmri	n/a	n/a	-1.0	n/a	n/a	n/a	n/a	n/a	n/a	n/a	n/a	ITI	poldrack-single-stim	s579	False	0
209.014	1.93	210.944	3.3131166322993257	draw_card	1.93	columbia_card_task_fmri	17.0	0.8333333333333334	89.0	-70.0	0.1666666666666666	6.0	1.0	1.0	0.7729862851128999	1.93	n/a	stim	poldrack-single-stim	s579	False	1
210.946	2.402	213.348	0.4131166322993256	draw_card	2.402	columbia_card_task_fmri	17.0	0.8	89.0	-70.0	0.2	6.0	2.0	1.0	3.14930449135926	2.402	n/a	stim	poldrack-single-stim	s579	False	1
213.35	1.029	214.379	-3.936883367700676	end_round	1.029	columbia_card_task_fmri	17.0	0.75	71.0	-70.0	0.25	6.0	3.0	1.0	6.020685599752163	1.029	2.0	stim	poldrack-single-stim	s579	False	1
215.132	1.5	214.381	n/a	-1.0	2.726	columbia_card_task_fmri	n/a	n/a	-1.0	n/a	n/a	n/a	n/a	n/a	n/a	n/a	n/a	ITI	poldrack-single-stim	s579	False	0
217.111	5.007	222.118	3.313116632299324	draw_card	5.007	columbia_card_task_fmri	25.0	0.75	89.0	-65.0	0.25	8.0	1.0	2.0	7.319431298379378	5.007	1.0	stim	poldrack-single-stim	s579	False	0
222.872	1.5	222.121	n/a	-1.0	2.25	columbia_card_task_fmri	n/a	n/a	-1.0	n/a	n/a	n/a	n/a	n/a	n/a	n/a	n/a	ITI	poldrack-single-stim	s579	False	0
224.374	0.909	225.283	3.313116632299324	draw_card	0.909	columbia_card_task_fmri	30.0	0.75	89.0	-80.0	0.25	8.0	1.0	2.0	15.978143450096802	0.909	n/a	stim	poldrack-single-stim	s579	False	1
225.286	2.862	228.148	-0.6154547962720993	draw_card	2.862	columbia_card_task_fmri	30.0	0.7142857142857143	89.0	-80.0	0.2857142857142857	8.0	2.0	2.0	18.039393037361	2.862	n/a	stim	poldrack-single-stim	s579	False	1
228.15	1.275	229.425	-5.853550034367337	end_round	1.275	columbia_card_task_fmri	30.0	0.6666666666666667	71.0	-80.0	0.3333333333333333	8.0	3.0	2.0	20.20067840994207	1.275	2.0	stim	poldrack-single-stim	s579	False	1
230.18	1.5	229.429	n/a	-1.0	2.318	columbia_card_task_fmri	n/a	n/a	-1.0	n/a	n/a	n/a	n/a	n/a	n/a	n/a	n/a	ITI	poldrack-single-stim	s579	False	0
231.75	1.691	233.441	3.013116632299325	end_round	1.691	columbia_card_task_fmri	13.0	0.9	71.0	-95.0	0.1	10.0	1.0	1.0	0.7500078412274291	1.691	0.0	stim	poldrack-single-stim	s579	False	1
234.199	1.5	233.448	n/a	-1.0	2.454	columbia_card_task_fmri	n/a	n/a	-1.0	n/a	n/a	n/a	n/a	n/a	n/a	n/a	n/a	ITI	poldrack-single-stim	s579	False	0
235.906	2.393	238.299	4.413116632299324	draw_card	2.393	columbia_card_task_fmri	14.0	0.9	89.0	-90.0	0.1	10.0	1.0	1.0	-0.4495999256522225	2.393	n/a	stim	poldrack-single-stim	s579	False	1
238.302	0.984	239.286	3.257561076743767	draw_card	0.984	columbia_card_task_fmri	14.0	0.8888888888888888	89.0	-90.0	0.1111111111111111	10.0	2.0	1.0	1.0339659859367814	0.984	2.0	stim	poldrack-single-stim	s579	False	0
240.042	1.5	239.291	n/a	-1.0	2.522	columbia_card_task_fmri	n/a	n/a	-1.0	n/a	n/a	n/a	n/a	n/a	n/a	n/a	n/a	ITI	poldrack-single-stim	s579	False	0
241.817	1.689	243.506	-0.3868833677006751	draw_card	1.689	columbia_card_task_fmri	16.0	0.8	89.0	-70.0	0.2	10.0	1.0	2.0	2.749414903833788	1.689	n/a	stim	poldrack-single-stim	s579	False	1
243.508	2.055	245.563	-2.2979944788117868	draw_card	2.055	columbia_card_task_fmri	16.0	0.7777777777777778	89.0	-70.0	0.2222222222222222	10.0	2.0	2.0	4.102666254763591	2.055	n/a	stim	poldrack-single-stim	s579	False	1
245.565	1.123	246.688	-4.686883367700676	end_round	1.123	columbia_card_task_fmri	16.0	0.75	71.0	-70.0	0.25	10.0	3.0	2.0	5.5877748987289095	1.123	2.0	stim	poldrack-single-stim	s579	False	1
247.445	1.5	246.694	n/a	-1.0	2.318	columbia_card_task_fmri	n/a	n/a	-1.0	n/a	n/a	n/a	n/a	n/a	n/a	n/a	n/a	ITI	poldrack-single-stim	s579	False	0
249.017	3.746	252.763	-1.103550034367342	end_round	3.746	columbia_card_task_fmri	7.0	0.9166666666666666	71.0	-100.0	0.0833333333333333	12.0	1.0	1.0	-2.075779689054009	3.746	0.0	stim	poldrack-single-stim	s579	False	1
253.519	1.5	252.768	n/a	-1.0	2.522	columbia_card_task_fmri	n/a	n/a	-1.0	n/a	n/a	n/a	n/a	n/a	n/a	n/a	n/a	ITI	poldrack-single-stim	s579	False	0
255.294	4.912	260.206	-0.8535500343673401	draw_card	4.912	columbia_card_task_fmri	14.0	0.8333333333333334	89.0	-80.0	0.1666666666666666	12.0	1.0	2.0	3.3809733267165143	4.912	n/a	stim	poldrack-single-stim	s579	False	1
260.208	0.733	260.941	-2.277792458609769	end_round	0.733	columbia_card_task_fmri	14.0	0.8181818181818181	71.0	-80.0	0.1818181818181818	12.0	2.0	2.0	4.604216478069041	0.733	1.0	stim	poldrack-single-stim	s579	False	1
261.694	1.5	260.943	n/a	-1.0	2.998	columbia_card_task_fmri	n/a	n/a	-1.0	n/a	n/a	n/a	n/a	n/a	n/a	n/a	n/a	ITI	poldrack-single-stim	s579	False	0
263.945	3.428	267.373	0.8131166322993242	draw_card	3.428	columbia_card_task_fmri	15.0	0.8333333333333334	89.0	-75.0	0.1666666666666666	12.0	1.0	2.0	1.8906805677295184	3.428	n/a	stim	poldrack-single-stim	s579	False	1
267.376	0.755	268.131	-0.5505197313370409	end_round	0.755	columbia_card_task_fmri	15.0	0.8181818181818181	71.0	-75.0	0.1818181818181818	12.0	2.0	2.0	3.0618431355016185	0.755	1.0	stim	poldrack-single-stim	s579	False	1
268.886	1.5	268.135	n/a	-1.0	2.318	columbia_card_task_fmri	n/a	n/a	-1.0	n/a	n/a	n/a	n/a	n/a	n/a	n/a	n/a	ITI	poldrack-single-stim	s579	False	0
270.456	5.359	275.815	-0.1868833677006758	draw_card	5.359	columbia_card_task_fmri	15.0	0.8	89.0	-65.0	0.2	15.0	1.0	3.0	0.3501353185804277	5.359	n/a	stim	poldrack-single-stim	s579	False	1
275.817	0.89	276.707	-1.3297405105578182	end_round	0.89	columbia_card_task_fmri	15.0	0.7857142857142857	71.0	-65.0	0.2142857142857142	15.0	2.0	3.0	1.17594773623766	0.89	1.0	stim	poldrack-single-stim	s579	False	1
277.461	1.5	276.71	n/a	-1.0	2.25	columbia_card_task_fmri	n/a	n/a	-1.0	n/a	n/a	n/a	n/a	n/a	n/a	n/a	n/a	ITI	poldrack-single-stim	s579	False	0
278.964	4.782	283.746	-0.9368833677006758	draw_card	4.782	columbia_card_task_fmri	14.0	0.8125	89.0	-70.0	0.1875	16.0	1.0	3.0	1.136127191312596	4.782	n/a	stim	poldrack-single-stim	s579	False	1
283.748	2.338	286.086	-1.9868833677006748	draw_card	2.338	columbia_card_task_fmri	14.0	0.8	89.0	-70.0	0.2	16.0	2.0	3.0	1.949643611992606	2.338	2.0	stim	poldrack-single-stim	s579	False	0
286.843	1.5	286.092	n/a	-1.0	2.454	columbia_card_task_fmri	n/a	n/a	-1.0	n/a	n/a	n/a	n/a	n/a	n/a	n/a	n/a	ITI	poldrack-single-stim	s579	False	0
288.55	3.237	291.787	-0.9993833677006758	end_round	3.237	columbia_card_task_fmri	11.0	0.6875	71.0	-30.0	0.3125	16.0	1.0	5.0	-12.638797707339112	3.237	0.0	stim	poldrack-single-stim	s579	False	1
292.546	1.5	291.795	n/a	-1.0	2.318	columbia_card_task_fmri	n/a	n/a	-1.0	n/a	n/a	n/a	n/a	n/a	n/a	n/a	n/a	ITI	poldrack-single-stim	s579	False	0
294.117	2.102	296.219	3.813116632299324	draw_card	2.102	columbia_card_task_fmri	15.0	0.8666666666666667	89.0	-75.0	0.1333333333333333	15.0	1.0	2.0	-1.055273120972405	2.102	n/a	stim	poldrack-single-stim	s579	False	1
296.221	1.014	297.235	2.955973775156468	draw_card	1.014	columbia_card_task_fmri	15.0	0.8571428571428572	89.0	-75.0	0.1428571428571428	15.0	2.0	2.0	-0.1562590490858433	1.014	n/a	stim	poldrack-single-stim	s579	False	1
297.238	2.794	300.032	1.9669627861454773	draw_card	2.794	columbia_card_task_fmri	15.0	0.8461538461538461	89.0	-75.0	0.1538461538461538	15.0	3.0	2.0	0.8220943009586392	2.794	n/a	stim	poldrack-single-stim	s579	False	1
300.035	0.896	300.931	0.8131166322993242	end_round	0.896	columbia_card_task_fmri	15.0	0.8333333333333334	71.0	-75.0	0.1666666666666666	15.0	4.0	2.0	1.8906805677295184	0.896	3.0	stim	poldrack-single-stim	s579	False	1
301.687	1.5	300.936	n/a	-1.0	2.318	columbia_card_task_fmri	n/a	n/a	-1.0	n/a	n/a	n/a	n/a	n/a	n/a	n/a	n/a	ITI	poldrack-single-stim	s579	False	0
303.257	2.35	305.607	5.546449965632658	draw_card	2.35	columbia_card_task_fmri	17.0	0.8666666666666667	89.0	-75.0	0.1333333333333333	15.0	1.0	2.0	-0.3756386291405214	2.35	n/a	stim	poldrack-single-stim	s579	False	1
305.61	1.638	307.248	4.670259489442183	draw_card	1.638	columbia_card_task_fmri	17.0	0.8571428571428572	89.0	-75.0	0.1428571428571428	15.0	2.0	2.0	0.543367084090157	1.638	n/a	stim	poldrack-single-stim	s579	False	1
307.25	2.615	309.865	3.65927047845317	draw_card	2.615	columbia_card_task_fmri	17.0	0.8461538461538461	89.0	-75.0	0.1538461538461538	15.0	3.0	2.0	1.5434755141015517	2.615	n/a	stim	poldrack-single-stim	s579	False	1
309.869	1.29	311.159	2.479783298965992	end_round	1.29	columbia_card_task_fmri	17.0	0.8333333333333334	71.0	-75.0	0.1666666666666666	15.0	4.0	2.0	2.6358223923402804	1.29	3.0	stim	poldrack-single-stim	s579	False	1
311.917	1.5	311.166	n/a	-1.0	2.59	columbia_card_task_fmri	n/a	n/a	-1.0	n/a	n/a	n/a	n/a	n/a	n/a	n/a	n/a	ITI	poldrack-single-stim	s579	False	0
313.761	2.883	316.644	1.1256166322993242	draw_card	2.883	columbia_card_task_fmri	2.0	0.9375	89.0	-25.0	0.0625	16.0	1.0	1.0	-25.074147580989425	2.883	n/a	stim	poldrack-single-stim	s579	False	1
316.648	1.004	317.652	1.013116632299324	draw_card	1.004	columbia_card_task_fmri	2.0	0.9333333333333332	89.0	-25.0	0.0666666666666666	16.0	2.0	1.0	-24.876303977724337	1.004	n/a	stim	poldrack-single-stim	s579	False	1
317.655	1.583	319.238	0.8845452037278958	draw_card	1.583	columbia_card_task_fmri	2.0	0.9285714285714286	89.0	-25.0	0.0714285714285714	16.0	3.0	1.0	-24.659250862373085	1.583	n/a	stim	poldrack-single-stim	s579	False	1
319.24	1.42	320.66	0.7361935553762473	end_round	1.42	columbia_card_task_fmri	2.0	0.9230769230769232	71.0	-25.0	0.0769230769230769	16.0	4.0	1.0	-24.41971902993023	1.42	3.0	stim	poldrack-single-stim	s579	False	1
321.415	1.5	320.664	n/a	-1.0	2.25	columbia_card_task_fmri	n/a	n/a	-1.0	n/a	n/a	n/a	n/a	n/a	n/a	n/a	n/a	ITI	poldrack-single-stim	s579	False	0
322.917	2.23	325.147	3.313116632299324	draw_card	2.23	columbia_card_task_fmri	9.0	0.9375	89.0	-95.0	0.0625	16.0	1.0	1.0	-6.472673719558301	2.23	n/a	stim	poldrack-single-stim	s579	False	1
325.15	0.759	325.909	2.8797832989659917	draw_card	0.759	columbia_card_task_fmri	9.0	0.9333333333333332	89.0	-95.0	0.0666666666666666	16.0	2.0	1.0	-5.705295926249388	0.759	n/a	stim	poldrack-single-stim	s579	False	1
325.911	1.429	327.34	2.384545203727896	draw_card	1.429	columbia_card_task_fmri	9.0	0.9285714285714286	89.0	-95.0	0.0714285714285714	16.0	3.0	1.0	-4.863758897408022	1.429	n/a	stim	poldrack-single-stim	s579	False	1
327.343	0.994	328.337	1.813116632299324	draw_card	0.994	columbia_card_task_fmri	9.0	0.9230769230769232	89.0	-95.0	0.0769230769230769	16.0	4.0	1.0	-3.935454509542247	0.994	n/a	stim	poldrack-single-stim	s579	False	1
328.339	1.772	330.111	1.146449965632658	draw_card	1.772	columbia_card_task_fmri	9.0	0.9166666666666666	89.0	-95.0	0.0833333333333333	16.0	5.0	1.0	-2.904613622922273	1.772	n/a	stim	poldrack-single-stim	s579	False	1
330.115	1.966	332.081	0.3585711777538691	end_round	1.966	columbia_card_task_fmri	9.0	0.9090909090909092	71.0	-95.0	0.0909090909090909	16.0	6.0	1.0	-1.7512408421055348	1.966	5.0	stim	poldrack-single-stim	s579	False	1
332.834	1.5	332.083	n/a	-1.0	2.25	columbia_card_task_fmri	n/a	n/a	-1.0	n/a	n/a	n/a	n/a	n/a	n/a	n/a	n/a	ITI	poldrack-single-stim	s579	False	0
334.338	3.486	337.824	4.875616632299324	draw_card	3.486	columbia_card_task_fmri	11.0	0.9375	89.0	-100.0	0.0625	16.0	1.0	1.0	-4.779071015273228	3.486	n/a	stim	poldrack-single-stim	s579	False	1
337.827	1.122	338.949	4.4131166322993245	draw_card	1.122	columbia_card_task_fmri	11.0	0.9333333333333332	89.0	-100.0	0.0666666666666666	16.0	2.0	1.0	-3.959992199380864	1.122	n/a	stim	poldrack-single-stim	s579	False	1
338.952	1.138	340.09	3.884545203727897	draw_card	1.138	columbia_card_task_fmri	11.0	0.9285714285714286	89.0	-100.0	0.0714285714285714	16.0	3.0	1.0	-3.061761103180117	1.138	n/a	stim	poldrack-single-stim	s579	False	1
340.093	1.849	341.942	3.2746550938377865	draw_card	1.849	columbia_card_task_fmri	11.0	0.9230769230769232	89.0	-100.0	0.0769230769230769	16.0	4.0	1.0	-2.070920832820501	1.849	n/a	stim	poldrack-single-stim	s579	False	1
341.946	1.088	343.034	2.563116632299324	end_round	1.088	columbia_card_task_fmri	11.0	0.9166666666666666	71.0	-100.0	0.0833333333333333	16.0	5.0	1.0	-0.970640694744482	1.088	4.0	stim	poldrack-single-stim	s579	False	1
343.789	1.5	343.038	n/a	-1.0	2.522	columbia_card_task_fmri	n/a	n/a	-1.0	n/a	n/a	n/a	n/a	n/a	n/a	n/a	n/a	ITI	poldrack-single-stim	s579	False	0
345.565	3.16	348.725	5.438116632299324	draw_card	3.16	columbia_card_task_fmri	16.0	0.875	89.0	-75.0	0.125	16.0	1.0	2.0	-1.553790086029572	3.16	1.0	stim	poldrack-single-stim	s579	False	0
349.479	1.5	348.728	n/a	-1.0	2.454	columbia_card_task_fmri	n/a	n/a	-1.0	n/a	n/a	n/a	n/a	n/a	n/a	n/a	n/a	ITI	poldrack-single-stim	s579	False	0
351.185	1.691	352.876	5.688116632299324	draw_card	1.691	columbia_card_task_fmri	17.0	0.875	89.0	-80.0	0.125	16.0	1.0	2.0	0.4298443007685648	1.691	n/a	stim	poldrack-single-stim	s579	False	1
352.88	0.69	353.57	4.879783298965992	draw_card	0.69	columbia_card_task_fmri	17.0	0.8666666666666667	89.0	-80.0	0.1333333333333333	16.0	2.0	2.0	1.3234899368942123	0.69	n/a	stim	poldrack-single-stim	s579	False	1
353.574	2.561	356.135	3.95597377515647	draw_card	2.561	columbia_card_task_fmri	17.0	0.8571428571428572	89.0	-80.0	0.1428571428571428	16.0	3.0	2.0	2.2924735468321487	2.561	n/a	stim	poldrack-single-stim	s579	False	1
356.138	0.755	356.893	2.8900397092224006	end_round	0.755	columbia_card_task_fmri	17.0	0.8461538461538461	71.0	-80.0	0.1538461538461538	16.0	4.0	2.0	3.3469684393803973	0.755	3.0	stim	poldrack-single-stim	s579	False	1
357.651	1.5	356.9	n/a	-1.0	2.25	columbia_card_task_fmri	n/a	n/a	-1.0	n/a	n/a	n/a	n/a	n/a	n/a	n/a	n/a	ITI	poldrack-single-stim	s579	False	0
370.165	3.907	374.072	-0.0202167010340079	draw_card	3.907	columbia_card_task_fmri	13.0	0.8333333333333334	89.0	-70.0	0.1666666666666666	6.0	1.0	1.0	-0.7172345774586084	3.907	n/a	stim	poldrack-single-stim	s579	False	1
374.075	1.596	375.671	-2.786883367700676	draw_card	1.596	columbia_card_task_fmri	13.0	0.8	89.0	-70.0	0.2	6.0	2.0	1.0	1.5497620975225246	1.596	n/a	stim	poldrack-single-stim	s579	False	1
375.674	1.553	377.227	-6.936883367700676	end_round	1.553	columbia_card_task_fmri	13.0	0.75	71.0	-70.0	0.25	6.0	3.0	1.0	4.289057537266508	1.553	2.0	stim	poldrack-single-stim	s579	False	1
377.986	1.5	377.235	n/a	-1.0	2.454	columbia_card_task_fmri	n/a	n/a	-1.0	n/a	n/a	n/a	n/a	n/a	n/a	n/a	n/a	ITI	poldrack-single-stim	s579	False	0
379.693	3.428	383.121	-0.0202167010340079	draw_card	3.428	columbia_card_task_fmri	15.0	0.8333333333333334	89.0	-80.0	0.1666666666666666	6.0	1.0	1.0	3.7535520303658094	3.428	1.0	stim	poldrack-single-stim	s579	False	0
383.875	1.5	383.124	n/a	-1.0	2.454	columbia_card_task_fmri	n/a	n/a	-1.0	n/a	n/a	n/a	n/a	n/a	n/a	n/a	n/a	ITI	poldrack-single-stim	s579	False	0
385.582	1.215	386.797	1.646449965632658	draw_card	1.215	columbia_card_task_fmri	16.0	0.8333333333333334	89.0	-75.0	0.1666666666666666	6.0	1.0	1.0	2.263250303795367	1.215	1.0	stim	poldrack-single-stim	s579	False	0
387.556	1.5	386.805	n/a	-1.0	2.522	columbia_card_task_fmri	n/a	n/a	-1.0	n/a	n/a	n/a	n/a	n/a	n/a	n/a	n/a	ITI	poldrack-single-stim	s579	False	0
389.331	2.945	392.276	2.813116632299324	end_round	2.945	columbia_card_task_fmri	21.0	0.75	71.0	-55.0	0.25	8.0	1.0	2.0	1.2588154592373757	2.945	0.0	stim	poldrack-single-stim	s579	False	1
393.03	1.5	392.279	n/a	-1.0	2.454	columbia_card_task_fmri	n/a	n/a	-1.0	n/a	n/a	n/a	n/a	n/a	n/a	n/a	n/a	ITI	poldrack-single-stim	s579	False	0
394.737	2.708	397.445	4.063116632299324	end_round	2.708	columbia_card_task_fmri	26.0	0.75	71.0	-65.0	0.25	8.0	1.0	2.0	7.752350814213756	2.708	0.0	stim	poldrack-single-stim	s579	False	1
398.199	1.5	397.448	n/a	-1.0	2.658	columbia_card_task_fmri	n/a	n/a	-1.0	n/a	n/a	n/a	n/a	n/a	n/a	n/a	n/a	ITI	poldrack-single-stim	s579	False	0
400.111	2.498	402.609	-0.8535500343673419	end_round	2.498	columbia_card_task_fmri	15.0	0.7777777777777778	71.0	-60.0	0.2222222222222222	9.0	1.0	2.0	-0.4691150721872752	2.498	0.0	stim	poldrack-single-stim	s579	False	1
403.362	1.5	402.611	n/a	-1.0	2.386	columbia_card_task_fmri	n/a	n/a	-1.0	n/a	n/a	n/a	n/a	n/a	n/a	n/a	n/a	ITI	poldrack-single-stim	s579	False	0
405.001	1.691	406.692	3.513116632299325	draw_card	1.691	columbia_card_task_fmri	13.0	0.9	89.0	-90.0	0.1	10.0	1.0	1.0	-0.7494971096859828	1.691	n/a	stim	poldrack-single-stim	s579	False	1
406.696	1.064	407.76	2.3686721878548798	draw_card	1.064	columbia_card_task_fmri	13.0	0.8888888888888888	89.0	-90.0	0.1111111111111111	10.0	2.0	1.0	0.7197944574075947	1.064	n/a	stim	poldrack-single-stim	s579	False	1
407.762	2.496	410.258	0.9381166322993242	draw_card	2.496	columbia_card_task_fmri	13.0	0.875	89.0	-90.0	0.125	10.0	3.0	1.0	2.413557769632199	2.496	n/a	stim	poldrack-single-stim	s579	False	1
410.262	1.267	411.529	-0.9011690819863876	end_round	1.267	columbia_card_task_fmri	13.0	0.8571428571428572	71.0	-90.0	0.1428571428571428	10.0	4.0	1.0	4.391469077555826	1.267	3.0	stim	poldrack-single-stim	s579	False	1
412.283	1.5	411.532	n/a	-1.0	2.522	columbia_card_task_fmri	n/a	n/a	-1.0	n/a	n/a	n/a	n/a	n/a	n/a	n/a	n/a	ITI	poldrack-single-stim	s579	False	0
414.058	1.763	415.821	4.813116632299324	draw_card	1.763	columbia_card_task_fmri	15.0	0.9	89.0	-95.0	0.1	10.0	1.0	1.0	1.3498224169423736	1.763	n/a	stim	poldrack-single-stim	s579	False	1
415.824	1.161	416.985	3.5908944100771008	draw_card	1.161	columbia_card_task_fmri	15.0	0.8888888888888888	89.0	-95.0	0.1111111111111111	10.0	2.0	1.0	2.9190326171366223	1.161	2.0	stim	poldrack-single-stim	s579	False	0
417.74	1.5	416.989	n/a	-1.0	2.59	columbia_card_task_fmri	n/a	n/a	-1.0	n/a	n/a	n/a	n/a	n/a	n/a	n/a	n/a	ITI	poldrack-single-stim	s579	False	0
419.583	1.835	421.418	0.6131166322993249	draw_card	1.835	columbia_card_task_fmri	16.0	0.8	89.0	-65.0	0.2	10.0	1.0	2.0	0.7500078412274291	1.835	n/a	stim	poldrack-single-stim	s579	False	1
421.421	1.317	422.738	-1.186883367700674	end_round	1.317	columbia_card_task_fmri	16.0	0.7777777777777778	71.0	-65.0	0.2222222222222222	10.0	2.0	2.0	2.024538214486469	1.317	1.0	stim	poldrack-single-stim	s579	False	1
423.497	1.5	422.746	n/a	-1.0	2.386	columbia_card_task_fmri	n/a	n/a	-1.0	n/a	n/a	n/a	n/a	n/a	n/a	n/a	n/a	ITI	poldrack-single-stim	s579	False	0
425.136	1.747	426.883	-0.6868833677006758	draw_card	1.747	columbia_card_task_fmri	7.0	0.9166666666666666	89.0	-95.0	0.0833333333333333	12.0	1.0	1.0	-3.457159053761988	1.747	n/a	stim	poldrack-single-stim	s579	False	1
426.885	1.925	428.81	-1.4596106404279492	draw_card	1.925	columbia_card_task_fmri	7.0	0.9090909090909092	89.0	-95.0	0.0909090909090909	12.0	2.0	1.0	-2.325983736457971	1.925	n/a	stim	poldrack-single-stim	s579	False	1
428.814	1.386	430.2	-2.386883367700676	draw_card	1.386	columbia_card_task_fmri	7.0	0.9	89.0	-95.0	0.1	12.0	3.0	1.0	-1.0493922787770416	1.386	n/a	stim	poldrack-single-stim	s579	False	1
430.202	1.524	431.726	-3.52021670103401	end_round	1.524	columbia_card_task_fmri	7.0	0.8888888888888888	71.0	-95.0	0.1111111111111111	12.0	4.0	1.0	0.4056248525081543	1.524	3.0	stim	poldrack-single-stim	s579	False	1
432.482	1.5	431.731	n/a	-1.0	2.59	columbia_card_task_fmri	n/a	n/a	-1.0	n/a	n/a	n/a	n/a	n/a	n/a	n/a	n/a	ITI	poldrack-single-stim	s579	False	0
434.326	1.771	436.097	-0.0202167010340079	draw_card	1.771	columbia_card_task_fmri	14.0	0.8333333333333334	89.0	-75.0	0.1666666666666666	12.0	1.0	2.0	1.5181132633929335	1.771	n/a	stim	poldrack-single-stim	s579	False	1
436.101	0.595	436.696	-1.3687015495188593	draw_card	0.595	columbia_card_task_fmri	14.0	0.8181818181818181	89.0	-75.0	0.1818181818181818	12.0	2.0	2.0	2.676255486971826	0.595	n/a	stim	poldrack-single-stim	s579	False	1
436.699	1.146	437.845	-2.986883367700675	draw_card	1.146	columbia_card_task_fmri	14.0	0.8	89.0	-75.0	0.2	12.0	3.0	2.0	3.949091106980724	1.146	n/a	stim	poldrack-single-stim	s579	False	1
437.848	0.768	438.616	-4.964661145478451	draw_card	0.768	columbia_card_task_fmri	14.0	0.7777777777777778	89.0	-75.0	0.2222222222222222	12.0	4.0	2.0	5.349573836261449	0.768	n/a	stim	poldrack-single-stim	s579	False	1
438.62	1.242	439.862	-7.436883367700676	end_round	1.242	columbia_card_task_fmri	14.0	0.75	71.0	-75.0	0.25	12.0	5.0	2.0	6.886513875922553	1.242	4.0	stim	poldrack-single-stim	s579	False	1
440.616	1.5	439.865	n/a	-1.0	2.318	columbia_card_task_fmri	n/a	n/a	-1.0	n/a	n/a	n/a	n/a	n/a	n/a	n/a	n/a	ITI	poldrack-single-stim	s579	False	0
442.188	2.997	445.185	1.646449965632658	draw_card	2.997	columbia_card_task_fmri	15.0	0.8333333333333334	89.0	-70.0	0.1666666666666666	12.0	1.0	2.0	0.0278700787707215	2.997	n/a	stim	poldrack-single-stim	s579	False	1
445.189	0.619	445.808	0.3585711777538674	draw_card	0.619	columbia_card_task_fmri	15.0	0.8181818181818181	89.0	-70.0	0.1818181818181818	12.0	2.0	2.0	1.1339300485519814	0.619	n/a	stim	poldrack-single-stim	s579	False	1
445.812	0.734	446.546	-1.1868833677006758	draw_card	0.734	columbia_card_task_fmri	15.0	0.8	89.0	-70.0	0.2	12.0	3.0	2.0	2.349527913147924	0.734	n/a	stim	poldrack-single-stim	s579	False	1
446.55	0.656	447.206	-3.0757722565895653	draw_card	0.656	columbia_card_task_fmri	15.0	0.7777777777777778	89.0	-70.0	0.2222222222222222	12.0	4.0	2.0	3.687035279379685	0.656	n/a	stim	poldrack-single-stim	s579	False	1
447.21	0.582	447.792	-5.436883367700676	draw_card	0.582	columbia_card_task_fmri	15.0	0.75	89.0	-70.0	0.25	12.0	5.0	2.0	5.154866596858113	0.582	n/a	stim	poldrack-single-stim	s579	False	1
447.796	0.694	448.49	-8.47259765341496	draw_card	0.694	columbia_card_task_fmri	15.0	0.7142857142857143	89.0	-70.0	0.2857142857142857	12.0	6.0	2.0	6.747500331787208	0.694	n/a	stim	poldrack-single-stim	s579	False	1
448.493	0.625	449.118	-12.520216701034006	draw_card	0.625	columbia_card_task_fmri	15.0	0.6666666666666667	89.0	-70.0	0.3333333333333333	12.0	7.0	2.0	8.417439972023288	0.625	7.0	stim	poldrack-single-stim	s579	False	0
449.873	1.5	449.122	n/a	-1.0	2.25	columbia_card_task_fmri	n/a	n/a	-1.0	n/a	n/a	n/a	n/a	n/a	n/a	n/a	n/a	ITI	poldrack-single-stim	s579	False	0
451.376	2.169	453.545	-0.3868833677006751	draw_card	2.169	columbia_card_task_fmri	16.0	0.8	89.0	-70.0	0.2	15.0	1.0	3.0	2.749414903833788	2.169	n/a	stim	poldrack-single-stim	s579	False	1
453.548	0.575	454.123	-1.6154547962721046	draw_card	0.575	columbia_card_task_fmri	16.0	0.7857142857142857	89.0	-70.0	0.2142857142857142	15.0	2.0	3.0	3.6372008550233232	0.575	n/a	stim	poldrack-single-stim	s579	False	1
454.126	0.572	454.698	-3.0330372138545227	draw_card	0.572	columbia_card_task_fmri	16.0	0.7692307692307692	89.0	-70.0	0.2307692307692307	15.0	3.0	3.0	4.582882505698187	0.572	n/a	stim	poldrack-single-stim	s579	False	1
454.702	0.45	455.152	-4.686883367700676	draw_card	0.45	columbia_card_task_fmri	16.0	0.75	89.0	-70.0	0.25	15.0	4.0	3.0	5.5877748987289095	0.45	n/a	stim	poldrack-single-stim	s579	False	1
455.156	0.466	455.622	-6.641428822246129	draw_card	0.466	columbia_card_task_fmri	16.0	0.7272727272727273	89.0	-70.0	0.2727272727272727	15.0	5.0	3.0	6.6495488143606565	0.466	n/a	stim	poldrack-single-stim	s579	False	1
455.625	0.784	456.409	-8.986883367700676	end_round	0.784	columbia_card_task_fmri	16.0	0.7	71.0	-70.0	0.3	15.0	6.0	3.0	7.758344642838864	0.784	5.0	stim	poldrack-single-stim	s579	False	1
457.168	1.5	456.417	n/a	-1.0	2.454	columbia_card_task_fmri	n/a	n/a	-1.0	n/a	n/a	n/a	n/a	n/a	n/a	n/a	n/a	ITI	poldrack-single-stim	s579	False	0
458.876	1.742	460.618	0.0006166322993241	draw_card	1.742	columbia_card_task_fmri	14.0	0.8125	89.0	-65.0	0.1875	16.0	1.0	3.0	-0.8147968402122814	1.742	n/a	stim	poldrack-single-stim	s579	False	1
460.622	0.433	461.055	-0.9868833677006748	draw_card	0.433	columbia_card_task_fmri	14.0	0.8	89.0	-65.0	0.2	16.0	2.0	3.0	-0.049733978373613	0.433	n/a	stim	poldrack-single-stim	s579	False	1
461.059	0.402	461.461	-2.115454796272103	draw_card	0.402	columbia_card_task_fmri	14.0	0.7857142857142857	89.0	-65.0	0.2142857142857142	16.0	3.0	3.0	0.7657492499042604	0.402	n/a	stim	poldrack-single-stim	s579	False	1
461.465	0.389	461.854	-3.417652598469908	draw_card	0.389	columbia_card_task_fmri	14.0	0.7692307692307692	89.0	-65.0	0.2307692307692307	16.0	4.0	3.0	1.6344152716099811	0.389	n/a	stim	poldrack-single-stim	s579	False	1
461.858	0.404	462.262	-4.936883367700676	draw_card	0.404	columbia_card_task_fmri	14.0	0.75	89.0	-65.0	0.25	16.0	5.0	3.0	2.557472267124808	0.404	n/a	stim	poldrack-single-stim	s579	False	1
462.266	0.521	462.787	-6.732337913155221	end_round	0.521	columbia_card_task_fmri	14.0	0.7272727272727273	71.0	-65.0	0.2727272727272727	16.0	6.0	3.0	3.532780910246288	0.521	5.0	stim	poldrack-single-stim	s579	False	1
463.542	1.5	462.791	n/a	-1.0	3.27	columbia_card_task_fmri	n/a	n/a	-1.0	n/a	n/a	n/a	n/a	n/a	n/a	n/a	n/a	ITI	poldrack-single-stim	s579	False	0
466.066	1.679	467.745	-0.2493833677006758	draw_card	1.679	columbia_card_task_fmri	16.0	0.8125	89.0	-75.0	0.1875	16.0	1.0	3.0	3.8675385411854606	1.679	1.0	stim	poldrack-single-stim	s579	False	0
468.504	1.5	467.753	n/a	-1.0	2.25	columbia_card_task_fmri	n/a	n/a	-1.0	n/a	n/a	n/a	n/a	n/a	n/a	n/a	n/a	ITI	poldrack-single-stim	s579	False	0
470.008	1.295	471.303	4.013116632299325	draw_card	1.295	columbia_card_task_fmri	16.0	0.8666666666666667	89.0	-80.0	0.1333333333333333	15.0	1.0	2.0	0.9836596874462132	1.295	n/a	stim	poldrack-single-stim	s579	False	1
471.306	0.39	471.696	3.098830918013612	draw_card	0.39	columbia_card_task_fmri	16.0	0.8571428571428572	89.0	-80.0	0.1428571428571428	15.0	2.0	2.0	1.94264784734294	0.39	2.0	stim	poldrack-single-stim	s579	False	0
472.456	1.5	471.705	n/a	-1.0	2.25	columbia_card_task_fmri	n/a	n/a	-1.0	n/a	n/a	n/a	n/a	n/a	n/a	n/a	n/a	ITI	poldrack-single-stim	s579	False	0
473.96	1.053	475.013	4.879783298965992	draw_card	1.053	columbia_card_task_fmri	17.0	0.8666666666666667	89.0	-80.0	0.1333333333333333	15.0	1.0	2.0	1.3234899368942123	1.053	n/a	stim	poldrack-single-stim	s579	False	1
475.018	0.502	475.52	3.95597377515647	draw_card	0.502	columbia_card_task_fmri	17.0	0.8571428571428572	89.0	-80.0	0.1428571428571428	15.0	2.0	2.0	2.2924735468321487	0.502	n/a	stim	poldrack-single-stim	s579	False	1
475.524	0.498	476.022	2.8900397092224006	draw_card	0.498	columbia_card_task_fmri	17.0	0.8461538461538461	89.0	-80.0	0.1538461538461538	15.0	3.0	2.0	3.3469684393803973	0.498	n/a	stim	poldrack-single-stim	s579	False	1
476.025	0.461	476.486	1.64644996563266	draw_card	0.461	columbia_card_task_fmri	17.0	0.8333333333333334	89.0	-80.0	0.1666666666666666	15.0	4.0	2.0	4.498715577104207	0.461	n/a	stim	poldrack-single-stim	s579	False	1
476.49	0.487	476.977	0.1767529959356857	end_round	0.487	columbia_card_task_fmri	17.0	0.8181818181818181	71.0	-80.0	0.1818181818181818	15.0	5.0	2.0	5.761018401873038	0.487	4.0	stim	poldrack-single-stim	s579	False	1
477.732	1.5	476.981	n/a	-1.0	2.318	columbia_card_task_fmri	n/a	n/a	-1.0	n/a	n/a	n/a	n/a	n/a	n/a	n/a	n/a	ITI	poldrack-single-stim	s579	False	0
479.304	2.434	481.738	0.8131166322993242	draw_card	2.434	columbia_card_task_fmri	1.0	0.9375	89.0	-15.0	0.0625	16.0	1.0	1.0	-27.70277543766361	2.434	n/a	stim	poldrack-single-stim	s579	False	1
481.743	0.376	482.119	0.7464499656326575	draw_card	0.376	columbia_card_task_fmri	1.0	0.9333333333333332	89.0	-15.0	0.0666666666666666	16.0	2.0	1.0	-27.587105410897344	0.376	n/a	stim	poldrack-single-stim	s579	False	1
482.124	0.398	482.522	0.6702594894421814	draw_card	0.398	columbia_card_task_fmri	1.0	0.9285714285714286	89.0	-15.0	0.0714285714285714	16.0	3.0	1.0	-27.460104274835157	0.398	n/a	stim	poldrack-single-stim	s579	False	1
482.525	0.33	482.855	0.5823474015300933	draw_card	0.33	columbia_card_task_fmri	1.0	0.9230769230769232	89.0	-15.0	0.0769230769230769	16.0	4.0	1.0	-27.3198395487331	0.33	n/a	stim	poldrack-single-stim	s579	False	1
482.86	0.546	483.406	0.4797832989659908	draw_card	0.546	columbia_card_task_fmri	1.0	0.9166666666666666	89.0	-15.0	0.0833333333333333	16.0	5.0	1.0	-27.163893560273262	0.546	n/a	stim	poldrack-single-stim	s579	False	1
483.411	0.423	483.834	0.3585711777538695	draw_card	0.423	columbia_card_task_fmri	1.0	0.9090909090909092	89.0	-15.0	0.0909090909090909	16.0	6.0	1.0	-26.989199778699355	0.423	n/a	stim	poldrack-single-stim	s579	False	1
483.839	0.439	484.278	0.2131166322993242	draw_card	0.439	columbia_card_task_fmri	1.0	0.9	89.0	-15.0	0.1	16.0	7.0	1.0	-26.791810040957888	0.439	n/a	stim	poldrack-single-stim	s579	False	1
484.283	0.454	484.737	0.0353388545215465	draw_card	0.454	columbia_card_task_fmri	1.0	0.8888888888888888	89.0	-15.0	0.1111111111111111	16.0	8.0	1.0	-26.566559427140916	0.454	n/a	stim	poldrack-single-stim	s579	False	1
484.741	0.49	485.231	-0.1868833677006758	draw_card	0.49	columbia_card_task_fmri	1.0	0.875	89.0	-15.0	0.125	16.0	9.0	1.0	-26.30658187892478	0.49	n/a	stim	poldrack-single-stim	s579	False	1
485.234	0.423	485.657	-0.4725976534149614	draw_card	0.423	columbia_card_task_fmri	1.0	0.8571428571428572	89.0	-15.0	0.1428571428571428	16.0	10.0	1.0	-26.00262369549858	0.423	10.0	stim	poldrack-single-stim	s579	False	0
486.412	1.5	485.661	n/a	-1.0	2.726	columbia_card_task_fmri	n/a	n/a	-1.0	n/a	n/a	n/a	n/a	n/a	n/a	n/a	n/a	ITI	poldrack-single-stim	s579	False	0
488.391	2.11	490.501	3.938116632299324	draw_card	2.11	columbia_card_task_fmri	10.0	0.9375	89.0	-100.0	0.0625	16.0	1.0	1.0	-5.021020702290844	2.11	n/a	stim	poldrack-single-stim	s579	False	1
490.505	0.39	490.895	3.479783298965991	draw_card	0.39	columbia_card_task_fmri	10.0	0.9333333333333332	89.0	-100.0	0.0666666666666666	16.0	2.0	1.0	-4.209327556595135	0.39	n/a	stim	poldrack-single-stim	s579	False	1
490.899	0.426	491.325	2.955973775156468	draw_card	0.426	columbia_card_task_fmri	10.0	0.9285714285714286	89.0	-100.0	0.0714285714285714	16.0	3.0	1.0	-3.319195416813802	0.426	n/a	stim	poldrack-single-stim	s579	False	1
491.329	0.445	491.774	2.351578170760863	draw_card	0.445	columbia_card_task_fmri	10.0	0.9230769230769232	89.0	-100.0	0.0769230769230769	16.0	4.0	1.0	-2.3372886414513303	0.445	n/a	stim	poldrack-single-stim	s579	False	1
491.778	0.447	492.225	1.646449965632658	draw_card	0.447	columbia_card_task_fmri	10.0	0.9166666666666666	89.0	-100.0	0.0833333333333333	16.0	5.0	1.0	-1.246928186857744	0.447	n/a	stim	poldrack-single-stim	s579	False	1
492.23	0.6	492.83	0.8131166322993224	end_round	0.6	columbia_card_task_fmri	10.0	0.9090909090909092	71.0	-100.0	0.0909090909090909	16.0	6.0	1.0	-0.0269649078536495	0.6	5.0	stim	poldrack-single-stim	s579	False	1
493.585	1.5	492.834	n/a	-1.0	2.386	columbia_card_task_fmri	n/a	n/a	-1.0	n/a	n/a	n/a	n/a	n/a	n/a	n/a	n/a	ITI	poldrack-single-stim	s579	False	0
495.224	1.999	497.223	4.563116632299324	draw_card	1.999	columbia_card_task_fmri	15.0	0.875	89.0	-75.0	0.125	16.0	1.0	2.0	-1.8843870188472671	1.999	1.0	stim	poldrack-single-stim	s579	False	0
497.983	1.5	497.232	n/a	-1.0	2.318	columbia_card_task_fmri	n/a	n/a	-1.0	n/a	n/a	n/a	n/a	n/a	n/a	n/a	n/a	ITI	poldrack-single-stim	s579	False	0
499.555	1.321	500.876	4.813116632299324	draw_card	1.321	columbia_card_task_fmri	16.0	0.875	89.0	-80.0	0.125	16.0	1.0	2.0	0.0992326776419076	1.321	n/a	stim	poldrack-single-stim	s579	False	1
500.88	0.434	501.314	4.013116632299325	draw_card	0.434	columbia_card_task_fmri	16.0	0.8666666666666667	89.0	-80.0	0.1333333333333333	16.0	2.0	2.0	0.9836596874462132	0.434	n/a	stim	poldrack-single-stim	s579	False	1
501.318	0.486	501.804	3.098830918013612	draw_card	0.486	columbia_card_task_fmri	16.0	0.8571428571428572	89.0	-80.0	0.1428571428571428	16.0	3.0	2.0	1.94264784734294	0.486	n/a	stim	poldrack-single-stim	s579	False	1
501.808	0.461	502.269	2.043885863068554	draw_card	0.461	columbia_card_task_fmri	16.0	0.8461538461538461	89.0	-80.0	0.1538461538461538	16.0	4.0	2.0	2.9862655799757434	0.461	n/a	stim	poldrack-single-stim	s579	False	1
502.273	0.549	502.822	0.813116632299326	end_round	0.549	columbia_card_task_fmri	16.0	0.8333333333333334	71.0	-80.0	0.1666666666666666	16.0	5.0	2.0	4.126132801801475	0.549	4.0	stim	poldrack-single-stim	s579	False	1
503.582	1.5	502.831	n/a	-1.0	2.25	columbia_card_task_fmri	n/a	n/a	-1.0	n/a	n/a	n/a	n/a	n/a	n/a	n/a	n/a	ITI	poldrack-single-stim	s579	False	0
505.085	3.638	508.723	2.000616632299324	draw_card	3.638	columbia_card_task_fmri	4.0	0.6875	89.0	-5.0	0.3125	16.0	1.0	5.0	-27.41007568977896	3.638	1.0	stim	poldrack-single-stim	s579	False	0
509.481	1.5	508.73	n/a	-1.0	2.25	columbia_card_task_fmri	n/a	n/a	-1.0	n/a	n/a	n/a	n/a	n/a	n/a	n/a	n/a	ITI	poldrack-single-stim	s579	False	0
510.985	1.591	512.576	-0.8535500343673401	draw_card	1.591	columbia_card_task_fmri	14.0	0.8333333333333334	89.0	-80.0	0.1666666666666666	6.0	1.0	1.0	3.3809733267165143	1.591	n/a	stim	poldrack-single-stim	s579	False	1
512.58	1.157	513.737	-3.986883367700675	draw_card	1.157	columbia_card_task_fmri	14.0	0.8	89.0	-80.0	0.2	6.0	2.0	1.0	5.948597357287866	1.157	n/a	stim	poldrack-single-stim	s579	False	1
513.741	0.838	514.579	-8.686883367700675	end_round	0.838	columbia_card_task_fmri	14.0	0.75	71.0	-80.0	0.25	6.0	3.0	1.0	9.051121254158332	0.838	2.0	stim	poldrack-single-stim	s579	False	1
515.338	1.5	514.587	n/a	-1.0	2.454	columbia_card_task_fmri	n/a	n/a	-1.0	n/a	n/a	n/a	n/a	n/a	n/a	n/a	n/a	ITI	poldrack-single-stim	s579	False	0
517.045	3.041	520.086	0.8131166322993242	draw_card	3.041	columbia_card_task_fmri	15.0	0.8333333333333334	89.0	-75.0	0.1666666666666666	6.0	1.0	1.0	1.8906805677295184	3.041	n/a	stim	poldrack-single-stim	s579	False	1
520.091	0.477	520.568	-2.186883367700676	draw_card	0.477	columbia_card_task_fmri	15.0	0.8	89.0	-75.0	0.2	6.0	2.0	1.0	4.348987969816953	0.477	n/a	stim	poldrack-single-stim	s579	False	1
520.572	0.837	521.409	-6.686883367700676	draw_card	0.837	columbia_card_task_fmri	15.0	0.75	89.0	-75.0	0.25	6.0	3.0	1.0	7.319431298379378	0.837	n/a	stim	poldrack-single-stim	s579	False	1
521.413	0.915	522.328	-14.186883367700672	end_round	0.915	columbia_card_task_fmri	15.0	0.6666666666666667	71.0	-75.0	0.3333333333333333	6.0	4.0	1.0	10.774004366861512	0.915	3.0	stim	poldrack-single-stim	s579	False	1
523.084	1.5	522.333	n/a	-1.0	2.454	columbia_card_task_fmri	n/a	n/a	-1.0	n/a	n/a	n/a	n/a	n/a	n/a	n/a	n/a	ITI	poldrack-single-stim	s579	False	0
524.793	3.087	527.88	2.479783298965992	draw_card	3.087	columbia_card_task_fmri	16.0	0.8333333333333334	89.0	-70.0	0.1666666666666666	6.0	1.0	1.0	0.4004267885088808	3.087	n/a	stim	poldrack-single-stim	s579	False	1
527.884	0.519	528.403	-0.3868833677006751	draw_card	0.519	columbia_card_task_fmri	16.0	0.8	89.0	-70.0	0.2	6.0	2.0	1.0	2.749414903833788	0.519	n/a	stim	poldrack-single-stim	s579	False	1
528.407	0.674	529.081	-4.686883367700676	end_round	0.674	columbia_card_task_fmri	16.0	0.75	71.0	-70.0	0.25	6.0	3.0	1.0	5.5877748987289095	0.674	2.0	stim	poldrack-single-stim	s579	False	1
529.839	1.5	529.088	n/a	-1.0	2.522	columbia_card_task_fmri	n/a	n/a	-1.0	n/a	n/a	n/a	n/a	n/a	n/a	n/a	n/a	ITI	poldrack-single-stim	s579	False	0
531.615	2.072	533.687	3.063116632299324	draw_card	2.072	columbia_card_task_fmri	23.0	0.75	89.0	-60.0	0.25	8.0	1.0	2.0	4.289057537266508	2.072	n/a	stim	poldrack-single-stim	s579	False	1
533.692	0.61	534.302	0.0988309180136124	draw_card	0.61	columbia_card_task_fmri	23.0	0.7142857142857143	89.0	-60.0	0.2857142857142857	8.0	2.0	2.0	5.844199804236929	0.61	n/a	stim	poldrack-single-stim	s579	False	1
534.307	0.691	534.998	-3.85355003436734	end_round	0.691	columbia_card_task_fmri	23.0	0.6666666666666667	71.0	-60.0	0.3333333333333333	8.0	3.0	2.0	7.474829666908988	0.691	2.0	stim	poldrack-single-stim	s579	False	1
535.757	1.5	535.006	n/a	-1.0	2.386	columbia_card_task_fmri	n/a	n/a	-1.0	n/a	n/a	n/a	n/a	n/a	n/a	n/a	n/a	ITI	poldrack-single-stim	s579	False	0
537.397	1.472	538.869	3.563116632299324	draw_card	1.472	columbia_card_task_fmri	27.0	0.75	89.0	-70.0	0.25	8.0	1.0	2.0	10.349908245942416	1.472	n/a	stim	poldrack-single-stim	s579	False	1
538.874	0.441	539.315	0.0988309180136088	draw_card	0.441	columbia_card_task_fmri	27.0	0.7142857142857143	89.0	-70.0	0.2857142857142857	8.0	2.0	2.0	12.167483028723892	0.441	n/a	stim	poldrack-single-stim	s579	False	1
539.319	0.528	539.847	-4.520216701034005	draw_card	0.528	columbia_card_task_fmri	27.0	0.6666666666666667	89.0	-70.0	0.3333333333333333	8.0	3.0	2.0	14.073273859376547	0.528	n/a	stim	poldrack-single-stim	s579	False	1
539.851	0.803	540.654	-10.986883367700676	draw_card	0.803	columbia_card_task_fmri	27.0	0.6	89.0	-70.0	0.4	8.0	4.0	2.0	15.8668635033252	0.803	n/a	stim	poldrack-single-stim	s579	False	1
540.659	0.845	541.504	-20.68688336770068	end_round	0.845	columbia_card_task_fmri	27.0	0.5	71.0	-70.0	0.5	8.0	5.0	2.0	16.84662197128396	0.845	4.0	stim	poldrack-single-stim	s579	False	1
542.264	1.5	541.513	n/a	-1.0	2.454	columbia_card_task_fmri	n/a	n/a	-1.0	n/a	n/a	n/a	n/a	n/a	n/a	n/a	n/a	ITI	poldrack-single-stim	s579	False	0
543.973	1.529	545.502	-1.186883367700674	draw_card	1.529	columbia_card_task_fmri	16.0	0.7777777777777778	89.0	-65.0	0.2222222222222222	9.0	1.0	2.0	2.024538214486469	1.529	n/a	stim	poldrack-single-stim	s579	False	1
545.507	0.401	545.908	-3.436883367700676	draw_card	0.401	columbia_card_task_fmri	16.0	0.75	89.0	-65.0	0.25	9.0	2.0	2.0	3.423259157136492	0.401	n/a	stim	poldrack-single-stim	s579	False	1
545.912	0.431	546.343	-6.329740510557817	draw_card	0.431	columbia_card_task_fmri	16.0	0.7142857142857143	89.0	-65.0	0.2857142857142857	9.0	3.0	2.0	4.94090951374401	0.431	n/a	stim	poldrack-single-stim	s579	False	1
546.347	0.556	546.903	-10.186883367700672	draw_card	0.556	columbia_card_task_fmri	16.0	0.6666666666666667	89.0	-65.0	0.3333333333333333	9.0	4.0	2.0	6.532229172683927	0.556	n/a	stim	poldrack-single-stim	s579	False	1
546.908	1.039	547.947	-15.586883367700674	end_round	1.039	columbia_card_task_fmri	16.0	0.6	71.0	-65.0	0.4	9.0	5.0	2.0	8.029870108592405	1.039	4.0	stim	poldrack-single-stim	s579	False	1
548.704	1.5	547.953	n/a	-1.0	2.522	columbia_card_task_fmri	n/a	n/a	-1.0	n/a	n/a	n/a	n/a	n/a	n/a	n/a	n/a	ITI	poldrack-single-stim	s579	False	0
550.48	2.488	552.968	4.013116632299325	end_round	2.488	columbia_card_task_fmri	13.0	0.9	71.0	-85.0	0.1	10.0	1.0	1.0	-2.248951572984541	2.488	0.0	stim	poldrack-single-stim	s579	False	1
553.723	1.5	552.972	n/a	-1.0	2.522	columbia_card_task_fmri	n/a	n/a	-1.0	n/a	n/a	n/a	n/a	n/a	n/a	n/a	n/a	ITI	poldrack-single-stim	s579	False	0
555.499	1.092	556.591	-0.9868833677006748	draw_card	1.092	columbia_card_task_fmri	14.0	0.8	89.0	-65.0	0.2	10.0	1.0	2.0	-0.049733978373613	1.092	1.0	stim	poldrack-single-stim	s579	False	0
557.351	1.5	556.6	n/a	-1.0	2.59	columbia_card_task_fmri	n/a	n/a	-1.0	n/a	n/a	n/a	n/a	n/a	n/a	n/a	n/a	ITI	poldrack-single-stim	s579	False	0
559.196	1.074	560.27	0.4131166322993256	draw_card	1.074	columbia_card_task_fmri	17.0	0.8	89.0	-70.0	0.2	10.0	1.0	2.0	3.14930449135926	1.074	n/a	stim	poldrack-single-stim	s579	False	1
560.275	0.432	560.707	-1.520216701034008	draw_card	0.432	columbia_card_task_fmri	17.0	0.7777777777777778	89.0	-70.0	0.2222222222222222	10.0	2.0	2.0	4.518299728827486	0.432	2.0	stim	poldrack-single-stim	s579	False	0
561.464	1.5	560.713	n/a	-1.0	2.454	columbia_card_task_fmri	n/a	n/a	-1.0	n/a	n/a	n/a	n/a	n/a	n/a	n/a	n/a	ITI	poldrack-single-stim	s579	False	0
563.172	1.87	565.042	-0.8535500343673419	draw_card	1.87	columbia_card_task_fmri	13.0	0.8333333333333334	89.0	-75.0	0.1666666666666666	12.0	1.0	2.0	1.1455484736353725	1.87	n/a	stim	poldrack-single-stim	s579	False	1
565.047	0.36	565.407	-2.186883367700678	draw_card	0.36	columbia_card_task_fmri	13.0	0.8181818181818181	89.0	-75.0	0.1818181818181818	12.0	2.0	2.0	2.290670268303117	0.36	2.0	stim	poldrack-single-stim	s579	False	0
566.162	1.5	565.411	n/a	-1.0	2.318	columbia_card_task_fmri	n/a	n/a	-1.0	n/a	n/a	n/a	n/a	n/a	n/a	n/a	n/a	ITI	poldrack-single-stim	s579	False	0
567.735	1.465	569.2	0.813116632299326	draw_card	1.465	columbia_card_task_fmri	14.0	0.8333333333333334	89.0	-70.0	0.1666666666666666	12.0	1.0	2.0	-0.3446837446365833	1.465	1.0	stim	poldrack-single-stim	s579	False	0
569.956	1.5	569.205	n/a	-1.0	2.25	columbia_card_task_fmri	n/a	n/a	-1.0	n/a	n/a	n/a	n/a	n/a	n/a	n/a	n/a	ITI	poldrack-single-stim	s579	False	0
571.462	0.908	572.37	0.813116632299326	draw_card	0.908	columbia_card_task_fmri	16.0	0.8333333333333334	89.0	-80.0	0.1666666666666666	12.0	1.0	2.0	4.126132801801475	0.908	n/a	stim	poldrack-single-stim	s579	False	1
572.374	0.678	573.052	-0.6414288222461326	draw_card	0.678	columbia_card_task_fmri	16.0	0.8181818181818181	89.0	-80.0	0.1818181818181818	12.0	2.0	2.0	5.375415803676795	0.678	n/a	stim	poldrack-single-stim	s579	False	1
573.056	0.534	573.59	-2.3868833677006758	draw_card	0.534	columbia_card_task_fmri	16.0	0.8	89.0	-80.0	0.2	12.0	3.0	2.0	6.748414253441432	0.534	n/a	stim	poldrack-single-stim	s579	False	1
573.594	0.615	574.209	-4.52021670103401	draw_card	0.615	columbia_card_task_fmri	16.0	0.7777777777777778	89.0	-80.0	0.2222222222222222	12.0	4.0	2.0	8.259100557995183	0.615	4.0	stim	poldrack-single-stim	s579	False	0
574.969	1.5	574.218	n/a	-1.0	2.658	columbia_card_task_fmri	n/a	n/a	-1.0	n/a	n/a	n/a	n/a	n/a	n/a	n/a	n/a	ITI	poldrack-single-stim	s579	False	0
576.881	1.328	578.209	0.6131166322993249	draw_card	1.328	columbia_card_task_fmri	16.0	0.8	89.0	-65.0	0.2	15.0	1.0	3.0	0.7500078412274291	1.328	n/a	stim	poldrack-single-stim	s579	False	1
578.214	0.448	578.662	-0.5440262248435317	draw_card	0.448	columbia_card_task_fmri	16.0	0.7857142857142857	89.0	-65.0	0.2142857142857142	15.0	2.0	3.0	1.5861493672403384	0.448	n/a	stim	poldrack-single-stim	s579	False	1
578.666	0.534	579.2	-1.8791910600083688	draw_card	0.534	columbia_card_task_fmri	16.0	0.7692307692307692	89.0	-65.0	0.2307692307692307	15.0	3.0	3.0	2.476820235574344	0.534	n/a	stim	poldrack-single-stim	s579	False	1
579.204	0.662	579.866	-3.436883367700676	end_round	0.662	columbia_card_task_fmri	16.0	0.75	71.0	-65.0	0.25	15.0	4.0	3.0	3.423259157136492	0.662	3.0	stim	poldrack-single-stim	s579	False	1
580.624	1.5	579.873	n/a	-1.0	2.454	columbia_card_task_fmri	n/a	n/a	-1.0	n/a	n/a	n/a	n/a	n/a	n/a	n/a	n/a	ITI	poldrack-single-stim	s579	False	0
582.332	1.601	583.933	-1.0618833677006758	draw_card	1.601	columbia_card_task_fmri	15.0	0.8125	89.0	-75.0	0.1875	16.0	1.0	3.0	3.4773295392343755	1.601	1.0	stim	poldrack-single-stim	s579	False	0
584.692	1.5	583.941	n/a	-1.0	2.386	columbia_card_task_fmri	n/a	n/a	-1.0	n/a	n/a	n/a	n/a	n/a	n/a	n/a	n/a	ITI	poldrack-single-stim	s579	False	0
586.332	3.021	589.353	-0.4993833677006758	draw_card	3.021	columbia_card_task_fmri	14.0	0.6875	89.0	-35.0	0.3125	16.0	1.0	5.0	-8.93353521015932	3.021	n/a	stim	poldrack-single-stim	s579	False	1
589.358	1.479	590.837	-1.520216701034008	draw_card	1.479	columbia_card_task_fmri	14.0	0.6666666666666667	89.0	-35.0	0.3333333333333333	16.0	2.0	5.0	-8.547065006929774	1.479	2.0	stim	poldrack-single-stim	s579	False	0
591.597	1.5	590.846	n/a	-1.0	2.59	columbia_card_task_fmri	n/a	n/a	-1.0	n/a	n/a	n/a	n/a	n/a	n/a	n/a	n/a	ITI	poldrack-single-stim	s579	False	0
593.441	1.47	594.911	4.679783298965991	draw_card	1.47	columbia_card_task_fmri	16.0	0.8666666666666667	89.0	-75.0	0.1333333333333333	15.0	1.0	2.0	-0.7154571643699512	1.47	n/a	stim	poldrack-single-stim	s579	False	1
594.915	0.576	595.491	3.8131166322993257	draw_card	0.576	columbia_card_task_fmri	16.0	0.8571428571428572	89.0	-75.0	0.1428571428571428	15.0	2.0	2.0	0.1935527649330914	0.576	n/a	stim	poldrack-single-stim	s579	False	1
595.495	0.701	596.196	2.813116632299324	draw_card	0.701	columbia_card_task_fmri	16.0	0.8461538461538461	89.0	-75.0	0.1538461538461538	15.0	3.0	2.0	1.182783692641422	0.701	n/a	stim	poldrack-single-stim	s579	False	1
596.202	2.275	598.477	1.646449965632658	draw_card	2.275	columbia_card_task_fmri	16.0	0.8333333333333334	89.0	-75.0	0.1666666666666666	15.0	4.0	2.0	2.263250303795367	2.275	n/a	stim	poldrack-single-stim	s579	False	1
598.481	0.736	599.217	0.2676620868447774	end_round	0.736	columbia_card_task_fmri	16.0	0.8181818181818181	71.0	-75.0	0.1818181818181818	15.0	5.0	2.0	3.447433133830877	0.736	4.0	stim	poldrack-single-stim	s579	False	1
599.977	1.5	599.226	n/a	-1.0	2.318	columbia_card_task_fmri	n/a	n/a	-1.0	n/a	n/a	n/a	n/a	n/a	n/a	n/a	n/a	ITI	poldrack-single-stim	s579	False	0
601.549	2.216	603.765	5.346449965632657	draw_card	2.216	columbia_card_task_fmri	16.0	0.8666666666666667	89.0	-70.0	0.1333333333333333	15.0	1.0	2.0	-2.4145093634039547	2.216	n/a	stim	poldrack-single-stim	s579	False	1
603.771	0.522	604.293	4.527402346585039	draw_card	0.522	columbia_card_task_fmri	16.0	0.8571428571428572	89.0	-70.0	0.1428571428571428	15.0	2.0	2.0	-1.5554795072321106	0.522	n/a	stim	poldrack-single-stim	s579	False	1
604.298	0.51	604.808	3.582347401530092	draw_card	0.51	columbia_card_task_fmri	16.0	0.8461538461538461	89.0	-70.0	0.1538461538461538	15.0	3.0	2.0	-0.6206372739209023	0.51	n/a	stim	poldrack-single-stim	s579	False	1
604.812	0.453	605.265	2.479783298965992	draw_card	0.453	columbia_card_task_fmri	16.0	0.8333333333333334	89.0	-70.0	0.1666666666666666	15.0	4.0	2.0	0.4004267885088808	0.453	n/a	stim	poldrack-single-stim	s579	False	1
605.271	1.563	606.834	1.1767529959356855	draw_card	1.563	columbia_card_task_fmri	16.0	0.8181818181818181	89.0	-70.0	0.1818181818181818	15.0	5.0	2.0	1.519507459400813	1.563	n/a	stim	poldrack-single-stim	s579	False	1
606.839	0.542	607.381	-0.3868833677006751	end_round	0.542	columbia_card_task_fmri	16.0	0.8	71.0	-70.0	0.2	15.0	6.0	2.0	2.749414903833788	0.542	5.0	stim	poldrack-single-stim	s579	False	1
608.137	1.5	607.386	n/a	-1.0	2.59	columbia_card_task_fmri	n/a	n/a	-1.0	n/a	n/a	n/a	n/a	n/a	n/a	n/a	n/a	ITI	poldrack-single-stim	s579	False	0
609.983	2.402	612.385	2.688116632299324	draw_card	2.402	columbia_card_task_fmri	8.0	0.9375	89.0	-90.0	0.0625	16.0	1.0	1.0	-7.924239168352503	2.402	n/a	stim	poldrack-single-stim	s579	False	1
612.389	0.356	612.745	2.2797832989659907	draw_card	0.356	columbia_card_task_fmri	8.0	0.9333333333333332	89.0	-90.0	0.0666666666666666	16.0	2.0	1.0	-7.201179311260383	0.356	n/a	stim	poldrack-single-stim	s579	False	1
612.751	0.354	613.105	1.813116632299325	draw_card	0.354	columbia_card_task_fmri	8.0	0.9285714285714286	89.0	-90.0	0.0714285714285714	16.0	3.0	1.0	-6.4082400572487686	0.354	n/a	stim	poldrack-single-stim	s579	False	1
613.11	0.76	613.87	1.274655093837786	draw_card	0.76	columbia_card_task_fmri	8.0	0.9230769230769232	89.0	-90.0	0.0769230769230769	16.0	4.0	1.0	-5.533540808351887	0.76	n/a	stim	poldrack-single-stim	s579	False	1
613.874	0.945	614.819	0.6464499656326572	draw_card	0.945	columbia_card_task_fmri	8.0	0.9166666666666666	89.0	-90.0	0.0833333333333333	16.0	5.0	1.0	-4.562222337449935	0.945	n/a	stim	poldrack-single-stim	s579	False	1
614.824	0.558	615.382	-0.0959742767915849	draw_card	0.558	columbia_card_task_fmri	8.0	0.9090909090909092	89.0	-90.0	0.0909090909090909	16.0	6.0	1.0	-3.475443008919143	0.558	6.0	stim	poldrack-single-stim	s579	False	0
616.138	1.5	615.387	n/a	-1.0	2.386	columbia_card_task_fmri	n/a	n/a	-1.0	n/a	n/a	n/a	n/a	n/a	n/a	n/a	n/a	ITI	poldrack-single-stim	s579	False	0
617.779	1.87	619.649	4.250616632299324	draw_card	1.87	columbia_card_task_fmri	10.0	0.9375	89.0	-95.0	0.0625	16.0	1.0	1.0	-6.230737226166287	1.87	n/a	stim	poldrack-single-stim	s579	False	1
619.654	0.465	620.119	3.813116632299325	draw_card	0.465	columbia_card_task_fmri	10.0	0.9333333333333332	89.0	-95.0	0.0666666666666666	16.0	2.0	1.0	-5.4559733732864615	0.465	n/a	stim	poldrack-single-stim	s579	False	1
620.124	0.395	620.519	3.313116632299325	draw_card	0.395	columbia_card_task_fmri	10.0	0.9285714285714286	89.0	-95.0	0.0714285714285714	16.0	3.0	1.0	-4.606336986594041	0.395	n/a	stim	poldrack-single-stim	s579	False	1
620.525	0.46	620.985	2.7361935553762478	draw_card	0.46	columbia_card_task_fmri	10.0	0.9230769230769232	89.0	-95.0	0.0769230769230769	16.0	4.0	1.0	-3.6690986891089423	0.46	n/a	stim	poldrack-single-stim	s579	False	1
620.99	0.797	621.787	2.063116632299324	draw_card	0.797	columbia_card_task_fmri	10.0	0.9166666666666666	89.0	-95.0	0.0833333333333333	16.0	5.0	1.0	-2.628337689884823	0.797	n/a	stim	poldrack-single-stim	s579	False	1
621.792	0.777	622.569	1.2676620868447774	end_round	0.777	columbia_card_task_fmri	10.0	0.9090909090909092	71.0	-95.0	0.0909090909090909	16.0	6.0	1.0	-1.4638663012029056	0.777	5.0	stim	poldrack-single-stim	s579	False	1
623.327	1.5	622.576	n/a	-1.0	2.318	columbia_card_task_fmri	n/a	n/a	-1.0	n/a	n/a	n/a	n/a	n/a	n/a	n/a	n/a	ITI	poldrack-single-stim	s579	False	0
624.9	1.887	626.787	5.188116632299324	draw_card	1.887	columbia_card_task_fmri	15.0	0.875	89.0	-70.0	0.125	16.0	1.0	2.0	-3.5373286566971025	1.887	1.0	stim	poldrack-single-stim	s579	False	0
627.546	1.5	626.795	n/a	-1.0	2.318	columbia_card_task_fmri	n/a	n/a	-1.0	n/a	n/a	n/a	n/a	n/a	n/a	n/a	n/a	ITI	poldrack-single-stim	s579	False	0
629.119	1.318	630.437	4.188116632299324	draw_card	1.318	columbia_card_task_fmri	16.0	0.875	89.0	-85.0	0.125	16.0	1.0	2.0	1.7523120292390215	1.318	n/a	stim	poldrack-single-stim	s579	False	1
630.441	0.464	630.905	3.346449965632657	draw_card	0.464	columbia_card_task_fmri	16.0	0.8666666666666667	89.0	-85.0	0.1333333333333333	16.0	2.0	2.0	2.682831595981078	0.464	n/a	stim	poldrack-single-stim	s579	False	1
630.91	0.44	631.35	2.384545203727897	draw_card	0.44	columbia_card_task_fmri	16.0	0.8571428571428572	89.0	-85.0	0.1428571428571428	16.0	3.0	2.0	3.691796417092931	0.44	n/a	stim	poldrack-single-stim	s579	False	1
631.356	0.447	631.803	1.274655093837784	draw_card	0.447	columbia_card_task_fmri	16.0	0.8461538461538461	89.0	-85.0	0.1538461538461538	16.0	4.0	2.0	4.789799345323509	0.447	n/a	stim	poldrack-single-stim	s579	False	1
631.809	2.183	633.992	-0.0202167010340079	draw_card	2.183	columbia_card_task_fmri	16.0	0.8333333333333334	89.0	-85.0	0.1666666666666666	16.0	5.0	2.0	5.989065527146693	2.183	5.0	stim	poldrack-single-stim	s579	False	0
634.751	1.5	634.0	n/a	-1.0	2.318	columbia_card_task_fmri	n/a	n/a	-1.0	n/a	n/a	n/a	n/a	n/a	n/a	n/a	n/a	ITI	poldrack-single-stim	s579	False	0
