onset	duration	movement_onset	CTI	block_duration	correct	correct_response	cue	cue_switch	experiment_exp_id	key_press	response_time	stim_color	stim_number	switch_type	task	task_switch	trial_id	trial_type	worker_id	first_trial_of_block	junk
4.428	1.0	5.876	0.9	2.136	True	89.0	Orange-Blue	n/a	twobytwo	89.0	0.548	blue	4.0	task_switch	color	switch	stim	poldrack-single-stim	s579	1	False
6.673	1.0	7.461	0.1	2.68	True	89.0	Orange-Blue	stay	twobytwo	89.0	0.688	blue	8.0	cue_stay	color	stay	stim	poldrack-single-stim	s579	0	False
9.465	1.0	10.273	0.1	2.544	True	71.0	Color	switch	twobytwo	71.0	0.708	orange	2.0	cue_switch	color	stay	stim	poldrack-single-stim	s579	0	False
12.916	1.0	14.258	0.9	2.272	True	89.0	Orange-Blue	switch	twobytwo	89.0	0.442	blue	3.0	cue_switch	color	stay	stim	poldrack-single-stim	s579	0	False
15.3	1.0	16.081	0.1	2.272	True	71.0	Color	switch	twobytwo	71.0	0.681	orange	3.0	cue_switch	color	stay	stim	poldrack-single-stim	s579	0	False
17.681	1.0	18.825	0.1	2.408	True	71.0	High-Low	n/a	twobytwo	71.0	1.044	blue	3.0	task_switch	magnitude	switch	stim	poldrack-single-stim	s579	0	False
20.994	1.0	22.285	0.9	2.136	True	89.0	High-Low	stay	twobytwo	89.0	0.391	blue	7.0	cue_stay	magnitude	stay	stim	poldrack-single-stim	s579	0	False
23.237	1.0	24.103	0.1	2.272	True	71.0	Color	n/a	twobytwo	71.0	0.766	orange	1.0	task_switch	color	switch	stim	poldrack-single-stim	s579	0	False
26.414	1.0	27.816	0.9	2.0	True	89.0	Orange-Blue	switch	twobytwo	89.0	0.502	blue	9.0	cue_switch	color	stay	stim	poldrack-single-stim	s579	0	False
28.525	1.0	29.634	0.1	2.136	False	89.0	Color	switch	twobytwo	71.0	1.009	blue	4.0	cue_switch	color	stay	stim	poldrack-single-stim	s579	0	False
30.768	1.0	31.855	0.1	2.272	True	71.0	Color	stay	twobytwo	71.0	0.987	orange	7.0	cue_stay	color	stay	stim	poldrack-single-stim	s579	0	False
33.946	1.0	35.381	0.9	2.0	True	71.0	High-Low	n/a	twobytwo	71.0	0.535	orange	2.0	task_switch	magnitude	switch	stim	poldrack-single-stim	s579	0	False
36.85	1.0	38.455	0.9	2.68	False	71.0	Orange-Blue	n/a	twobytwo	89.0	0.705	orange	7.0	task_switch	color	switch	stim	poldrack-single-stim	s579	0	False
39.637	1.0	40.508	0.1	2.0	True	71.0	Color	switch	twobytwo	71.0	0.771	orange	8.0	cue_switch	color	stay	stim	poldrack-single-stim	s579	0	False
41.744	1.0	42.946	0.1	2.0	True	71.0	High-Low	n/a	twobytwo	71.0	1.102	orange	2.0	task_switch	magnitude	switch	stim	poldrack-single-stim	s579	0	False
43.851	1.0	44.602	0.1	2.0	True	71.0	High-Low	stay	twobytwo	71.0	0.651	orange	2.0	cue_stay	magnitude	stay	stim	poldrack-single-stim	s579	0	False
46.758	1.0	48.162	0.9	2.272	True	71.0	Orange-Blue	n/a	twobytwo	71.0	0.504	orange	1.0	task_switch	color	switch	stim	poldrack-single-stim	s579	0	False
49.136	1.0	50.162	0.1	2.0	True	89.0	Magnitude	n/a	twobytwo	89.0	0.926	orange	7.0	task_switch	magnitude	switch	stim	poldrack-single-stim	s579	0	False
52.043	1.0	53.656	0.9	2.0	True	71.0	Color	n/a	twobytwo	71.0	0.713	orange	3.0	task_switch	color	switch	stim	poldrack-single-stim	s579	0	False
54.95	1.0	56.295	0.9	2.0	False	71.0	High-Low	n/a	twobytwo	89.0	0.445	blue	1.0	task_switch	magnitude	switch	stim	poldrack-single-stim	s579	0	False
57.059	1.0	58.068	0.1	2.68	False	71.0	High-Low	stay	twobytwo	89.0	0.909	orange	3.0	cue_stay	magnitude	stay	stim	poldrack-single-stim	s579	0	False
59.846	1.0	60.513	0.1	2.0	False	71.0	High-Low	stay	twobytwo	89.0	0.567	orange	4.0	cue_stay	magnitude	stay	stim	poldrack-single-stim	s579	0	False
61.956	1.0	62.707	0.1	2.136	True	71.0	Color	n/a	twobytwo	71.0	0.651	orange	1.0	task_switch	color	switch	stim	poldrack-single-stim	s579	0	False
64.196	1.0	65.26	0.1	2.408	True	71.0	Orange-Blue	switch	twobytwo	71.0	0.964	orange	8.0	cue_switch	color	stay	stim	poldrack-single-stim	s579	0	False
67.508	1.0	68.99	0.9	2.136	True	71.0	Orange-Blue	stay	twobytwo	71.0	0.582	orange	9.0	cue_stay	color	stay	stim	poldrack-single-stim	s579	0	False
69.751	1.0	70.773	0.1	2.0	True	71.0	Orange-Blue	stay	twobytwo	71.0	0.922	orange	2.0	cue_stay	color	stay	stim	poldrack-single-stim	s579	0	False
71.857	1.0	72.722	0.1	2.0	True	89.0	Magnitude	n/a	twobytwo	89.0	0.765	blue	6.0	task_switch	magnitude	switch	stim	poldrack-single-stim	s579	0	False
74.764	1.0	76.162	0.9	2.544	True	71.0	Color	n/a	twobytwo	71.0	0.498	orange	3.0	task_switch	color	switch	stim	poldrack-single-stim	s579	0	False
77.412	1.0	78.159	0.1	2.136	True	71.0	Color	stay	twobytwo	71.0	0.647	orange	8.0	cue_stay	color	stay	stim	poldrack-single-stim	s579	0	False
79.655	1.0	80.373	0.1	2.544	True	71.0	Color	stay	twobytwo	71.0	0.618	orange	6.0	cue_stay	color	stay	stim	poldrack-single-stim	s579	0	False
82.303	1.0	83.285	0.1	2.68	True	71.0	High-Low	n/a	twobytwo	71.0	0.882	orange	1.0	task_switch	magnitude	switch	stim	poldrack-single-stim	s579	0	False
85.09	1.0	86.036	0.1	2.0	True	89.0	Magnitude	switch	twobytwo	89.0	0.846	orange	9.0	cue_switch	magnitude	stay	stim	poldrack-single-stim	s579	0	False
87.997	1.0	89.527	0.9	2.272	True	89.0	Orange-Blue	n/a	twobytwo	89.0	0.63	blue	7.0	task_switch	color	switch	stim	poldrack-single-stim	s579	0	False
90.376	1.0	91.39	0.1	3.088	False	89.0	High-Low	n/a	twobytwo	71.0	0.914	orange	8.0	task_switch	magnitude	switch	stim	poldrack-single-stim	s579	0	False
94.37	1.0	96.016	0.9	2.0	True	89.0	Orange-Blue	n/a	twobytwo	89.0	0.746	blue	8.0	task_switch	color	switch	stim	poldrack-single-stim	s579	0	False
96.479	1.0	97.347	0.1	2.136	True	89.0	Orange-Blue	stay	twobytwo	89.0	0.768	blue	6.0	cue_stay	color	stay	stim	poldrack-single-stim	s579	0	False
99.521	1.0	100.99	0.9	2.136	True	89.0	High-Low	n/a	twobytwo	89.0	0.569	orange	8.0	task_switch	magnitude	switch	stim	poldrack-single-stim	s579	0	False
101.768	1.0	102.725	0.1	2.0	True	89.0	High-Low	stay	twobytwo	89.0	0.857	blue	6.0	cue_stay	magnitude	stay	stim	poldrack-single-stim	s579	0	False
104.675	1.0	106.062	0.9	2.272	True	71.0	Magnitude	switch	twobytwo	71.0	0.487	orange	3.0	cue_switch	magnitude	stay	stim	poldrack-single-stim	s579	0	False
107.054	1.0	107.831	0.1	2.0	True	89.0	Color	n/a	twobytwo	89.0	0.677	blue	4.0	task_switch	color	switch	stim	poldrack-single-stim	s579	0	False
109.163	1.0	110.045	0.1	2.136	True	89.0	Magnitude	n/a	twobytwo	89.0	0.782	orange	9.0	task_switch	magnitude	switch	stim	poldrack-single-stim	s579	0	False
111.403	1.0	112.453	0.1	2.136	True	71.0	Orange-Blue	n/a	twobytwo	71.0	0.95	orange	4.0	task_switch	color	switch	stim	poldrack-single-stim	s579	0	False
114.443	1.0	116.096	0.9	2.544	False	89.0	Orange-Blue	stay	twobytwo	71.0	0.753	blue	4.0	cue_stay	color	stay	stim	poldrack-single-stim	s579	0	False
117.097	1.0	118.16	0.1	2.0	True	89.0	Magnitude	n/a	twobytwo	89.0	0.963	orange	8.0	task_switch	magnitude	switch	stim	poldrack-single-stim	s579	0	False
119.206	1.0	120.072	0.1	2.136	True	71.0	Magnitude	stay	twobytwo	71.0	0.766	blue	4.0	cue_stay	magnitude	stay	stim	poldrack-single-stim	s579	0	False
122.246	1.0	123.651	0.9	2.136	True	71.0	Color	n/a	twobytwo	71.0	0.505	orange	2.0	task_switch	color	switch	stim	poldrack-single-stim	s579	0	False
125.287	1.0	127.111	0.9	2.136	True	71.0	High-Low	n/a	twobytwo	71.0	0.924	orange	1.0	task_switch	magnitude	switch	stim	poldrack-single-stim	s579	0	False
127.529	1.0	128.419	0.1	2.0	True	89.0	Color	n/a	twobytwo	89.0	0.79	blue	2.0	task_switch	color	switch	stim	poldrack-single-stim	s579	0	False
130.439	1.0	131.885	0.9	2.136	True	71.0	High-Low	n/a	twobytwo	71.0	0.546	orange	4.0	task_switch	magnitude	switch	stim	poldrack-single-stim	s579	0	False
132.682	1.0	134.09	0.1	2.0	False	71.0	High-Low	stay	twobytwo	89.0	1.308	blue	2.0	cue_stay	magnitude	stay	stim	poldrack-single-stim	s579	0	False
135.586	1.0	137.507	0.9	2.136	False	71.0	Magnitude	switch	twobytwo	89.0	1.021	blue	4.0	cue_switch	magnitude	stay	stim	poldrack-single-stim	s579	0	False
137.828	1.0	138.745	0.1	2.816	True	89.0	Color	n/a	twobytwo	89.0	0.817	blue	1.0	task_switch	color	switch	stim	poldrack-single-stim	s579	0	False
140.754	1.0	141.522	0.1	2.136	True	89.0	Color	stay	twobytwo	89.0	0.668	blue	3.0	cue_stay	color	stay	stim	poldrack-single-stim	s579	0	False
142.997	1.0	144.152	0.1	2.0	True	89.0	Color	stay	twobytwo	89.0	1.055	blue	8.0	cue_stay	color	stay	stim	poldrack-single-stim	s579	0	False
145.1	1.0	146.1	0.1	2.0	True	71.0	Magnitude	n/a	twobytwo	71.0	0.9	orange	2.0	task_switch	magnitude	switch	stim	poldrack-single-stim	s579	0	False
148.009	1.0	149.419	0.9	2.272	True	89.0	Magnitude	stay	twobytwo	89.0	0.51	orange	9.0	cue_stay	magnitude	stay	stim	poldrack-single-stim	s579	0	False
150.389	1.0	151.359	0.1	2.0	True	89.0	Orange-Blue	n/a	twobytwo	89.0	0.87	blue	3.0	task_switch	color	switch	stim	poldrack-single-stim	s579	0	False
152.496	1.0	153.202	0.1	2.0	False	89.0	Magnitude	n/a	twobytwo	71.0	0.606	orange	7.0	task_switch	magnitude	switch	stim	poldrack-single-stim	s579	0	False
154.602	1.0	155.628	0.1	2.0	True	71.0	Orange-Blue	n/a	twobytwo	71.0	0.926	orange	1.0	task_switch	color	switch	stim	poldrack-single-stim	s579	0	False
157.512	1.0	159.065	0.9	2.408	True	71.0	High-Low	n/a	twobytwo	71.0	0.653	blue	4.0	task_switch	magnitude	switch	stim	poldrack-single-stim	s579	0	False
160.827	1.0	162.325	0.9	2.272	True	71.0	High-Low	stay	twobytwo	71.0	0.598	orange	3.0	cue_stay	magnitude	stay	stim	poldrack-single-stim	s579	0	False
164.003	1.0	165.505	0.9	2.136	True	71.0	Orange-Blue	n/a	twobytwo	71.0	0.602	orange	1.0	task_switch	color	switch	stim	poldrack-single-stim	s579	0	False
167.045	1.0	168.401	0.9	2.0	True	71.0	Color	switch	twobytwo	71.0	0.456	orange	8.0	cue_switch	color	stay	stim	poldrack-single-stim	s579	0	False
169.156	1.0	169.861	0.1	2.0	False	71.0	High-Low	n/a	twobytwo	89.0	0.605	blue	4.0	task_switch	magnitude	switch	stim	poldrack-single-stim	s579	0	False
172.062	1.0	173.535	0.9	2.136	True	71.0	Color	n/a	twobytwo	71.0	0.573	orange	6.0	task_switch	color	switch	stim	poldrack-single-stim	s579	0	False
175.105	1.0	176.685	0.9	2.0	True	71.0	High-Low	n/a	twobytwo	71.0	0.68	blue	4.0	task_switch	magnitude	switch	stim	poldrack-single-stim	s579	0	False
177.214	1.0	178.441	0.1	2.136	True	89.0	Orange-Blue	n/a	twobytwo	89.0	1.127	blue	7.0	task_switch	color	switch	stim	poldrack-single-stim	s579	0	False
180.254	1.0	181.614	0.9	2.408	True	89.0	Orange-Blue	stay	twobytwo	89.0	0.46	blue	7.0	cue_stay	color	stay	stim	poldrack-single-stim	s579	0	False
183.567	1.0	184.942	0.9	2.136	False	89.0	Magnitude	n/a	twobytwo	71.0	0.475	orange	6.0	task_switch	magnitude	switch	stim	poldrack-single-stim	s579	0	False
186.615	1.0	188.262	0.9	2.0	True	89.0	Color	n/a	twobytwo	89.0	0.747	blue	6.0	task_switch	color	switch	stim	poldrack-single-stim	s579	0	False
188.724	1.0	189.541	0.1	2.136	True	89.0	Magnitude	n/a	twobytwo	89.0	0.717	blue	8.0	task_switch	magnitude	switch	stim	poldrack-single-stim	s579	0	False
191.767	1.0	193.252	0.9	2.272	True	71.0	Magnitude	stay	twobytwo	71.0	0.585	orange	3.0	cue_stay	magnitude	stay	stim	poldrack-single-stim	s579	0	False
194.146	1.0	194.997	0.1	2.0	True	89.0	Orange-Blue	n/a	twobytwo	89.0	0.751	blue	7.0	task_switch	color	switch	stim	poldrack-single-stim	s579	0	False
196.255	1.0	197.43	0.1	2.408	True	71.0	Magnitude	n/a	twobytwo	71.0	1.075	orange	4.0	task_switch	magnitude	switch	stim	poldrack-single-stim	s579	0	False
198.77	1.0	199.994	0.1	2.0	True	89.0	High-Low	switch	twobytwo	89.0	1.124	blue	6.0	cue_switch	magnitude	stay	stim	poldrack-single-stim	s579	0	False
200.879	1.0	201.728	0.1	2.136	True	89.0	Orange-Blue	n/a	twobytwo	89.0	0.749	blue	1.0	task_switch	color	switch	stim	poldrack-single-stim	s579	0	False
203.125	1.0	203.942	0.1	2.408	True	71.0	High-Low	n/a	twobytwo	71.0	0.717	orange	2.0	task_switch	magnitude	switch	stim	poldrack-single-stim	s579	0	False
205.642	1.0	206.416	0.1	2.136	True	89.0	Orange-Blue	n/a	twobytwo	89.0	0.674	blue	6.0	task_switch	color	switch	stim	poldrack-single-stim	s579	0	False
208.682	1.0	210.061	0.9	2.408	True	71.0	High-Low	n/a	twobytwo	71.0	0.479	orange	3.0	task_switch	magnitude	switch	stim	poldrack-single-stim	s579	0	False
211.994	1.0	213.536	0.9	2.136	True	71.0	Color	n/a	twobytwo	71.0	0.642	orange	3.0	task_switch	color	switch	stim	poldrack-single-stim	s579	0	False
228.557	1.0	230.328	0.9	2.0	False	71.0	Magnitude	n/a	twobytwo	89.0	0.871	blue	4.0	task_switch	magnitude	switch	stim	poldrack-single-stim	s579	1	False
230.665	1.0	231.334	0.1	2.272	True	89.0	Magnitude	stay	twobytwo	89.0	0.569	blue	8.0	cue_stay	magnitude	stay	stim	poldrack-single-stim	s579	0	False
233.043	1.0	233.848	0.1	2.0	True	71.0	High-Low	switch	twobytwo	71.0	0.705	orange	2.0	cue_switch	magnitude	stay	stim	poldrack-single-stim	s579	0	False
235.95	1.0	237.286	0.9	2.272	True	71.0	Magnitude	switch	twobytwo	71.0	0.436	blue	3.0	cue_switch	magnitude	stay	stim	poldrack-single-stim	s579	0	False
238.334	1.0	239.011	0.1	2.272	True	71.0	High-Low	switch	twobytwo	71.0	0.577	orange	3.0	cue_switch	magnitude	stay	stim	poldrack-single-stim	s579	0	False
240.711	1.0	241.405	0.1	2.952	True	89.0	Orange-Blue	n/a	twobytwo	89.0	0.594	blue	3.0	task_switch	color	switch	stim	poldrack-single-stim	s579	0	False
244.567	1.0	246.023	0.9	2.68	True	89.0	Orange-Blue	stay	twobytwo	89.0	0.556	blue	7.0	cue_stay	color	stay	stim	poldrack-single-stim	s579	0	False
247.351	1.0	248.161	0.1	2.136	True	71.0	Magnitude	n/a	twobytwo	71.0	0.71	orange	1.0	task_switch	magnitude	switch	stim	poldrack-single-stim	s579	0	False
250.394	1.0	251.891	0.9	2.272	True	89.0	High-Low	switch	twobytwo	89.0	0.597	blue	9.0	cue_switch	magnitude	stay	stim	poldrack-single-stim	s579	0	False
252.772	1.0	253.624	0.1	2.272	True	71.0	Magnitude	switch	twobytwo	71.0	0.752	blue	4.0	cue_switch	magnitude	stay	stim	poldrack-single-stim	s579	0	False
255.148	1.0	256.37	0.1	2.136	True	89.0	Magnitude	stay	twobytwo	89.0	1.122	orange	7.0	cue_stay	magnitude	stay	stim	poldrack-single-stim	s579	0	False
258.189	1.0	259.506	0.9	2.408	True	71.0	Orange-Blue	n/a	twobytwo	71.0	0.417	orange	2.0	task_switch	color	switch	stim	poldrack-single-stim	s579	0	False
261.506	1.0	263.121	0.9	2.136	True	89.0	High-Low	n/a	twobytwo	89.0	0.715	orange	7.0	task_switch	magnitude	switch	stim	poldrack-single-stim	s579	0	False
263.745	1.0	264.795	0.1	2.136	False	89.0	Magnitude	switch	twobytwo	71.0	0.95	orange	8.0	cue_switch	magnitude	stay	stim	poldrack-single-stim	s579	0	False
265.989	1.0	266.801	0.1	2.0	True	71.0	Color	n/a	twobytwo	71.0	0.712	orange	2.0	task_switch	color	switch	stim	poldrack-single-stim	s579	0	False
268.096	1.0	268.722	0.1	2.0	True	71.0	Color	stay	twobytwo	71.0	0.526	orange	2.0	cue_stay	color	stay	stim	poldrack-single-stim	s579	0	False
271.002	1.0	272.496	0.9	2.0	True	71.0	Magnitude	n/a	twobytwo	71.0	0.594	orange	1.0	task_switch	magnitude	switch	stim	poldrack-single-stim	s579	0	False
273.109	1.0	274.198	0.1	2.0	True	71.0	Orange-Blue	n/a	twobytwo	71.0	0.989	orange	7.0	task_switch	color	switch	stim	poldrack-single-stim	s579	0	False
276.016	1.0	277.455	0.9	2.0	True	71.0	High-Low	n/a	twobytwo	71.0	0.539	orange	3.0	task_switch	magnitude	switch	stim	poldrack-single-stim	s579	0	False
278.928	1.0	280.266	0.9	2.272	True	89.0	Color	n/a	twobytwo	89.0	0.438	blue	1.0	task_switch	color	switch	stim	poldrack-single-stim	s579	0	False
281.309	1.0	282.381	0.1	2.408	True	71.0	Color	stay	twobytwo	71.0	0.972	orange	3.0	cue_stay	color	stay	stim	poldrack-single-stim	s579	0	False
283.824	1.0	284.48	0.1	2.0	True	71.0	Color	stay	twobytwo	71.0	0.556	orange	4.0	cue_stay	color	stay	stim	poldrack-single-stim	s579	0	False
285.929	1.0	286.587	0.1	2.136	True	71.0	Magnitude	n/a	twobytwo	71.0	0.558	orange	1.0	task_switch	magnitude	switch	stim	poldrack-single-stim	s579	0	False
288.171	1.0	288.797	0.1	2.0	True	89.0	High-Low	switch	twobytwo	89.0	0.526	orange	8.0	cue_switch	magnitude	stay	stim	poldrack-single-stim	s579	0	False
291.081	1.0	292.429	0.9	2.136	True	89.0	High-Low	stay	twobytwo	89.0	0.448	orange	9.0	cue_stay	magnitude	stay	stim	poldrack-single-stim	s579	0	False
293.326	1.0	294.187	0.1	2.544	True	71.0	High-Low	stay	twobytwo	71.0	0.761	orange	2.0	cue_stay	magnitude	stay	stim	poldrack-single-stim	s579	0	False
295.977	1.0	297.062	0.1	2.68	True	89.0	Orange-Blue	n/a	twobytwo	89.0	0.985	blue	6.0	task_switch	color	switch	stim	poldrack-single-stim	s579	0	False
299.564	1.0	300.923	0.9	3.088	True	71.0	Magnitude	n/a	twobytwo	71.0	0.459	orange	3.0	task_switch	magnitude	switch	stim	poldrack-single-stim	s579	0	False
302.756	1.0	303.458	0.1	2.136	True	89.0	Magnitude	stay	twobytwo	89.0	0.602	orange	8.0	cue_stay	magnitude	stay	stim	poldrack-single-stim	s579	0	False
304.999	1.0	305.69	0.1	2.544	True	89.0	Magnitude	stay	twobytwo	89.0	0.591	orange	6.0	cue_stay	magnitude	stay	stim	poldrack-single-stim	s579	0	False
307.649	1.0	308.688	0.1	2.0	False	71.0	Orange-Blue	n/a	twobytwo	89.0	0.939	orange	1.0	task_switch	color	switch	stim	poldrack-single-stim	s579	0	False
309.758	1.0	311.135	0.1	2.136	True	71.0	Color	switch	twobytwo	71.0	1.277	orange	9.0	cue_switch	color	stay	stim	poldrack-single-stim	s579	0	False
312.802	1.0	314.352	0.9	2.0	True	89.0	High-Low	n/a	twobytwo	89.0	0.65	blue	7.0	task_switch	magnitude	switch	stim	poldrack-single-stim	s579	0	False
314.916	1.0	315.797	0.1	2.408	True	71.0	Color	n/a	twobytwo	71.0	0.781	orange	8.0	task_switch	color	switch	stim	poldrack-single-stim	s579	0	False
318.231	1.0	319.746	0.9	2.0	True	89.0	Magnitude	n/a	twobytwo	89.0	0.615	blue	8.0	task_switch	magnitude	switch	stim	poldrack-single-stim	s579	0	False
320.338	1.0	320.995	0.1	2.0	True	89.0	Magnitude	stay	twobytwo	89.0	0.557	blue	6.0	cue_stay	magnitude	stay	stim	poldrack-single-stim	s579	0	False
323.245	1.0	324.689	0.9	2.0	True	71.0	Color	n/a	twobytwo	71.0	0.544	orange	8.0	task_switch	color	switch	stim	poldrack-single-stim	s579	0	False
325.354	1.0	326.403	0.1	2.68	True	89.0	Color	stay	twobytwo	89.0	0.949	blue	6.0	cue_stay	color	stay	stim	poldrack-single-stim	s579	0	False
328.938	1.0	330.505	0.9	2.272	True	71.0	Orange-Blue	switch	twobytwo	71.0	0.667	orange	3.0	cue_switch	color	stay	stim	poldrack-single-stim	s579	0	False
331.317	1.0	332.2	0.1	2.408	False	71.0	Magnitude	n/a	twobytwo	89.0	0.783	blue	4.0	task_switch	magnitude	switch	stim	poldrack-single-stim	s579	0	False
333.829	1.0	334.576	0.1	3.224	True	71.0	Color	n/a	twobytwo	71.0	0.647	orange	9.0	task_switch	color	switch	stim	poldrack-single-stim	s579	0	False
337.163	1.0	337.887	0.1	2.408	True	71.0	Magnitude	n/a	twobytwo	71.0	0.624	orange	4.0	task_switch	magnitude	switch	stim	poldrack-single-stim	s579	0	False
340.478	1.0	341.97	0.9	2.816	True	71.0	Magnitude	stay	twobytwo	71.0	0.592	blue	4.0	cue_stay	magnitude	stay	stim	poldrack-single-stim	s579	0	False
343.403	1.0	344.33	0.1	2.408	True	71.0	Color	n/a	twobytwo	71.0	0.827	orange	8.0	task_switch	color	switch	stim	poldrack-single-stim	s579	0	False
345.915	1.0	346.932	0.1	2.136	False	89.0	Color	stay	twobytwo	71.0	0.917	blue	4.0	cue_stay	color	stay	stim	poldrack-single-stim	s579	0	False
348.961	1.0	350.37	0.9	2.136	True	71.0	Magnitude	n/a	twobytwo	71.0	0.509	orange	2.0	task_switch	magnitude	switch	stim	poldrack-single-stim	s579	0	False
352.007	1.0	353.388	0.9	2.0	True	71.0	Orange-Blue	n/a	twobytwo	71.0	0.481	orange	1.0	task_switch	color	switch	stim	poldrack-single-stim	s579	0	False
354.116	1.0	355.127	0.1	2.0	True	71.0	Magnitude	n/a	twobytwo	71.0	0.911	blue	2.0	task_switch	magnitude	switch	stim	poldrack-single-stim	s579	0	False
357.022	1.0	358.467	0.9	2.272	True	71.0	Orange-Blue	n/a	twobytwo	71.0	0.545	orange	4.0	task_switch	color	switch	stim	poldrack-single-stim	s579	0	False
359.399	1.0	360.439	0.1	2.408	False	89.0	Orange-Blue	stay	twobytwo	71.0	0.94	blue	2.0	cue_stay	color	stay	stim	poldrack-single-stim	s579	0	False
362.713	1.0	364.02	0.9	2.0	True	89.0	Color	switch	twobytwo	89.0	0.407	blue	4.0	cue_switch	color	stay	stim	poldrack-single-stim	s579	0	False
364.823	1.0	365.502	0.1	2.136	False	71.0	High-Low	n/a	twobytwo	89.0	0.579	blue	1.0	task_switch	magnitude	switch	stim	poldrack-single-stim	s579	0	False
367.066	1.0	367.861	0.1	2.0	True	71.0	High-Low	stay	twobytwo	71.0	0.695	blue	3.0	cue_stay	magnitude	stay	stim	poldrack-single-stim	s579	0	False
369.175	1.0	370.012	0.1	2.408	True	89.0	High-Low	stay	twobytwo	89.0	0.737	blue	8.0	cue_stay	magnitude	stay	stim	poldrack-single-stim	s579	0	False
371.695	1.0	372.517	0.1	2.272	True	71.0	Color	n/a	twobytwo	71.0	0.722	orange	2.0	task_switch	color	switch	stim	poldrack-single-stim	s579	0	False
374.874	1.0	376.27	0.9	2.0	True	71.0	Color	stay	twobytwo	71.0	0.496	orange	9.0	cue_stay	color	stay	stim	poldrack-single-stim	s579	0	False
376.983	1.0	377.884	0.1	2.272	True	71.0	High-Low	n/a	twobytwo	71.0	0.801	blue	3.0	task_switch	magnitude	switch	stim	poldrack-single-stim	s579	0	False
379.365	1.0	380.854	0.1	2.0	True	71.0	Orange-Blue	n/a	twobytwo	71.0	1.389	orange	7.0	task_switch	color	switch	stim	poldrack-single-stim	s579	0	False
381.472	1.0	382.187	0.1	2.0	True	71.0	Magnitude	n/a	twobytwo	71.0	0.615	orange	1.0	task_switch	magnitude	switch	stim	poldrack-single-stim	s579	0	False
384.376	1.0	385.68	0.9	2.272	True	89.0	Color	n/a	twobytwo	89.0	0.404	blue	4.0	task_switch	color	switch	stim	poldrack-single-stim	s579	0	False
387.554	1.0	388.784	0.9	2.136	True	71.0	Color	stay	twobytwo	71.0	0.33	orange	3.0	cue_stay	color	stay	stim	poldrack-single-stim	s579	0	False
390.597	1.0	392.013	0.9	2.0	True	71.0	Magnitude	n/a	twobytwo	71.0	0.516	orange	1.0	task_switch	magnitude	switch	stim	poldrack-single-stim	s579	0	False
393.51	1.0	395.185	0.9	2.0	True	89.0	High-Low	switch	twobytwo	89.0	0.775	orange	8.0	cue_switch	magnitude	stay	stim	poldrack-single-stim	s579	0	False
395.616	1.0	396.454	0.1	2.0	True	89.0	Color	n/a	twobytwo	89.0	0.738	blue	4.0	task_switch	color	switch	stim	poldrack-single-stim	s579	0	False
398.522	1.0	400.098	0.9	2.0	False	89.0	Magnitude	n/a	twobytwo	71.0	0.676	orange	6.0	task_switch	magnitude	switch	stim	poldrack-single-stim	s579	0	False
401.428	1.0	403.003	0.9	2.0	True	89.0	Color	n/a	twobytwo	89.0	0.675	blue	4.0	task_switch	color	switch	stim	poldrack-single-stim	s579	0	False
403.534	1.0	404.513	0.1	2.136	True	89.0	High-Low	n/a	twobytwo	89.0	0.879	blue	7.0	task_switch	magnitude	switch	stim	poldrack-single-stim	s579	0	False
406.577	1.0	407.882	0.9	2.0	True	89.0	High-Low	stay	twobytwo	89.0	0.405	blue	7.0	cue_stay	magnitude	stay	stim	poldrack-single-stim	s579	0	False
409.482	1.0	410.846	0.9	2.0	True	71.0	Color	n/a	twobytwo	71.0	0.464	orange	6.0	task_switch	color	switch	stim	poldrack-single-stim	s579	0	False
412.388	1.0	413.895	0.9	2.136	True	89.0	High-Low	n/a	twobytwo	89.0	0.607	blue	6.0	task_switch	magnitude	switch	stim	poldrack-single-stim	s579	0	False
414.636	1.0	415.323	0.1	2.0	True	89.0	Orange-Blue	n/a	twobytwo	89.0	0.587	blue	8.0	task_switch	color	switch	stim	poldrack-single-stim	s579	0	False
417.54	1.0	418.991	0.9	2.136	True	71.0	Orange-Blue	stay	twobytwo	71.0	0.551	orange	3.0	cue_stay	color	stay	stim	poldrack-single-stim	s579	0	False
419.78	1.0	420.69	0.1	2.68	True	89.0	High-Low	n/a	twobytwo	89.0	0.81	blue	7.0	task_switch	magnitude	switch	stim	poldrack-single-stim	s579	0	False
422.567	1.0	423.399	0.1	2.272	True	71.0	Color	n/a	twobytwo	71.0	0.732	orange	4.0	task_switch	color	switch	stim	poldrack-single-stim	s579	0	False
424.943	1.0	425.561	0.1	2.136	True	89.0	Orange-Blue	switch	twobytwo	89.0	0.518	blue	6.0	cue_switch	color	stay	stim	poldrack-single-stim	s579	0	False
427.184	1.0	428.089	0.1	2.0	True	71.0	High-Low	n/a	twobytwo	71.0	0.805	blue	1.0	task_switch	magnitude	switch	stim	poldrack-single-stim	s579	0	False
429.295	1.0	430.097	0.1	2.136	True	71.0	Orange-Blue	n/a	twobytwo	71.0	0.702	orange	2.0	task_switch	color	switch	stim	poldrack-single-stim	s579	0	False
431.535	1.0	432.454	0.1	2.68	True	89.0	High-Low	n/a	twobytwo	89.0	0.819	blue	6.0	task_switch	magnitude	switch	stim	poldrack-single-stim	s579	0	False
435.122	1.0	435.121	0.9	2.272	False	71.0	Color	n/a	twobytwo	-1.0	n/a	orange	3.0	task_switch	color	switch	stim	poldrack-single-stim	s579	0	False
438.301	1.0	439.635	0.9	2.0	True	71.0	Magnitude	n/a	twobytwo	71.0	0.434	orange	3.0	task_switch	magnitude	switch	stim	poldrack-single-stim	s579	0	False
454.728	1.0	456.114	0.9	2.0	True	89.0	Color	n/a	twobytwo	89.0	0.486	blue	4.0	task_switch	color	switch	stim	poldrack-single-stim	s579	1	False
456.838	1.0	457.586	0.1	2.136	True	89.0	Color	stay	twobytwo	89.0	0.648	blue	8.0	cue_stay	color	stay	stim	poldrack-single-stim	s579	0	False
459.08	1.0	459.95	0.1	2.0	True	71.0	Orange-Blue	switch	twobytwo	71.0	0.77	orange	2.0	cue_switch	color	stay	stim	poldrack-single-stim	s579	0	False
461.987	1.0	463.447	0.9	2.0	True	89.0	Color	switch	twobytwo	89.0	0.56	blue	3.0	cue_switch	color	stay	stim	poldrack-single-stim	s579	0	False
464.094	1.0	464.966	0.1	2.0	True	71.0	Orange-Blue	switch	twobytwo	71.0	0.772	orange	3.0	cue_switch	color	stay	stim	poldrack-single-stim	s579	0	False
466.201	1.0	467.043	0.1	2.272	True	71.0	High-Low	n/a	twobytwo	71.0	0.742	blue	3.0	task_switch	magnitude	switch	stim	poldrack-single-stim	s579	0	False
469.377	1.0	470.774	0.9	2.408	True	89.0	High-Low	stay	twobytwo	89.0	0.497	blue	7.0	cue_stay	magnitude	stay	stim	poldrack-single-stim	s579	0	False
471.892	1.0	472.698	0.1	2.0	True	71.0	Orange-Blue	n/a	twobytwo	71.0	0.706	orange	1.0	task_switch	color	switch	stim	poldrack-single-stim	s579	0	False
474.798	1.0	476.328	0.9	2.0	True	89.0	Color	switch	twobytwo	89.0	0.63	blue	9.0	cue_switch	color	stay	stim	poldrack-single-stim	s579	0	False
476.904	1.0	477.801	0.1	2.0	True	89.0	Orange-Blue	switch	twobytwo	89.0	0.797	blue	4.0	cue_switch	color	stay	stim	poldrack-single-stim	s579	0	False
479.012	1.0	479.692	0.1	2.272	True	71.0	Orange-Blue	stay	twobytwo	71.0	0.58	orange	7.0	cue_stay	color	stay	stim	poldrack-single-stim	s579	0	False
482.188	1.0	483.687	0.9	2.136	True	71.0	High-Low	n/a	twobytwo	71.0	0.599	orange	2.0	task_switch	magnitude	switch	stim	poldrack-single-stim	s579	0	False
485.236	1.0	486.605	0.9	2.0	True	71.0	Orange-Blue	n/a	twobytwo	71.0	0.469	orange	7.0	task_switch	color	switch	stim	poldrack-single-stim	s579	0	False
487.343	1.0	488.15	0.1	2.544	False	71.0	Color	switch	twobytwo	89.0	0.707	orange	8.0	cue_switch	color	stay	stim	poldrack-single-stim	s579	0	False
489.994	1.0	490.779	0.1	2.272	True	71.0	Magnitude	n/a	twobytwo	71.0	0.685	orange	2.0	task_switch	magnitude	switch	stim	poldrack-single-stim	s579	0	False
492.372	1.0	493.047	0.1	2.272	True	71.0	Magnitude	stay	twobytwo	71.0	0.575	orange	2.0	cue_stay	magnitude	stay	stim	poldrack-single-stim	s579	0	False
495.551	1.0	497.261	0.9	2.0	False	71.0	Color	n/a	twobytwo	89.0	0.81	orange	1.0	task_switch	color	switch	stim	poldrack-single-stim	s579	0	False
497.659	1.0	498.621	0.1	2.0	True	89.0	Magnitude	n/a	twobytwo	89.0	0.862	orange	7.0	task_switch	magnitude	switch	stim	poldrack-single-stim	s579	0	False
500.568	1.0	501.856	0.9	2.136	True	71.0	Color	n/a	twobytwo	71.0	0.388	orange	3.0	task_switch	color	switch	stim	poldrack-single-stim	s579	0	False
503.61	1.0	505.287	0.9	2.0	True	71.0	Magnitude	n/a	twobytwo	71.0	0.777	blue	1.0	task_switch	magnitude	switch	stim	poldrack-single-stim	s579	0	False
505.72	1.0	506.333	0.1	2.136	True	71.0	Magnitude	stay	twobytwo	71.0	0.513	orange	3.0	cue_stay	magnitude	stay	stim	poldrack-single-stim	s579	0	False
507.968	1.0	508.52	0.1	2.272	True	71.0	Magnitude	stay	twobytwo	71.0	0.452	orange	4.0	cue_stay	magnitude	stay	stim	poldrack-single-stim	s579	0	False
510.347	1.0	511.295	0.1	2.136	True	71.0	Color	n/a	twobytwo	71.0	0.848	orange	1.0	task_switch	color	switch	stim	poldrack-single-stim	s579	0	False
512.592	1.0	513.511	0.1	2.272	True	71.0	Orange-Blue	switch	twobytwo	71.0	0.819	orange	8.0	cue_switch	color	stay	stim	poldrack-single-stim	s579	0	False
515.771	1.0	517.167	0.9	2.0	True	71.0	Orange-Blue	stay	twobytwo	71.0	0.496	orange	9.0	cue_stay	color	stay	stim	poldrack-single-stim	s579	0	False
517.879	1.0	518.707	0.1	2.816	True	71.0	Orange-Blue	stay	twobytwo	71.0	0.728	orange	2.0	cue_stay	color	stay	stim	poldrack-single-stim	s579	0	False
520.803	1.0	521.471	0.1	2.408	True	89.0	Magnitude	n/a	twobytwo	89.0	0.568	blue	6.0	task_switch	magnitude	switch	stim	poldrack-single-stim	s579	0	False
524.118	1.0	525.488	0.9	2.0	True	71.0	Orange-Blue	n/a	twobytwo	71.0	0.47	orange	3.0	task_switch	color	switch	stim	poldrack-single-stim	s579	0	False
526.225	1.0	527.43	0.1	2.544	True	71.0	Orange-Blue	stay	twobytwo	71.0	1.105	orange	8.0	cue_stay	color	stay	stim	poldrack-single-stim	s579	0	False
528.873	1.0	529.46	0.1	2.136	True	71.0	Orange-Blue	stay	twobytwo	71.0	0.487	orange	6.0	cue_stay	color	stay	stim	poldrack-single-stim	s579	0	False
531.116	1.0	531.789	0.1	2.0	True	71.0	High-Low	n/a	twobytwo	71.0	0.573	orange	1.0	task_switch	magnitude	switch	stim	poldrack-single-stim	s579	0	False
533.222	1.0	534.231	0.1	2.0	True	89.0	Magnitude	switch	twobytwo	89.0	0.909	orange	9.0	cue_switch	magnitude	stay	stim	poldrack-single-stim	s579	0	False
536.127	1.0	537.963	0.9	2.136	False	89.0	Color	n/a	twobytwo	71.0	0.936	blue	7.0	task_switch	color	switch	stim	poldrack-single-stim	s579	0	False
538.367	1.0	539.711	0.1	2.136	True	89.0	High-Low	n/a	twobytwo	89.0	1.244	orange	8.0	task_switch	magnitude	switch	stim	poldrack-single-stim	s579	0	False
541.41	1.0	542.691	0.9	2.272	True	89.0	Color	n/a	twobytwo	89.0	0.381	blue	8.0	task_switch	color	switch	stim	poldrack-single-stim	s579	0	False
543.786	1.0	544.418	0.1	3.224	True	89.0	Color	stay	twobytwo	89.0	0.532	blue	6.0	cue_stay	color	stay	stim	poldrack-single-stim	s579	0	False
547.917	1.0	549.643	0.9	2.0	True	89.0	High-Low	n/a	twobytwo	89.0	0.826	orange	8.0	task_switch	magnitude	switch	stim	poldrack-single-stim	s579	0	False
550.023	1.0	550.743	0.1	2.0	True	89.0	High-Low	stay	twobytwo	89.0	0.62	blue	6.0	cue_stay	magnitude	stay	stim	poldrack-single-stim	s579	0	False
552.931	1.0	554.684	0.9	2.272	True	71.0	Magnitude	switch	twobytwo	71.0	0.853	orange	3.0	cue_switch	magnitude	stay	stim	poldrack-single-stim	s579	0	False
555.312	1.0	556.212	0.1	2.136	True	89.0	Orange-Blue	n/a	twobytwo	89.0	0.8	blue	4.0	task_switch	color	switch	stim	poldrack-single-stim	s579	0	False
557.558	1.0	558.278	0.1	2.0	False	89.0	Magnitude	n/a	twobytwo	71.0	0.62	orange	9.0	task_switch	magnitude	switch	stim	poldrack-single-stim	s579	0	False
559.668	1.0	560.753	0.1	2.0	True	71.0	Color	n/a	twobytwo	71.0	0.985	orange	4.0	task_switch	color	switch	stim	poldrack-single-stim	s579	0	False
562.575	1.0	564.286	0.9	2.0	True	89.0	Color	stay	twobytwo	89.0	0.811	blue	4.0	cue_stay	color	stay	stim	poldrack-single-stim	s579	0	False
564.683	1.0	565.435	0.1	2.68	True	89.0	Magnitude	n/a	twobytwo	89.0	0.652	orange	8.0	task_switch	magnitude	switch	stim	poldrack-single-stim	s579	0	False
567.475	1.0	568.823	0.1	2.0	True	71.0	Magnitude	stay	twobytwo	71.0	1.248	blue	4.0	cue_stay	magnitude	stay	stim	poldrack-single-stim	s579	0	False
570.381	1.0	571.9	0.9	2.272	True	71.0	Orange-Blue	n/a	twobytwo	71.0	0.619	orange	2.0	task_switch	color	switch	stim	poldrack-single-stim	s579	0	False
573.566	1.0	575.268	0.9	2.0	True	71.0	Magnitude	n/a	twobytwo	71.0	0.802	orange	1.0	task_switch	magnitude	switch	stim	poldrack-single-stim	s579	0	False
575.672	1.0	576.85	0.1	2.272	False	89.0	Color	n/a	twobytwo	71.0	1.078	blue	2.0	task_switch	color	switch	stim	poldrack-single-stim	s579	0	False
578.854	1.0	580.729	0.9	2.952	True	71.0	High-Low	n/a	twobytwo	71.0	0.975	orange	4.0	task_switch	magnitude	switch	stim	poldrack-single-stim	s579	0	False
581.918	1.0	582.795	0.1	2.0	True	71.0	High-Low	stay	twobytwo	71.0	0.777	blue	2.0	cue_stay	magnitude	stay	stim	poldrack-single-stim	s579	0	False
584.825	1.0	586.349	0.9	2.0	True	71.0	Magnitude	switch	twobytwo	71.0	0.624	blue	4.0	cue_switch	magnitude	stay	stim	poldrack-single-stim	s579	0	False
586.932	1.0	587.864	0.1	2.0	True	89.0	Color	n/a	twobytwo	89.0	0.832	blue	1.0	task_switch	color	switch	stim	poldrack-single-stim	s579	0	False
589.037	1.0	589.86	0.1	2.0	True	89.0	Color	stay	twobytwo	89.0	0.723	blue	3.0	cue_stay	color	stay	stim	poldrack-single-stim	s579	0	False
591.143	1.0	591.899	0.1	2.136	True	89.0	Color	stay	twobytwo	89.0	0.656	blue	8.0	cue_stay	color	stay	stim	poldrack-single-stim	s579	0	False
593.385	1.0	593.982	0.1	2.0	True	71.0	High-Low	n/a	twobytwo	71.0	0.497	orange	2.0	task_switch	magnitude	switch	stim	poldrack-single-stim	s579	0	False
596.297	1.0	597.742	0.9	2.0	True	89.0	High-Low	stay	twobytwo	89.0	0.545	orange	9.0	cue_stay	magnitude	stay	stim	poldrack-single-stim	s579	0	False
598.404	1.0	599.166	0.1	2.0	False	89.0	Color	n/a	twobytwo	71.0	0.662	blue	3.0	task_switch	color	switch	stim	poldrack-single-stim	s579	0	False
600.511	1.0	601.586	0.1	2.272	True	89.0	Magnitude	n/a	twobytwo	89.0	0.975	orange	7.0	task_switch	magnitude	switch	stim	poldrack-single-stim	s579	0	False
602.886	1.0	603.934	0.1	2.136	True	71.0	Color	n/a	twobytwo	71.0	0.948	orange	1.0	task_switch	color	switch	stim	poldrack-single-stim	s579	0	False
605.926	1.0	607.618	0.9	2.0	False	71.0	High-Low	n/a	twobytwo	89.0	0.792	blue	4.0	task_switch	magnitude	switch	stim	poldrack-single-stim	s579	0	False
608.834	1.0	610.772	0.9	2.136	True	71.0	High-Low	stay	twobytwo	71.0	1.038	orange	3.0	cue_stay	magnitude	stay	stim	poldrack-single-stim	s579	0	False
611.877	1.0	613.28	0.9	2.816	False	71.0	Color	n/a	twobytwo	89.0	0.503	orange	1.0	task_switch	color	switch	stim	poldrack-single-stim	s579	0	False
615.597	1.0	617.009	0.9	2.408	True	71.0	Orange-Blue	switch	twobytwo	71.0	0.512	orange	8.0	cue_switch	color	stay	stim	poldrack-single-stim	s579	0	False
618.112	1.0	618.992	0.1	2.0	False	71.0	High-Low	n/a	twobytwo	89.0	0.78	blue	4.0	task_switch	magnitude	switch	stim	poldrack-single-stim	s579	0	False
621.021	1.0	621.02	0.9	2.136	False	71.0	Color	n/a	twobytwo	-1.0	n/a	orange	6.0	task_switch	color	switch	stim	poldrack-single-stim	s579	0	False
624.064	1.0	625.775	0.9	2.136	True	71.0	Magnitude	n/a	twobytwo	71.0	0.811	blue	4.0	task_switch	magnitude	switch	stim	poldrack-single-stim	s579	0	False
626.307	1.0	627.23	0.1	2.136	True	89.0	Orange-Blue	n/a	twobytwo	89.0	0.823	blue	7.0	task_switch	color	switch	stim	poldrack-single-stim	s579	0	False
629.35	1.0	630.735	0.9	2.544	True	89.0	Orange-Blue	stay	twobytwo	89.0	0.485	blue	7.0	cue_stay	color	stay	stim	poldrack-single-stim	s579	0	False
632.798	1.0	634.142	0.9	2.136	True	89.0	High-Low	n/a	twobytwo	89.0	0.444	orange	6.0	task_switch	magnitude	switch	stim	poldrack-single-stim	s579	0	False
635.84	1.0	637.32	0.9	2.0	True	89.0	Orange-Blue	n/a	twobytwo	89.0	0.58	blue	6.0	task_switch	color	switch	stim	poldrack-single-stim	s579	0	False
637.947	1.0	638.844	0.1	2.0	True	89.0	High-Low	n/a	twobytwo	89.0	0.797	blue	8.0	task_switch	magnitude	switch	stim	poldrack-single-stim	s579	0	False
640.859	1.0	642.201	0.9	2.0	True	71.0	High-Low	stay	twobytwo	71.0	0.442	orange	3.0	cue_stay	magnitude	stay	stim	poldrack-single-stim	s579	0	False
642.97	1.0	643.737	0.1	2.0	True	89.0	Orange-Blue	n/a	twobytwo	89.0	0.667	blue	7.0	task_switch	color	switch	stim	poldrack-single-stim	s579	0	False
645.076	1.0	645.839	0.1	2.136	True	71.0	Magnitude	n/a	twobytwo	71.0	0.663	orange	4.0	task_switch	magnitude	switch	stim	poldrack-single-stim	s579	0	False
647.318	1.0	648.091	0.1	2.0	True	89.0	High-Low	switch	twobytwo	89.0	0.673	blue	6.0	cue_switch	magnitude	stay	stim	poldrack-single-stim	s579	0	False
649.425	1.0	650.391	0.1	2.0	True	89.0	Orange-Blue	n/a	twobytwo	89.0	0.866	blue	1.0	task_switch	color	switch	stim	poldrack-single-stim	s579	0	False
651.537	1.0	652.216	0.1	2.0	True	71.0	High-Low	n/a	twobytwo	71.0	0.579	orange	2.0	task_switch	magnitude	switch	stim	poldrack-single-stim	s579	0	False
653.644	1.0	654.527	0.1	2.136	True	89.0	Orange-Blue	n/a	twobytwo	89.0	0.783	blue	6.0	task_switch	color	switch	stim	poldrack-single-stim	s579	0	False
656.687	1.0	658.174	0.9	2.136	True	71.0	High-Low	n/a	twobytwo	71.0	0.587	orange	3.0	task_switch	magnitude	switch	stim	poldrack-single-stim	s579	0	False
659.732	1.0	661.351	0.9	2.136	False	71.0	Color	n/a	twobytwo	89.0	0.719	orange	3.0	task_switch	color	switch	stim	poldrack-single-stim	s579	0	False
