onset	duration	movement_onset	EV	action	block_duration	experiment_exp_id	gain_amount	gain_probability	key_press	loss_amount	loss_probability	num_cards	num_click_in_round	num_loss_cards	risk	response_time	total_cards	trial_id	trial_type	worker_id	junk	feedback
3.012	10.103	13.115	0.8036016865733844	draw_card	10.103	columbia_card_task_fmri	12.0	0.8333333333333334	89.0	-70.0	0.1666666666666666	6.0	1.0	1.0	-3.129000638364097	10.103	n/a	stim	poldrack-single-stim	s581	False	1
13.119	3.052	16.171	-1.929731646759948	draw_card	3.052	columbia_card_task_fmri	12.0	0.8	89.0	-70.0	0.2	6.0	2.0	1.0	-0.8953849666374296	3.052	2.0	stim	poldrack-single-stim	s581	False	0
16.927	1.5	16.176	n/a	-1.0	2.454	columbia_card_task_fmri	n/a	n/a	-1.0	n/a	n/a	n/a	n/a	n/a	n/a	n/a	n/a	ITI	poldrack-single-stim	s581	False	0
18.635	6.123	24.758	1.6369350199067183	draw_card	6.123	columbia_card_task_fmri	14.0	0.8333333333333334	89.0	-75.0	0.1666666666666666	6.0	1.0	1.0	-0.5280720013253699	6.123	n/a	stim	poldrack-single-stim	s581	False	1
24.76	2.221	26.981	-1.3297316467599485	draw_card	2.221	columbia_card_task_fmri	14.0	0.8	89.0	-75.0	0.2	6.0	2.0	1.0	1.897327332226148	2.221	n/a	stim	poldrack-single-stim	s581	False	1
26.983	5.926	32.909	-5.7797316467599495	draw_card	5.926	columbia_card_task_fmri	14.0	0.75	89.0	-75.0	0.25	6.0	3.0	1.0	4.828945418283283	5.926	n/a	stim	poldrack-single-stim	s581	False	1
32.911	2.074	34.985	-13.196398313426617	end_round	2.074	columbia_card_task_fmri	14.0	0.6666666666666667	71.0	-75.0	0.3333333333333333	6.0	4.0	1.0	8.239387722509377	2.074	3.0	stim	poldrack-single-stim	s581	False	1
35.74	1.5	34.989	n/a	-1.0	2.454	columbia_card_task_fmri	n/a	n/a	-1.0	n/a	n/a	n/a	n/a	n/a	n/a	n/a	n/a	ITI	poldrack-single-stim	s581	False	0
37.446	7.675	45.121	3.3036016865733844	draw_card	7.675	columbia_card_task_fmri	15.0	0.8333333333333334	89.0	-70.0	0.1666666666666666	6.0	1.0	1.0	-2.0144738842535013	7.675	n/a	stim	poldrack-single-stim	s581	False	1
45.123	2.099	47.222	0.4702683532400504	draw_card	2.099	columbia_card_task_fmri	15.0	0.8	89.0	-70.0	0.2	6.0	2.0	1.0	0.3013453315178012	2.099	n/a	stim	poldrack-single-stim	s581	False	1
47.224	1.072	48.296	-3.7797316467599495	draw_card	1.072	columbia_card_task_fmri	15.0	0.75	89.0	-70.0	0.25	6.0	3.0	1.0	3.10060833104901	1.072	n/a	stim	poldrack-single-stim	s581	False	1
48.297	2.654	50.951	-10.86306498009328	end_round	2.654	columbia_card_task_fmri	15.0	0.6666666666666667	71.0	-70.0	0.3333333333333333	6.0	4.0	1.0	6.35718262448372	2.654	3.0	stim	poldrack-single-stim	s581	False	1
51.704	1.5	50.953	n/a	-1.0	2.522	columbia_card_task_fmri	n/a	n/a	-1.0	n/a	n/a	n/a	n/a	n/a	n/a	n/a	n/a	ITI	poldrack-single-stim	s581	False	0
53.478	2.527	56.005	4.136935019906718	draw_card	2.527	columbia_card_task_fmri	17.0	0.8333333333333334	89.0	-75.0	0.1666666666666666	6.0	1.0	1.0	0.5869743781085717	2.527	n/a	stim	poldrack-single-stim	s581	False	1
56.008	1.075	57.083	1.070268353240052	draw_card	1.075	columbia_card_task_fmri	17.0	0.8	89.0	-75.0	0.2	6.0	2.0	1.0	3.0945423193666457	1.075	n/a	stim	poldrack-single-stim	s581	False	1
57.085	2.376	59.461	-3.529731646759949	draw_card	2.376	columbia_card_task_fmri	17.0	0.75	89.0	-75.0	0.25	6.0	3.0	1.0	6.125409525499549	2.376	n/a	stim	poldrack-single-stim	s581	False	1
59.463	1.643	61.106	-11.196398313426617	draw_card	1.643	columbia_card_task_fmri	17.0	0.6666666666666667	89.0	-75.0	0.3333333333333333	6.0	4.0	1.0	9.651235818055326	1.643	n/a	stim	poldrack-single-stim	s581	False	1
61.108	2.407	63.515	-26.52973164675995	end_round	2.407	columbia_card_task_fmri	17.0	0.5	71.0	-75.0	0.5	6.0	5.0	1.0	12.278005622005978	2.407	4.0	stim	poldrack-single-stim	s581	False	1
64.269	1.5	63.518	n/a	-1.0	2.454	columbia_card_task_fmri	n/a	n/a	-1.0	n/a	n/a	n/a	n/a	n/a	n/a	n/a	n/a	ITI	poldrack-single-stim	s581	False	0
65.974	2.138	68.112	5.4702683532400505	draw_card	2.138	columbia_card_task_fmri	24.0	0.75	89.0	-60.0	0.25	8.0	1.0	2.0	2.6685791368573675	2.138	n/a	stim	poldrack-single-stim	s581	False	1
68.114	1.574	69.688	2.4702683532400505	draw_card	1.574	columbia_card_task_fmri	24.0	0.7142857142857143	89.0	-60.0	0.2857142857142857	8.0	2.0	2.0	4.239375637809083	1.574	2.0	stim	poldrack-single-stim	s581	False	0
70.444	1.5	69.693	n/a	-1.0	2.658	columbia_card_task_fmri	n/a	n/a	-1.0	n/a	n/a	n/a	n/a	n/a	n/a	n/a	n/a	ITI	poldrack-single-stim	s581	False	0
72.353	1.581	73.934	5.4702683532400505	draw_card	1.581	columbia_card_task_fmri	29.0	0.75	89.0	-75.0	0.25	8.0	1.0	2.0	11.312747279632582	1.581	n/a	stim	poldrack-single-stim	s581	False	1
73.936	1.433	75.369	1.7559826389543387	draw_card	1.433	columbia_card_task_fmri	29.0	0.7142857142857143	89.0	-75.0	0.2857142857142857	8.0	2.0	2.0	13.25903256157182	1.433	n/a	stim	poldrack-single-stim	s581	False	1
75.371	1.881	77.252	-3.196398313426614	draw_card	1.881	columbia_card_task_fmri	29.0	0.6666666666666667	89.0	-75.0	0.3333333333333333	8.0	3.0	2.0	15.299990042586876	1.881	n/a	stim	poldrack-single-stim	s581	False	1
77.253	1.091	78.344	-10.12973164675995	draw_card	1.091	columbia_card_task_fmri	29.0	0.6	89.0	-75.0	0.4	8.0	4.0	2.0	17.22096150373399	1.091	n/a	stim	poldrack-single-stim	s581	False	1
78.347	3.688	82.035	-20.52973164675995	draw_card	3.688	columbia_card_task_fmri	29.0	0.5	89.0	-75.0	0.5	8.0	5.0	2.0	18.270367014013797	3.688	5.0	stim	poldrack-single-stim	s581	False	0
82.791	1.5	82.04	n/a	-1.0	2.386	columbia_card_task_fmri	n/a	n/a	-1.0	n/a	n/a	n/a	n/a	n/a	n/a	n/a	n/a	ITI	poldrack-single-stim	s581	False	0
84.429	3.958	88.387	1.2480461310178308	draw_card	3.958	columbia_card_task_fmri	17.0	0.7777777777777778	89.0	-65.0	0.2222222222222222	9.0	1.0	2.0	0.391763821262252	3.958	n/a	stim	poldrack-single-stim	s581	False	1
88.389	1.71	90.099	-1.0297316467599495	draw_card	1.71	columbia_card_task_fmri	17.0	0.75	89.0	-65.0	0.25	9.0	2.0	2.0	1.8045924574663768	1.71	2.0	stim	poldrack-single-stim	s581	False	0
90.852	1.5	90.101	n/a	-1.0	2.522	columbia_card_task_fmri	n/a	n/a	-1.0	n/a	n/a	n/a	n/a	n/a	n/a	n/a	n/a	ITI	poldrack-single-stim	s581	False	0
92.626	1.17	93.796	5.57026835324005	draw_card	1.17	columbia_card_task_fmri	14.0	0.9	89.0	-95.0	0.1	10.0	1.0	1.0	-0.9951017046295192	1.17	n/a	stim	poldrack-single-stim	s581	False	1
93.799	1.348	95.147	4.359157242128938	draw_card	1.348	columbia_card_task_fmri	14.0	0.8888888888888888	89.0	-95.0	0.1111111111111111	10.0	2.0	1.0	0.5560740697866393	1.348	n/a	stim	poldrack-single-stim	s581	False	1
95.15	1.579	96.729	2.8452683532400505	draw_card	1.579	columbia_card_task_fmri	14.0	0.875	89.0	-95.0	0.125	10.0	3.0	1.0	2.344626747082714	1.579	n/a	stim	poldrack-single-stim	s581	False	1
96.732	2.164	98.896	0.8988397818114793	draw_card	2.164	columbia_card_task_fmri	14.0	0.8571428571428572	89.0	-95.0	0.1428571428571428	10.0	4.0	1.0	4.433689097844969	2.164	n/a	stim	poldrack-single-stim	s581	False	1
98.898	1.568	100.466	-1.6963983134266138	draw_card	1.568	columbia_card_task_fmri	14.0	0.8333333333333334	89.0	-95.0	0.1666666666666666	10.0	5.0	1.0	6.908667158205077	1.568	5.0	stim	poldrack-single-stim	s581	False	0
101.221	1.5	100.47	n/a	-1.0	2.59	columbia_card_task_fmri	n/a	n/a	-1.0	n/a	n/a	n/a	n/a	n/a	n/a	n/a	n/a	ITI	poldrack-single-stim	s581	False	0
103.062	1.369	104.431	1.4702683532400505	draw_card	1.369	columbia_card_task_fmri	15.0	0.8	89.0	-65.0	0.2	10.0	1.0	2.0	-1.6930695167287624	1.369	n/a	stim	poldrack-single-stim	s581	False	1
104.433	1.364	105.797	-0.3075094245377263	draw_card	1.364	columbia_card_task_fmri	15.0	0.7777777777777778	89.0	-65.0	0.2222222222222222	10.0	2.0	2.0	-0.4374870917651634	1.364	n/a	stim	poldrack-single-stim	s581	False	1
105.8	1.156	106.956	-2.529731646759949	draw_card	1.156	columbia_card_task_fmri	15.0	0.75	89.0	-65.0	0.25	10.0	3.0	2.0	0.9407073365645005	1.156	n/a	stim	poldrack-single-stim	s581	False	1
106.958	1.861	108.819	-5.386874503902804	draw_card	1.861	columbia_card_task_fmri	15.0	0.7142857142857143	89.0	-65.0	0.2857142857142857	10.0	4.0	2.0	2.436366649204388	1.861	n/a	stim	poldrack-single-stim	s581	False	1
108.82	2.001	110.821	-9.196398313426611	end_round	2.001	columbia_card_task_fmri	15.0	0.6666666666666667	71.0	-65.0	0.3333333333333333	10.0	5.0	2.0	4.004904746242907	2.001	4.0	stim	poldrack-single-stim	s581	False	1
111.576	1.5	110.825	n/a	-1.0	2.386	columbia_card_task_fmri	n/a	n/a	-1.0	n/a	n/a	n/a	n/a	n/a	n/a	n/a	n/a	ITI	poldrack-single-stim	s581	False	0
113.214	2.381	115.595	3.070268353240052	draw_card	2.381	columbia_card_task_fmri	17.0	0.8	89.0	-65.0	0.2	10.0	1.0	2.0	-0.8953849666374296	2.381	n/a	stim	poldrack-single-stim	s581	False	1
115.597	1.292	116.889	1.2480461310178308	draw_card	1.292	columbia_card_task_fmri	17.0	0.7777777777777778	89.0	-65.0	0.2222222222222222	10.0	2.0	2.0	0.391763821262252	1.292	n/a	stim	poldrack-single-stim	s581	False	1
116.891	1.471	118.362	-1.0297316467599495	draw_card	1.471	columbia_card_task_fmri	17.0	0.75	89.0	-65.0	0.25	10.0	3.0	2.0	1.8045924574663768	1.471	3.0	stim	poldrack-single-stim	s581	False	0
119.115	1.5	118.364	n/a	-1.0	2.59	columbia_card_task_fmri	n/a	n/a	-1.0	n/a	n/a	n/a	n/a	n/a	n/a	n/a	n/a	ITI	poldrack-single-stim	s581	False	0
120.957	1.689	122.646	1.6369350199067183	draw_card	1.689	columbia_card_task_fmri	13.0	0.8333333333333334	89.0	-70.0	0.1666666666666666	12.0	1.0	2.0	-2.7575197574247348	1.689	n/a	stim	poldrack-single-stim	s581	False	1
122.648	1.308	123.956	0.3793592623309569	draw_card	1.308	columbia_card_task_fmri	13.0	0.8181818181818181	89.0	-70.0	0.1818181818181818	12.0	2.0	2.0	-1.680454576237807	1.308	n/a	stim	poldrack-single-stim	s581	False	1
123.959	2.404	126.363	-1.1297316467599492	draw_card	2.404	columbia_card_task_fmri	13.0	0.8	89.0	-70.0	0.2	12.0	3.0	2.0	-0.4965010218292391	2.404	3.0	stim	poldrack-single-stim	s581	False	0
127.117	1.5	126.366	n/a	-1.0	2.318	columbia_card_task_fmri	n/a	n/a	-1.0	n/a	n/a	n/a	n/a	n/a	n/a	n/a	n/a	ITI	poldrack-single-stim	s581	False	0
128.687	2.621	131.308	1.6369350199067183	draw_card	2.621	columbia_card_task_fmri	15.0	0.8333333333333334	89.0	-80.0	0.1666666666666666	12.0	1.0	2.0	1.7022087400281052	2.621	n/a	stim	poldrack-single-stim	s581	False	1
131.311	1.203	132.514	0.1975410805127753	draw_card	1.203	columbia_card_task_fmri	15.0	0.8181818181818181	89.0	-80.0	0.1818181818181818	12.0	2.0	2.0	2.935888665601098	1.203	2.0	stim	poldrack-single-stim	s581	False	0
133.27	1.5	132.519	n/a	-1.0	2.25	columbia_card_task_fmri	n/a	n/a	-1.0	n/a	n/a	n/a	n/a	n/a	n/a	n/a	n/a	ITI	poldrack-single-stim	s581	False	0
134.772	1.719	136.491	0.6702683532400515	draw_card	1.719	columbia_card_task_fmri	14.0	0.8	89.0	-65.0	0.2	15.0	1.0	3.0	-2.0918680246557777	1.719	n/a	stim	poldrack-single-stim	s581	False	1
136.493	1.038	137.531	-0.4583030753313766	draw_card	1.038	columbia_card_task_fmri	14.0	0.7857142857142857	89.0	-65.0	0.2142857142857142	15.0	2.0	3.0	-1.2785406559639014	1.038	n/a	stim	poldrack-single-stim	s581	False	1
137.535	1.211	138.746	-1.7605008775291813	draw_card	1.211	columbia_card_task_fmri	14.0	0.7692307692307692	89.0	-65.0	0.2307692307692307	15.0	3.0	3.0	-0.4120553657963697	1.211	n/a	stim	poldrack-single-stim	s581	False	1
138.748	1.175	139.923	-3.279731646759949	draw_card	1.175	columbia_card_task_fmri	14.0	0.75	89.0	-65.0	0.25	15.0	4.0	3.0	0.508805258787568	1.175	n/a	stim	poldrack-single-stim	s581	False	1
139.925	1.286	141.211	-5.075186192214495	draw_card	1.286	columbia_card_task_fmri	14.0	0.7272727272727273	89.0	-65.0	0.2727272727272727	15.0	5.0	3.0	1.4819179605331383	1.286	n/a	stim	poldrack-single-stim	s581	False	1
141.213	1.552	142.765	-7.229731646759951	draw_card	1.552	columbia_card_task_fmri	14.0	0.7	89.0	-65.0	0.3	15.0	6.0	3.0	2.4982543685274265	1.552	n/a	stim	poldrack-single-stim	s581	False	1
142.768	3.219	145.987	-9.86306498009328	draw_card	3.219	columbia_card_task_fmri	14.0	0.6666666666666667	89.0	-65.0	0.3333333333333333	15.0	7.0	3.0	3.534521012030716	3.219	7.0	stim	poldrack-single-stim	s581	False	0
146.741	1.5	145.99	n/a	-1.0	2.454	columbia_card_task_fmri	n/a	n/a	-1.0	n/a	n/a	n/a	n/a	n/a	n/a	n/a	n/a	ITI	poldrack-single-stim	s581	False	0
148.448	2.992	151.44	0.5952683532400505	draw_card	2.992	columbia_card_task_fmri	1.0	0.9375	89.0	-45.0	0.0625	16.0	1.0	1.0	-22.38272385478089	2.992	n/a	stim	poldrack-single-stim	s581	False	1
151.443	2.314	153.757	0.403601686573384	draw_card	2.314	columbia_card_task_fmri	1.0	0.9333333333333332	89.0	-45.0	0.0666666666666666	16.0	2.0	1.0	-22.05096508513517	2.314	n/a	stim	poldrack-single-stim	s581	False	1
153.759	2.742	156.501	0.1845540675257648	draw_card	2.742	columbia_card_task_fmri	1.0	0.9285714285714286	89.0	-45.0	0.0714285714285714	16.0	3.0	1.0	-21.68665690698657	2.742	n/a	stim	poldrack-single-stim	s581	False	1
156.504	7.117	163.621	-0.0681931852214878	end_round	7.117	columbia_card_task_fmri	1.0	0.9230769230769232	71.0	-45.0	0.0769230769230769	16.0	4.0	1.0	-21.284245958557165	7.117	3.0	stim	poldrack-single-stim	s581	False	1
164.376	1.5	163.625	n/a	-1.0	3.27	columbia_card_task_fmri	n/a	n/a	-1.0	n/a	n/a	n/a	n/a	n/a	n/a	n/a	n/a	ITI	poldrack-single-stim	s581	False	0
166.898	4.971	171.869	1.5327683532400505	draw_card	4.971	columbia_card_task_fmri	15.0	0.8125	89.0	-70.0	0.1875	16.0	1.0	3.0	-0.5198844712800934	4.971	n/a	stim	poldrack-single-stim	s581	False	1
171.872	2.507	174.379	0.4702683532400504	draw_card	2.507	columbia_card_task_fmri	15.0	0.8	89.0	-70.0	0.2	16.0	2.0	3.0	0.3013453315178012	2.507	n/a	stim	poldrack-single-stim	s581	False	1
174.382	2.631	177.013	-0.7440173610456648	draw_card	2.631	columbia_card_task_fmri	15.0	0.7857142857142857	89.0	-70.0	0.2142857142857142	16.0	3.0	3.0	1.1767975108239952	2.631	n/a	stim	poldrack-single-stim	s581	False	1
177.015	1.805	178.82	-2.1451162621445663	draw_card	1.805	columbia_card_task_fmri	15.0	0.7692307692307692	89.0	-70.0	0.2307692307692307	16.0	4.0	3.0	2.1094490565629087	1.805	n/a	stim	poldrack-single-stim	s581	False	1
178.823	2.056	180.879	-3.7797316467599495	draw_card	2.056	columbia_card_task_fmri	15.0	0.75	89.0	-70.0	0.25	16.0	5.0	3.0	3.10060833104901	2.056	n/a	stim	poldrack-single-stim	s581	False	1
180.882	3.364	184.246	-5.711549828578129	draw_card	3.364	columbia_card_task_fmri	15.0	0.7272727272727273	89.0	-70.0	0.2727272727272727	16.0	6.0	3.0	4.147988183153203	3.364	n/a	stim	poldrack-single-stim	s581	False	1
184.248	2.829	187.077	-8.029731646759949	draw_card	2.829	columbia_card_task_fmri	15.0	0.7	89.0	-70.0	0.3	16.0	7.0	3.0	5.24186992281971	2.829	n/a	stim	poldrack-single-stim	s581	False	1
187.08	2.056	189.136	-10.86306498009328	end_round	2.056	columbia_card_task_fmri	15.0	0.6666666666666667	71.0	-70.0	0.3333333333333333	16.0	8.0	3.0	6.35718262448372	2.056	7.0	stim	poldrack-single-stim	s581	False	1
189.891	1.5	189.14	n/a	-1.0	2.25	columbia_card_task_fmri	n/a	n/a	-1.0	n/a	n/a	n/a	n/a	n/a	n/a	n/a	n/a	ITI	poldrack-single-stim	s581	False	0
191.393	3.22	194.613	8.470268353240051	draw_card	3.22	columbia_card_task_fmri	30.0	0.7	89.0	-50.0	0.3	10.0	1.0	3.0	2.955462064433732	3.22	n/a	stim	poldrack-single-stim	s581	False	1
194.615	1.576	196.191	5.80360168657339	draw_card	1.576	columbia_card_task_fmri	30.0	0.6666666666666667	89.0	-50.0	0.3333333333333333	10.0	2.0	3.0	4.004904746242907	1.576	n/a	stim	poldrack-single-stim	s581	False	1
196.192	1.512	197.704	2.4702683532400505	draw_card	1.512	columbia_card_task_fmri	30.0	0.625	89.0	-50.0	0.375	10.0	3.0	3.0	5.020257731479994	1.512	n/a	stim	poldrack-single-stim	s581	False	1
197.707	2.312	200.019	-1.8154459324742345	end_round	2.312	columbia_card_task_fmri	30.0	0.5714285714285714	71.0	-50.0	0.4285714285714285	10.0	4.0	3.0	5.878450996219122	2.312	3.0	stim	poldrack-single-stim	s581	False	1
200.776	1.5	200.025	n/a	-1.0	2.25	columbia_card_task_fmri	n/a	n/a	-1.0	n/a	n/a	n/a	n/a	n/a	n/a	n/a	n/a	ITI	poldrack-single-stim	s581	False	0
202.279	2.519	204.798	7.870268353240051	draw_card	2.519	columbia_card_task_fmri	17.0	0.8666666666666667	89.0	-70.0	0.1333333333333333	15.0	1.0	2.0	-4.110973643217722	2.519	n/a	stim	poldrack-single-stim	s581	False	1
204.801	2.762	207.563	7.041696924668623	draw_card	2.762	columbia_card_task_fmri	17.0	0.8571428571428572	89.0	-70.0	0.1428571428571428	15.0	2.0	2.0	-3.244559737078916	2.762	n/a	stim	poldrack-single-stim	s581	False	1
207.566	2.097	209.663	6.085652968624665	draw_card	2.097	columbia_card_task_fmri	17.0	0.8461538461538461	89.0	-70.0	0.1538461538461538	15.0	3.0	2.0	-2.3015186620703325	2.097	3.0	stim	poldrack-single-stim	s581	False	0
210.421	1.5	209.67	n/a	-1.0	2.318	columbia_card_task_fmri	n/a	n/a	-1.0	n/a	n/a	n/a	n/a	n/a	n/a	n/a	n/a	ITI	poldrack-single-stim	s581	False	0
211.991	3.883	215.874	3.0952683532400505	end_round	3.883	columbia_card_task_fmri	7.0	0.9375	71.0	-95.0	0.0625	16.0	1.0	1.0	-8.97473852398862	3.883	0.0	stim	poldrack-single-stim	s581	False	1
216.632	1.5	215.881	n/a	-1.0	2.726	columbia_card_task_fmri	n/a	n/a	-1.0	n/a	n/a	n/a	n/a	n/a	n/a	n/a	n/a	ITI	poldrack-single-stim	s581	False	0
218.61	2.474	221.084	4.6577683532400505	end_round	2.474	columbia_card_task_fmri	9.0	0.9375	71.0	-100.0	0.0625	16.0	1.0	1.0	-7.2881889504635	2.474	0.0	stim	poldrack-single-stim	s581	False	1
221.838	1.5	221.087	n/a	-1.0	2.386	columbia_card_task_fmri	n/a	n/a	-1.0	n/a	n/a	n/a	n/a	n/a	n/a	n/a	n/a	ITI	poldrack-single-stim	s581	False	0
223.477	1.93	225.407	5.5952683532400505	draw_card	1.93	columbia_card_task_fmri	15.0	0.875	89.0	-80.0	0.125	16.0	1.0	2.0	-2.273015359515128	1.93	1.0	stim	poldrack-single-stim	s581	False	0
226.163	1.5	225.412	n/a	-1.0	2.318	columbia_card_task_fmri	n/a	n/a	-1.0	n/a	n/a	n/a	n/a	n/a	n/a	n/a	n/a	ITI	poldrack-single-stim	s581	False	0
227.735	2.52	230.255	7.72026835324005	draw_card	2.52	columbia_card_task_fmri	16.0	0.875	89.0	-70.0	0.125	16.0	1.0	2.0	-5.239374562359824	2.52	n/a	stim	poldrack-single-stim	s581	False	1
230.258	1.679	231.937	7.003601686573384	draw_card	1.679	columbia_card_task_fmri	16.0	0.8666666666666667	89.0	-70.0	0.1333333333333333	16.0	2.0	2.0	-4.449714966771712	1.679	n/a	stim	poldrack-single-stim	s581	False	1
231.94	1.307	233.247	6.184554067525766	draw_card	1.307	columbia_card_task_fmri	16.0	0.8571428571428572	89.0	-70.0	0.1428571428571428	16.0	3.0	2.0	-3.593327265162962	1.307	n/a	stim	poldrack-single-stim	s581	False	1
233.251	2.098	235.349	5.239499122470819	draw_card	2.098	columbia_card_task_fmri	16.0	0.8461538461538461	89.0	-70.0	0.1538461538461538	16.0	4.0	2.0	-2.6611949129575123	2.098	n/a	stim	poldrack-single-stim	s581	False	1
235.352	1.807	237.159	4.136935019906718	draw_card	1.807	columbia_card_task_fmri	16.0	0.8333333333333334	89.0	-70.0	0.1666666666666666	16.0	5.0	2.0	-1.6429108362692162	1.807	n/a	stim	poldrack-single-stim	s581	False	1
237.162	1.613	238.775	2.833904716876412	draw_card	1.613	columbia_card_task_fmri	16.0	0.8181818181818181	89.0	-70.0	0.1818181818181818	16.0	6.0	2.0	-0.5266812380894095	1.613	n/a	stim	poldrack-single-stim	s581	False	1
238.778	3.247	242.025	1.2702683532400512	draw_card	3.247	columbia_card_task_fmri	16.0	0.8	89.0	-70.0	0.2	16.0	7.0	2.0	0.7003059249051589	3.247	n/a	stim	poldrack-single-stim	s581	False	1
242.028	1.425	243.453	-0.6408427578710603	end_round	1.425	columbia_card_task_fmri	16.0	0.7777777777777778	71.0	-70.0	0.2222222222222222	16.0	8.0	2.0	2.0505754477599325	1.425	7.0	stim	poldrack-single-stim	s581	False	1
244.209	1.5	243.458	n/a	-1.0	2.25	columbia_card_task_fmri	n/a	n/a	-1.0	n/a	n/a	n/a	n/a	n/a	n/a	n/a	n/a	ITI	poldrack-single-stim	s581	False	0
245.711	2.605	248.316	9.032768353240051	draw_card	2.605	columbia_card_task_fmri	30.0	0.6875	89.0	-45.0	0.3125	16.0	1.0	5.0	1.062812613482187	2.605	n/a	stim	poldrack-single-stim	s581	False	1
248.318	1.487	249.805	7.470268353240054	draw_card	1.487	columbia_card_task_fmri	30.0	0.6666666666666667	89.0	-45.0	0.3333333333333333	16.0	2.0	5.0	1.653257329956226	1.487	2.0	stim	poldrack-single-stim	s581	False	0
250.56	1.5	249.809	n/a	-1.0	2.25	columbia_card_task_fmri	n/a	n/a	-1.0	n/a	n/a	n/a	n/a	n/a	n/a	n/a	n/a	ITI	poldrack-single-stim	s581	False	0
252.063	4.43	256.493	0.8036016865733844	end_round	4.43	columbia_card_task_fmri	13.0	0.8333333333333334	71.0	-75.0	0.1666666666666666	6.0	1.0	1.0	-0.8997090491428139	4.43	0.0	stim	poldrack-single-stim	s581	False	1
257.252	1.5	256.501	n/a	-1.0	2.454	columbia_card_task_fmri	n/a	n/a	-1.0	n/a	n/a	n/a	n/a	n/a	n/a	n/a	n/a	ITI	poldrack-single-stim	s581	False	0
258.958	4.372	263.33	2.470268353240052	end_round	4.372	columbia_card_task_fmri	14.0	0.8333333333333334	71.0	-70.0	0.1666666666666666	6.0	1.0	1.0	-2.3860105076910294	4.372	0.0	stim	poldrack-single-stim	s581	False	1
264.084	1.5	263.333	n/a	-1.0	2.454	columbia_card_task_fmri	n/a	n/a	-1.0	n/a	n/a	n/a	n/a	n/a	n/a	n/a	n/a	ITI	poldrack-single-stim	s581	False	0
265.791	2.008	267.799	2.470268353240052	end_round	2.008	columbia_card_task_fmri	16.0	0.8333333333333334	71.0	-80.0	0.1666666666666666	6.0	1.0	1.0	2.0739922701372464	2.008	0.0	stim	poldrack-single-stim	s581	False	1
268.556	1.5	267.805	n/a	-1.0	2.522	columbia_card_task_fmri	n/a	n/a	-1.0	n/a	n/a	n/a	n/a	n/a	n/a	n/a	n/a	ITI	poldrack-single-stim	s581	False	0
270.334	2.002	272.336	4.970268353240052	draw_card	2.002	columbia_card_task_fmri	17.0	0.8333333333333334	89.0	-70.0	0.1666666666666666	6.0	1.0	1.0	-1.2713222695781283	2.002	n/a	stim	poldrack-single-stim	s581	False	1
272.339	2.834	275.173	2.070268353240052	draw_card	2.834	columbia_card_task_fmri	17.0	0.8	89.0	-70.0	0.2	6.0	2.0	1.0	1.0992903217650607	2.834	n/a	stim	poldrack-single-stim	s581	False	1
275.175	0.988	276.163	-2.279731646759949	end_round	0.988	columbia_card_task_fmri	17.0	0.75	71.0	-70.0	0.25	6.0	3.0	1.0	3.9647343253905305	0.988	2.0	stim	poldrack-single-stim	s581	False	1
276.92	1.5	276.169	n/a	-1.0	2.386	columbia_card_task_fmri	n/a	n/a	-1.0	n/a	n/a	n/a	n/a	n/a	n/a	n/a	n/a	ITI	poldrack-single-stim	s581	False	0
278.558	4.461	283.019	4.9702683532400505	draw_card	4.461	columbia_card_task_fmri	25.0	0.75	89.0	-65.0	0.25	8.0	1.0	2.0	5.261081111079356	4.461	n/a	stim	poldrack-single-stim	s581	False	1
283.03	1.084	284.114	1.7559826389543387	draw_card	1.084	columbia_card_task_fmri	25.0	0.7142857142857143	89.0	-65.0	0.2857142857142857	8.0	2.0	2.0	6.944554960821598	1.084	2.0	stim	poldrack-single-stim	s581	False	0
284.868	1.5	284.117	n/a	-1.0	2.454	columbia_card_task_fmri	n/a	n/a	-1.0	n/a	n/a	n/a	n/a	n/a	n/a	n/a	n/a	ITI	poldrack-single-stim	s581	False	0
286.575	3.144	289.719	4.9702683532400505	draw_card	3.144	columbia_card_task_fmri	30.0	0.75	89.0	-80.0	0.25	8.0	1.0	2.0	13.907135783439948	3.144	1.0	stim	poldrack-single-stim	s581	False	0
290.475	1.5	289.724	n/a	-1.0	2.522	columbia_card_task_fmri	n/a	n/a	-1.0	n/a	n/a	n/a	n/a	n/a	n/a	n/a	n/a	ITI	poldrack-single-stim	s581	False	0
292.251	2.445	294.696	4.670268353240052	draw_card	2.445	columbia_card_task_fmri	13.0	0.9	89.0	-95.0	0.1	10.0	1.0	1.0	-1.294241472594571	2.445	n/a	stim	poldrack-single-stim	s581	False	1
294.699	1.257	295.956	3.4702683532400505	draw_card	1.257	columbia_card_task_fmri	13.0	0.8888888888888888	89.0	-95.0	0.1111111111111111	10.0	2.0	1.0	0.242625875037838	1.257	n/a	stim	poldrack-single-stim	s581	False	1
295.959	1.071	297.03	1.9702683532400505	draw_card	1.071	columbia_card_task_fmri	13.0	0.875	89.0	-95.0	0.125	10.0	3.0	1.0	2.0146887568535874	1.071	n/a	stim	poldrack-single-stim	s581	False	1
297.033	4.141	301.174	0.0416969246686234	draw_card	4.141	columbia_card_task_fmri	13.0	0.8571428571428572	89.0	-95.0	0.1428571428571428	10.0	4.0	1.0	4.084500327960747	4.141	n/a	stim	poldrack-single-stim	s581	False	1
301.178	0.988	302.166	-2.529731646759948	draw_card	0.988	columbia_card_task_fmri	13.0	0.8333333333333334	89.0	-95.0	0.1666666666666666	10.0	5.0	1.0	6.536682684586452	0.988	n/a	stim	poldrack-single-stim	s581	False	1
302.17	0.976	303.146	-6.129731646759949	draw_card	0.976	columbia_card_task_fmri	13.0	0.8	89.0	-95.0	0.2	10.0	6.0	1.0	9.482294805348104	0.976	n/a	stim	poldrack-single-stim	s581	False	1
303.149	2.318	305.467	-11.529731646759949	draw_card	2.318	columbia_card_task_fmri	13.0	0.75	89.0	-95.0	0.25	10.0	7.0	1.0	13.042294183921308	2.318	n/a	stim	poldrack-single-stim	s581	False	1
305.472	0.82	306.292	-20.529731646759945	end_round	0.82	columbia_card_task_fmri	13.0	0.6666666666666667	71.0	-95.0	0.3333333333333333	10.0	8.0	1.0	17.183307364161003	0.82	7.0	stim	poldrack-single-stim	s581	False	1
307.047	1.5	306.296	n/a	-1.0	2.522	columbia_card_task_fmri	n/a	n/a	-1.0	n/a	n/a	n/a	n/a	n/a	n/a	n/a	n/a	ITI	poldrack-single-stim	s581	False	0
308.822	3.613	312.435	6.07026835324005	draw_card	3.613	columbia_card_task_fmri	14.0	0.9	89.0	-90.0	0.1	10.0	1.0	1.0	-2.490635867313234	3.613	n/a	stim	poldrack-single-stim	s581	False	1
312.438	0.768	313.206	4.914712797684493	draw_card	0.768	columbia_card_task_fmri	14.0	0.8888888888888888	89.0	-90.0	0.1111111111111111	10.0	2.0	1.0	-1.0110095807225503	0.768	2.0	stim	poldrack-single-stim	s581	False	0
313.96	1.5	313.209	n/a	-1.0	2.59	columbia_card_task_fmri	n/a	n/a	-1.0	n/a	n/a	n/a	n/a	n/a	n/a	n/a	n/a	ITI	poldrack-single-stim	s581	False	0
315.804	8.325	324.129	1.2702683532400512	draw_card	8.325	columbia_card_task_fmri	16.0	0.8	89.0	-70.0	0.2	10.0	1.0	2.0	0.7003059249051589	8.325	n/a	stim	poldrack-single-stim	s581	False	1
324.133	0.711	324.844	-0.6408427578710603	draw_card	0.711	columbia_card_task_fmri	16.0	0.7777777777777778	89.0	-70.0	0.2222222222222222	10.0	2.0	2.0	2.0505754477599325	0.711	n/a	stim	poldrack-single-stim	s581	False	1
324.848	0.689	325.537	-3.029731646759949	draw_card	0.689	columbia_card_task_fmri	16.0	0.75	89.0	-70.0	0.25	10.0	3.0	2.0	3.532660321443764	0.689	n/a	stim	poldrack-single-stim	s581	False	1
325.541	1.103	326.644	-6.101160218188521	end_round	1.103	columbia_card_task_fmri	16.0	0.7142857142857143	71.0	-70.0	0.2857142857142857	10.0	4.0	2.0	5.141019468716564	1.103	3.0	stim	poldrack-single-stim	s581	False	1
327.398	1.5	326.647	n/a	-1.0	2.454	columbia_card_task_fmri	n/a	n/a	-1.0	n/a	n/a	n/a	n/a	n/a	n/a	n/a	n/a	ITI	poldrack-single-stim	s581	False	0
329.107	2.669	331.776	0.5536016865733844	end_round	2.669	columbia_card_task_fmri	7.0	0.9166666666666666	71.0	-100.0	0.0833333333333333	12.0	1.0	1.0	-4.112045375761706	2.669	0.0	stim	poldrack-single-stim	s581	False	1
332.532	1.5	331.781	n/a	-1.0	2.318	columbia_card_task_fmri	n/a	n/a	-1.0	n/a	n/a	n/a	n/a	n/a	n/a	n/a	n/a	ITI	poldrack-single-stim	s581	False	0
334.102	2.628	336.73	0.8036016865733862	draw_card	2.628	columbia_card_task_fmri	14.0	0.8333333333333334	89.0	-80.0	0.1666666666666666	12.0	1.0	2.0	1.3304441711971862	2.628	n/a	stim	poldrack-single-stim	s581	False	1
336.732	0.635	337.367	-0.620640737669043	draw_card	0.635	columbia_card_task_fmri	14.0	0.8181818181818181	89.0	-80.0	0.1818181818181818	12.0	2.0	2.0	2.551076873514333	0.635	n/a	stim	poldrack-single-stim	s581	False	1
337.371	0.852	338.223	-2.3297316467599485	end_round	0.852	columbia_card_task_fmri	14.0	0.8	71.0	-80.0	0.2	12.0	3.0	2.0	3.892784076770447	0.852	2.0	stim	poldrack-single-stim	s581	False	1
338.978	1.5	338.227	n/a	-1.0	2.25	columbia_card_task_fmri	n/a	n/a	-1.0	n/a	n/a	n/a	n/a	n/a	n/a	n/a	n/a	ITI	poldrack-single-stim	s581	False	0
340.481	2.405	342.886	2.4702683532400505	draw_card	2.405	columbia_card_task_fmri	15.0	0.8333333333333334	89.0	-75.0	0.1666666666666666	12.0	1.0	2.0	-0.1564119160140435	2.405	n/a	stim	poldrack-single-stim	s581	False	1
342.89	0.574	343.464	1.1066319896036854	draw_card	0.574	columbia_card_task_fmri	15.0	0.8181818181818181	89.0	-75.0	0.1818181818181818	12.0	2.0	2.0	1.0120251681814665	0.574	n/a	stim	poldrack-single-stim	s581	False	1
343.468	0.508	343.976	-0.5297316467599495	draw_card	0.508	columbia_card_task_fmri	15.0	0.8	89.0	-75.0	0.2	12.0	3.0	2.0	2.2963784371670783	0.508	n/a	stim	poldrack-single-stim	s581	False	1
343.979	0.783	344.762	-2.529731646759948	draw_card	0.783	columbia_card_task_fmri	15.0	0.7777777777777778	89.0	-75.0	0.2222222222222222	12.0	4.0	2.0	3.709754457669085	0.783	n/a	stim	poldrack-single-stim	s581	False	1
344.765	0.617	345.382	-5.0297316467599495	end_round	0.617	columbia_card_task_fmri	15.0	0.75	71.0	-75.0	0.25	12.0	5.0	2.0	5.261081111079356	0.617	4.0	stim	poldrack-single-stim	s581	False	1
346.138	1.5	345.387	n/a	-1.0	2.658	columbia_card_task_fmri	n/a	n/a	-1.0	n/a	n/a	n/a	n/a	n/a	n/a	n/a	n/a	ITI	poldrack-single-stim	s581	False	0
348.05	2.843	350.893	1.4702683532400505	draw_card	2.843	columbia_card_task_fmri	15.0	0.8	89.0	-65.0	0.2	15.0	1.0	3.0	-1.6930695167287624	2.843	n/a	stim	poldrack-single-stim	s581	False	1
350.897	0.513	351.41	0.3274112103829081	draw_card	0.513	columbia_card_task_fmri	15.0	0.7857142857142857	89.0	-65.0	0.2142857142857142	15.0	2.0	3.0	-0.8693862710899865	0.513	n/a	stim	poldrack-single-stim	s581	False	1
351.414	0.55	351.964	-0.991270108298413	draw_card	0.55	columbia_card_task_fmri	15.0	0.7692307692307692	89.0	-65.0	0.2307692307692307	15.0	3.0	3.0	0.0081284921057047	0.55	n/a	stim	poldrack-single-stim	s581	False	1
351.968	0.585	352.553	-2.529731646759949	draw_card	0.585	columbia_card_task_fmri	15.0	0.75	89.0	-65.0	0.25	15.0	4.0	3.0	0.9407073365645005	0.585	n/a	stim	poldrack-single-stim	s581	False	1
352.557	0.635	353.192	-4.347913464941766	draw_card	0.635	columbia_card_task_fmri	15.0	0.7272727272727273	89.0	-65.0	0.2727272727272727	15.0	5.0	3.0	1.9261996763471672	0.635	n/a	stim	poldrack-single-stim	s581	False	1
353.196	0.78	353.976	-6.5297316467599495	draw_card	0.78	columbia_card_task_fmri	15.0	0.7	89.0	-65.0	0.3	15.0	6.0	3.0	2.955462064433732	0.78	6.0	stim	poldrack-single-stim	s581	False	0
354.733	1.5	353.982	n/a	-1.0	2.454	columbia_card_task_fmri	n/a	n/a	-1.0	n/a	n/a	n/a	n/a	n/a	n/a	n/a	n/a	ITI	poldrack-single-stim	s581	False	0
356.439	3.715	360.154	0.7202683532400505	draw_card	3.715	columbia_card_task_fmri	14.0	0.8125	89.0	-70.0	0.1875	16.0	1.0	3.0	-0.9091065988456464	3.715	n/a	stim	poldrack-single-stim	s581	False	1
360.158	0.866	361.024	-0.3297316467599485	draw_card	0.866	columbia_card_task_fmri	14.0	0.8	89.0	-70.0	0.2	16.0	2.0	3.0	-0.0975906127643497	0.866	n/a	stim	poldrack-single-stim	s581	False	1
361.027	1.055	362.082	-1.5297316467599495	draw_card	1.055	columbia_card_task_fmri	14.0	0.7857142857142857	89.0	-70.0	0.2142857142857142	16.0	3.0	3.0	0.767509091686847	1.055	3.0	stim	poldrack-single-stim	s581	False	0
362.838	1.5	362.087	n/a	-1.0	2.386	columbia_card_task_fmri	n/a	n/a	-1.0	n/a	n/a	n/a	n/a	n/a	n/a	n/a	n/a	ITI	poldrack-single-stim	s581	False	0
364.477	2.733	367.21	0.6577683532400505	draw_card	2.733	columbia_card_task_fmri	11.0	0.6875	89.0	-30.0	0.3125	16.0	1.0	5.0	-14.624388048653149	2.733	1.0	stim	poldrack-single-stim	s581	False	0
367.967	1.5	367.216	n/a	-1.0	2.59	columbia_card_task_fmri	n/a	n/a	-1.0	n/a	n/a	n/a	n/a	n/a	n/a	n/a	n/a	ITI	poldrack-single-stim	s581	False	0
369.81	3.932	373.742	5.4702683532400505	draw_card	3.932	columbia_card_task_fmri	15.0	0.8666666666666667	89.0	-75.0	0.1333333333333333	15.0	1.0	2.0	-3.09459135854571	3.932	n/a	stim	poldrack-single-stim	s581	False	1
373.747	0.723	374.47	4.613125496097195	draw_card	0.723	columbia_card_task_fmri	15.0	0.8571428571428572	89.0	-75.0	0.1428571428571428	15.0	2.0	2.0	-2.1981032708684403	0.723	n/a	stim	poldrack-single-stim	s581	False	1
374.473	0.69	375.163	3.624114507086204	draw_card	0.69	columbia_card_task_fmri	15.0	0.8461538461538461	89.0	-75.0	0.1538461538461538	15.0	3.0	2.0	-1.222340579526055	0.69	n/a	stim	poldrack-single-stim	s581	False	1
375.166	0.723	375.889	2.4702683532400505	draw_card	0.723	columbia_card_task_fmri	15.0	0.8333333333333334	89.0	-75.0	0.1666666666666666	15.0	4.0	2.0	-0.1564119160140435	0.723	n/a	stim	poldrack-single-stim	s581	False	1
375.893	1.785	377.678	1.1066319896036854	draw_card	1.785	columbia_card_task_fmri	15.0	0.8181818181818181	89.0	-75.0	0.1818181818181818	15.0	5.0	2.0	1.0120251681814665	1.785	n/a	stim	poldrack-single-stim	s581	False	1
377.682	1.093	378.775	-0.5297316467599495	draw_card	1.093	columbia_card_task_fmri	15.0	0.8	89.0	-75.0	0.2	15.0	6.0	2.0	2.2963784371670783	1.093	n/a	stim	poldrack-single-stim	s581	False	1
378.779	0.958	379.737	-2.529731646759948	draw_card	0.958	columbia_card_task_fmri	15.0	0.7777777777777778	89.0	-75.0	0.2222222222222222	15.0	7.0	2.0	3.709754457669085	0.958	n/a	stim	poldrack-single-stim	s581	False	1
379.742	0.649	380.391	-5.0297316467599495	draw_card	0.649	columbia_card_task_fmri	15.0	0.75	89.0	-75.0	0.25	15.0	8.0	2.0	5.261081111079356	0.649	8.0	stim	poldrack-single-stim	s581	False	0
381.147	1.5	380.396	n/a	-1.0	2.318	columbia_card_task_fmri	n/a	n/a	-1.0	n/a	n/a	n/a	n/a	n/a	n/a	n/a	n/a	ITI	poldrack-single-stim	s581	False	0
382.718	2.11	384.828	7.203601686573385	draw_card	2.11	columbia_card_task_fmri	17.0	0.8666666666666667	89.0	-75.0	0.1333333333333333	15.0	1.0	2.0	-2.416879789116173	2.11	n/a	stim	poldrack-single-stim	s581	False	1
384.831	0.748	385.579	6.32741121038291	draw_card	0.748	columbia_card_task_fmri	17.0	0.8571428571428572	89.0	-75.0	0.1428571428571428	15.0	2.0	2.0	-1.500345704142127	0.748	2.0	stim	poldrack-single-stim	s581	False	0
386.337	1.5	385.586	n/a	-1.0	2.59	columbia_card_task_fmri	n/a	n/a	-1.0	n/a	n/a	n/a	n/a	n/a	n/a	n/a	n/a	ITI	poldrack-single-stim	s581	False	0
388.18	3.402	391.582	2.7827683532400505	end_round	3.402	columbia_card_task_fmri	2.0	0.9375	71.0	-25.0	0.0625	16.0	1.0	1.0	-26.80135385026912	3.402	0.0	stim	poldrack-single-stim	s581	False	1
392.338	1.5	391.587	n/a	-1.0	2.386	columbia_card_task_fmri	n/a	n/a	-1.0	n/a	n/a	n/a	n/a	n/a	n/a	n/a	n/a	ITI	poldrack-single-stim	s581	False	0
393.977	1.434	395.411	4.9702683532400505	end_round	1.434	columbia_card_task_fmri	9.0	0.9375	71.0	-95.0	0.0625	16.0	1.0	1.0	-8.492974699640236	1.434	0.0	stim	poldrack-single-stim	s581	False	1
396.169	1.5	395.418	n/a	-1.0	2.318	columbia_card_task_fmri	n/a	n/a	-1.0	n/a	n/a	n/a	n/a	n/a	n/a	n/a	n/a	ITI	poldrack-single-stim	s581	False	0
397.742	1.309	399.051	6.5327683532400505	end_round	1.309	columbia_card_task_fmri	11.0	0.9375	71.0	-100.0	0.0625	16.0	1.0	1.0	-6.806136269503188	1.309	0.0	stim	poldrack-single-stim	s581	False	1
399.808	1.5	399.057	n/a	-1.0	2.318	columbia_card_task_fmri	n/a	n/a	-1.0	n/a	n/a	n/a	n/a	n/a	n/a	n/a	n/a	ITI	poldrack-single-stim	s581	False	0
401.381	1.837	403.218	7.0952683532400505	end_round	1.837	columbia_card_task_fmri	16.0	0.875	71.0	-75.0	0.125	16.0	1.0	2.0	-3.5916428923004204	1.837	0.0	stim	poldrack-single-stim	s581	False	1
403.972	1.5	403.221	n/a	-1.0	2.318	columbia_card_task_fmri	n/a	n/a	-1.0	n/a	n/a	n/a	n/a	n/a	n/a	n/a	n/a	ITI	poldrack-single-stim	s581	False	0
405.544	2.218	407.762	7.34526835324005	draw_card	2.218	columbia_card_task_fmri	17.0	0.875	89.0	-80.0	0.125	16.0	1.0	2.0	-1.6135708057600553	2.218	n/a	stim	poldrack-single-stim	s581	False	1
407.766	0.603	408.369	6.536935019906719	draw_card	0.603	columbia_card_task_fmri	17.0	0.8666666666666667	89.0	-80.0	0.1333333333333333	16.0	2.0	2.0	-0.7222132914861703	0.603	n/a	stim	poldrack-single-stim	s581	False	1
408.373	0.522	408.895	5.613125496097196	draw_card	0.522	columbia_card_task_fmri	17.0	0.8571428571428572	89.0	-80.0	0.1428571428571428	16.0	3.0	2.0	0.2444249126669646	0.522	n/a	stim	poldrack-single-stim	s581	False	1
408.9	0.797	409.697	4.547191430163127	draw_card	0.797	columbia_card_task_fmri	17.0	0.8461538461538461	89.0	-80.0	0.1538461538461538	16.0	4.0	2.0	1.2965144492886722	0.797	n/a	stim	poldrack-single-stim	s581	False	1
409.701	0.996	410.697	3.303601686573386	draw_card	0.996	columbia_card_task_fmri	17.0	0.8333333333333334	89.0	-80.0	0.1666666666666666	16.0	5.0	2.0	2.44579417786197	0.996	n/a	stim	poldrack-single-stim	s581	False	1
410.702	1.248	411.95	1.833904716876412	draw_card	1.248	columbia_card_task_fmri	17.0	0.8181818181818181	89.0	-80.0	0.1818181818181818	16.0	6.0	2.0	3.705566675971809	1.248	6.0	stim	poldrack-single-stim	s581	False	0
412.706	1.5	411.955	n/a	-1.0	2.386	columbia_card_task_fmri	n/a	n/a	-1.0	n/a	n/a	n/a	n/a	n/a	n/a	n/a	n/a	ITI	poldrack-single-stim	s581	False	0
425.349	2.328	427.677	1.6369350199067183	end_round	2.328	columbia_card_task_fmri	13.0	0.8333333333333334	71.0	-70.0	0.1666666666666666	6.0	1.0	1.0	-2.7575197574247348	2.328	0.0	stim	poldrack-single-stim	s581	False	1
428.432	1.5	427.681	n/a	-1.0	2.25	columbia_card_task_fmri	n/a	n/a	-1.0	n/a	n/a	n/a	n/a	n/a	n/a	n/a	n/a	ITI	poldrack-single-stim	s581	False	0
429.936	2.348	432.284	1.6369350199067183	draw_card	2.348	columbia_card_task_fmri	15.0	0.8333333333333334	89.0	-80.0	0.1666666666666666	6.0	1.0	1.0	1.7022087400281052	2.348	n/a	stim	poldrack-single-stim	s581	False	1
432.288	1.165	433.453	-1.5297316467599495	end_round	1.165	columbia_card_task_fmri	15.0	0.8	71.0	-80.0	0.2	6.0	2.0	1.0	4.291932628290333	1.165	1.0	stim	poldrack-single-stim	s581	False	1
434.21	1.5	433.459	n/a	-1.0	2.386	columbia_card_task_fmri	n/a	n/a	-1.0	n/a	n/a	n/a	n/a	n/a	n/a	n/a	n/a	ITI	poldrack-single-stim	s581	False	0
435.85	1.726	437.576	3.3036016865733844	draw_card	1.726	columbia_card_task_fmri	16.0	0.8333333333333334	89.0	-75.0	0.1666666666666666	6.0	1.0	1.0	0.2152704513890384	1.726	n/a	stim	poldrack-single-stim	s581	False	1
437.581	2.022	439.603	0.2702683532400511	draw_card	2.022	columbia_card_task_fmri	16.0	0.8	89.0	-75.0	0.2	6.0	2.0	1.0	2.6954503244116594	2.022	n/a	stim	poldrack-single-stim	s581	False	1
439.607	2.317	441.924	-4.2797316467599495	draw_card	2.317	columbia_card_task_fmri	16.0	0.75	89.0	-75.0	0.25	6.0	3.0	1.0	5.69323602155918	2.317	n/a	stim	poldrack-single-stim	s581	False	1
441.928	1.241	443.169	-11.86306498009328	end_round	1.241	columbia_card_task_fmri	16.0	0.6666666666666667	71.0	-75.0	0.3333333333333333	6.0	4.0	1.0	9.180602499912958	1.241	3.0	stim	poldrack-single-stim	s581	False	1
443.927	1.5	443.176	n/a	-1.0	2.59	columbia_card_task_fmri	n/a	n/a	-1.0	n/a	n/a	n/a	n/a	n/a	n/a	n/a	n/a	ITI	poldrack-single-stim	s581	False	0
445.771	2.091	447.862	4.4702683532400505	draw_card	2.091	columbia_card_task_fmri	21.0	0.75	89.0	-55.0	0.25	8.0	1.0	2.0	-0.7867263286031161	2.091	n/a	stim	poldrack-single-stim	s581	False	1
447.865	2.33	450.195	1.755982638954337	draw_card	2.33	columbia_card_task_fmri	21.0	0.7142857142857143	89.0	-55.0	0.2857142857142857	8.0	2.0	2.0	0.6337778795137652	2.33	n/a	stim	poldrack-single-stim	s581	False	1
450.199	1.623	451.822	-1.86306498009328	draw_card	1.623	columbia_card_task_fmri	21.0	0.6666666666666667	89.0	-55.0	0.3333333333333333	8.0	3.0	2.0	2.123530430718205	1.623	n/a	stim	poldrack-single-stim	s581	False	1
451.826	1.458	453.284	-6.92973164675995	draw_card	1.458	columbia_card_task_fmri	21.0	0.6	89.0	-55.0	0.4	8.0	4.0	2.0	3.5258270697225385	1.458	4.0	stim	poldrack-single-stim	s581	False	0
454.041	1.5	453.29	n/a	-1.0	2.658	columbia_card_task_fmri	n/a	n/a	-1.0	n/a	n/a	n/a	n/a	n/a	n/a	n/a	n/a	ITI	poldrack-single-stim	s581	False	0
455.952	3.964	459.916	5.7202683532400505	draw_card	3.964	columbia_card_task_fmri	26.0	0.75	89.0	-65.0	0.25	8.0	1.0	2.0	5.69323602155918	3.964	n/a	stim	poldrack-single-stim	s581	False	1
459.921	0.769	460.69	2.470268353240054	draw_card	0.769	columbia_card_task_fmri	26.0	0.7142857142857143	89.0	-65.0	0.2857142857142857	8.0	2.0	2.0	7.395486508351148	0.769	n/a	stim	poldrack-single-stim	s581	False	1
460.693	0.811	461.504	-1.863064980093278	draw_card	0.811	columbia_card_task_fmri	26.0	0.6666666666666667	89.0	-65.0	0.3333333333333333	8.0	3.0	2.0	9.180602499912965	0.811	3.0	stim	poldrack-single-stim	s581	False	0
462.26	1.5	461.509	n/a	-1.0	2.386	columbia_card_task_fmri	n/a	n/a	-1.0	n/a	n/a	n/a	n/a	n/a	n/a	n/a	n/a	ITI	poldrack-single-stim	s581	False	0
463.9	2.582	466.482	0.8036016865733844	draw_card	2.582	columbia_card_task_fmri	15.0	0.7777777777777778	89.0	-60.0	0.2222222222222222	9.0	1.0	2.0	-2.5100967041239706	2.582	n/a	stim	poldrack-single-stim	s581	False	1
466.487	0.717	467.204	-1.2797316467599495	draw_card	0.717	columbia_card_task_fmri	15.0	0.75	89.0	-60.0	0.25	9.0	2.0	2.0	-1.2185081163570644	0.717	n/a	stim	poldrack-single-stim	s581	False	1
467.208	0.758	467.966	-3.9583030753313766	draw_card	0.758	columbia_card_task_fmri	15.0	0.7142857142857143	89.0	-60.0	0.2857142857142857	9.0	3.0	2.0	0.1832041856341533	0.758	n/a	stim	poldrack-single-stim	s581	False	1
467.97	0.941	468.911	-7.529731646759948	end_round	0.941	columbia_card_task_fmri	15.0	0.6666666666666667	71.0	-60.0	0.3333333333333333	9.0	4.0	2.0	1.653257329956233	0.941	3.0	stim	poldrack-single-stim	s581	False	1
469.668	1.5	468.917	n/a	-1.0	2.386	columbia_card_task_fmri	n/a	n/a	-1.0	n/a	n/a	n/a	n/a	n/a	n/a	n/a	n/a	ITI	poldrack-single-stim	s581	False	0
471.308	3.67	474.978	5.170268353240052	draw_card	3.67	columbia_card_task_fmri	13.0	0.9	89.0	-90.0	0.1	10.0	1.0	1.0	-2.7896909133065257	3.67	n/a	stim	poldrack-single-stim	s581	False	1
474.982	0.733	475.715	4.025823908795606	draw_card	0.733	columbia_card_task_fmri	13.0	0.8888888888888888	89.0	-90.0	0.1111111111111111	10.0	2.0	1.0	-1.3243768356387309	0.733	n/a	stim	poldrack-single-stim	s581	False	1
475.72	0.674	476.394	2.5952683532400505	draw_card	0.674	columbia_card_task_fmri	13.0	0.875	89.0	-90.0	0.125	10.0	3.0	1.0	0.3652253963823355	0.674	n/a	stim	poldrack-single-stim	s581	False	1
476.398	0.838	477.236	0.7559826389543387	draw_card	0.838	columbia_card_task_fmri	13.0	0.8571428571428572	89.0	-90.0	0.1428571428571428	10.0	4.0	1.0	2.3387707989037025	0.838	n/a	stim	poldrack-single-stim	s581	False	1
477.241	0.781	478.022	-1.6963983134266156	draw_card	0.781	columbia_card_task_fmri	13.0	0.8333333333333334	89.0	-90.0	0.1666666666666666	10.0	5.0	1.0	4.676961709362367	0.781	n/a	stim	poldrack-single-stim	s581	False	1
478.027	3.705	481.732	-5.129731646759949	draw_card	3.705	columbia_card_task_fmri	13.0	0.8	89.0	-90.0	0.2	10.0	6.0	1.0	7.485714532714169	3.705	n/a	stim	poldrack-single-stim	s581	False	1
481.736	1.508	483.244	-10.279731646759949	end_round	1.508	columbia_card_task_fmri	13.0	0.75	71.0	-90.0	0.25	10.0	7.0	1.0	10.880390872313365	1.508	6.0	stim	poldrack-single-stim	s581	False	1
484.002	1.5	483.251	n/a	-1.0	2.25	columbia_card_task_fmri	n/a	n/a	-1.0	n/a	n/a	n/a	n/a	n/a	n/a	n/a	n/a	ITI	poldrack-single-stim	s581	False	0
485.505	1.77	487.275	6.4702683532400505	draw_card	1.77	columbia_card_task_fmri	15.0	0.9	89.0	-95.0	0.1	10.0	1.0	1.0	-0.695946362077791	1.77	n/a	stim	poldrack-single-stim	s581	False	1
487.279	0.705	487.984	5.248046131017827	draw_card	0.705	columbia_card_task_fmri	15.0	0.8888888888888888	89.0	-95.0	0.1111111111111111	10.0	2.0	1.0	0.8695371431842602	0.705	n/a	stim	poldrack-single-stim	s581	False	1
487.988	0.601	488.589	3.7202683532400505	draw_card	0.601	columbia_card_task_fmri	15.0	0.875	89.0	-95.0	0.125	10.0	3.0	1.0	2.6745788865801003	0.601	3.0	stim	poldrack-single-stim	s581	False	0
489.348	1.5	488.597	n/a	-1.0	2.318	columbia_card_task_fmri	n/a	n/a	-1.0	n/a	n/a	n/a	n/a	n/a	n/a	n/a	n/a	ITI	poldrack-single-stim	s581	False	0
490.92	2.183	493.103	2.270268353240051	draw_card	2.183	columbia_card_task_fmri	16.0	0.8	89.0	-65.0	0.2	10.0	1.0	2.0	-1.294241472594571	2.183	n/a	stim	poldrack-single-stim	s581	False	1
493.108	0.535	493.643	0.4702683532400522	draw_card	0.535	columbia_card_task_fmri	16.0	0.7777777777777778	89.0	-65.0	0.2222222222222222	10.0	2.0	2.0	-0.0228753362116194	0.535	n/a	stim	poldrack-single-stim	s581	False	1
493.648	0.698	494.346	-1.7797316467599495	draw_card	0.698	columbia_card_task_fmri	16.0	0.75	89.0	-65.0	0.25	10.0	3.0	2.0	1.37263673432642	0.698	n/a	stim	poldrack-single-stim	s581	False	1
494.35	0.835	495.185	-4.67258878961709	draw_card	0.835	columbia_card_task_fmri	16.0	0.7142857142857143	89.0	-65.0	0.2857142857142857	10.0	4.0	2.0	2.8870819215055263	0.835	n/a	stim	poldrack-single-stim	s581	False	1
495.19	0.964	496.154	-8.529731646759945	end_round	0.964	columbia_card_task_fmri	16.0	0.6666666666666667	71.0	-65.0	0.3333333333333333	10.0	5.0	2.0	4.475313605258009	0.964	4.0	stim	poldrack-single-stim	s581	False	1
496.91	1.5	496.159	n/a	-1.0	2.25	columbia_card_task_fmri	n/a	n/a	-1.0	n/a	n/a	n/a	n/a	n/a	n/a	n/a	n/a	ITI	poldrack-single-stim	s581	False	0
498.415	2.193	500.608	0.9702683532400505	end_round	2.193	columbia_card_task_fmri	7.0	0.9166666666666666	71.0	-95.0	0.0833333333333333	12.0	1.0	1.0	-5.48894256473438	2.193	0.0	stim	poldrack-single-stim	s581	False	1
501.368	1.5	500.617	n/a	-1.0	2.25	columbia_card_task_fmri	n/a	n/a	-1.0	n/a	n/a	n/a	n/a	n/a	n/a	n/a	n/a	ITI	poldrack-single-stim	s581	False	0
502.872	2.617	505.489	1.6369350199067183	draw_card	2.617	columbia_card_task_fmri	14.0	0.8333333333333334	89.0	-75.0	0.1666666666666666	12.0	1.0	2.0	-0.5280720013253699	2.617	n/a	stim	poldrack-single-stim	s581	False	1
505.494	0.802	506.296	0.288450171421867	draw_card	0.802	columbia_card_task_fmri	14.0	0.8181818181818181	89.0	-75.0	0.1818181818181818	12.0	2.0	2.0	0.6273143854880345	0.802	n/a	stim	poldrack-single-stim	s581	False	1
506.302	0.72	507.022	-1.3297316467599485	end_round	0.72	columbia_card_task_fmri	14.0	0.8	71.0	-75.0	0.2	12.0	3.0	2.0	1.897327332226148	0.72	2.0	stim	poldrack-single-stim	s581	False	1
507.782	1.5	507.031	n/a	-1.0	2.386	columbia_card_task_fmri	n/a	n/a	-1.0	n/a	n/a	n/a	n/a	n/a	n/a	n/a	n/a	ITI	poldrack-single-stim	s581	False	0
509.421	2.472	511.893	3.3036016865733844	draw_card	2.472	columbia_card_task_fmri	15.0	0.8333333333333334	89.0	-70.0	0.1666666666666666	12.0	1.0	2.0	-2.0144738842535013	2.472	n/a	stim	poldrack-single-stim	s581	False	1
511.898	0.934	512.832	2.0157228986945936	draw_card	0.934	columbia_card_task_fmri	15.0	0.8181818181818181	89.0	-70.0	0.1818181818181818	12.0	2.0	2.0	-0.9112982049546332	0.934	n/a	stim	poldrack-single-stim	s581	False	1
512.837	0.893	513.73	0.4702683532400504	draw_card	0.893	columbia_card_task_fmri	15.0	0.8	89.0	-70.0	0.2	12.0	3.0	2.0	0.3013453315178012	0.893	n/a	stim	poldrack-single-stim	s581	False	1
513.734	1.178	514.912	-1.4186205356488388	draw_card	1.178	columbia_card_task_fmri	15.0	0.7777777777777778	89.0	-70.0	0.2222222222222222	12.0	4.0	2.0	1.6358360827063478	1.178	4.0	stim	poldrack-single-stim	s581	False	0
515.67	1.5	514.919	n/a	-1.0	2.386	columbia_card_task_fmri	n/a	n/a	-1.0	n/a	n/a	n/a	n/a	n/a	n/a	n/a	n/a	ITI	poldrack-single-stim	s581	False	0
517.309	2.054	519.363	1.2702683532400512	draw_card	2.054	columbia_card_task_fmri	16.0	0.8	89.0	-70.0	0.2	15.0	1.0	3.0	0.7003059249051589	2.054	1.0	stim	poldrack-single-stim	s581	False	0
520.119	1.5	519.368	n/a	-1.0	2.726	columbia_card_task_fmri	n/a	n/a	-1.0	n/a	n/a	n/a	n/a	n/a	n/a	n/a	n/a	ITI	poldrack-single-stim	s581	False	0
522.1	3.665	525.765	1.6577683532400505	draw_card	3.665	columbia_card_task_fmri	14.0	0.8125	89.0	-65.0	0.1875	16.0	1.0	3.0	-2.854805114590093	3.665	n/a	stim	poldrack-single-stim	s581	False	1
525.77	0.817	526.587	0.6702683532400515	draw_card	0.817	columbia_card_task_fmri	14.0	0.8	89.0	-65.0	0.2	16.0	2.0	3.0	-2.0918680246557777	0.817	n/a	stim	poldrack-single-stim	s581	False	1
526.592	0.904	527.496	-0.4583030753313766	draw_card	0.904	columbia_card_task_fmri	14.0	0.7857142857142857	89.0	-65.0	0.2142857142857142	16.0	3.0	3.0	-1.2785406559639014	0.904	n/a	stim	poldrack-single-stim	s581	False	1
527.501	0.941	528.442	-1.7605008775291813	draw_card	0.941	columbia_card_task_fmri	14.0	0.7692307692307692	89.0	-65.0	0.2307692307692307	16.0	4.0	3.0	-0.4120553657963697	0.941	n/a	stim	poldrack-single-stim	s581	False	1
528.447	0.924	529.371	-3.279731646759949	draw_card	0.924	columbia_card_task_fmri	14.0	0.75	89.0	-65.0	0.25	16.0	5.0	3.0	0.508805258787568	0.924	5.0	stim	poldrack-single-stim	s581	False	0
530.129	1.5	529.378	n/a	-1.0	2.454	columbia_card_task_fmri	n/a	n/a	-1.0	n/a	n/a	n/a	n/a	n/a	n/a	n/a	n/a	ITI	poldrack-single-stim	s581	False	0
531.837	1.895	533.732	1.4077683532400505	draw_card	1.895	columbia_card_task_fmri	16.0	0.8125	89.0	-75.0	0.1875	16.0	1.0	3.0	1.8159495750553347	1.895	1.0	stim	poldrack-single-stim	s581	False	0
534.49	1.5	533.739	n/a	-1.0	2.318	columbia_card_task_fmri	n/a	n/a	-1.0	n/a	n/a	n/a	n/a	n/a	n/a	n/a	n/a	ITI	poldrack-single-stim	s581	False	0
536.062	4.178	540.24	5.670268353240052	draw_card	4.178	columbia_card_task_fmri	16.0	0.8666666666666667	89.0	-80.0	0.1333333333333333	15.0	1.0	2.0	-1.061188132967665	4.178	n/a	stim	poldrack-single-stim	s581	False	1
540.244	0.769	541.013	4.755982638954339	draw_card	0.769	columbia_card_task_fmri	16.0	0.8571428571428572	89.0	-80.0	0.1428571428571428	15.0	2.0	2.0	-0.1045695862391298	0.769	n/a	stim	poldrack-single-stim	s581	False	1
541.017	0.978	541.995	3.70103758400928	draw_card	0.978	columbia_card_task_fmri	16.0	0.8461538461538461	89.0	-80.0	0.1538461538461538	15.0	3.0	2.0	0.9366179511112662	0.978	3.0	stim	poldrack-single-stim	s581	False	0
542.752	1.5	542.001	n/a	-1.0	2.318	columbia_card_task_fmri	n/a	n/a	-1.0	n/a	n/a	n/a	n/a	n/a	n/a	n/a	n/a	ITI	poldrack-single-stim	s581	False	0
544.325	1.767	546.092	6.536935019906719	draw_card	1.767	columbia_card_task_fmri	17.0	0.8666666666666667	89.0	-80.0	0.1333333333333333	15.0	1.0	2.0	-0.7222132914861703	1.767	n/a	stim	poldrack-single-stim	s581	False	1
546.095	0.841	546.936	5.613125496097196	draw_card	0.841	columbia_card_task_fmri	17.0	0.8571428571428572	89.0	-80.0	0.1428571428571428	15.0	2.0	2.0	0.2444249126669646	0.841	n/a	stim	poldrack-single-stim	s581	False	1
546.942	0.713	547.655	4.547191430163127	draw_card	0.713	columbia_card_task_fmri	17.0	0.8461538461538461	89.0	-80.0	0.1538461538461538	15.0	3.0	2.0	1.2965144492886722	0.713	n/a	stim	poldrack-single-stim	s581	False	1
547.66	0.634	548.294	3.303601686573386	draw_card	0.634	columbia_card_task_fmri	17.0	0.8333333333333334	89.0	-80.0	0.1666666666666666	15.0	4.0	2.0	2.44579417786197	0.634	n/a	stim	poldrack-single-stim	s581	False	1
548.298	2.888	551.186	1.833904716876412	draw_card	2.888	columbia_card_task_fmri	17.0	0.8181818181818181	89.0	-80.0	0.1818181818181818	15.0	5.0	2.0	3.705566675971809	2.888	n/a	stim	poldrack-single-stim	s581	False	1
551.191	1.46	552.651	0.0702683532400518	draw_card	1.46	columbia_card_task_fmri	17.0	0.8	89.0	-80.0	0.2	15.0	6.0	2.0	5.090282235923219	1.46	n/a	stim	poldrack-single-stim	s581	False	1
552.656	1.85	554.506	-2.085287202315505	draw_card	1.85	columbia_card_task_fmri	17.0	0.7777777777777778	89.0	-80.0	0.2222222222222222	15.0	7.0	2.0	6.614065598263366	1.85	n/a	stim	poldrack-single-stim	s581	False	1
554.511	0.821	555.332	-4.7797316467599495	end_round	0.821	columbia_card_task_fmri	17.0	0.75	71.0	-80.0	0.25	15.0	8.0	2.0	8.286535892968118	0.821	7.0	stim	poldrack-single-stim	s581	False	1
556.091	1.5	555.34	n/a	-1.0	2.59	columbia_card_task_fmri	n/a	n/a	-1.0	n/a	n/a	n/a	n/a	n/a	n/a	n/a	n/a	ITI	poldrack-single-stim	s581	False	0
557.936	3.664	561.6	2.4702683532400505	draw_card	3.664	columbia_card_task_fmri	1.0	0.9375	89.0	-15.0	0.0625	16.0	1.0	1.0	-29.19455927063973	3.664	n/a	stim	poldrack-single-stim	s581	False	1
561.605	0.574	562.179	2.403601686573384	draw_card	0.574	columbia_card_task_fmri	1.0	0.9333333333333332	89.0	-15.0	0.0666666666666666	16.0	2.0	1.0	-29.09454374889031	0.574	n/a	stim	poldrack-single-stim	s581	False	1
562.184	0.663	562.847	2.327411210382908	draw_card	0.663	columbia_card_task_fmri	1.0	0.9285714285714286	89.0	-15.0	0.0714285714285714	16.0	3.0	1.0	-28.983921144534268	0.663	n/a	stim	poldrack-single-stim	s581	False	1
562.852	0.521	563.373	2.23949912247082	draw_card	0.521	columbia_card_task_fmri	1.0	0.9230769230769232	89.0	-15.0	0.0769230769230769	16.0	4.0	1.0	-28.860827498142143	0.521	n/a	stim	poldrack-single-stim	s581	False	1
563.378	0.585	563.963	2.136935019906717	draw_card	0.585	columbia_card_task_fmri	1.0	0.9166666666666666	89.0	-15.0	0.0833333333333333	16.0	5.0	1.0	-28.722924113817957	0.585	n/a	stim	poldrack-single-stim	s581	False	1
563.97	0.902	564.872	2.015722898694596	draw_card	0.902	columbia_card_task_fmri	1.0	0.9090909090909092	89.0	-15.0	0.0909090909090909	16.0	6.0	1.0	-28.567235947669538	0.902	n/a	stim	poldrack-single-stim	s581	False	1
564.877	0.595	565.472	1.8702683532400504	draw_card	0.595	columbia_card_task_fmri	1.0	0.9	89.0	-15.0	0.1	16.0	7.0	1.0	-28.389921183017723	0.595	n/a	stim	poldrack-single-stim	s581	False	1
565.477	0.614	566.091	1.6924905754622728	draw_card	0.614	columbia_card_task_fmri	1.0	0.8888888888888888	89.0	-15.0	0.1111111111111111	16.0	8.0	1.0	-28.185938480077567	0.614	n/a	stim	poldrack-single-stim	s581	False	1
566.095	1.734	567.829	1.4702683532400505	draw_card	1.734	columbia_card_task_fmri	1.0	0.875	89.0	-15.0	0.125	16.0	9.0	1.0	-27.948564066583742	1.734	n/a	stim	poldrack-single-stim	s581	False	1
567.834	1.261	569.095	1.1845540675257649	end_round	1.261	columbia_card_task_fmri	1.0	0.8571428571428572	71.0	-15.0	0.1428571428571428	16.0	10.0	1.0	-27.668702917912505	1.261	9.0	stim	poldrack-single-stim	s581	False	1
569.854	1.5	569.103	n/a	-1.0	2.726	columbia_card_task_fmri	n/a	n/a	-1.0	n/a	n/a	n/a	n/a	n/a	n/a	n/a	n/a	ITI	poldrack-single-stim	s581	False	0
571.836	2.439	574.275	5.5952683532400505	draw_card	2.439	columbia_card_task_fmri	10.0	0.9375	89.0	-100.0	0.0625	16.0	1.0	1.0	-7.047171959880082	2.439	n/a	stim	poldrack-single-stim	s581	False	1
574.279	0.932	575.211	5.136935019906717	draw_card	0.932	columbia_card_task_fmri	10.0	0.9333333333333332	89.0	-100.0	0.0666666666666666	16.0	2.0	1.0	-6.238481798943102	0.932	n/a	stim	poldrack-single-stim	s581	False	1
575.217	0.79	576.007	4.613125496097195	draw_card	0.79	columbia_card_task_fmri	10.0	0.9285714285714286	89.0	-100.0	0.0714285714285714	16.0	3.0	1.0	-5.351446121872609	0.79	n/a	stim	poldrack-single-stim	s581	False	1
576.011	0.961	576.972	4.00872989170159	draw_card	0.961	columbia_card_task_fmri	10.0	0.9230769230769232	89.0	-100.0	0.0769230769230769	16.0	4.0	1.0	-4.372738058752983	0.961	n/a	stim	poldrack-single-stim	s581	False	1
576.976	0.834	577.81	3.3036016865733844	draw_card	0.834	columbia_card_task_fmri	10.0	0.9166666666666666	89.0	-100.0	0.0833333333333333	16.0	5.0	1.0	-3.28568869816186	0.834	n/a	stim	poldrack-single-stim	s581	False	1
577.815	0.91	578.725	2.4702683532400487	draw_card	0.91	columbia_card_task_fmri	10.0	0.9090909090909092	89.0	-100.0	0.0909090909090909	16.0	6.0	1.0	-2.0691606501468023	0.91	n/a	stim	poldrack-single-stim	s581	False	1
578.73	1.424	580.154	1.4702683532400505	end_round	1.424	columbia_card_task_fmri	10.0	0.9	71.0	-100.0	0.1	16.0	7.0	1.0	-0.695946362077791	1.424	6.0	stim	poldrack-single-stim	s581	False	1
580.912	1.5	580.161	n/a	-1.0	2.522	columbia_card_task_fmri	n/a	n/a	-1.0	n/a	n/a	n/a	n/a	n/a	n/a	n/a	n/a	ITI	poldrack-single-stim	s581	False	0
582.689	2.203	584.892	6.2202683532400505	draw_card	2.203	columbia_card_task_fmri	15.0	0.875	89.0	-75.0	0.125	16.0	1.0	2.0	-3.921241070299548	2.203	n/a	stim	poldrack-single-stim	s581	False	1
584.897	0.589	585.486	5.4702683532400505	draw_card	0.589	columbia_card_task_fmri	15.0	0.8666666666666667	89.0	-75.0	0.1333333333333333	16.0	2.0	2.0	-3.09459135854571	0.589	n/a	stim	poldrack-single-stim	s581	False	1
585.491	0.559	586.05	4.613125496097195	draw_card	0.559	columbia_card_task_fmri	15.0	0.8571428571428572	89.0	-75.0	0.1428571428571428	16.0	3.0	2.0	-2.1981032708684403	0.559	n/a	stim	poldrack-single-stim	s581	False	1
586.056	0.604	586.66	3.624114507086204	draw_card	0.604	columbia_card_task_fmri	15.0	0.8461538461538461	89.0	-75.0	0.1538461538461538	16.0	4.0	2.0	-1.222340579526055	0.604	n/a	stim	poldrack-single-stim	s581	False	1
586.666	0.545	587.211	2.4702683532400505	draw_card	0.545	columbia_card_task_fmri	15.0	0.8333333333333334	89.0	-75.0	0.1666666666666666	16.0	5.0	2.0	-0.1564119160140435	0.545	n/a	stim	poldrack-single-stim	s581	False	1
587.216	0.667	587.883	1.1066319896036854	draw_card	0.667	columbia_card_task_fmri	15.0	0.8181818181818181	89.0	-75.0	0.1818181818181818	16.0	6.0	2.0	1.0120251681814665	0.667	n/a	stim	poldrack-single-stim	s581	False	1
587.889	0.621	588.51	-0.5297316467599495	draw_card	0.621	columbia_card_task_fmri	15.0	0.8	89.0	-75.0	0.2	16.0	7.0	2.0	2.2963784371670783	0.621	7.0	stim	poldrack-single-stim	s581	False	0
589.266	1.5	588.515	n/a	-1.0	3.134	columbia_card_task_fmri	n/a	n/a	-1.0	n/a	n/a	n/a	n/a	n/a	n/a	n/a	n/a	ITI	poldrack-single-stim	s581	False	0
591.655	4.848	596.503	6.4702683532400505	draw_card	4.848	columbia_card_task_fmri	16.0	0.875	89.0	-80.0	0.125	16.0	1.0	2.0	-1.9433034173935615	4.848	n/a	stim	poldrack-single-stim	s581	False	1
596.507	0.611	597.118	5.670268353240052	draw_card	0.611	columbia_card_task_fmri	16.0	0.8666666666666667	89.0	-80.0	0.1333333333333333	16.0	2.0	2.0	-1.061188132967665	0.611	n/a	stim	poldrack-single-stim	s581	False	1
597.124	0.509	597.633	4.755982638954339	draw_card	0.509	columbia_card_task_fmri	16.0	0.8571428571428572	89.0	-80.0	0.1428571428571428	16.0	3.0	2.0	-0.1045695862391298	0.509	3.0	stim	poldrack-single-stim	s581	False	0
598.393	1.5	597.642	n/a	-1.0	2.386	columbia_card_task_fmri	n/a	n/a	-1.0	n/a	n/a	n/a	n/a	n/a	n/a	n/a	n/a	ITI	poldrack-single-stim	s581	False	0
600.034	2.476	602.51	3.6577683532400505	end_round	2.476	columbia_card_task_fmri	4.0	0.6875	71.0	-5.0	0.3125	16.0	1.0	5.0	-28.940124025952237	2.476	0.0	stim	poldrack-single-stim	s581	False	1
603.267	1.5	602.516	n/a	-1.0	2.386	columbia_card_task_fmri	n/a	n/a	-1.0	n/a	n/a	n/a	n/a	n/a	n/a	n/a	n/a	ITI	poldrack-single-stim	s581	False	0
604.908	2.802	607.71	0.8036016865733862	draw_card	2.802	columbia_card_task_fmri	14.0	0.8333333333333334	89.0	-80.0	0.1666666666666666	6.0	1.0	1.0	1.3304441711971862	2.802	n/a	stim	poldrack-single-stim	s581	False	1
607.716	2.003	609.719	-2.3297316467599485	draw_card	2.003	columbia_card_task_fmri	14.0	0.8	89.0	-80.0	0.2	6.0	2.0	1.0	3.892784076770447	2.003	n/a	stim	poldrack-single-stim	s581	False	1
609.725	1.023	610.748	-7.0297316467599495	end_round	1.023	columbia_card_task_fmri	14.0	0.75	71.0	-80.0	0.25	6.0	3.0	1.0	6.989809949054305	1.023	2.0	stim	poldrack-single-stim	s581	False	1
611.506	1.5	610.755	n/a	-1.0	2.318	columbia_card_task_fmri	n/a	n/a	-1.0	n/a	n/a	n/a	n/a	n/a	n/a	n/a	n/a	ITI	poldrack-single-stim	s581	False	0
613.08	1.779	614.859	2.4702683532400505	draw_card	1.779	columbia_card_task_fmri	15.0	0.8333333333333334	89.0	-75.0	0.1666666666666666	6.0	1.0	1.0	-0.1564119160140435	1.779	n/a	stim	poldrack-single-stim	s581	False	1
614.865	0.811	615.676	-0.5297316467599495	draw_card	0.811	columbia_card_task_fmri	15.0	0.8	89.0	-75.0	0.2	6.0	2.0	1.0	2.2963784371670783	0.811	n/a	stim	poldrack-single-stim	s581	False	1
615.682	1.021	616.703	-5.0297316467599495	draw_card	1.021	columbia_card_task_fmri	15.0	0.75	89.0	-75.0	0.25	6.0	3.0	1.0	5.261081111079356	1.021	n/a	stim	poldrack-single-stim	s581	False	1
616.708	0.969	617.677	-12.529731646759949	end_round	0.969	columbia_card_task_fmri	15.0	0.6666666666666667	71.0	-75.0	0.3333333333333333	6.0	4.0	1.0	8.709986276639846	0.969	3.0	stim	poldrack-single-stim	s581	False	1
618.437	1.5	617.686	n/a	-1.0	2.318	columbia_card_task_fmri	n/a	n/a	-1.0	n/a	n/a	n/a	n/a	n/a	n/a	n/a	n/a	ITI	poldrack-single-stim	s581	False	0
620.011	2.34	622.351	4.136935019906718	draw_card	2.34	columbia_card_task_fmri	16.0	0.8333333333333334	89.0	-70.0	0.1666666666666666	6.0	1.0	1.0	-1.6429108362692162	2.34	1.0	stim	poldrack-single-stim	s581	False	0
623.11	1.5	622.359	n/a	-1.0	2.862	columbia_card_task_fmri	n/a	n/a	-1.0	n/a	n/a	n/a	n/a	n/a	n/a	n/a	n/a	ITI	poldrack-single-stim	s581	False	0
625.228	2.797	628.025	4.7202683532400505	draw_card	2.797	columbia_card_task_fmri	23.0	0.75	89.0	-60.0	0.25	8.0	1.0	2.0	2.236573559021529	2.797	n/a	stim	poldrack-single-stim	s581	False	1
628.03	2.756	630.786	1.7559826389543387	draw_card	2.756	columbia_card_task_fmri	23.0	0.7142857142857143	89.0	-60.0	0.2857142857142857	8.0	2.0	2.0	3.78858730286953	2.756	n/a	stim	poldrack-single-stim	s581	False	1
630.791	2.019	632.81	-2.196398313426614	draw_card	2.019	columbia_card_task_fmri	23.0	0.6666666666666667	89.0	-60.0	0.3333333333333333	8.0	3.0	2.0	5.416203080022321	2.019	n/a	stim	poldrack-single-stim	s581	False	1
632.815	1.4	634.215	-7.729731646759951	draw_card	1.4	columbia_card_task_fmri	23.0	0.6	89.0	-60.0	0.4	8.0	4.0	2.0	6.948222298199127	1.4	n/a	stim	poldrack-single-stim	s581	False	1
634.219	0.697	634.916	-16.02973164675995	draw_card	0.697	columbia_card_task_fmri	23.0	0.5	89.0	-60.0	0.5	8.0	5.0	2.0	7.785180615891988	0.697	n/a	stim	poldrack-single-stim	s581	False	1
634.922	2.425	637.347	-29.86306498009328	end_round	2.425	columbia_card_task_fmri	23.0	0.3333333333333333	71.0	-60.0	0.6666666666666666	8.0	6.0	2.0	5.416203080022321	2.425	5.0	stim	poldrack-single-stim	s581	False	1
638.102	1.5	637.351	n/a	-1.0	2.726	columbia_card_task_fmri	n/a	n/a	-1.0	n/a	n/a	n/a	n/a	n/a	n/a	n/a	n/a	ITI	poldrack-single-stim	s581	False	0
640.083	4.318	644.401	5.2202683532400505	draw_card	4.318	columbia_card_task_fmri	27.0	0.75	89.0	-70.0	0.25	8.0	1.0	2.0	8.286535892968118	4.318	n/a	stim	poldrack-single-stim	s581	False	1
644.406	0.88	645.286	1.7559826389543352	draw_card	0.88	columbia_card_task_fmri	27.0	0.7142857142857143	89.0	-70.0	0.2857142857142857	8.0	2.0	2.0	10.101430999303425	0.88	n/a	stim	poldrack-single-stim	s581	False	1
645.292	0.745	646.037	-2.863064980093278	draw_card	0.745	columbia_card_task_fmri	27.0	0.6666666666666667	89.0	-70.0	0.3333333333333333	8.0	3.0	2.0	12.004640383557188	0.745	n/a	stim	poldrack-single-stim	s581	False	1
646.042	2.227	648.269	-9.32973164675995	draw_card	2.227	columbia_card_task_fmri	27.0	0.6	89.0	-70.0	0.4	8.0	4.0	2.0	13.795989309099248	2.227	n/a	stim	poldrack-single-stim	s581	False	1
648.275	1.443	649.718	-19.02973164675995	draw_card	1.443	columbia_card_task_fmri	27.0	0.5	89.0	-70.0	0.5	8.0	5.0	2.0	14.774593629347322	1.443	5.0	stim	poldrack-single-stim	s581	False	0
650.477	1.5	649.726	n/a	-1.0	2.25	columbia_card_task_fmri	n/a	n/a	-1.0	n/a	n/a	n/a	n/a	n/a	n/a	n/a	n/a	ITI	poldrack-single-stim	s581	False	0
651.983	2.696	654.679	0.4702683532400522	draw_card	2.696	columbia_card_task_fmri	16.0	0.7777777777777778	89.0	-65.0	0.2222222222222222	9.0	1.0	2.0	-0.0228753362116194	2.696	n/a	stim	poldrack-single-stim	s581	False	1
654.685	0.715	655.4	-1.7797316467599495	draw_card	0.715	columbia_card_task_fmri	16.0	0.75	89.0	-65.0	0.25	9.0	2.0	2.0	1.37263673432642	0.715	n/a	stim	poldrack-single-stim	s581	False	1
655.405	1.194	656.599	-4.67258878961709	draw_card	1.194	columbia_card_task_fmri	16.0	0.7142857142857143	89.0	-65.0	0.2857142857142857	9.0	3.0	2.0	2.8870819215055263	1.194	n/a	stim	poldrack-single-stim	s581	False	1
656.604	0.972	657.576	-8.529731646759945	draw_card	0.972	columbia_card_task_fmri	16.0	0.6666666666666667	89.0	-65.0	0.3333333333333333	9.0	4.0	2.0	4.475313605258009	0.972	n/a	stim	poldrack-single-stim	s581	False	1
657.581	0.861	658.442	-13.929731646759947	end_round	0.861	columbia_card_task_fmri	16.0	0.6	71.0	-65.0	0.4	9.0	5.0	2.0	5.970273922878661	0.861	4.0	stim	poldrack-single-stim	s581	False	1
659.199	1.5	658.448	n/a	-1.0	2.318	columbia_card_task_fmri	n/a	n/a	-1.0	n/a	n/a	n/a	n/a	n/a	n/a	n/a	n/a	ITI	poldrack-single-stim	s581	False	0
660.771	1.709	662.48	5.670268353240052	draw_card	1.709	columbia_card_task_fmri	13.0	0.9	89.0	-85.0	0.1	10.0	1.0	1.0	-4.284678339943291	1.709	n/a	stim	poldrack-single-stim	s581	False	1
662.485	1.221	663.706	4.581379464351161	draw_card	1.221	columbia_card_task_fmri	13.0	0.8888888888888888	89.0	-85.0	0.1111111111111111	10.0	2.0	1.0	-2.890938135956564	1.221	n/a	stim	poldrack-single-stim	s581	False	1
663.712	0.786	664.498	3.2202683532400505	draw_card	0.786	columbia_card_task_fmri	13.0	0.875	89.0	-85.0	0.125	10.0	3.0	1.0	-1.2838181536432955	0.786	n/a	stim	poldrack-single-stim	s581	False	1
664.504	0.573	665.077	1.4702683532400522	draw_card	0.573	columbia_card_task_fmri	13.0	0.8571428571428572	89.0	-85.0	0.1428571428571428	10.0	4.0	1.0	0.5934383698924108	0.573	n/a	stim	poldrack-single-stim	s581	False	1
665.083	0.76	665.843	-0.8630649800932817	draw_card	0.76	columbia_card_task_fmri	13.0	0.8333333333333334	89.0	-85.0	0.1666666666666666	10.0	5.0	1.0	2.817613903224135	0.76	n/a	stim	poldrack-single-stim	s581	False	1
665.847	0.544	666.391	-4.129731646759949	draw_card	0.544	columbia_card_task_fmri	13.0	0.8	89.0	-85.0	0.2	10.0	6.0	1.0	5.48948222484136	0.544	6.0	stim	poldrack-single-stim	s581	False	0
667.151	1.5	666.4	n/a	-1.0	2.454	columbia_card_task_fmri	n/a	n/a	-1.0	n/a	n/a	n/a	n/a	n/a	n/a	n/a	n/a	ITI	poldrack-single-stim	s581	False	0
668.861	2.295	671.156	0.6702683532400515	draw_card	2.295	columbia_card_task_fmri	14.0	0.8	89.0	-65.0	0.2	10.0	1.0	2.0	-2.0918680246557777	2.295	n/a	stim	poldrack-single-stim	s581	False	1
671.162	0.543	671.705	-1.0852872023155031	draw_card	0.543	columbia_card_task_fmri	14.0	0.7777777777777778	89.0	-65.0	0.2222222222222222	10.0	2.0	2.0	-0.8520704105652683	0.543	n/a	stim	poldrack-single-stim	s581	False	1
671.712	0.584	672.296	-3.279731646759949	draw_card	0.584	columbia_card_task_fmri	14.0	0.75	89.0	-65.0	0.25	10.0	3.0	2.0	0.508805258787568	0.584	3.0	stim	poldrack-single-stim	s581	False	0
673.053	1.5	672.302	n/a	-1.0	2.522	columbia_card_task_fmri	n/a	n/a	-1.0	n/a	n/a	n/a	n/a	n/a	n/a	n/a	n/a	ITI	poldrack-single-stim	s581	False	0
674.831	2.665	677.496	2.070268353240052	draw_card	2.665	columbia_card_task_fmri	17.0	0.8	89.0	-70.0	0.2	10.0	1.0	2.0	1.0992903217650607	2.665	n/a	stim	poldrack-single-stim	s581	False	1
677.502	0.585	678.087	0.1369350199067183	draw_card	0.585	columbia_card_task_fmri	17.0	0.7777777777777778	89.0	-70.0	0.2222222222222222	10.0	2.0	2.0	2.4653377281988758	0.585	2.0	stim	poldrack-single-stim	s581	False	0
678.847	1.5	678.096	n/a	-1.0	2.318	columbia_card_task_fmri	n/a	n/a	-1.0	n/a	n/a	n/a	n/a	n/a	n/a	n/a	n/a	ITI	poldrack-single-stim	s581	False	0
