duration	onset	block_duration	movement_onset	planning	condition	exp_stage	experiment_exp_id	key_press	problem_id	response_time	trial_id	trial_type	worker_id	junk
4.709	3.013	4.709	7.722	1	UA_with_intermediate	practice	ward_and_allport	71	0.0	4.709	to_hand	poldrack-single-stim	s582	False
0.1	7.724	0.45	8.174	0	UA_with_intermediate	practice	ward_and_allport	82	0.0	0.45	to_board	poldrack-single-stim	s582	False
0.1	8.176	0.623	8.799	0	UA_with_intermediate	practice	ward_and_allport	71	0.0	0.623	to_hand	poldrack-single-stim	s582	False
0.1	8.801	0.454	9.255	0	UA_with_intermediate	practice	ward_and_allport	89	0.0	0.454	to_board	poldrack-single-stim	s582	False
0.1	9.256	0.498	9.754	0	UA_with_intermediate	practice	ward_and_allport	82	0.0	0.498	to_hand	poldrack-single-stim	s582	False
0.1	9.755	0.375	10.13	0	UA_with_intermediate	practice	ward_and_allport	89	0.0	0.375	to_board	poldrack-single-stim	s582	False
1.0	10.133	2.5	10.132	0	UA_with_intermediate	practice	ward_and_allport	-1	0.0	n/a	feedback	poldrack-single-stim	s582	False
4.785	12.636	4.785	17.421	1	UA_with_intermediate	practice	ward_and_allport	89	1.0	4.785	to_hand	poldrack-single-stim	s582	False
0.1	17.423	0.392	17.815	0	UA_with_intermediate	practice	ward_and_allport	82	1.0	0.392	to_board	poldrack-single-stim	s582	False
0.1	17.816	0.488	18.304	0	UA_with_intermediate	practice	ward_and_allport	71	1.0	0.488	to_hand	poldrack-single-stim	s582	False
0.1	18.306	0.414	18.72	0	UA_with_intermediate	practice	ward_and_allport	89	1.0	0.414	to_board	poldrack-single-stim	s582	False
0.1	18.722	0.593	19.315	0	UA_with_intermediate	practice	ward_and_allport	82	1.0	0.593	to_hand	poldrack-single-stim	s582	False
0.1	19.317	0.385	19.702	0	UA_with_intermediate	practice	ward_and_allport	89	1.0	0.385	to_board	poldrack-single-stim	s582	False
1.0	19.706	2.1	19.705	0	UA_with_intermediate	practice	ward_and_allport	-1	1.0	n/a	feedback	poldrack-single-stim	s582	False
3.212	21.807	3.212	25.019	1	UA_without_intermediate	practice	ward_and_allport	82	2.0	3.212	to_hand	poldrack-single-stim	s582	False
0.1	25.02	0.51	25.53	0	UA_without_intermediate	practice	ward_and_allport	89	2.0	0.51	to_board	poldrack-single-stim	s582	False
0.1	25.532	1.665	27.197	0	UA_without_intermediate	practice	ward_and_allport	71	2.0	1.665	to_hand	poldrack-single-stim	s582	False
0.1	27.198	0.473	27.671	0	UA_without_intermediate	practice	ward_and_allport	82	2.0	0.473	to_board	poldrack-single-stim	s582	False
0.1	27.675	0.858	28.533	0	UA_without_intermediate	practice	ward_and_allport	71	2.0	0.858	to_hand	poldrack-single-stim	s582	False
0.1	28.534	0.347	28.881	0	UA_without_intermediate	practice	ward_and_allport	89	2.0	0.347	to_board	poldrack-single-stim	s582	False
0.1	28.883	1.5	30.383	0	UA_without_intermediate	practice	ward_and_allport	89	2.0	1.5	to_hand	poldrack-single-stim	s582	False
0.1	30.384	1.333	31.717	0	UA_without_intermediate	practice	ward_and_allport	71	2.0	1.333	to_board	poldrack-single-stim	s582	False
0.1	31.718	0.54	32.258	0	UA_without_intermediate	practice	ward_and_allport	82	2.0	0.54	to_hand	poldrack-single-stim	s582	False
0.1	32.26	0.817	33.077	0	UA_without_intermediate	practice	ward_and_allport	89	2.0	0.817	to_board	poldrack-single-stim	s582	False
0.1	33.079	0.45	33.529	0	UA_without_intermediate	practice	ward_and_allport	71	2.0	0.45	to_hand	poldrack-single-stim	s582	False
0.1	33.53	0.332	33.862	0	UA_without_intermediate	practice	ward_and_allport	89	2.0	0.332	to_board	poldrack-single-stim	s582	False
1.0	33.864	2.2	33.863	0	UA_without_intermediate	practice	ward_and_allport	-1	2.0	n/a	feedback	poldrack-single-stim	s582	False
1.868	36.067	1.868	37.935	1	UA_without_intermediate	practice	ward_and_allport	71	3.0	1.868	to_hand	poldrack-single-stim	s582	False
0.1	37.936	0.571	38.507	0	UA_without_intermediate	practice	ward_and_allport	89	3.0	0.571	to_board	poldrack-single-stim	s582	False
0.1	38.51	0.436	38.946	0	UA_without_intermediate	practice	ward_and_allport	82	3.0	0.436	to_hand	poldrack-single-stim	s582	False
0.1	38.947	0.557	39.504	0	UA_without_intermediate	practice	ward_and_allport	89	3.0	0.557	to_board	poldrack-single-stim	s582	False
0.1	39.506	0.418	39.924	0	UA_without_intermediate	practice	ward_and_allport	71	3.0	0.418	to_hand	poldrack-single-stim	s582	False
0.1	39.925	0.424	40.349	0	UA_without_intermediate	practice	ward_and_allport	89	3.0	0.424	to_board	poldrack-single-stim	s582	False
1.0	40.352	2.0	40.351	0	UA_without_intermediate	practice	ward_and_allport	-1	3.0	n/a	feedback	poldrack-single-stim	s582	False
3.716	44.358	3.716	48.074	1	PA_with_intermediate	test	ward_and_allport	82	0.0	3.716	to_hand	poldrack-single-stim	s582	False
0.1	48.075	0.464	48.539	0	PA_with_intermediate	test	ward_and_allport	71	0.0	0.464	to_board	poldrack-single-stim	s582	False
0.1	48.543	0.979	49.522	0	PA_with_intermediate	test	ward_and_allport	82	0.0	0.979	to_hand	poldrack-single-stim	s582	False
0.1	49.523	0.367	49.89	0	PA_with_intermediate	test	ward_and_allport	89	0.0	0.367	to_board	poldrack-single-stim	s582	False
0.1	49.893	0.48	50.373	0	PA_with_intermediate	test	ward_and_allport	71	0.0	0.48	to_hand	poldrack-single-stim	s582	False
0.1	50.375	0.38	50.755	0	PA_with_intermediate	test	ward_and_allport	89	0.0	0.38	to_board	poldrack-single-stim	s582	False
1.0	50.762	4.176	50.761	0	PA_with_intermediate	test	ward_and_allport	-1	0.0	n/a	feedback	poldrack-single-stim	s582	False
2.428	54.941	2.428	57.369	1	PA_with_intermediate	test	ward_and_allport	71	1.0	2.428	to_hand	poldrack-single-stim	s582	False
0.1	57.37	0.45	57.82	0	PA_with_intermediate	test	ward_and_allport	82	1.0	0.45	to_board	poldrack-single-stim	s582	False
0.1	57.822	0.414	58.236	0	PA_with_intermediate	test	ward_and_allport	71	1.0	0.414	to_hand	poldrack-single-stim	s582	False
0.1	58.238	0.378	58.616	0	PA_with_intermediate	test	ward_and_allport	89	1.0	0.378	to_board	poldrack-single-stim	s582	False
0.1	58.617	0.572	59.189	0	PA_with_intermediate	test	ward_and_allport	82	1.0	0.572	to_hand	poldrack-single-stim	s582	False
0.1	59.191	0.402	59.593	0	PA_with_intermediate	test	ward_and_allport	71	1.0	0.402	to_board	poldrack-single-stim	s582	False
1.0	59.6	3.36	59.599	0	PA_with_intermediate	test	ward_and_allport	-1	1.0	n/a	feedback	poldrack-single-stim	s582	False
3.753	62.963	3.753	66.716	1	PA_with_intermediate	test	ward_and_allport	82	2.0	3.753	to_hand	poldrack-single-stim	s582	False
0.1	66.717	0.393	67.11	0	PA_with_intermediate	test	ward_and_allport	89	2.0	0.393	to_board	poldrack-single-stim	s582	False
0.1	67.113	1.008	68.121	0	PA_with_intermediate	test	ward_and_allport	82	2.0	1.008	to_hand	poldrack-single-stim	s582	False
0.1	68.122	0.393	68.515	0	PA_with_intermediate	test	ward_and_allport	71	2.0	0.393	to_board	poldrack-single-stim	s582	False
0.1	68.518	0.398	68.916	0	PA_with_intermediate	test	ward_and_allport	89	2.0	0.398	to_hand	poldrack-single-stim	s582	False
0.1	68.917	0.329	69.246	0	PA_with_intermediate	test	ward_and_allport	82	2.0	0.329	to_board	poldrack-single-stim	s582	False
1.0	69.249	2.0	69.248	0	PA_with_intermediate	test	ward_and_allport	-1	2.0	n/a	feedback	poldrack-single-stim	s582	False
3.077	71.252	3.077	74.329	1	PA_without_intermediate	test	ward_and_allport	82	3.0	3.077	to_hand	poldrack-single-stim	s582	False
0.1	74.331	0.346	74.677	0	PA_without_intermediate	test	ward_and_allport	89	3.0	0.346	to_board	poldrack-single-stim	s582	False
0.1	74.68	0.541	75.221	0	PA_without_intermediate	test	ward_and_allport	82	3.0	0.541	to_hand	poldrack-single-stim	s582	False
0.1	75.223	0.366	75.589	0	PA_without_intermediate	test	ward_and_allport	89	3.0	0.366	to_board	poldrack-single-stim	s582	False
0.1	75.592	0.773	76.365	0	PA_without_intermediate	test	ward_and_allport	82	3.0	0.773	to_hand	poldrack-single-stim	s582	False
0.1	76.366	0.451	76.817	0	PA_without_intermediate	test	ward_and_allport	71	3.0	0.451	to_board	poldrack-single-stim	s582	False
1.0	76.824	2.408	76.823	0	PA_without_intermediate	test	ward_and_allport	-1	3.0	n/a	feedback	poldrack-single-stim	s582	False
2.684	79.235	2.684	81.919	1	PA_with_intermediate	test	ward_and_allport	89	4.0	2.684	to_hand	poldrack-single-stim	s582	False
0.1	81.92	0.36	82.28	0	PA_with_intermediate	test	ward_and_allport	82	4.0	0.36	to_board	poldrack-single-stim	s582	False
0.1	82.285	0.534	82.819	0	PA_with_intermediate	test	ward_and_allport	89	4.0	0.534	to_hand	poldrack-single-stim	s582	False
0.1	82.821	0.367	83.188	0	PA_with_intermediate	test	ward_and_allport	71	4.0	0.367	to_board	poldrack-single-stim	s582	False
0.1	83.192	0.49	83.682	0	PA_with_intermediate	test	ward_and_allport	82	4.0	0.49	to_hand	poldrack-single-stim	s582	False
0.1	83.684	0.379	84.063	0	PA_with_intermediate	test	ward_and_allport	89	4.0	0.379	to_board	poldrack-single-stim	s582	False
1.0	84.07	2.816	84.069	0	PA_with_intermediate	test	ward_and_allport	-1	4.0	n/a	feedback	poldrack-single-stim	s582	False
2.47	86.889	2.47	89.359	1	PA_without_intermediate	test	ward_and_allport	71	5.0	2.47	to_hand	poldrack-single-stim	s582	False
0.1	89.36	0.397	89.757	0	PA_without_intermediate	test	ward_and_allport	89	5.0	0.397	to_board	poldrack-single-stim	s582	False
0.1	89.762	0.637	90.399	0	PA_without_intermediate	test	ward_and_allport	71	5.0	0.637	to_hand	poldrack-single-stim	s582	False
0.1	90.4	0.306	90.706	0	PA_without_intermediate	test	ward_and_allport	89	5.0	0.306	to_board	poldrack-single-stim	s582	False
0.1	90.708	0.466	91.174	0	PA_without_intermediate	test	ward_and_allport	71	5.0	0.466	to_hand	poldrack-single-stim	s582	False
0.1	91.175	0.283	91.458	0	PA_without_intermediate	test	ward_and_allport	82	5.0	0.283	to_board	poldrack-single-stim	s582	False
1.0	91.463	3.088	91.462	0	PA_without_intermediate	test	ward_and_allport	-1	5.0	n/a	feedback	poldrack-single-stim	s582	False
2.982	94.554	2.982	97.536	1	PA_without_intermediate	test	ward_and_allport	82	6.0	2.982	to_hand	poldrack-single-stim	s582	False
0.1	97.537	0.347	97.884	0	PA_without_intermediate	test	ward_and_allport	71	6.0	0.347	to_board	poldrack-single-stim	s582	False
0.1	97.888	0.672	98.56	0	PA_without_intermediate	test	ward_and_allport	82	6.0	0.672	to_hand	poldrack-single-stim	s582	False
0.1	98.561	0.269	98.83	0	PA_without_intermediate	test	ward_and_allport	89	6.0	0.269	to_board	poldrack-single-stim	s582	False
0.1	98.833	1.748	100.581	0	PA_without_intermediate	test	ward_and_allport	82	6.0	1.748	to_hand	poldrack-single-stim	s582	False
0.1	100.583	0.452	101.035	0	PA_without_intermediate	test	ward_and_allport	71	6.0	0.452	to_board	poldrack-single-stim	s582	False
1.0	101.039	2.136	101.038	0	PA_without_intermediate	test	ward_and_allport	-1	6.0	n/a	feedback	poldrack-single-stim	s582	False
2.564	103.179	2.564	105.743	1	PA_without_intermediate	test	ward_and_allport	82	7.0	2.564	to_hand	poldrack-single-stim	s582	False
0.1	105.744	0.385	106.129	0	PA_without_intermediate	test	ward_and_allport	71	7.0	0.385	to_board	poldrack-single-stim	s582	False
0.1	106.134	0.673	106.807	0	PA_without_intermediate	test	ward_and_allport	82	7.0	0.673	to_hand	poldrack-single-stim	s582	False
0.1	106.808	0.368	107.176	0	PA_without_intermediate	test	ward_and_allport	89	7.0	0.368	to_board	poldrack-single-stim	s582	False
0.1	107.18	1.065	108.245	0	PA_without_intermediate	test	ward_and_allport	82	7.0	1.065	to_hand	poldrack-single-stim	s582	False
0.1	108.247	0.252	108.499	0	PA_without_intermediate	test	ward_and_allport	71	7.0	0.252	to_board	poldrack-single-stim	s582	False
1.0	108.506	7.168	108.505	0	PA_without_intermediate	test	ward_and_allport	-1	7.0	n/a	feedback	poldrack-single-stim	s582	False
1.719	115.679	1.719	117.398	1	PA_without_intermediate	test	ward_and_allport	71	8.0	1.719	to_hand	poldrack-single-stim	s582	False
0.1	117.399	0.439	117.838	0	PA_without_intermediate	test	ward_and_allport	82	8.0	0.439	to_board	poldrack-single-stim	s582	False
0.1	117.841	0.794	118.635	0	PA_without_intermediate	test	ward_and_allport	71	8.0	0.794	to_hand	poldrack-single-stim	s582	False
0.1	118.637	0.367	119.004	0	PA_without_intermediate	test	ward_and_allport	82	8.0	0.367	to_board	poldrack-single-stim	s582	False
0.1	119.008	0.494	119.502	0	PA_without_intermediate	test	ward_and_allport	71	8.0	0.494	to_hand	poldrack-single-stim	s582	False
0.1	119.504	0.264	119.768	0	PA_without_intermediate	test	ward_and_allport	89	8.0	0.264	to_board	poldrack-single-stim	s582	False
1.0	119.776	2.816	119.775	0	PA_without_intermediate	test	ward_and_allport	-1	8.0	n/a	feedback	poldrack-single-stim	s582	False
2.627	122.595	2.627	125.222	1	PA_with_intermediate	test	ward_and_allport	89	9.0	2.627	to_hand	poldrack-single-stim	s582	False
0.1	125.224	0.282	125.506	0	PA_with_intermediate	test	ward_and_allport	82	9.0	0.282	to_board	poldrack-single-stim	s582	False
0.1	125.51	0.313	125.823	0	PA_with_intermediate	test	ward_and_allport	89	9.0	0.313	to_hand	poldrack-single-stim	s582	False
0.1	125.825	0.728	126.553	0	PA_with_intermediate	test	ward_and_allport	71	9.0	0.728	to_board	poldrack-single-stim	s582	False
0.1	126.557	0.456	127.013	0	PA_with_intermediate	test	ward_and_allport	82	9.0	0.456	to_hand	poldrack-single-stim	s582	False
0.1	127.015	0.286	127.301	0	PA_with_intermediate	test	ward_and_allport	71	9.0	0.286	to_board	poldrack-single-stim	s582	False
1.0	127.305	2.952	127.304	0	PA_with_intermediate	test	ward_and_allport	-1	9.0	n/a	feedback	poldrack-single-stim	s582	False
2.383	130.264	2.383	132.647	1	PA_with_intermediate	test	ward_and_allport	82	10.0	2.383	to_hand	poldrack-single-stim	s582	False
0.1	132.648	0.283	132.931	0	PA_with_intermediate	test	ward_and_allport	71	10.0	0.283	to_board	poldrack-single-stim	s582	False
0.1	132.936	0.348	133.284	0	PA_with_intermediate	test	ward_and_allport	82	10.0	0.348	to_hand	poldrack-single-stim	s582	False
0.1	133.287	0.3	133.587	0	PA_with_intermediate	test	ward_and_allport	89	10.0	0.3	to_board	poldrack-single-stim	s582	False
0.1	133.593	0.704	134.297	0	PA_with_intermediate	test	ward_and_allport	71	10.0	0.704	to_hand	poldrack-single-stim	s582	False
0.1	134.298	0.226	134.524	0	PA_with_intermediate	test	ward_and_allport	89	10.0	0.226	to_board	poldrack-single-stim	s582	False
1.0	134.529	2.136	134.528	0	PA_with_intermediate	test	ward_and_allport	-1	10.0	n/a	feedback	poldrack-single-stim	s582	False
1.37	136.671	1.37	138.041	1	PA_without_intermediate	test	ward_and_allport	82	11.0	1.37	to_hand	poldrack-single-stim	s582	False
0.1	138.043	0.422	138.465	0	PA_without_intermediate	test	ward_and_allport	89	11.0	0.422	to_board	poldrack-single-stim	s582	False
0.1	138.469	0.501	138.97	0	PA_without_intermediate	test	ward_and_allport	82	11.0	0.501	to_hand	poldrack-single-stim	s582	False
0.1	138.972	0.324	139.296	0	PA_without_intermediate	test	ward_and_allport	71	11.0	0.324	to_board	poldrack-single-stim	s582	False
0.1	139.302	0.507	139.809	0	PA_without_intermediate	test	ward_and_allport	82	11.0	0.507	to_hand	poldrack-single-stim	s582	False
0.1	139.811	0.266	140.077	0	PA_without_intermediate	test	ward_and_allport	89	11.0	0.266	to_board	poldrack-single-stim	s582	False
1.0	140.085	2.68	140.084	0	PA_without_intermediate	test	ward_and_allport	-1	11.0	n/a	feedback	poldrack-single-stim	s582	False
2.85	142.77	2.85	145.62	1	PA_without_intermediate	test	ward_and_allport	82	12.0	2.85	to_hand	poldrack-single-stim	s582	False
0.1	145.622	0.322	145.944	0	PA_without_intermediate	test	ward_and_allport	89	12.0	0.322	to_board	poldrack-single-stim	s582	False
0.1	145.95	0.314	146.264	0	PA_without_intermediate	test	ward_and_allport	82	12.0	0.314	to_hand	poldrack-single-stim	s582	False
0.1	146.266	0.323	146.589	0	PA_without_intermediate	test	ward_and_allport	89	12.0	0.323	to_board	poldrack-single-stim	s582	False
0.1	146.596	0.306	146.902	0	PA_without_intermediate	test	ward_and_allport	82	12.0	0.306	to_hand	poldrack-single-stim	s582	False
0.1	146.904	0.249	147.153	0	PA_without_intermediate	test	ward_and_allport	71	12.0	0.249	to_board	poldrack-single-stim	s582	False
1.0	147.163	3.088	147.162	0	PA_without_intermediate	test	ward_and_allport	-1	12.0	n/a	feedback	poldrack-single-stim	s582	False
2.367	150.255	2.367	152.622	1	PA_with_intermediate	test	ward_and_allport	82	13.0	2.367	to_hand	poldrack-single-stim	s582	False
0.1	152.624	0.308	152.932	0	PA_with_intermediate	test	ward_and_allport	89	13.0	0.308	to_board	poldrack-single-stim	s582	False
0.1	152.935	0.339	153.274	0	PA_with_intermediate	test	ward_and_allport	82	13.0	0.339	to_hand	poldrack-single-stim	s582	False
0.1	153.275	0.331	153.606	0	PA_with_intermediate	test	ward_and_allport	71	13.0	0.331	to_board	poldrack-single-stim	s582	False
0.1	153.611	0.354	153.965	0	PA_with_intermediate	test	ward_and_allport	89	13.0	0.354	to_hand	poldrack-single-stim	s582	False
0.1	153.966	0.327	154.293	0	PA_with_intermediate	test	ward_and_allport	71	13.0	0.327	to_board	poldrack-single-stim	s582	False
1.0	154.302	2.0	154.301	0	PA_with_intermediate	test	ward_and_allport	-1	13.0	n/a	feedback	poldrack-single-stim	s582	False
2.531	156.306	2.531	158.837	1	PA_without_intermediate	test	ward_and_allport	89	14.0	2.531	to_hand	poldrack-single-stim	s582	False
0.1	158.839	0.285	159.124	0	PA_without_intermediate	test	ward_and_allport	71	14.0	0.285	to_board	poldrack-single-stim	s582	False
0.1	159.13	0.431	159.561	0	PA_without_intermediate	test	ward_and_allport	89	14.0	0.431	to_hand	poldrack-single-stim	s582	False
0.1	159.563	0.331	159.894	0	PA_without_intermediate	test	ward_and_allport	82	14.0	0.331	to_board	poldrack-single-stim	s582	False
0.1	159.899	0.415	160.314	0	PA_without_intermediate	test	ward_and_allport	89	14.0	0.415	to_hand	poldrack-single-stim	s582	False
0.1	160.315	0.26	160.575	0	PA_without_intermediate	test	ward_and_allport	71	14.0	0.26	to_board	poldrack-single-stim	s582	False
1.0	160.582	2.0	160.581	0	PA_without_intermediate	test	ward_and_allport	-1	14.0	n/a	feedback	poldrack-single-stim	s582	False
2.392	167.592	2.392	169.984	1	PA_without_intermediate	test	ward_and_allport	89	15.0	2.392	to_hand	poldrack-single-stim	s582	False
0.1	169.985	0.233	170.218	0	PA_without_intermediate	test	ward_and_allport	82	15.0	0.233	to_board	poldrack-single-stim	s582	False
0.1	170.224	0.241	170.465	0	PA_without_intermediate	test	ward_and_allport	89	15.0	0.241	to_hand	poldrack-single-stim	s582	False
0.1	170.466	0.271	170.737	0	PA_without_intermediate	test	ward_and_allport	82	15.0	0.271	to_board	poldrack-single-stim	s582	False
0.1	170.742	0.252	170.994	0	PA_without_intermediate	test	ward_and_allport	89	15.0	0.252	to_hand	poldrack-single-stim	s582	False
0.1	170.995	0.177	171.172	0	PA_without_intermediate	test	ward_and_allport	71	15.0	0.177	to_board	poldrack-single-stim	s582	False
1.0	171.182	2.0	171.181	0	PA_without_intermediate	test	ward_and_allport	-1	15.0	n/a	feedback	poldrack-single-stim	s582	False
3.181	173.187	3.181	176.368	1	PA_with_intermediate	test	ward_and_allport	71	16.0	3.181	to_hand	poldrack-single-stim	s582	False
0.1	176.369	0.273	176.642	0	PA_with_intermediate	test	ward_and_allport	82	16.0	0.273	to_board	poldrack-single-stim	s582	False
0.1	176.647	0.331	176.978	0	PA_with_intermediate	test	ward_and_allport	71	16.0	0.331	to_hand	poldrack-single-stim	s582	False
0.1	176.98	0.325	177.305	0	PA_with_intermediate	test	ward_and_allport	89	16.0	0.325	to_board	poldrack-single-stim	s582	False
0.1	177.312	0.476	177.788	0	PA_with_intermediate	test	ward_and_allport	82	16.0	0.476	to_hand	poldrack-single-stim	s582	False
0.1	177.789	0.306	178.095	0	PA_with_intermediate	test	ward_and_allport	71	16.0	0.306	to_board	poldrack-single-stim	s582	False
1.0	178.105	2.544	178.104	0	PA_with_intermediate	test	ward_and_allport	-1	16.0	n/a	feedback	poldrack-single-stim	s582	False
2.513	180.653	2.513	183.166	1	PA_without_intermediate	test	ward_and_allport	71	17.0	2.513	to_hand	poldrack-single-stim	s582	False
0.1	183.167	0.187	183.354	0	PA_without_intermediate	test	ward_and_allport	82	17.0	0.187	to_board	poldrack-single-stim	s582	False
0.1	183.36	0.22	183.58	0	PA_without_intermediate	test	ward_and_allport	71	17.0	0.22	to_hand	poldrack-single-stim	s582	False
0.1	183.581	0.22	183.801	0	PA_without_intermediate	test	ward_and_allport	82	17.0	0.22	to_board	poldrack-single-stim	s582	False
0.1	183.807	0.209	184.016	0	PA_without_intermediate	test	ward_and_allport	71	17.0	0.209	to_hand	poldrack-single-stim	s582	False
0.1	184.017	0.172	184.189	0	PA_without_intermediate	test	ward_and_allport	89	17.0	0.172	to_board	poldrack-single-stim	s582	False
1.0	184.196	2.272	184.195	0	PA_without_intermediate	test	ward_and_allport	-1	17.0	n/a	feedback	poldrack-single-stim	s582	False
2.457	186.473	2.457	188.93	1	PA_with_intermediate	test	ward_and_allport	89	18.0	2.457	to_hand	poldrack-single-stim	s582	False
0.1	188.932	0.188	189.12	0	PA_with_intermediate	test	ward_and_allport	82	18.0	0.188	to_board	poldrack-single-stim	s582	False
0.1	189.125	0.286	189.411	0	PA_with_intermediate	test	ward_and_allport	89	18.0	0.286	to_hand	poldrack-single-stim	s582	False
0.1	189.413	0.234	189.647	0	PA_with_intermediate	test	ward_and_allport	71	18.0	0.234	to_board	poldrack-single-stim	s582	False
0.1	189.651	0.344	189.995	0	PA_with_intermediate	test	ward_and_allport	82	18.0	0.344	to_hand	poldrack-single-stim	s582	False
0.1	189.997	0.225	190.222	0	PA_with_intermediate	test	ward_and_allport	71	18.0	0.225	to_board	poldrack-single-stim	s582	False
1.0	190.231	4.04	190.23	0	PA_with_intermediate	test	ward_and_allport	-1	18.0	n/a	feedback	poldrack-single-stim	s582	False
3.266	194.277	3.266	197.543	1	PA_with_intermediate	test	ward_and_allport	89	19.0	3.266	to_hand	poldrack-single-stim	s582	False
0.1	197.544	0.255	197.799	0	PA_with_intermediate	test	ward_and_allport	82	19.0	0.255	to_board	poldrack-single-stim	s582	False
0.1	197.805	0.237	198.042	0	PA_with_intermediate	test	ward_and_allport	89	19.0	0.237	to_hand	poldrack-single-stim	s582	False
0.1	198.043	0.29	198.333	0	PA_with_intermediate	test	ward_and_allport	71	19.0	0.29	to_board	poldrack-single-stim	s582	False
0.1	198.339	0.334	198.673	0	PA_with_intermediate	test	ward_and_allport	82	19.0	0.334	to_hand	poldrack-single-stim	s582	False
0.1	198.674	0.208	198.882	0	PA_with_intermediate	test	ward_and_allport	89	19.0	0.208	to_board	poldrack-single-stim	s582	False
1.0	198.89	2.272	198.889	0	PA_with_intermediate	test	ward_and_allport	-1	19.0	n/a	feedback	poldrack-single-stim	s582	False
2.706	201.168	2.706	203.874	1	PA_with_intermediate	test	ward_and_allport	82	20.0	2.706	to_hand	poldrack-single-stim	s582	False
0.1	203.875	0.342	204.217	0	PA_with_intermediate	test	ward_and_allport	71	20.0	0.342	to_board	poldrack-single-stim	s582	False
0.1	204.224	0.237	204.461	0	PA_with_intermediate	test	ward_and_allport	82	20.0	0.237	to_hand	poldrack-single-stim	s582	False
0.1	204.462	0.27	204.732	0	PA_with_intermediate	test	ward_and_allport	89	20.0	0.27	to_board	poldrack-single-stim	s582	False
0.1	204.738	0.673	205.411	0	PA_with_intermediate	test	ward_and_allport	71	20.0	0.673	to_hand	poldrack-single-stim	s582	False
0.1	205.413	0.232	205.645	0	PA_with_intermediate	test	ward_and_allport	82	20.0	0.232	to_board	poldrack-single-stim	s582	False
1.0	205.653	2.136	205.652	0	PA_with_intermediate	test	ward_and_allport	-1	20.0	n/a	feedback	poldrack-single-stim	s582	False
3.026	207.795	3.026	210.821	1	PA_with_intermediate	test	ward_and_allport	71	21.0	3.026	to_hand	poldrack-single-stim	s582	False
0.1	210.823	0.251	211.074	0	PA_with_intermediate	test	ward_and_allport	89	21.0	0.251	to_board	poldrack-single-stim	s582	False
0.1	211.079	0.265	211.344	0	PA_with_intermediate	test	ward_and_allport	71	21.0	0.265	to_hand	poldrack-single-stim	s582	False
0.1	211.345	0.265	211.61	0	PA_with_intermediate	test	ward_and_allport	82	21.0	0.265	to_board	poldrack-single-stim	s582	False
0.1	211.617	0.228	211.845	0	PA_with_intermediate	test	ward_and_allport	89	21.0	0.228	to_hand	poldrack-single-stim	s582	False
0.1	211.847	0.221	212.068	0	PA_with_intermediate	test	ward_and_allport	82	21.0	0.221	to_board	poldrack-single-stim	s582	False
1.0	212.079	2.0	212.078	0	PA_with_intermediate	test	ward_and_allport	-1	21.0	n/a	feedback	poldrack-single-stim	s582	False
3.211	214.085	3.211	217.296	1	PA_with_intermediate	test	ward_and_allport	89	22.0	3.211	to_hand	poldrack-single-stim	s582	False
0.1	217.298	0.189	217.487	0	PA_with_intermediate	test	ward_and_allport	71	22.0	0.189	to_board	poldrack-single-stim	s582	False
0.1	217.494	0.316	217.81	0	PA_with_intermediate	test	ward_and_allport	89	22.0	0.316	to_hand	poldrack-single-stim	s582	False
0.1	217.81	0.245	218.055	0	PA_with_intermediate	test	ward_and_allport	82	22.0	0.245	to_board	poldrack-single-stim	s582	False
0.1	218.063	0.402	218.465	0	PA_with_intermediate	test	ward_and_allport	71	22.0	0.402	to_hand	poldrack-single-stim	s582	False
0.1	218.466	0.325	218.791	0	PA_with_intermediate	test	ward_and_allport	89	22.0	0.325	to_board	poldrack-single-stim	s582	False
1.0	218.8	2.0	218.799	0	PA_with_intermediate	test	ward_and_allport	-1	22.0	n/a	feedback	poldrack-single-stim	s582	False
2.127	220.807	2.127	222.934	1	PA_without_intermediate	test	ward_and_allport	89	23.0	2.127	to_hand	poldrack-single-stim	s582	False
0.1	222.936	0.27	223.206	0	PA_without_intermediate	test	ward_and_allport	71	23.0	0.27	to_board	poldrack-single-stim	s582	False
0.1	223.214	0.239	223.453	0	PA_without_intermediate	test	ward_and_allport	89	23.0	0.239	to_hand	poldrack-single-stim	s582	False
0.1	223.454	0.235	223.689	0	PA_without_intermediate	test	ward_and_allport	71	23.0	0.235	to_board	poldrack-single-stim	s582	False
0.1	223.697	0.378	224.075	0	PA_without_intermediate	test	ward_and_allport	89	23.0	0.378	to_hand	poldrack-single-stim	s582	False
0.1	224.076	0.251	224.327	0	PA_without_intermediate	test	ward_and_allport	82	23.0	0.251	to_board	poldrack-single-stim	s582	False
1.0	224.338	2.408	224.337	0	PA_without_intermediate	test	ward_and_allport	-1	23.0	n/a	feedback	poldrack-single-stim	s582	False
1.843	226.754	1.843	228.597	1	PA_with_intermediate	test	ward_and_allport	71	24.0	1.843	to_hand	poldrack-single-stim	s582	False
0.1	228.598	0.207	228.805	0	PA_with_intermediate	test	ward_and_allport	89	24.0	0.207	to_board	poldrack-single-stim	s582	False
0.1	228.813	0.289	229.102	0	PA_with_intermediate	test	ward_and_allport	71	24.0	0.289	to_hand	poldrack-single-stim	s582	False
0.1	229.103	0.281	229.384	0	PA_with_intermediate	test	ward_and_allport	82	24.0	0.281	to_board	poldrack-single-stim	s582	False
0.1	229.392	0.234	229.626	0	PA_with_intermediate	test	ward_and_allport	89	24.0	0.234	to_hand	poldrack-single-stim	s582	False
0.1	229.627	0.263	229.89	0	PA_with_intermediate	test	ward_and_allport	82	24.0	0.263	to_board	poldrack-single-stim	s582	False
1.0	229.901	3.768	229.9	0	PA_with_intermediate	test	ward_and_allport	-1	24.0	n/a	feedback	poldrack-single-stim	s582	False
3.247	233.678	3.247	236.925	1	PA_with_intermediate	test	ward_and_allport	71	25.0	3.247	to_hand	poldrack-single-stim	s582	False
0.1	236.926	0.201	237.127	0	PA_with_intermediate	test	ward_and_allport	82	25.0	0.201	to_board	poldrack-single-stim	s582	False
0.1	237.136	0.235	237.371	0	PA_with_intermediate	test	ward_and_allport	71	25.0	0.235	to_hand	poldrack-single-stim	s582	False
0.1	237.373	0.186	237.559	0	PA_with_intermediate	test	ward_and_allport	89	25.0	0.186	to_board	poldrack-single-stim	s582	False
0.1	237.567	0.247	237.814	0	PA_with_intermediate	test	ward_and_allport	82	25.0	0.247	to_hand	poldrack-single-stim	s582	False
0.1	237.816	0.146	237.962	0	PA_with_intermediate	test	ward_and_allport	89	25.0	0.146	to_board	poldrack-single-stim	s582	False
1.0	237.974	2.68	237.973	0	PA_with_intermediate	test	ward_and_allport	-1	25.0	n/a	feedback	poldrack-single-stim	s582	False
2.425	240.662	2.425	243.087	1	PA_without_intermediate	test	ward_and_allport	89	26.0	2.425	to_hand	poldrack-single-stim	s582	False
0.1	243.089	0.186	243.275	0	PA_without_intermediate	test	ward_and_allport	82	26.0	0.186	to_board	poldrack-single-stim	s582	False
0.1	243.283	0.251	243.534	0	PA_without_intermediate	test	ward_and_allport	89	26.0	0.251	to_hand	poldrack-single-stim	s582	False
0.1	243.536	0.21	243.746	0	PA_without_intermediate	test	ward_and_allport	71	26.0	0.21	to_board	poldrack-single-stim	s582	False
0.1	243.755	0.223	243.978	0	PA_without_intermediate	test	ward_and_allport	89	26.0	0.223	to_hand	poldrack-single-stim	s582	False
0.1	243.979	0.214	244.193	0	PA_without_intermediate	test	ward_and_allport	82	26.0	0.214	to_board	poldrack-single-stim	s582	False
1.0	244.206	3.224	244.205	0	PA_without_intermediate	test	ward_and_allport	-1	26.0	n/a	feedback	poldrack-single-stim	s582	False
2.629	247.437	2.629	250.066	1	PA_without_intermediate	test	ward_and_allport	89	27.0	2.629	to_hand	poldrack-single-stim	s582	False
0.1	250.067	0.232	250.299	0	PA_without_intermediate	test	ward_and_allport	71	27.0	0.232	to_board	poldrack-single-stim	s582	False
0.1	250.307	0.239	250.546	0	PA_without_intermediate	test	ward_and_allport	89	27.0	0.239	to_hand	poldrack-single-stim	s582	False
0.1	250.547	0.248	250.795	0	PA_without_intermediate	test	ward_and_allport	82	27.0	0.248	to_board	poldrack-single-stim	s582	False
0.1	250.803	0.206	251.009	0	PA_without_intermediate	test	ward_and_allport	89	27.0	0.206	to_hand	poldrack-single-stim	s582	False
0.1	251.01	0.198	251.208	0	PA_without_intermediate	test	ward_and_allport	71	27.0	0.198	to_board	poldrack-single-stim	s582	False
1.0	251.217	3.36	251.216	0	PA_without_intermediate	test	ward_and_allport	-1	27.0	n/a	feedback	poldrack-single-stim	s582	False
2.995	254.586	2.995	257.581	1	PA_without_intermediate	test	ward_and_allport	71	28.0	2.995	to_hand	poldrack-single-stim	s582	False
0.1	257.582	0.218	257.8	0	PA_without_intermediate	test	ward_and_allport	89	28.0	0.218	to_board	poldrack-single-stim	s582	False
0.1	257.809	0.305	258.114	0	PA_without_intermediate	test	ward_and_allport	71	28.0	0.305	to_hand	poldrack-single-stim	s582	False
0.1	258.115	0.236	258.351	0	PA_without_intermediate	test	ward_and_allport	82	28.0	0.236	to_board	poldrack-single-stim	s582	False
0.1	258.36	0.392	258.752	0	PA_without_intermediate	test	ward_and_allport	71	28.0	0.392	to_hand	poldrack-single-stim	s582	False
0.1	258.753	0.21	258.963	0	PA_without_intermediate	test	ward_and_allport	89	28.0	0.21	to_board	poldrack-single-stim	s582	False
1.0	258.972	2.0	258.971	0	PA_without_intermediate	test	ward_and_allport	-1	28.0	n/a	feedback	poldrack-single-stim	s582	False
2.983	260.982	2.983	263.965	1	PA_without_intermediate	test	ward_and_allport	82	29.0	2.983	to_hand	poldrack-single-stim	s582	False
0.1	263.967	0.192	264.159	0	PA_without_intermediate	test	ward_and_allport	71	29.0	0.192	to_board	poldrack-single-stim	s582	False
0.1	264.168	0.221	264.389	0	PA_without_intermediate	test	ward_and_allport	82	29.0	0.221	to_hand	poldrack-single-stim	s582	False
0.1	264.39	0.227	264.617	0	PA_without_intermediate	test	ward_and_allport	71	29.0	0.227	to_board	poldrack-single-stim	s582	False
0.1	264.626	0.291	264.917	0	PA_without_intermediate	test	ward_and_allport	82	29.0	0.291	to_hand	poldrack-single-stim	s582	False
0.1	264.918	0.211	265.129	0	PA_without_intermediate	test	ward_and_allport	89	29.0	0.211	to_board	poldrack-single-stim	s582	False
1.0	265.139	2.408	265.138	0	PA_without_intermediate	test	ward_and_allport	-1	29.0	n/a	feedback	poldrack-single-stim	s582	False
2.652	272.56	2.652	275.212	1	PA_with_intermediate	test	ward_and_allport	71	30.0	2.652	to_hand	poldrack-single-stim	s582	False
0.1	275.213	0.061	275.274	0	PA_with_intermediate	test	ward_and_allport	89	30.0	0.061	to_board	poldrack-single-stim	s582	False
0.1	275.284	0.364	275.648	0	PA_with_intermediate	test	ward_and_allport	71	30.0	0.364	to_hand	poldrack-single-stim	s582	False
0.1	275.65	0.076	275.726	0	PA_with_intermediate	test	ward_and_allport	89	30.0	0.076	to_board	poldrack-single-stim	s582	False
0.1	275.735	3.198	278.933	0	PA_with_intermediate	test	ward_and_allport	89	30.0	3.198	to_hand	poldrack-single-stim	s582	False
0.1	278.934	0.19	279.124	0	PA_with_intermediate	test	ward_and_allport	82	30.0	0.19	to_board	poldrack-single-stim	s582	False
0.1	279.133	1.037	280.17	0	PA_with_intermediate	test	ward_and_allport	89	30.0	1.037	to_hand	poldrack-single-stim	s582	False
0.1	280.171	0.483	280.654	0	PA_with_intermediate	test	ward_and_allport	71	30.0	0.483	to_board	poldrack-single-stim	s582	False
0.1	280.665	0.447	281.112	0	PA_with_intermediate	test	ward_and_allport	82	30.0	0.447	to_hand	poldrack-single-stim	s582	False
0.1	281.113	0.191	281.304	0	PA_with_intermediate	test	ward_and_allport	89	30.0	0.191	to_board	poldrack-single-stim	s582	False
0.1	281.316	0.483	281.799	0	PA_with_intermediate	test	ward_and_allport	71	30.0	0.483	to_hand	poldrack-single-stim	s582	False
0.1	281.799	0.127	281.926	0	PA_with_intermediate	test	ward_and_allport	89	30.0	0.127	to_board	poldrack-single-stim	s582	False
1.0	281.94	2.136	281.939	0	PA_with_intermediate	test	ward_and_allport	-1	30.0	n/a	feedback	poldrack-single-stim	s582	False
2.294	284.084	2.294	286.378	1	PA_without_intermediate	test	ward_and_allport	89	31.0	2.294	to_hand	poldrack-single-stim	s582	False
0.1	286.38	0.199	286.579	0	PA_without_intermediate	test	ward_and_allport	82	31.0	0.199	to_board	poldrack-single-stim	s582	False
0.1	286.585	0.199	286.784	0	PA_without_intermediate	test	ward_and_allport	89	31.0	0.199	to_hand	poldrack-single-stim	s582	False
0.1	286.786	0.244	287.03	0	PA_without_intermediate	test	ward_and_allport	82	31.0	0.244	to_board	poldrack-single-stim	s582	False
0.1	287.037	0.211	287.248	0	PA_without_intermediate	test	ward_and_allport	89	31.0	0.211	to_hand	poldrack-single-stim	s582	False
0.1	287.249	0.175	287.424	0	PA_without_intermediate	test	ward_and_allport	71	31.0	0.175	to_board	poldrack-single-stim	s582	False
1.0	287.432	5.128	287.431	0	PA_without_intermediate	test	ward_and_allport	-1	31.0	n/a	feedback	poldrack-single-stim	s582	False
1.528	292.568	1.528	294.096	1	PA_without_intermediate	test	ward_and_allport	82	32.0	1.528	to_hand	poldrack-single-stim	s582	False
0.1	294.097	0.196	294.293	0	PA_without_intermediate	test	ward_and_allport	89	32.0	0.196	to_board	poldrack-single-stim	s582	False
0.1	294.303	0.307	294.61	0	PA_without_intermediate	test	ward_and_allport	82	32.0	0.307	to_hand	poldrack-single-stim	s582	False
0.1	294.612	0.198	294.81	0	PA_without_intermediate	test	ward_and_allport	71	32.0	0.198	to_board	poldrack-single-stim	s582	False
0.1	294.822	0.311	295.133	0	PA_without_intermediate	test	ward_and_allport	82	32.0	0.311	to_hand	poldrack-single-stim	s582	False
0.1	295.134	0.172	295.306	0	PA_without_intermediate	test	ward_and_allport	89	32.0	0.172	to_board	poldrack-single-stim	s582	False
1.0	295.321	2.136	295.32	0	PA_without_intermediate	test	ward_and_allport	-1	32.0	n/a	feedback	poldrack-single-stim	s582	False
2.294	297.467	2.294	299.761	1	PA_without_intermediate	test	ward_and_allport	89	33.0	2.294	to_hand	poldrack-single-stim	s582	False
0.1	299.762	0.181	299.943	0	PA_without_intermediate	test	ward_and_allport	71	33.0	0.181	to_board	poldrack-single-stim	s582	False
0.1	299.954	0.208	300.162	0	PA_without_intermediate	test	ward_and_allport	89	33.0	0.208	to_hand	poldrack-single-stim	s582	False
0.1	300.164	0.191	300.355	0	PA_without_intermediate	test	ward_and_allport	71	33.0	0.191	to_board	poldrack-single-stim	s582	False
0.1	300.363	0.227	300.59	0	PA_without_intermediate	test	ward_and_allport	89	33.0	0.227	to_hand	poldrack-single-stim	s582	False
0.1	300.591	0.361	300.952	0	PA_without_intermediate	test	ward_and_allport	82	33.0	0.361	to_board	poldrack-single-stim	s582	False
1.0	300.963	5.264	300.962	0	PA_without_intermediate	test	ward_and_allport	-1	33.0	n/a	feedback	poldrack-single-stim	s582	False
1.22	306.238	1.22	307.458	1	PA_with_intermediate	test	ward_and_allport	89	34.0	1.22	to_hand	poldrack-single-stim	s582	False
0.1	307.46	0.172	307.632	0	PA_with_intermediate	test	ward_and_allport	82	34.0	0.172	to_board	poldrack-single-stim	s582	False
0.1	307.641	0.175	307.816	0	PA_with_intermediate	test	ward_and_allport	89	34.0	0.175	to_hand	poldrack-single-stim	s582	False
0.1	307.817	0.207	308.024	0	PA_with_intermediate	test	ward_and_allport	82	34.0	0.207	to_board	poldrack-single-stim	s582	False
0.1	308.035	0.142	308.177	0	PA_with_intermediate	test	ward_and_allport	89	34.0	0.142	to_hand	poldrack-single-stim	s582	False
0.1	308.178	0.767	308.945	0	PA_with_intermediate	test	ward_and_allport	89	34.0	0.767	to_board	poldrack-single-stim	s582	False
0.1	308.957	1.402	310.359	0	PA_with_intermediate	test	ward_and_allport	82	34.0	1.402	to_hand	poldrack-single-stim	s582	False
0.1	310.36	0.224	310.584	0	PA_with_intermediate	test	ward_and_allport	71	34.0	0.224	to_board	poldrack-single-stim	s582	False
0.1	310.597	0.515	311.112	0	PA_with_intermediate	test	ward_and_allport	82	34.0	0.515	to_hand	poldrack-single-stim	s582	False
0.1	311.112	0.787	311.899	0	PA_with_intermediate	test	ward_and_allport	89	34.0	0.787	to_board	poldrack-single-stim	s582	False
0.1	311.907	0.72	312.627	0	PA_with_intermediate	test	ward_and_allport	71	34.0	0.72	to_hand	poldrack-single-stim	s582	False
0.1	312.628	0.202	312.83	0	PA_with_intermediate	test	ward_and_allport	82	34.0	0.202	to_board	poldrack-single-stim	s582	False
0.1	312.838	0.59	313.428	0	PA_with_intermediate	test	ward_and_allport	89	34.0	0.59	to_hand	poldrack-single-stim	s582	False
0.1	313.429	0.188	313.617	0	PA_with_intermediate	test	ward_and_allport	82	34.0	0.188	to_board	poldrack-single-stim	s582	False
1.0	313.627	4.04	313.626	0	PA_with_intermediate	test	ward_and_allport	-1	34.0	n/a	feedback	poldrack-single-stim	s582	False
2.977	317.675	2.977	320.652	1	PA_with_intermediate	test	ward_and_allport	71	35.0	2.977	to_hand	poldrack-single-stim	s582	False
0.1	320.654	0.201	320.855	0	PA_with_intermediate	test	ward_and_allport	89	35.0	0.201	to_board	poldrack-single-stim	s582	False
0.1	320.868	0.39	321.258	0	PA_with_intermediate	test	ward_and_allport	71	35.0	0.39	to_hand	poldrack-single-stim	s582	False
0.1	321.259	0.372	321.631	0	PA_with_intermediate	test	ward_and_allport	82	35.0	0.372	to_board	poldrack-single-stim	s582	False
0.1	321.644	0.233	321.877	0	PA_with_intermediate	test	ward_and_allport	89	35.0	0.233	to_hand	poldrack-single-stim	s582	False
0.1	321.879	0.177	322.056	0	PA_with_intermediate	test	ward_and_allport	71	35.0	0.177	to_board	poldrack-single-stim	s582	False
1.0	322.071	2.136	322.07	0	PA_with_intermediate	test	ward_and_allport	-1	35.0	n/a	feedback	poldrack-single-stim	s582	False
2.11	324.219	2.11	326.329	1	PA_with_intermediate	test	ward_and_allport	82	36.0	2.11	to_hand	poldrack-single-stim	s582	False
0.1	326.33	0.19	326.52	0	PA_with_intermediate	test	ward_and_allport	89	36.0	0.19	to_board	poldrack-single-stim	s582	False
0.1	326.528	0.305	326.833	0	PA_with_intermediate	test	ward_and_allport	82	36.0	0.305	to_hand	poldrack-single-stim	s582	False
0.1	326.834	0.207	327.041	0	PA_with_intermediate	test	ward_and_allport	71	36.0	0.207	to_board	poldrack-single-stim	s582	False
0.1	327.049	0.714	327.763	0	PA_with_intermediate	test	ward_and_allport	89	36.0	0.714	to_hand	poldrack-single-stim	s582	False
0.1	327.765	0.217	327.982	0	PA_with_intermediate	test	ward_and_allport	82	36.0	0.217	to_board	poldrack-single-stim	s582	False
1.0	327.995	2.408	327.994	0	PA_with_intermediate	test	ward_and_allport	-1	36.0	n/a	feedback	poldrack-single-stim	s582	False
1.875	330.411	1.875	332.286	1	PA_without_intermediate	test	ward_and_allport	71	37.0	1.875	to_hand	poldrack-single-stim	s582	False
0.1	332.287	0.215	332.502	0	PA_without_intermediate	test	ward_and_allport	89	37.0	0.215	to_board	poldrack-single-stim	s582	False
0.1	332.51	0.251	332.761	0	PA_without_intermediate	test	ward_and_allport	71	37.0	0.251	to_hand	poldrack-single-stim	s582	False
0.1	332.763	0.209	332.972	0	PA_without_intermediate	test	ward_and_allport	89	37.0	0.209	to_board	poldrack-single-stim	s582	False
0.1	332.984	0.841	333.825	0	PA_without_intermediate	test	ward_and_allport	71	37.0	0.841	to_hand	poldrack-single-stim	s582	False
0.1	333.826	0.213	334.039	0	PA_without_intermediate	test	ward_and_allport	82	37.0	0.213	to_board	poldrack-single-stim	s582	False
1.0	334.053	2.68	334.052	0	PA_without_intermediate	test	ward_and_allport	-1	37.0	n/a	feedback	poldrack-single-stim	s582	False
2.965	336.742	2.965	339.707	1	PA_with_intermediate	test	ward_and_allport	71	38.0	2.965	to_hand	poldrack-single-stim	s582	False
0.1	339.709	0.2	339.909	0	PA_with_intermediate	test	ward_and_allport	89	38.0	0.2	to_board	poldrack-single-stim	s582	False
0.1	339.917	0.29	340.207	0	PA_with_intermediate	test	ward_and_allport	71	38.0	0.29	to_hand	poldrack-single-stim	s582	False
0.1	340.208	0.254	340.462	0	PA_with_intermediate	test	ward_and_allport	82	38.0	0.254	to_board	poldrack-single-stim	s582	False
0.1	340.475	0.369	340.844	0	PA_with_intermediate	test	ward_and_allport	89	38.0	0.369	to_hand	poldrack-single-stim	s582	False
0.1	340.846	0.218	341.064	0	PA_with_intermediate	test	ward_and_allport	71	38.0	0.218	to_board	poldrack-single-stim	s582	False
1.0	341.08	4.72	341.079	0	PA_with_intermediate	test	ward_and_allport	-1	38.0	n/a	feedback	poldrack-single-stim	s582	False
1.986	345.81	1.986	347.796	1	PA_without_intermediate	test	ward_and_allport	71	39.0	1.986	to_hand	poldrack-single-stim	s582	False
0.1	347.797	0.23	348.027	0	PA_without_intermediate	test	ward_and_allport	82	39.0	0.23	to_board	poldrack-single-stim	s582	False
0.1	348.039	0.233	348.272	0	PA_without_intermediate	test	ward_and_allport	71	39.0	0.233	to_hand	poldrack-single-stim	s582	False
0.1	348.273	0.204	348.477	0	PA_without_intermediate	test	ward_and_allport	89	39.0	0.204	to_board	poldrack-single-stim	s582	False
0.1	348.49	0.483	348.973	0	PA_without_intermediate	test	ward_and_allport	71	39.0	0.483	to_hand	poldrack-single-stim	s582	False
0.1	348.973	0.197	349.17	0	PA_without_intermediate	test	ward_and_allport	82	39.0	0.197	to_board	poldrack-single-stim	s582	False
1.0	349.18	3.224	349.179	0	PA_without_intermediate	test	ward_and_allport	-1	39.0	n/a	feedback	poldrack-single-stim	s582	False
1.491	352.413	1.491	353.904	1	PA_without_intermediate	test	ward_and_allport	82	40.0	1.491	to_hand	poldrack-single-stim	s582	False
0.1	353.905	0.27	354.175	0	PA_without_intermediate	test	ward_and_allport	71	40.0	0.27	to_board	poldrack-single-stim	s582	False
0.1	354.186	0.217	354.403	0	PA_without_intermediate	test	ward_and_allport	82	40.0	0.217	to_hand	poldrack-single-stim	s582	False
0.1	354.403	0.213	354.616	0	PA_without_intermediate	test	ward_and_allport	71	40.0	0.213	to_board	poldrack-single-stim	s582	False
0.1	354.628	0.334	354.962	0	PA_without_intermediate	test	ward_and_allport	82	40.0	0.334	to_hand	poldrack-single-stim	s582	False
0.1	354.963	0.19	355.153	0	PA_without_intermediate	test	ward_and_allport	89	40.0	0.19	to_board	poldrack-single-stim	s582	False
1.0	355.164	2.272	355.163	0	PA_without_intermediate	test	ward_and_allport	-1	40.0	n/a	feedback	poldrack-single-stim	s582	False
2.8	357.445	2.8	360.245	1	PA_with_intermediate	test	ward_and_allport	89	41.0	2.8	to_hand	poldrack-single-stim	s582	False
0.1	360.246	0.175	360.421	0	PA_with_intermediate	test	ward_and_allport	71	41.0	0.175	to_board	poldrack-single-stim	s582	False
0.1	360.43	0.21	360.64	0	PA_with_intermediate	test	ward_and_allport	89	41.0	0.21	to_hand	poldrack-single-stim	s582	False
0.1	360.641	0.234	360.875	0	PA_with_intermediate	test	ward_and_allport	82	41.0	0.234	to_board	poldrack-single-stim	s582	False
0.1	360.887	1.046	361.933	0	PA_with_intermediate	test	ward_and_allport	71	41.0	1.046	to_hand	poldrack-single-stim	s582	False
0.1	361.935	0.408	362.343	0	PA_with_intermediate	test	ward_and_allport	82	41.0	0.408	to_board	poldrack-single-stim	s582	False
1.0	362.356	3.632	362.355	0	PA_with_intermediate	test	ward_and_allport	-1	41.0	n/a	feedback	poldrack-single-stim	s582	False
1.213	365.997	1.213	367.21	1	PA_without_intermediate	test	ward_and_allport	89	42.0	1.213	to_hand	poldrack-single-stim	s582	False
0.1	367.212	0.269	367.481	0	PA_without_intermediate	test	ward_and_allport	82	42.0	0.269	to_board	poldrack-single-stim	s582	False
0.1	367.494	0.252	367.746	0	PA_without_intermediate	test	ward_and_allport	89	42.0	0.252	to_hand	poldrack-single-stim	s582	False
0.1	367.747	0.228	367.975	0	PA_without_intermediate	test	ward_and_allport	71	42.0	0.228	to_board	poldrack-single-stim	s582	False
0.1	367.988	0.252	368.24	0	PA_without_intermediate	test	ward_and_allport	89	42.0	0.252	to_hand	poldrack-single-stim	s582	False
0.1	368.24	0.218	368.458	0	PA_without_intermediate	test	ward_and_allport	82	42.0	0.218	to_board	poldrack-single-stim	s582	False
1.0	368.471	2.408	368.47	0	PA_without_intermediate	test	ward_and_allport	-1	42.0	n/a	feedback	poldrack-single-stim	s582	False
1.888	370.889	1.888	372.777	1	PA_without_intermediate	test	ward_and_allport	71	43.0	1.888	to_hand	poldrack-single-stim	s582	False
0.1	372.778	0.172	372.95	0	PA_without_intermediate	test	ward_and_allport	89	43.0	0.172	to_board	poldrack-single-stim	s582	False
0.1	372.96	0.243	373.203	0	PA_without_intermediate	test	ward_and_allport	71	43.0	0.243	to_hand	poldrack-single-stim	s582	False
0.1	373.205	0.227	373.432	0	PA_without_intermediate	test	ward_and_allport	82	43.0	0.227	to_board	poldrack-single-stim	s582	False
0.1	373.441	0.372	373.813	0	PA_without_intermediate	test	ward_and_allport	71	43.0	0.372	to_hand	poldrack-single-stim	s582	False
0.1	373.815	0.166	373.981	0	PA_without_intermediate	test	ward_and_allport	89	43.0	0.166	to_board	poldrack-single-stim	s582	False
1.0	373.992	2.0	373.991	0	PA_without_intermediate	test	ward_and_allport	-1	43.0	n/a	feedback	poldrack-single-stim	s582	False
3.846	376.001	3.846	379.847	1	PA_with_intermediate	test	ward_and_allport	89	44.0	3.846	to_hand	poldrack-single-stim	s582	False
0.1	379.848	0.379	380.227	0	PA_with_intermediate	test	ward_and_allport	71	44.0	0.379	to_board	poldrack-single-stim	s582	False
0.1	380.237	0.252	380.489	0	PA_with_intermediate	test	ward_and_allport	89	44.0	0.252	to_hand	poldrack-single-stim	s582	False
0.1	380.489	0.264	380.753	0	PA_with_intermediate	test	ward_and_allport	82	44.0	0.264	to_board	poldrack-single-stim	s582	False
0.1	380.766	0.381	381.147	0	PA_with_intermediate	test	ward_and_allport	71	44.0	0.381	to_hand	poldrack-single-stim	s582	False
0.1	381.148	0.2	381.348	0	PA_with_intermediate	test	ward_and_allport	89	44.0	0.2	to_board	poldrack-single-stim	s582	False
1.0	381.365	2.0	381.364	0	PA_with_intermediate	test	ward_and_allport	-1	44.0	n/a	feedback	poldrack-single-stim	s582	False
2.139	388.378	2.139	390.517	1	PA_with_intermediate	test	ward_and_allport	82	45.0	2.139	to_hand	poldrack-single-stim	s582	False
0.1	390.519	0.252	390.771	0	PA_with_intermediate	test	ward_and_allport	71	45.0	0.252	to_board	poldrack-single-stim	s582	False
0.1	390.785	0.337	391.122	0	PA_with_intermediate	test	ward_and_allport	82	45.0	0.337	to_hand	poldrack-single-stim	s582	False
0.1	391.124	0.174	391.298	0	PA_with_intermediate	test	ward_and_allport	89	45.0	0.174	to_board	poldrack-single-stim	s582	False
0.1	391.313	0.402	391.715	0	PA_with_intermediate	test	ward_and_allport	71	45.0	0.402	to_hand	poldrack-single-stim	s582	False
0.1	391.716	0.189	391.905	0	PA_with_intermediate	test	ward_and_allport	82	45.0	0.189	to_board	poldrack-single-stim	s582	False
1.0	391.923	2.0	391.922	0	PA_with_intermediate	test	ward_and_allport	-1	45.0	n/a	feedback	poldrack-single-stim	s582	False
1.805	393.935	1.805	395.74	1	PA_with_intermediate	test	ward_and_allport	82	46.0	1.805	to_hand	poldrack-single-stim	s582	False
0.1	395.741	0.161	395.902	0	PA_with_intermediate	test	ward_and_allport	89	46.0	0.161	to_board	poldrack-single-stim	s582	False
0.1	395.913	0.278	396.191	0	PA_with_intermediate	test	ward_and_allport	82	46.0	0.278	to_hand	poldrack-single-stim	s582	False
0.1	396.192	0.191	396.383	0	PA_with_intermediate	test	ward_and_allport	71	46.0	0.191	to_board	poldrack-single-stim	s582	False
0.1	396.393	0.301	396.694	0	PA_with_intermediate	test	ward_and_allport	89	46.0	0.301	to_hand	poldrack-single-stim	s582	False
0.1	396.695	0.179	396.874	0	PA_with_intermediate	test	ward_and_allport	71	46.0	0.179	to_board	poldrack-single-stim	s582	False
1.0	396.888	2.408	396.887	0	PA_with_intermediate	test	ward_and_allport	-1	46.0	n/a	feedback	poldrack-single-stim	s582	False
2.08	399.305	2.08	401.385	1	PA_without_intermediate	test	ward_and_allport	71	47.0	2.08	to_hand	poldrack-single-stim	s582	False
0.1	401.386	0.191	401.577	0	PA_without_intermediate	test	ward_and_allport	82	47.0	0.191	to_board	poldrack-single-stim	s582	False
0.1	401.587	0.259	401.846	0	PA_without_intermediate	test	ward_and_allport	71	47.0	0.259	to_hand	poldrack-single-stim	s582	False
0.1	401.848	0.183	402.031	0	PA_without_intermediate	test	ward_and_allport	89	47.0	0.183	to_board	poldrack-single-stim	s582	False
0.1	402.042	0.34	402.382	0	PA_without_intermediate	test	ward_and_allport	71	47.0	0.34	to_hand	poldrack-single-stim	s582	False
0.1	402.383	0.205	402.588	0	PA_without_intermediate	test	ward_and_allport	82	47.0	0.205	to_board	poldrack-single-stim	s582	False
1.0	402.598	2.816	402.597	0	PA_without_intermediate	test	ward_and_allport	-1	47.0	n/a	feedback	poldrack-single-stim	s582	False
