onset	duration	movement_onset	EV	action	block_duration	experiment_exp_id	gain_amount	gain_probability	key_press	loss_amount	loss_probability	num_cards	num_click_in_round	num_loss_cards	risk	response_time	total_cards	trial_id	trial_type	worker_id	junk	feedback
3.01	4.164	7.174	-1.52899901024901	draw_card	4.164	columbia_card_task_fmri	12.0	0.8333333333333334	89.0	-70.0	0.1666666666666666	6.0	1.0	1.0	-0.7149988098372013	4.164	n/a	stim	poldrack-single-stim	s582	False	1
7.178	0.434	7.612	-4.262332343582343	draw_card	0.434	columbia_card_task_fmri	12.0	0.8	89.0	-70.0	0.2	6.0	2.0	1.0	1.5253843173404142	0.434	n/a	stim	poldrack-single-stim	s582	False	1
7.613	1.193	8.806	-8.362332343582343	end_round	1.193	columbia_card_task_fmri	12.0	0.75	71.0	-70.0	0.25	6.0	3.0	1.0	4.232403846528424	1.193	2.0	stim	poldrack-single-stim	s582	False	1
9.559	1.5	8.808	n/a	-1.0	2.318	columbia_card_task_fmri	n/a	n/a	-1.0	n/a	n/a	n/a	n/a	n/a	n/a	n/a	n/a	ITI	poldrack-single-stim	s582	False	0
11.129	2.103	13.232	-0.6956656769156763	draw_card	2.103	columbia_card_task_fmri	14.0	0.8333333333333334	89.0	-75.0	0.1666666666666666	6.0	1.0	1.0	1.8937227752396983	2.103	1.0	stim	poldrack-single-stim	s582	False	0
13.986	1.5	13.235	n/a	-1.0	2.318	columbia_card_task_fmri	n/a	n/a	-1.0	n/a	n/a	n/a	n/a	n/a	n/a	n/a	n/a	ITI	poldrack-single-stim	s582	False	0
15.555	1.741	17.296	0.9710009897509898	draw_card	1.741	columbia_card_task_fmri	15.0	0.8333333333333334	89.0	-70.0	0.1666666666666666	6.0	1.0	1.0	0.403024234758881	1.741	n/a	stim	poldrack-single-stim	s582	False	1
17.297	0.425	17.722	-1.862332343582344	draw_card	0.425	columbia_card_task_fmri	15.0	0.8	89.0	-70.0	0.2	6.0	2.0	1.0	2.725374120707375	0.425	n/a	stim	poldrack-single-stim	s582	False	1
17.724	0.492	18.216	-6.112332343582344	end_round	0.492	columbia_card_task_fmri	15.0	0.75	71.0	-70.0	0.25	6.0	3.0	1.0	5.531432532941334	0.492	2.0	stim	poldrack-single-stim	s582	False	1
18.969	1.5	18.218	n/a	-1.0	2.862	columbia_card_task_fmri	n/a	n/a	-1.0	n/a	n/a	n/a	n/a	n/a	n/a	n/a	n/a	ITI	poldrack-single-stim	s582	False	0
21.083	2.035	23.118	1.804334323084324	draw_card	2.035	columbia_card_task_fmri	17.0	0.8333333333333334	89.0	-75.0	0.1666666666666666	6.0	1.0	1.0	3.0117474478050745	2.035	n/a	stim	poldrack-single-stim	s582	False	1
23.12	0.799	23.919	-1.2623323435823426	end_round	0.799	columbia_card_task_fmri	17.0	0.8	71.0	-75.0	0.2	6.0	2.0	1.0	5.525352914637185	0.799	1.0	stim	poldrack-single-stim	s582	False	1
24.672	1.5	23.921	n/a	-1.0	2.726	columbia_card_task_fmri	n/a	n/a	-1.0	n/a	n/a	n/a	n/a	n/a	n/a	n/a	n/a	ITI	poldrack-single-stim	s582	False	0
26.649	1.856	28.505	3.137667656417656	draw_card	1.856	columbia_card_task_fmri	24.0	0.75	89.0	-60.0	0.25	8.0	1.0	2.0	5.098422896048444	1.856	1.0	stim	poldrack-single-stim	s582	False	0
29.261	1.5	28.51	n/a	-1.0	2.25	columbia_card_task_fmri	n/a	n/a	-1.0	n/a	n/a	n/a	n/a	n/a	n/a	n/a	n/a	ITI	poldrack-single-stim	s582	False	0
30.763	1.825	32.588	3.137667656417656	draw_card	1.825	columbia_card_task_fmri	29.0	0.75	89.0	-75.0	0.25	8.0	1.0	2.0	13.7586268328517	1.825	n/a	stim	poldrack-single-stim	s582	False	1
32.591	1.065	33.656	-0.5766180578680559	end_round	1.065	columbia_card_task_fmri	29.0	0.7142857142857143	71.0	-75.0	0.2857142857142857	8.0	2.0	2.0	15.707708057550274	1.065	1.0	stim	poldrack-single-stim	s582	False	1
34.411	1.5	33.66	n/a	-1.0	2.318	columbia_card_task_fmri	n/a	n/a	-1.0	n/a	n/a	n/a	n/a	n/a	n/a	n/a	n/a	ITI	poldrack-single-stim	s582	False	0
35.981	2.451	38.432	-1.0845545658045637	draw_card	2.451	columbia_card_task_fmri	17.0	0.7777777777777778	89.0	-65.0	0.2222222222222222	9.0	1.0	2.0	2.816029570154843	2.451	n/a	stim	poldrack-single-stim	s582	False	1
38.433	0.453	38.886	-3.362332343582344	draw_card	0.453	columbia_card_task_fmri	17.0	0.75	89.0	-65.0	0.25	9.0	2.0	2.0	4.232403846528424	0.453	2.0	stim	poldrack-single-stim	s582	False	0
39.641	1.5	38.89	n/a	-1.0	2.454	columbia_card_task_fmri	n/a	n/a	-1.0	n/a	n/a	n/a	n/a	n/a	n/a	n/a	n/a	ITI	poldrack-single-stim	s582	False	0
41.346	2.061	43.407	3.2376676564176554	draw_card	2.061	columbia_card_task_fmri	14.0	0.9	89.0	-95.0	0.1	10.0	1.0	1.0	1.4253852008402852	2.061	n/a	stim	poldrack-single-stim	s582	False	1
43.409	1.09	44.499	2.0265565453065437	draw_card	1.09	columbia_card_task_fmri	14.0	0.8888888888888888	89.0	-95.0	0.1111111111111111	10.0	2.0	1.0	2.980767220247412	1.09	2.0	stim	poldrack-single-stim	s582	False	0
45.254	1.5	44.503	n/a	-1.0	2.522	columbia_card_task_fmri	n/a	n/a	-1.0	n/a	n/a	n/a	n/a	n/a	n/a	n/a	n/a	ITI	poldrack-single-stim	s582	False	0
47.029	2.117	49.146	-0.8623323435823441	draw_card	2.117	columbia_card_task_fmri	15.0	0.8	89.0	-65.0	0.2	10.0	1.0	2.0	0.7253915399497579	2.117	n/a	stim	poldrack-single-stim	s582	False	1
49.148	0.396	49.544	-2.640110121360121	draw_card	0.396	columbia_card_task_fmri	15.0	0.7777777777777778	89.0	-65.0	0.2222222222222222	10.0	2.0	2.0	1.9845571000434925	0.396	n/a	stim	poldrack-single-stim	s582	False	1
49.546	1.655	51.201	-4.862332343582344	draw_card	1.655	columbia_card_task_fmri	15.0	0.75	89.0	-65.0	0.25	10.0	3.0	2.0	3.3663851147179606	1.655	n/a	stim	poldrack-single-stim	s582	False	1
51.203	0.676	51.879	-7.719475200725198	end_round	0.676	columbia_card_task_fmri	15.0	0.7142857142857143	71.0	-65.0	0.2857142857142857	10.0	4.0	2.0	4.865673731144323	0.676	3.0	stim	poldrack-single-stim	s582	False	1
52.633	1.5	51.882	n/a	-1.0	2.318	columbia_card_task_fmri	n/a	n/a	-1.0	n/a	n/a	n/a	n/a	n/a	n/a	n/a	n/a	ITI	poldrack-single-stim	s582	False	0
54.203	1.539	55.742	0.7376676564176573	draw_card	1.539	columbia_card_task_fmri	17.0	0.8	89.0	-65.0	0.2	10.0	1.0	2.0	1.5253843173404142	1.539	n/a	stim	poldrack-single-stim	s582	False	1
55.744	0.407	56.151	-1.0845545658045637	draw_card	0.407	columbia_card_task_fmri	17.0	0.7777777777777778	89.0	-65.0	0.2222222222222222	10.0	2.0	2.0	2.816029570154843	0.407	2.0	stim	poldrack-single-stim	s582	False	0
56.903	1.5	56.152	n/a	-1.0	2.522	columbia_card_task_fmri	n/a	n/a	-1.0	n/a	n/a	n/a	n/a	n/a	n/a	n/a	n/a	ITI	poldrack-single-stim	s582	False	0
58.677	2.459	61.136	-0.6956656769156763	draw_card	2.459	columbia_card_task_fmri	13.0	0.8333333333333334	89.0	-70.0	0.1666666666666666	12.0	1.0	2.0	-0.3423245495420559	2.459	n/a	stim	poldrack-single-stim	s582	False	1
61.138	0.61	61.748	-1.9532414344914373	end_round	0.61	columbia_card_task_fmri	13.0	0.8181818181818181	71.0	-70.0	0.1818181818181818	12.0	2.0	2.0	0.7380438802652414	0.61	1.0	stim	poldrack-single-stim	s582	False	1
62.502	1.5	61.751	n/a	-1.0	2.998	columbia_card_task_fmri	n/a	n/a	-1.0	n/a	n/a	n/a	n/a	n/a	n/a	n/a	n/a	ITI	poldrack-single-stim	s582	False	0
64.752	1.855	66.607	-0.6956656769156763	draw_card	1.855	columbia_card_task_fmri	15.0	0.8333333333333334	89.0	-80.0	0.1666666666666666	12.0	1.0	2.0	4.129772708754157	1.855	1.0	stim	poldrack-single-stim	s582	False	0
67.363	1.5	66.612	n/a	-1.0	2.318	columbia_card_task_fmri	n/a	n/a	-1.0	n/a	n/a	n/a	n/a	n/a	n/a	n/a	n/a	ITI	poldrack-single-stim	s582	False	0
68.933	2.353	71.286	-1.662332343582343	draw_card	2.353	columbia_card_task_fmri	14.0	0.8	89.0	-65.0	0.2	15.0	1.0	3.0	0.3253952883906592	2.353	n/a	stim	poldrack-single-stim	s582	False	1
71.287	0.392	71.679	-2.7909037721537717	draw_card	0.392	columbia_card_task_fmri	14.0	0.7857142857142857	89.0	-65.0	0.2142857142857142	15.0	2.0	3.0	1.1411341045975654	0.392	n/a	stim	poldrack-single-stim	s582	False	1
71.68	0.631	72.311	-4.093101574351576	draw_card	0.631	columbia_card_task_fmri	14.0	0.7692307692307692	89.0	-65.0	0.2307692307692307	15.0	3.0	3.0	2.010058604970208	0.631	n/a	stim	poldrack-single-stim	s582	False	1
72.312	0.628	72.94	-5.612332343582344	draw_card	0.628	columbia_card_task_fmri	14.0	0.75	89.0	-65.0	0.25	15.0	4.0	3.0	2.93337587549426	0.628	n/a	stim	poldrack-single-stim	s582	False	1
72.941	0.634	73.575	-7.407786889036889	end_round	0.634	columbia_card_task_fmri	14.0	0.7272727272727273	71.0	-65.0	0.2727272727272727	15.0	5.0	3.0	3.908944686723732	0.634	4.0	stim	poldrack-single-stim	s582	False	1
74.328	1.5	73.577	n/a	-1.0	2.25	columbia_card_task_fmri	n/a	n/a	-1.0	n/a	n/a	n/a	n/a	n/a	n/a	n/a	n/a	ITI	poldrack-single-stim	s582	False	0
75.83	2.754	78.584	-1.737332343582344	end_round	2.754	columbia_card_task_fmri	1.0	0.9375	71.0	-45.0	0.0625	16.0	1.0	1.0	-20.139226461081204	2.754	0.0	stim	poldrack-single-stim	s582	False	1
79.34	1.5	78.589	n/a	-1.0	2.454	columbia_card_task_fmri	n/a	n/a	-1.0	n/a	n/a	n/a	n/a	n/a	n/a	n/a	n/a	ITI	poldrack-single-stim	s582	False	0
81.046	1.486	82.532	-0.7998323435823441	draw_card	1.486	columbia_card_task_fmri	15.0	0.8125	89.0	-70.0	0.1875	16.0	1.0	3.0	1.9019329047830773	1.486	n/a	stim	poldrack-single-stim	s582	False	1
82.534	0.514	83.048	-1.862332343582344	draw_card	0.514	columbia_card_task_fmri	15.0	0.8	89.0	-70.0	0.2	16.0	2.0	3.0	2.725374120707375	0.514	n/a	stim	poldrack-single-stim	s582	False	1
83.051	0.711	83.762	-3.0766180578680595	end_round	0.711	columbia_card_task_fmri	15.0	0.7857142857142857	71.0	-70.0	0.2142857142857142	16.0	3.0	3.0	3.603068889532981	0.711	2.0	stim	poldrack-single-stim	s582	False	1
84.515	1.5	83.764	n/a	-1.0	2.318	columbia_card_task_fmri	n/a	n/a	-1.0	n/a	n/a	n/a	n/a	n/a	n/a	n/a	n/a	ITI	poldrack-single-stim	s582	False	0
86.085	2.052	88.137	6.137667656417656	draw_card	2.052	columbia_card_task_fmri	30.0	0.7	89.0	-50.0	0.3	10.0	1.0	3.0	5.385959453384391	2.052	n/a	stim	poldrack-single-stim	s582	False	1
88.14	0.474	88.614	3.471000989750995	draw_card	0.474	columbia_card_task_fmri	30.0	0.6666666666666667	89.0	-50.0	0.3333333333333333	10.0	2.0	3.0	6.437708348252134	0.474	2.0	stim	poldrack-single-stim	s582	False	0
89.37	1.5	88.619	n/a	-1.0	2.318	columbia_card_task_fmri	n/a	n/a	-1.0	n/a	n/a	n/a	n/a	n/a	n/a	n/a	n/a	ITI	poldrack-single-stim	s582	False	0
90.94	1.603	92.543	5.537667656417656	draw_card	1.603	columbia_card_task_fmri	17.0	0.8666666666666667	89.0	-70.0	0.1333333333333333	15.0	1.0	2.0	-1.7002709928969502	1.603	n/a	stim	poldrack-single-stim	s582	False	1
92.546	0.354	92.9	4.709096227846229	draw_card	0.354	columbia_card_task_fmri	17.0	0.8571428571428572	89.0	-70.0	0.1428571428571428	15.0	2.0	2.0	-0.8309350897184125	0.354	n/a	stim	poldrack-single-stim	s582	False	1
92.903	0.411	93.314	3.753052271802271	draw_card	0.411	columbia_card_task_fmri	17.0	0.8461538461538461	89.0	-70.0	0.1538461538461538	15.0	3.0	2.0	0.1151027669844104	0.411	3.0	stim	poldrack-single-stim	s582	False	0
94.066	1.5	93.315	n/a	-1.0	2.59	columbia_card_task_fmri	n/a	n/a	-1.0	n/a	n/a	n/a	n/a	n/a	n/a	n/a	n/a	ITI	poldrack-single-stim	s582	False	0
95.908	2.069	97.977	0.7626676564176559	end_round	2.069	columbia_card_task_fmri	7.0	0.9375	71.0	-95.0	0.0625	16.0	1.0	1.0	-6.584251957886082	2.069	0.0	stim	poldrack-single-stim	s582	False	1
98.731	1.5	97.98	n/a	-1.0	2.25	columbia_card_task_fmri	n/a	n/a	-1.0	n/a	n/a	n/a	n/a	n/a	n/a	n/a	n/a	ITI	poldrack-single-stim	s582	False	0
100.235	2.992	103.227	2.325167656417656	end_round	2.992	columbia_card_task_fmri	9.0	0.9375	71.0	-100.0	0.0625	16.0	1.0	1.0	-4.889846391261493	2.992	0.0	stim	poldrack-single-stim	s582	False	1
103.982	1.5	103.231	n/a	-1.0	2.25	columbia_card_task_fmri	n/a	n/a	-1.0	n/a	n/a	n/a	n/a	n/a	n/a	n/a	n/a	ITI	poldrack-single-stim	s582	False	0
105.483	2.083	107.566	3.262667656417656	draw_card	2.083	columbia_card_task_fmri	15.0	0.875	89.0	-80.0	0.125	16.0	1.0	2.0	0.1436938415675435	2.083	n/a	stim	poldrack-single-stim	s582	False	1
107.568	0.37	107.938	2.4710009897509897	draw_card	0.37	columbia_card_task_fmri	15.0	0.8666666666666667	89.0	-80.0	0.1333333333333333	16.0	2.0	2.0	1.0191790987123603	0.37	n/a	stim	poldrack-single-stim	s582	False	1
107.942	0.641	108.583	1.5662390849890866	draw_card	0.641	columbia_card_task_fmri	15.0	0.8571428571428572	89.0	-80.0	0.1428571428571428	16.0	3.0	2.0	1.9684555473509453	0.641	n/a	stim	poldrack-single-stim	s582	False	1
108.586	0.728	109.314	0.5222830410330391	end_round	0.728	columbia_card_task_fmri	15.0	0.8461538461538461	71.0	-80.0	0.1538461538461538	16.0	4.0	2.0	3.001487043482623	0.728	3.0	stim	poldrack-single-stim	s582	False	1
110.07	1.5	109.319	n/a	-1.0	2.522	columbia_card_task_fmri	n/a	n/a	-1.0	n/a	n/a	n/a	n/a	n/a	n/a	n/a	n/a	ITI	poldrack-single-stim	s582	False	0
111.845	3.589	115.434	5.387667656417656	draw_card	3.589	columbia_card_task_fmri	16.0	0.875	89.0	-70.0	0.125	16.0	1.0	2.0	-2.832744819649246	3.589	1.0	stim	poldrack-single-stim	s582	False	0
116.189	1.5	115.438	n/a	-1.0	2.454	columbia_card_task_fmri	n/a	n/a	-1.0	n/a	n/a	n/a	n/a	n/a	n/a	n/a	n/a	ITI	poldrack-single-stim	s582	False	0
117.896	1.487	119.383	6.700167656417656	draw_card	1.487	columbia_card_task_fmri	30.0	0.6875	89.0	-45.0	0.3125	16.0	1.0	5.0	3.4887984083325883	1.487	n/a	stim	poldrack-single-stim	s582	False	1
119.385	0.422	119.807	5.137667656417659	draw_card	0.422	columbia_card_task_fmri	30.0	0.6666666666666667	89.0	-45.0	0.3333333333333333	16.0	2.0	5.0	4.080702495816869	0.422	2.0	stim	poldrack-single-stim	s582	False	0
120.564	1.5	119.813	n/a	-1.0	2.25	columbia_card_task_fmri	n/a	n/a	-1.0	n/a	n/a	n/a	n/a	n/a	n/a	n/a	n/a	ITI	poldrack-single-stim	s582	False	0
122.066	1.744	123.81	-1.52899901024901	draw_card	1.744	columbia_card_task_fmri	13.0	0.8333333333333334	89.0	-75.0	0.1666666666666666	6.0	1.0	1.0	1.521048025537052	1.744	n/a	stim	poldrack-single-stim	s582	False	1
123.813	0.613	124.426	-4.462332343582344	draw_card	0.613	columbia_card_task_fmri	13.0	0.8	89.0	-75.0	0.2	6.0	2.0	1.0	3.9253646192910416	0.613	n/a	stim	poldrack-single-stim	s582	False	1
124.428	0.643	125.071	-8.862332343582343	end_round	0.643	columbia_card_task_fmri	13.0	0.75	71.0	-75.0	0.25	6.0	3.0	1.0	6.83046186157026	0.643	2.0	stim	poldrack-single-stim	s582	False	1
125.826	1.5	125.075	n/a	-1.0	2.454	columbia_card_task_fmri	n/a	n/a	-1.0	n/a	n/a	n/a	n/a	n/a	n/a	n/a	n/a	ITI	poldrack-single-stim	s582	False	0
127.533	1.717	129.25	0.1376676564176576	draw_card	1.717	columbia_card_task_fmri	14.0	0.8333333333333334	89.0	-70.0	0.1666666666666666	6.0	1.0	1.0	0.0303497997030888	1.717	n/a	stim	poldrack-single-stim	s582	False	1
129.253	0.509	129.762	-2.662332343582343	end_round	0.509	columbia_card_task_fmri	14.0	0.8	71.0	-70.0	0.2	6.0	2.0	1.0	2.3253774386604142	0.509	1.0	stim	poldrack-single-stim	s582	False	1
130.515	1.5	129.764	n/a	-1.0	2.454	columbia_card_task_fmri	n/a	n/a	-1.0	n/a	n/a	n/a	n/a	n/a	n/a	n/a	n/a	ITI	poldrack-single-stim	s582	False	0
132.221	2.065	134.286	0.1376676564176576	end_round	2.065	columbia_card_task_fmri	16.0	0.8333333333333334	71.0	-80.0	0.1666666666666666	6.0	1.0	1.0	4.502447916955273	2.065	0.0	stim	poldrack-single-stim	s582	False	1
135.039	1.5	134.288	n/a	-1.0	2.522	columbia_card_task_fmri	n/a	n/a	-1.0	n/a	n/a	n/a	n/a	n/a	n/a	n/a	n/a	ITI	poldrack-single-stim	s582	False	0
136.813	1.293	138.106	2.637667656417657	draw_card	1.293	columbia_card_task_fmri	17.0	0.8333333333333334	89.0	-70.0	0.1666666666666666	6.0	1.0	1.0	1.1483733504666738	1.293	n/a	stim	poldrack-single-stim	s582	False	1
138.108	0.582	138.69	-0.2623323435823427	end_round	0.582	columbia_card_task_fmri	17.0	0.8	71.0	-70.0	0.2	6.0	2.0	1.0	3.525367713622888	0.582	1.0	stim	poldrack-single-stim	s582	False	1
139.443	1.5	138.692	n/a	-1.0	2.454	columbia_card_task_fmri	n/a	n/a	-1.0	n/a	n/a	n/a	n/a	n/a	n/a	n/a	n/a	ITI	poldrack-single-stim	s582	False	0
141.149	1.521	142.67	2.637667656417656	draw_card	1.521	columbia_card_task_fmri	25.0	0.75	89.0	-65.0	0.25	8.0	1.0	2.0	7.696481739062253	1.521	n/a	stim	poldrack-single-stim	s582	False	1
142.673	0.461	143.134	-0.5766180578680559	end_round	0.461	columbia_card_task_fmri	25.0	0.7142857142857143	71.0	-65.0	0.2857142857142857	8.0	2.0	2.0	9.383184112002647	0.461	1.0	stim	poldrack-single-stim	s582	False	1
143.891	1.5	143.14	n/a	-1.0	2.658	columbia_card_task_fmri	n/a	n/a	-1.0	n/a	n/a	n/a	n/a	n/a	n/a	n/a	n/a	ITI	poldrack-single-stim	s582	False	0
145.801	2.543	148.344	2.637667656417656	draw_card	2.543	columbia_card_task_fmri	30.0	0.75	89.0	-80.0	0.25	8.0	1.0	2.0	16.35669156648697	2.543	n/a	stim	poldrack-single-stim	s582	False	1
148.346	0.421	148.767	-1.2909037721537675	end_round	0.421	columbia_card_task_fmri	30.0	0.7142857142857143	71.0	-80.0	0.2857142857142857	8.0	2.0	2.0	18.418220764701207	0.421	1.0	stim	poldrack-single-stim	s582	False	1
149.522	1.5	148.771	n/a	-1.0	2.386	columbia_card_task_fmri	n/a	n/a	-1.0	n/a	n/a	n/a	n/a	n/a	n/a	n/a	n/a	ITI	poldrack-single-stim	s582	False	0
151.161	1.504	152.665	2.337667656417657	end_round	1.504	columbia_card_task_fmri	13.0	0.9	71.0	-95.0	0.1	10.0	1.0	1.0	1.1253878840616771	1.504	0.0	stim	poldrack-single-stim	s582	False	1
153.418	1.5	152.667	n/a	-1.0	2.522	columbia_card_task_fmri	n/a	n/a	-1.0	n/a	n/a	n/a	n/a	n/a	n/a	n/a	n/a	ITI	poldrack-single-stim	s582	False	0
155.192	1.624	156.816	3.737667656417656	draw_card	1.624	columbia_card_task_fmri	14.0	0.9	89.0	-90.0	0.1	10.0	1.0	1.0	-0.0746008670559525	1.624	n/a	stim	poldrack-single-stim	s582	False	1
156.819	0.489	157.308	2.582112100862098	end_round	0.489	columbia_card_task_fmri	14.0	0.8888888888888888	71.0	-90.0	0.1111111111111111	10.0	2.0	1.0	1.409432117131903	0.489	1.0	stim	poldrack-single-stim	s582	False	1
158.065	1.5	157.314	n/a	-1.0	2.59	columbia_card_task_fmri	n/a	n/a	-1.0	n/a	n/a	n/a	n/a	n/a	n/a	n/a	n/a	ITI	poldrack-single-stim	s582	False	0
159.908	1.707	161.615	-1.0623323435823433	draw_card	1.707	columbia_card_task_fmri	16.0	0.8	89.0	-70.0	0.2	10.0	1.0	2.0	3.125370879915085	1.707	n/a	stim	poldrack-single-stim	s582	False	1
161.618	0.633	162.251	-2.973443454693455	end_round	0.633	columbia_card_task_fmri	16.0	0.7777777777777778	71.0	-70.0	0.2222222222222222	10.0	2.0	2.0	4.478975480018203	0.633	1.0	stim	poldrack-single-stim	s582	False	1
163.005	1.5	162.254	n/a	-1.0	2.386	columbia_card_task_fmri	n/a	n/a	-1.0	n/a	n/a	n/a	n/a	n/a	n/a	n/a	n/a	ITI	poldrack-single-stim	s582	False	0
164.643	0.903	165.546	-1.77899901024901	end_round	0.903	columbia_card_task_fmri	7.0	0.9166666666666666	71.0	-100.0	0.0833333333333333	12.0	1.0	1.0	-1.7013464460805423	0.903	0.0	stim	poldrack-single-stim	s582	False	1
166.3	1.5	165.549	n/a	-1.0	2.59	columbia_card_task_fmri	n/a	n/a	-1.0	n/a	n/a	n/a	n/a	n/a	n/a	n/a	n/a	ITI	poldrack-single-stim	s582	False	0
168.143	1.347	169.49	-1.5289990102490083	draw_card	1.347	columbia_card_task_fmri	14.0	0.8333333333333334	89.0	-80.0	0.1666666666666666	12.0	1.0	2.0	3.757097559872552	1.347	n/a	stim	poldrack-single-stim	s582	False	1
169.492	1.067	170.559	-2.9532414344914377	end_round	1.067	columbia_card_task_fmri	14.0	0.8181818181818181	71.0	-80.0	0.1818181818181818	12.0	2.0	2.0	4.98064992788024	1.067	1.0	stim	poldrack-single-stim	s582	False	1
171.315	1.5	170.564	n/a	-1.0	2.318	columbia_card_task_fmri	n/a	n/a	-1.0	n/a	n/a	n/a	n/a	n/a	n/a	n/a	n/a	ITI	poldrack-single-stim	s582	False	0
172.887	1.316	174.203	0.1376676564176559	draw_card	1.316	columbia_card_task_fmri	15.0	0.8333333333333334	89.0	-75.0	0.1666666666666666	12.0	1.0	2.0	2.266397597086918	1.316	1.0	stim	poldrack-single-stim	s582	False	0
174.956	1.5	174.205	n/a	-1.0	2.25	columbia_card_task_fmri	n/a	n/a	-1.0	n/a	n/a	n/a	n/a	n/a	n/a	n/a	n/a	ITI	poldrack-single-stim	s582	False	0
176.46	1.725	178.185	-0.8623323435823441	draw_card	1.725	columbia_card_task_fmri	15.0	0.8	89.0	-65.0	0.2	15.0	1.0	3.0	0.7253915399497579	1.725	n/a	stim	poldrack-single-stim	s582	False	1
178.188	0.499	178.687	-2.0051894864394866	draw_card	0.499	columbia_card_task_fmri	15.0	0.7857142857142857	89.0	-65.0	0.2142857142857142	15.0	2.0	3.0	1.5514563538082378	0.499	n/a	stim	poldrack-single-stim	s582	False	1
178.689	1.361	180.05	-3.323870805120808	draw_card	1.361	columbia_card_task_fmri	15.0	0.7692307692307692	89.0	-65.0	0.2307692307692307	15.0	3.0	3.0	2.4313800904835823	1.361	3.0	stim	poldrack-single-stim	s582	False	0
180.805	1.5	180.054	n/a	-1.0	2.454	columbia_card_task_fmri	n/a	n/a	-1.0	n/a	n/a	n/a	n/a	n/a	n/a	n/a	n/a	ITI	poldrack-single-stim	s582	False	0
182.512	1.18	183.692	-1.612332343582344	draw_card	1.18	columbia_card_task_fmri	14.0	0.8125	89.0	-70.0	0.1875	16.0	1.0	3.0	1.5116239301863068	1.18	1.0	stim	poldrack-single-stim	s582	False	0
184.448	1.5	183.697	n/a	-1.0	3.27	columbia_card_task_fmri	n/a	n/a	-1.0	n/a	n/a	n/a	n/a	n/a	n/a	n/a	n/a	ITI	poldrack-single-stim	s582	False	0
186.972	1.278	188.25	-1.674832343582344	draw_card	1.278	columbia_card_task_fmri	11.0	0.6875	89.0	-30.0	0.3125	16.0	1.0	5.0	-12.270397331299282	1.278	n/a	stim	poldrack-single-stim	s582	False	1
188.254	0.484	188.738	-2.5289990102490103	draw_card	0.484	columbia_card_task_fmri	11.0	0.6666666666666667	89.0	-30.0	0.3333333333333333	16.0	2.0	5.0	-11.946828949839263	0.484	n/a	stim	poldrack-single-stim	s582	False	1
188.741	0.904	189.645	-3.5051894864394884	end_round	0.904	columbia_card_task_fmri	11.0	0.6428571428571428	71.0	-30.0	0.3571428571428571	16.0	3.0	5.0	-11.628967861316212	0.904	2.0	stim	poldrack-single-stim	s582	False	1
190.401	1.5	189.65	n/a	-1.0	2.25	columbia_card_task_fmri	n/a	n/a	-1.0	n/a	n/a	n/a	n/a	n/a	n/a	n/a	n/a	ITI	poldrack-single-stim	s582	False	0
191.905	1.087	192.992	3.137667656417656	draw_card	1.087	columbia_card_task_fmri	15.0	0.8666666666666667	89.0	-75.0	0.1333333333333333	15.0	1.0	2.0	-0.6804777706663607	1.087	1.0	stim	poldrack-single-stim	s582	False	0
193.75	1.5	192.999	n/a	-1.0	2.25	columbia_card_task_fmri	n/a	n/a	-1.0	n/a	n/a	n/a	n/a	n/a	n/a	n/a	n/a	ITI	poldrack-single-stim	s582	False	0
195.252	2.455	197.707	4.87100098975099	draw_card	2.455	columbia_card_task_fmri	17.0	0.8666666666666667	89.0	-75.0	0.1333333333333333	15.0	1.0	2.0	-0.0006152355442132	2.455	1.0	stim	poldrack-single-stim	s582	False	0
198.461	1.5	197.71	n/a	-1.0	2.318	columbia_card_task_fmri	n/a	n/a	-1.0	n/a	n/a	n/a	n/a	n/a	n/a	n/a	n/a	ITI	poldrack-single-stim	s582	False	0
200.031	0.845	200.876	0.4501676564176559	draw_card	0.845	columbia_card_task_fmri	2.0	0.9375	89.0	-25.0	0.0625	16.0	1.0	1.0	-24.7377954324378	0.845	n/a	stim	poldrack-single-stim	s582	False	1
200.878	0.999	201.877	0.3376676564176558	draw_card	0.999	columbia_card_task_fmri	2.0	0.9333333333333332	89.0	-25.0	0.0666666666666666	16.0	2.0	1.0	-24.53851442998006	0.999	n/a	stim	poldrack-single-stim	s582	False	1
201.88	0.734	202.614	0.2090962278462275	end_round	0.734	columbia_card_task_fmri	2.0	0.9285714285714286	71.0	-25.0	0.0714285714285714	16.0	3.0	1.0	-24.3199787669245	0.734	2.0	stim	poldrack-single-stim	s582	False	1
203.371	1.5	202.62	n/a	-1.0	2.726	columbia_card_task_fmri	n/a	n/a	-1.0	n/a	n/a	n/a	n/a	n/a	n/a	n/a	n/a	ITI	poldrack-single-stim	s582	False	0
205.35	1.135	206.485	2.637667656417656	end_round	1.135	columbia_card_task_fmri	9.0	0.9375	71.0	-95.0	0.0625	16.0	1.0	1.0	-6.10013642026248	1.135	0.0	stim	poldrack-single-stim	s582	False	1
207.242	1.5	206.491	n/a	-1.0	2.386	columbia_card_task_fmri	n/a	n/a	-1.0	n/a	n/a	n/a	n/a	n/a	n/a	n/a	n/a	ITI	poldrack-single-stim	s582	False	0
208.881	1.078	209.959	4.200167656417656	end_round	1.078	columbia_card_task_fmri	11.0	0.9375	71.0	-100.0	0.0625	16.0	1.0	1.0	-4.405729944113801	1.078	0.0	stim	poldrack-single-stim	s582	False	1
210.712	1.5	209.961	n/a	-1.0	2.318	columbia_card_task_fmri	n/a	n/a	-1.0	n/a	n/a	n/a	n/a	n/a	n/a	n/a	n/a	ITI	poldrack-single-stim	s582	False	0
212.285	3.258	215.543	4.762667656417656	draw_card	3.258	columbia_card_task_fmri	16.0	0.875	89.0	-75.0	0.125	16.0	1.0	2.0	-1.1791685564148366	3.258	n/a	stim	poldrack-single-stim	s582	False	1
215.546	0.576	216.122	4.004334323084323	end_round	0.576	columbia_card_task_fmri	16.0	0.8666666666666667	71.0	-75.0	0.1333333333333333	16.0	2.0	2.0	-0.340546540101208	0.576	1.0	stim	poldrack-single-stim	s582	False	1
216.877	1.5	216.126	n/a	-1.0	2.25	columbia_card_task_fmri	n/a	n/a	-1.0	n/a	n/a	n/a	n/a	n/a	n/a	n/a	n/a	ITI	poldrack-single-stim	s582	False	0
218.38	1.365	219.745	5.012667656417656	end_round	1.365	columbia_card_task_fmri	17.0	0.875	71.0	-80.0	0.125	16.0	1.0	2.0	0.8051254505802241	1.365	0.0	stim	poldrack-single-stim	s582	False	1
220.503	1.5	219.752	n/a	-1.0	2.25	columbia_card_task_fmri	n/a	n/a	-1.0	n/a	n/a	n/a	n/a	n/a	n/a	n/a	n/a	ITI	poldrack-single-stim	s582	False	0
233.011	1.253	234.264	-0.6956656769156763	draw_card	1.253	columbia_card_task_fmri	13.0	0.8333333333333334	89.0	-70.0	0.1666666666666666	6.0	1.0	1.0	-0.3423245495420559	1.253	n/a	stim	poldrack-single-stim	s582	False	1
234.266	0.898	235.164	-3.462332343582344	draw_card	0.898	columbia_card_task_fmri	13.0	0.8	89.0	-70.0	0.2	6.0	2.0	1.0	1.925380836563118	0.898	n/a	stim	poldrack-single-stim	s582	False	1
235.168	0.503	235.671	-7.612332343582344	end_round	0.503	columbia_card_task_fmri	13.0	0.75	71.0	-70.0	0.25	6.0	3.0	1.0	4.665413333010154	0.503	2.0	stim	poldrack-single-stim	s582	False	1
236.427	1.5	235.676	n/a	-1.0	2.454	columbia_card_task_fmri	n/a	n/a	-1.0	n/a	n/a	n/a	n/a	n/a	n/a	n/a	n/a	ITI	poldrack-single-stim	s582	False	0
238.135	1.256	239.391	-0.6956656769156763	draw_card	1.256	columbia_card_task_fmri	15.0	0.8333333333333334	89.0	-80.0	0.1666666666666666	6.0	1.0	1.0	4.129772708754157	1.256	n/a	stim	poldrack-single-stim	s582	False	1
239.394	0.434	239.828	-3.862332343582344	end_round	0.434	columbia_card_task_fmri	15.0	0.8	71.0	-80.0	0.2	6.0	2.0	1.0	6.725344782976332	0.434	1.0	stim	poldrack-single-stim	s582	False	1
240.583	1.5	239.832	n/a	-1.0	2.454	columbia_card_task_fmri	n/a	n/a	-1.0	n/a	n/a	n/a	n/a	n/a	n/a	n/a	n/a	ITI	poldrack-single-stim	s582	False	0
242.291	0.817	243.108	0.9710009897509898	draw_card	0.817	columbia_card_task_fmri	16.0	0.8333333333333334	89.0	-75.0	0.1666666666666666	6.0	1.0	1.0	2.6390724887003607	0.817	n/a	stim	poldrack-single-stim	s582	False	1
243.111	0.477	243.588	-2.0623323435823435	end_round	0.477	columbia_card_task_fmri	16.0	0.8	71.0	-75.0	0.2	6.0	2.0	1.0	5.125355744334765	0.477	1.0	stim	poldrack-single-stim	s582	False	1
244.344	1.5	243.593	n/a	-1.0	2.522	columbia_card_task_fmri	n/a	n/a	-1.0	n/a	n/a	n/a	n/a	n/a	n/a	n/a	n/a	ITI	poldrack-single-stim	s582	False	0
246.12	1.681	247.801	2.137667656417656	draw_card	1.681	columbia_card_task_fmri	21.0	0.75	89.0	-55.0	0.25	8.0	1.0	2.0	1.634348704553343	1.681	n/a	stim	poldrack-single-stim	s582	False	1
247.804	0.438	248.242	-0.5766180578680576	end_round	0.438	columbia_card_task_fmri	21.0	0.7142857142857143	71.0	-55.0	0.2857142857142857	8.0	2.0	2.0	3.058671725468205	0.438	1.0	stim	poldrack-single-stim	s582	False	1
248.997	1.5	248.246	n/a	-1.0	2.386	columbia_card_task_fmri	n/a	n/a	-1.0	n/a	n/a	n/a	n/a	n/a	n/a	n/a	n/a	ITI	poldrack-single-stim	s582	False	0
250.636	1.405	252.041	3.387667656417656	draw_card	1.405	columbia_card_task_fmri	26.0	0.75	89.0	-65.0	0.25	8.0	1.0	2.0	8.129491768900142	1.405	n/a	stim	poldrack-single-stim	s582	False	1
252.045	0.44	252.485	0.1376676564176594	end_round	0.44	columbia_card_task_fmri	26.0	0.7142857142857143	71.0	-65.0	0.2857142857142857	8.0	2.0	2.0	9.834935502250593	0.44	1.0	stim	poldrack-single-stim	s582	False	1
253.238	1.5	252.487	n/a	-1.0	2.454	columbia_card_task_fmri	n/a	n/a	-1.0	n/a	n/a	n/a	n/a	n/a	n/a	n/a	n/a	ITI	poldrack-single-stim	s582	False	0
254.945	1.307	256.252	-1.52899901024901	draw_card	1.307	columbia_card_task_fmri	15.0	0.7777777777777778	89.0	-60.0	0.2222222222222222	9.0	1.0	2.0	-0.0941224537840206	1.307	1.0	stim	poldrack-single-stim	s582	False	0
257.008	1.5	256.257	n/a	-1.0	2.522	columbia_card_task_fmri	n/a	n/a	-1.0	n/a	n/a	n/a	n/a	n/a	n/a	n/a	n/a	ITI	poldrack-single-stim	s582	False	0
258.782	1.808	260.59	2.837667656417657	end_round	1.808	columbia_card_task_fmri	13.0	0.9	71.0	-90.0	0.1	10.0	1.0	1.0	-0.3745979183217969	1.808	0.0	stim	poldrack-single-stim	s582	False	1
261.347	1.5	260.596	n/a	-1.0	2.522	columbia_card_task_fmri	n/a	n/a	-1.0	n/a	n/a	n/a	n/a	n/a	n/a	n/a	n/a	ITI	poldrack-single-stim	s582	False	0
263.122	2.005	265.127	4.137667656417656	draw_card	2.005	columbia_card_task_fmri	15.0	0.9	89.0	-95.0	0.1	10.0	1.0	1.0	1.7253825664040967	2.005	n/a	stim	poldrack-single-stim	s582	False	1
265.13	0.487	265.617	2.915445434195433	end_round	0.487	columbia_card_task_fmri	15.0	0.8888888888888888	71.0	-95.0	0.1111111111111111	10.0	2.0	1.0	3.295034385954434	0.487	1.0	stim	poldrack-single-stim	s582	False	1
266.371	1.5	265.62	n/a	-1.0	2.59	columbia_card_task_fmri	n/a	n/a	-1.0	n/a	n/a	n/a	n/a	n/a	n/a	n/a	n/a	ITI	poldrack-single-stim	s582	False	0
268.215	1.593	269.808	-0.0623323435823433	draw_card	1.593	columbia_card_task_fmri	16.0	0.8	89.0	-65.0	0.2	10.0	1.0	2.0	1.1253878840616842	1.593	n/a	stim	poldrack-single-stim	s582	False	1
269.81	0.458	270.268	-1.8623323435823425	end_round	0.458	columbia_card_task_fmri	16.0	0.7777777777777778	71.0	-65.0	0.2222222222222222	10.0	2.0	2.0	2.400293292203582	0.458	1.0	stim	poldrack-single-stim	s582	False	1
271.025	1.5	270.274	n/a	-1.0	2.454	columbia_card_task_fmri	n/a	n/a	-1.0	n/a	n/a	n/a	n/a	n/a	n/a	n/a	n/a	ITI	poldrack-single-stim	s582	False	0
272.733	3.15	275.883	-1.362332343582344	draw_card	3.15	columbia_card_task_fmri	7.0	0.9166666666666666	89.0	-95.0	0.0833333333333333	12.0	1.0	1.0	-3.0832577349119568	3.15	n/a	stim	poldrack-single-stim	s582	False	1
275.886	0.558	276.444	-2.1350596163096176	end_round	0.558	columbia_card_task_fmri	7.0	0.9090909090909092	71.0	-95.0	0.0909090909090909	12.0	2.0	1.0	-1.9516431215593784	0.558	1.0	stim	poldrack-single-stim	s582	False	1
277.2	1.5	276.449	n/a	-1.0	2.318	columbia_card_task_fmri	n/a	n/a	-1.0	n/a	n/a	n/a	n/a	n/a	n/a	n/a	n/a	ITI	poldrack-single-stim	s582	False	0
278.771	1.888	280.659	-0.6956656769156763	draw_card	1.888	columbia_card_task_fmri	14.0	0.8333333333333334	89.0	-75.0	0.1666666666666666	12.0	1.0	2.0	1.8937227752396983	1.888	n/a	stim	poldrack-single-stim	s582	False	1
280.663	0.517	281.18	-2.044150525400528	end_round	0.517	columbia_card_task_fmri	14.0	0.8181818181818181	71.0	-75.0	0.1818181818181818	12.0	2.0	2.0	3.0521915720465422	0.517	1.0	stim	poldrack-single-stim	s582	False	1
281.935	1.5	281.184	n/a	-1.0	2.25	columbia_card_task_fmri	n/a	n/a	-1.0	n/a	n/a	n/a	n/a	n/a	n/a	n/a	n/a	ITI	poldrack-single-stim	s582	False	0
283.438	3.638	287.076	0.9710009897509898	end_round	3.638	columbia_card_task_fmri	15.0	0.8333333333333334	71.0	-70.0	0.1666666666666666	12.0	1.0	2.0	0.403024234758881	3.638	0.0	stim	poldrack-single-stim	s582	False	1
287.831	1.5	287.08	n/a	-1.0	2.658	columbia_card_task_fmri	n/a	n/a	-1.0	n/a	n/a	n/a	n/a	n/a	n/a	n/a	n/a	ITI	poldrack-single-stim	s582	False	0
289.742	3.249	292.991	-1.0623323435823433	draw_card	3.249	columbia_card_task_fmri	16.0	0.8	89.0	-70.0	0.2	15.0	1.0	3.0	3.125370879915085	3.249	n/a	stim	poldrack-single-stim	s582	False	1
292.994	0.497	293.491	-2.290903772153773	end_round	0.497	columbia_card_task_fmri	16.0	0.7857142857142857	71.0	-70.0	0.2142857142857142	15.0	2.0	3.0	4.013391633617882	0.497	1.0	stim	poldrack-single-stim	s582	False	1
294.248	1.5	293.497	n/a	-1.0	2.454	columbia_card_task_fmri	n/a	n/a	-1.0	n/a	n/a	n/a	n/a	n/a	n/a	n/a	n/a	ITI	poldrack-single-stim	s582	False	0
295.954	1.376	297.33	-0.6748323435823441	draw_card	1.376	columbia_card_task_fmri	14.0	0.8125	89.0	-65.0	0.1875	16.0	1.0	3.0	-0.4399196515616772	1.376	1.0	stim	poldrack-single-stim	s582	False	0
298.087	1.5	297.336	n/a	-1.0	2.386	columbia_card_task_fmri	n/a	n/a	-1.0	n/a	n/a	n/a	n/a	n/a	n/a	n/a	n/a	ITI	poldrack-single-stim	s582	False	0
299.727	2.392	302.119	-0.924832343582344	draw_card	2.392	columbia_card_task_fmri	16.0	0.8125	89.0	-75.0	0.1875	16.0	1.0	3.0	4.243788321715801	2.392	n/a	stim	poldrack-single-stim	s582	False	1
302.123	0.543	302.666	-2.0623323435823435	end_round	0.543	columbia_card_task_fmri	16.0	0.8	71.0	-75.0	0.2	16.0	2.0	3.0	5.125355744334765	0.543	1.0	stim	poldrack-single-stim	s582	False	1
303.422	1.5	302.671	n/a	-1.0	2.59	columbia_card_task_fmri	n/a	n/a	-1.0	n/a	n/a	n/a	n/a	n/a	n/a	n/a	n/a	ITI	poldrack-single-stim	s582	False	0
305.275	2.25	307.525	3.337667656417657	draw_card	2.25	columbia_card_task_fmri	16.0	0.8666666666666667	89.0	-80.0	0.1333333333333333	15.0	1.0	2.0	1.3591106763580534	2.25	n/a	stim	poldrack-single-stim	s582	False	1
307.529	0.573	308.102	2.423381942131944	end_round	0.573	columbia_card_task_fmri	16.0	0.8571428571428572	71.0	-80.0	0.1428571428571428	15.0	2.0	2.0	2.3183796841504325	0.573	1.0	stim	poldrack-single-stim	s582	False	1
308.859	1.5	308.108	n/a	-1.0	2.318	columbia_card_task_fmri	n/a	n/a	-1.0	n/a	n/a	n/a	n/a	n/a	n/a	n/a	n/a	ITI	poldrack-single-stim	s582	False	0
310.431	2.004	312.435	4.204334323084324	draw_card	2.004	columbia_card_task_fmri	17.0	0.8666666666666667	89.0	-80.0	0.1333333333333333	15.0	1.0	2.0	1.6990423170254625	2.004	1.0	stim	poldrack-single-stim	s582	False	0
313.193	1.5	312.442	n/a	-1.0	2.59	columbia_card_task_fmri	n/a	n/a	-1.0	n/a	n/a	n/a	n/a	n/a	n/a	n/a	n/a	ITI	poldrack-single-stim	s582	False	0
315.036	2.195	317.231	0.1376676564176559	draw_card	2.195	columbia_card_task_fmri	1.0	0.9375	89.0	-15.0	0.0625	16.0	1.0	1.0	-27.399475273634	2.195	n/a	stim	poldrack-single-stim	s582	False	1
317.235	2.69	319.925	0.0710009897509892	draw_card	2.69	columbia_card_task_fmri	1.0	0.9333333333333332	89.0	-15.0	0.0666666666666666	16.0	2.0	1.0	-27.281429752829386	2.69	n/a	stim	poldrack-single-stim	s582	False	1
319.928	0.485	320.413	-0.0051894864394868	draw_card	0.485	columbia_card_task_fmri	1.0	0.9285714285714286	89.0	-15.0	0.0714285714285714	16.0	3.0	1.0	-27.15197550704877	0.485	n/a	stim	poldrack-single-stim	s582	False	1
320.416	0.38	320.796	-0.0931015743515749	draw_card	0.38	columbia_card_task_fmri	1.0	0.9230769230769232	89.0	-15.0	0.0769230769230769	16.0	4.0	1.0	-27.00917286152681	0.38	n/a	stim	poldrack-single-stim	s582	False	1
320.801	1.526	322.327	-0.1956656769156774	draw_card	1.526	columbia_card_task_fmri	1.0	0.9166666666666666	89.0	-15.0	0.0833333333333333	16.0	5.0	1.0	-26.850595836978545	1.526	n/a	stim	poldrack-single-stim	s582	False	1
322.33	0.798	323.128	-0.3168777981277988	end_round	0.798	columbia_card_task_fmri	1.0	0.9090909090909092	71.0	-15.0	0.0909090909090909	16.0	6.0	1.0	-26.673168267696123	0.798	5.0	stim	poldrack-single-stim	s582	False	1
323.885	1.5	323.134	n/a	-1.0	2.386	columbia_card_task_fmri	n/a	n/a	-1.0	n/a	n/a	n/a	n/a	n/a	n/a	n/a	n/a	ITI	poldrack-single-stim	s582	False	0
325.525	1.822	327.347	3.262667656417656	end_round	1.822	columbia_card_task_fmri	10.0	0.9375	71.0	-100.0	0.0625	16.0	1.0	1.0	-4.647788197101278	1.822	0.0	stim	poldrack-single-stim	s582	False	1
328.102	1.5	327.351	n/a	-1.0	2.318	columbia_card_task_fmri	n/a	n/a	-1.0	n/a	n/a	n/a	n/a	n/a	n/a	n/a	n/a	ITI	poldrack-single-stim	s582	False	0
329.674	1.502	331.176	3.887667656417656	draw_card	1.502	columbia_card_task_fmri	15.0	0.875	89.0	-75.0	0.125	16.0	1.0	2.0	-1.5098839717806882	1.502	n/a	stim	poldrack-single-stim	s582	False	1
331.18	0.488	331.668	3.137667656417656	draw_card	0.488	columbia_card_task_fmri	15.0	0.8666666666666667	89.0	-75.0	0.1333333333333333	16.0	2.0	2.0	-0.6804777706663607	0.488	n/a	stim	poldrack-single-stim	s582	False	1
331.672	1.088	332.76	2.2805247992748	end_round	1.088	columbia_card_task_fmri	15.0	0.8571428571428572	71.0	-75.0	0.1428571428571428	16.0	3.0	2.0	0.2188358531106722	1.088	2.0	stim	poldrack-single-stim	s582	False	1
333.516	1.5	332.765	n/a	-1.0	2.318	columbia_card_task_fmri	n/a	n/a	-1.0	n/a	n/a	n/a	n/a	n/a	n/a	n/a	n/a	ITI	poldrack-single-stim	s582	False	0
335.088	1.167	336.255	4.137667656417656	draw_card	1.167	columbia_card_task_fmri	16.0	0.875	89.0	-80.0	0.125	16.0	1.0	2.0	0.4744096136850011	1.167	n/a	stim	poldrack-single-stim	s582	False	1
336.259	1.042	337.301	3.337667656417657	end_round	1.042	columbia_card_task_fmri	16.0	0.8666666666666667	71.0	-80.0	0.1333333333333333	16.0	2.0	2.0	1.3591106763580534	1.042	1.0	stim	poldrack-single-stim	s582	False	1
338.055	1.5	337.304	n/a	-1.0	2.318	columbia_card_task_fmri	n/a	n/a	-1.0	n/a	n/a	n/a	n/a	n/a	n/a	n/a	n/a	ITI	poldrack-single-stim	s582	False	0
339.626	3.705	343.331	1.325167656417656	draw_card	3.705	columbia_card_task_fmri	4.0	0.6875	89.0	-5.0	0.3125	16.0	1.0	5.0	-27.10102196870558	3.705	1.0	stim	poldrack-single-stim	s582	False	0
344.088	1.5	343.337	n/a	-1.0	2.386	columbia_card_task_fmri	n/a	n/a	-1.0	n/a	n/a	n/a	n/a	n/a	n/a	n/a	n/a	ITI	poldrack-single-stim	s582	False	0
345.728	2.816	348.544	-1.5289990102490083	draw_card	2.816	columbia_card_task_fmri	14.0	0.8333333333333334	89.0	-80.0	0.1666666666666666	6.0	1.0	1.0	3.757097559872552	2.816	n/a	stim	poldrack-single-stim	s582	False	1
348.548	0.63	349.178	-4.662332343582343	end_round	0.63	columbia_card_task_fmri	14.0	0.8	71.0	-80.0	0.2	6.0	2.0	1.0	6.325347435859168	0.63	1.0	stim	poldrack-single-stim	s582	False	1
349.936	1.5	349.185	n/a	-1.0	2.25	columbia_card_task_fmri	n/a	n/a	-1.0	n/a	n/a	n/a	n/a	n/a	n/a	n/a	n/a	ITI	poldrack-single-stim	s582	False	0
351.44	2.135	353.575	0.1376676564176559	draw_card	2.135	columbia_card_task_fmri	15.0	0.8333333333333334	89.0	-75.0	0.1666666666666666	6.0	1.0	1.0	2.266397597086918	2.135	n/a	stim	poldrack-single-stim	s582	False	1
353.579	0.562	354.141	-2.862332343582344	end_round	0.562	columbia_card_task_fmri	15.0	0.8	71.0	-75.0	0.2	6.0	2.0	1.0	4.725358636913835	0.562	1.0	stim	poldrack-single-stim	s582	False	1
354.899	1.5	354.148	n/a	-1.0	2.386	columbia_card_task_fmri	n/a	n/a	-1.0	n/a	n/a	n/a	n/a	n/a	n/a	n/a	n/a	ITI	poldrack-single-stim	s582	False	0
356.538	1.705	358.243	1.804334323084324	draw_card	1.705	columbia_card_task_fmri	16.0	0.8333333333333334	89.0	-70.0	0.1666666666666666	6.0	1.0	1.0	0.7756987526319783	1.705	n/a	stim	poldrack-single-stim	s582	False	1
358.247	0.405	358.652	-1.0623323435823433	end_round	0.405	columbia_card_task_fmri	16.0	0.8	71.0	-70.0	0.2	6.0	2.0	1.0	3.125370879915085	0.405	1.0	stim	poldrack-single-stim	s582	False	1
359.41	1.5	358.659	n/a	-1.0	2.59	columbia_card_task_fmri	n/a	n/a	-1.0	n/a	n/a	n/a	n/a	n/a	n/a	n/a	n/a	ITI	poldrack-single-stim	s582	False	0
361.253	2.037	363.29	2.387667656417656	draw_card	2.037	columbia_card_task_fmri	23.0	0.75	89.0	-60.0	0.25	8.0	1.0	2.0	4.665413333010154	2.037	1.0	stim	poldrack-single-stim	s582	False	0
364.046	1.5	363.295	n/a	-1.0	2.658	columbia_card_task_fmri	n/a	n/a	-1.0	n/a	n/a	n/a	n/a	n/a	n/a	n/a	n/a	ITI	poldrack-single-stim	s582	False	0
365.958	2.424	368.382	2.887667656417656	end_round	2.424	columbia_card_task_fmri	27.0	0.75	71.0	-70.0	0.25	8.0	1.0	2.0	10.727553104889662	2.424	0.0	stim	poldrack-single-stim	s582	False	1
369.135	1.5	368.384	n/a	-1.0	2.386	columbia_card_task_fmri	n/a	n/a	-1.0	n/a	n/a	n/a	n/a	n/a	n/a	n/a	n/a	ITI	poldrack-single-stim	s582	False	0
370.775	1.897	372.672	-1.8623323435823425	draw_card	1.897	columbia_card_task_fmri	16.0	0.7777777777777778	89.0	-65.0	0.2222222222222222	9.0	1.0	2.0	2.400293292203582	1.897	n/a	stim	poldrack-single-stim	s582	False	1
372.676	0.466	373.142	-4.112332343582344	end_round	0.466	columbia_card_task_fmri	16.0	0.75	71.0	-65.0	0.25	9.0	2.0	2.0	3.79939443943864	0.466	1.0	stim	poldrack-single-stim	s582	False	1
373.897	1.5	373.146	n/a	-1.0	2.386	columbia_card_task_fmri	n/a	n/a	-1.0	n/a	n/a	n/a	n/a	n/a	n/a	n/a	n/a	ITI	poldrack-single-stim	s582	False	0
375.538	1.106	376.644	3.337667656417657	end_round	1.106	columbia_card_task_fmri	13.0	0.9	71.0	-85.0	0.1	10.0	1.0	1.0	-1.874582271991596	1.106	0.0	stim	poldrack-single-stim	s582	False	1
377.399	1.5	376.648	n/a	-1.0	2.25	columbia_card_task_fmri	n/a	n/a	-1.0	n/a	n/a	n/a	n/a	n/a	n/a	n/a	n/a	ITI	poldrack-single-stim	s582	False	0
378.903	1.533	380.436	-1.662332343582343	draw_card	1.533	columbia_card_task_fmri	14.0	0.8	89.0	-65.0	0.2	10.0	1.0	2.0	0.3253952883906592	1.533	n/a	stim	poldrack-single-stim	s582	False	1
380.441	0.468	380.909	-3.417887899137898	draw_card	0.468	columbia_card_task_fmri	14.0	0.7777777777777778	89.0	-65.0	0.2222222222222222	10.0	2.0	2.0	1.5688209969324056	0.468	n/a	stim	poldrack-single-stim	s582	False	1
380.913	0.448	381.361	-5.612332343582344	end_round	0.448	columbia_card_task_fmri	14.0	0.75	71.0	-65.0	0.25	10.0	3.0	2.0	2.93337587549426	0.448	2.0	stim	poldrack-single-stim	s582	False	1
382.117	1.5	381.366	n/a	-1.0	2.318	columbia_card_task_fmri	n/a	n/a	-1.0	n/a	n/a	n/a	n/a	n/a	n/a	n/a	n/a	ITI	poldrack-single-stim	s582	False	0
383.689	1.355	385.044	-0.2623323435823427	draw_card	1.355	columbia_card_task_fmri	17.0	0.8	89.0	-70.0	0.2	10.0	1.0	2.0	3.525367713622888	1.355	n/a	stim	poldrack-single-stim	s582	False	1
385.047	0.452	385.499	-2.1956656769156764	end_round	0.452	columbia_card_task_fmri	17.0	0.7777777777777778	71.0	-70.0	0.2222222222222222	10.0	2.0	2.0	4.894712143239193	0.452	1.0	stim	poldrack-single-stim	s582	False	1
386.258	1.5	385.507	n/a	-1.0	2.25	columbia_card_task_fmri	n/a	n/a	-1.0	n/a	n/a	n/a	n/a	n/a	n/a	n/a	n/a	ITI	poldrack-single-stim	s582	False	0
387.76	1.688	389.448	-1.52899901024901	draw_card	1.688	columbia_card_task_fmri	13.0	0.8333333333333334	89.0	-75.0	0.1666666666666666	12.0	1.0	2.0	1.521048025537052	1.688	n/a	stim	poldrack-single-stim	s582	False	1
389.451	0.377	389.828	-2.862332343582346	draw_card	0.377	columbia_card_task_fmri	13.0	0.8181818181818181	89.0	-75.0	0.1818181818181818	12.0	2.0	2.0	2.666500101110568	0.377	n/a	stim	poldrack-single-stim	s582	False	1
389.832	0.6	390.432	-4.462332343582344	draw_card	0.6	columbia_card_task_fmri	13.0	0.8	89.0	-75.0	0.2	12.0	3.0	2.0	3.9253646192910416	0.6	3.0	stim	poldrack-single-stim	s582	False	0
391.191	1.5	390.44	n/a	-1.0	2.25	columbia_card_task_fmri	n/a	n/a	-1.0	n/a	n/a	n/a	n/a	n/a	n/a	n/a	n/a	ITI	poldrack-single-stim	s582	False	0
392.694	1.366	394.06	0.1376676564176576	draw_card	1.366	columbia_card_task_fmri	14.0	0.8333333333333334	89.0	-70.0	0.1666666666666666	12.0	1.0	2.0	0.0303497997030888	1.366	1.0	stim	poldrack-single-stim	s582	False	0
394.816	1.5	394.065	n/a	-1.0	2.386	columbia_card_task_fmri	n/a	n/a	-1.0	n/a	n/a	n/a	n/a	n/a	n/a	n/a	n/a	ITI	poldrack-single-stim	s582	False	0
396.455	1.246	397.701	0.1376676564176576	draw_card	1.246	columbia_card_task_fmri	16.0	0.8333333333333334	89.0	-80.0	0.1666666666666666	12.0	1.0	2.0	4.502447916955273	1.246	n/a	stim	poldrack-single-stim	s582	False	1
397.704	0.469	398.173	-1.3168777981278008	draw_card	0.469	columbia_card_task_fmri	16.0	0.8181818181818181	89.0	-80.0	0.1818181818181818	12.0	2.0	2.0	5.752033698485629	0.469	n/a	stim	poldrack-single-stim	s582	False	1
398.178	0.526	398.704	-3.0623323435823435	end_round	0.526	columbia_card_task_fmri	16.0	0.8	71.0	-80.0	0.2	12.0	3.0	2.0	7.12534218536133	0.526	2.0	stim	poldrack-single-stim	s582	False	1
399.461	1.5	398.71	n/a	-1.0	2.386	columbia_card_task_fmri	n/a	n/a	-1.0	n/a	n/a	n/a	n/a	n/a	n/a	n/a	n/a	ITI	poldrack-single-stim	s582	False	0
401.101	0.587	401.688	-0.0623323435823433	draw_card	0.587	columbia_card_task_fmri	16.0	0.8	89.0	-65.0	0.2	15.0	1.0	3.0	1.1253878840616842	0.587	1.0	stim	poldrack-single-stim	s582	False	0
402.444	1.5	401.693	n/a	-1.0	2.726	columbia_card_task_fmri	n/a	n/a	-1.0	n/a	n/a	n/a	n/a	n/a	n/a	n/a	n/a	ITI	poldrack-single-stim	s582	False	0
404.425	2.633	407.058	-1.737332343582344	draw_card	2.633	columbia_card_task_fmri	15.0	0.8125	89.0	-75.0	0.1875	16.0	1.0	3.0	3.853478911187697	2.633	n/a	stim	poldrack-single-stim	s582	False	1
407.063	0.56	407.623	-2.862332343582344	end_round	0.56	columbia_card_task_fmri	15.0	0.8	71.0	-75.0	0.2	16.0	2.0	3.0	4.725358636913835	0.56	1.0	stim	poldrack-single-stim	s582	False	1
408.378	1.5	407.627	n/a	-1.0	2.454	columbia_card_task_fmri	n/a	n/a	-1.0	n/a	n/a	n/a	n/a	n/a	n/a	n/a	n/a	ITI	poldrack-single-stim	s582	False	0
410.086	1.058	411.144	-1.174832343582344	draw_card	1.058	columbia_card_task_fmri	14.0	0.6875	89.0	-35.0	0.3125	16.0	1.0	5.0	-8.562379495937371	1.058	n/a	stim	poldrack-single-stim	s582	False	1
411.15	0.646	411.796	-2.1956656769156764	draw_card	0.646	columbia_card_task_fmri	14.0	0.6666666666666667	89.0	-35.0	0.3333333333333333	16.0	2.0	5.0	-8.175672828873562	0.646	n/a	stim	poldrack-single-stim	s582	False	1
411.801	0.57	412.371	-3.362332343582344	end_round	0.57	columbia_card_task_fmri	14.0	0.6428571428571428	71.0	-35.0	0.3571428571428571	16.0	3.0	5.0	-7.795787221603796	0.57	2.0	stim	poldrack-single-stim	s582	False	1
413.13	1.5	412.379	n/a	-1.0	2.318	columbia_card_task_fmri	n/a	n/a	-1.0	n/a	n/a	n/a	n/a	n/a	n/a	n/a	n/a	ITI	poldrack-single-stim	s582	False	0
414.702	1.615	416.317	4.004334323084323	draw_card	1.615	columbia_card_task_fmri	16.0	0.8666666666666667	89.0	-75.0	0.1333333333333333	15.0	1.0	2.0	-0.340546540101208	1.615	1.0	stim	poldrack-single-stim	s582	False	0
417.076	1.5	416.325	n/a	-1.0	2.318	columbia_card_task_fmri	n/a	n/a	-1.0	n/a	n/a	n/a	n/a	n/a	n/a	n/a	n/a	ITI	poldrack-single-stim	s582	False	0
418.648	1.181	419.829	4.671000989750989	draw_card	1.181	columbia_card_task_fmri	16.0	0.8666666666666667	89.0	-70.0	0.1333333333333333	15.0	1.0	2.0	-2.0402019013875474	1.181	n/a	stim	poldrack-single-stim	s582	False	1
419.833	0.888	420.721	3.851953370703371	draw_card	0.888	columbia_card_task_fmri	16.0	0.8571428571428572	89.0	-70.0	0.1428571428571428	15.0	2.0	2.0	-1.1808585764700226	0.888	2.0	stim	poldrack-single-stim	s582	False	0
421.476	1.5	420.725	n/a	-1.0	2.59	columbia_card_task_fmri	n/a	n/a	-1.0	n/a	n/a	n/a	n/a	n/a	n/a	n/a	n/a	ITI	poldrack-single-stim	s582	False	0
423.321	2.211	425.532	2.012667656417656	draw_card	2.211	columbia_card_task_fmri	8.0	0.9375	89.0	-90.0	0.0625	16.0	1.0	1.0	-7.55248212940203	2.211	n/a	stim	poldrack-single-stim	s582	False	1
425.537	0.398	425.935	1.6043343230843228	draw_card	0.398	columbia_card_task_fmri	8.0	0.9333333333333332	89.0	-90.0	0.0666666666666666	16.0	2.0	1.0	-6.8290220200910845	0.398	n/a	stim	poldrack-single-stim	s582	False	1
425.939	0.45	426.389	1.1376676564176569	draw_card	0.45	columbia_card_task_fmri	8.0	0.9285714285714286	89.0	-90.0	0.0714285714285714	16.0	3.0	1.0	-6.035670203829103	0.45	3.0	stim	poldrack-single-stim	s582	False	0
427.144	1.5	426.393	n/a	-1.0	2.726	columbia_card_task_fmri	n/a	n/a	-1.0	n/a	n/a	n/a	n/a	n/a	n/a	n/a	n/a	ITI	poldrack-single-stim	s582	False	0
429.124	1.334	430.458	3.575167656417656	draw_card	1.334	columbia_card_task_fmri	10.0	0.9375	89.0	-95.0	0.0625	16.0	1.0	1.0	-5.858078546015136	1.334	n/a	stim	poldrack-single-stim	s582	False	1
430.463	0.343	430.806	3.1376676564176567	draw_card	0.343	columbia_card_task_fmri	10.0	0.9333333333333332	89.0	-95.0	0.0666666666666666	16.0	2.0	1.0	-5.08294108207085	0.343	n/a	stim	poldrack-single-stim	s582	False	1
430.811	0.371	431.182	2.6376676564176567	draw_card	0.371	columbia_card_task_fmri	10.0	0.9285714285714286	89.0	-95.0	0.0714285714285714	16.0	3.0	1.0	-4.232919596267639	0.371	n/a	stim	poldrack-single-stim	s582	False	1
431.187	1.676	432.863	2.060744579494579	draw_card	1.676	columbia_card_task_fmri	10.0	0.9230769230769232	89.0	-95.0	0.0769230769230769	16.0	4.0	1.0	-3.295283629589406	1.676	4.0	stim	poldrack-single-stim	s582	False	0
433.619	1.5	432.868	n/a	-1.0	2.522	columbia_card_task_fmri	n/a	n/a	-1.0	n/a	n/a	n/a	n/a	n/a	n/a	n/a	n/a	ITI	poldrack-single-stim	s582	False	0
435.396	1.089	436.485	4.512667656417656	draw_card	1.089	columbia_card_task_fmri	15.0	0.875	89.0	-70.0	0.125	16.0	1.0	2.0	-3.163459813860456	1.089	1.0	stim	poldrack-single-stim	s582	False	0
437.242	1.5	436.491	n/a	-1.0	3.134	columbia_card_task_fmri	n/a	n/a	-1.0	n/a	n/a	n/a	n/a	n/a	n/a	n/a	n/a	ITI	poldrack-single-stim	s582	False	0
439.631	0.91	440.541	3.512667656417656	draw_card	0.91	columbia_card_task_fmri	16.0	0.875	89.0	-85.0	0.125	16.0	1.0	2.0	2.127989407457637	0.91	n/a	stim	poldrack-single-stim	s582	False	1
440.546	0.373	440.919	2.671000989750989	draw_card	0.373	columbia_card_task_fmri	16.0	0.8666666666666667	89.0	-85.0	0.1333333333333333	16.0	2.0	2.0	3.0587694724742995	0.373	n/a	stim	poldrack-single-stim	s582	False	1
440.924	0.364	441.288	1.709096227846229	draw_card	0.364	columbia_card_task_fmri	16.0	0.8571428571428572	89.0	-85.0	0.1428571428571428	16.0	3.0	2.0	4.0680012501114255	0.364	n/a	stim	poldrack-single-stim	s582	False	1
441.293	0.972	442.265	0.5992061179561158	draw_card	0.972	columbia_card_task_fmri	16.0	0.8461538461538461	89.0	-85.0	0.1538461538461538	16.0	4.0	2.0	5.166277893691966	0.972	n/a	stim	poldrack-single-stim	s582	False	1
442.27	0.532	442.802	-0.6956656769156763	end_round	0.532	columbia_card_task_fmri	16.0	0.8333333333333334	71.0	-85.0	0.1666666666666666	16.0	5.0	2.0	6.365824786085536	0.532	4.0	stim	poldrack-single-stim	s582	False	1
443.558	1.5	442.807	n/a	-1.0	2.386	columbia_card_task_fmri	n/a	n/a	-1.0	n/a	n/a	n/a	n/a	n/a	n/a	n/a	n/a	ITI	poldrack-single-stim	s582	False	0
