onset	duration	movement_onset	block_duration	condition	correct	correct_response	experiment_exp_id	key_press	response_time	trial_id	trial_type	worker_id	junk
3.014	0.5	3.013	0.5	AX	n/a	n/a	dot_pattern_expectancy	-1.0	n/a	cue	AX	s582	False
5.52	0.5	5.992	1.772	AX	1.0	89.0	dot_pattern_expectancy	89.0	0.472	probe	AX	s582	False
7.296	0.5	7.295	0.5	AX	n/a	n/a	dot_pattern_expectancy	-1.0	n/a	cue	AX	s582	False
9.803	0.5	10.627	1.5	AX	1.0	89.0	dot_pattern_expectancy	89.0	0.824	probe	AX	s582	False
11.31	0.5	11.309	0.5	AY	n/a	n/a	dot_pattern_expectancy	-1.0	n/a	cue	AY	s582	False
13.816	0.5	14.443	2.452	AY	1.0	71.0	dot_pattern_expectancy	71.0	0.627	probe	AY	s582	False
16.27	0.5	16.269	0.5	AY	n/a	n/a	dot_pattern_expectancy	-1.0	n/a	cue	AY	s582	False
18.779	0.5	19.427	1.772	AY	1.0	71.0	dot_pattern_expectancy	71.0	0.648	probe	AY	s582	False
20.556	0.5	20.555	0.5	AX	n/a	n/a	dot_pattern_expectancy	-1.0	n/a	cue	AX	s582	False
23.059	0.5	23.605	1.908	AX	1.0	89.0	dot_pattern_expectancy	89.0	0.546	probe	AX	s582	False
24.974	0.5	24.973	0.5	AX	n/a	n/a	dot_pattern_expectancy	-1.0	n/a	cue	AX	s582	False
27.486	0.5	27.986	1.908	AX	1.0	89.0	dot_pattern_expectancy	89.0	0.5	probe	AX	s582	False
29.396	0.5	29.395	0.5	AX	n/a	n/a	dot_pattern_expectancy	-1.0	n/a	cue	AX	s582	False
31.905	0.5	32.422	2.588	AX	1.0	89.0	dot_pattern_expectancy	89.0	0.517	probe	AX	s582	False
34.495	0.5	34.494	0.5	AY	n/a	n/a	dot_pattern_expectancy	-1.0	n/a	cue	AY	s582	False
37.004	0.5	37.684	1.5	AY	1.0	71.0	dot_pattern_expectancy	71.0	0.68	probe	AY	s582	False
38.505	0.5	38.504	0.5	BY	n/a	n/a	dot_pattern_expectancy	-1.0	n/a	cue	BY	s582	False
41.016	0.5	41.481	1.5	BY	1.0	71.0	dot_pattern_expectancy	71.0	0.465	probe	BY	s582	False
42.521	0.5	42.52	0.5	BY	n/a	n/a	dot_pattern_expectancy	-1.0	n/a	cue	BY	s582	False
45.029	0.5	45.028	1.5	BY	0.0	71.0	dot_pattern_expectancy	-1.0	n/a	probe	BY	s582	False
46.532	0.5	46.531	0.5	AX	n/a	n/a	dot_pattern_expectancy	-1.0	n/a	cue	AX	s582	False
49.039	0.5	50.233	1.636	AX	0.0	89.0	dot_pattern_expectancy	71.0	1.194	probe	AX	s582	False
50.681	0.5	50.68	0.5	BX	n/a	n/a	dot_pattern_expectancy	-1.0	n/a	cue	BX	s582	False
53.188	0.5	54.193	2.044	BX	0.0	71.0	dot_pattern_expectancy	89.0	1.005	probe	BX	s582	False
55.236	0.5	55.235	0.5	AX	n/a	n/a	dot_pattern_expectancy	-1.0	n/a	cue	AX	s582	False
57.746	0.5	58.307	1.772	AX	1.0	89.0	dot_pattern_expectancy	89.0	0.561	probe	AX	s582	False
59.525	0.5	59.524	0.5	BX	n/a	n/a	dot_pattern_expectancy	-1.0	n/a	cue	BX	s582	False
62.031	0.5	62.828	2.588	BX	1.0	71.0	dot_pattern_expectancy	71.0	0.797	probe	BX	s582	False
64.623	0.5	64.622	0.5	AY	n/a	n/a	dot_pattern_expectancy	-1.0	n/a	cue	AY	s582	False
67.133	0.5	67.8	1.5	AY	1.0	71.0	dot_pattern_expectancy	71.0	0.667	probe	AY	s582	False
68.64	0.5	68.639	0.5	AX	n/a	n/a	dot_pattern_expectancy	-1.0	n/a	cue	AX	s582	False
71.15	0.5	71.742	2.452	AX	1.0	89.0	dot_pattern_expectancy	89.0	0.592	probe	AX	s582	False
73.607	0.5	73.606	0.5	BY	n/a	n/a	dot_pattern_expectancy	-1.0	n/a	cue	BY	s582	False
76.117	0.5	76.584	1.636	BY	1.0	71.0	dot_pattern_expectancy	71.0	0.467	probe	BY	s582	False
77.76	0.5	77.759	0.5	AX	n/a	n/a	dot_pattern_expectancy	-1.0	n/a	cue	AX	s582	False
80.264	0.5	80.828	1.636	AX	1.0	89.0	dot_pattern_expectancy	89.0	0.564	probe	AX	s582	False
81.904	0.5	81.903	0.5	AX	n/a	n/a	dot_pattern_expectancy	-1.0	n/a	cue	AX	s582	False
84.408	0.5	84.992	1.5	AX	1.0	89.0	dot_pattern_expectancy	89.0	0.584	probe	AX	s582	False
85.915	0.5	85.914	0.5	BY	n/a	n/a	dot_pattern_expectancy	-1.0	n/a	cue	BY	s582	False
88.421	0.5	89.09	1.636	BY	1.0	71.0	dot_pattern_expectancy	71.0	0.669	probe	BY	s582	False
90.064	0.5	90.063	0.5	AX	n/a	n/a	dot_pattern_expectancy	-1.0	n/a	cue	AX	s582	False
92.573	0.5	93.159	1.5	AX	1.0	89.0	dot_pattern_expectancy	89.0	0.586	probe	AX	s582	False
94.075	0.5	94.074	0.5	AY	n/a	n/a	dot_pattern_expectancy	-1.0	n/a	cue	AY	s582	False
96.581	0.5	97.219	2.18	AY	1.0	71.0	dot_pattern_expectancy	71.0	0.638	probe	AY	s582	False
98.768	0.5	98.767	0.5	AX	n/a	n/a	dot_pattern_expectancy	-1.0	n/a	cue	AX	s582	False
101.277	0.5	101.857	1.5	AX	1.0	89.0	dot_pattern_expectancy	89.0	0.58	probe	AX	s582	False
102.779	0.5	102.778	0.5	AX	n/a	n/a	dot_pattern_expectancy	-1.0	n/a	cue	AX	s582	False
105.291	0.5	105.893	1.908	AX	1.0	89.0	dot_pattern_expectancy	89.0	0.602	probe	AX	s582	False
107.203	0.5	107.202	0.5	BY	n/a	n/a	dot_pattern_expectancy	-1.0	n/a	cue	BY	s582	False
109.707	0.5	110.167	1.636	BY	1.0	71.0	dot_pattern_expectancy	71.0	0.46	probe	BY	s582	False
111.345	0.5	111.344	0.5	BY	n/a	n/a	dot_pattern_expectancy	-1.0	n/a	cue	BY	s582	False
113.851	0.5	114.32	1.636	BY	1.0	71.0	dot_pattern_expectancy	71.0	0.469	probe	BY	s582	False
115.494	0.5	115.493	0.5	AX	n/a	n/a	dot_pattern_expectancy	-1.0	n/a	cue	AX	s582	False
118.001	0.5	118.503	1.636	AX	1.0	89.0	dot_pattern_expectancy	89.0	0.502	probe	AX	s582	False
119.638	0.5	119.637	0.5	AX	n/a	n/a	dot_pattern_expectancy	-1.0	n/a	cue	AX	s582	False
122.15	0.5	122.691	1.5	AX	1.0	89.0	dot_pattern_expectancy	89.0	0.541	probe	AX	s582	False
123.652	0.5	123.651	0.5	BY	n/a	n/a	dot_pattern_expectancy	-1.0	n/a	cue	BY	s582	False
126.158	0.5	126.659	2.044	BY	1.0	71.0	dot_pattern_expectancy	71.0	0.501	probe	BY	s582	False
128.204	0.5	128.203	0.5	AY	n/a	n/a	dot_pattern_expectancy	-1.0	n/a	cue	AY	s582	False
130.71	0.5	131.385	2.18	AY	1.0	71.0	dot_pattern_expectancy	71.0	0.675	probe	AY	s582	False
132.894	0.5	132.893	0.5	AY	n/a	n/a	dot_pattern_expectancy	-1.0	n/a	cue	AY	s582	False
135.398	0.5	135.975	1.636	AY	1.0	71.0	dot_pattern_expectancy	71.0	0.577	probe	AY	s582	False
137.036	0.5	137.035	0.5	AY	n/a	n/a	dot_pattern_expectancy	-1.0	n/a	cue	AY	s582	False
139.545	0.5	140.123	1.772	AY	1.0	71.0	dot_pattern_expectancy	71.0	0.578	probe	AY	s582	False
141.319	0.5	141.318	0.5	BY	n/a	n/a	dot_pattern_expectancy	-1.0	n/a	cue	BY	s582	False
143.83	0.5	144.233	1.5	BY	1.0	71.0	dot_pattern_expectancy	71.0	0.403	probe	BY	s582	False
145.333	0.5	145.332	0.5	BX	n/a	n/a	dot_pattern_expectancy	-1.0	n/a	cue	BX	s582	False
147.842	0.5	148.308	1.908	BX	1.0	71.0	dot_pattern_expectancy	71.0	0.466	probe	BX	s582	False
149.753	0.5	149.752	0.5	AX	n/a	n/a	dot_pattern_expectancy	-1.0	n/a	cue	AX	s582	False
152.263	0.5	152.779	2.044	AX	1.0	89.0	dot_pattern_expectancy	89.0	0.516	probe	AX	s582	False
154.312	0.5	154.311	0.5	AX	n/a	n/a	dot_pattern_expectancy	-1.0	n/a	cue	AX	s582	False
156.822	0.5	157.247	1.636	AX	1.0	89.0	dot_pattern_expectancy	89.0	0.425	probe	AX	s582	False
158.461	0.5	158.46	0.5	AX	n/a	n/a	dot_pattern_expectancy	-1.0	n/a	cue	AX	s582	False
160.97	0.5	161.325	1.772	AX	1.0	89.0	dot_pattern_expectancy	89.0	0.355	probe	AX	s582	False
162.749	0.5	162.748	0.5	AX	n/a	n/a	dot_pattern_expectancy	-1.0	n/a	cue	AX	s582	False
165.256	0.5	165.791	1.636	AX	1.0	89.0	dot_pattern_expectancy	89.0	0.535	probe	AX	s582	False
166.896	0.5	166.895	0.5	BX	n/a	n/a	dot_pattern_expectancy	-1.0	n/a	cue	BX	s582	False
169.402	0.5	170.177	1.772	BX	1.0	71.0	dot_pattern_expectancy	71.0	0.775	probe	BX	s582	False
171.181	0.5	171.18	0.5	AX	n/a	n/a	dot_pattern_expectancy	-1.0	n/a	cue	AX	s582	False
173.69	0.5	174.122	1.5	AX	1.0	89.0	dot_pattern_expectancy	89.0	0.432	probe	AX	s582	False
185.708	0.5	185.707	0.5	BY	n/a	n/a	dot_pattern_expectancy	-1.0	n/a	cue	BY	s582	False
188.211	0.5	189.13	1.636	BY	1.0	71.0	dot_pattern_expectancy	71.0	0.919	probe	BY	s582	False
189.848	0.5	189.847	0.5	AY	n/a	n/a	dot_pattern_expectancy	-1.0	n/a	cue	AY	s582	False
192.358	0.5	193.032	1.5	AY	1.0	71.0	dot_pattern_expectancy	71.0	0.674	probe	AY	s582	False
193.859	0.5	193.858	0.5	AX	n/a	n/a	dot_pattern_expectancy	-1.0	n/a	cue	AX	s582	False
196.368	0.5	197.174	2.044	AX	0.0	89.0	dot_pattern_expectancy	71.0	0.806	probe	AX	s582	False
198.414	0.5	198.413	0.5	BY	n/a	n/a	dot_pattern_expectancy	-1.0	n/a	cue	BY	s582	False
200.923	0.5	201.5	1.772	BY	1.0	71.0	dot_pattern_expectancy	71.0	0.577	probe	BY	s582	False
202.701	0.5	202.7	0.5	BX	n/a	n/a	dot_pattern_expectancy	-1.0	n/a	cue	BX	s582	False
205.213	0.5	205.993	1.636	BX	1.0	71.0	dot_pattern_expectancy	71.0	0.78	probe	BX	s582	False
206.852	0.5	206.851	0.5	AX	n/a	n/a	dot_pattern_expectancy	-1.0	n/a	cue	AX	s582	False
209.363	0.5	209.946	1.636	AX	1.0	89.0	dot_pattern_expectancy	89.0	0.583	probe	AX	s582	False
211.001	0.5	211.0	0.5	AX	n/a	n/a	dot_pattern_expectancy	-1.0	n/a	cue	AX	s582	False
213.51	0.5	214.078	1.5	AX	1.0	89.0	dot_pattern_expectancy	89.0	0.568	probe	AX	s582	False
215.012	0.5	215.011	0.5	AX	n/a	n/a	dot_pattern_expectancy	-1.0	n/a	cue	AX	s582	False
217.521	0.5	218.103	1.5	AX	1.0	89.0	dot_pattern_expectancy	89.0	0.582	probe	AX	s582	False
219.023	0.5	219.022	0.5	AY	n/a	n/a	dot_pattern_expectancy	-1.0	n/a	cue	AY	s582	False
221.532	0.5	222.265	2.044	AY	1.0	71.0	dot_pattern_expectancy	71.0	0.733	probe	AY	s582	False
223.581	0.5	223.58	0.5	AX	n/a	n/a	dot_pattern_expectancy	-1.0	n/a	cue	AX	s582	False
226.088	0.5	226.974	2.452	AX	0.0	89.0	dot_pattern_expectancy	71.0	0.886	probe	AX	s582	False
228.543	0.5	228.542	0.5	AX	n/a	n/a	dot_pattern_expectancy	-1.0	n/a	cue	AX	s582	False
231.049	0.5	231.46	1.908	AX	1.0	89.0	dot_pattern_expectancy	89.0	0.411	probe	AX	s582	False
232.959	0.5	232.958	0.5	AX	n/a	n/a	dot_pattern_expectancy	-1.0	n/a	cue	AX	s582	False
235.468	0.5	236.157	1.5	AX	1.0	89.0	dot_pattern_expectancy	89.0	0.689	probe	AX	s582	False
236.97	0.5	236.969	0.5	AX	n/a	n/a	dot_pattern_expectancy	-1.0	n/a	cue	AX	s582	False
239.477	0.5	240.209	1.908	AX	1.0	89.0	dot_pattern_expectancy	89.0	0.732	probe	AX	s582	False
241.391	0.5	241.39	0.5	BX	n/a	n/a	dot_pattern_expectancy	-1.0	n/a	cue	BX	s582	False
243.9	0.5	244.667	2.18	BX	1.0	71.0	dot_pattern_expectancy	71.0	0.767	probe	BX	s582	False
246.085	0.5	246.084	0.5	AX	n/a	n/a	dot_pattern_expectancy	-1.0	n/a	cue	AX	s582	False
248.596	0.5	249.221	1.5	AX	1.0	89.0	dot_pattern_expectancy	89.0	0.625	probe	AX	s582	False
250.1	0.5	250.099	0.5	BY	n/a	n/a	dot_pattern_expectancy	-1.0	n/a	cue	BY	s582	False
252.613	0.5	254.144	1.908	BY	1.0	71.0	dot_pattern_expectancy	71.0	1.531	probe	BY	s582	False
254.522	0.5	254.521	0.5	BX	n/a	n/a	dot_pattern_expectancy	-1.0	n/a	cue	BX	s582	False
257.032	0.5	257.599	2.316	BX	1.0	71.0	dot_pattern_expectancy	71.0	0.567	probe	BX	s582	False
259.355	0.5	259.354	0.5	AY	n/a	n/a	dot_pattern_expectancy	-1.0	n/a	cue	AY	s582	False
261.864	0.5	262.581	2.316	AY	1.0	71.0	dot_pattern_expectancy	71.0	0.717	probe	AY	s582	False
264.187	0.5	264.186	0.5	BX	n/a	n/a	dot_pattern_expectancy	-1.0	n/a	cue	BX	s582	False
266.697	0.5	267.381	1.636	BX	1.0	71.0	dot_pattern_expectancy	71.0	0.684	probe	BX	s582	False
268.339	0.5	268.338	0.5	AY	n/a	n/a	dot_pattern_expectancy	-1.0	n/a	cue	AY	s582	False
270.848	0.5	271.538	1.5	AY	1.0	71.0	dot_pattern_expectancy	71.0	0.69	probe	AY	s582	False
272.352	0.5	272.351	0.5	BY	n/a	n/a	dot_pattern_expectancy	-1.0	n/a	cue	BY	s582	False
274.857	0.5	275.976	1.908	BY	1.0	71.0	dot_pattern_expectancy	71.0	1.119	probe	BY	s582	False
276.769	0.5	276.768	0.5	AX	n/a	n/a	dot_pattern_expectancy	-1.0	n/a	cue	AX	s582	False
279.28	0.5	279.856	1.5	AX	1.0	89.0	dot_pattern_expectancy	89.0	0.576	probe	AX	s582	False
280.785	0.5	280.784	0.5	AY	n/a	n/a	dot_pattern_expectancy	-1.0	n/a	cue	AY	s582	False
283.294	0.5	283.913	2.316	AY	1.0	71.0	dot_pattern_expectancy	71.0	0.619	probe	AY	s582	False
285.616	0.5	285.615	0.5	AX	n/a	n/a	dot_pattern_expectancy	-1.0	n/a	cue	AX	s582	False
288.126	0.5	288.86	1.5	AX	1.0	89.0	dot_pattern_expectancy	89.0	0.734	probe	AX	s582	False
289.633	0.5	289.632	0.5	AY	n/a	n/a	dot_pattern_expectancy	-1.0	n/a	cue	AY	s582	False
292.14	0.5	292.83	2.724	AY	1.0	71.0	dot_pattern_expectancy	71.0	0.69	probe	AY	s582	False
294.87	0.5	294.869	0.5	AX	n/a	n/a	dot_pattern_expectancy	-1.0	n/a	cue	AX	s582	False
297.382	0.5	298.001	1.5	AX	1.0	89.0	dot_pattern_expectancy	89.0	0.619	probe	AX	s582	False
298.886	0.5	298.885	0.5	AX	n/a	n/a	dot_pattern_expectancy	-1.0	n/a	cue	AX	s582	False
301.394	0.5	301.951	1.636	AX	1.0	89.0	dot_pattern_expectancy	89.0	0.557	probe	AX	s582	False
303.036	0.5	303.035	0.5	AX	n/a	n/a	dot_pattern_expectancy	-1.0	n/a	cue	AX	s582	False
305.542	0.5	306.068	1.636	AX	1.0	89.0	dot_pattern_expectancy	89.0	0.526	probe	AX	s582	False
307.184	0.5	307.183	0.5	AX	n/a	n/a	dot_pattern_expectancy	-1.0	n/a	cue	AX	s582	False
309.694	0.5	310.247	1.772	AX	1.0	89.0	dot_pattern_expectancy	89.0	0.553	probe	AX	s582	False
311.468	0.5	311.467	0.5	BY	n/a	n/a	dot_pattern_expectancy	-1.0	n/a	cue	BY	s582	False
313.975	0.5	314.419	1.772	BY	1.0	71.0	dot_pattern_expectancy	71.0	0.444	probe	BY	s582	False
315.751	0.5	315.75	0.5	AX	n/a	n/a	dot_pattern_expectancy	-1.0	n/a	cue	AX	s582	False
318.255	0.5	319.341	1.5	AX	0.0	89.0	dot_pattern_expectancy	71.0	1.086	probe	AX	s582	False
319.757	0.5	319.756	0.5	BY	n/a	n/a	dot_pattern_expectancy	-1.0	n/a	cue	BY	s582	False
322.263	0.5	323.148	2.452	BY	1.0	71.0	dot_pattern_expectancy	71.0	0.885	probe	BY	s582	False
324.719	0.5	324.718	0.5	AX	n/a	n/a	dot_pattern_expectancy	-1.0	n/a	cue	AX	s582	False
327.225	0.5	327.82	1.636	AX	1.0	89.0	dot_pattern_expectancy	89.0	0.595	probe	AX	s582	False
328.865	0.5	328.864	0.5	AX	n/a	n/a	dot_pattern_expectancy	-1.0	n/a	cue	AX	s582	False
331.372	0.5	331.891	1.636	AX	1.0	89.0	dot_pattern_expectancy	89.0	0.519	probe	AX	s582	False
333.015	0.5	333.014	0.5	BX	n/a	n/a	dot_pattern_expectancy	-1.0	n/a	cue	BX	s582	False
335.519	0.5	335.878	1.5	BX	1.0	71.0	dot_pattern_expectancy	71.0	0.359	probe	BX	s582	False
337.026	0.5	337.025	0.5	BX	n/a	n/a	dot_pattern_expectancy	-1.0	n/a	cue	BX	s582	False
339.535	0.5	340.51	1.5	BX	1.0	71.0	dot_pattern_expectancy	71.0	0.975	probe	BX	s582	False
341.04	0.5	341.039	0.5	AX	n/a	n/a	dot_pattern_expectancy	-1.0	n/a	cue	AX	s582	False
343.546	0.5	344.222	2.316	AX	1.0	89.0	dot_pattern_expectancy	89.0	0.676	probe	AX	s582	False
345.864	0.5	345.863	0.5	AY	n/a	n/a	dot_pattern_expectancy	-1.0	n/a	cue	AY	s582	False
348.373	0.5	348.998	2.044	AY	1.0	71.0	dot_pattern_expectancy	71.0	0.625	probe	AY	s582	False
350.419	0.5	350.418	0.5	AX	n/a	n/a	dot_pattern_expectancy	-1.0	n/a	cue	AX	s582	False
352.923	0.5	353.657	3.948	AX	1.0	89.0	dot_pattern_expectancy	89.0	0.734	probe	AX	s582	False
356.878	0.5	356.877	0.5	AX	n/a	n/a	dot_pattern_expectancy	-1.0	n/a	cue	AX	s582	False
359.383	0.5	359.855	1.636	AX	1.0	89.0	dot_pattern_expectancy	89.0	0.472	probe	AX	s582	False
371.539	0.5	371.538	0.5	AY	n/a	n/a	dot_pattern_expectancy	-1.0	n/a	cue	AY	s582	False
374.046	0.5	374.789	1.636	AY	1.0	71.0	dot_pattern_expectancy	71.0	0.743	probe	AY	s582	False
375.684	0.5	375.683	0.5	AX	n/a	n/a	dot_pattern_expectancy	-1.0	n/a	cue	AX	s582	False
378.193	0.5	378.679	1.636	AX	1.0	89.0	dot_pattern_expectancy	89.0	0.486	probe	AX	s582	False
379.836	0.5	379.835	0.5	AX	n/a	n/a	dot_pattern_expectancy	-1.0	n/a	cue	AX	s582	False
382.342	0.5	382.822	1.5	AX	1.0	89.0	dot_pattern_expectancy	89.0	0.48	probe	AX	s582	False
383.844	0.5	383.843	0.5	AX	n/a	n/a	dot_pattern_expectancy	-1.0	n/a	cue	AX	s582	False
386.353	0.5	386.831	1.5	AX	1.0	89.0	dot_pattern_expectancy	89.0	0.478	probe	AX	s582	False
387.855	0.5	387.854	0.5	AX	n/a	n/a	dot_pattern_expectancy	-1.0	n/a	cue	AX	s582	False
390.361	0.5	391.068	1.908	AX	1.0	89.0	dot_pattern_expectancy	89.0	0.707	probe	AX	s582	False
392.271	0.5	392.27	0.5	BX	n/a	n/a	dot_pattern_expectancy	-1.0	n/a	cue	BX	s582	False
394.78	0.5	395.116	1.636	BX	1.0	71.0	dot_pattern_expectancy	71.0	0.336	probe	BX	s582	False
396.42	0.5	396.419	0.5	AX	n/a	n/a	dot_pattern_expectancy	-1.0	n/a	cue	AX	s582	False
398.93	0.5	399.626	2.044	AX	1.0	89.0	dot_pattern_expectancy	89.0	0.696	probe	AX	s582	False
400.98	0.5	400.979	0.5	AX	n/a	n/a	dot_pattern_expectancy	-1.0	n/a	cue	AX	s582	False
403.492	0.5	404.01	1.772	AX	1.0	89.0	dot_pattern_expectancy	89.0	0.518	probe	AX	s582	False
405.268	0.5	405.267	0.5	AX	n/a	n/a	dot_pattern_expectancy	-1.0	n/a	cue	AX	s582	False
407.78	0.5	408.299	1.5	AX	1.0	89.0	dot_pattern_expectancy	89.0	0.519	probe	AX	s582	False
409.284	0.5	409.283	0.5	AX	n/a	n/a	dot_pattern_expectancy	-1.0	n/a	cue	AX	s582	False
411.791	0.5	412.294	2.18	AX	1.0	89.0	dot_pattern_expectancy	89.0	0.503	probe	AX	s582	False
413.973	0.5	413.972	0.5	AX	n/a	n/a	dot_pattern_expectancy	-1.0	n/a	cue	AX	s582	False
416.476	0.5	416.966	1.5	AX	1.0	89.0	dot_pattern_expectancy	89.0	0.49	probe	AX	s582	False
417.978	0.5	417.977	0.5	BX	n/a	n/a	dot_pattern_expectancy	-1.0	n/a	cue	BX	s582	False
420.487	0.5	420.978	3.676	BX	1.0	71.0	dot_pattern_expectancy	71.0	0.491	probe	BX	s582	False
424.165	0.5	424.164	0.5	BY	n/a	n/a	dot_pattern_expectancy	-1.0	n/a	cue	BY	s582	False
426.672	0.5	427.407	1.636	BY	1.0	71.0	dot_pattern_expectancy	71.0	0.735	probe	BY	s582	False
428.309	0.5	428.308	0.5	BY	n/a	n/a	dot_pattern_expectancy	-1.0	n/a	cue	BY	s582	False
430.816	0.5	431.593	1.636	BY	1.0	71.0	dot_pattern_expectancy	71.0	0.777	probe	BY	s582	False
432.458	0.5	432.457	0.5	BX	n/a	n/a	dot_pattern_expectancy	-1.0	n/a	cue	BX	s582	False
434.962	0.5	435.633	1.5	BX	1.0	71.0	dot_pattern_expectancy	71.0	0.671	probe	BX	s582	False
436.464	0.5	436.463	0.5	AX	n/a	n/a	dot_pattern_expectancy	-1.0	n/a	cue	AX	s582	False
438.972	0.5	439.738	1.908	AX	1.0	89.0	dot_pattern_expectancy	89.0	0.766	probe	AX	s582	False
440.886	0.5	440.885	0.5	AX	n/a	n/a	dot_pattern_expectancy	-1.0	n/a	cue	AX	s582	False
443.392	0.5	444.007	1.636	AX	1.0	89.0	dot_pattern_expectancy	89.0	0.615	probe	AX	s582	False
445.035	0.5	445.034	0.5	BX	n/a	n/a	dot_pattern_expectancy	-1.0	n/a	cue	BX	s582	False
447.544	0.5	447.886	1.5	BX	0.0	71.0	dot_pattern_expectancy	89.0	0.342	probe	BX	s582	False
449.047	0.5	449.046	0.5	AX	n/a	n/a	dot_pattern_expectancy	-1.0	n/a	cue	AX	s582	False
451.552	0.5	452.029	1.908	AX	1.0	89.0	dot_pattern_expectancy	89.0	0.477	probe	AX	s582	False
453.467	0.5	453.466	0.5	BY	n/a	n/a	dot_pattern_expectancy	-1.0	n/a	cue	BY	s582	False
455.974	0.5	456.374	2.18	BY	1.0	71.0	dot_pattern_expectancy	71.0	0.4	probe	BY	s582	False
458.161	0.5	458.16	0.5	AX	n/a	n/a	dot_pattern_expectancy	-1.0	n/a	cue	AX	s582	False
460.67	0.5	461.14	1.772	AX	1.0	89.0	dot_pattern_expectancy	89.0	0.47	probe	AX	s582	False
462.449	0.5	462.448	0.5	AX	n/a	n/a	dot_pattern_expectancy	-1.0	n/a	cue	AX	s582	False
464.958	0.5	465.506	1.5	AX	1.0	89.0	dot_pattern_expectancy	89.0	0.548	probe	AX	s582	False
466.46	0.5	466.459	0.5	AX	n/a	n/a	dot_pattern_expectancy	-1.0	n/a	cue	AX	s582	False
468.971	0.5	469.598	1.5	AX	1.0	89.0	dot_pattern_expectancy	89.0	0.627	probe	AX	s582	False
470.476	0.5	470.475	0.5	AX	n/a	n/a	dot_pattern_expectancy	-1.0	n/a	cue	AX	s582	False
472.985	0.5	473.368	2.044	AX	1.0	89.0	dot_pattern_expectancy	89.0	0.383	probe	AX	s582	False
475.031	0.5	475.03	0.5	AX	n/a	n/a	dot_pattern_expectancy	-1.0	n/a	cue	AX	s582	False
477.54	0.5	478.175	2.86	AX	1.0	89.0	dot_pattern_expectancy	89.0	0.635	probe	AX	s582	False
480.401	0.5	480.4	0.5	BX	n/a	n/a	dot_pattern_expectancy	-1.0	n/a	cue	BX	s582	False
482.911	0.5	483.43	1.5	BX	1.0	71.0	dot_pattern_expectancy	71.0	0.519	probe	BX	s582	False
484.416	0.5	484.415	0.5	BY	n/a	n/a	dot_pattern_expectancy	-1.0	n/a	cue	BY	s582	False
486.927	0.5	487.253	1.772	BY	1.0	71.0	dot_pattern_expectancy	71.0	0.326	probe	BY	s582	False
488.706	0.5	488.705	0.5	AX	n/a	n/a	dot_pattern_expectancy	-1.0	n/a	cue	AX	s582	False
491.212	0.5	491.711	1.772	AX	1.0	89.0	dot_pattern_expectancy	89.0	0.499	probe	AX	s582	False
492.989	0.5	492.988	0.5	AX	n/a	n/a	dot_pattern_expectancy	-1.0	n/a	cue	AX	s582	False
495.5	0.5	495.996	2.86	AX	1.0	89.0	dot_pattern_expectancy	89.0	0.496	probe	AX	s582	False
498.363	0.5	498.362	0.5	AX	n/a	n/a	dot_pattern_expectancy	-1.0	n/a	cue	AX	s582	False
500.872	0.5	501.404	1.772	AX	1.0	89.0	dot_pattern_expectancy	89.0	0.532	probe	AX	s582	False
502.647	0.5	502.646	0.5	BX	n/a	n/a	dot_pattern_expectancy	-1.0	n/a	cue	BX	s582	False
505.158	0.5	506.089	1.636	BX	1.0	71.0	dot_pattern_expectancy	71.0	0.931	probe	BX	s582	False
506.797	0.5	506.796	0.5	BX	n/a	n/a	dot_pattern_expectancy	-1.0	n/a	cue	BX	s582	False
509.303	0.5	510.45	2.452	BX	1.0	71.0	dot_pattern_expectancy	71.0	1.147	probe	BX	s582	False
511.757	0.5	511.756	0.5	AX	n/a	n/a	dot_pattern_expectancy	-1.0	n/a	cue	AX	s582	False
514.269	0.5	514.829	1.636	AX	0.0	89.0	dot_pattern_expectancy	71.0	0.56	probe	AX	s582	False
515.912	0.5	515.911	0.5	BX	n/a	n/a	dot_pattern_expectancy	-1.0	n/a	cue	BX	s582	False
518.421	0.5	518.898	1.5	BX	1.0	71.0	dot_pattern_expectancy	71.0	0.477	probe	BX	s582	False
519.927	0.5	519.926	0.5	AX	n/a	n/a	dot_pattern_expectancy	-1.0	n/a	cue	AX	s582	False
522.434	0.5	523.186	1.636	AX	1.0	89.0	dot_pattern_expectancy	89.0	0.752	probe	AX	s582	False
524.072	0.5	524.071	0.5	AX	n/a	n/a	dot_pattern_expectancy	-1.0	n/a	cue	AX	s582	False
526.579	0.5	527.11	1.636	AX	1.0	89.0	dot_pattern_expectancy	89.0	0.531	probe	AX	s582	False
528.216	0.5	528.215	0.5	BY	n/a	n/a	dot_pattern_expectancy	-1.0	n/a	cue	BY	s582	False
530.728	0.5	531.163	2.18	BY	1.0	71.0	dot_pattern_expectancy	71.0	0.435	probe	BY	s582	False
532.915	0.5	532.914	0.5	AX	n/a	n/a	dot_pattern_expectancy	-1.0	n/a	cue	AX	s582	False
535.424	0.5	536.021	1.5	AX	1.0	89.0	dot_pattern_expectancy	89.0	0.597	probe	AX	s582	False
536.931	0.5	536.93	0.5	AY	n/a	n/a	dot_pattern_expectancy	-1.0	n/a	cue	AY	s582	False
539.438	0.5	540.217	1.636	AY	1.0	71.0	dot_pattern_expectancy	71.0	0.779	probe	AY	s582	False
541.075	0.5	541.074	0.5	AX	n/a	n/a	dot_pattern_expectancy	-1.0	n/a	cue	AX	s582	False
543.585	0.5	545.153	1.636	AX	1.0	89.0	dot_pattern_expectancy	89.0	1.568	probe	AX	s582	False
555.737	0.5	555.736	0.5	AX	n/a	n/a	dot_pattern_expectancy	-1.0	n/a	cue	AX	s582	False
558.244	0.5	558.772	2.18	AX	1.0	89.0	dot_pattern_expectancy	89.0	0.528	probe	AX	s582	False
560.425	0.5	560.424	0.5	AY	n/a	n/a	dot_pattern_expectancy	-1.0	n/a	cue	AY	s582	False
562.933	0.5	563.624	2.316	AY	1.0	71.0	dot_pattern_expectancy	71.0	0.691	probe	AY	s582	False
565.252	0.5	565.251	0.5	AY	n/a	n/a	dot_pattern_expectancy	-1.0	n/a	cue	AY	s582	False
567.758	0.5	568.36	1.636	AY	1.0	71.0	dot_pattern_expectancy	71.0	0.602	probe	AY	s582	False
569.396	0.5	569.395	0.5	BX	n/a	n/a	dot_pattern_expectancy	-1.0	n/a	cue	BX	s582	False
571.903	0.5	572.433	1.908	BX	1.0	71.0	dot_pattern_expectancy	71.0	0.53	probe	BX	s582	False
573.812	0.5	573.811	0.5	AX	n/a	n/a	dot_pattern_expectancy	-1.0	n/a	cue	AX	s582	False
576.319	0.5	576.945	3.54	AX	1.0	89.0	dot_pattern_expectancy	89.0	0.626	probe	AX	s582	False
579.86	0.5	579.859	0.5	BX	n/a	n/a	dot_pattern_expectancy	-1.0	n/a	cue	BX	s582	False
582.367	0.5	582.894	1.636	BX	1.0	71.0	dot_pattern_expectancy	71.0	0.527	probe	BX	s582	False
584.004	0.5	584.003	0.5	BY	n/a	n/a	dot_pattern_expectancy	-1.0	n/a	cue	BY	s582	False
586.515	0.5	587.592	1.5	BY	1.0	71.0	dot_pattern_expectancy	71.0	1.077	probe	BY	s582	False
588.02	0.5	588.019	0.5	AX	n/a	n/a	dot_pattern_expectancy	-1.0	n/a	cue	AX	s582	False
590.53	0.5	591.186	1.5	AX	1.0	89.0	dot_pattern_expectancy	89.0	0.656	probe	AX	s582	False
592.037	0.5	592.036	0.5	AX	n/a	n/a	dot_pattern_expectancy	-1.0	n/a	cue	AX	s582	False
594.546	0.5	595.025	1.772	AX	1.0	89.0	dot_pattern_expectancy	89.0	0.479	probe	AX	s582	False
596.325	0.5	596.324	0.5	BY	n/a	n/a	dot_pattern_expectancy	-1.0	n/a	cue	BY	s582	False
598.837	0.5	599.19	2.452	BY	1.0	71.0	dot_pattern_expectancy	71.0	0.353	probe	BY	s582	False
601.291	0.5	601.29	0.5	AX	n/a	n/a	dot_pattern_expectancy	-1.0	n/a	cue	AX	s582	False
603.797	0.5	604.287	1.908	AX	1.0	89.0	dot_pattern_expectancy	89.0	0.49	probe	AX	s582	False
605.707	0.5	605.706	0.5	BX	n/a	n/a	dot_pattern_expectancy	-1.0	n/a	cue	BX	s582	False
608.217	0.5	608.587	1.636	BX	1.0	71.0	dot_pattern_expectancy	71.0	0.37	probe	BX	s582	False
609.856	0.5	609.855	0.5	AX	n/a	n/a	dot_pattern_expectancy	-1.0	n/a	cue	AX	s582	False
612.365	0.5	612.863	1.5	AX	1.0	89.0	dot_pattern_expectancy	89.0	0.498	probe	AX	s582	False
613.872	0.5	613.871	0.5	AX	n/a	n/a	dot_pattern_expectancy	-1.0	n/a	cue	AX	s582	False
616.379	0.5	616.819	1.636	AX	1.0	89.0	dot_pattern_expectancy	89.0	0.44	probe	AX	s582	False
618.021	0.5	618.02	0.5	AX	n/a	n/a	dot_pattern_expectancy	-1.0	n/a	cue	AX	s582	False
620.533	0.5	621.134	1.636	AX	1.0	89.0	dot_pattern_expectancy	89.0	0.601	probe	AX	s582	False
622.176	0.5	622.175	0.5	BY	n/a	n/a	dot_pattern_expectancy	-1.0	n/a	cue	BY	s582	False
624.683	0.5	625.049	2.452	BY	1.0	71.0	dot_pattern_expectancy	71.0	0.366	probe	BY	s582	False
627.136	0.5	627.135	0.5	AX	n/a	n/a	dot_pattern_expectancy	-1.0	n/a	cue	AX	s582	False
629.64	0.5	630.243	1.5	AX	1.0	89.0	dot_pattern_expectancy	89.0	0.603	probe	AX	s582	False
631.142	0.5	631.141	0.5	BY	n/a	n/a	dot_pattern_expectancy	-1.0	n/a	cue	BY	s582	False
633.651	0.5	634.034	1.5	BY	1.0	71.0	dot_pattern_expectancy	71.0	0.383	probe	BY	s582	False
635.156	0.5	635.155	0.5	AX	n/a	n/a	dot_pattern_expectancy	-1.0	n/a	cue	AX	s582	False
637.659	0.5	638.125	1.636	AX	1.0	89.0	dot_pattern_expectancy	89.0	0.466	probe	AX	s582	False
639.297	0.5	639.296	0.5	AX	n/a	n/a	dot_pattern_expectancy	-1.0	n/a	cue	AX	s582	False
641.803	0.5	642.417	1.636	AX	1.0	89.0	dot_pattern_expectancy	89.0	0.614	probe	AX	s582	False
643.441	0.5	643.44	0.5	AY	n/a	n/a	dot_pattern_expectancy	-1.0	n/a	cue	AY	s582	False
645.948	0.5	645.947	1.636	AY	0.0	71.0	dot_pattern_expectancy	-1.0	n/a	probe	AY	s582	False
647.59	0.5	647.589	0.5	AX	n/a	n/a	dot_pattern_expectancy	-1.0	n/a	cue	AX	s582	False
650.097	0.5	650.831	1.5	AX	1.0	89.0	dot_pattern_expectancy	89.0	0.734	probe	AX	s582	False
651.601	0.5	651.6	0.5	AX	n/a	n/a	dot_pattern_expectancy	-1.0	n/a	cue	AX	s582	False
654.11	0.5	654.554	1.5	AX	1.0	89.0	dot_pattern_expectancy	89.0	0.444	probe	AX	s582	False
655.617	0.5	655.616	0.5	AX	n/a	n/a	dot_pattern_expectancy	-1.0	n/a	cue	AX	s582	False
658.126	0.5	658.611	1.772	AX	1.0	89.0	dot_pattern_expectancy	89.0	0.485	probe	AX	s582	False
659.905	0.5	659.904	0.5	AX	n/a	n/a	dot_pattern_expectancy	-1.0	n/a	cue	AX	s582	False
662.412	0.5	662.944	2.18	AX	1.0	89.0	dot_pattern_expectancy	89.0	0.532	probe	AX	s582	False
664.594	0.5	664.593	0.5	BX	n/a	n/a	dot_pattern_expectancy	-1.0	n/a	cue	BX	s582	False
667.099	0.5	667.793	1.772	BX	1.0	71.0	dot_pattern_expectancy	71.0	0.694	probe	BX	s582	False
668.876	0.5	668.875	0.5	BY	n/a	n/a	dot_pattern_expectancy	-1.0	n/a	cue	BY	s582	False
671.387	0.5	672.339	1.5	BY	1.0	71.0	dot_pattern_expectancy	71.0	0.952	probe	BY	s582	False
672.892	0.5	672.891	0.5	AX	n/a	n/a	dot_pattern_expectancy	-1.0	n/a	cue	AX	s582	False
675.402	0.5	676.149	1.5	AX	1.0	89.0	dot_pattern_expectancy	89.0	0.747	probe	AX	s582	False
676.903	0.5	676.902	0.5	AX	n/a	n/a	dot_pattern_expectancy	-1.0	n/a	cue	AX	s582	False
679.41	0.5	680.482	1.636	AX	1.0	89.0	dot_pattern_expectancy	89.0	1.072	probe	AX	s582	False
681.047	0.5	681.046	0.5	AY	n/a	n/a	dot_pattern_expectancy	-1.0	n/a	cue	AY	s582	False
683.554	0.5	684.434	2.18	AY	1.0	71.0	dot_pattern_expectancy	71.0	0.88	probe	AY	s582	False
685.736	0.5	685.735	0.5	AY	n/a	n/a	dot_pattern_expectancy	-1.0	n/a	cue	AY	s582	False
688.245	0.5	688.802	2.316	AY	1.0	71.0	dot_pattern_expectancy	71.0	0.557	probe	AY	s582	False
690.568	0.5	690.567	0.5	BX	n/a	n/a	dot_pattern_expectancy	-1.0	n/a	cue	BX	s582	False
693.075	0.5	693.59	1.636	BX	1.0	71.0	dot_pattern_expectancy	71.0	0.515	probe	BX	s582	False
694.717	0.5	694.716	0.5	BX	n/a	n/a	dot_pattern_expectancy	-1.0	n/a	cue	BX	s582	False
697.224	0.5	697.786	2.18	BX	1.0	71.0	dot_pattern_expectancy	71.0	0.562	probe	BX	s582	False
699.411	0.5	699.41	0.5	AY	n/a	n/a	dot_pattern_expectancy	-1.0	n/a	cue	AY	s582	False
701.92	0.5	702.534	2.044	AY	1.0	71.0	dot_pattern_expectancy	71.0	0.614	probe	AY	s582	False
703.971	0.5	703.97	0.5	AX	n/a	n/a	dot_pattern_expectancy	-1.0	n/a	cue	AX	s582	False
706.48	0.5	707.103	1.772	AX	1.0	89.0	dot_pattern_expectancy	89.0	0.623	probe	AX	s582	False
708.254	0.5	708.253	0.5	AX	n/a	n/a	dot_pattern_expectancy	-1.0	n/a	cue	AX	s582	False
710.763	0.5	711.311	1.5	AX	1.0	89.0	dot_pattern_expectancy	89.0	0.548	probe	AX	s582	False
712.265	0.5	712.264	0.5	AX	n/a	n/a	dot_pattern_expectancy	-1.0	n/a	cue	AX	s582	False
714.771	0.5	715.263	2.18	AX	1.0	89.0	dot_pattern_expectancy	89.0	0.492	probe	AX	s582	False
716.956	0.5	716.955	0.5	AY	n/a	n/a	dot_pattern_expectancy	-1.0	n/a	cue	AY	s582	False
719.463	0.5	720.155	2.452	AY	1.0	71.0	dot_pattern_expectancy	71.0	0.692	probe	AY	s582	False
721.918	0.5	721.917	0.5	AX	n/a	n/a	dot_pattern_expectancy	-1.0	n/a	cue	AX	s582	False
724.425	0.5	725.055	1.636	AX	1.0	89.0	dot_pattern_expectancy	89.0	0.63	probe	AX	s582	False
726.062	0.5	726.061	0.5	AX	n/a	n/a	dot_pattern_expectancy	-1.0	n/a	cue	AX	s582	False
728.569	0.5	729.198	1.908	AX	1.0	89.0	dot_pattern_expectancy	89.0	0.629	probe	AX	s582	False
