onset	duration	movement_onset	EV	action	block_duration	experiment_exp_id	gain_amount	gain_probability	key_press	loss_amount	loss_probability	num_cards	num_click_in_round	num_loss_cards	risk	response_time	total_cards	trial_id	trial_type	worker_id	junk	feedback
3.014	5.847	8.861	-0.4595448553971279	draw_card	5.847	columbia_card_task_fmri	12.0	0.8333333333333334	89.0	-70.0	0.1666666666666666	6.0	1.0	1.0	-3.0367380487559466	5.847	n/a	stim	poldrack-single-stim	s583	False	1
8.865	2.367	11.232	-3.1928781887304605	draw_card	2.367	columbia_card_task_fmri	12.0	0.8	89.0	-70.0	0.2	6.0	2.0	1.0	-0.797960425158486	2.367	n/a	stim	poldrack-single-stim	s583	False	1
11.235	2.222	13.457	-7.292878188730462	draw_card	2.222	columbia_card_task_fmri	12.0	0.75	89.0	-70.0	0.25	6.0	3.0	1.0	1.9073892457831436	2.222	n/a	stim	poldrack-single-stim	s583	False	1
13.459	1.559	15.018	-14.126211522063794	end_round	1.559	columbia_card_task_fmri	12.0	0.6666666666666667	71.0	-70.0	0.3333333333333333	6.0	4.0	1.0	5.053848627261012	1.559	3.0	stim	poldrack-single-stim	s583	False	1
15.771	1.5	15.02	n/a	-1.0	2.318	columbia_card_task_fmri	n/a	n/a	-1.0	n/a	n/a	n/a	n/a	n/a	n/a	n/a	n/a	ITI	poldrack-single-stim	s583	False	0
17.342	4.248	21.59	0.3737884779362059	draw_card	4.248	columbia_card_task_fmri	14.0	0.8333333333333334	89.0	-75.0	0.1666666666666666	6.0	1.0	1.0	-0.429865186558267	4.248	n/a	stim	poldrack-single-stim	s583	False	1
21.592	2.116	23.708	-2.592878188730461	draw_card	2.116	columbia_card_task_fmri	14.0	0.8	89.0	-75.0	0.2	6.0	2.0	1.0	2.000294157658104	2.116	n/a	stim	poldrack-single-stim	s583	False	1
23.71	2.086	25.796	-7.042878188730462	draw_card	2.086	columbia_card_task_fmri	14.0	0.75	89.0	-75.0	0.25	6.0	3.0	1.0	4.93686559010078	2.086	n/a	stim	poldrack-single-stim	s583	False	1
25.798	2.477	28.275	-14.459544855397128	draw_card	2.477	columbia_card_task_fmri	14.0	0.6666666666666667	89.0	-75.0	0.3333333333333333	6.0	4.0	1.0	8.35219884855421	2.477	4.0	stim	poldrack-single-stim	s583	False	0
29.03	1.5	28.279	n/a	-1.0	2.318	columbia_card_task_fmri	n/a	n/a	-1.0	n/a	n/a	n/a	n/a	n/a	n/a	n/a	n/a	ITI	poldrack-single-stim	s583	False	0
30.6	2.695	33.295	2.040455144602872	draw_card	2.695	columbia_card_task_fmri	15.0	0.8333333333333334	89.0	-70.0	0.1666666666666666	6.0	1.0	1.0	-1.9195445581664887	2.695	1.0	stim	poldrack-single-stim	s583	False	0
34.049	1.5	33.298	n/a	-1.0	2.862	columbia_card_task_fmri	n/a	n/a	-1.0	n/a	n/a	n/a	n/a	n/a	n/a	n/a	n/a	ITI	poldrack-single-stim	s583	False	0
36.162	3.733	39.895	2.873788477936206	draw_card	3.733	columbia_card_task_fmri	17.0	0.8333333333333334	89.0	-75.0	0.1666666666666666	6.0	1.0	1.0	0.6874532116229304	3.733	n/a	stim	poldrack-single-stim	s583	False	1
39.896	2.478	42.374	-0.1928781887304604	draw_card	2.478	columbia_card_task_fmri	17.0	0.8	89.0	-75.0	0.2	6.0	2.0	1.0	3.199627361029208	2.478	2.0	stim	poldrack-single-stim	s583	False	0
43.129	1.5	42.378	n/a	-1.0	2.726	columbia_card_task_fmri	n/a	n/a	-1.0	n/a	n/a	n/a	n/a	n/a	n/a	n/a	n/a	ITI	poldrack-single-stim	s583	False	0
45.106	3.237	48.343	4.207121811269538	draw_card	3.237	columbia_card_task_fmri	24.0	0.75	89.0	-60.0	0.25	8.0	1.0	2.0	2.772926513338128	3.237	n/a	stim	poldrack-single-stim	s583	False	1
48.345	2.935	51.28	1.207121811269538	draw_card	2.935	columbia_card_task_fmri	24.0	0.7142857142857143	89.0	-60.0	0.2857142857142857	8.0	2.0	2.0	4.346361157447689	2.935	n/a	stim	poldrack-single-stim	s583	False	1
51.282	2.409	53.691	-2.792878188730462	draw_card	2.409	columbia_card_task_fmri	24.0	0.6666666666666667	89.0	-60.0	0.3333333333333333	8.0	3.0	2.0	5.996209227842599	2.409	3.0	stim	poldrack-single-stim	s583	False	0
54.447	1.5	53.696	n/a	-1.0	2.25	columbia_card_task_fmri	n/a	n/a	-1.0	n/a	n/a	n/a	n/a	n/a	n/a	n/a	n/a	ITI	poldrack-single-stim	s583	False	0
55.949	3.147	59.096	4.207121811269538	draw_card	3.147	columbia_card_task_fmri	29.0	0.75	89.0	-75.0	0.25	8.0	1.0	2.0	11.4293311349033	3.147	n/a	stim	poldrack-single-stim	s583	False	1
59.098	2.337	61.435	0.4928360969838263	draw_card	2.337	columbia_card_task_fmri	29.0	0.7142857142857143	89.0	-75.0	0.2857142857142857	8.0	2.0	2.0	13.37775026236423	2.337	n/a	stim	poldrack-single-stim	s583	False	1
61.437	1.599	63.036	-4.459544855397127	draw_card	1.599	columbia_card_task_fmri	29.0	0.6666666666666667	89.0	-75.0	0.3333333333333333	8.0	3.0	2.0	15.420763355062682	1.599	n/a	stim	poldrack-single-stim	s583	False	1
63.038	2.267	65.305	-11.392878188730464	end_round	2.267	columbia_card_task_fmri	29.0	0.6	71.0	-75.0	0.4	8.0	4.0	2.0	17.34351909581882	2.267	3.0	stim	poldrack-single-stim	s583	False	1
66.061	1.5	65.31	n/a	-1.0	2.318	columbia_card_task_fmri	n/a	n/a	-1.0	n/a	n/a	n/a	n/a	n/a	n/a	n/a	n/a	ITI	poldrack-single-stim	s583	False	0
67.63	3.34	70.97	-0.0151004109526815	draw_card	3.34	columbia_card_task_fmri	17.0	0.7777777777777778	89.0	-65.0	0.2222222222222222	9.0	1.0	2.0	0.4918556303198684	3.34	n/a	stim	poldrack-single-stim	s583	False	1
70.972	1.442	72.414	-2.292878188730462	draw_card	1.442	columbia_card_task_fmri	17.0	0.75	89.0	-65.0	0.25	9.0	2.0	2.0	1.9073892457831436	1.442	n/a	stim	poldrack-single-stim	s583	False	1
72.415	1.787	74.202	-5.221449617301889	draw_card	1.787	columbia_card_task_fmri	17.0	0.7142857142857143	89.0	-65.0	0.2857142857142857	9.0	3.0	2.0	3.44332117232846	1.787	n/a	stim	poldrack-single-stim	s583	False	1
74.205	2.365	76.57	-9.126211522063793	draw_card	2.365	columbia_card_task_fmri	17.0	0.6666666666666667	89.0	-65.0	0.3333333333333333	9.0	4.0	2.0	5.053848627261012	2.365	n/a	stim	poldrack-single-stim	s583	False	1
76.572	1.456	78.028	-14.592878188730465	end_round	1.456	columbia_card_task_fmri	17.0	0.6	71.0	-65.0	0.4	9.0	5.0	2.0	6.569598702190113	1.456	4.0	stim	poldrack-single-stim	s583	False	1
78.784	1.5	78.033	n/a	-1.0	2.454	columbia_card_task_fmri	n/a	n/a	-1.0	n/a	n/a	n/a	n/a	n/a	n/a	n/a	n/a	ITI	poldrack-single-stim	s583	False	0
80.49	3.234	83.724	4.307121811269537	draw_card	3.234	columbia_card_task_fmri	14.0	0.9	89.0	-95.0	0.1	10.0	1.0	1.0	-0.897892566016651	3.234	n/a	stim	poldrack-single-stim	s583	False	1
83.726	3.157	86.883	3.0960107001584256	draw_card	3.157	columbia_card_task_fmri	14.0	0.8888888888888888	89.0	-95.0	0.1111111111111111	10.0	2.0	1.0	0.6564919343128466	3.157	2.0	stim	poldrack-single-stim	s583	False	0
87.635	1.5	86.884	n/a	-1.0	2.522	columbia_card_task_fmri	n/a	n/a	-1.0	n/a	n/a	n/a	n/a	n/a	n/a	n/a	n/a	ITI	poldrack-single-stim	s583	False	0
89.409	2.886	92.295	0.2071218112695381	draw_card	2.886	columbia_card_task_fmri	15.0	0.8	89.0	-65.0	0.2	10.0	1.0	2.0	-1.5974056891384478	2.886	n/a	stim	poldrack-single-stim	s583	False	1
92.298	1.914	94.212	-1.570655966508239	draw_card	1.914	columbia_card_task_fmri	15.0	0.7777777777777778	89.0	-65.0	0.2222222222222222	10.0	2.0	2.0	-0.3390900137454196	1.914	n/a	stim	poldrack-single-stim	s583	False	1
94.213	1.886	96.099	-3.792878188730462	draw_card	1.886	columbia_card_task_fmri	15.0	0.75	89.0	-65.0	0.25	10.0	3.0	2.0	1.0418763633689636	1.886	n/a	stim	poldrack-single-stim	s583	False	1
96.1	1.636	97.736	-6.650021045873316	end_round	1.636	columbia_card_task_fmri	15.0	0.7142857142857143	71.0	-65.0	0.2857142857142857	10.0	4.0	2.0	2.540304564011606	1.636	3.0	stim	poldrack-single-stim	s583	False	1
98.489	1.5	97.738	n/a	-1.0	2.318	columbia_card_task_fmri	n/a	n/a	-1.0	n/a	n/a	n/a	n/a	n/a	n/a	n/a	n/a	ITI	poldrack-single-stim	s583	False	0
100.058	2.298	102.356	1.8071218112695395	draw_card	2.298	columbia_card_task_fmri	17.0	0.8	89.0	-65.0	0.2	10.0	1.0	2.0	-0.797960425158486	2.298	n/a	stim	poldrack-single-stim	s583	False	1
102.357	1.755	104.112	-0.0151004109526815	draw_card	1.755	columbia_card_task_fmri	17.0	0.7777777777777778	89.0	-65.0	0.2222222222222222	10.0	2.0	2.0	0.4918556303198684	1.755	n/a	stim	poldrack-single-stim	s583	False	1
104.115	1.537	105.652	-2.292878188730462	draw_card	1.537	columbia_card_task_fmri	17.0	0.75	89.0	-65.0	0.25	10.0	3.0	2.0	1.9073892457831436	1.537	n/a	stim	poldrack-single-stim	s583	False	1
105.654	1.144	106.798	-5.221449617301889	draw_card	1.144	columbia_card_task_fmri	17.0	0.7142857142857143	89.0	-65.0	0.2857142857142857	10.0	4.0	2.0	3.44332117232846	1.144	n/a	stim	poldrack-single-stim	s583	False	1
106.8	0.974	107.774	-9.126211522063793	end_round	0.974	columbia_card_task_fmri	17.0	0.6666666666666667	71.0	-65.0	0.3333333333333333	10.0	5.0	2.0	5.053848627261012	0.974	4.0	stim	poldrack-single-stim	s583	False	1
108.53	1.5	107.779	n/a	-1.0	2.522	columbia_card_task_fmri	n/a	n/a	-1.0	n/a	n/a	n/a	n/a	n/a	n/a	n/a	n/a	ITI	poldrack-single-stim	s583	False	0
110.305	2.46	112.765	0.3737884779362059	draw_card	2.46	columbia_card_task_fmri	13.0	0.8333333333333334	89.0	-70.0	0.1666666666666666	12.0	1.0	2.0	-2.664346961877559	2.46	n/a	stim	poldrack-single-stim	s583	False	1
112.768	1.841	114.609	-0.8837872796395554	draw_card	1.841	columbia_card_task_fmri	13.0	0.8181818181818181	89.0	-70.0	0.1818181818181818	12.0	2.0	2.0	-1.5847622208055654	1.841	n/a	stim	poldrack-single-stim	s583	False	1
114.612	1.766	116.378	-2.392878188730461	draw_card	1.766	columbia_card_task_fmri	13.0	0.8	89.0	-70.0	0.2	12.0	3.0	2.0	-0.3982277779109395	1.766	3.0	stim	poldrack-single-stim	s583	False	0
117.132	1.5	116.381	n/a	-1.0	2.998	columbia_card_task_fmri	n/a	n/a	-1.0	n/a	n/a	n/a	n/a	n/a	n/a	n/a	n/a	ITI	poldrack-single-stim	s583	False	0
119.382	4.198	123.58	0.3737884779362059	draw_card	4.198	columbia_card_task_fmri	15.0	0.8333333333333334	89.0	-80.0	0.1666666666666666	12.0	1.0	2.0	1.8048167643251745	4.198	n/a	stim	poldrack-single-stim	s583	False	1
123.581	2.267	125.848	-1.065605461457737	draw_card	2.267	columbia_card_task_fmri	15.0	0.8181818181818181	89.0	-80.0	0.1818181818181818	12.0	2.0	2.0	3.0407009625659427	2.267	n/a	stim	poldrack-single-stim	s583	False	1
125.85	0.88	126.73	-2.792878188730462	end_round	0.88	columbia_card_task_fmri	15.0	0.8	71.0	-80.0	0.2	12.0	3.0	2.0	4.399002644968007	0.88	2.0	stim	poldrack-single-stim	s583	False	1
127.487	1.5	126.736	n/a	-1.0	2.318	columbia_card_task_fmri	n/a	n/a	-1.0	n/a	n/a	n/a	n/a	n/a	n/a	n/a	n/a	ITI	poldrack-single-stim	s583	False	0
129.058	3.494	132.552	-0.5928781887304608	draw_card	3.494	columbia_card_task_fmri	14.0	0.8	89.0	-65.0	0.2	15.0	1.0	3.0	-1.9971177994901872	3.494	n/a	stim	poldrack-single-stim	s583	False	1
132.554	1.444	133.998	-1.721449617301889	draw_card	1.444	columbia_card_task_fmri	14.0	0.7857142857142857	89.0	-65.0	0.2142857142857142	15.0	2.0	3.0	-1.1819510271620643	1.444	n/a	stim	poldrack-single-stim	s583	False	1
134.0	2.214	136.214	-3.0236474194996936	draw_card	2.214	columbia_card_task_fmri	14.0	0.7692307692307692	89.0	-65.0	0.2307692307692307	15.0	3.0	3.0	-0.3136050576026505	2.214	3.0	stim	poldrack-single-stim	s583	False	0
136.968	1.5	136.217	n/a	-1.0	2.25	columbia_card_task_fmri	n/a	n/a	-1.0	n/a	n/a	n/a	n/a	n/a	n/a	n/a	n/a	ITI	poldrack-single-stim	s583	False	0
138.471	2.334	140.805	-0.6678781887304619	draw_card	2.334	columbia_card_task_fmri	1.0	0.9375	89.0	-45.0	0.0625	16.0	1.0	1.0	-22.42009768505114	2.334	1.0	stim	poldrack-single-stim	s583	False	0
141.56	1.5	140.809	n/a	-1.0	2.454	columbia_card_task_fmri	n/a	n/a	-1.0	n/a	n/a	n/a	n/a	n/a	n/a	n/a	n/a	ITI	poldrack-single-stim	s583	False	0
143.267	2.959	146.226	0.2696218112695381	draw_card	2.959	columbia_card_task_fmri	15.0	0.8125	89.0	-70.0	0.1875	16.0	1.0	3.0	-0.421660416814575	2.959	n/a	stim	poldrack-single-stim	s583	False	1
146.228	1.837	148.065	-0.7928781887304619	draw_card	1.837	columbia_card_task_fmri	15.0	0.8	89.0	-70.0	0.2	16.0	2.0	3.0	0.4012563703626597	1.837	n/a	stim	poldrack-single-stim	s583	False	1
148.068	2.392	150.46	-2.007163903016177	draw_card	2.392	columbia_card_task_fmri	15.0	0.7857142857142857	89.0	-70.0	0.2142857142857142	16.0	3.0	3.0	1.278419396691028	2.392	n/a	stim	poldrack-single-stim	s583	False	1
150.463	2.218	152.681	-3.408262804115078	draw_card	2.218	columbia_card_task_fmri	15.0	0.7692307692307692	89.0	-70.0	0.2307692307692307	16.0	4.0	3.0	2.2128015127928293	2.218	n/a	stim	poldrack-single-stim	s583	False	1
152.683	0.967	153.65	-5.042878188730462	end_round	0.967	columbia_card_task_fmri	15.0	0.75	71.0	-70.0	0.25	16.0	5.0	3.0	3.2057037542299014	0.967	4.0	stim	poldrack-single-stim	s583	False	1
154.405	1.5	153.654	n/a	-1.0	2.318	columbia_card_task_fmri	n/a	n/a	-1.0	n/a	n/a	n/a	n/a	n/a	n/a	n/a	n/a	ITI	poldrack-single-stim	s583	False	0
155.975	3.577	159.552	7.207121811269538	draw_card	3.577	columbia_card_task_fmri	30.0	0.7	89.0	-50.0	0.3	10.0	1.0	3.0	3.060308138119161	3.577	n/a	stim	poldrack-single-stim	s583	False	1
159.555	0.589	160.144	4.540455144602877	end_round	0.589	columbia_card_task_fmri	30.0	0.6666666666666667	71.0	-50.0	0.3333333333333333	10.0	2.0	3.0	4.111510431928906	0.589	1.0	stim	poldrack-single-stim	s583	False	1
160.901	1.5	160.15	n/a	-1.0	2.318	columbia_card_task_fmri	n/a	n/a	-1.0	n/a	n/a	n/a	n/a	n/a	n/a	n/a	n/a	ITI	poldrack-single-stim	s583	False	0
162.472	2.404	164.876	6.607121811269538	draw_card	2.404	columbia_card_task_fmri	17.0	0.8666666666666667	89.0	-70.0	0.1333333333333333	15.0	1.0	2.0	-4.021227247261884	2.404	n/a	stim	poldrack-single-stim	s583	False	1
164.879	1.618	166.497	5.778550382698111	draw_card	1.618	columbia_card_task_fmri	17.0	0.8571428571428572	89.0	-70.0	0.1428571428571428	15.0	2.0	2.0	-3.1525848232057108	1.618	n/a	stim	poldrack-single-stim	s583	False	1
166.5	2.18	168.68	4.822506426654153	draw_card	2.18	columbia_card_task_fmri	17.0	0.8461538461538461	89.0	-70.0	0.1538461538461538	15.0	3.0	2.0	-2.2072580363862784	2.18	n/a	stim	poldrack-single-stim	s583	False	1
168.682	1.471	170.153	3.70712181126954	draw_card	1.471	columbia_card_task_fmri	17.0	0.8333333333333334	89.0	-70.0	0.1666666666666666	15.0	4.0	2.0	-1.1747167291542624	1.471	n/a	stim	poldrack-single-stim	s583	False	1
170.156	2.161	172.317	2.388939993087718	end_round	2.161	columbia_card_task_fmri	17.0	0.8181818181818181	71.0	-70.0	0.1818181818181818	15.0	5.0	2.0	-0.0430291094351957	2.161	4.0	stim	poldrack-single-stim	s583	False	1
173.072	1.5	172.321	n/a	-1.0	2.59	columbia_card_task_fmri	n/a	n/a	-1.0	n/a	n/a	n/a	n/a	n/a	n/a	n/a	n/a	ITI	poldrack-single-stim	s583	False	0
174.916	4.089	179.005	1.832121811269538	end_round	4.089	columbia_card_task_fmri	7.0	0.9375	71.0	-95.0	0.0625	16.0	1.0	1.0	-8.900405787228543	4.089	0.0	stim	poldrack-single-stim	s583	False	1
179.759	1.5	179.008	n/a	-1.0	2.25	columbia_card_task_fmri	n/a	n/a	-1.0	n/a	n/a	n/a	n/a	n/a	n/a	n/a	n/a	ITI	poldrack-single-stim	s583	False	0
181.26	3.752	185.012	3.394621811269538	end_round	3.752	columbia_card_task_fmri	9.0	0.9375	71.0	-100.0	0.0625	16.0	1.0	1.0	-7.207867433434487	3.752	0.0	stim	poldrack-single-stim	s583	False	1
185.765	1.5	185.014	n/a	-1.0	2.25	columbia_card_task_fmri	n/a	n/a	-1.0	n/a	n/a	n/a	n/a	n/a	n/a	n/a	n/a	ITI	poldrack-single-stim	s583	False	0
187.268	3.385	190.653	4.332121811269538	draw_card	3.385	columbia_card_task_fmri	15.0	0.875	89.0	-80.0	0.125	16.0	1.0	2.0	-2.1786877857984344	3.385	n/a	stim	poldrack-single-stim	s583	False	1
190.656	1.833	192.489	3.540455144602872	draw_card	1.833	columbia_card_task_fmri	15.0	0.8666666666666667	89.0	-80.0	0.1333333333333333	16.0	2.0	2.0	-1.3038223464340817	1.833	n/a	stim	poldrack-single-stim	s583	False	1
192.491	2.908	195.399	2.6356932398409687	draw_card	2.908	columbia_card_task_fmri	15.0	0.8571428571428572	89.0	-80.0	0.1428571428571428	16.0	3.0	2.0	-0.355181104535383	2.908	3.0	stim	poldrack-single-stim	s583	False	0
196.154	1.5	195.403	n/a	-1.0	2.522	columbia_card_task_fmri	n/a	n/a	-1.0	n/a	n/a	n/a	n/a	n/a	n/a	n/a	n/a	ITI	poldrack-single-stim	s583	False	0
197.929	2.798	200.727	6.457121811269538	draw_card	2.798	columbia_card_task_fmri	16.0	0.875	89.0	-70.0	0.125	16.0	1.0	2.0	-5.152734186494321	2.798	n/a	stim	poldrack-single-stim	s583	False	1
200.729	1.719	202.448	5.740455144602871	draw_card	1.719	columbia_card_task_fmri	16.0	0.8666666666666667	89.0	-70.0	0.1333333333333333	16.0	2.0	2.0	-4.360875786334638	1.719	n/a	stim	poldrack-single-stim	s583	False	1
202.451	2.391	204.842	4.921407525555253	draw_card	2.391	columbia_card_task_fmri	16.0	0.8571428571428572	89.0	-70.0	0.1428571428571428	16.0	3.0	2.0	-3.502233984097291	2.391	n/a	stim	poldrack-single-stim	s583	False	1
204.845	2.117	206.962	3.9763525805003055	end_round	2.117	columbia_card_task_fmri	16.0	0.8461538461538461	71.0	-70.0	0.1538461538461538	16.0	4.0	2.0	-2.567789661323058	2.117	3.0	stim	poldrack-single-stim	s583	False	1
207.716	1.5	206.965	n/a	-1.0	2.454	columbia_card_task_fmri	n/a	n/a	-1.0	n/a	n/a	n/a	n/a	n/a	n/a	n/a	n/a	ITI	poldrack-single-stim	s583	False	0
209.422	5.268	214.69	7.769621811269538	draw_card	5.268	columbia_card_task_fmri	30.0	0.6875	89.0	-45.0	0.3125	16.0	1.0	5.0	1.1642166261608864	5.268	n/a	stim	poldrack-single-stim	s583	False	1
214.694	0.759	215.453	6.207121811269541	end_round	0.759	columbia_card_task_fmri	30.0	0.6666666666666667	71.0	-45.0	0.3333333333333333	16.0	2.0	5.0	1.7557747164972357	0.759	1.0	stim	poldrack-single-stim	s583	False	1
216.209	1.5	215.458	n/a	-1.0	2.25	columbia_card_task_fmri	n/a	n/a	-1.0	n/a	n/a	n/a	n/a	n/a	n/a	n/a	n/a	ITI	poldrack-single-stim	s583	False	0
217.711	2.79	220.501	-0.4595448553971279	draw_card	2.79	columbia_card_task_fmri	13.0	0.8333333333333334	89.0	-75.0	0.1666666666666666	6.0	1.0	1.0	-0.802293821139962	2.79	n/a	stim	poldrack-single-stim	s583	False	1
220.504	1.643	222.147	-3.392878188730461	draw_card	1.643	columbia_card_task_fmri	13.0	0.8	89.0	-75.0	0.2	6.0	2.0	1.0	1.6005265174410184	1.643	2.0	stim	poldrack-single-stim	s583	False	0
222.903	1.5	222.152	n/a	-1.0	2.454	columbia_card_task_fmri	n/a	n/a	-1.0	n/a	n/a	n/a	n/a	n/a	n/a	n/a	n/a	ITI	poldrack-single-stim	s583	False	0
224.61	2.168	226.778	1.20712181126954	draw_card	2.168	columbia_card_task_fmri	14.0	0.8333333333333334	89.0	-70.0	0.1666666666666666	6.0	1.0	1.0	-2.2919490515233925	2.168	1.0	stim	poldrack-single-stim	s583	False	0
227.536	1.5	226.785	n/a	-1.0	2.454	columbia_card_task_fmri	n/a	n/a	-1.0	n/a	n/a	n/a	n/a	n/a	n/a	n/a	n/a	ITI	poldrack-single-stim	s583	False	0
229.242	2.793	232.035	1.20712181126954	draw_card	2.793	columbia_card_task_fmri	16.0	0.8333333333333334	89.0	-80.0	0.1666666666666666	6.0	1.0	1.0	2.177280585419666	2.793	n/a	stim	poldrack-single-stim	s583	False	1
232.038	0.85	232.888	-1.9928781887304607	end_round	0.85	columbia_card_task_fmri	16.0	0.8	71.0	-80.0	0.2	6.0	2.0	1.0	4.798803076352591	0.85	1.0	stim	poldrack-single-stim	s583	False	1
233.645	1.5	232.894	n/a	-1.0	2.522	columbia_card_task_fmri	n/a	n/a	-1.0	n/a	n/a	n/a	n/a	n/a	n/a	n/a	n/a	ITI	poldrack-single-stim	s583	False	0
235.42	2.248	237.668	3.70712181126954	draw_card	2.248	columbia_card_task_fmri	17.0	0.8333333333333334	89.0	-70.0	0.1666666666666666	6.0	1.0	1.0	-1.1747167291542624	2.248	1.0	stim	poldrack-single-stim	s583	False	0
238.422	1.5	237.671	n/a	-1.0	2.454	columbia_card_task_fmri	n/a	n/a	-1.0	n/a	n/a	n/a	n/a	n/a	n/a	n/a	n/a	ITI	poldrack-single-stim	s583	False	0
240.127	3.903	244.03	3.707121811269538	draw_card	3.903	columbia_card_task_fmri	25.0	0.75	89.0	-65.0	0.25	8.0	1.0	2.0	5.369668386813892	3.903	1.0	stim	poldrack-single-stim	s583	False	0
244.788	1.5	244.037	n/a	-1.0	2.658	columbia_card_task_fmri	n/a	n/a	-1.0	n/a	n/a	n/a	n/a	n/a	n/a	n/a	n/a	ITI	poldrack-single-stim	s583	False	0
246.698	2.239	248.937	3.707121811269538	draw_card	2.239	columbia_card_task_fmri	30.0	0.75	89.0	-80.0	0.25	8.0	1.0	2.0	14.026525332504292	2.239	n/a	stim	poldrack-single-stim	s583	False	1
248.939	0.945	249.884	-0.2214496173018854	end_round	0.945	columbia_card_task_fmri	30.0	0.7142857142857143	71.0	-80.0	0.2857142857142857	8.0	2.0	2.0	16.087428513116997	0.945	1.0	stim	poldrack-single-stim	s583	False	1
250.64	1.5	249.889	n/a	-1.0	2.386	columbia_card_task_fmri	n/a	n/a	-1.0	n/a	n/a	n/a	n/a	n/a	n/a	n/a	n/a	ITI	poldrack-single-stim	s583	False	0
252.28	4.469	256.749	3.407121811269539	end_round	4.469	columbia_card_task_fmri	13.0	0.9	71.0	-95.0	0.1	10.0	1.0	1.0	-1.197686477884183	4.469	0.0	stim	poldrack-single-stim	s583	False	1
257.506	1.5	256.755	n/a	-1.0	2.522	columbia_card_task_fmri	n/a	n/a	-1.0	n/a	n/a	n/a	n/a	n/a	n/a	n/a	n/a	ITI	poldrack-single-stim	s583	False	0
259.281	3.389	262.67	4.807121811269537	end_round	3.389	columbia_card_task_fmri	14.0	0.9	71.0	-90.0	0.1	10.0	1.0	1.0	-2.396822536228335	3.389	0.0	stim	poldrack-single-stim	s583	False	1
263.428	1.5	262.677	n/a	-1.0	2.59	columbia_card_task_fmri	n/a	n/a	-1.0	n/a	n/a	n/a	n/a	n/a	n/a	n/a	n/a	ITI	poldrack-single-stim	s583	False	0
265.27	2.447	267.717	0.0071218112695388	draw_card	2.447	columbia_card_task_fmri	16.0	0.8	89.0	-70.0	0.2	10.0	1.0	2.0	0.80100743348099	2.447	n/a	stim	poldrack-single-stim	s583	False	1
267.721	0.648	268.369	-1.9039892998415728	end_round	0.648	columbia_card_task_fmri	16.0	0.7777777777777778	71.0	-70.0	0.2222222222222222	10.0	2.0	2.0	2.1538213324844406	0.648	1.0	stim	poldrack-single-stim	s583	False	1
269.125	1.5	268.374	n/a	-1.0	2.386	columbia_card_task_fmri	n/a	n/a	-1.0	n/a	n/a	n/a	n/a	n/a	n/a	n/a	n/a	ITI	poldrack-single-stim	s583	False	0
270.763	2.379	273.142	-0.709544855397128	end_round	2.379	columbia_card_task_fmri	7.0	0.9166666666666666	71.0	-100.0	0.0833333333333333	12.0	1.0	1.0	-4.022301817325243	2.379	0.0	stim	poldrack-single-stim	s583	False	1
273.897	1.5	273.146	n/a	-1.0	2.59	columbia_card_task_fmri	n/a	n/a	-1.0	n/a	n/a	n/a	n/a	n/a	n/a	n/a	n/a	ITI	poldrack-single-stim	s583	False	0
275.739	2.063	277.802	-0.4595448553971262	draw_card	2.063	columbia_card_task_fmri	14.0	0.8333333333333334	89.0	-80.0	0.1666666666666666	12.0	1.0	2.0	1.4323574961376335	2.063	n/a	stim	poldrack-single-stim	s583	False	1
277.805	1.635	279.44	-1.8837872796395556	end_round	1.635	columbia_card_task_fmri	14.0	0.8181818181818181	71.0	-80.0	0.1818181818181818	12.0	2.0	2.0	2.6552177133115293	1.635	1.0	stim	poldrack-single-stim	s583	False	1
280.196	1.5	279.445	n/a	-1.0	2.318	columbia_card_task_fmri	n/a	n/a	-1.0	n/a	n/a	n/a	n/a	n/a	n/a	n/a	n/a	ITI	poldrack-single-stim	s583	False	0
281.767	2.617	284.384	1.207121811269538	draw_card	2.617	columbia_card_task_fmri	15.0	0.8333333333333334	89.0	-75.0	0.1666666666666666	12.0	1.0	2.0	-0.0574310160436084	2.617	n/a	stim	poldrack-single-stim	s583	False	1
284.387	1.589	285.976	-0.156514552366827	draw_card	1.589	columbia_card_task_fmri	15.0	0.8181818181818181	89.0	-75.0	0.1818181818181818	12.0	2.0	2.0	1.1133316436828269	1.589	n/a	stim	poldrack-single-stim	s583	False	1
285.979	0.713	286.692	-1.792878188730462	end_round	0.713	columbia_card_task_fmri	15.0	0.8	71.0	-75.0	0.2	12.0	3.0	2.0	2.4000669570270503	0.713	2.0	stim	poldrack-single-stim	s583	False	1
287.448	1.5	286.697	n/a	-1.0	2.25	columbia_card_task_fmri	n/a	n/a	-1.0	n/a	n/a	n/a	n/a	n/a	n/a	n/a	n/a	ITI	poldrack-single-stim	s583	False	0
288.952	2.392	291.344	0.2071218112695381	draw_card	2.392	columbia_card_task_fmri	15.0	0.8	89.0	-65.0	0.2	15.0	1.0	3.0	-1.5974056891384478	2.392	1.0	stim	poldrack-single-stim	s583	False	0
292.1	1.5	291.349	n/a	-1.0	2.454	columbia_card_task_fmri	n/a	n/a	-1.0	n/a	n/a	n/a	n/a	n/a	n/a	n/a	n/a	ITI	poldrack-single-stim	s583	False	0
293.807	2.391	296.198	-0.5428781887304619	draw_card	2.391	columbia_card_task_fmri	14.0	0.8125	89.0	-70.0	0.1875	16.0	1.0	3.0	-0.8117116203406596	2.391	n/a	stim	poldrack-single-stim	s583	False	1
296.201	1.167	297.368	-1.5928781887304608	draw_card	1.167	columbia_card_task_fmri	14.0	0.8	89.0	-70.0	0.2	16.0	2.0	3.0	0.0015112286489937	1.167	n/a	stim	poldrack-single-stim	s583	False	1
297.371	1.81	299.181	-2.792878188730462	draw_card	1.81	columbia_card_task_fmri	14.0	0.7857142857142857	89.0	-70.0	0.2142857142857142	16.0	3.0	3.0	0.8683419499110414	1.81	n/a	stim	poldrack-single-stim	s583	False	1
299.186	1.239	300.425	-4.177493573345847	end_round	1.239	columbia_card_task_fmri	14.0	0.7692307692307692	71.0	-70.0	0.2307692307692307	16.0	4.0	3.0	1.7917184502023105	1.239	3.0	stim	poldrack-single-stim	s583	False	1
301.179	1.5	300.428	n/a	-1.0	3.27	columbia_card_task_fmri	n/a	n/a	-1.0	n/a	n/a	n/a	n/a	n/a	n/a	n/a	n/a	ITI	poldrack-single-stim	s583	False	0
303.703	3.005	306.708	-0.6053781887304619	draw_card	3.005	columbia_card_task_fmri	11.0	0.6875	89.0	-30.0	0.3125	16.0	1.0	5.0	-14.577857643435056	3.005	1.0	stim	poldrack-single-stim	s583	False	0
307.465	1.5	306.714	n/a	-1.0	2.25	columbia_card_task_fmri	n/a	n/a	-1.0	n/a	n/a	n/a	n/a	n/a	n/a	n/a	n/a	ITI	poldrack-single-stim	s583	False	0
308.968	2.162	311.13	4.207121811269538	draw_card	2.162	columbia_card_task_fmri	15.0	0.8666666666666667	89.0	-75.0	0.1333333333333333	15.0	1.0	2.0	-3.0022435296951717	2.162	n/a	stim	poldrack-single-stim	s583	False	1
311.134	1.281	312.415	3.3499789541266822	draw_card	1.281	columbia_card_task_fmri	15.0	0.8571428571428572	89.0	-75.0	0.1428571428571428	15.0	2.0	2.0	-2.103600323046414	1.281	n/a	stim	poldrack-single-stim	s583	False	1
312.418	1.521	313.939	2.3609679651156914	draw_card	1.521	columbia_card_task_fmri	15.0	0.8461538461538461	89.0	-75.0	0.1538461538461538	15.0	3.0	2.0	-1.1256272548054795	1.521	n/a	stim	poldrack-single-stim	s583	False	1
313.944	2.653	316.597	1.207121811269538	draw_card	2.653	columbia_card_task_fmri	15.0	0.8333333333333334	89.0	-75.0	0.1666666666666666	15.0	4.0	2.0	-0.0574310160436084	2.653	4.0	stim	poldrack-single-stim	s583	False	0
317.354	1.5	316.603	n/a	-1.0	2.25	columbia_card_task_fmri	n/a	n/a	-1.0	n/a	n/a	n/a	n/a	n/a	n/a	n/a	n/a	ITI	poldrack-single-stim	s583	False	0
318.857	3.765	322.622	5.940455144602872	draw_card	3.765	columbia_card_task_fmri	17.0	0.8666666666666667	89.0	-75.0	0.1333333333333333	15.0	1.0	2.0	-2.322891368502841	3.765	n/a	stim	poldrack-single-stim	s583	False	1
322.626	2.123	324.749	5.064264668412397	draw_card	2.123	columbia_card_task_fmri	17.0	0.8571428571428572	89.0	-75.0	0.1428571428571428	15.0	2.0	2.0	-1.4042484839262954	2.123	n/a	stim	poldrack-single-stim	s583	False	1
324.753	1.519	326.272	4.053275657423384	draw_card	1.519	columbia_card_task_fmri	17.0	0.8461538461538461	89.0	-75.0	0.1538461538461538	15.0	3.0	2.0	-0.4045120935576065	1.519	n/a	stim	poldrack-single-stim	s583	False	1
326.275	1.924	328.199	2.873788477936206	draw_card	1.924	columbia_card_task_fmri	17.0	0.8333333333333334	89.0	-75.0	0.1666666666666666	15.0	4.0	2.0	0.6874532116229304	1.924	n/a	stim	poldrack-single-stim	s583	False	1
328.201	0.981	329.182	1.4798490839968097	end_round	0.981	columbia_card_task_fmri	17.0	0.8181818181818181	71.0	-75.0	0.1818181818181818	15.0	5.0	2.0	1.8842649873222608	0.981	4.0	stim	poldrack-single-stim	s583	False	1
329.937	1.5	329.186	n/a	-1.0	2.318	columbia_card_task_fmri	n/a	n/a	-1.0	n/a	n/a	n/a	n/a	n/a	n/a	n/a	n/a	ITI	poldrack-single-stim	s583	False	0
331.509	6.894	338.403	1.519621811269538	draw_card	6.894	columbia_card_task_fmri	2.0	0.9375	89.0	-25.0	0.0625	16.0	1.0	1.0	-26.97396452455338	6.894	n/a	stim	poldrack-single-stim	s583	False	1
338.407	1.96	340.367	1.407121811269538	draw_card	1.96	columbia_card_task_fmri	2.0	0.9333333333333332	89.0	-25.0	0.0666666666666666	16.0	2.0	1.0	-26.77786006444683	1.96	n/a	stim	poldrack-single-stim	s583	False	1
340.37	0.854	341.224	1.2785503826981095	end_round	0.854	columbia_card_task_fmri	2.0	0.9285714285714286	71.0	-25.0	0.0714285714285714	16.0	3.0	1.0	-26.562603278609632	0.854	2.0	stim	poldrack-single-stim	s583	False	1
341.982	1.5	341.231	n/a	-1.0	2.726	columbia_card_task_fmri	n/a	n/a	-1.0	n/a	n/a	n/a	n/a	n/a	n/a	n/a	n/a	ITI	poldrack-single-stim	s583	False	0
343.962	2.825	346.787	3.707121811269538	end_round	2.825	columbia_card_task_fmri	9.0	0.9375	71.0	-95.0	0.0625	16.0	1.0	1.0	-8.416849343192439	2.825	0.0	stim	poldrack-single-stim	s583	False	1
347.544	1.5	346.793	n/a	-1.0	2.386	columbia_card_task_fmri	n/a	n/a	-1.0	n/a	n/a	n/a	n/a	n/a	n/a	n/a	n/a	ITI	poldrack-single-stim	s583	False	0
349.183	3.459	352.642	5.269621811269538	draw_card	3.459	columbia_card_task_fmri	11.0	0.9375	89.0	-100.0	0.0625	16.0	1.0	1.0	-6.724241288329107	3.459	n/a	stim	poldrack-single-stim	s583	False	1
352.645	0.78	353.425	4.807121811269539	end_round	0.78	columbia_card_task_fmri	11.0	0.9333333333333332	71.0	-100.0	0.0666666666666666	16.0	2.0	1.0	-5.905599915772129	0.78	1.0	stim	poldrack-single-stim	s583	False	1
354.181	1.5	353.43	n/a	-1.0	2.318	columbia_card_task_fmri	n/a	n/a	-1.0	n/a	n/a	n/a	n/a	n/a	n/a	n/a	n/a	ITI	poldrack-single-stim	s583	False	0
355.753	2.471	358.224	5.832121811269538	draw_card	2.471	columbia_card_task_fmri	16.0	0.875	89.0	-75.0	0.125	16.0	1.0	2.0	-3.500545304261628	2.471	n/a	stim	poldrack-single-stim	s583	False	1
358.228	1.4	359.628	5.073788477936205	draw_card	1.4	columbia_card_task_fmri	16.0	0.8666666666666667	89.0	-75.0	0.1333333333333333	16.0	2.0	2.0	-2.6625702871072114	1.4	n/a	stim	poldrack-single-stim	s583	False	1
359.631	1.687	361.318	4.207121811269539	draw_card	1.687	columbia_card_task_fmri	16.0	0.8571428571428572	89.0	-75.0	0.1428571428571428	16.0	3.0	2.0	-1.7539271608068532	1.687	n/a	stim	poldrack-single-stim	s583	False	1
361.322	2.644	363.966	3.207121811269538	end_round	2.644	columbia_card_task_fmri	16.0	0.8461538461538461	71.0	-75.0	0.1538461538461538	16.0	4.0	2.0	-0.7650723487416116	2.644	3.0	stim	poldrack-single-stim	s583	False	1
364.72	1.5	363.969	n/a	-1.0	2.25	columbia_card_task_fmri	n/a	n/a	-1.0	n/a	n/a	n/a	n/a	n/a	n/a	n/a	n/a	ITI	poldrack-single-stim	s583	False	0
366.224	4.304	370.528	6.082121811269538	draw_card	4.304	columbia_card_task_fmri	17.0	0.875	89.0	-80.0	0.125	16.0	1.0	2.0	-1.5177275721542711	4.304	n/a	stim	poldrack-single-stim	s583	False	1
370.532	1.485	372.017	5.273788477936206	draw_card	1.485	columbia_card_task_fmri	17.0	0.8666666666666667	89.0	-80.0	0.1333333333333333	16.0	2.0	2.0	-0.6244177707463336	1.485	n/a	stim	poldrack-single-stim	s583	False	1
372.02	1.355	373.375	4.349978954126684	draw_card	1.355	columbia_card_task_fmri	17.0	0.8571428571428572	89.0	-80.0	0.1428571428571428	16.0	3.0	2.0	0.3442216585478377	1.355	n/a	stim	poldrack-single-stim	s583	False	1
373.379	1.971	375.35	3.2840448881926148	draw_card	1.971	columbia_card_task_fmri	17.0	0.8461538461538461	89.0	-80.0	0.1538461538461538	16.0	4.0	2.0	1.39836363610042	1.971	n/a	stim	poldrack-single-stim	s583	False	1
375.354	0.705	376.059	2.040455144602874	end_round	0.705	columbia_card_task_fmri	17.0	0.8333333333333334	71.0	-80.0	0.1666666666666666	16.0	5.0	2.0	2.5497488187688546	0.705	4.0	stim	poldrack-single-stim	s583	False	1
376.817	1.5	376.066	n/a	-1.0	2.25	columbia_card_task_fmri	n/a	n/a	-1.0	n/a	n/a	n/a	n/a	n/a	n/a	n/a	n/a	ITI	poldrack-single-stim	s583	False	0
389.323	3.213	392.536	0.3737884779362059	draw_card	3.213	columbia_card_task_fmri	13.0	0.8333333333333334	89.0	-70.0	0.1666666666666666	6.0	1.0	1.0	-2.664346961877559	3.213	1.0	stim	poldrack-single-stim	s583	False	0
393.292	1.5	392.541	n/a	-1.0	2.454	columbia_card_task_fmri	n/a	n/a	-1.0	n/a	n/a	n/a	n/a	n/a	n/a	n/a	n/a	ITI	poldrack-single-stim	s583	False	0
394.999	2.458	397.457	0.3737884779362059	end_round	2.458	columbia_card_task_fmri	15.0	0.8333333333333334	71.0	-80.0	0.1666666666666666	6.0	1.0	1.0	1.8048167643251745	2.458	0.0	stim	poldrack-single-stim	s583	False	1
398.213	1.5	397.462	n/a	-1.0	2.454	columbia_card_task_fmri	n/a	n/a	-1.0	n/a	n/a	n/a	n/a	n/a	n/a	n/a	n/a	ITI	poldrack-single-stim	s583	False	0
399.92	2.384	402.304	2.040455144602872	draw_card	2.384	columbia_card_task_fmri	16.0	0.8333333333333334	89.0	-75.0	0.1666666666666666	6.0	1.0	1.0	0.3150085081355485	2.384	n/a	stim	poldrack-single-stim	s583	False	1
402.309	1.705	404.014	-0.9928781887304612	draw_card	1.705	columbia_card_task_fmri	16.0	0.8	89.0	-75.0	0.2	6.0	2.0	1.0	2.7998447456559035	1.705	n/a	stim	poldrack-single-stim	s583	False	1
404.018	0.825	404.843	-5.542878188730462	end_round	0.825	columbia_card_task_fmri	16.0	0.75	71.0	-75.0	0.25	6.0	3.0	1.0	5.802475793547067	0.825	2.0	stim	poldrack-single-stim	s583	False	1
405.599	1.5	404.848	n/a	-1.0	2.522	columbia_card_task_fmri	n/a	n/a	-1.0	n/a	n/a	n/a	n/a	n/a	n/a	n/a	n/a	ITI	poldrack-single-stim	s583	False	0
407.374	2.306	409.68	3.207121811269538	draw_card	2.306	columbia_card_task_fmri	21.0	0.75	89.0	-55.0	0.25	8.0	1.0	2.0	-0.6890685552488449	2.306	1.0	stim	poldrack-single-stim	s583	False	0
410.438	1.5	409.687	n/a	-1.0	2.386	columbia_card_task_fmri	n/a	n/a	-1.0	n/a	n/a	n/a	n/a	n/a	n/a	n/a	n/a	ITI	poldrack-single-stim	s583	False	0
412.077	2.603	414.68	4.457121811269538	draw_card	2.603	columbia_card_task_fmri	26.0	0.75	89.0	-65.0	0.25	8.0	1.0	2.0	5.802475793547067	2.603	1.0	stim	poldrack-single-stim	s583	False	0
415.435	1.5	414.684	n/a	-1.0	2.454	columbia_card_task_fmri	n/a	n/a	-1.0	n/a	n/a	n/a	n/a	n/a	n/a	n/a	n/a	ITI	poldrack-single-stim	s583	False	0
417.141	2.447	419.588	-0.4595448553971279	draw_card	2.447	columbia_card_task_fmri	15.0	0.7777777777777778	89.0	-60.0	0.2222222222222222	9.0	1.0	2.0	-2.41632970928665	2.447	n/a	stim	poldrack-single-stim	s583	False	1
419.593	1.671	421.264	-2.542878188730462	draw_card	1.671	columbia_card_task_fmri	15.0	0.75	89.0	-60.0	0.25	9.0	2.0	2.0	-1.121786372014796	1.671	n/a	stim	poldrack-single-stim	s583	False	1
421.267	0.941	422.208	-5.221449617301889	end_round	0.941	columbia_card_task_fmri	15.0	0.7142857142857143	71.0	-60.0	0.2857142857142857	9.0	3.0	2.0	0.2828775749832957	0.941	2.0	stim	poldrack-single-stim	s583	False	1
422.963	1.5	422.212	n/a	-1.0	2.522	columbia_card_task_fmri	n/a	n/a	-1.0	n/a	n/a	n/a	n/a	n/a	n/a	n/a	n/a	ITI	poldrack-single-stim	s583	False	0
424.738	2.605	427.343	3.907121811269539	draw_card	2.605	columbia_card_task_fmri	13.0	0.9	89.0	-90.0	0.1	10.0	1.0	1.0	-2.6965960778464115	2.605	n/a	stim	poldrack-single-stim	s583	False	1
427.347	1.157	428.504	2.762677366825093	end_round	1.157	columbia_card_task_fmri	13.0	0.8888888888888888	71.0	-90.0	0.1111111111111111	10.0	2.0	1.0	-1.2278884100412384	1.157	1.0	stim	poldrack-single-stim	s583	False	1
429.261	1.5	428.51	n/a	-1.0	2.522	columbia_card_task_fmri	n/a	n/a	-1.0	n/a	n/a	n/a	n/a	n/a	n/a	n/a	n/a	ITI	poldrack-single-stim	s583	False	0
431.037	2.206	433.243	5.207121811269538	draw_card	2.206	columbia_card_task_fmri	15.0	0.9	89.0	-95.0	0.1	10.0	1.0	1.0	-0.5980949108825158	2.206	n/a	stim	poldrack-single-stim	s583	False	1
433.247	1.776	435.023	3.984899589047315	end_round	1.776	columbia_card_task_fmri	15.0	0.8888888888888888	71.0	-95.0	0.1111111111111111	10.0	2.0	1.0	0.9705684402720324	1.776	1.0	stim	poldrack-single-stim	s583	False	1
435.78	1.5	435.029	n/a	-1.0	2.59	columbia_card_task_fmri	n/a	n/a	-1.0	n/a	n/a	n/a	n/a	n/a	n/a	n/a	n/a	ITI	poldrack-single-stim	s583	False	0
437.624	2.721	440.345	1.0071218112695388	draw_card	2.721	columbia_card_task_fmri	16.0	0.8	89.0	-65.0	0.2	10.0	1.0	2.0	-1.1976864778841758	2.721	n/a	stim	poldrack-single-stim	s583	False	1
440.348	1.107	441.455	-0.7928781887304601	draw_card	1.107	columbia_card_task_fmri	16.0	0.7777777777777778	89.0	-65.0	0.2222222222222222	10.0	2.0	2.0	0.0763795165504319	1.107	n/a	stim	poldrack-single-stim	s583	False	1
441.459	1.005	442.464	-3.042878188730462	end_round	1.005	columbia_card_task_fmri	16.0	0.75	71.0	-65.0	0.25	10.0	3.0	2.0	1.474629643671662	1.005	2.0	stim	poldrack-single-stim	s583	False	1
443.218	1.5	442.467	n/a	-1.0	2.454	columbia_card_task_fmri	n/a	n/a	-1.0	n/a	n/a	n/a	n/a	n/a	n/a	n/a	n/a	ITI	poldrack-single-stim	s583	False	0
444.925	3.621	448.546	-0.2928781887304619	end_round	3.621	columbia_card_task_fmri	7.0	0.9166666666666666	71.0	-95.0	0.0833333333333333	12.0	1.0	1.0	-5.40302273949019	3.621	0.0	stim	poldrack-single-stim	s583	False	1
449.301	1.5	448.55	n/a	-1.0	2.318	columbia_card_task_fmri	n/a	n/a	-1.0	n/a	n/a	n/a	n/a	n/a	n/a	n/a	n/a	ITI	poldrack-single-stim	s583	False	0
450.873	3.012	453.885	0.3737884779362059	draw_card	3.012	columbia_card_task_fmri	14.0	0.8333333333333334	89.0	-75.0	0.1666666666666666	12.0	1.0	2.0	-0.429865186558267	3.012	n/a	stim	poldrack-single-stim	s583	False	1
453.889	1.325	455.214	-0.9746963705486452	draw_card	1.325	columbia_card_task_fmri	14.0	0.8181818181818181	89.0	-75.0	0.1818181818181818	12.0	2.0	2.0	0.7278726480881943	1.325	n/a	stim	poldrack-single-stim	s583	False	1
455.218	1.461	456.679	-2.592878188730461	draw_card	1.461	columbia_card_task_fmri	14.0	0.8	89.0	-75.0	0.2	12.0	3.0	2.0	2.000294157658104	1.461	n/a	stim	poldrack-single-stim	s583	False	1
456.681	0.826	457.507	-4.570655966508237	end_round	0.826	columbia_card_task_fmri	14.0	0.7777777777777778	71.0	-75.0	0.2222222222222222	12.0	4.0	2.0	3.400354144407224	0.826	3.0	stim	poldrack-single-stim	s583	False	1
458.265	1.5	457.514	n/a	-1.0	2.25	columbia_card_task_fmri	n/a	n/a	-1.0	n/a	n/a	n/a	n/a	n/a	n/a	n/a	n/a	ITI	poldrack-single-stim	s583	False	0
459.769	3.968	463.737	2.040455144602872	draw_card	3.968	columbia_card_task_fmri	15.0	0.8333333333333334	89.0	-70.0	0.1666666666666666	12.0	1.0	2.0	-1.9195445581664887	3.968	n/a	stim	poldrack-single-stim	s583	False	1
463.742	1.177	464.919	0.7525763567240813	draw_card	1.177	columbia_card_task_fmri	15.0	0.8181818181818181	89.0	-70.0	0.1818181818181818	12.0	2.0	2.0	-0.8139079505127214	1.177	n/a	stim	poldrack-single-stim	s583	False	1
464.923	1.216	466.139	-0.7928781887304619	draw_card	1.216	columbia_card_task_fmri	15.0	0.8	89.0	-70.0	0.2	12.0	3.0	2.0	0.4012563703626597	1.216	n/a	stim	poldrack-single-stim	s583	False	1
466.144	0.989	467.133	-2.681767077619351	end_round	0.989	columbia_card_task_fmri	15.0	0.7777777777777778	71.0	-70.0	0.2222222222222222	12.0	4.0	2.0	1.7383211516994166	0.989	3.0	stim	poldrack-single-stim	s583	False	1
467.889	1.5	467.138	n/a	-1.0	2.658	columbia_card_task_fmri	n/a	n/a	-1.0	n/a	n/a	n/a	n/a	n/a	n/a	n/a	n/a	ITI	poldrack-single-stim	s583	False	0
469.801	2.262	472.063	0.0071218112695388	draw_card	2.262	columbia_card_task_fmri	16.0	0.8	89.0	-70.0	0.2	15.0	1.0	3.0	0.80100743348099	2.262	n/a	stim	poldrack-single-stim	s583	False	1
472.068	2.731	474.799	-1.2214496173018907	draw_card	2.731	columbia_card_task_fmri	16.0	0.7857142857142857	89.0	-70.0	0.2142857142857142	15.0	2.0	3.0	1.688502616404662	2.731	n/a	stim	poldrack-single-stim	s583	False	1
474.802	1.505	476.307	-2.6390320348843086	draw_card	1.505	columbia_card_task_fmri	16.0	0.7692307692307692	89.0	-70.0	0.2307692307692307	15.0	3.0	3.0	2.6338901981284835	1.505	n/a	stim	poldrack-single-stim	s583	False	1
476.313	1.62	477.933	-4.292878188730462	draw_card	1.62	columbia_card_task_fmri	16.0	0.75	89.0	-70.0	0.25	15.0	4.0	3.0	3.638486466596632	1.62	n/a	stim	poldrack-single-stim	s583	False	1
477.937	1.321	479.258	-6.247423643275916	end_round	1.321	columbia_card_task_fmri	16.0	0.7272727272727273	71.0	-70.0	0.2727272727272727	15.0	5.0	3.0	4.699964367650267	1.321	4.0	stim	poldrack-single-stim	s583	False	1
480.014	1.5	479.263	n/a	-1.0	2.454	columbia_card_task_fmri	n/a	n/a	-1.0	n/a	n/a	n/a	n/a	n/a	n/a	n/a	n/a	ITI	poldrack-single-stim	s583	False	0
481.722	2.869	484.591	0.3946218112695381	draw_card	2.869	columbia_card_task_fmri	14.0	0.8125	89.0	-65.0	0.1875	16.0	1.0	3.0	-2.761868567878647	2.869	n/a	stim	poldrack-single-stim	s583	False	1
484.595	1.466	486.061	-0.5928781887304608	draw_card	1.466	columbia_card_task_fmri	14.0	0.8	89.0	-65.0	0.2	16.0	2.0	3.0	-1.9971177994901872	1.466	2.0	stim	poldrack-single-stim	s583	False	0
486.818	1.5	486.067	n/a	-1.0	2.386	columbia_card_task_fmri	n/a	n/a	-1.0	n/a	n/a	n/a	n/a	n/a	n/a	n/a	n/a	ITI	poldrack-single-stim	s583	False	0
488.458	3.899	492.357	0.1446218112695381	draw_card	3.899	columbia_card_task_fmri	16.0	0.8125	89.0	-75.0	0.1875	16.0	1.0	3.0	1.9187672353203808	3.899	n/a	stim	poldrack-single-stim	s583	False	1
492.361	1.823	494.184	-0.9928781887304612	draw_card	1.823	columbia_card_task_fmri	16.0	0.8	89.0	-75.0	0.2	16.0	2.0	3.0	2.7998447456559035	1.823	n/a	stim	poldrack-single-stim	s583	False	1
494.189	1.42	495.609	-2.29287818873046	draw_card	1.42	columbia_card_task_fmri	16.0	0.7857142857142857	89.0	-75.0	0.2142857142857142	16.0	3.0	3.0	3.738998655222744	1.42	n/a	stim	poldrack-single-stim	s583	False	1
495.613	1.442	497.055	-3.7928781887304654	draw_card	1.442	columbia_card_task_fmri	16.0	0.7692307692307692	89.0	-75.0	0.2307692307692307	16.0	4.0	3.0	4.73941148496565	1.442	n/a	stim	poldrack-single-stim	s583	False	1
497.059	1.216	498.275	-5.542878188730462	end_round	1.216	columbia_card_task_fmri	16.0	0.75	71.0	-75.0	0.25	16.0	5.0	3.0	5.802475793547067	1.216	4.0	stim	poldrack-single-stim	s583	False	1
499.031	1.5	498.28	n/a	-1.0	2.59	columbia_card_task_fmri	n/a	n/a	-1.0	n/a	n/a	n/a	n/a	n/a	n/a	n/a	n/a	ITI	poldrack-single-stim	s583	False	0
500.876	2.275	503.151	4.407121811269539	draw_card	2.275	columbia_card_task_fmri	16.0	0.8666666666666667	89.0	-80.0	0.1333333333333333	15.0	1.0	2.0	-0.9641224763844248	2.275	n/a	stim	poldrack-single-stim	s583	False	1
503.155	1.405	504.56	3.4928360969838264	draw_card	1.405	columbia_card_task_fmri	16.0	0.8571428571428572	89.0	-80.0	0.1428571428571428	15.0	2.0	2.0	-0.0054820720168535	1.405	n/a	stim	poldrack-single-stim	s583	False	1
504.565	1.569	506.134	2.437891042038768	draw_card	1.569	columbia_card_task_fmri	16.0	0.8461538461538461	89.0	-80.0	0.1538461538461538	15.0	3.0	2.0	1.0377790794025827	1.569	3.0	stim	poldrack-single-stim	s583	False	0
506.892	1.5	506.141	n/a	-1.0	2.318	columbia_card_task_fmri	n/a	n/a	-1.0	n/a	n/a	n/a	n/a	n/a	n/a	n/a	n/a	ITI	poldrack-single-stim	s583	False	0
508.465	3.939	512.404	5.273788477936206	draw_card	3.939	columbia_card_task_fmri	17.0	0.8666666666666667	89.0	-80.0	0.1333333333333333	15.0	1.0	2.0	-0.6244177707463336	3.939	n/a	stim	poldrack-single-stim	s583	False	1
512.409	1.418	513.827	4.349978954126684	draw_card	1.418	columbia_card_task_fmri	17.0	0.8571428571428572	89.0	-80.0	0.1428571428571428	15.0	2.0	2.0	0.3442216585478377	1.418	n/a	stim	poldrack-single-stim	s583	False	1
513.831	2.072	515.903	3.2840448881926148	draw_card	2.072	columbia_card_task_fmri	17.0	0.8461538461538461	89.0	-80.0	0.1538461538461538	15.0	3.0	2.0	1.39836363610042	2.072	n/a	stim	poldrack-single-stim	s583	False	1
515.908	1.63	517.538	2.040455144602874	draw_card	1.63	columbia_card_task_fmri	17.0	0.8333333333333334	89.0	-80.0	0.1666666666666666	15.0	4.0	2.0	2.5497488187688546	1.63	n/a	stim	poldrack-single-stim	s583	False	1
517.542	0.868	518.41	0.5707581749058996	end_round	0.868	columbia_card_task_fmri	17.0	0.8181818181818181	71.0	-80.0	0.1818181818181818	15.0	5.0	2.0	3.811680524428745	0.868	4.0	stim	poldrack-single-stim	s583	False	1
519.165	1.5	518.414	n/a	-1.0	2.59	columbia_card_task_fmri	n/a	n/a	-1.0	n/a	n/a	n/a	n/a	n/a	n/a	n/a	n/a	ITI	poldrack-single-stim	s583	False	0
521.01	4.632	525.642	1.207121811269538	draw_card	4.632	columbia_card_task_fmri	1.0	0.9375	89.0	-15.0	0.0625	16.0	1.0	1.0	-29.56342500711312	4.632	n/a	stim	poldrack-single-stim	s583	False	1
525.647	2.258	527.905	1.1404551446028717	draw_card	2.258	columbia_card_task_fmri	1.0	0.9333333333333332	89.0	-15.0	0.0666666666666666	16.0	2.0	1.0	-29.45050936003832	2.258	2.0	stim	poldrack-single-stim	s583	False	0
528.66	1.5	527.909	n/a	-1.0	2.386	columbia_card_task_fmri	n/a	n/a	-1.0	n/a	n/a	n/a	n/a	n/a	n/a	n/a	n/a	ITI	poldrack-single-stim	s583	False	0
530.299	3.03	533.329	4.332121811269538	end_round	3.03	columbia_card_task_fmri	10.0	0.9375	71.0	-100.0	0.0625	16.0	1.0	1.0	-6.966056615467355	3.03	0.0	stim	poldrack-single-stim	s583	False	1
534.088	1.5	533.337	n/a	-1.0	2.318	columbia_card_task_fmri	n/a	n/a	-1.0	n/a	n/a	n/a	n/a	n/a	n/a	n/a	n/a	ITI	poldrack-single-stim	s583	False	0
535.661	4.978	540.639	4.957121811269538	draw_card	4.978	columbia_card_task_fmri	15.0	0.875	89.0	-75.0	0.125	16.0	1.0	2.0	-3.830995560133328	4.978	n/a	stim	poldrack-single-stim	s583	False	1
540.643	0.966	541.609	4.207121811269538	draw_card	0.966	columbia_card_task_fmri	15.0	0.8666666666666667	89.0	-75.0	0.1333333333333333	16.0	2.0	2.0	-3.0022435296951717	0.966	n/a	stim	poldrack-single-stim	s583	False	1
541.613	1.993	543.606	3.3499789541266822	draw_card	1.993	columbia_card_task_fmri	15.0	0.8571428571428572	89.0	-75.0	0.1428571428571428	16.0	3.0	2.0	-2.103600323046414	1.993	3.0	stim	poldrack-single-stim	s583	False	0
544.361	1.5	543.61	n/a	-1.0	2.318	columbia_card_task_fmri	n/a	n/a	-1.0	n/a	n/a	n/a	n/a	n/a	n/a	n/a	n/a	ITI	poldrack-single-stim	s583	False	0
545.934	3.024	548.958	5.207121811269538	draw_card	3.024	columbia_card_task_fmri	16.0	0.875	89.0	-80.0	0.125	16.0	1.0	2.0	-1.8482101638562936	3.024	n/a	stim	poldrack-single-stim	s583	False	1
548.964	1.464	550.428	4.407121811269539	draw_card	1.464	columbia_card_task_fmri	16.0	0.8666666666666667	89.0	-80.0	0.1333333333333333	16.0	2.0	2.0	-0.9641224763844248	1.464	n/a	stim	poldrack-single-stim	s583	False	1
550.433	2.34	552.773	3.4928360969838264	draw_card	2.34	columbia_card_task_fmri	16.0	0.8571428571428572	89.0	-80.0	0.1428571428571428	16.0	3.0	2.0	-0.0054820720168535	2.34	n/a	stim	poldrack-single-stim	s583	False	1
552.778	0.734	553.512	2.437891042038768	end_round	0.734	columbia_card_task_fmri	16.0	0.8461538461538461	71.0	-80.0	0.1538461538461538	16.0	4.0	2.0	1.0377790794025827	0.734	3.0	stim	poldrack-single-stim	s583	False	1
554.27	1.5	553.519	n/a	-1.0	2.318	columbia_card_task_fmri	n/a	n/a	-1.0	n/a	n/a	n/a	n/a	n/a	n/a	n/a	n/a	ITI	poldrack-single-stim	s583	False	0
555.841	4.277	560.118	2.394621811269538	draw_card	4.277	columbia_card_task_fmri	4.0	0.6875	89.0	-5.0	0.3125	16.0	1.0	5.0	-29.27741439016586	4.277	n/a	stim	poldrack-single-stim	s583	False	1
560.123	2.851	562.974	2.2071218112695385	draw_card	2.851	columbia_card_task_fmri	4.0	0.6666666666666667	89.0	-5.0	0.3333333333333333	16.0	2.0	5.0	-29.209140283792998	2.851	2.0	stim	poldrack-single-stim	s583	False	0
563.733	1.5	562.982	n/a	-1.0	2.386	columbia_card_task_fmri	n/a	n/a	-1.0	n/a	n/a	n/a	n/a	n/a	n/a	n/a	n/a	ITI	poldrack-single-stim	s583	False	0
565.373	2.691	568.064	-0.4595448553971262	draw_card	2.691	columbia_card_task_fmri	14.0	0.8333333333333334	89.0	-80.0	0.1666666666666666	6.0	1.0	1.0	1.4323574961376335	2.691	n/a	stim	poldrack-single-stim	s583	False	1
568.068	1.753	569.821	-3.592878188730461	draw_card	1.753	columbia_card_task_fmri	14.0	0.8	89.0	-80.0	0.2	6.0	2.0	1.0	3.999206456479172	1.753	n/a	stim	poldrack-single-stim	s583	False	1
569.826	0.812	570.638	-8.292878188730462	end_round	0.812	columbia_card_task_fmri	14.0	0.75	71.0	-80.0	0.25	6.0	3.0	1.0	7.100924203920151	0.812	2.0	stim	poldrack-single-stim	s583	False	1
571.394	1.5	570.643	n/a	-1.0	2.25	columbia_card_task_fmri	n/a	n/a	-1.0	n/a	n/a	n/a	n/a	n/a	n/a	n/a	n/a	ITI	poldrack-single-stim	s583	False	0
572.899	3.346	576.245	1.207121811269538	draw_card	3.346	columbia_card_task_fmri	15.0	0.8333333333333334	89.0	-75.0	0.1666666666666666	6.0	1.0	1.0	-0.0574310160436084	3.346	n/a	stim	poldrack-single-stim	s583	False	1
576.25	0.955	577.205	-1.792878188730462	draw_card	0.955	columbia_card_task_fmri	15.0	0.8	89.0	-75.0	0.2	6.0	2.0	1.0	2.4000669570270503	0.955	n/a	stim	poldrack-single-stim	s583	False	1
577.21	1.141	578.351	-6.292878188730462	draw_card	1.141	columbia_card_task_fmri	15.0	0.75	89.0	-75.0	0.25	6.0	3.0	1.0	5.369668386813885	1.141	n/a	stim	poldrack-single-stim	s583	False	1
578.356	0.738	579.094	-13.79287818873046	end_round	0.738	columbia_card_task_fmri	15.0	0.6666666666666667	71.0	-75.0	0.3333333333333333	6.0	4.0	1.0	8.823410537220362	0.738	3.0	stim	poldrack-single-stim	s583	False	1
579.852	1.5	579.101	n/a	-1.0	2.386	columbia_card_task_fmri	n/a	n/a	-1.0	n/a	n/a	n/a	n/a	n/a	n/a	n/a	n/a	ITI	poldrack-single-stim	s583	False	0
581.494	3.049	584.543	2.873788477936206	draw_card	3.049	columbia_card_task_fmri	16.0	0.8333333333333334	89.0	-70.0	0.1666666666666666	6.0	1.0	1.0	-1.5471337111153574	3.049	n/a	stim	poldrack-single-stim	s583	False	1
584.548	1.214	585.762	0.0071218112695388	draw_card	1.214	columbia_card_task_fmri	16.0	0.8	89.0	-70.0	0.2	6.0	2.0	1.0	0.80100743348099	1.214	n/a	stim	poldrack-single-stim	s583	False	1
585.767	1.067	586.834	-4.292878188730462	end_round	1.067	columbia_card_task_fmri	16.0	0.75	71.0	-70.0	0.25	6.0	3.0	1.0	3.638486466596632	1.067	2.0	stim	poldrack-single-stim	s583	False	1
587.59	1.5	586.839	n/a	-1.0	2.59	columbia_card_task_fmri	n/a	n/a	-1.0	n/a	n/a	n/a	n/a	n/a	n/a	n/a	n/a	ITI	poldrack-single-stim	s583	False	0
589.434	3.135	592.569	3.457121811269538	draw_card	3.135	columbia_card_task_fmri	23.0	0.75	89.0	-60.0	0.25	8.0	1.0	2.0	2.340154941466544	3.135	n/a	stim	poldrack-single-stim	s583	False	1
592.574	1.748	594.322	0.4928360969838263	draw_card	1.748	columbia_card_task_fmri	23.0	0.7142857142857143	89.0	-60.0	0.2857142857142857	8.0	2.0	2.0	3.89483834829548	1.748	n/a	stim	poldrack-single-stim	s583	False	1
594.326	0.987	595.313	-3.459544855397126	draw_card	0.987	columbia_card_task_fmri	23.0	0.6666666666666667	89.0	-60.0	0.3333333333333333	8.0	3.0	2.0	5.525026228026988	0.987	3.0	stim	poldrack-single-stim	s583	False	0
596.07	1.5	595.319	n/a	-1.0	2.658	columbia_card_task_fmri	n/a	n/a	-1.0	n/a	n/a	n/a	n/a	n/a	n/a	n/a	n/a	ITI	poldrack-single-stim	s583	False	0
597.983	2.575	600.558	3.957121811269538	draw_card	2.575	columbia_card_task_fmri	27.0	0.75	89.0	-70.0	0.25	8.0	1.0	2.0	8.39940906697705	2.575	n/a	stim	poldrack-single-stim	s583	False	1
600.563	1.452	602.015	0.4928360969838228	draw_card	1.452	columbia_card_task_fmri	27.0	0.7142857142857143	89.0	-70.0	0.2857142857142857	8.0	2.0	2.0	10.216591092879687	1.452	n/a	stim	poldrack-single-stim	s583	False	1
602.02	0.673	602.693	-4.126211522063791	end_round	0.673	columbia_card_task_fmri	27.0	0.6666666666666667	71.0	-70.0	0.3333333333333333	8.0	3.0	2.0	12.122003622248862	0.673	2.0	stim	poldrack-single-stim	s583	False	1
603.451	1.5	602.7	n/a	-1.0	2.386	columbia_card_task_fmri	n/a	n/a	-1.0	n/a	n/a	n/a	n/a	n/a	n/a	n/a	n/a	ITI	poldrack-single-stim	s583	False	0
605.092	3.794	608.886	-0.7928781887304601	draw_card	3.794	columbia_card_task_fmri	16.0	0.7777777777777778	89.0	-65.0	0.2222222222222222	9.0	1.0	2.0	0.0763795165504319	3.794	n/a	stim	poldrack-single-stim	s583	False	1
608.891	1.454	610.345	-3.042878188730462	draw_card	1.454	columbia_card_task_fmri	16.0	0.75	89.0	-65.0	0.25	9.0	2.0	2.0	1.474629643671662	1.454	2.0	stim	poldrack-single-stim	s583	False	0
611.105	1.5	610.354	n/a	-1.0	2.386	columbia_card_task_fmri	n/a	n/a	-1.0	n/a	n/a	n/a	n/a	n/a	n/a	n/a	n/a	ITI	poldrack-single-stim	s583	False	0
612.746	3.321	616.067	4.407121811269539	draw_card	3.321	columbia_card_task_fmri	13.0	0.9	89.0	-85.0	0.1	10.0	1.0	1.0	-4.195394546363431	3.321	1.0	stim	poldrack-single-stim	s583	False	0
616.825	1.5	616.074	n/a	-1.0	2.25	columbia_card_task_fmri	n/a	n/a	-1.0	n/a	n/a	n/a	n/a	n/a	n/a	n/a	n/a	ITI	poldrack-single-stim	s583	False	0
618.329	2.552	620.881	-0.5928781887304608	draw_card	2.552	columbia_card_task_fmri	14.0	0.8	89.0	-65.0	0.2	10.0	1.0	2.0	-1.9971177994901872	2.552	n/a	stim	poldrack-single-stim	s583	False	1
620.885	1.478	622.363	-2.3484337442860155	draw_card	1.478	columbia_card_task_fmri	14.0	0.7777777777777778	89.0	-65.0	0.2222222222222222	10.0	2.0	2.0	-0.7545527108933712	1.478	n/a	stim	poldrack-single-stim	s583	False	1
622.369	0.792	623.161	-4.542878188730462	end_round	0.792	columbia_card_task_fmri	14.0	0.75	71.0	-65.0	0.25	10.0	3.0	2.0	0.6091296446506647	0.792	2.0	stim	poldrack-single-stim	s583	False	1
623.92	1.5	623.169	n/a	-1.0	2.318	columbia_card_task_fmri	n/a	n/a	-1.0	n/a	n/a	n/a	n/a	n/a	n/a	n/a	n/a	ITI	poldrack-single-stim	s583	False	0
625.492	2.895	628.387	0.8071218112695395	draw_card	2.895	columbia_card_task_fmri	17.0	0.8	89.0	-70.0	0.2	10.0	1.0	2.0	1.2007642140673482	2.895	n/a	stim	poldrack-single-stim	s583	False	1
628.392	1.473	629.865	-1.126211522063794	draw_card	1.473	columbia_card_task_fmri	17.0	0.7777777777777778	89.0	-70.0	0.2222222222222222	10.0	2.0	2.0	2.56932701503095	1.473	2.0	stim	poldrack-single-stim	s583	False	0
630.622	1.5	629.871	n/a	-1.0	2.25	columbia_card_task_fmri	n/a	n/a	-1.0	n/a	n/a	n/a	n/a	n/a	n/a	n/a	n/a	ITI	poldrack-single-stim	s583	False	0
632.127	5.315	637.442	-0.4595448553971279	draw_card	5.315	columbia_card_task_fmri	13.0	0.8333333333333334	89.0	-75.0	0.1666666666666666	12.0	1.0	2.0	-0.802293821139962	5.315	n/a	stim	poldrack-single-stim	s583	False	1
637.448	2.605	640.053	-1.7928781887304637	draw_card	2.605	columbia_card_task_fmri	13.0	0.8181818181818181	89.0	-75.0	0.1818181818181818	12.0	2.0	2.0	0.3424190023016109	2.605	n/a	stim	poldrack-single-stim	s583	False	1
640.057	2.295	642.352	-3.392878188730461	draw_card	2.295	columbia_card_task_fmri	13.0	0.8	89.0	-75.0	0.2	12.0	3.0	2.0	1.6005265174410184	2.295	n/a	stim	poldrack-single-stim	s583	False	1
642.357	1.546	643.903	-5.348433744286016	end_round	1.546	columbia_card_task_fmri	13.0	0.7777777777777778	71.0	-75.0	0.2222222222222222	12.0	4.0	2.0	2.984838011986419	1.546	3.0	stim	poldrack-single-stim	s583	False	1
644.661	1.5	643.91	n/a	-1.0	2.25	columbia_card_task_fmri	n/a	n/a	-1.0	n/a	n/a	n/a	n/a	n/a	n/a	n/a	n/a	ITI	poldrack-single-stim	s583	False	0
646.165	2.397	648.562	1.20712181126954	draw_card	2.397	columbia_card_task_fmri	14.0	0.8333333333333334	89.0	-70.0	0.1666666666666666	12.0	1.0	2.0	-2.2919490515233925	2.397	n/a	stim	poldrack-single-stim	s583	False	1
648.567	1.388	649.955	-0.065605461457737	draw_card	1.388	columbia_card_task_fmri	14.0	0.8181818181818181	89.0	-70.0	0.1818181818181818	12.0	2.0	2.0	-1.199338266547464	1.388	n/a	stim	poldrack-single-stim	s583	False	1
649.959	1.847	651.806	-1.5928781887304608	draw_card	1.847	columbia_card_task_fmri	14.0	0.8	89.0	-70.0	0.2	12.0	3.0	2.0	0.0015112286489937	1.847	n/a	stim	poldrack-single-stim	s583	False	1
651.811	0.742	652.553	-3.459544855397128	end_round	0.742	columbia_card_task_fmri	14.0	0.7777777777777778	71.0	-70.0	0.2222222222222222	12.0	4.0	2.0	1.3228266689369264	0.742	3.0	stim	poldrack-single-stim	s583	False	1
653.309	1.5	652.558	n/a	-1.0	2.386	columbia_card_task_fmri	n/a	n/a	-1.0	n/a	n/a	n/a	n/a	n/a	n/a	n/a	n/a	ITI	poldrack-single-stim	s583	False	0
654.948	3.704	658.652	1.20712181126954	draw_card	3.704	columbia_card_task_fmri	16.0	0.8333333333333334	89.0	-80.0	0.1666666666666666	12.0	1.0	2.0	2.177280585419666	3.704	n/a	stim	poldrack-single-stim	s583	False	1
658.657	1.413	660.07	-0.2474236432759187	draw_card	1.413	columbia_card_task_fmri	16.0	0.8181818181818181	89.0	-80.0	0.1818181818181818	12.0	2.0	2.0	3.426188611582134	1.413	n/a	stim	poldrack-single-stim	s583	False	1
660.075	1.212	661.287	-1.9928781887304607	draw_card	1.212	columbia_card_task_fmri	16.0	0.8	89.0	-80.0	0.2	12.0	3.0	2.0	4.798803076352591	1.212	n/a	stim	poldrack-single-stim	s583	False	1
661.293	0.638	661.931	-4.126211522063796	end_round	0.638	columbia_card_task_fmri	16.0	0.7777777777777778	71.0	-80.0	0.2222222222222222	12.0	4.0	2.0	6.309097396946306	0.638	3.0	stim	poldrack-single-stim	s583	False	1
662.691	1.5	661.94	n/a	-1.0	2.386	columbia_card_task_fmri	n/a	n/a	-1.0	n/a	n/a	n/a	n/a	n/a	n/a	n/a	n/a	ITI	poldrack-single-stim	s583	False	0
664.332	2.583	666.915	1.0071218112695388	draw_card	2.583	columbia_card_task_fmri	16.0	0.8	89.0	-65.0	0.2	15.0	1.0	3.0	-1.1976864778841758	2.583	n/a	stim	poldrack-single-stim	s583	False	1
666.921	1.75	668.671	-0.1500210458733177	draw_card	1.75	columbia_card_task_fmri	16.0	0.7857142857142857	89.0	-65.0	0.2142857142857142	15.0	2.0	3.0	-0.3618536174210405	1.75	n/a	stim	poldrack-single-stim	s583	False	1
668.677	1.399	670.076	-1.4851858810381553	draw_card	1.399	columbia_card_task_fmri	16.0	0.7692307692307692	89.0	-65.0	0.2307692307692307	15.0	3.0	3.0	0.528505078889026	1.399	n/a	stim	poldrack-single-stim	s583	False	1
670.082	1.746	671.828	-3.042878188730462	draw_card	1.746	columbia_card_task_fmri	16.0	0.75	89.0	-65.0	0.25	15.0	4.0	3.0	1.474629643671662	1.746	n/a	stim	poldrack-single-stim	s583	False	1
671.833	1.042	672.875	-4.883787279639552	end_round	1.042	columbia_card_task_fmri	16.0	0.7272727272727273	71.0	-65.0	0.2727272727272727	15.0	5.0	3.0	2.474328791590644	1.042	4.0	stim	poldrack-single-stim	s583	False	1
673.631	1.5	672.88	n/a	-1.0	2.726	columbia_card_task_fmri	n/a	n/a	-1.0	n/a	n/a	n/a	n/a	n/a	n/a	n/a	n/a	ITI	poldrack-single-stim	s583	False	0
675.611	2.488	678.099	-0.6678781887304619	draw_card	2.488	columbia_card_task_fmri	15.0	0.8125	89.0	-75.0	0.1875	16.0	1.0	3.0	1.5286825775838366	2.488	n/a	stim	poldrack-single-stim	s583	False	1
678.105	1.954	680.059	-1.792878188730462	draw_card	1.954	columbia_card_task_fmri	15.0	0.8	89.0	-75.0	0.2	16.0	2.0	3.0	2.4000669570270503	1.954	n/a	stim	poldrack-single-stim	s583	False	1
680.065	1.816	681.881	-3.0785924744447466	draw_card	1.816	columbia_card_task_fmri	15.0	0.7857142857142857	89.0	-75.0	0.2142857142857142	16.0	3.0	3.0	3.328889380262233	1.816	n/a	stim	poldrack-single-stim	s583	False	1
681.886	1.479	683.365	-4.562108957961236	draw_card	1.479	columbia_card_task_fmri	15.0	0.7692307692307692	89.0	-75.0	0.2307692307692307	16.0	4.0	3.0	4.318297422387971	1.479	n/a	stim	poldrack-single-stim	s583	False	1
683.369	1.105	684.474	-6.292878188730462	end_round	1.105	columbia_card_task_fmri	15.0	0.75	71.0	-75.0	0.25	16.0	5.0	3.0	5.369668386813885	1.105	4.0	stim	poldrack-single-stim	s583	False	1
685.236	1.5	684.485	n/a	-1.0	2.454	columbia_card_task_fmri	n/a	n/a	-1.0	n/a	n/a	n/a	n/a	n/a	n/a	n/a	n/a	ITI	poldrack-single-stim	s583	False	0
