duration	onset	block_duration	movement_onset	planning	condition	exp_stage	experiment_exp_id	key_press	problem_id	response_time	trial_id	trial_type	worker_id	junk
5.119	3.018	5.119	8.137	1	UA_with_intermediate	practice	ward_and_allport	71	0.0	5.119	to_hand	poldrack-single-stim	s583	False
0.1	8.139	1.32	9.459	0	UA_with_intermediate	practice	ward_and_allport	82	0.0	1.32	to_board	poldrack-single-stim	s583	False
0.1	9.462	0.984	10.446	0	UA_with_intermediate	practice	ward_and_allport	71	0.0	0.984	to_hand	poldrack-single-stim	s583	False
0.1	10.447	0.827	11.274	0	UA_with_intermediate	practice	ward_and_allport	89	0.0	0.827	to_board	poldrack-single-stim	s583	False
0.1	11.276	1.293	12.569	0	UA_with_intermediate	practice	ward_and_allport	82	0.0	1.293	to_hand	poldrack-single-stim	s583	False
0.1	12.57	0.866	13.436	0	UA_with_intermediate	practice	ward_and_allport	89	0.0	0.866	to_board	poldrack-single-stim	s583	False
1.0	13.441	2.5	13.44	0	UA_with_intermediate	practice	ward_and_allport	-1	0.0	n/a	feedback	poldrack-single-stim	s583	False
3.849	15.943	3.849	19.792	1	UA_with_intermediate	practice	ward_and_allport	89	1.0	3.849	to_hand	poldrack-single-stim	s583	False
0.1	19.793	1.802	21.595	0	UA_with_intermediate	practice	ward_and_allport	82	1.0	1.802	to_board	poldrack-single-stim	s583	False
0.1	21.597	0.667	22.264	0	UA_with_intermediate	practice	ward_and_allport	71	1.0	0.667	to_hand	poldrack-single-stim	s583	False
0.1	22.265	0.834	23.099	0	UA_with_intermediate	practice	ward_and_allport	89	1.0	0.834	to_board	poldrack-single-stim	s583	False
0.1	23.102	0.734	23.836	0	UA_with_intermediate	practice	ward_and_allport	82	1.0	0.734	to_hand	poldrack-single-stim	s583	False
0.1	23.837	0.708	24.545	0	UA_with_intermediate	practice	ward_and_allport	89	1.0	0.708	to_board	poldrack-single-stim	s583	False
1.0	24.551	2.1	24.55	0	UA_with_intermediate	practice	ward_and_allport	-1	1.0	n/a	feedback	poldrack-single-stim	s583	False
3.9	26.652	3.9	30.552	1	UA_without_intermediate	practice	ward_and_allport	71	2.0	3.9	to_hand	poldrack-single-stim	s583	False
0.1	30.554	5.504	36.058	0	UA_without_intermediate	practice	ward_and_allport	71	2.0	5.504	to_board	poldrack-single-stim	s583	False
0.1	36.061	0.969	37.03	0	UA_without_intermediate	practice	ward_and_allport	82	2.0	0.969	to_hand	poldrack-single-stim	s583	False
0.1	37.031	0.864	37.895	0	UA_without_intermediate	practice	ward_and_allport	89	2.0	0.864	to_board	poldrack-single-stim	s583	False
0.1	37.898	1.481	39.379	0	UA_without_intermediate	practice	ward_and_allport	71	2.0	1.481	to_hand	poldrack-single-stim	s583	False
0.1	39.38	0.585	39.965	0	UA_without_intermediate	practice	ward_and_allport	89	2.0	0.585	to_board	poldrack-single-stim	s583	False
0.1	39.968	2.011	41.979	0	UA_without_intermediate	practice	ward_and_allport	71	2.0	2.011	to_hand	poldrack-single-stim	s583	False
0.1	41.981	0.726	42.707	0	UA_without_intermediate	practice	ward_and_allport	89	2.0	0.726	to_board	poldrack-single-stim	s583	False
1.0	42.71	2.2	42.709	0	UA_without_intermediate	practice	ward_and_allport	-1	2.0	n/a	feedback	poldrack-single-stim	s583	False
4.666	44.912	4.666	49.578	1	UA_without_intermediate	practice	ward_and_allport	71	3.0	4.666	to_hand	poldrack-single-stim	s583	False
0.1	49.58	1.038	50.618	0	UA_without_intermediate	practice	ward_and_allport	89	3.0	1.038	to_board	poldrack-single-stim	s583	False
0.1	50.62	2.501	53.121	0	UA_without_intermediate	practice	ward_and_allport	82	3.0	2.501	to_hand	poldrack-single-stim	s583	False
0.1	53.123	0.72	53.843	0	UA_without_intermediate	practice	ward_and_allport	89	3.0	0.72	to_board	poldrack-single-stim	s583	False
0.1	53.844	0.787	54.631	0	UA_without_intermediate	practice	ward_and_allport	71	3.0	0.787	to_hand	poldrack-single-stim	s583	False
0.1	54.633	0.44	55.073	0	UA_without_intermediate	practice	ward_and_allport	89	3.0	0.44	to_board	poldrack-single-stim	s583	False
1.0	55.079	2.0	55.078	0	UA_without_intermediate	practice	ward_and_allport	-1	3.0	n/a	feedback	poldrack-single-stim	s583	False
4.01	59.085	4.01	63.095	1	PA_with_intermediate	test	ward_and_allport	71	0.0	4.01	to_hand	poldrack-single-stim	s583	False
0.1	63.096	0.956	64.052	0	PA_with_intermediate	test	ward_and_allport	82	0.0	0.956	to_board	poldrack-single-stim	s583	False
0.1	64.054	1.329	65.383	0	PA_with_intermediate	test	ward_and_allport	71	0.0	1.329	to_hand	poldrack-single-stim	s583	False
0.1	65.384	0.609	65.993	0	PA_with_intermediate	test	ward_and_allport	89	0.0	0.609	to_board	poldrack-single-stim	s583	False
0.1	65.995	0.828	66.823	0	PA_with_intermediate	test	ward_and_allport	82	0.0	0.828	to_hand	poldrack-single-stim	s583	False
0.1	66.824	0.695	67.519	0	PA_with_intermediate	test	ward_and_allport	89	0.0	0.695	to_board	poldrack-single-stim	s583	False
1.0	67.523	4.176	67.522	0	PA_with_intermediate	test	ward_and_allport	-1	0.0	n/a	feedback	poldrack-single-stim	s583	False
5.415	71.701	5.415	77.116	1	PA_with_intermediate	test	ward_and_allport	89	1.0	5.415	to_hand	poldrack-single-stim	s583	False
0.1	77.118	1.193	78.311	0	PA_with_intermediate	test	ward_and_allport	82	1.0	1.193	to_board	poldrack-single-stim	s583	False
0.1	78.314	0.849	79.163	0	PA_with_intermediate	test	ward_and_allport	89	1.0	0.849	to_hand	poldrack-single-stim	s583	False
0.1	79.164	0.668	79.832	0	PA_with_intermediate	test	ward_and_allport	71	1.0	0.668	to_board	poldrack-single-stim	s583	False
0.1	79.835	1.255	81.09	0	PA_with_intermediate	test	ward_and_allport	82	1.0	1.255	to_hand	poldrack-single-stim	s583	False
0.1	81.091	0.873	81.964	0	PA_with_intermediate	test	ward_and_allport	89	1.0	0.873	to_board	poldrack-single-stim	s583	False
1.0	81.97	3.36	81.969	0	PA_with_intermediate	test	ward_and_allport	-1	1.0	n/a	feedback	poldrack-single-stim	s583	False
5.749	85.332	5.749	91.081	1	PA_with_intermediate	test	ward_and_allport	89	2.0	5.749	to_hand	poldrack-single-stim	s583	False
0.1	91.083	0.839	91.922	0	PA_with_intermediate	test	ward_and_allport	82	2.0	0.839	to_board	poldrack-single-stim	s583	False
0.1	91.925	1.27	93.195	0	PA_with_intermediate	test	ward_and_allport	89	2.0	1.27	to_hand	poldrack-single-stim	s583	False
0.1	93.196	0.766	93.962	0	PA_with_intermediate	test	ward_and_allport	71	2.0	0.766	to_board	poldrack-single-stim	s583	False
0.1	93.965	0.609	94.574	0	PA_with_intermediate	test	ward_and_allport	82	2.0	0.609	to_hand	poldrack-single-stim	s583	False
0.1	94.576	0.882	95.458	0	PA_with_intermediate	test	ward_and_allport	89	2.0	0.882	to_board	poldrack-single-stim	s583	False
1.0	95.464	2.0	95.463	0	PA_with_intermediate	test	ward_and_allport	-1	2.0	n/a	feedback	poldrack-single-stim	s583	False
4.462	97.468	4.462	101.93	1	PA_without_intermediate	test	ward_and_allport	89	3.0	4.462	to_hand	poldrack-single-stim	s583	False
0.1	101.931	1.374	103.305	0	PA_without_intermediate	test	ward_and_allport	82	3.0	1.374	to_board	poldrack-single-stim	s583	False
0.1	103.308	0.834	104.142	0	PA_without_intermediate	test	ward_and_allport	89	3.0	0.834	to_hand	poldrack-single-stim	s583	False
0.1	104.145	0.938	105.083	0	PA_without_intermediate	test	ward_and_allport	71	3.0	0.938	to_board	poldrack-single-stim	s583	False
0.1	105.086	1.171	106.257	0	PA_without_intermediate	test	ward_and_allport	89	3.0	1.171	to_hand	poldrack-single-stim	s583	False
0.1	106.257	0.787	107.044	0	PA_without_intermediate	test	ward_and_allport	82	3.0	0.787	to_board	poldrack-single-stim	s583	False
1.0	107.051	2.408	107.05	0	PA_without_intermediate	test	ward_and_allport	-1	3.0	n/a	feedback	poldrack-single-stim	s583	False
8.27	109.462	8.27	117.732	1	PA_with_intermediate	test	ward_and_allport	82	4.0	8.27	to_hand	poldrack-single-stim	s583	False
0.1	117.733	0.8	118.533	0	PA_with_intermediate	test	ward_and_allport	71	4.0	0.8	to_board	poldrack-single-stim	s583	False
0.1	118.536	2.757	121.293	0	PA_with_intermediate	test	ward_and_allport	82	4.0	2.757	to_hand	poldrack-single-stim	s583	False
0.1	121.294	0.688	121.982	0	PA_with_intermediate	test	ward_and_allport	89	4.0	0.688	to_board	poldrack-single-stim	s583	False
0.1	121.985	1.467	123.452	0	PA_with_intermediate	test	ward_and_allport	71	4.0	1.467	to_hand	poldrack-single-stim	s583	False
0.1	123.453	0.592	124.045	0	PA_with_intermediate	test	ward_and_allport	82	4.0	0.592	to_board	poldrack-single-stim	s583	False
1.0	124.052	2.816	124.051	0	PA_with_intermediate	test	ward_and_allport	-1	4.0	n/a	feedback	poldrack-single-stim	s583	False
4.394	126.871	4.394	131.265	1	PA_without_intermediate	test	ward_and_allport	82	5.0	4.394	to_hand	poldrack-single-stim	s583	False
0.1	131.266	1.216	132.482	0	PA_without_intermediate	test	ward_and_allport	89	5.0	1.216	to_board	poldrack-single-stim	s583	False
0.1	132.486	2.569	135.055	0	PA_without_intermediate	test	ward_and_allport	82	5.0	2.569	to_hand	poldrack-single-stim	s583	False
0.1	135.056	1.289	136.345	0	PA_without_intermediate	test	ward_and_allport	71	5.0	1.289	to_board	poldrack-single-stim	s583	False
0.1	136.348	0.601	136.949	0	PA_without_intermediate	test	ward_and_allport	82	5.0	0.601	to_hand	poldrack-single-stim	s583	False
0.1	136.95	1.146	138.096	0	PA_without_intermediate	test	ward_and_allport	89	5.0	1.146	to_board	poldrack-single-stim	s583	False
1.0	138.1	3.088	138.099	0	PA_without_intermediate	test	ward_and_allport	-1	5.0	n/a	feedback	poldrack-single-stim	s583	False
4.237	141.192	4.237	145.429	1	PA_without_intermediate	test	ward_and_allport	71	6.0	4.237	to_hand	poldrack-single-stim	s583	False
0.1	145.429	0.865	146.294	0	PA_without_intermediate	test	ward_and_allport	82	6.0	0.865	to_board	poldrack-single-stim	s583	False
0.1	146.299	1.026	147.325	0	PA_without_intermediate	test	ward_and_allport	71	6.0	1.026	to_hand	poldrack-single-stim	s583	False
0.1	147.326	0.921	148.247	0	PA_without_intermediate	test	ward_and_allport	89	6.0	0.921	to_board	poldrack-single-stim	s583	False
0.1	148.25	1.023	149.273	0	PA_without_intermediate	test	ward_and_allport	71	6.0	1.023	to_hand	poldrack-single-stim	s583	False
0.1	149.274	0.747	150.021	0	PA_without_intermediate	test	ward_and_allport	82	6.0	0.747	to_board	poldrack-single-stim	s583	False
1.0	150.029	2.136	150.028	0	PA_without_intermediate	test	ward_and_allport	-1	6.0	n/a	feedback	poldrack-single-stim	s583	False
3.526	152.168	3.526	155.694	1	PA_without_intermediate	test	ward_and_allport	89	7.0	3.526	to_hand	poldrack-single-stim	s583	False
0.1	155.695	0.936	156.631	0	PA_without_intermediate	test	ward_and_allport	82	7.0	0.936	to_board	poldrack-single-stim	s583	False
0.1	156.636	1.528	158.164	0	PA_without_intermediate	test	ward_and_allport	89	7.0	1.528	to_hand	poldrack-single-stim	s583	False
0.1	158.166	0.668	158.834	0	PA_without_intermediate	test	ward_and_allport	82	7.0	0.668	to_board	poldrack-single-stim	s583	False
0.1	158.838	0.818	159.656	0	PA_without_intermediate	test	ward_and_allport	89	7.0	0.818	to_hand	poldrack-single-stim	s583	False
0.1	159.658	1.184	160.842	0	PA_without_intermediate	test	ward_and_allport	71	7.0	1.184	to_board	poldrack-single-stim	s583	False
1.0	160.848	7.168	160.847	0	PA_without_intermediate	test	ward_and_allport	-1	7.0	n/a	feedback	poldrack-single-stim	s583	False
4.421	168.02	4.421	172.441	1	PA_without_intermediate	test	ward_and_allport	71	8.0	4.421	to_hand	poldrack-single-stim	s583	False
0.1	172.442	0.721	173.163	0	PA_without_intermediate	test	ward_and_allport	89	8.0	0.721	to_board	poldrack-single-stim	s583	False
0.1	173.167	0.958	174.125	0	PA_without_intermediate	test	ward_and_allport	71	8.0	0.958	to_hand	poldrack-single-stim	s583	False
0.1	174.126	0.623	174.749	0	PA_without_intermediate	test	ward_and_allport	89	8.0	0.623	to_board	poldrack-single-stim	s583	False
0.1	174.753	0.902	175.655	0	PA_without_intermediate	test	ward_and_allport	71	8.0	0.902	to_hand	poldrack-single-stim	s583	False
0.1	175.656	0.858	176.514	0	PA_without_intermediate	test	ward_and_allport	82	8.0	0.858	to_board	poldrack-single-stim	s583	False
1.0	176.519	2.816	176.518	0	PA_without_intermediate	test	ward_and_allport	-1	8.0	n/a	feedback	poldrack-single-stim	s583	False
4.241	179.34	4.241	183.581	1	PA_with_intermediate	test	ward_and_allport	82	9.0	4.241	to_hand	poldrack-single-stim	s583	False
0.1	183.582	0.845	184.427	0	PA_with_intermediate	test	ward_and_allport	89	9.0	0.845	to_board	poldrack-single-stim	s583	False
0.1	184.432	0.907	185.339	0	PA_with_intermediate	test	ward_and_allport	82	9.0	0.907	to_hand	poldrack-single-stim	s583	False
0.1	185.341	0.981	186.322	0	PA_with_intermediate	test	ward_and_allport	71	9.0	0.981	to_board	poldrack-single-stim	s583	False
0.1	186.327	0.619	186.946	0	PA_with_intermediate	test	ward_and_allport	89	9.0	0.619	to_hand	poldrack-single-stim	s583	False
0.1	186.948	1.153	188.101	0	PA_with_intermediate	test	ward_and_allport	71	9.0	1.153	to_board	poldrack-single-stim	s583	False
1.0	188.11	2.952	188.109	0	PA_with_intermediate	test	ward_and_allport	-1	9.0	n/a	feedback	poldrack-single-stim	s583	False
4.059	191.066	4.059	195.125	1	PA_with_intermediate	test	ward_and_allport	71	10.0	4.059	to_hand	poldrack-single-stim	s583	False
0.1	195.127	0.815	195.942	0	PA_with_intermediate	test	ward_and_allport	82	10.0	0.815	to_board	poldrack-single-stim	s583	False
0.1	195.947	0.762	196.709	0	PA_with_intermediate	test	ward_and_allport	71	10.0	0.762	to_hand	poldrack-single-stim	s583	False
0.1	196.711	0.793	197.504	0	PA_with_intermediate	test	ward_and_allport	89	10.0	0.793	to_board	poldrack-single-stim	s583	False
0.1	197.51	1.13	198.64	0	PA_with_intermediate	test	ward_and_allport	82	10.0	1.13	to_hand	poldrack-single-stim	s583	False
0.1	198.641	0.698	199.339	0	PA_with_intermediate	test	ward_and_allport	71	10.0	0.698	to_board	poldrack-single-stim	s583	False
1.0	199.348	2.136	199.347	0	PA_with_intermediate	test	ward_and_allport	-1	10.0	n/a	feedback	poldrack-single-stim	s583	False
3.558	201.491	3.558	205.049	1	PA_without_intermediate	test	ward_and_allport	82	11.0	3.558	to_hand	poldrack-single-stim	s583	False
0.1	205.051	0.89	205.941	0	PA_without_intermediate	test	ward_and_allport	71	11.0	0.89	to_board	poldrack-single-stim	s583	False
0.1	205.945	1.001	206.946	0	PA_without_intermediate	test	ward_and_allport	82	11.0	1.001	to_hand	poldrack-single-stim	s583	False
0.1	206.948	0.791	207.739	0	PA_without_intermediate	test	ward_and_allport	89	11.0	0.791	to_board	poldrack-single-stim	s583	False
0.1	207.745	1.249	208.994	0	PA_without_intermediate	test	ward_and_allport	82	11.0	1.249	to_hand	poldrack-single-stim	s583	False
0.1	208.996	0.626	209.622	0	PA_without_intermediate	test	ward_and_allport	71	11.0	0.626	to_board	poldrack-single-stim	s583	False
1.0	209.631	2.68	209.63	0	PA_without_intermediate	test	ward_and_allport	-1	11.0	n/a	feedback	poldrack-single-stim	s583	False
3.362	212.316	3.362	215.678	1	PA_without_intermediate	test	ward_and_allport	71	12.0	3.362	to_hand	poldrack-single-stim	s583	False
0.1	215.679	0.93	216.609	0	PA_without_intermediate	test	ward_and_allport	82	12.0	0.93	to_board	poldrack-single-stim	s583	False
0.1	216.614	0.629	217.243	0	PA_without_intermediate	test	ward_and_allport	71	12.0	0.629	to_hand	poldrack-single-stim	s583	False
0.1	217.245	0.714	217.959	0	PA_without_intermediate	test	ward_and_allport	82	12.0	0.714	to_board	poldrack-single-stim	s583	False
0.1	217.964	0.674	218.638	0	PA_without_intermediate	test	ward_and_allport	71	12.0	0.674	to_hand	poldrack-single-stim	s583	False
0.1	218.638	0.491	219.129	0	PA_without_intermediate	test	ward_and_allport	89	12.0	0.491	to_board	poldrack-single-stim	s583	False
1.0	219.138	3.088	219.137	0	PA_without_intermediate	test	ward_and_allport	-1	12.0	n/a	feedback	poldrack-single-stim	s583	False
4.383	222.229	4.383	226.612	1	PA_with_intermediate	test	ward_and_allport	89	13.0	4.383	to_hand	poldrack-single-stim	s583	False
0.1	226.614	0.769	227.383	0	PA_with_intermediate	test	ward_and_allport	71	13.0	0.769	to_board	poldrack-single-stim	s583	False
0.1	227.388	1.004	228.392	0	PA_with_intermediate	test	ward_and_allport	89	13.0	1.004	to_hand	poldrack-single-stim	s583	False
0.1	228.394	0.917	229.311	0	PA_with_intermediate	test	ward_and_allport	82	13.0	0.917	to_board	poldrack-single-stim	s583	False
0.1	229.315	0.899	230.214	0	PA_with_intermediate	test	ward_and_allport	71	13.0	0.899	to_hand	poldrack-single-stim	s583	False
0.1	230.215	0.527	230.742	0	PA_with_intermediate	test	ward_and_allport	89	13.0	0.527	to_board	poldrack-single-stim	s583	False
1.0	230.746	2.0	230.745	0	PA_with_intermediate	test	ward_and_allport	-1	13.0	n/a	feedback	poldrack-single-stim	s583	False
3.383	232.752	3.383	236.135	1	PA_without_intermediate	test	ward_and_allport	82	14.0	3.383	to_hand	poldrack-single-stim	s583	False
0.1	236.136	1.009	237.145	0	PA_without_intermediate	test	ward_and_allport	71	14.0	1.009	to_board	poldrack-single-stim	s583	False
0.1	237.15	0.655	237.805	0	PA_without_intermediate	test	ward_and_allport	82	14.0	0.655	to_hand	poldrack-single-stim	s583	False
0.1	237.807	0.953	238.76	0	PA_without_intermediate	test	ward_and_allport	71	14.0	0.953	to_board	poldrack-single-stim	s583	False
0.1	238.765	0.774	239.539	0	PA_without_intermediate	test	ward_and_allport	82	14.0	0.774	to_hand	poldrack-single-stim	s583	False
0.1	239.541	0.708	240.249	0	PA_without_intermediate	test	ward_and_allport	89	14.0	0.708	to_board	poldrack-single-stim	s583	False
1.0	240.256	2.0	240.255	0	PA_without_intermediate	test	ward_and_allport	-1	14.0	n/a	feedback	poldrack-single-stim	s583	False
6.334	247.265	6.334	253.599	1	PA_without_intermediate	test	ward_and_allport	71	15.0	6.334	to_hand	poldrack-single-stim	s583	False
0.1	253.6	0.613	254.213	0	PA_without_intermediate	test	ward_and_allport	89	15.0	0.613	to_board	poldrack-single-stim	s583	False
0.1	254.219	1.002	255.221	0	PA_without_intermediate	test	ward_and_allport	71	15.0	1.002	to_hand	poldrack-single-stim	s583	False
0.1	255.222	0.634	255.856	0	PA_without_intermediate	test	ward_and_allport	89	15.0	0.634	to_board	poldrack-single-stim	s583	False
0.1	255.861	0.515	256.376	0	PA_without_intermediate	test	ward_and_allport	71	15.0	0.515	to_hand	poldrack-single-stim	s583	False
0.1	256.377	0.684	257.061	0	PA_without_intermediate	test	ward_and_allport	82	15.0	0.684	to_board	poldrack-single-stim	s583	False
1.0	257.066	2.0	257.065	0	PA_without_intermediate	test	ward_and_allport	-1	15.0	n/a	feedback	poldrack-single-stim	s583	False
3.566	259.071	3.566	262.637	1	PA_with_intermediate	test	ward_and_allport	71	16.0	3.566	to_hand	poldrack-single-stim	s583	False
0.1	262.638	0.809	263.447	0	PA_with_intermediate	test	ward_and_allport	89	16.0	0.809	to_board	poldrack-single-stim	s583	False
0.1	263.453	0.744	264.197	0	PA_with_intermediate	test	ward_and_allport	71	16.0	0.744	to_hand	poldrack-single-stim	s583	False
0.1	264.198	0.777	264.975	0	PA_with_intermediate	test	ward_and_allport	82	16.0	0.777	to_board	poldrack-single-stim	s583	False
0.1	264.98	0.671	265.651	0	PA_with_intermediate	test	ward_and_allport	89	16.0	0.671	to_hand	poldrack-single-stim	s583	False
0.1	265.652	0.58	266.232	0	PA_with_intermediate	test	ward_and_allport	71	16.0	0.58	to_board	poldrack-single-stim	s583	False
1.0	266.238	2.544	266.237	0	PA_with_intermediate	test	ward_and_allport	-1	16.0	n/a	feedback	poldrack-single-stim	s583	False
5.273	268.787	5.273	274.06	1	PA_without_intermediate	test	ward_and_allport	82	17.0	5.273	to_hand	poldrack-single-stim	s583	False
0.1	274.062	1.159	275.221	0	PA_without_intermediate	test	ward_and_allport	71	17.0	1.159	to_board	poldrack-single-stim	s583	False
0.1	275.228	0.935	276.163	0	PA_without_intermediate	test	ward_and_allport	82	17.0	0.935	to_hand	poldrack-single-stim	s583	False
0.1	276.163	0.793	276.956	0	PA_without_intermediate	test	ward_and_allport	89	17.0	0.793	to_board	poldrack-single-stim	s583	False
0.1	276.961	0.889	277.85	0	PA_without_intermediate	test	ward_and_allport	82	17.0	0.889	to_hand	poldrack-single-stim	s583	False
0.1	277.851	0.701	278.552	0	PA_without_intermediate	test	ward_and_allport	71	17.0	0.701	to_board	poldrack-single-stim	s583	False
1.0	278.559	2.272	278.558	0	PA_without_intermediate	test	ward_and_allport	-1	17.0	n/a	feedback	poldrack-single-stim	s583	False
3.253	280.837	3.253	284.09	1	PA_with_intermediate	test	ward_and_allport	82	18.0	3.253	to_hand	poldrack-single-stim	s583	False
0.1	284.091	0.96	285.051	0	PA_with_intermediate	test	ward_and_allport	71	18.0	0.96	to_board	poldrack-single-stim	s583	False
0.1	285.057	0.599	285.656	0	PA_with_intermediate	test	ward_and_allport	82	18.0	0.599	to_hand	poldrack-single-stim	s583	False
0.1	285.657	0.843	286.5	0	PA_with_intermediate	test	ward_and_allport	89	18.0	0.843	to_board	poldrack-single-stim	s583	False
0.1	286.506	0.59	287.096	0	PA_with_intermediate	test	ward_and_allport	71	18.0	0.59	to_hand	poldrack-single-stim	s583	False
0.1	287.097	0.613	287.71	0	PA_with_intermediate	test	ward_and_allport	89	18.0	0.613	to_board	poldrack-single-stim	s583	False
1.0	287.719	4.04	287.718	0	PA_with_intermediate	test	ward_and_allport	-1	18.0	n/a	feedback	poldrack-single-stim	s583	False
4.018	291.765	4.018	295.783	1	PA_with_intermediate	test	ward_and_allport	71	19.0	4.018	to_hand	poldrack-single-stim	s583	False
0.1	295.785	0.457	296.242	0	PA_with_intermediate	test	ward_and_allport	89	19.0	0.457	to_board	poldrack-single-stim	s583	False
0.1	296.248	0.644	296.892	0	PA_with_intermediate	test	ward_and_allport	71	19.0	0.644	to_hand	poldrack-single-stim	s583	False
0.1	296.894	0.61	297.504	0	PA_with_intermediate	test	ward_and_allport	82	19.0	0.61	to_board	poldrack-single-stim	s583	False
0.1	297.511	0.651	298.162	0	PA_with_intermediate	test	ward_and_allport	89	19.0	0.651	to_hand	poldrack-single-stim	s583	False
0.1	298.164	0.687	298.851	0	PA_with_intermediate	test	ward_and_allport	82	19.0	0.687	to_board	poldrack-single-stim	s583	False
1.0	298.858	2.272	298.857	0	PA_with_intermediate	test	ward_and_allport	-1	19.0	n/a	feedback	poldrack-single-stim	s583	False
3.437	301.135	3.437	304.572	1	PA_with_intermediate	test	ward_and_allport	71	20.0	3.437	to_hand	poldrack-single-stim	s583	False
0.1	304.573	0.827	305.4	0	PA_with_intermediate	test	ward_and_allport	89	20.0	0.827	to_board	poldrack-single-stim	s583	False
0.1	305.406	0.685	306.091	0	PA_with_intermediate	test	ward_and_allport	71	20.0	0.685	to_hand	poldrack-single-stim	s583	False
0.1	306.092	0.656	306.748	0	PA_with_intermediate	test	ward_and_allport	82	20.0	0.656	to_board	poldrack-single-stim	s583	False
0.1	306.754	0.804	307.558	0	PA_with_intermediate	test	ward_and_allport	89	20.0	0.804	to_hand	poldrack-single-stim	s583	False
0.1	307.56	0.709	308.269	0	PA_with_intermediate	test	ward_and_allport	82	20.0	0.709	to_board	poldrack-single-stim	s583	False
1.0	308.28	2.136	308.279	0	PA_with_intermediate	test	ward_and_allport	-1	20.0	n/a	feedback	poldrack-single-stim	s583	False
3.211	310.422	3.211	313.633	1	PA_with_intermediate	test	ward_and_allport	89	21.0	3.211	to_hand	poldrack-single-stim	s583	False
0.1	313.634	0.757	314.391	0	PA_with_intermediate	test	ward_and_allport	71	21.0	0.757	to_board	poldrack-single-stim	s583	False
0.1	314.398	0.932	315.33	0	PA_with_intermediate	test	ward_and_allport	89	21.0	0.932	to_hand	poldrack-single-stim	s583	False
0.1	315.331	0.581	315.912	0	PA_with_intermediate	test	ward_and_allport	82	21.0	0.581	to_board	poldrack-single-stim	s583	False
0.1	315.919	0.627	316.546	0	PA_with_intermediate	test	ward_and_allport	71	21.0	0.627	to_hand	poldrack-single-stim	s583	False
0.1	316.548	0.479	317.027	0	PA_with_intermediate	test	ward_and_allport	82	21.0	0.479	to_board	poldrack-single-stim	s583	False
1.0	317.034	2.0	317.033	0	PA_with_intermediate	test	ward_and_allport	-1	21.0	n/a	feedback	poldrack-single-stim	s583	False
2.927	319.04	2.927	321.967	1	PA_with_intermediate	test	ward_and_allport	89	22.0	2.927	to_hand	poldrack-single-stim	s583	False
0.1	321.969	0.785	322.754	0	PA_with_intermediate	test	ward_and_allport	71	22.0	0.785	to_board	poldrack-single-stim	s583	False
0.1	322.761	0.71	323.471	0	PA_with_intermediate	test	ward_and_allport	89	22.0	0.71	to_hand	poldrack-single-stim	s583	False
0.1	323.472	0.663	324.135	0	PA_with_intermediate	test	ward_and_allport	82	22.0	0.663	to_board	poldrack-single-stim	s583	False
0.1	324.143	0.825	324.968	0	PA_with_intermediate	test	ward_and_allport	71	22.0	0.825	to_hand	poldrack-single-stim	s583	False
0.1	324.969	0.512	325.481	0	PA_with_intermediate	test	ward_and_allport	82	22.0	0.512	to_board	poldrack-single-stim	s583	False
1.0	325.493	2.0	325.492	0	PA_with_intermediate	test	ward_and_allport	-1	22.0	n/a	feedback	poldrack-single-stim	s583	False
3.563	327.499	3.563	331.062	1	PA_without_intermediate	test	ward_and_allport	89	23.0	3.563	to_hand	poldrack-single-stim	s583	False
0.1	331.063	1.309	332.372	0	PA_without_intermediate	test	ward_and_allport	71	23.0	1.309	to_board	poldrack-single-stim	s583	False
0.1	332.38	0.613	332.993	0	PA_without_intermediate	test	ward_and_allport	89	23.0	0.613	to_hand	poldrack-single-stim	s583	False
0.1	332.993	0.528	333.521	0	PA_without_intermediate	test	ward_and_allport	82	23.0	0.528	to_board	poldrack-single-stim	s583	False
0.1	333.53	0.844	334.374	0	PA_without_intermediate	test	ward_and_allport	89	23.0	0.844	to_hand	poldrack-single-stim	s583	False
0.1	334.374	1.035	335.409	0	PA_without_intermediate	test	ward_and_allport	71	23.0	1.035	to_board	poldrack-single-stim	s583	False
1.0	335.422	2.408	335.421	0	PA_without_intermediate	test	ward_and_allport	-1	23.0	n/a	feedback	poldrack-single-stim	s583	False
3.787	337.838	3.787	341.625	1	PA_with_intermediate	test	ward_and_allport	71	24.0	3.787	to_hand	poldrack-single-stim	s583	False
0.1	341.626	0.536	342.162	0	PA_with_intermediate	test	ward_and_allport	89	24.0	0.536	to_board	poldrack-single-stim	s583	False
0.1	342.17	0.57	342.74	0	PA_with_intermediate	test	ward_and_allport	71	24.0	0.57	to_hand	poldrack-single-stim	s583	False
0.1	342.741	0.732	343.473	0	PA_with_intermediate	test	ward_and_allport	82	24.0	0.732	to_board	poldrack-single-stim	s583	False
0.1	343.481	0.59	344.071	0	PA_with_intermediate	test	ward_and_allport	89	24.0	0.59	to_hand	poldrack-single-stim	s583	False
0.1	344.072	0.536	344.608	0	PA_with_intermediate	test	ward_and_allport	71	24.0	0.536	to_board	poldrack-single-stim	s583	False
1.0	344.619	3.768	344.618	0	PA_with_intermediate	test	ward_and_allport	-1	24.0	n/a	feedback	poldrack-single-stim	s583	False
4.092	348.394	4.092	352.486	1	PA_with_intermediate	test	ward_and_allport	89	25.0	4.092	to_hand	poldrack-single-stim	s583	False
0.1	352.488	0.626	353.114	0	PA_with_intermediate	test	ward_and_allport	71	25.0	0.626	to_board	poldrack-single-stim	s583	False
0.1	353.123	0.616	353.739	0	PA_with_intermediate	test	ward_and_allport	89	25.0	0.616	to_hand	poldrack-single-stim	s583	False
0.1	353.741	0.71	354.451	0	PA_with_intermediate	test	ward_and_allport	82	25.0	0.71	to_board	poldrack-single-stim	s583	False
0.1	354.459	0.644	355.103	0	PA_with_intermediate	test	ward_and_allport	71	25.0	0.644	to_hand	poldrack-single-stim	s583	False
0.1	355.105	0.688	355.793	0	PA_with_intermediate	test	ward_and_allport	89	25.0	0.688	to_board	poldrack-single-stim	s583	False
1.0	355.803	2.68	355.802	0	PA_with_intermediate	test	ward_and_allport	-1	25.0	n/a	feedback	poldrack-single-stim	s583	False
3.719	358.49	3.719	362.209	1	PA_without_intermediate	test	ward_and_allport	82	26.0	3.719	to_hand	poldrack-single-stim	s583	False
0.1	362.21	1.35	363.56	0	PA_without_intermediate	test	ward_and_allport	71	26.0	1.35	to_board	poldrack-single-stim	s583	False
0.1	363.568	2.882	366.45	0	PA_without_intermediate	test	ward_and_allport	82	26.0	2.882	to_hand	poldrack-single-stim	s583	False
0.1	366.452	0.589	367.041	0	PA_without_intermediate	test	ward_and_allport	71	26.0	0.589	to_board	poldrack-single-stim	s583	False
0.1	367.05	0.691	367.741	0	PA_without_intermediate	test	ward_and_allport	82	26.0	0.691	to_hand	poldrack-single-stim	s583	False
0.1	367.742	0.547	368.289	0	PA_without_intermediate	test	ward_and_allport	89	26.0	0.547	to_board	poldrack-single-stim	s583	False
1.0	368.298	3.224	368.297	0	PA_without_intermediate	test	ward_and_allport	-1	26.0	n/a	feedback	poldrack-single-stim	s583	False
3.766	371.53	3.766	375.296	1	PA_without_intermediate	test	ward_and_allport	71	27.0	3.766	to_hand	poldrack-single-stim	s583	False
0.1	375.297	0.79	376.087	0	PA_without_intermediate	test	ward_and_allport	89	27.0	0.79	to_board	poldrack-single-stim	s583	False
0.1	376.095	0.892	376.987	0	PA_without_intermediate	test	ward_and_allport	71	27.0	0.892	to_hand	poldrack-single-stim	s583	False
0.1	376.988	0.679	377.667	0	PA_without_intermediate	test	ward_and_allport	82	27.0	0.679	to_board	poldrack-single-stim	s583	False
0.1	377.675	0.785	378.46	0	PA_without_intermediate	test	ward_and_allport	71	27.0	0.785	to_hand	poldrack-single-stim	s583	False
0.1	378.462	0.64	379.102	0	PA_without_intermediate	test	ward_and_allport	89	27.0	0.64	to_board	poldrack-single-stim	s583	False
1.0	379.111	3.36	379.11	0	PA_without_intermediate	test	ward_and_allport	-1	27.0	n/a	feedback	poldrack-single-stim	s583	False
2.273	382.48	2.273	384.753	1	PA_without_intermediate	test	ward_and_allport	89	28.0	2.273	to_hand	poldrack-single-stim	s583	False
0.1	384.755	1.151	385.906	0	PA_without_intermediate	test	ward_and_allport	71	28.0	1.151	to_board	poldrack-single-stim	s583	False
0.1	385.915	0.939	386.854	0	PA_without_intermediate	test	ward_and_allport	89	28.0	0.939	to_hand	poldrack-single-stim	s583	False
0.1	386.855	0.943	387.798	0	PA_without_intermediate	test	ward_and_allport	82	28.0	0.943	to_board	poldrack-single-stim	s583	False
0.1	387.806	0.922	388.728	0	PA_without_intermediate	test	ward_and_allport	89	28.0	0.922	to_hand	poldrack-single-stim	s583	False
0.1	388.73	0.569	389.299	0	PA_without_intermediate	test	ward_and_allport	71	28.0	0.569	to_board	poldrack-single-stim	s583	False
1.0	389.309	2.0	389.308	0	PA_without_intermediate	test	ward_and_allport	-1	28.0	n/a	feedback	poldrack-single-stim	s583	False
3.523	391.318	3.523	394.841	1	PA_without_intermediate	test	ward_and_allport	71	29.0	3.523	to_hand	poldrack-single-stim	s583	False
0.1	394.842	0.942	395.784	0	PA_without_intermediate	test	ward_and_allport	82	29.0	0.942	to_board	poldrack-single-stim	s583	False
0.1	395.792	0.703	396.495	0	PA_without_intermediate	test	ward_and_allport	71	29.0	0.703	to_hand	poldrack-single-stim	s583	False
0.1	396.497	0.551	397.048	0	PA_without_intermediate	test	ward_and_allport	89	29.0	0.551	to_board	poldrack-single-stim	s583	False
0.1	397.057	0.866	397.923	0	PA_without_intermediate	test	ward_and_allport	71	29.0	0.866	to_hand	poldrack-single-stim	s583	False
0.1	397.924	0.624	398.548	0	PA_without_intermediate	test	ward_and_allport	82	29.0	0.624	to_board	poldrack-single-stim	s583	False
1.0	398.56	2.408	398.559	0	PA_without_intermediate	test	ward_and_allport	-1	29.0	n/a	feedback	poldrack-single-stim	s583	False
3.942	405.981	3.942	409.923	1	PA_with_intermediate	test	ward_and_allport	82	30.0	3.942	to_hand	poldrack-single-stim	s583	False
0.1	409.925	1.407	411.332	0	PA_with_intermediate	test	ward_and_allport	89	30.0	1.407	to_board	poldrack-single-stim	s583	False
0.1	411.341	0.83	412.171	0	PA_with_intermediate	test	ward_and_allport	82	30.0	0.83	to_hand	poldrack-single-stim	s583	False
0.1	412.172	1.226	413.398	0	PA_with_intermediate	test	ward_and_allport	71	30.0	1.226	to_board	poldrack-single-stim	s583	False
0.1	413.407	0.886	414.293	0	PA_with_intermediate	test	ward_and_allport	89	30.0	0.886	to_hand	poldrack-single-stim	s583	False
0.1	414.294	0.631	414.925	0	PA_with_intermediate	test	ward_and_allport	82	30.0	0.631	to_board	poldrack-single-stim	s583	False
1.0	414.938	2.136	414.937	0	PA_with_intermediate	test	ward_and_allport	-1	30.0	n/a	feedback	poldrack-single-stim	s583	False
4.751	417.084	4.751	421.835	1	PA_without_intermediate	test	ward_and_allport	82	31.0	4.751	to_hand	poldrack-single-stim	s583	False
0.1	421.836	0.522	422.358	0	PA_without_intermediate	test	ward_and_allport	89	31.0	0.522	to_board	poldrack-single-stim	s583	False
0.1	422.367	0.457	422.824	0	PA_without_intermediate	test	ward_and_allport	82	31.0	0.457	to_hand	poldrack-single-stim	s583	False
0.1	422.825	0.679	423.504	0	PA_without_intermediate	test	ward_and_allport	89	31.0	0.679	to_board	poldrack-single-stim	s583	False
0.1	423.513	0.588	424.101	0	PA_without_intermediate	test	ward_and_allport	82	31.0	0.588	to_hand	poldrack-single-stim	s583	False
0.1	424.102	0.657	424.759	0	PA_without_intermediate	test	ward_and_allport	71	31.0	0.657	to_board	poldrack-single-stim	s583	False
1.0	424.775	5.128	424.774	0	PA_without_intermediate	test	ward_and_allport	-1	31.0	n/a	feedback	poldrack-single-stim	s583	False
4.355	429.915	4.355	434.27	1	PA_without_intermediate	test	ward_and_allport	71	32.0	4.355	to_hand	poldrack-single-stim	s583	False
0.1	434.271	0.873	435.144	0	PA_without_intermediate	test	ward_and_allport	82	32.0	0.873	to_board	poldrack-single-stim	s583	False
0.1	435.155	0.729	435.884	0	PA_without_intermediate	test	ward_and_allport	71	32.0	0.729	to_hand	poldrack-single-stim	s583	False
0.1	435.885	0.529	436.414	0	PA_without_intermediate	test	ward_and_allport	82	32.0	0.529	to_board	poldrack-single-stim	s583	False
0.1	436.423	0.801	437.224	0	PA_without_intermediate	test	ward_and_allport	71	32.0	0.801	to_hand	poldrack-single-stim	s583	False
0.1	437.225	0.464	437.689	0	PA_without_intermediate	test	ward_and_allport	89	32.0	0.464	to_board	poldrack-single-stim	s583	False
1.0	437.703	2.136	437.702	0	PA_without_intermediate	test	ward_and_allport	-1	32.0	n/a	feedback	poldrack-single-stim	s583	False
2.782	439.849	2.782	442.631	1	PA_without_intermediate	test	ward_and_allport	89	33.0	2.782	to_hand	poldrack-single-stim	s583	False
0.1	442.632	0.865	443.497	0	PA_without_intermediate	test	ward_and_allport	71	33.0	0.865	to_board	poldrack-single-stim	s583	False
0.1	443.509	0.694	444.203	0	PA_without_intermediate	test	ward_and_allport	89	33.0	0.694	to_hand	poldrack-single-stim	s583	False
0.1	444.205	0.762	444.967	0	PA_without_intermediate	test	ward_and_allport	71	33.0	0.762	to_board	poldrack-single-stim	s583	False
0.1	444.977	0.701	445.678	0	PA_without_intermediate	test	ward_and_allport	89	33.0	0.701	to_hand	poldrack-single-stim	s583	False
0.1	445.68	0.639	446.319	0	PA_without_intermediate	test	ward_and_allport	82	33.0	0.639	to_board	poldrack-single-stim	s583	False
1.0	446.335	5.264	446.334	0	PA_without_intermediate	test	ward_and_allport	-1	33.0	n/a	feedback	poldrack-single-stim	s583	False
3.706	451.611	3.706	455.317	1	PA_with_intermediate	test	ward_and_allport	89	34.0	3.706	to_hand	poldrack-single-stim	s583	False
0.1	455.318	0.939	456.257	0	PA_with_intermediate	test	ward_and_allport	82	34.0	0.939	to_board	poldrack-single-stim	s583	False
0.1	456.266	0.654	456.92	0	PA_with_intermediate	test	ward_and_allport	89	34.0	0.654	to_hand	poldrack-single-stim	s583	False
0.1	456.922	0.709	457.631	0	PA_with_intermediate	test	ward_and_allport	71	34.0	0.709	to_board	poldrack-single-stim	s583	False
0.1	457.643	0.605	458.248	0	PA_with_intermediate	test	ward_and_allport	82	34.0	0.605	to_hand	poldrack-single-stim	s583	False
0.1	458.249	0.999	459.248	0	PA_with_intermediate	test	ward_and_allport	71	34.0	0.999	to_board	poldrack-single-stim	s583	False
1.0	459.26	4.04	459.259	0	PA_with_intermediate	test	ward_and_allport	-1	34.0	n/a	feedback	poldrack-single-stim	s583	False
3.672	463.312	3.672	466.984	1	PA_with_intermediate	test	ward_and_allport	82	35.0	3.672	to_hand	poldrack-single-stim	s583	False
0.1	466.985	0.587	467.572	0	PA_with_intermediate	test	ward_and_allport	89	35.0	0.587	to_board	poldrack-single-stim	s583	False
0.1	467.585	0.779	468.364	0	PA_with_intermediate	test	ward_and_allport	82	35.0	0.779	to_hand	poldrack-single-stim	s583	False
0.1	468.366	0.848	469.214	0	PA_with_intermediate	test	ward_and_allport	71	35.0	0.848	to_board	poldrack-single-stim	s583	False
0.1	469.226	0.493	469.719	0	PA_with_intermediate	test	ward_and_allport	89	35.0	0.493	to_hand	poldrack-single-stim	s583	False
0.1	469.721	0.544	470.265	0	PA_with_intermediate	test	ward_and_allport	71	35.0	0.544	to_board	poldrack-single-stim	s583	False
1.0	470.28	2.136	470.279	0	PA_with_intermediate	test	ward_and_allport	-1	35.0	n/a	feedback	poldrack-single-stim	s583	False
3.92	472.426	3.92	476.346	1	PA_with_intermediate	test	ward_and_allport	82	36.0	3.92	to_hand	poldrack-single-stim	s583	False
0.1	476.348	0.923	477.271	0	PA_with_intermediate	test	ward_and_allport	89	36.0	0.923	to_board	poldrack-single-stim	s583	False
0.1	477.28	0.67	477.95	0	PA_with_intermediate	test	ward_and_allport	82	36.0	0.67	to_hand	poldrack-single-stim	s583	False
0.1	477.951	0.982	478.933	0	PA_with_intermediate	test	ward_and_allport	71	36.0	0.982	to_board	poldrack-single-stim	s583	False
0.1	478.943	0.855	479.798	0	PA_with_intermediate	test	ward_and_allport	89	36.0	0.855	to_hand	poldrack-single-stim	s583	False
0.1	479.799	1.103	480.902	0	PA_with_intermediate	test	ward_and_allport	82	36.0	1.103	to_board	poldrack-single-stim	s583	False
1.0	480.917	2.408	480.916	0	PA_with_intermediate	test	ward_and_allport	-1	36.0	n/a	feedback	poldrack-single-stim	s583	False
3.764	483.337	3.764	487.101	1	PA_without_intermediate	test	ward_and_allport	82	37.0	3.764	to_hand	poldrack-single-stim	s583	False
0.1	487.102	0.961	488.063	0	PA_without_intermediate	test	ward_and_allport	89	37.0	0.961	to_board	poldrack-single-stim	s583	False
0.1	488.071	0.75	488.821	0	PA_without_intermediate	test	ward_and_allport	82	37.0	0.75	to_hand	poldrack-single-stim	s583	False
0.1	488.822	0.84	489.662	0	PA_without_intermediate	test	ward_and_allport	89	37.0	0.84	to_board	poldrack-single-stim	s583	False
0.1	489.673	0.669	490.342	0	PA_without_intermediate	test	ward_and_allport	82	37.0	0.669	to_hand	poldrack-single-stim	s583	False
0.1	490.343	0.732	491.075	0	PA_without_intermediate	test	ward_and_allport	71	37.0	0.732	to_board	poldrack-single-stim	s583	False
1.0	491.088	2.68	491.087	0	PA_without_intermediate	test	ward_and_allport	-1	37.0	n/a	feedback	poldrack-single-stim	s583	False
3.236	493.779	3.236	497.015	1	PA_with_intermediate	test	ward_and_allport	89	38.0	3.236	to_hand	poldrack-single-stim	s583	False
0.1	497.018	1.77	498.788	0	PA_with_intermediate	test	ward_and_allport	82	38.0	1.77	to_board	poldrack-single-stim	s583	False
0.1	498.796	0.644	499.44	0	PA_with_intermediate	test	ward_and_allport	89	38.0	0.644	to_hand	poldrack-single-stim	s583	False
0.1	499.442	1.029	500.471	0	PA_with_intermediate	test	ward_and_allport	71	38.0	1.029	to_board	poldrack-single-stim	s583	False
0.1	500.483	1.288	501.771	0	PA_with_intermediate	test	ward_and_allport	82	38.0	1.288	to_hand	poldrack-single-stim	s583	False
0.1	501.773	0.96	502.733	0	PA_with_intermediate	test	ward_and_allport	71	38.0	0.96	to_board	poldrack-single-stim	s583	False
1.0	502.748	4.72	502.747	0	PA_with_intermediate	test	ward_and_allport	-1	38.0	n/a	feedback	poldrack-single-stim	s583	False
3.941	507.48	3.941	511.421	1	PA_without_intermediate	test	ward_and_allport	82	39.0	3.941	to_hand	poldrack-single-stim	s583	False
0.1	511.422	0.928	512.35	0	PA_without_intermediate	test	ward_and_allport	89	39.0	0.928	to_board	poldrack-single-stim	s583	False
0.1	512.361	0.746	513.107	0	PA_without_intermediate	test	ward_and_allport	82	39.0	0.746	to_hand	poldrack-single-stim	s583	False
0.1	513.108	0.682	513.79	0	PA_without_intermediate	test	ward_and_allport	71	39.0	0.682	to_board	poldrack-single-stim	s583	False
0.1	513.803	0.57	514.373	0	PA_without_intermediate	test	ward_and_allport	82	39.0	0.57	to_hand	poldrack-single-stim	s583	False
0.1	514.375	0.649	515.024	0	PA_without_intermediate	test	ward_and_allport	89	39.0	0.649	to_board	poldrack-single-stim	s583	False
1.0	515.039	3.224	515.038	0	PA_without_intermediate	test	ward_and_allport	-1	39.0	n/a	feedback	poldrack-single-stim	s583	False
4.112	518.275	4.112	522.387	1	PA_without_intermediate	test	ward_and_allport	89	40.0	4.112	to_hand	poldrack-single-stim	s583	False
0.1	522.388	0.978	523.366	0	PA_without_intermediate	test	ward_and_allport	82	40.0	0.978	to_board	poldrack-single-stim	s583	False
0.1	523.374	0.59	523.964	0	PA_without_intermediate	test	ward_and_allport	89	40.0	0.59	to_hand	poldrack-single-stim	s583	False
0.1	523.965	0.466	524.431	0	PA_without_intermediate	test	ward_and_allport	82	40.0	0.466	to_board	poldrack-single-stim	s583	False
0.1	524.44	0.749	525.189	0	PA_without_intermediate	test	ward_and_allport	89	40.0	0.749	to_hand	poldrack-single-stim	s583	False
0.1	525.191	0.734	525.925	0	PA_without_intermediate	test	ward_and_allport	71	40.0	0.734	to_board	poldrack-single-stim	s583	False
1.0	525.937	2.272	525.936	0	PA_without_intermediate	test	ward_and_allport	-1	40.0	n/a	feedback	poldrack-single-stim	s583	False
5.772	528.221	5.772	533.993	1	PA_with_intermediate	test	ward_and_allport	82	41.0	5.772	to_hand	poldrack-single-stim	s583	False
0.1	533.995	0.889	534.884	0	PA_with_intermediate	test	ward_and_allport	71	41.0	0.889	to_board	poldrack-single-stim	s583	False
0.1	534.898	0.45	535.348	0	PA_with_intermediate	test	ward_and_allport	82	41.0	0.45	to_hand	poldrack-single-stim	s583	False
0.1	535.35	0.543	535.893	0	PA_with_intermediate	test	ward_and_allport	89	41.0	0.543	to_board	poldrack-single-stim	s583	False
0.1	535.905	1.385	537.29	0	PA_with_intermediate	test	ward_and_allport	71	41.0	1.385	to_hand	poldrack-single-stim	s583	False
0.1	537.292	0.652	537.944	0	PA_with_intermediate	test	ward_and_allport	89	41.0	0.652	to_board	poldrack-single-stim	s583	False
1.0	537.96	3.632	537.959	0	PA_with_intermediate	test	ward_and_allport	-1	41.0	n/a	feedback	poldrack-single-stim	s583	False
5.646	541.603	5.646	547.249	1	PA_without_intermediate	test	ward_and_allport	71	42.0	5.646	to_hand	poldrack-single-stim	s583	False
0.1	547.249	0.9	548.149	0	PA_without_intermediate	test	ward_and_allport	89	42.0	0.9	to_board	poldrack-single-stim	s583	False
0.1	548.162	0.766	548.928	0	PA_without_intermediate	test	ward_and_allport	71	42.0	0.766	to_hand	poldrack-single-stim	s583	False
0.1	548.929	0.742	549.671	0	PA_without_intermediate	test	ward_and_allport	82	42.0	0.742	to_board	poldrack-single-stim	s583	False
0.1	549.683	0.928	550.611	0	PA_without_intermediate	test	ward_and_allport	71	42.0	0.928	to_hand	poldrack-single-stim	s583	False
0.1	550.612	0.57	551.182	0	PA_without_intermediate	test	ward_and_allport	89	42.0	0.57	to_board	poldrack-single-stim	s583	False
1.0	551.195	2.408	551.194	0	PA_without_intermediate	test	ward_and_allport	-1	42.0	n/a	feedback	poldrack-single-stim	s583	False
3.367	553.614	3.367	556.981	1	PA_without_intermediate	test	ward_and_allport	89	43.0	3.367	to_hand	poldrack-single-stim	s583	False
0.1	556.982	0.773	557.755	0	PA_without_intermediate	test	ward_and_allport	71	43.0	0.773	to_board	poldrack-single-stim	s583	False
0.1	557.764	0.607	558.371	0	PA_without_intermediate	test	ward_and_allport	89	43.0	0.607	to_hand	poldrack-single-stim	s583	False
0.1	558.373	0.753	559.126	0	PA_without_intermediate	test	ward_and_allport	71	43.0	0.753	to_board	poldrack-single-stim	s583	False
0.1	559.14	0.719	559.859	0	PA_without_intermediate	test	ward_and_allport	89	43.0	0.719	to_hand	poldrack-single-stim	s583	False
0.1	559.861	0.741	560.602	0	PA_without_intermediate	test	ward_and_allport	82	43.0	0.741	to_board	poldrack-single-stim	s583	False
1.0	560.615	2.0	560.614	0	PA_without_intermediate	test	ward_and_allport	-1	43.0	n/a	feedback	poldrack-single-stim	s583	False
