onset	duration	movement_onset	CTI	block_duration	correct	correct_response	cue	cue_switch	experiment_exp_id	key_press	response_time	stim_color	stim_number	switch_type	task	task_switch	trial_id	trial_type	worker_id	first_trial_of_block	junk
4.425	1.0	6.045	0.9	2.272	True	89.0	High-Low	stay	twobytwo	89.0	0.72	blue	3.0	cue_stay	magnitude	stay	stim	poldrack-single-stim	s583	1	False
7.606	1.0	9.046	0.9	2.136	True	89.0	Color	n/a	twobytwo	89.0	0.54	orange	7.0	task_switch	color	switch	stim	poldrack-single-stim	s583	0	False
9.854	1.0	10.868	0.1	2.0	True	71.0	Orange-Blue	switch	twobytwo	71.0	0.914	blue	9.0	cue_switch	color	stay	stim	poldrack-single-stim	s583	0	False
11.961	1.0	13.002	0.1	2.0	True	71.0	High-Low	n/a	twobytwo	71.0	0.941	orange	9.0	task_switch	magnitude	switch	stim	poldrack-single-stim	s583	0	False
14.865	1.0	16.308	0.9	2.136	True	89.0	Color	n/a	twobytwo	89.0	0.543	orange	1.0	task_switch	color	switch	stim	poldrack-single-stim	s583	0	False
17.913	1.0	19.704	0.9	2.0	True	89.0	Magnitude	n/a	twobytwo	89.0	0.891	orange	4.0	task_switch	magnitude	switch	stim	poldrack-single-stim	s583	0	False
20.822	1.0	22.199	0.9	2.136	True	71.0	Orange-Blue	n/a	twobytwo	71.0	0.477	blue	4.0	task_switch	color	switch	stim	poldrack-single-stim	s583	0	False
23.867	1.0	25.241	0.9	2.408	True	71.0	Orange-Blue	stay	twobytwo	71.0	0.474	blue	6.0	cue_stay	color	stay	stim	poldrack-single-stim	s583	0	False
27.183	1.0	28.855	0.9	2.136	True	89.0	High-Low	n/a	twobytwo	89.0	0.772	blue	4.0	task_switch	magnitude	switch	stim	poldrack-single-stim	s583	0	False
29.427	1.0	30.289	0.1	2.0	True	89.0	Color	n/a	twobytwo	89.0	0.762	orange	4.0	task_switch	color	switch	stim	poldrack-single-stim	s583	0	False
31.532	1.0	32.559	0.1	2.136	True	89.0	High-Low	n/a	twobytwo	89.0	0.927	blue	1.0	task_switch	magnitude	switch	stim	poldrack-single-stim	s583	0	False
33.777	1.0	34.603	0.1	2.272	True	89.0	High-Low	stay	twobytwo	89.0	0.726	orange	3.0	cue_stay	magnitude	stay	stim	poldrack-single-stim	s583	0	False
36.959	1.0	38.206	0.9	2.0	True	71.0	Color	n/a	twobytwo	71.0	0.347	blue	1.0	task_switch	color	switch	stim	poldrack-single-stim	s583	0	False
39.863	1.0	41.41	0.9	2.408	True	89.0	Magnitude	n/a	twobytwo	89.0	0.647	blue	3.0	task_switch	magnitude	switch	stim	poldrack-single-stim	s583	0	False
43.178	1.0	44.858	0.9	2.0	True	89.0	High-Low	switch	twobytwo	89.0	0.78	orange	1.0	cue_switch	magnitude	stay	stim	poldrack-single-stim	s583	0	False
46.087	1.0	47.858	0.9	2.136	True	71.0	Color	n/a	twobytwo	71.0	0.871	blue	6.0	task_switch	color	switch	stim	poldrack-single-stim	s583	0	False
49.133	1.0	50.587	0.9	2.408	True	71.0	High-Low	n/a	twobytwo	71.0	0.554	blue	7.0	task_switch	magnitude	switch	stim	poldrack-single-stim	s583	0	False
51.65	1.0	53.009	0.1	2.136	True	89.0	Orange-Blue	n/a	twobytwo	89.0	1.259	orange	8.0	task_switch	color	switch	stim	poldrack-single-stim	s583	0	False
54.695	1.0	56.165	0.9	2.408	True	71.0	High-Low	n/a	twobytwo	71.0	0.57	blue	8.0	task_switch	magnitude	switch	stim	poldrack-single-stim	s583	0	False
57.213	1.0	58.076	0.1	2.136	True	89.0	Orange-Blue	n/a	twobytwo	89.0	0.763	orange	2.0	task_switch	color	switch	stim	poldrack-single-stim	s583	0	False
60.255	1.0	61.842	0.9	2.0	True	89.0	Color	switch	twobytwo	89.0	0.687	orange	6.0	cue_switch	color	stay	stim	poldrack-single-stim	s583	0	False
62.362	1.0	63.284	0.1	2.272	True	89.0	Color	stay	twobytwo	89.0	0.822	orange	4.0	cue_stay	color	stay	stim	poldrack-single-stim	s583	0	False
65.54	1.0	66.922	0.9	2.0	True	89.0	High-Low	n/a	twobytwo	89.0	0.482	orange	1.0	task_switch	magnitude	switch	stim	poldrack-single-stim	s583	0	False
67.648	1.0	68.524	0.1	2.272	True	71.0	Color	n/a	twobytwo	71.0	0.776	blue	7.0	task_switch	color	switch	stim	poldrack-single-stim	s583	0	False
70.026	1.0	71.146	0.1	2.272	True	71.0	Orange-Blue	switch	twobytwo	71.0	1.02	blue	2.0	cue_switch	color	stay	stim	poldrack-single-stim	s583	0	False
73.208	1.0	74.609	0.9	2.952	True	71.0	Color	switch	twobytwo	71.0	0.501	blue	6.0	cue_switch	color	stay	stim	poldrack-single-stim	s583	0	False
76.269	1.0	77.066	0.1	2.68	True	71.0	Color	stay	twobytwo	71.0	0.697	blue	1.0	cue_stay	color	stay	stim	poldrack-single-stim	s583	0	False
79.057	1.0	79.898	0.1	2.136	True	89.0	Color	stay	twobytwo	89.0	0.741	orange	6.0	cue_stay	color	stay	stim	poldrack-single-stim	s583	0	False
81.301	1.0	82.156	0.1	2.272	True	71.0	Color	stay	twobytwo	71.0	0.755	blue	8.0	cue_stay	color	stay	stim	poldrack-single-stim	s583	0	False
84.48	1.0	85.92	0.9	2.272	True	89.0	Orange-Blue	switch	twobytwo	89.0	0.54	orange	7.0	cue_switch	color	stay	stim	poldrack-single-stim	s583	0	False
86.862	1.0	88.207	0.1	2.136	True	71.0	High-Low	n/a	twobytwo	71.0	1.245	orange	7.0	task_switch	magnitude	switch	stim	poldrack-single-stim	s583	0	False
89.102	1.0	90.189	0.1	2.408	True	89.0	Magnitude	switch	twobytwo	89.0	0.987	blue	2.0	cue_switch	magnitude	stay	stim	poldrack-single-stim	s583	0	False
91.614	1.0	92.803	0.1	2.136	True	71.0	High-Low	switch	twobytwo	71.0	1.089	blue	8.0	cue_switch	magnitude	stay	stim	poldrack-single-stim	s583	0	False
94.654	1.0	96.119	0.9	2.136	True	71.0	Magnitude	switch	twobytwo	71.0	0.565	orange	7.0	cue_switch	magnitude	stay	stim	poldrack-single-stim	s583	0	False
96.896	1.0	98.228	0.1	2.0	True	71.0	High-Low	switch	twobytwo	71.0	1.232	blue	7.0	cue_switch	magnitude	stay	stim	poldrack-single-stim	s583	0	False
99.003	1.0	99.818	0.1	2.0	True	71.0	High-Low	stay	twobytwo	71.0	0.715	orange	8.0	cue_stay	magnitude	stay	stim	poldrack-single-stim	s583	0	False
101.913	1.0	103.412	0.9	2.0	True	71.0	Magnitude	switch	twobytwo	71.0	0.599	blue	7.0	cue_switch	magnitude	stay	stim	poldrack-single-stim	s583	0	False
104.822	1.0	106.289	0.9	2.0	True	89.0	High-Low	switch	twobytwo	89.0	0.567	orange	3.0	cue_switch	magnitude	stay	stim	poldrack-single-stim	s583	0	False
107.729	1.0	109.27	0.9	2.0	True	71.0	Magnitude	switch	twobytwo	71.0	0.641	orange	9.0	cue_switch	magnitude	stay	stim	poldrack-single-stim	s583	0	False
109.836	1.0	110.924	0.1	2.272	True	71.0	High-Low	switch	twobytwo	71.0	0.988	orange	6.0	cue_switch	magnitude	stay	stim	poldrack-single-stim	s583	0	False
112.212	1.0	113.206	0.1	2.408	True	89.0	Magnitude	switch	twobytwo	89.0	0.894	blue	2.0	cue_switch	magnitude	stay	stim	poldrack-single-stim	s583	0	False
115.526	1.0	117.052	0.9	2.0	True	71.0	Magnitude	stay	twobytwo	71.0	0.626	blue	6.0	cue_stay	magnitude	stay	stim	poldrack-single-stim	s583	0	False
118.432	1.0	119.899	0.9	2.136	True	71.0	Orange-Blue	n/a	twobytwo	71.0	0.567	blue	6.0	task_switch	color	switch	stim	poldrack-single-stim	s583	0	False
120.679	1.0	121.551	0.1	2.0	True	89.0	Color	switch	twobytwo	89.0	0.772	orange	3.0	cue_switch	color	stay	stim	poldrack-single-stim	s583	0	False
123.588	1.0	124.972	0.9	2.136	True	71.0	High-Low	n/a	twobytwo	71.0	0.484	orange	9.0	task_switch	magnitude	switch	stim	poldrack-single-stim	s583	0	False
126.631	1.0	128.119	0.9	2.544	True	71.0	Color	n/a	twobytwo	71.0	0.588	blue	2.0	task_switch	color	switch	stim	poldrack-single-stim	s583	0	False
129.279	1.0	130.965	0.1	2.68	True	89.0	Magnitude	n/a	twobytwo	89.0	1.586	orange	4.0	task_switch	magnitude	switch	stim	poldrack-single-stim	s583	0	False
132.071	1.0	133.117	0.1	3.088	True	71.0	High-Low	switch	twobytwo	71.0	0.946	orange	8.0	cue_switch	magnitude	stay	stim	poldrack-single-stim	s583	0	False
136.069	1.0	137.66	0.9	2.136	True	71.0	Magnitude	switch	twobytwo	71.0	0.691	orange	6.0	cue_switch	magnitude	stay	stim	poldrack-single-stim	s583	0	False
139.117	1.0	140.661	0.9	2.544	True	89.0	High-Low	switch	twobytwo	89.0	0.644	orange	3.0	cue_switch	magnitude	stay	stim	poldrack-single-stim	s583	0	False
141.773	1.0	143.034	0.1	2.0	True	89.0	Magnitude	switch	twobytwo	89.0	1.161	orange	2.0	cue_switch	magnitude	stay	stim	poldrack-single-stim	s583	0	False
144.681	1.0	146.094	0.9	2.136	True	71.0	Color	n/a	twobytwo	71.0	0.513	blue	2.0	task_switch	color	switch	stim	poldrack-single-stim	s583	0	False
146.921	1.0	148.279	0.1	2.0	True	71.0	Magnitude	n/a	twobytwo	71.0	1.258	orange	8.0	task_switch	magnitude	switch	stim	poldrack-single-stim	s583	0	False
149.829	1.0	151.942	0.9	2.408	True	89.0	Color	n/a	twobytwo	89.0	1.213	orange	7.0	task_switch	color	switch	stim	poldrack-single-stim	s583	0	False
153.144	1.0	154.727	0.9	2.0	True	89.0	Orange-Blue	switch	twobytwo	89.0	0.683	orange	4.0	cue_switch	color	stay	stim	poldrack-single-stim	s583	0	False
156.051	1.0	158.038	0.9	2.0	True	89.0	Orange-Blue	stay	twobytwo	89.0	1.087	orange	6.0	cue_stay	color	stay	stim	poldrack-single-stim	s583	0	False
158.963	1.0	160.362	0.9	2.0	True	71.0	High-Low	n/a	twobytwo	71.0	0.499	blue	8.0	task_switch	magnitude	switch	stim	poldrack-single-stim	s583	0	False
161.067	1.0	162.141	0.1	2.68	True	71.0	High-Low	stay	twobytwo	71.0	0.974	blue	8.0	cue_stay	magnitude	stay	stim	poldrack-single-stim	s583	0	False
164.654	1.0	166.179	0.9	2.272	True	89.0	Magnitude	switch	twobytwo	89.0	0.625	orange	2.0	cue_switch	magnitude	stay	stim	poldrack-single-stim	s583	0	False
167.035	1.0	168.45	0.1	2.408	True	89.0	Magnitude	stay	twobytwo	89.0	1.315	orange	4.0	cue_stay	magnitude	stay	stim	poldrack-single-stim	s583	0	False
169.552	1.0	170.37	0.1	3.224	True	71.0	Magnitude	stay	twobytwo	71.0	0.718	blue	9.0	cue_stay	magnitude	stay	stim	poldrack-single-stim	s583	0	False
173.686	1.0	175.403	0.9	2.408	True	71.0	Orange-Blue	n/a	twobytwo	71.0	0.817	blue	4.0	task_switch	color	switch	stim	poldrack-single-stim	s583	0	False
177.001	1.0	178.526	0.9	2.816	True	89.0	Magnitude	n/a	twobytwo	89.0	0.625	blue	3.0	task_switch	magnitude	switch	stim	poldrack-single-stim	s583	0	False
179.926	1.0	181.039	0.1	2.408	True	71.0	Color	n/a	twobytwo	71.0	1.013	blue	3.0	task_switch	color	switch	stim	poldrack-single-stim	s583	0	False
182.443	1.0	183.864	0.1	2.136	True	71.0	Magnitude	n/a	twobytwo	71.0	1.321	blue	8.0	task_switch	magnitude	switch	stim	poldrack-single-stim	s583	0	False
185.485	1.0	186.935	0.9	2.136	True	89.0	Magnitude	stay	twobytwo	89.0	0.55	blue	2.0	cue_stay	magnitude	stay	stim	poldrack-single-stim	s583	0	False
187.728	1.0	188.82	0.1	2.0	True	71.0	High-Low	switch	twobytwo	71.0	0.992	blue	7.0	cue_switch	magnitude	stay	stim	poldrack-single-stim	s583	0	False
190.639	1.0	192.095	0.9	2.0	True	89.0	Magnitude	switch	twobytwo	89.0	0.556	orange	3.0	cue_switch	magnitude	stay	stim	poldrack-single-stim	s583	0	False
193.55	1.0	195.009	0.9	2.272	True	89.0	Color	n/a	twobytwo	89.0	0.559	orange	6.0	task_switch	color	switch	stim	poldrack-single-stim	s583	0	False
196.726	1.0	198.823	0.9	2.408	True	89.0	Magnitude	n/a	twobytwo	89.0	1.197	blue	2.0	task_switch	magnitude	switch	stim	poldrack-single-stim	s583	0	False
200.041	1.0	201.487	0.9	2.0	True	89.0	Color	n/a	twobytwo	89.0	0.546	orange	2.0	task_switch	color	switch	stim	poldrack-single-stim	s583	0	False
202.95	1.0	204.417	0.9	2.136	True	89.0	Orange-Blue	switch	twobytwo	89.0	0.567	orange	8.0	cue_switch	color	stay	stim	poldrack-single-stim	s583	0	False
205.994	1.0	207.479	0.9	2.0	True	71.0	High-Low	n/a	twobytwo	71.0	0.585	blue	7.0	task_switch	magnitude	switch	stim	poldrack-single-stim	s583	0	False
208.906	1.0	210.624	0.9	2.408	True	71.0	Color	n/a	twobytwo	71.0	0.818	blue	1.0	task_switch	color	switch	stim	poldrack-single-stim	s583	0	False
211.423	1.0	212.396	0.1	2.272	True	89.0	Orange-Blue	switch	twobytwo	89.0	0.873	orange	9.0	cue_switch	color	stay	stim	poldrack-single-stim	s583	0	False
213.802	1.0	214.775	0.1	2.0	True	71.0	Magnitude	n/a	twobytwo	71.0	0.873	orange	9.0	task_switch	magnitude	switch	stim	poldrack-single-stim	s583	0	False
215.908	1.0	217.018	0.1	2.272	True	89.0	High-Low	switch	twobytwo	89.0	1.01	blue	3.0	cue_switch	magnitude	stay	stim	poldrack-single-stim	s583	0	False
218.287	1.0	219.307	0.1	2.0	True	71.0	Orange-Blue	n/a	twobytwo	71.0	0.92	blue	8.0	task_switch	color	switch	stim	poldrack-single-stim	s583	0	False
220.394	1.0	221.62	0.1	2.0	True	71.0	High-Low	n/a	twobytwo	71.0	1.126	blue	6.0	task_switch	magnitude	switch	stim	poldrack-single-stim	s583	0	False
223.306	1.0	224.707	0.9	2.272	True	89.0	High-Low	stay	twobytwo	89.0	0.501	blue	1.0	cue_stay	magnitude	stay	stim	poldrack-single-stim	s583	0	False
240.003	1.0	241.311	0.9	2.136	True	71.0	Orange-Blue	stay	twobytwo	71.0	0.408	blue	3.0	cue_stay	color	stay	stim	poldrack-single-stim	s583	1	False
243.045	1.0	244.415	0.9	2.0	True	71.0	Magnitude	n/a	twobytwo	71.0	0.47	orange	7.0	task_switch	magnitude	switch	stim	poldrack-single-stim	s583	0	False
245.152	1.0	246.134	0.1	2.0	True	71.0	High-Low	switch	twobytwo	71.0	0.882	blue	9.0	cue_switch	magnitude	stay	stim	poldrack-single-stim	s583	0	False
247.264	1.0	248.15	0.1	2.0	True	89.0	Orange-Blue	n/a	twobytwo	89.0	0.786	orange	9.0	task_switch	color	switch	stim	poldrack-single-stim	s583	0	False
250.177	1.0	251.612	0.9	2.0	True	89.0	High-Low	n/a	twobytwo	89.0	0.535	orange	1.0	task_switch	magnitude	switch	stim	poldrack-single-stim	s583	0	False
253.088	1.0	254.579	0.9	2.0	True	89.0	Orange-Blue	n/a	twobytwo	89.0	0.591	orange	4.0	task_switch	color	switch	stim	poldrack-single-stim	s583	0	False
255.998	1.0	257.467	0.9	2.136	True	89.0	High-Low	n/a	twobytwo	89.0	0.569	blue	4.0	task_switch	magnitude	switch	stim	poldrack-single-stim	s583	0	False
259.041	1.0	260.681	0.9	2.0	True	71.0	High-Low	stay	twobytwo	71.0	0.74	blue	6.0	cue_stay	magnitude	stay	stim	poldrack-single-stim	s583	0	False
261.953	1.0	263.491	0.9	2.0	True	71.0	Orange-Blue	n/a	twobytwo	71.0	0.638	blue	4.0	task_switch	color	switch	stim	poldrack-single-stim	s583	0	False
264.061	1.0	265.263	0.1	2.136	True	89.0	Magnitude	n/a	twobytwo	89.0	1.102	orange	4.0	task_switch	magnitude	switch	stim	poldrack-single-stim	s583	0	False
266.305	1.0	267.262	0.1	2.0	True	71.0	Orange-Blue	n/a	twobytwo	71.0	0.857	blue	1.0	task_switch	color	switch	stim	poldrack-single-stim	s583	0	False
268.411	1.0	269.618	0.1	2.136	True	89.0	Orange-Blue	stay	twobytwo	89.0	1.107	orange	3.0	cue_stay	color	stay	stim	poldrack-single-stim	s583	0	False
271.455	1.0	272.957	0.9	2.68	True	89.0	Magnitude	n/a	twobytwo	89.0	0.602	blue	1.0	task_switch	magnitude	switch	stim	poldrack-single-stim	s583	0	False
275.043	1.0	276.388	0.9	2.272	True	71.0	Orange-Blue	n/a	twobytwo	71.0	0.445	blue	3.0	task_switch	color	switch	stim	poldrack-single-stim	s583	0	False
278.223	1.0	279.577	0.9	2.136	True	89.0	Color	switch	twobytwo	89.0	0.454	orange	1.0	cue_switch	color	stay	stim	poldrack-single-stim	s583	0	False
281.271	1.0	282.931	0.9	2.0	True	71.0	Magnitude	n/a	twobytwo	71.0	0.76	blue	6.0	task_switch	magnitude	switch	stim	poldrack-single-stim	s583	0	False
284.18	1.0	285.756	0.9	2.136	True	71.0	Orange-Blue	n/a	twobytwo	71.0	0.676	blue	7.0	task_switch	color	switch	stim	poldrack-single-stim	s583	0	False
286.421	1.0	287.288	0.1	2.68	True	71.0	Magnitude	n/a	twobytwo	71.0	0.767	orange	8.0	task_switch	magnitude	switch	stim	poldrack-single-stim	s583	0	False
290.012	1.0	291.522	0.9	2.272	True	71.0	Orange-Blue	n/a	twobytwo	71.0	0.61	blue	8.0	task_switch	color	switch	stim	poldrack-single-stim	s583	0	False
292.394	1.0	293.474	0.1	2.0	True	89.0	Magnitude	n/a	twobytwo	89.0	0.98	orange	2.0	task_switch	magnitude	switch	stim	poldrack-single-stim	s583	0	False
295.303	1.0	296.729	0.9	2.0	True	71.0	High-Low	switch	twobytwo	71.0	0.526	orange	6.0	cue_switch	magnitude	stay	stim	poldrack-single-stim	s583	0	False
297.409	1.0	298.431	0.1	2.136	True	89.0	High-Low	stay	twobytwo	89.0	0.922	orange	4.0	cue_stay	magnitude	stay	stim	poldrack-single-stim	s583	0	False
300.455	1.0	302.007	0.9	2.0	True	89.0	Orange-Blue	n/a	twobytwo	89.0	0.652	orange	1.0	task_switch	color	switch	stim	poldrack-single-stim	s583	0	False
302.561	1.0	303.655	0.1	2.0	True	71.0	High-Low	n/a	twobytwo	71.0	0.994	blue	7.0	task_switch	magnitude	switch	stim	poldrack-single-stim	s583	0	False
304.669	1.0	305.661	0.1	2.0	True	89.0	Magnitude	switch	twobytwo	89.0	0.892	blue	2.0	cue_switch	magnitude	stay	stim	poldrack-single-stim	s583	0	False
307.576	1.0	309.094	0.9	2.272	True	71.0	High-Low	switch	twobytwo	71.0	0.618	blue	6.0	cue_switch	magnitude	stay	stim	poldrack-single-stim	s583	0	False
309.952	1.0	310.863	0.1	2.408	True	89.0	High-Low	stay	twobytwo	89.0	0.811	blue	1.0	cue_stay	magnitude	stay	stim	poldrack-single-stim	s583	0	False
312.467	1.0	313.554	0.1	2.0	True	71.0	High-Low	stay	twobytwo	71.0	0.987	orange	6.0	cue_stay	magnitude	stay	stim	poldrack-single-stim	s583	0	False
314.573	1.0	315.583	0.1	2.0	True	71.0	High-Low	stay	twobytwo	71.0	0.91	blue	8.0	cue_stay	magnitude	stay	stim	poldrack-single-stim	s583	0	False
317.485	1.0	318.953	0.9	2.0	True	71.0	Magnitude	switch	twobytwo	71.0	0.568	orange	7.0	cue_switch	magnitude	stay	stim	poldrack-single-stim	s583	0	False
319.591	1.0	320.654	0.1	2.272	True	89.0	Orange-Blue	n/a	twobytwo	89.0	0.963	orange	7.0	task_switch	color	switch	stim	poldrack-single-stim	s583	0	False
321.968	1.0	322.898	0.1	2.136	True	71.0	Color	switch	twobytwo	71.0	0.83	blue	2.0	cue_switch	color	stay	stim	poldrack-single-stim	s583	0	False
324.213	1.0	325.379	0.1	2.0	True	71.0	Orange-Blue	switch	twobytwo	71.0	1.066	blue	8.0	cue_switch	color	stay	stim	poldrack-single-stim	s583	0	False
327.123	1.0	328.482	0.9	2.544	True	89.0	Color	switch	twobytwo	89.0	0.459	orange	7.0	cue_switch	color	stay	stim	poldrack-single-stim	s583	0	False
329.774	1.0	330.64	0.1	2.272	True	71.0	Orange-Blue	switch	twobytwo	71.0	0.766	blue	7.0	cue_switch	color	stay	stim	poldrack-single-stim	s583	0	False
332.158	1.0	333.035	0.1	2.272	True	89.0	Orange-Blue	stay	twobytwo	89.0	0.777	orange	8.0	cue_stay	color	stay	stim	poldrack-single-stim	s583	0	False
335.342	1.0	336.702	0.9	2.0	True	71.0	Color	switch	twobytwo	71.0	0.46	blue	7.0	cue_switch	color	stay	stim	poldrack-single-stim	s583	0	False
338.249	1.0	339.789	0.9	2.0	True	89.0	Orange-Blue	switch	twobytwo	89.0	0.64	orange	3.0	cue_switch	color	stay	stim	poldrack-single-stim	s583	0	False
341.158	1.0	343.21	0.9	2.136	True	89.0	Color	switch	twobytwo	89.0	1.152	orange	9.0	cue_switch	color	stay	stim	poldrack-single-stim	s583	0	False
343.402	1.0	344.322	0.1	2.0	True	89.0	Orange-Blue	switch	twobytwo	89.0	0.82	orange	6.0	cue_switch	color	stay	stim	poldrack-single-stim	s583	0	False
345.509	1.0	346.348	0.1	2.136	True	71.0	Color	switch	twobytwo	71.0	0.739	blue	2.0	cue_switch	color	stay	stim	poldrack-single-stim	s583	0	False
348.553	1.0	349.989	0.9	2.272	True	71.0	Color	stay	twobytwo	71.0	0.536	blue	6.0	cue_stay	color	stay	stim	poldrack-single-stim	s583	0	False
351.735	1.0	353.799	0.9	2.136	True	71.0	Magnitude	n/a	twobytwo	71.0	1.164	blue	6.0	task_switch	magnitude	switch	stim	poldrack-single-stim	s583	0	False
353.983	1.0	354.921	0.1	2.272	True	89.0	High-Low	switch	twobytwo	89.0	0.838	orange	3.0	cue_switch	magnitude	stay	stim	poldrack-single-stim	s583	0	False
357.161	1.0	358.695	0.9	2.0	True	89.0	Orange-Blue	n/a	twobytwo	89.0	0.634	orange	9.0	task_switch	color	switch	stim	poldrack-single-stim	s583	0	False
360.073	1.0	361.46	0.9	2.816	True	89.0	High-Low	n/a	twobytwo	89.0	0.487	blue	2.0	task_switch	magnitude	switch	stim	poldrack-single-stim	s583	0	False
362.999	1.0	364.048	0.1	2.408	True	89.0	Orange-Blue	n/a	twobytwo	89.0	0.949	orange	4.0	task_switch	color	switch	stim	poldrack-single-stim	s583	0	False
365.512	1.0	366.59	0.1	2.0	True	89.0	Color	switch	twobytwo	89.0	0.978	orange	8.0	cue_switch	color	stay	stim	poldrack-single-stim	s583	0	False
368.42	1.0	369.799	0.9	2.544	True	89.0	Orange-Blue	switch	twobytwo	89.0	0.479	orange	6.0	cue_switch	color	stay	stim	poldrack-single-stim	s583	0	False
371.874	1.0	373.332	0.9	2.136	True	89.0	Color	switch	twobytwo	89.0	0.558	orange	3.0	cue_switch	color	stay	stim	poldrack-single-stim	s583	0	False
374.117	1.0	375.189	0.1	2.0	True	89.0	Orange-Blue	switch	twobytwo	89.0	0.972	orange	2.0	cue_switch	color	stay	stim	poldrack-single-stim	s583	0	False
377.023	1.0	378.415	0.9	2.0	True	89.0	High-Low	n/a	twobytwo	89.0	0.492	blue	2.0	task_switch	magnitude	switch	stim	poldrack-single-stim	s583	0	False
379.127	1.0	380.002	0.1	2.136	True	89.0	Orange-Blue	n/a	twobytwo	89.0	0.775	orange	8.0	task_switch	color	switch	stim	poldrack-single-stim	s583	0	False
382.168	1.0	383.525	0.9	2.136	True	71.0	Magnitude	n/a	twobytwo	71.0	0.457	orange	7.0	task_switch	magnitude	switch	stim	poldrack-single-stim	s583	0	False
385.21	1.0	386.678	0.9	2.272	True	89.0	High-Low	switch	twobytwo	89.0	0.568	orange	4.0	cue_switch	magnitude	stay	stim	poldrack-single-stim	s583	0	False
388.386	1.0	389.753	0.9	3.224	True	71.0	High-Low	stay	twobytwo	71.0	0.467	orange	6.0	cue_stay	magnitude	stay	stim	poldrack-single-stim	s583	0	False
392.517	1.0	393.948	0.9	2.0	True	71.0	Orange-Blue	n/a	twobytwo	71.0	0.531	blue	8.0	task_switch	color	switch	stim	poldrack-single-stim	s583	0	False
394.624	1.0	395.56	0.1	2.0	True	71.0	Orange-Blue	stay	twobytwo	71.0	0.836	blue	8.0	cue_stay	color	stay	stim	poldrack-single-stim	s583	0	False
397.536	1.0	398.912	0.9	2.272	True	89.0	Color	switch	twobytwo	89.0	0.476	orange	2.0	cue_switch	color	stay	stim	poldrack-single-stim	s583	0	False
399.912	1.0	401.052	0.1	2.136	True	89.0	Color	stay	twobytwo	89.0	1.04	orange	4.0	cue_stay	color	stay	stim	poldrack-single-stim	s583	0	False
402.155	1.0	403.002	0.1	2.0	True	71.0	Color	stay	twobytwo	71.0	0.747	blue	9.0	cue_stay	color	stay	stim	poldrack-single-stim	s583	0	False
405.061	1.0	406.662	0.9	2.0	True	89.0	High-Low	n/a	twobytwo	89.0	0.701	blue	4.0	task_switch	magnitude	switch	stim	poldrack-single-stim	s583	0	False
407.968	1.0	409.678	0.9	2.0	True	71.0	Orange-Blue	n/a	twobytwo	71.0	0.81	blue	3.0	task_switch	color	switch	stim	poldrack-single-stim	s583	0	False
410.071	1.0	411.095	0.1	2.68	True	89.0	Magnitude	n/a	twobytwo	89.0	0.924	blue	3.0	task_switch	magnitude	switch	stim	poldrack-single-stim	s583	0	False
412.855	1.0	413.834	0.1	2.0	True	71.0	Orange-Blue	n/a	twobytwo	71.0	0.879	blue	8.0	task_switch	color	switch	stim	poldrack-single-stim	s583	0	False
415.765	1.0	417.208	0.9	2.272	True	71.0	Orange-Blue	stay	twobytwo	71.0	0.543	blue	2.0	cue_stay	color	stay	stim	poldrack-single-stim	s583	0	False
418.145	1.0	419.863	0.1	2.0	True	71.0	Color	switch	twobytwo	71.0	1.618	blue	7.0	cue_switch	color	stay	stim	poldrack-single-stim	s583	0	False
421.054	1.0	422.384	0.9	2.272	True	89.0	Orange-Blue	switch	twobytwo	89.0	0.43	orange	3.0	cue_switch	color	stay	stim	poldrack-single-stim	s583	0	False
424.233	1.0	425.757	0.9	2.952	True	71.0	Magnitude	n/a	twobytwo	71.0	0.624	orange	6.0	task_switch	magnitude	switch	stim	poldrack-single-stim	s583	0	False
428.097	1.0	429.618	0.9	2.0	True	71.0	Color	n/a	twobytwo	71.0	0.621	blue	2.0	task_switch	color	switch	stim	poldrack-single-stim	s583	0	False
431.004	1.0	432.528	0.9	2.0	True	89.0	Magnitude	n/a	twobytwo	89.0	0.624	orange	2.0	task_switch	magnitude	switch	stim	poldrack-single-stim	s583	0	False
433.912	1.0	435.494	0.9	2.0	True	71.0	High-Low	switch	twobytwo	71.0	0.682	orange	8.0	cue_switch	magnitude	stay	stim	poldrack-single-stim	s583	0	False
436.823	1.0	438.266	0.9	2.0	True	71.0	Orange-Blue	n/a	twobytwo	71.0	0.543	blue	7.0	task_switch	color	switch	stim	poldrack-single-stim	s583	0	False
439.732	1.0	441.373	0.9	2.136	True	89.0	Magnitude	n/a	twobytwo	89.0	0.741	blue	1.0	task_switch	magnitude	switch	stim	poldrack-single-stim	s583	0	False
441.975	1.0	443.093	0.1	2.0	True	71.0	High-Low	switch	twobytwo	71.0	1.018	orange	9.0	cue_switch	magnitude	stay	stim	poldrack-single-stim	s583	0	False
444.08	1.0	445.512	0.1	2.0	True	89.0	Orange-Blue	n/a	twobytwo	89.0	1.332	orange	9.0	task_switch	color	switch	stim	poldrack-single-stim	s583	0	False
446.188	1.0	447.155	0.1	2.0	True	71.0	Color	switch	twobytwo	71.0	0.867	blue	3.0	cue_switch	color	stay	stim	poldrack-single-stim	s583	0	False
448.295	1.0	449.25	0.1	2.272	True	71.0	Magnitude	n/a	twobytwo	71.0	0.855	blue	8.0	task_switch	magnitude	switch	stim	poldrack-single-stim	s583	0	False
450.676	1.0	451.635	0.1	2.136	True	71.0	Orange-Blue	n/a	twobytwo	71.0	0.859	blue	6.0	task_switch	color	switch	stim	poldrack-single-stim	s583	0	False
453.719	1.0	455.15	0.9	2.0	True	71.0	Orange-Blue	stay	twobytwo	71.0	0.531	blue	1.0	cue_stay	color	stay	stim	poldrack-single-stim	s583	0	False
470.142	1.0	471.613	0.9	2.136	True	89.0	High-Low	stay	twobytwo	89.0	0.571	blue	3.0	cue_stay	magnitude	stay	stim	poldrack-single-stim	s583	1	False
473.181	1.0	474.631	0.9	2.816	True	89.0	Orange-Blue	n/a	twobytwo	89.0	0.55	orange	7.0	task_switch	color	switch	stim	poldrack-single-stim	s583	0	False
476.107	1.0	476.931	0.1	2.408	True	71.0	Color	switch	twobytwo	71.0	0.724	blue	9.0	cue_switch	color	stay	stim	poldrack-single-stim	s583	0	False
478.627	1.0	480.211	0.1	2.0	True	71.0	High-Low	n/a	twobytwo	71.0	1.484	orange	9.0	task_switch	magnitude	switch	stim	poldrack-single-stim	s583	0	False
481.531	1.0	483.17	0.9	2.136	True	89.0	Orange-Blue	n/a	twobytwo	89.0	0.739	orange	1.0	task_switch	color	switch	stim	poldrack-single-stim	s583	0	False
484.576	1.0	486.191	0.9	2.136	True	89.0	Magnitude	n/a	twobytwo	89.0	0.715	orange	4.0	task_switch	magnitude	switch	stim	poldrack-single-stim	s583	0	False
487.617	1.0	489.309	0.9	2.136	True	71.0	Color	n/a	twobytwo	71.0	0.792	blue	4.0	task_switch	color	switch	stim	poldrack-single-stim	s583	0	False
490.665	1.0	492.466	0.9	2.544	True	71.0	Color	stay	twobytwo	71.0	0.901	blue	6.0	cue_stay	color	stay	stim	poldrack-single-stim	s583	0	False
494.114	1.0	495.755	0.9	2.136	True	89.0	Magnitude	n/a	twobytwo	89.0	0.741	blue	4.0	task_switch	magnitude	switch	stim	poldrack-single-stim	s583	0	False
496.36	1.0	497.726	0.1	2.0	True	89.0	Orange-Blue	n/a	twobytwo	89.0	1.266	orange	4.0	task_switch	color	switch	stim	poldrack-single-stim	s583	0	False
498.467	1.0	499.555	0.1	2.0	True	89.0	Magnitude	n/a	twobytwo	89.0	0.988	blue	1.0	task_switch	magnitude	switch	stim	poldrack-single-stim	s583	0	False
500.574	1.0	501.487	0.1	2.0	True	89.0	Magnitude	stay	twobytwo	89.0	0.813	orange	3.0	cue_stay	magnitude	stay	stim	poldrack-single-stim	s583	0	False
503.481	1.0	504.834	0.9	2.0	True	71.0	Color	n/a	twobytwo	71.0	0.453	blue	1.0	task_switch	color	switch	stim	poldrack-single-stim	s583	0	False
506.391	1.0	508.25	0.9	2.136	True	89.0	Magnitude	n/a	twobytwo	89.0	0.959	blue	3.0	task_switch	magnitude	switch	stim	poldrack-single-stim	s583	0	False
509.433	1.0	510.881	0.9	2.0	True	89.0	High-Low	switch	twobytwo	89.0	0.548	orange	1.0	cue_switch	magnitude	stay	stim	poldrack-single-stim	s583	0	False
512.345	1.0	514.024	0.9	2.0	True	71.0	Color	n/a	twobytwo	71.0	0.779	blue	6.0	task_switch	color	switch	stim	poldrack-single-stim	s583	0	False
515.257	1.0	516.858	0.9	2.0	True	71.0	Magnitude	n/a	twobytwo	71.0	0.701	blue	7.0	task_switch	magnitude	switch	stim	poldrack-single-stim	s583	0	False
517.367	1.0	518.645	0.1	2.136	True	89.0	Color	n/a	twobytwo	89.0	1.178	orange	8.0	task_switch	color	switch	stim	poldrack-single-stim	s583	0	False
520.407	1.0	522.275	0.9	2.136	True	71.0	Magnitude	n/a	twobytwo	71.0	0.968	blue	8.0	task_switch	magnitude	switch	stim	poldrack-single-stim	s583	0	False
522.652	1.0	523.613	0.1	2.136	True	89.0	Color	n/a	twobytwo	89.0	0.861	orange	2.0	task_switch	color	switch	stim	poldrack-single-stim	s583	0	False
525.693	1.0	527.478	0.9	2.136	True	89.0	Orange-Blue	switch	twobytwo	89.0	0.885	orange	6.0	cue_switch	color	stay	stim	poldrack-single-stim	s583	0	False
527.938	1.0	529.054	0.1	2.68	True	89.0	Orange-Blue	stay	twobytwo	89.0	1.016	orange	4.0	cue_stay	color	stay	stim	poldrack-single-stim	s583	0	False
531.53	1.0	533.014	0.9	2.544	True	89.0	Magnitude	n/a	twobytwo	89.0	0.584	orange	1.0	task_switch	magnitude	switch	stim	poldrack-single-stim	s583	0	False
534.179	1.0	535.327	0.1	2.272	True	71.0	Orange-Blue	n/a	twobytwo	71.0	1.048	blue	7.0	task_switch	color	switch	stim	poldrack-single-stim	s583	0	False
536.56	1.0	537.723	0.1	2.272	False	71.0	Color	switch	twobytwo	89.0	1.063	blue	2.0	cue_switch	color	stay	stim	poldrack-single-stim	s583	0	False
539.741	1.0	541.151	0.9	2.408	True	71.0	Orange-Blue	switch	twobytwo	71.0	0.51	blue	6.0	cue_switch	color	stay	stim	poldrack-single-stim	s583	0	False
542.257	1.0	543.249	0.1	2.136	True	71.0	Orange-Blue	stay	twobytwo	71.0	0.892	blue	1.0	cue_stay	color	stay	stim	poldrack-single-stim	s583	0	False
544.501	1.0	545.352	0.1	2.272	True	89.0	Orange-Blue	stay	twobytwo	89.0	0.751	orange	6.0	cue_stay	color	stay	stim	poldrack-single-stim	s583	0	False
546.88	1.0	547.739	0.1	2.0	True	71.0	Orange-Blue	stay	twobytwo	71.0	0.759	blue	8.0	cue_stay	color	stay	stim	poldrack-single-stim	s583	0	False
549.789	1.0	551.388	0.9	2.136	True	89.0	Color	switch	twobytwo	89.0	0.699	orange	7.0	cue_switch	color	stay	stim	poldrack-single-stim	s583	0	False
552.032	1.0	553.033	0.1	2.272	False	71.0	Magnitude	n/a	twobytwo	89.0	0.901	orange	7.0	task_switch	magnitude	switch	stim	poldrack-single-stim	s583	0	False
554.416	1.0	555.503	0.1	2.0	True	89.0	High-Low	switch	twobytwo	89.0	0.987	blue	2.0	cue_switch	magnitude	stay	stim	poldrack-single-stim	s583	0	False
556.523	1.0	557.585	0.1	2.68	True	71.0	Magnitude	switch	twobytwo	71.0	0.962	blue	8.0	cue_switch	magnitude	stay	stim	poldrack-single-stim	s583	0	False
560.112	1.0	561.831	0.9	2.0	False	71.0	High-Low	switch	twobytwo	89.0	0.819	orange	7.0	cue_switch	magnitude	stay	stim	poldrack-single-stim	s583	0	False
562.219	1.0	563.582	0.1	2.0	True	71.0	Magnitude	switch	twobytwo	71.0	1.263	blue	7.0	cue_switch	magnitude	stay	stim	poldrack-single-stim	s583	0	False
564.331	1.0	565.346	0.1	2.0	True	71.0	Magnitude	stay	twobytwo	71.0	0.915	orange	8.0	cue_stay	magnitude	stay	stim	poldrack-single-stim	s583	0	False
567.243	1.0	568.833	0.9	2.272	True	71.0	High-Low	switch	twobytwo	71.0	0.69	blue	7.0	cue_switch	magnitude	stay	stim	poldrack-single-stim	s583	0	False
570.422	1.0	572.021	0.9	2.0	True	89.0	Magnitude	switch	twobytwo	89.0	0.699	orange	3.0	cue_switch	magnitude	stay	stim	poldrack-single-stim	s583	0	False
573.329	1.0	574.959	0.9	2.0	True	71.0	High-Low	switch	twobytwo	71.0	0.73	orange	9.0	cue_switch	magnitude	stay	stim	poldrack-single-stim	s583	0	False
575.435	1.0	576.631	0.1	2.0	True	71.0	Magnitude	switch	twobytwo	71.0	1.096	orange	6.0	cue_switch	magnitude	stay	stim	poldrack-single-stim	s583	0	False
577.545	1.0	578.688	0.1	2.68	True	89.0	High-Low	switch	twobytwo	89.0	1.043	blue	2.0	cue_switch	magnitude	stay	stim	poldrack-single-stim	s583	0	False
581.137	1.0	582.796	0.9	2.0	True	71.0	High-Low	stay	twobytwo	71.0	0.759	blue	6.0	cue_stay	magnitude	stay	stim	poldrack-single-stim	s583	0	False
584.045	1.0	585.526	0.9	2.136	True	71.0	Orange-Blue	n/a	twobytwo	71.0	0.581	blue	6.0	task_switch	color	switch	stim	poldrack-single-stim	s583	0	False
586.287	1.0	587.263	0.1	2.408	True	89.0	Color	switch	twobytwo	89.0	0.876	orange	3.0	cue_switch	color	stay	stim	poldrack-single-stim	s583	0	False
589.599	1.0	591.212	0.9	2.136	True	71.0	Magnitude	n/a	twobytwo	71.0	0.713	orange	9.0	task_switch	magnitude	switch	stim	poldrack-single-stim	s583	0	False
592.648	1.0	594.29	0.9	2.0	True	71.0	Color	n/a	twobytwo	71.0	0.742	blue	2.0	task_switch	color	switch	stim	poldrack-single-stim	s583	0	False
594.754	1.0	596.355	0.1	2.0	True	89.0	Magnitude	n/a	twobytwo	89.0	1.501	orange	4.0	task_switch	magnitude	switch	stim	poldrack-single-stim	s583	0	False
596.861	1.0	597.73	0.1	2.544	True	71.0	High-Low	switch	twobytwo	71.0	0.769	orange	8.0	cue_switch	magnitude	stay	stim	poldrack-single-stim	s583	0	False
600.31	1.0	601.915	0.9	2.136	True	71.0	Magnitude	switch	twobytwo	71.0	0.705	orange	6.0	cue_switch	magnitude	stay	stim	poldrack-single-stim	s583	0	False
603.353	1.0	605.554	0.9	2.544	True	89.0	High-Low	switch	twobytwo	89.0	1.301	orange	3.0	cue_switch	magnitude	stay	stim	poldrack-single-stim	s583	0	False
606.005	1.0	607.386	0.1	2.68	True	89.0	Magnitude	switch	twobytwo	89.0	1.281	orange	2.0	cue_switch	magnitude	stay	stim	poldrack-single-stim	s583	0	False
609.593	1.0	611.215	0.9	2.0	True	71.0	Color	n/a	twobytwo	71.0	0.722	blue	2.0	task_switch	color	switch	stim	poldrack-single-stim	s583	0	False
611.698	1.0	613.263	0.1	2.272	True	71.0	High-Low	n/a	twobytwo	71.0	1.465	orange	8.0	task_switch	magnitude	switch	stim	poldrack-single-stim	s583	0	False
614.882	1.0	616.531	0.9	3.088	True	89.0	Orange-Blue	n/a	twobytwo	89.0	0.749	orange	7.0	task_switch	color	switch	stim	poldrack-single-stim	s583	0	False
618.877	1.0	621.23	0.9	2.0	True	89.0	Color	switch	twobytwo	89.0	1.453	orange	4.0	cue_switch	color	stay	stim	poldrack-single-stim	s583	0	False
621.781	1.0	624.465	0.9	2.136	True	89.0	Color	stay	twobytwo	89.0	1.784	orange	6.0	cue_stay	color	stay	stim	poldrack-single-stim	s583	0	False
624.825	1.0	626.208	0.9	2.136	True	71.0	High-Low	n/a	twobytwo	71.0	0.483	blue	8.0	task_switch	magnitude	switch	stim	poldrack-single-stim	s583	0	False
627.069	1.0	627.978	0.1	2.0	True	71.0	High-Low	stay	twobytwo	71.0	0.809	blue	8.0	cue_stay	magnitude	stay	stim	poldrack-single-stim	s583	0	False
629.973	1.0	631.572	0.9	2.272	True	89.0	Magnitude	switch	twobytwo	89.0	0.699	orange	2.0	cue_switch	magnitude	stay	stim	poldrack-single-stim	s583	0	False
632.356	1.0	633.356	0.1	2.0	True	89.0	Magnitude	stay	twobytwo	89.0	0.9	orange	4.0	cue_stay	magnitude	stay	stim	poldrack-single-stim	s583	0	False
634.464	1.0	636.122	0.1	2.136	True	71.0	Magnitude	stay	twobytwo	71.0	1.558	blue	9.0	cue_stay	magnitude	stay	stim	poldrack-single-stim	s583	0	False
637.509	1.0	638.803	0.9	2.136	True	71.0	Orange-Blue	n/a	twobytwo	71.0	0.394	blue	4.0	task_switch	color	switch	stim	poldrack-single-stim	s583	0	False
640.552	1.0	641.996	0.9	2.544	True	89.0	High-Low	n/a	twobytwo	89.0	0.544	blue	3.0	task_switch	magnitude	switch	stim	poldrack-single-stim	s583	0	False
643.203	1.0	644.721	0.1	2.0	True	71.0	Color	n/a	twobytwo	71.0	1.418	blue	3.0	task_switch	color	switch	stim	poldrack-single-stim	s583	0	False
645.313	1.0	646.275	0.1	2.136	True	71.0	Magnitude	n/a	twobytwo	71.0	0.862	blue	8.0	task_switch	magnitude	switch	stim	poldrack-single-stim	s583	0	False
648.356	1.0	649.878	0.9	2.136	True	89.0	Magnitude	stay	twobytwo	89.0	0.622	blue	2.0	cue_stay	magnitude	stay	stim	poldrack-single-stim	s583	0	False
650.598	1.0	651.553	0.1	2.136	True	71.0	High-Low	switch	twobytwo	71.0	0.855	blue	7.0	cue_switch	magnitude	stay	stim	poldrack-single-stim	s583	0	False
653.641	1.0	655.246	0.9	2.0	True	89.0	Magnitude	switch	twobytwo	89.0	0.705	orange	3.0	cue_switch	magnitude	stay	stim	poldrack-single-stim	s583	0	False
656.551	1.0	658.089	0.9	2.136	True	89.0	Color	n/a	twobytwo	89.0	0.638	orange	6.0	task_switch	color	switch	stim	poldrack-single-stim	s583	0	False
659.599	1.0	661.07	0.9	2.0	True	89.0	Magnitude	n/a	twobytwo	89.0	0.571	blue	2.0	task_switch	magnitude	switch	stim	poldrack-single-stim	s583	0	False
662.51	1.0	664.313	0.9	2.136	True	89.0	Color	n/a	twobytwo	89.0	0.903	orange	2.0	task_switch	color	switch	stim	poldrack-single-stim	s583	0	False
665.556	1.0	667.129	0.9	2.816	True	89.0	Orange-Blue	switch	twobytwo	89.0	0.673	orange	8.0	cue_switch	color	stay	stim	poldrack-single-stim	s583	0	False
669.282	1.0	670.869	0.9	2.136	True	71.0	High-Low	n/a	twobytwo	71.0	0.687	blue	7.0	task_switch	magnitude	switch	stim	poldrack-single-stim	s583	0	False
672.324	1.0	673.786	0.9	2.0	True	71.0	Color	n/a	twobytwo	71.0	0.562	blue	1.0	task_switch	color	switch	stim	poldrack-single-stim	s583	0	False
674.431	1.0	675.473	0.1	2.0	True	89.0	Orange-Blue	switch	twobytwo	89.0	0.942	orange	9.0	cue_switch	color	stay	stim	poldrack-single-stim	s583	0	False
676.535	1.0	677.463	0.1	2.272	True	71.0	High-Low	n/a	twobytwo	71.0	0.828	orange	9.0	task_switch	magnitude	switch	stim	poldrack-single-stim	s583	0	False
678.918	1.0	679.921	0.1	2.0	True	89.0	Magnitude	switch	twobytwo	89.0	0.903	blue	3.0	cue_switch	magnitude	stay	stim	poldrack-single-stim	s583	0	False
681.03	1.0	682.062	0.1	2.0	True	71.0	Color	n/a	twobytwo	71.0	0.932	blue	8.0	task_switch	color	switch	stim	poldrack-single-stim	s583	0	False
683.141	1.0	684.524	0.1	2.0	True	71.0	Magnitude	n/a	twobytwo	71.0	1.283	blue	6.0	task_switch	magnitude	switch	stim	poldrack-single-stim	s583	0	False
686.05	1.0	688.325	0.9	2.408	True	89.0	Magnitude	stay	twobytwo	89.0	1.375	blue	1.0	cue_stay	magnitude	stay	stim	poldrack-single-stim	s583	0	False
