onset	duration	movement_onset	EV	action	block_duration	experiment_exp_id	gain_amount	gain_probability	key_press	loss_amount	loss_probability	num_cards	num_click_in_round	num_loss_cards	risk	response_time	total_cards	trial_id	trial_type	worker_id	junk	feedback
3.013	1.207	4.22	-1.3120335337040945	draw_card	1.207	columbia_card_task_fmri	12.0	0.8333333333333334	89.0	-70.0	0.1666666666666666	6.0	1.0	1.0	-0.801013774194562	1.207	n/a	stim	poldrack-single-stim	s584	False	1
4.225	1.622	5.847	-4.045366867037427	draw_card	1.622	columbia_card_task_fmri	12.0	0.8	89.0	-70.0	0.2	6.0	2.0	1.0	1.439249995673837	1.622	2.0	stim	poldrack-single-stim	s584	False	0
6.604	1.5	5.853	n/a	-1.0	2.25	columbia_card_task_fmri	n/a	n/a	-1.0	n/a	n/a	n/a	n/a	n/a	n/a	n/a	n/a	ITI	poldrack-single-stim	s584	False	0
8.107	0.923	9.03	-0.4787002003707604	draw_card	0.923	columbia_card_task_fmri	14.0	0.8333333333333334	89.0	-75.0	0.1666666666666666	6.0	1.0	1.0	1.8075703734622304	0.923	n/a	stim	poldrack-single-stim	s584	False	1
9.031	1.251	10.282	-3.445366867037427	draw_card	1.251	columbia_card_task_fmri	14.0	0.8	89.0	-75.0	0.2	6.0	2.0	1.0	4.239099221258481	1.251	n/a	stim	poldrack-single-stim	s584	False	1
10.283	0.881	11.164	-7.895366867037429	end_round	0.881	columbia_card_task_fmri	14.0	0.75	71.0	-75.0	0.25	6.0	3.0	1.0	7.177095032602789	0.881	2.0	stim	poldrack-single-stim	s584	False	1
11.919	1.5	11.168	n/a	-1.0	2.386	columbia_card_task_fmri	n/a	n/a	-1.0	n/a	n/a	n/a	n/a	n/a	n/a	n/a	n/a	ITI	poldrack-single-stim	s584	False	0
13.556	0.747	14.303	1.1879664662959055	draw_card	0.747	columbia_card_task_fmri	15.0	0.8333333333333334	89.0	-70.0	0.1666666666666666	6.0	1.0	1.0	0.316947597101862	0.747	n/a	stim	poldrack-single-stim	s584	False	1
14.305	0.969	15.274	-1.6453668670374282	draw_card	0.969	columbia_card_task_fmri	15.0	0.8	89.0	-70.0	0.2	6.0	2.0	1.0	2.6391823374861154	0.969	n/a	stim	poldrack-single-stim	s584	False	1
15.277	1.333	16.61	-5.895366867037429	end_round	1.333	columbia_card_task_fmri	15.0	0.75	71.0	-70.0	0.25	6.0	3.0	1.0	5.445121005394231	1.333	2.0	stim	poldrack-single-stim	s584	False	1
17.363	1.5	16.612	n/a	-1.0	2.59	columbia_card_task_fmri	n/a	n/a	-1.0	n/a	n/a	n/a	n/a	n/a	n/a	n/a	n/a	ITI	poldrack-single-stim	s584	False	0
19.204	2.144	21.348	2.02129979962924	draw_card	2.144	columbia_card_task_fmri	17.0	0.8333333333333334	89.0	-75.0	0.1666666666666666	6.0	1.0	1.0	2.9255425460186864	2.144	n/a	stim	poldrack-single-stim	s584	False	1
21.349	1.076	22.425	-1.0453668670374268	draw_card	1.076	columbia_card_task_fmri	17.0	0.8	89.0	-75.0	0.2	6.0	2.0	1.0	5.439041626790246	1.076	n/a	stim	poldrack-single-stim	s584	False	1
22.426	1.164	23.59	-5.645366867037429	draw_card	1.164	columbia_card_task_fmri	17.0	0.75	89.0	-75.0	0.25	6.0	3.0	1.0	8.476079934226686	1.164	3.0	stim	poldrack-single-stim	s584	False	0
24.346	1.5	23.595	n/a	-1.0	2.658	columbia_card_task_fmri	n/a	n/a	-1.0	n/a	n/a	n/a	n/a	n/a	n/a	n/a	n/a	ITI	poldrack-single-stim	s584	False	0
26.256	1.524	27.78	3.354633132962572	draw_card	1.524	columbia_card_task_fmri	24.0	0.75	89.0	-60.0	0.25	8.0	1.0	2.0	5.012128641077364	1.524	n/a	stim	poldrack-single-stim	s584	False	1
27.781	0.888	28.669	0.3546331329625717	draw_card	0.888	columbia_card_task_fmri	24.0	0.7142857142857143	89.0	-60.0	0.2857142857142857	8.0	2.0	2.0	6.586321888229104	0.888	n/a	stim	poldrack-single-stim	s584	False	1
28.671	1.685	30.356	-3.645366867037428	draw_card	1.685	columbia_card_task_fmri	24.0	0.6666666666666667	89.0	-60.0	0.3333333333333333	8.0	3.0	2.0	8.236900640740739	1.685	3.0	stim	poldrack-single-stim	s584	False	0
31.108	1.5	30.357	n/a	-1.0	2.386	columbia_card_task_fmri	n/a	n/a	-1.0	n/a	n/a	n/a	n/a	n/a	n/a	n/a	n/a	ITI	poldrack-single-stim	s584	False	0
32.746	0.553	33.299	3.354633132962572	draw_card	0.553	columbia_card_task_fmri	29.0	0.75	89.0	-75.0	0.25	8.0	1.0	2.0	13.672050233798313	0.553	1.0	stim	poldrack-single-stim	s584	False	0
34.053	1.5	33.302	n/a	-1.0	2.386	columbia_card_task_fmri	n/a	n/a	-1.0	n/a	n/a	n/a	n/a	n/a	n/a	n/a	n/a	ITI	poldrack-single-stim	s584	False	0
35.691	0.647	36.338	-0.867589089259648	draw_card	0.647	columbia_card_task_fmri	17.0	0.7777777777777778	89.0	-65.0	0.2222222222222222	9.0	1.0	2.0	2.7298336102296297	0.647	n/a	stim	poldrack-single-stim	s584	False	1
36.34	2.098	38.438	-3.145366867037428	draw_card	2.098	columbia_card_task_fmri	17.0	0.75	89.0	-65.0	0.25	9.0	2.0	2.0	4.146145400449779	2.098	2.0	stim	poldrack-single-stim	s584	False	0
39.192	1.5	38.441	n/a	-1.0	2.25	columbia_card_task_fmri	n/a	n/a	-1.0	n/a	n/a	n/a	n/a	n/a	n/a	n/a	n/a	ITI	poldrack-single-stim	s584	False	0
40.694	0.55	41.244	3.4546331329625715	draw_card	0.55	columbia_card_task_fmri	14.0	0.9	89.0	-95.0	0.1	10.0	1.0	1.0	1.339255857984572	0.55	n/a	stim	poldrack-single-stim	s584	False	1
41.246	0.685	41.931	2.2435220218514598	end_round	0.685	columbia_card_task_fmri	14.0	0.8888888888888888	71.0	-95.0	0.1111111111111111	10.0	2.0	1.0	2.89456372706395	0.685	1.0	stim	poldrack-single-stim	s584	False	1
42.686	1.5	41.935	n/a	-1.0	2.318	columbia_card_task_fmri	n/a	n/a	-1.0	n/a	n/a	n/a	n/a	n/a	n/a	n/a	n/a	ITI	poldrack-single-stim	s584	False	0
44.257	0.688	44.945	-0.6453668670374283	draw_card	0.688	columbia_card_task_fmri	15.0	0.8	89.0	-65.0	0.2	10.0	1.0	2.0	0.6392979199710318	0.688	n/a	stim	poldrack-single-stim	s584	False	1
44.947	1.314	46.261	-2.423144644815205	end_round	1.314	columbia_card_task_fmri	15.0	0.7777777777777778	71.0	-65.0	0.2222222222222222	10.0	2.0	2.0	1.8984003011602617	1.314	1.0	stim	poldrack-single-stim	s584	False	1
47.016	1.5	46.265	n/a	-1.0	2.25	columbia_card_task_fmri	n/a	n/a	-1.0	n/a	n/a	n/a	n/a	n/a	n/a	n/a	n/a	ITI	poldrack-single-stim	s584	False	0
48.518	0.796	49.314	0.9546331329625732	draw_card	0.796	columbia_card_task_fmri	17.0	0.8	89.0	-65.0	0.2	10.0	1.0	2.0	1.439249995673837	0.796	n/a	stim	poldrack-single-stim	s584	False	1
49.316	0.933	50.249	-0.867589089259648	draw_card	0.933	columbia_card_task_fmri	17.0	0.7777777777777778	89.0	-65.0	0.2222222222222222	10.0	2.0	2.0	2.7298336102296297	0.933	2.0	stim	poldrack-single-stim	s584	False	0
51.005	1.5	50.254	n/a	-1.0	2.25	columbia_card_task_fmri	n/a	n/a	-1.0	n/a	n/a	n/a	n/a	n/a	n/a	n/a	n/a	ITI	poldrack-single-stim	s584	False	0
52.507	0.62	53.127	-0.4787002003707604	draw_card	0.62	columbia_card_task_fmri	13.0	0.8333333333333334	89.0	-70.0	0.1666666666666666	12.0	1.0	2.0	-0.4283605669778687	0.62	1.0	stim	poldrack-single-stim	s584	False	0
53.882	1.5	53.131	n/a	-1.0	2.386	columbia_card_task_fmri	n/a	n/a	-1.0	n/a	n/a	n/a	n/a	n/a	n/a	n/a	n/a	ITI	poldrack-single-stim	s584	False	0
55.52	1.028	56.548	-0.4787002003707604	draw_card	1.028	columbia_card_task_fmri	15.0	0.8333333333333334	89.0	-80.0	0.1666666666666666	12.0	1.0	2.0	4.043518622452229	1.028	n/a	stim	poldrack-single-stim	s584	False	1
56.551	0.824	57.375	-1.9180941397647036	end_round	0.824	columbia_card_task_fmri	15.0	0.8181818181818181	71.0	-80.0	0.1818181818181818	12.0	2.0	2.0	5.280036794229705	0.824	1.0	stim	poldrack-single-stim	s584	False	1
58.127	1.5	57.376	n/a	-1.0	2.386	columbia_card_task_fmri	n/a	n/a	-1.0	n/a	n/a	n/a	n/a	n/a	n/a	n/a	n/a	ITI	poldrack-single-stim	s584	False	0
59.766	0.694	60.46	-1.4453668670374271	draw_card	0.694	columbia_card_task_fmri	14.0	0.8	89.0	-65.0	0.2	15.0	1.0	3.0	0.2393227919901015	0.694	n/a	stim	poldrack-single-stim	s584	False	1
60.462	1.074	61.536	-2.5739382956088552	draw_card	1.074	columbia_card_task_fmri	14.0	0.7857142857142857	89.0	-65.0	0.2142857142857142	15.0	2.0	3.0	1.055019081937612	1.074	n/a	stim	poldrack-single-stim	s584	False	1
61.538	1.968	63.506	-3.87613609780666	end_round	1.968	columbia_card_task_fmri	14.0	0.7692307692307692	71.0	-65.0	0.2307692307692307	15.0	3.0	3.0	1.923900575925113	1.968	2.0	stim	poldrack-single-stim	s584	False	1
64.263	1.5	63.512	n/a	-1.0	2.726	columbia_card_task_fmri	n/a	n/a	-1.0	n/a	n/a	n/a	n/a	n/a	n/a	n/a	n/a	ITI	poldrack-single-stim	s584	False	0
66.242	1.364	67.606	-1.5203668670374282	draw_card	1.364	columbia_card_task_fmri	1.0	0.9375	89.0	-45.0	0.0625	16.0	1.0	1.0	-20.22219404782444	1.364	n/a	stim	poldrack-single-stim	s584	False	1
67.608	1.309	68.917	-1.7120335337040946	draw_card	1.309	columbia_card_task_fmri	1.0	0.9333333333333332	89.0	-45.0	0.0666666666666666	16.0	2.0	1.0	-19.88277219396676	1.309	n/a	stim	poldrack-single-stim	s584	False	1
68.92	1.277	70.197	-1.9310811527517135	draw_card	1.277	columbia_card_task_fmri	1.0	0.9285714285714286	89.0	-45.0	0.0714285714285714	16.0	3.0	1.0	-19.510548993414822	1.277	n/a	stim	poldrack-single-stim	s584	False	1
70.2	1.131	71.331	-2.1838284054989665	end_round	1.131	columbia_card_task_fmri	1.0	0.9230769230769232	71.0	-45.0	0.0769230769230769	16.0	4.0	1.0	-19.099947762383334	1.131	3.0	stim	poldrack-single-stim	s584	False	1
72.085	1.5	71.334	n/a	-1.0	2.454	columbia_card_task_fmri	n/a	n/a	-1.0	n/a	n/a	n/a	n/a	n/a	n/a	n/a	n/a	ITI	poldrack-single-stim	s584	False	0
73.792	1.085	74.877	-0.5828668670374283	draw_card	1.085	columbia_card_task_fmri	15.0	0.8125	89.0	-70.0	0.1875	16.0	1.0	3.0	1.8157801045801527	1.085	n/a	stim	poldrack-single-stim	s584	False	1
74.88	1.305	76.185	-1.6453668670374282	draw_card	1.305	columbia_card_task_fmri	15.0	0.8	89.0	-70.0	0.2	16.0	2.0	3.0	2.6391823374861154	1.305	n/a	stim	poldrack-single-stim	s584	False	1
76.188	1.158	77.346	-2.8596525813231435	draw_card	1.158	columbia_card_task_fmri	15.0	0.7857142857142857	89.0	-70.0	0.2142857142857142	16.0	3.0	3.0	3.5168375813354835	1.158	n/a	stim	poldrack-single-stim	s584	False	1
77.347	1.209	78.556	-4.260751482422045	draw_card	1.209	columbia_card_task_fmri	15.0	0.7692307692307692	89.0	-70.0	0.2307692307692307	16.0	4.0	3.0	4.451717494669655	1.209	n/a	stim	poldrack-single-stim	s584	False	1
78.558	1.079	79.637	-5.895366867037429	end_round	1.079	columbia_card_task_fmri	15.0	0.75	71.0	-70.0	0.25	16.0	5.0	3.0	5.445121005394231	1.079	4.0	stim	poldrack-single-stim	s584	False	1
80.394	1.5	79.643	n/a	-1.0	2.318	columbia_card_task_fmri	n/a	n/a	-1.0	n/a	n/a	n/a	n/a	n/a	n/a	n/a	n/a	ITI	poldrack-single-stim	s584	False	0
81.963	0.96	82.923	6.354633132962571	draw_card	0.96	columbia_card_task_fmri	30.0	0.7	89.0	-50.0	0.3	10.0	1.0	3.0	5.299653683188513	0.96	n/a	stim	poldrack-single-stim	s584	False	1
82.925	1.72	84.645	3.687966466295911	draw_card	1.72	columbia_card_task_fmri	30.0	0.6666666666666667	89.0	-50.0	0.3333333333333333	10.0	2.0	3.0	6.351361953489214	1.72	2.0	stim	poldrack-single-stim	s584	False	0
85.402	1.5	84.651	n/a	-1.0	2.318	columbia_card_task_fmri	n/a	n/a	-1.0	n/a	n/a	n/a	n/a	n/a	n/a	n/a	n/a	ITI	poldrack-single-stim	s584	False	0
86.972	0.827	87.799	5.754633132962572	draw_card	0.827	columbia_card_task_fmri	17.0	0.8666666666666667	89.0	-70.0	0.1333333333333333	15.0	1.0	2.0	-1.7862277419056198	0.827	n/a	stim	poldrack-single-stim	s584	False	1
87.801	1.27	89.071	4.926061704391144	draw_card	1.27	columbia_card_task_fmri	17.0	0.8571428571428572	89.0	-70.0	0.1428571428571428	15.0	2.0	2.0	-0.916943399508046	1.27	2.0	stim	poldrack-single-stim	s584	False	0
89.828	1.5	89.077	n/a	-1.0	2.59	columbia_card_task_fmri	n/a	n/a	-1.0	n/a	n/a	n/a	n/a	n/a	n/a	n/a	n/a	ITI	poldrack-single-stim	s584	False	0
91.671	0.42	92.091	0.9796331329625716	draw_card	0.42	columbia_card_task_fmri	7.0	0.9375	89.0	-95.0	0.0625	16.0	1.0	1.0	-6.669851545071573	0.42	n/a	stim	poldrack-single-stim	s584	False	1
92.094	1.64	93.734	0.5546331329625719	draw_card	1.64	columbia_card_task_fmri	7.0	0.9333333333333332	89.0	-95.0	0.0666666666666666	16.0	2.0	1.0	-5.916925510472311	1.64	n/a	stim	poldrack-single-stim	s584	False	1
93.737	1.094	94.831	0.0689188472482861	end_round	1.094	columbia_card_task_fmri	7.0	0.9285714285714286	71.0	-95.0	0.0714285714285714	16.0	3.0	1.0	-5.091256982855338	1.094	2.0	stim	poldrack-single-stim	s584	False	1
95.586	1.5	94.835	n/a	-1.0	2.726	columbia_card_task_fmri	n/a	n/a	-1.0	n/a	n/a	n/a	n/a	n/a	n/a	n/a	n/a	ITI	poldrack-single-stim	s584	False	0
97.566	0.523	98.089	2.542133132962572	draw_card	0.523	columbia_card_task_fmri	9.0	0.9375	89.0	-100.0	0.0625	16.0	1.0	1.0	-4.975584866354843	0.523	n/a	stim	poldrack-single-stim	s584	False	1
98.091	1.675	99.766	2.087966466295905	draw_card	1.675	columbia_card_task_fmri	9.0	0.9333333333333332	89.0	-100.0	0.0666666666666666	16.0	2.0	1.0	-4.170977426692573	1.675	n/a	stim	poldrack-single-stim	s584	False	1
99.768	1.612	101.38	1.5689188472482871	draw_card	1.612	columbia_card_task_fmri	9.0	0.9285714285714286	89.0	-100.0	0.0714285714285714	16.0	3.0	1.0	-3.2886350546282515	1.612	n/a	stim	poldrack-single-stim	s584	False	1
101.382	0.981	102.363	0.9700177483471876	end_round	0.981	columbia_card_task_fmri	9.0	0.9230769230769232	71.0	-100.0	0.0769230769230769	16.0	4.0	1.0	-2.3153424922114425	0.981	3.0	stim	poldrack-single-stim	s584	False	1
103.116	1.5	102.365	n/a	-1.0	2.522	columbia_card_task_fmri	n/a	n/a	-1.0	n/a	n/a	n/a	n/a	n/a	n/a	n/a	n/a	ITI	poldrack-single-stim	s584	False	0
104.891	0.967	105.858	3.479633132962572	draw_card	0.967	columbia_card_task_fmri	15.0	0.875	89.0	-80.0	0.125	16.0	1.0	2.0	0.0576311183606392	0.967	n/a	stim	poldrack-single-stim	s584	False	1
105.86	1.544	107.404	2.6879664662959057	draw_card	1.544	columbia_card_task_fmri	15.0	0.8666666666666667	89.0	-80.0	0.1333333333333333	16.0	2.0	2.0	0.933070297259544	1.544	n/a	stim	poldrack-single-stim	s584	False	1
107.406	1.573	108.979	1.7832045615340024	end_round	1.573	columbia_card_task_fmri	15.0	0.8571428571428572	71.0	-80.0	0.1428571428571428	16.0	3.0	2.0	1.8822995261591764	1.573	2.0	stim	poldrack-single-stim	s584	False	1
109.733	1.5	108.982	n/a	-1.0	3.134	columbia_card_task_fmri	n/a	n/a	-1.0	n/a	n/a	n/a	n/a	n/a	n/a	n/a	n/a	ITI	poldrack-single-stim	s584	False	0
112.12	1.316	113.436	5.604633132962571	draw_card	1.316	columbia_card_task_fmri	16.0	0.875	89.0	-70.0	0.125	16.0	1.0	2.0	-2.9186296740994138	1.316	n/a	stim	poldrack-single-stim	s584	False	1
113.439	1.719	115.158	4.887966466295905	draw_card	1.719	columbia_card_task_fmri	16.0	0.8666666666666667	89.0	-70.0	0.1333333333333333	16.0	2.0	2.0	-2.126137655026195	1.719	n/a	stim	poldrack-single-stim	s584	False	1
115.16	1.531	116.691	4.068918847248287	draw_card	1.531	columbia_card_task_fmri	16.0	0.8571428571428572	89.0	-70.0	0.1428571428571428	16.0	3.0	2.0	-1.2668464902864898	1.531	n/a	stim	poldrack-single-stim	s584	False	1
116.695	1.493	118.188	3.12386390219334	end_round	1.493	columbia_card_task_fmri	16.0	0.8461538461538461	71.0	-70.0	0.1538461538461538	16.0	4.0	2.0	-0.3317363287009378	1.493	3.0	stim	poldrack-single-stim	s584	False	1
118.941	1.5	118.19	n/a	-1.0	2.386	columbia_card_task_fmri	n/a	n/a	-1.0	n/a	n/a	n/a	n/a	n/a	n/a	n/a	n/a	ITI	poldrack-single-stim	s584	False	0
120.58	1.033	121.613	6.917133132962571	draw_card	1.033	columbia_card_task_fmri	30.0	0.6875	89.0	-45.0	0.3125	16.0	1.0	5.0	3.4025721330462098	1.033	n/a	stim	poldrack-single-stim	s584	False	1
121.616	1.127	122.743	5.354633132962575	draw_card	1.127	columbia_card_task_fmri	30.0	0.6666666666666667	89.0	-45.0	0.3333333333333333	16.0	2.0	5.0	3.994450502963925	1.127	n/a	stim	poldrack-single-stim	s584	False	1
122.746	1.43	124.176	3.568918847248284	end_round	1.43	columbia_card_task_fmri	30.0	0.6428571428571428	71.0	-45.0	0.3571428571428571	16.0	3.0	5.0	4.575889449076978	1.43	2.0	stim	poldrack-single-stim	s584	False	1
124.931	1.5	124.18	n/a	-1.0	2.386	columbia_card_task_fmri	n/a	n/a	-1.0	n/a	n/a	n/a	n/a	n/a	n/a	n/a	n/a	ITI	poldrack-single-stim	s584	False	0
126.57	0.883	127.453	-1.3120335337040945	draw_card	0.883	columbia_card_task_fmri	13.0	0.8333333333333334	89.0	-75.0	0.1666666666666666	6.0	1.0	1.0	1.4349139191384346	0.883	1.0	stim	poldrack-single-stim	s584	False	0
128.209	1.5	127.458	n/a	-1.0	2.318	columbia_card_task_fmri	n/a	n/a	-1.0	n/a	n/a	n/a	n/a	n/a	n/a	n/a	n/a	ITI	poldrack-single-stim	s584	False	0
129.779	1.049	130.828	0.3546331329625735	draw_card	1.049	columbia_card_task_fmri	14.0	0.8333333333333334	89.0	-70.0	0.1666666666666666	6.0	1.0	1.0	-0.055706769603578	1.049	n/a	stim	poldrack-single-stim	s584	False	1
130.83	1.052	131.882	-2.445366867037427	end_round	1.052	columbia_card_task_fmri	14.0	0.8	71.0	-70.0	0.2	6.0	2.0	1.0	2.2392043532906563	1.052	1.0	stim	poldrack-single-stim	s584	False	1
132.635	1.5	131.884	n/a	-1.0	2.318	columbia_card_task_fmri	n/a	n/a	-1.0	n/a	n/a	n/a	n/a	n/a	n/a	n/a	n/a	ITI	poldrack-single-stim	s584	False	0
134.205	0.52	134.725	0.3546331329625735	draw_card	0.52	columbia_card_task_fmri	16.0	0.8333333333333334	89.0	-80.0	0.1666666666666666	6.0	1.0	1.0	4.416178118874139	0.52	n/a	stim	poldrack-single-stim	s584	False	1
134.727	1.225	135.952	-2.8453668670374275	draw_card	1.225	columbia_card_task_fmri	16.0	0.8	89.0	-80.0	0.2	6.0	2.0	1.0	7.038970433255397	1.225	n/a	stim	poldrack-single-stim	s584	False	1
135.954	1.095	137.049	-7.645366867037429	end_round	1.095	columbia_card_task_fmri	16.0	0.75	71.0	-80.0	0.25	6.0	3.0	1.0	10.208064975380967	1.095	2.0	stim	poldrack-single-stim	s584	False	1
137.803	1.5	137.052	n/a	-1.0	2.862	columbia_card_task_fmri	n/a	n/a	-1.0	n/a	n/a	n/a	n/a	n/a	n/a	n/a	n/a	ITI	poldrack-single-stim	s584	False	0
139.917	0.611	140.528	2.8546331329625736	draw_card	0.611	columbia_card_task_fmri	17.0	0.8333333333333334	89.0	-70.0	0.1666666666666666	6.0	1.0	1.0	1.0622579599874094	0.611	n/a	stim	poldrack-single-stim	s584	False	1
140.532	1.907	142.439	-0.0453668670374268	end_round	1.907	columbia_card_task_fmri	17.0	0.8	71.0	-70.0	0.2	6.0	2.0	1.0	3.439139824087785	1.907	1.0	stim	poldrack-single-stim	s584	False	1
143.192	1.5	142.441	n/a	-1.0	2.726	columbia_card_task_fmri	n/a	n/a	-1.0	n/a	n/a	n/a	n/a	n/a	n/a	n/a	n/a	ITI	poldrack-single-stim	s584	False	0
145.171	0.591	145.762	2.854633132962572	draw_card	0.591	columbia_card_task_fmri	25.0	0.75	89.0	-65.0	0.25	8.0	1.0	2.0	7.610089605731044	0.591	1.0	stim	poldrack-single-stim	s584	False	0
146.518	1.5	145.767	n/a	-1.0	2.25	columbia_card_task_fmri	n/a	n/a	-1.0	n/a	n/a	n/a	n/a	n/a	n/a	n/a	n/a	ITI	poldrack-single-stim	s584	False	0
148.02	0.928	148.948	2.854633132962572	draw_card	0.928	columbia_card_task_fmri	30.0	0.75	89.0	-80.0	0.25	8.0	1.0	2.0	16.270050283896108	0.928	n/a	stim	poldrack-single-stim	s584	False	1
148.951	1.134	150.085	-1.0739382956088517	draw_card	1.134	columbia_card_task_fmri	30.0	0.7142857142857143	89.0	-80.0	0.2857142857142857	8.0	2.0	2.0	18.33153296909366	1.134	2.0	stim	poldrack-single-stim	s584	False	0
150.842	1.5	150.091	n/a	-1.0	2.318	columbia_card_task_fmri	n/a	n/a	-1.0	n/a	n/a	n/a	n/a	n/a	n/a	n/a	n/a	ITI	poldrack-single-stim	s584	False	0
152.413	0.585	152.998	2.554633132962573	draw_card	0.585	columbia_card_task_fmri	13.0	0.9	89.0	-95.0	0.1	10.0	1.0	1.0	1.039273662020019	0.585	n/a	stim	poldrack-single-stim	s584	False	1
153.001	0.975	153.976	1.3546331329625718	end_round	0.975	columbia_card_task_fmri	13.0	0.8888888888888888	71.0	-95.0	0.1111111111111111	10.0	2.0	1.0	2.5803110422990407	0.975	1.0	stim	poldrack-single-stim	s584	False	1
154.729	1.5	153.978	n/a	-1.0	2.454	columbia_card_task_fmri	n/a	n/a	-1.0	n/a	n/a	n/a	n/a	n/a	n/a	n/a	n/a	ITI	poldrack-single-stim	s584	False	0
156.435	0.526	156.961	3.954633132962572	draw_card	0.526	columbia_card_task_fmri	14.0	0.9	89.0	-90.0	0.1	10.0	1.0	1.0	-0.1606516983077597	0.526	n/a	stim	poldrack-single-stim	s584	False	1
156.964	1.509	158.473	2.7990775774070147	draw_card	1.509	columbia_card_task_fmri	14.0	0.8888888888888888	89.0	-90.0	0.1111111111111111	10.0	2.0	1.0	1.3233035713746766	1.509	n/a	stim	poldrack-single-stim	s584	False	1
158.477	1.226	159.703	1.3546331329625718	end_round	1.226	columbia_card_task_fmri	14.0	0.875	71.0	-90.0	0.125	10.0	3.0	1.0	3.0339281555685496	1.226	2.0	stim	poldrack-single-stim	s584	False	1
160.458	1.5	159.707	n/a	-1.0	2.522	columbia_card_task_fmri	n/a	n/a	-1.0	n/a	n/a	n/a	n/a	n/a	n/a	n/a	n/a	ITI	poldrack-single-stim	s584	False	0
162.232	1.28	163.512	-0.8453668670374276	draw_card	1.28	columbia_card_task_fmri	16.0	0.8	89.0	-70.0	0.2	10.0	1.0	2.0	3.039160833635723	1.28	n/a	stim	poldrack-single-stim	s584	False	1
163.516	1.326	164.842	-2.756477978148539	draw_card	1.326	columbia_card_task_fmri	16.0	0.7777777777777778	89.0	-70.0	0.2222222222222222	10.0	2.0	2.0	4.392706661857414	1.326	n/a	stim	poldrack-single-stim	s584	False	1
164.845	1.884	166.729	-5.145366867037429	draw_card	1.884	columbia_card_task_fmri	16.0	0.75	89.0	-70.0	0.25	10.0	3.0	2.0	5.8781138426454085	1.884	3.0	stim	poldrack-single-stim	s584	False	0
167.482	1.5	166.731	n/a	-1.0	2.318	columbia_card_task_fmri	n/a	n/a	-1.0	n/a	n/a	n/a	n/a	n/a	n/a	n/a	n/a	ITI	poldrack-single-stim	s584	False	0
169.055	0.62	169.675	-1.5620335337040945	draw_card	0.62	columbia_card_task_fmri	7.0	0.9166666666666666	89.0	-100.0	0.0833333333333333	12.0	1.0	1.0	-1.7873031294263306	0.62	n/a	stim	poldrack-single-stim	s584	False	1
169.678	1.385	171.063	-2.3726395943101566	draw_card	1.385	columbia_card_task_fmri	7.0	0.9090909090909092	89.0	-100.0	0.0909090909090909	12.0	2.0	1.0	-0.600285654015078	1.385	n/a	stim	poldrack-single-stim	s584	False	1
171.066	2.365	173.431	-3.3453668670374284	end_round	2.365	columbia_card_task_fmri	7.0	0.9	71.0	-100.0	0.1	12.0	3.0	1.0	0.7392917988110064	2.365	2.0	stim	poldrack-single-stim	s584	False	1
174.186	1.5	173.435	n/a	-1.0	2.522	columbia_card_task_fmri	n/a	n/a	-1.0	n/a	n/a	n/a	n/a	n/a	n/a	n/a	n/a	ITI	poldrack-single-stim	s584	False	0
175.961	1.043	177.004	-1.3120335337040925	draw_card	1.043	columbia_card_task_fmri	14.0	0.8333333333333334	89.0	-80.0	0.1666666666666666	12.0	1.0	2.0	3.670859519613753	1.043	n/a	stim	poldrack-single-stim	s584	False	1
177.008	2.335	179.343	-2.7362759579465217	draw_card	2.335	columbia_card_task_fmri	14.0	0.8181818181818181	89.0	-80.0	0.1818181818181818	12.0	2.0	2.0	4.894360442189221	2.335	2.0	stim	poldrack-single-stim	s584	False	0
180.099	1.5	179.348	n/a	-1.0	2.998	columbia_card_task_fmri	n/a	n/a	-1.0	n/a	n/a	n/a	n/a	n/a	n/a	n/a	n/a	ITI	poldrack-single-stim	s584	False	0
182.351	1.034	183.385	0.3546331329625717	end_round	1.034	columbia_card_task_fmri	15.0	0.8333333333333334	71.0	-75.0	0.1666666666666666	12.0	1.0	2.0	2.1802273064549063	1.034	0.0	stim	poldrack-single-stim	s584	False	1
184.142	1.5	183.391	n/a	-1.0	2.318	columbia_card_task_fmri	n/a	n/a	-1.0	n/a	n/a	n/a	n/a	n/a	n/a	n/a	n/a	ITI	poldrack-single-stim	s584	False	0
185.714	0.665	186.379	-0.6453668670374283	draw_card	0.665	columbia_card_task_fmri	15.0	0.8	89.0	-65.0	0.2	15.0	1.0	3.0	0.6392979199710318	0.665	n/a	stim	poldrack-single-stim	s584	False	1
186.383	1.537	187.92	-1.7882240098945703	draw_card	1.537	columbia_card_task_fmri	15.0	0.7857142857142857	89.0	-65.0	0.2142857142857142	15.0	2.0	3.0	1.4653207390378036	1.537	n/a	stim	poldrack-single-stim	s584	False	1
187.924	1.899	189.823	-3.106905328575892	draw_card	1.899	columbia_card_task_fmri	15.0	0.7692307692307692	89.0	-65.0	0.2307692307692307	15.0	3.0	3.0	2.34520200680166	1.899	n/a	stim	poldrack-single-stim	s584	False	1
189.827	1.718	191.545	-4.645366867037429	end_round	1.718	columbia_card_task_fmri	15.0	0.75	71.0	-65.0	0.25	15.0	4.0	3.0	3.280164267818325	1.718	3.0	stim	poldrack-single-stim	s584	False	1
192.298	1.5	191.547	n/a	-1.0	2.25	columbia_card_task_fmri	n/a	n/a	-1.0	n/a	n/a	n/a	n/a	n/a	n/a	n/a	n/a	ITI	poldrack-single-stim	s584	False	0
193.802	1.246	195.048	-1.3953668670374282	draw_card	1.246	columbia_card_task_fmri	14.0	0.8125	89.0	-70.0	0.1875	16.0	1.0	3.0	1.4254902918275114	1.246	1.0	stim	poldrack-single-stim	s584	False	0
195.805	1.5	195.054	n/a	-1.0	2.454	columbia_card_task_fmri	n/a	n/a	-1.0	n/a	n/a	n/a	n/a	n/a	n/a	n/a	n/a	ITI	poldrack-single-stim	s584	False	0
197.512	1.257	198.769	-1.4578668670374282	draw_card	1.257	columbia_card_task_fmri	11.0	0.6875	89.0	-30.0	0.3125	16.0	1.0	5.0	-12.355349859148856	1.257	n/a	stim	poldrack-single-stim	s584	False	1
198.773	1.783	200.556	-2.3120335337040943	draw_card	1.783	columbia_card_task_fmri	11.0	0.6666666666666667	89.0	-30.0	0.3333333333333333	16.0	2.0	5.0	-12.031828512272622	1.783	n/a	stim	poldrack-single-stim	s584	False	1
200.559	1.46	202.019	-3.2882240098945723	end_round	1.46	columbia_card_task_fmri	11.0	0.6428571428571428	71.0	-30.0	0.3571428571428571	16.0	3.0	5.0	-11.714012120459898	1.46	2.0	stim	poldrack-single-stim	s584	False	1
202.774	1.5	202.023	n/a	-1.0	2.318	columbia_card_task_fmri	n/a	n/a	-1.0	n/a	n/a	n/a	n/a	n/a	n/a	n/a	n/a	ITI	poldrack-single-stim	s584	False	0
204.345	0.783	205.128	3.354633132962572	draw_card	0.783	columbia_card_task_fmri	15.0	0.8666666666666667	89.0	-75.0	0.1333333333333333	15.0	1.0	2.0	-0.7664947067357737	0.783	1.0	stim	poldrack-single-stim	s584	False	0
205.884	1.5	205.133	n/a	-1.0	2.318	columbia_card_task_fmri	n/a	n/a	-1.0	n/a	n/a	n/a	n/a	n/a	n/a	n/a	n/a	ITI	poldrack-single-stim	s584	False	0
207.455	1.164	208.619	5.087966466295906	end_round	1.164	columbia_card_task_fmri	17.0	0.8666666666666667	71.0	-75.0	0.1333333333333333	15.0	1.0	2.0	-0.0866701158785723	1.164	0.0	stim	poldrack-single-stim	s584	False	1
209.372	1.5	208.621	n/a	-1.0	2.59	columbia_card_task_fmri	n/a	n/a	-1.0	n/a	n/a	n/a	n/a	n/a	n/a	n/a	n/a	ITI	poldrack-single-stim	s584	False	0
211.217	0.649	211.866	0.6671331329625717	draw_card	0.649	columbia_card_task_fmri	2.0	0.9375	89.0	-25.0	0.0625	16.0	1.0	1.0	-24.81739334657601	0.649	n/a	stim	poldrack-single-stim	s584	False	1
211.869	1.394	213.263	0.5546331329625717	draw_card	1.394	columbia_card_task_fmri	2.0	0.9333333333333332	89.0	-25.0	0.0666666666666666	16.0	2.0	1.0	-24.618353587102696	1.394	n/a	stim	poldrack-single-stim	s584	False	1
213.267	1.776	215.043	0.4260617043911433	end_round	1.776	columbia_card_task_fmri	2.0	0.9285714285714286	71.0	-25.0	0.0714285714285714	16.0	3.0	1.0	-24.40006661025101	1.776	2.0	stim	poldrack-single-stim	s584	False	1
215.797	1.5	215.046	n/a	-1.0	2.25	columbia_card_task_fmri	n/a	n/a	-1.0	n/a	n/a	n/a	n/a	n/a	n/a	n/a	n/a	ITI	poldrack-single-stim	s584	False	0
217.301	1.246	218.547	2.854633132962572	end_round	1.246	columbia_card_task_fmri	9.0	0.9375	71.0	-95.0	0.0625	16.0	1.0	1.0	-6.185777597184472	1.246	0.0	stim	poldrack-single-stim	s584	False	1
219.302	1.5	218.551	n/a	-1.0	2.25	columbia_card_task_fmri	n/a	n/a	-1.0	n/a	n/a	n/a	n/a	n/a	n/a	n/a	n/a	ITI	poldrack-single-stim	s584	False	0
220.805	1.451	222.256	4.417133132962571	draw_card	1.451	columbia_card_task_fmri	11.0	0.9375	89.0	-100.0	0.0625	16.0	1.0	1.0	-4.49150488448689	1.451	n/a	stim	poldrack-single-stim	s584	False	1
222.26	2.25	224.51	3.954633132962573	draw_card	2.25	columbia_card_task_fmri	11.0	0.9333333333333332	89.0	-100.0	0.0666666666666666	16.0	2.0	1.0	-3.672131441137772	2.25	n/a	stim	poldrack-single-stim	s584	False	1
224.513	1.107	225.62	3.4260617043911448	end_round	1.107	columbia_card_task_fmri	11.0	0.9285714285714286	71.0	-100.0	0.0714285714285714	16.0	3.0	1.0	-2.773596657579525	1.107	2.0	stim	poldrack-single-stim	s584	False	1
226.379	1.5	225.628	n/a	-1.0	2.522	columbia_card_task_fmri	n/a	n/a	-1.0	n/a	n/a	n/a	n/a	n/a	n/a	n/a	n/a	ITI	poldrack-single-stim	s584	False	0
228.154	0.943	229.097	4.979633132962571	draw_card	0.943	columbia_card_task_fmri	16.0	0.875	89.0	-75.0	0.125	16.0	1.0	2.0	-1.2651565698771243	0.943	n/a	stim	poldrack-single-stim	s584	False	1
229.101	1.683	230.784	4.221299799629239	draw_card	1.683	columbia_card_task_fmri	16.0	0.8666666666666667	89.0	-75.0	0.1333333333333333	16.0	2.0	2.0	-0.4265826567644168	1.683	n/a	stim	poldrack-single-stim	s584	False	1
230.788	1.156	231.944	3.3546331329625736	draw_card	1.156	columbia_card_task_fmri	16.0	0.8571428571428572	89.0	-75.0	0.1428571428571428	16.0	3.0	2.0	0.4826742411930347	1.156	n/a	stim	poldrack-single-stim	s584	False	1
231.948	1.328	233.276	2.354633132962572	end_round	1.328	columbia_card_task_fmri	16.0	0.8461538461538461	71.0	-75.0	0.1538461538461538	16.0	4.0	2.0	1.4721583929419957	1.328	3.0	stim	poldrack-single-stim	s584	False	1
234.031	1.5	233.28	n/a	-1.0	2.454	columbia_card_task_fmri	n/a	n/a	-1.0	n/a	n/a	n/a	n/a	n/a	n/a	n/a	n/a	ITI	poldrack-single-stim	s584	False	0
235.739	1.184	236.923	5.229633132962571	draw_card	1.184	columbia_card_task_fmri	17.0	0.875	89.0	-80.0	0.125	16.0	1.0	2.0	0.7190276828609363	1.184	n/a	stim	poldrack-single-stim	s584	False	1
236.927	1.449	238.376	4.42129979962924	draw_card	1.449	columbia_card_task_fmri	17.0	0.8666666666666667	89.0	-80.0	0.1333333333333333	16.0	2.0	2.0	1.6128994209301375	1.449	n/a	stim	poldrack-single-stim	s584	False	1
238.38	1.133	239.513	3.4974902758197177	draw_card	1.133	columbia_card_task_fmri	17.0	0.8571428571428572	89.0	-80.0	0.1428571428571428	16.0	3.0	2.0	2.582114739749823	1.133	n/a	stim	poldrack-single-stim	s584	False	1
239.517	1.179	240.696	2.4315562098856485	end_round	1.179	columbia_card_task_fmri	17.0	0.8461538461538461	71.0	-80.0	0.1538461538461538	16.0	4.0	2.0	3.6368472090706767	1.179	3.0	stim	poldrack-single-stim	s584	False	1
241.451	1.5	240.7	n/a	-1.0	2.25	columbia_card_task_fmri	n/a	n/a	-1.0	n/a	n/a	n/a	n/a	n/a	n/a	n/a	n/a	ITI	poldrack-single-stim	s584	False	0
253.962	1.675	255.637	-0.4787002003707604	draw_card	1.675	columbia_card_task_fmri	13.0	0.8333333333333334	89.0	-70.0	0.1666666666666666	6.0	1.0	1.0	-0.4283605669778687	1.675	n/a	stim	poldrack-single-stim	s584	False	1
255.641	0.898	256.539	-3.245366867037428	end_round	0.898	columbia_card_task_fmri	13.0	0.8	71.0	-70.0	0.2	6.0	2.0	1.0	1.839226899551658	0.898	1.0	stim	poldrack-single-stim	s584	False	1
257.295	1.5	256.544	n/a	-1.0	2.454	columbia_card_task_fmri	n/a	n/a	-1.0	n/a	n/a	n/a	n/a	n/a	n/a	n/a	n/a	ITI	poldrack-single-stim	s584	False	0
259.003	1.251	260.254	-0.4787002003707604	end_round	1.251	columbia_card_task_fmri	15.0	0.8333333333333334	71.0	-80.0	0.1666666666666666	6.0	1.0	1.0	4.043518622452229	1.251	0.0	stim	poldrack-single-stim	s584	False	1
261.007	1.5	260.256	n/a	-1.0	2.454	columbia_card_task_fmri	n/a	n/a	-1.0	n/a	n/a	n/a	n/a	n/a	n/a	n/a	n/a	ITI	poldrack-single-stim	s584	False	0
262.714	0.545	263.259	1.1879664662959055	draw_card	0.545	columbia_card_task_fmri	16.0	0.8333333333333334	89.0	-75.0	0.1666666666666666	6.0	1.0	1.0	2.55288470233793	0.545	n/a	stim	poldrack-single-stim	s584	False	1
263.264	1.321	264.585	-1.8453668670374277	draw_card	1.321	columbia_card_task_fmri	16.0	0.8	89.0	-75.0	0.2	6.0	2.0	1.0	5.039060403038977	1.321	n/a	stim	poldrack-single-stim	s584	False	1
264.589	1.224	265.813	-6.395366867037429	draw_card	1.224	columbia_card_task_fmri	16.0	0.75	89.0	-75.0	0.25	6.0	3.0	1.0	8.043084577269202	1.224	n/a	stim	poldrack-single-stim	s584	False	1
265.817	0.895	266.712	-13.97870020037076	end_round	0.895	columbia_card_task_fmri	16.0	0.6666666666666667	71.0	-75.0	0.3333333333333333	6.0	4.0	1.0	11.536610137795936	0.895	3.0	stim	poldrack-single-stim	s584	False	1
267.47	1.5	266.719	n/a	-1.0	2.522	columbia_card_task_fmri	n/a	n/a	-1.0	n/a	n/a	n/a	n/a	n/a	n/a	n/a	n/a	ITI	poldrack-single-stim	s584	False	0
269.244	1.079	270.323	2.354633132962572	draw_card	1.079	columbia_card_task_fmri	21.0	0.75	89.0	-55.0	0.25	8.0	1.0	2.0	1.5482089921537143	1.079	n/a	stim	poldrack-single-stim	s584	False	1
270.328	1.123	271.451	-0.3596525813231418	draw_card	1.123	columbia_card_task_fmri	21.0	0.7142857142857143	89.0	-55.0	0.2857142857142857	8.0	2.0	2.0	2.9724646949787363	1.123	2.0	stim	poldrack-single-stim	s584	False	0
272.207	1.5	271.456	n/a	-1.0	2.454	columbia_card_task_fmri	n/a	n/a	-1.0	n/a	n/a	n/a	n/a	n/a	n/a	n/a	n/a	ITI	poldrack-single-stim	s584	False	0
273.915	0.5	274.415	3.604633132962572	draw_card	0.5	columbia_card_task_fmri	26.0	0.75	89.0	-65.0	0.25	8.0	1.0	2.0	8.043084577269202	0.5	n/a	stim	poldrack-single-stim	s584	False	1
274.42	1.514	275.934	0.3546331329625752	draw_card	1.514	columbia_card_task_fmri	26.0	0.7142857142857143	89.0	-65.0	0.2857142857142857	8.0	2.0	2.0	9.748472087283634	1.514	n/a	stim	poldrack-single-stim	s584	False	1
275.938	1.557	277.495	-3.978700200370757	end_round	1.557	columbia_card_task_fmri	26.0	0.6666666666666667	71.0	-65.0	0.3333333333333333	8.0	3.0	2.0	11.536610137795927	1.557	2.0	stim	poldrack-single-stim	s584	False	1
278.248	1.5	277.497	n/a	-1.0	2.658	columbia_card_task_fmri	n/a	n/a	-1.0	n/a	n/a	n/a	n/a	n/a	n/a	n/a	n/a	ITI	poldrack-single-stim	s584	False	0
280.16	0.47	280.63	-1.3120335337040945	draw_card	0.47	columbia_card_task_fmri	15.0	0.7777777777777778	89.0	-60.0	0.2222222222222222	9.0	1.0	2.0	-0.180172213455581	0.47	n/a	stim	poldrack-single-stim	s584	False	1
280.634	1.549	282.183	-3.395366867037428	draw_card	1.549	columbia_card_task_fmri	15.0	0.75	89.0	-60.0	0.25	9.0	2.0	2.0	1.115221765297182	1.549	2.0	stim	poldrack-single-stim	s584	False	0
282.938	1.5	282.187	n/a	-1.0	2.386	columbia_card_task_fmri	n/a	n/a	-1.0	n/a	n/a	n/a	n/a	n/a	n/a	n/a	n/a	ITI	poldrack-single-stim	s584	False	0
284.577	0.571	285.148	3.054633132962573	draw_card	0.571	columbia_card_task_fmri	13.0	0.9	89.0	-90.0	0.1	10.0	1.0	1.0	-0.4606321326562472	0.571	n/a	stim	poldrack-single-stim	s584	False	1
285.153	1.986	287.139	1.9101886885181272	end_round	1.986	columbia_card_task_fmri	13.0	0.8888888888888888	71.0	-90.0	0.1111111111111111	10.0	2.0	1.0	1.0090525682660534	1.986	1.0	stim	poldrack-single-stim	s584	False	1
287.895	1.5	287.144	n/a	-1.0	2.522	columbia_card_task_fmri	n/a	n/a	-1.0	n/a	n/a	n/a	n/a	n/a	n/a	n/a	n/a	ITI	poldrack-single-stim	s584	False	0
289.672	1.261	290.933	4.354633132962571	end_round	1.261	columbia_card_task_fmri	15.0	0.9	71.0	-95.0	0.1	10.0	1.0	1.0	1.6392383776305657	1.261	0.0	stim	poldrack-single-stim	s584	False	1
291.688	1.5	290.937	n/a	-1.0	2.59	columbia_card_task_fmri	n/a	n/a	-1.0	n/a	n/a	n/a	n/a	n/a	n/a	n/a	n/a	ITI	poldrack-single-stim	s584	False	0
293.532	0.413	293.945	0.1546331329625724	draw_card	0.413	columbia_card_task_fmri	16.0	0.8	89.0	-65.0	0.2	10.0	1.0	2.0	1.039273662020019	0.413	1.0	stim	poldrack-single-stim	s584	False	0
294.704	1.5	293.953	n/a	-1.0	2.386	columbia_card_task_fmri	n/a	n/a	-1.0	n/a	n/a	n/a	n/a	n/a	n/a	n/a	n/a	ITI	poldrack-single-stim	s584	False	0
296.344	0.712	297.056	-1.1453668670374282	end_round	0.712	columbia_card_task_fmri	7.0	0.9166666666666666	71.0	-95.0	0.0833333333333333	12.0	1.0	1.0	-3.169125905565547	0.712	0.0	stim	poldrack-single-stim	s584	False	1
297.81	1.5	297.059	n/a	-1.0	2.59	columbia_card_task_fmri	n/a	n/a	-1.0	n/a	n/a	n/a	n/a	n/a	n/a	n/a	n/a	ITI	poldrack-single-stim	s584	False	0
299.654	0.552	300.206	-0.4787002003707604	draw_card	0.552	columbia_card_task_fmri	14.0	0.8333333333333334	89.0	-75.0	0.1666666666666666	12.0	1.0	2.0	1.8075703734622304	0.552	1.0	stim	poldrack-single-stim	s584	False	0
300.963	1.5	300.212	n/a	-1.0	2.318	columbia_card_task_fmri	n/a	n/a	-1.0	n/a	n/a	n/a	n/a	n/a	n/a	n/a	n/a	ITI	poldrack-single-stim	s584	False	0
302.535	0.525	303.06	1.1879664662959055	draw_card	0.525	columbia_card_task_fmri	15.0	0.8333333333333334	89.0	-70.0	0.1666666666666666	12.0	1.0	2.0	0.316947597101862	0.525	n/a	stim	poldrack-single-stim	s584	False	1
303.063	1.466	304.529	-0.0999123215828851	draw_card	1.466	columbia_card_task_fmri	15.0	0.8181818181818181	89.0	-70.0	0.1818181818181818	12.0	2.0	2.0	1.423292601997009	1.466	n/a	stim	poldrack-single-stim	s584	False	1
304.533	0.986	305.519	-1.6453668670374282	draw_card	0.986	columbia_card_task_fmri	15.0	0.8	89.0	-70.0	0.2	12.0	3.0	2.0	2.6391823374861154	0.986	n/a	stim	poldrack-single-stim	s584	False	1
305.525	1.156	306.681	-3.534255755926317	end_round	1.156	columbia_card_task_fmri	15.0	0.7777777777777778	71.0	-70.0	0.2222222222222222	12.0	4.0	2.0	3.976987642064533	1.156	3.0	stim	poldrack-single-stim	s584	False	1
307.436	1.5	306.685	n/a	-1.0	2.25	columbia_card_task_fmri	n/a	n/a	-1.0	n/a	n/a	n/a	n/a	n/a	n/a	n/a	n/a	ITI	poldrack-single-stim	s584	False	0
308.939	0.795	309.734	-0.8453668670374276	draw_card	0.795	columbia_card_task_fmri	16.0	0.8	89.0	-70.0	0.2	15.0	1.0	3.0	3.039160833635723	0.795	n/a	stim	poldrack-single-stim	s584	False	1
309.738	1.559	311.297	-2.073938295608857	draw_card	1.559	columbia_card_task_fmri	16.0	0.7857142857142857	89.0	-70.0	0.2142857142857142	15.0	2.0	3.0	3.927142521872352	1.559	n/a	stim	poldrack-single-stim	s584	False	1
311.301	1.558	312.859	-3.491520713191275	draw_card	1.558	columbia_card_task_fmri	16.0	0.7692307692307692	89.0	-70.0	0.2307692307692307	15.0	3.0	3.0	4.873022123292483	1.558	n/a	stim	poldrack-single-stim	s584	False	1
312.864	1.983	314.847	-5.145366867037429	draw_card	1.983	columbia_card_task_fmri	16.0	0.75	89.0	-70.0	0.25	15.0	4.0	3.0	5.8781138426454085	1.983	n/a	stim	poldrack-single-stim	s584	False	1
314.85	1.297	316.147	-7.099912321582882	end_round	1.297	columbia_card_task_fmri	16.0	0.7272727272727273	71.0	-70.0	0.2727272727272727	15.0	5.0	3.0	6.94008700261794	1.297	4.0	stim	poldrack-single-stim	s584	False	1
316.905	1.5	316.154	n/a	-1.0	2.454	columbia_card_task_fmri	n/a	n/a	-1.0	n/a	n/a	n/a	n/a	n/a	n/a	n/a	n/a	ITI	poldrack-single-stim	s584	False	0
318.612	1.09	319.702	-0.4578668670374283	draw_card	1.09	columbia_card_task_fmri	14.0	0.8125	89.0	-65.0	0.1875	16.0	1.0	3.0	-0.5259502048447153	1.09	n/a	stim	poldrack-single-stim	s584	False	1
319.708	1.735	321.443	-1.4453668670374271	draw_card	1.735	columbia_card_task_fmri	14.0	0.8	89.0	-65.0	0.2	16.0	2.0	3.0	0.2393227919901015	1.735	2.0	stim	poldrack-single-stim	s584	False	0
322.197	1.5	321.446	n/a	-1.0	3.27	columbia_card_task_fmri	n/a	n/a	-1.0	n/a	n/a	n/a	n/a	n/a	n/a	n/a	n/a	ITI	poldrack-single-stim	s584	False	0
324.723	1.465	326.188	-0.7078668670374283	draw_card	1.465	columbia_card_task_fmri	16.0	0.8125	89.0	-75.0	0.1875	16.0	1.0	3.0	4.157529393576294	1.465	n/a	stim	poldrack-single-stim	s584	False	1
326.192	2.11	328.302	-1.8453668670374277	draw_card	2.11	columbia_card_task_fmri	16.0	0.8	89.0	-75.0	0.2	16.0	2.0	3.0	5.039060403038977	2.11	n/a	stim	poldrack-single-stim	s584	False	1
328.306	1.3	329.606	-3.1453668670374264	end_round	1.3	columbia_card_task_fmri	16.0	0.7857142857142857	71.0	-75.0	0.2142857142857142	16.0	3.0	3.0	5.978674134878144	1.3	2.0	stim	poldrack-single-stim	s584	False	1
330.361	1.5	329.61	n/a	-1.0	2.25	columbia_card_task_fmri	n/a	n/a	-1.0	n/a	n/a	n/a	n/a	n/a	n/a	n/a	n/a	ITI	poldrack-single-stim	s584	False	0
331.865	2.773	334.638	3.554633132962573	draw_card	2.773	columbia_card_task_fmri	16.0	0.8666666666666667	89.0	-80.0	0.1333333333333333	15.0	1.0	2.0	1.2729846500258226	2.773	n/a	stim	poldrack-single-stim	s584	False	1
334.643	1.255	335.898	2.64034741867686	draw_card	1.255	columbia_card_task_fmri	16.0	0.8571428571428572	89.0	-80.0	0.1428571428571428	15.0	2.0	2.0	2.232206929853593	1.255	2.0	stim	poldrack-single-stim	s584	False	0
336.653	1.5	335.902	n/a	-1.0	2.25	columbia_card_task_fmri	n/a	n/a	-1.0	n/a	n/a	n/a	n/a	n/a	n/a	n/a	n/a	ITI	poldrack-single-stim	s584	False	0
338.157	1.63	339.787	4.42129979962924	draw_card	1.63	columbia_card_task_fmri	17.0	0.8666666666666667	89.0	-80.0	0.1333333333333333	15.0	1.0	2.0	1.6128994209301375	1.63	n/a	stim	poldrack-single-stim	s584	False	1
339.792	1.065	340.857	3.4974902758197177	draw_card	1.065	columbia_card_task_fmri	17.0	0.8571428571428572	89.0	-80.0	0.1428571428571428	15.0	2.0	2.0	2.582114739749823	1.065	n/a	stim	poldrack-single-stim	s584	False	1
340.861	0.957	341.818	2.4315562098856485	end_round	0.957	columbia_card_task_fmri	17.0	0.8461538461538461	71.0	-80.0	0.1538461538461538	15.0	3.0	2.0	3.6368472090706767	0.957	2.0	stim	poldrack-single-stim	s584	False	1
342.578	1.5	341.827	n/a	-1.0	2.318	columbia_card_task_fmri	n/a	n/a	-1.0	n/a	n/a	n/a	n/a	n/a	n/a	n/a	n/a	ITI	poldrack-single-stim	s584	False	0
344.15	1.419	345.569	0.3546331329625717	draw_card	1.419	columbia_card_task_fmri	1.0	0.9375	89.0	-15.0	0.0625	16.0	1.0	1.0	-27.47348148892609	1.419	n/a	stim	poldrack-single-stim	s584	False	1
345.574	1.68	347.254	0.287966466295905	draw_card	1.68	columbia_card_task_fmri	1.0	0.9333333333333332	89.0	-15.0	0.0666666666666666	16.0	2.0	1.0	-27.355841223069564	1.68	n/a	stim	poldrack-single-stim	s584	False	1
347.259	1.347	348.606	0.2117759901054289	draw_card	1.347	columbia_card_task_fmri	1.0	0.9285714285714286	89.0	-15.0	0.0714285714285714	16.0	3.0	1.0	-27.2268048491722	1.347	n/a	stim	poldrack-single-stim	s584	False	1
348.611	1.057	349.668	0.1238639021933408	end_round	1.057	columbia_card_task_fmri	1.0	0.9230769230769232	71.0	-15.0	0.0769230769230769	16.0	4.0	1.0	-27.084433876328735	1.057	3.0	stim	poldrack-single-stim	s584	False	1
350.428	1.5	349.677	n/a	-1.0	2.726	columbia_card_task_fmri	n/a	n/a	-1.0	n/a	n/a	n/a	n/a	n/a	n/a	n/a	n/a	ITI	poldrack-single-stim	s584	False	0
352.408	1.831	354.239	3.479633132962572	end_round	1.831	columbia_card_task_fmri	10.0	0.9375	71.0	-100.0	0.0625	16.0	1.0	1.0	-4.7335450705604	1.831	0.0	stim	poldrack-single-stim	s584	False	1
354.997	1.5	354.246	n/a	-1.0	2.386	columbia_card_task_fmri	n/a	n/a	-1.0	n/a	n/a	n/a	n/a	n/a	n/a	n/a	n/a	ITI	poldrack-single-stim	s584	False	0
356.636	1.128	357.764	4.104633132962571	draw_card	1.128	columbia_card_task_fmri	15.0	0.875	89.0	-75.0	0.125	16.0	1.0	2.0	-1.595852270295886	1.128	n/a	stim	poldrack-single-stim	s584	False	1
357.77	1.479	359.249	3.354633132962572	draw_card	1.479	columbia_card_task_fmri	15.0	0.8666666666666667	89.0	-75.0	0.1333333333333333	16.0	2.0	2.0	-0.7664947067357737	1.479	n/a	stim	poldrack-single-stim	s584	False	1
359.252	1.537	360.789	2.497490275819716	end_round	1.537	columbia_card_task_fmri	15.0	0.8571428571428572	71.0	-75.0	0.1428571428571428	16.0	3.0	2.0	0.1327690745590395	1.537	2.0	stim	poldrack-single-stim	s584	False	1
361.545	1.5	360.794	n/a	-1.0	2.318	columbia_card_task_fmri	n/a	n/a	-1.0	n/a	n/a	n/a	n/a	n/a	n/a	n/a	n/a	ITI	poldrack-single-stim	s584	False	0
363.117	0.626	363.743	4.354633132962571	draw_card	0.626	columbia_card_task_fmri	16.0	0.875	89.0	-80.0	0.125	16.0	1.0	2.0	0.3883291857180531	0.626	1.0	stim	poldrack-single-stim	s584	False	0
364.499	1.5	363.748	n/a	-1.0	2.25	columbia_card_task_fmri	n/a	n/a	-1.0	n/a	n/a	n/a	n/a	n/a	n/a	n/a	n/a	ITI	poldrack-single-stim	s584	False	0
366.003	2.183	368.186	1.5421331329625718	draw_card	2.183	columbia_card_task_fmri	4.0	0.6875	89.0	-5.0	0.3125	16.0	1.0	5.0	-27.17600871032329	2.183	n/a	stim	poldrack-single-stim	s584	False	1
368.19	1.319	369.509	1.3546331329625725	draw_card	1.319	columbia_card_task_fmri	4.0	0.6666666666666667	89.0	-5.0	0.3333333333333333	16.0	2.0	5.0	-27.105230697314347	1.319	n/a	stim	poldrack-single-stim	s584	False	1
369.514	1.363	370.877	1.140347418676857	draw_card	1.363	columbia_card_task_fmri	4.0	0.6428571428571428	89.0	-5.0	0.3571428571428571	16.0	3.0	5.0	-27.035693157454567	1.363	n/a	stim	poldrack-single-stim	s584	False	1
370.883	1.296	372.179	0.8930946714241103	draw_card	1.296	columbia_card_task_fmri	4.0	0.6153846153846154	89.0	-5.0	0.3846153846153846	16.0	4.0	5.0	-26.969790780538855	1.296	4.0	stim	poldrack-single-stim	s584	False	0
372.936	1.5	372.185	n/a	-1.0	2.25	columbia_card_task_fmri	n/a	n/a	-1.0	n/a	n/a	n/a	n/a	n/a	n/a	n/a	n/a	ITI	poldrack-single-stim	s584	False	0
374.44	1.616	376.056	-1.3120335337040925	draw_card	1.616	columbia_card_task_fmri	14.0	0.8333333333333334	89.0	-80.0	0.1666666666666666	6.0	1.0	1.0	3.670859519613753	1.616	n/a	stim	poldrack-single-stim	s584	False	1
376.061	0.807	376.868	-4.445366867037428	end_round	0.807	columbia_card_task_fmri	14.0	0.8	71.0	-80.0	0.2	6.0	2.0	1.0	6.239005272695341	0.807	1.0	stim	poldrack-single-stim	s584	False	1
377.627	1.5	376.876	n/a	-1.0	2.454	columbia_card_task_fmri	n/a	n/a	-1.0	n/a	n/a	n/a	n/a	n/a	n/a	n/a	n/a	ITI	poldrack-single-stim	s584	False	0
379.337	0.825	380.162	0.3546331329625717	draw_card	0.825	columbia_card_task_fmri	15.0	0.8333333333333334	89.0	-75.0	0.1666666666666666	6.0	1.0	1.0	2.1802273064549063	0.825	n/a	stim	poldrack-single-stim	s584	False	1
380.167	0.83	380.997	-2.645366867037428	draw_card	0.83	columbia_card_task_fmri	15.0	0.8	89.0	-75.0	0.2	6.0	2.0	1.0	4.639079596507653	0.83	n/a	stim	poldrack-single-stim	s584	False	1
381.002	0.869	381.871	-7.145366867037429	end_round	0.869	columbia_card_task_fmri	15.0	0.75	71.0	-75.0	0.25	6.0	3.0	1.0	7.610089605731044	0.869	2.0	stim	poldrack-single-stim	s584	False	1
382.63	1.5	381.879	n/a	-1.0	2.454	columbia_card_task_fmri	n/a	n/a	-1.0	n/a	n/a	n/a	n/a	n/a	n/a	n/a	n/a	ITI	poldrack-single-stim	s584	False	0
384.34	0.675	385.015	2.02129979962924	draw_card	0.675	columbia_card_task_fmri	16.0	0.8333333333333334	89.0	-70.0	0.1666666666666666	6.0	1.0	1.0	0.6896025132805299	0.675	n/a	stim	poldrack-single-stim	s584	False	1
385.02	0.765	385.785	-0.8453668670374276	draw_card	0.765	columbia_card_task_fmri	16.0	0.8	89.0	-70.0	0.2	6.0	2.0	1.0	3.039160833635723	0.765	2.0	stim	poldrack-single-stim	s584	False	0
386.541	1.5	385.79	n/a	-1.0	2.522	columbia_card_task_fmri	n/a	n/a	-1.0	n/a	n/a	n/a	n/a	n/a	n/a	n/a	n/a	ITI	poldrack-single-stim	s584	False	0
388.318	0.544	388.862	2.604633132962572	draw_card	0.544	columbia_card_task_fmri	23.0	0.75	89.0	-60.0	0.25	8.0	1.0	2.0	4.579136766787197	0.544	n/a	stim	poldrack-single-stim	s584	False	1
388.867	1.328	390.195	-0.35965258132314	draw_card	1.328	columbia_card_task_fmri	23.0	0.7142857142857143	89.0	-60.0	0.2857142857142857	8.0	2.0	2.0	6.134587900451574	1.328	n/a	stim	poldrack-single-stim	s584	False	1
390.2	1.296	391.496	-4.312033533704093	end_round	1.296	columbia_card_task_fmri	23.0	0.6666666666666667	71.0	-60.0	0.3333333333333333	8.0	3.0	2.0	7.765515251539487	1.296	2.0	stim	poldrack-single-stim	s584	False	1
392.251	1.5	391.5	n/a	-1.0	2.386	columbia_card_task_fmri	n/a	n/a	-1.0	n/a	n/a	n/a	n/a	n/a	n/a	n/a	n/a	ITI	poldrack-single-stim	s584	False	0
393.891	1.315	395.206	3.104633132962572	draw_card	1.315	columbia_card_task_fmri	27.0	0.75	89.0	-70.0	0.25	8.0	1.0	2.0	10.6410620831286	1.315	n/a	stim	poldrack-single-stim	s584	False	1
395.211	1.081	396.292	-0.3596525813231436	draw_card	1.081	columbia_card_task_fmri	27.0	0.7142857142857143	89.0	-70.0	0.2857142857142857	8.0	2.0	2.0	12.458901184915977	1.081	2.0	stim	poldrack-single-stim	s584	False	0
397.047	1.5	396.296	n/a	-1.0	2.454	columbia_card_task_fmri	n/a	n/a	-1.0	n/a	n/a	n/a	n/a	n/a	n/a	n/a	n/a	ITI	poldrack-single-stim	s584	False	0
398.756	0.601	399.357	-1.6453668670374264	draw_card	0.601	columbia_card_task_fmri	16.0	0.7777777777777778	89.0	-65.0	0.2222222222222222	9.0	1.0	2.0	2.314116671087671	0.601	1.0	stim	poldrack-single-stim	s584	False	0
400.112	1.5	399.361	n/a	-1.0	2.522	columbia_card_task_fmri	n/a	n/a	-1.0	n/a	n/a	n/a	n/a	n/a	n/a	n/a	n/a	ITI	poldrack-single-stim	s584	False	0
401.889	1.076	402.965	3.554633132962573	end_round	1.076	columbia_card_task_fmri	13.0	0.9	71.0	-85.0	0.1	10.0	1.0	1.0	-1.9605283155439004	1.076	0.0	stim	poldrack-single-stim	s584	False	1
403.721	1.5	402.97	n/a	-1.0	2.522	columbia_card_task_fmri	n/a	n/a	-1.0	n/a	n/a	n/a	n/a	n/a	n/a	n/a	n/a	ITI	poldrack-single-stim	s584	False	0
405.498	1.222	406.72	-1.4453668670374271	draw_card	1.222	columbia_card_task_fmri	14.0	0.8	89.0	-65.0	0.2	10.0	1.0	2.0	0.2393227919901015	1.222	n/a	stim	poldrack-single-stim	s584	False	1
406.726	1.481	408.207	-3.2009224225929818	draw_card	1.481	columbia_card_task_fmri	14.0	0.7777777777777778	89.0	-65.0	0.2222222222222222	10.0	2.0	2.0	1.482684522060662	1.481	n/a	stim	poldrack-single-stim	s584	False	1
408.211	0.93	409.141	-5.395366867037429	end_round	0.93	columbia_card_task_fmri	14.0	0.75	71.0	-65.0	0.25	10.0	3.0	2.0	2.847174542027471	0.93	2.0	stim	poldrack-single-stim	s584	False	1
409.901	1.5	409.15	n/a	-1.0	2.59	columbia_card_task_fmri	n/a	n/a	-1.0	n/a	n/a	n/a	n/a	n/a	n/a	n/a	n/a	ITI	poldrack-single-stim	s584	False	0
411.745	1.169	412.914	-0.0453668670374268	draw_card	1.169	columbia_card_task_fmri	17.0	0.8	89.0	-70.0	0.2	10.0	1.0	2.0	3.439139824087785	1.169	n/a	stim	poldrack-single-stim	s584	False	1
412.919	2.033	414.952	-1.9787002003707603	draw_card	2.033	columbia_card_task_fmri	17.0	0.7777777777777778	89.0	-70.0	0.2222222222222222	10.0	2.0	2.0	4.808426157244295	2.033	n/a	stim	poldrack-single-stim	s584	False	1
414.956	2.242	417.198	-4.395366867037429	draw_card	2.242	columbia_card_task_fmri	17.0	0.75	89.0	-70.0	0.25	10.0	3.0	2.0	6.311107136524303	2.242	n/a	stim	poldrack-single-stim	s584	False	1
417.203	1.277	418.48	-7.502509724180286	end_round	1.277	columbia_card_task_fmri	17.0	0.7142857142857143	71.0	-70.0	0.2857142857142857	10.0	4.0	2.0	7.941526604999222	1.277	3.0	stim	poldrack-single-stim	s584	False	1
419.236	1.5	418.485	n/a	-1.0	2.454	columbia_card_task_fmri	n/a	n/a	-1.0	n/a	n/a	n/a	n/a	n/a	n/a	n/a	n/a	ITI	poldrack-single-stim	s584	False	0
420.945	1.786	422.731	-1.3120335337040945	draw_card	1.786	columbia_card_task_fmri	13.0	0.8333333333333334	89.0	-75.0	0.1666666666666666	12.0	1.0	2.0	1.4349139191384346	1.786	1.0	stim	poldrack-single-stim	s584	False	0
423.488	1.5	422.737	n/a	-1.0	2.318	columbia_card_task_fmri	n/a	n/a	-1.0	n/a	n/a	n/a	n/a	n/a	n/a	n/a	n/a	ITI	poldrack-single-stim	s584	False	0
425.06	1.732	426.792	0.3546331329625735	draw_card	1.732	columbia_card_task_fmri	14.0	0.8333333333333334	89.0	-70.0	0.1666666666666666	12.0	1.0	2.0	-0.055706769603578	1.732	n/a	stim	poldrack-single-stim	s584	False	1
426.798	1.55	428.348	-0.9180941397647034	draw_card	1.55	columbia_card_task_fmri	14.0	0.8181818181818181	89.0	-70.0	0.1818181818181818	12.0	2.0	2.0	1.0376208263041953	1.55	2.0	stim	poldrack-single-stim	s584	False	0
429.103	1.5	428.352	n/a	-1.0	2.25	columbia_card_task_fmri	n/a	n/a	-1.0	n/a	n/a	n/a	n/a	n/a	n/a	n/a	n/a	ITI	poldrack-single-stim	s584	False	0
430.607	0.514	431.121	0.3546331329625735	draw_card	0.514	columbia_card_task_fmri	16.0	0.8333333333333334	89.0	-80.0	0.1666666666666666	12.0	1.0	2.0	4.416178118874139	0.514	1.0	stim	poldrack-single-stim	s584	False	0
431.879	1.5	431.128	n/a	-1.0	2.658	columbia_card_task_fmri	n/a	n/a	-1.0	n/a	n/a	n/a	n/a	n/a	n/a	n/a	n/a	ITI	poldrack-single-stim	s584	False	0
433.792	1.709	435.501	0.1546331329625724	draw_card	1.709	columbia_card_task_fmri	16.0	0.8	89.0	-65.0	0.2	15.0	1.0	3.0	1.039273662020019	1.709	n/a	stim	poldrack-single-stim	s584	False	1
435.506	1.437	436.943	-1.002509724180284	draw_card	1.437	columbia_card_task_fmri	16.0	0.7857142857142857	89.0	-65.0	0.2142857142857142	15.0	2.0	3.0	1.8756229947584409	1.437	n/a	stim	poldrack-single-stim	s584	False	1
436.948	1.389	438.337	-2.3376745593451216	draw_card	1.389	columbia_card_task_fmri	16.0	0.7692307692307692	89.0	-65.0	0.2307692307692307	15.0	3.0	3.0	2.766504020676276	1.389	n/a	stim	poldrack-single-stim	s584	False	1
438.344	1.416	439.76	-3.895366867037428	draw_card	1.416	columbia_card_task_fmri	16.0	0.75	89.0	-65.0	0.25	15.0	4.0	3.0	3.713154560876287	1.416	n/a	stim	poldrack-single-stim	s584	False	1
439.765	1.386	441.151	-5.736275957946519	end_round	1.386	columbia_card_task_fmri	16.0	0.7272727272727273	71.0	-65.0	0.2727272727272727	15.0	5.0	3.0	4.713379483591186	1.386	4.0	stim	poldrack-single-stim	s584	False	1
441.907	1.5	441.156	n/a	-1.0	2.454	columbia_card_task_fmri	n/a	n/a	-1.0	n/a	n/a	n/a	n/a	n/a	n/a	n/a	n/a	ITI	poldrack-single-stim	s584	False	0
443.616	2.065	445.681	-1.5203668670374282	draw_card	2.065	columbia_card_task_fmri	15.0	0.8125	89.0	-75.0	0.1875	16.0	1.0	3.0	3.767236688459345	2.065	n/a	stim	poldrack-single-stim	s584	False	1
445.686	1.311	446.997	-2.645366867037428	draw_card	1.311	columbia_card_task_fmri	15.0	0.8	89.0	-75.0	0.2	16.0	2.0	3.0	4.639079596507653	1.311	n/a	stim	poldrack-single-stim	s584	False	1
447.004	1.438	448.442	-3.931081152751713	end_round	1.438	columbia_card_task_fmri	15.0	0.7857142857142857	71.0	-75.0	0.2142857142857142	16.0	3.0	3.0	5.568366942083525	1.438	2.0	stim	poldrack-single-stim	s584	False	1
449.198	1.5	448.447	n/a	-1.0	2.386	columbia_card_task_fmri	n/a	n/a	-1.0	n/a	n/a	n/a	n/a	n/a	n/a	n/a	n/a	ITI	poldrack-single-stim	s584	False	0
450.841	2.234	453.075	-0.9578668670374284	draw_card	2.234	columbia_card_task_fmri	14.0	0.6875	89.0	-35.0	0.3125	16.0	1.0	5.0	-8.647790724593076	2.234	n/a	stim	poldrack-single-stim	s584	False	1
453.08	1.578	454.658	-1.9787002003707603	draw_card	1.578	columbia_card_task_fmri	14.0	0.6666666666666667	89.0	-35.0	0.3333333333333333	16.0	2.0	5.0	-8.26112341648438	1.578	n/a	stim	poldrack-single-stim	s584	False	1
454.664	1.233	455.897	-3.145366867037428	draw_card	1.233	columbia_card_task_fmri	14.0	0.6428571428571428	89.0	-35.0	0.3571428571428571	16.0	3.0	5.0	-7.881275211708374	1.233	n/a	stim	poldrack-single-stim	s584	False	1
455.902	1.351	457.253	-4.4915207131912736	draw_card	1.351	columbia_card_task_fmri	14.0	0.6153846153846154	89.0	-35.0	0.3846153846153846	16.0	4.0	5.0	-7.521320898797963	1.351	n/a	stim	poldrack-single-stim	s584	False	1
457.257	1.794	459.051	-6.0620335337040965	end_round	1.794	columbia_card_task_fmri	14.0	0.5833333333333333	71.0	-35.0	0.4166666666666667	16.0	5.0	5.0	-7.202738418180516	1.794	4.0	stim	poldrack-single-stim	s584	False	1
459.807	1.5	459.056	n/a	-1.0	2.59	columbia_card_task_fmri	n/a	n/a	-1.0	n/a	n/a	n/a	n/a	n/a	n/a	n/a	n/a	ITI	poldrack-single-stim	s584	False	0
461.652	1.564	463.216	4.221299799629239	draw_card	1.564	columbia_card_task_fmri	16.0	0.8666666666666667	89.0	-75.0	0.1333333333333333	15.0	1.0	2.0	-0.4265826567644168	1.564	n/a	stim	poldrack-single-stim	s584	False	1
463.222	1.872	465.094	3.3546331329625736	draw_card	1.872	columbia_card_task_fmri	16.0	0.8571428571428572	89.0	-75.0	0.1428571428571428	15.0	2.0	2.0	0.4826742411930347	1.872	2.0	stim	poldrack-single-stim	s584	False	0
465.851	1.5	465.1	n/a	-1.0	2.318	columbia_card_task_fmri	n/a	n/a	-1.0	n/a	n/a	n/a	n/a	n/a	n/a	n/a	n/a	ITI	poldrack-single-stim	s584	False	0
467.424	0.38	467.804	4.887966466295905	draw_card	0.38	columbia_card_task_fmri	16.0	0.8666666666666667	89.0	-70.0	0.1333333333333333	15.0	1.0	2.0	-2.126137655026195	0.38	n/a	stim	poldrack-single-stim	s584	False	1
467.808	1.407	469.215	4.068918847248287	draw_card	1.407	columbia_card_task_fmri	16.0	0.8571428571428572	89.0	-70.0	0.1428571428571428	15.0	2.0	2.0	-1.2668464902864898	1.407	n/a	stim	poldrack-single-stim	s584	False	1
469.219	0.823	470.042	3.12386390219334	end_round	0.823	columbia_card_task_fmri	16.0	0.8461538461538461	71.0	-70.0	0.1538461538461538	15.0	3.0	2.0	-0.3317363287009378	0.823	2.0	stim	poldrack-single-stim	s584	False	1
470.8	1.5	470.049	n/a	-1.0	2.59	columbia_card_task_fmri	n/a	n/a	-1.0	n/a	n/a	n/a	n/a	n/a	n/a	n/a	n/a	ITI	poldrack-single-stim	s584	False	0
472.646	1.351	473.997	2.229633132962572	end_round	1.351	columbia_card_task_fmri	8.0	0.9375	71.0	-90.0	0.0625	16.0	1.0	1.0	-7.637993445444067	1.351	0.0	stim	poldrack-single-stim	s584	False	1
474.754	1.5	474.003	n/a	-1.0	2.386	columbia_card_task_fmri	n/a	n/a	-1.0	n/a	n/a	n/a	n/a	n/a	n/a	n/a	n/a	ITI	poldrack-single-stim	s584	False	0
476.395	1.066	477.461	3.792133132962572	draw_card	1.066	columbia_card_task_fmri	10.0	0.9375	89.0	-95.0	0.0625	16.0	1.0	1.0	-5.943739923767392	1.066	n/a	stim	poldrack-single-stim	s584	False	1
477.467	1.012	478.479	3.3546331329625727	end_round	1.012	columbia_card_task_fmri	10.0	0.9333333333333332	71.0	-95.0	0.0666666666666666	16.0	2.0	1.0	-5.168664636606724	1.012	1.0	stim	poldrack-single-stim	s584	False	1
479.238	1.5	478.487	n/a	-1.0	2.318	columbia_card_task_fmri	n/a	n/a	-1.0	n/a	n/a	n/a	n/a	n/a	n/a	n/a	n/a	ITI	poldrack-single-stim	s584	False	0
480.811	1.138	481.949	4.729633132962571	draw_card	1.138	columbia_card_task_fmri	15.0	0.875	89.0	-70.0	0.125	16.0	1.0	2.0	-3.249322580340504	1.138	n/a	stim	poldrack-single-stim	s584	False	1
481.955	1.015	482.97	4.021299799629237	draw_card	1.015	columbia_card_task_fmri	15.0	0.8666666666666667	89.0	-70.0	0.1333333333333333	16.0	2.0	2.0	-2.466046986538341	1.015	n/a	stim	poldrack-single-stim	s584	False	1
482.976	1.545	484.521	3.211775990105429	end_round	1.545	columbia_card_task_fmri	15.0	0.8571428571428572	71.0	-70.0	0.1428571428571428	16.0	3.0	2.0	-1.6167490160578095	1.545	2.0	stim	poldrack-single-stim	s584	False	1
485.281	1.5	484.53	n/a	-1.0	2.318	columbia_card_task_fmri	n/a	n/a	-1.0	n/a	n/a	n/a	n/a	n/a	n/a	n/a	n/a	ITI	poldrack-single-stim	s584	False	0
486.855	0.877	487.732	3.729633132962572	draw_card	0.877	columbia_card_task_fmri	16.0	0.875	89.0	-85.0	0.125	16.0	1.0	2.0	2.0418257139989286	0.877	n/a	stim	poldrack-single-stim	s584	False	1
487.737	1.766	489.503	2.887966466295905	draw_card	1.766	columbia_card_task_fmri	16.0	0.8666666666666667	89.0	-85.0	0.1333333333333333	16.0	2.0	2.0	2.972562437556636	1.766	n/a	stim	poldrack-single-stim	s584	False	1
489.508	1.246	490.754	1.9260617043911448	draw_card	1.246	columbia_card_task_fmri	16.0	0.8571428571428572	89.0	-85.0	0.1428571428571428	16.0	3.0	2.0	3.981749800070052	1.246	n/a	stim	poldrack-single-stim	s584	False	1
490.761	1.087	491.848	0.8161715945010316	end_round	1.087	columbia_card_task_fmri	16.0	0.8461538461538461	71.0	-85.0	0.1538461538461538	16.0	4.0	2.0	5.079980904892363	1.087	3.0	stim	poldrack-single-stim	s584	False	1
492.604	1.5	491.853	n/a	-1.0	2.318	columbia_card_task_fmri	n/a	n/a	-1.0	n/a	n/a	n/a	n/a	n/a	n/a	n/a	n/a	ITI	poldrack-single-stim	s584	False	0
