onset	duration	movement_onset	EV	action	block_duration	experiment_exp_id	gain_amount	gain_probability	key_press	loss_amount	loss_probability	num_cards	num_click_in_round	num_loss_cards	risk	response_time	total_cards	trial_id	trial_type	worker_id	junk	feedback
3.009	2.83	5.839	-1.9520257331052784	draw_card	2.83	columbia_card_task_fmri	12.0	0.8333333333333334	89.0	-70.0	0.1666666666666666	6.0	1.0	1.0	-0.1051731660184778	2.83	n/a	stim	poldrack-single-stim	s585	False	1
5.843	1.155	6.998	-4.685359066438611	draw_card	1.155	columbia_card_task_fmri	12.0	0.8	89.0	-70.0	0.2	6.0	2.0	1.0	2.135140143493832	1.155	2.0	stim	poldrack-single-stim	s585	False	0
7.753	1.5	7.002	n/a	-1.0	2.25	columbia_card_task_fmri	n/a	n/a	-1.0	n/a	n/a	n/a	n/a	n/a	n/a	n/a	n/a	ITI	poldrack-single-stim	s585	False	0
9.256	0.864	10.12	-1.1186923997719445	draw_card	0.864	columbia_card_task_fmri	14.0	0.8333333333333334	89.0	-75.0	0.1666666666666666	6.0	1.0	1.0	2.503468025519897	0.864	n/a	stim	poldrack-single-stim	s585	False	1
10.122	0.743	10.865	-4.085359066438612	draw_card	0.743	columbia_card_task_fmri	14.0	0.8	89.0	-75.0	0.2	6.0	2.0	1.0	4.935042517654591	0.743	n/a	stim	poldrack-single-stim	s585	False	1
10.867	0.862	11.729	-8.535359066438613	draw_card	0.862	columbia_card_task_fmri	14.0	0.75	89.0	-75.0	0.25	6.0	3.0	1.0	7.87308579651555	0.862	n/a	stim	poldrack-single-stim	s585	False	1
11.731	0.844	12.575	-15.95202573310528	end_round	0.844	columbia_card_task_fmri	14.0	0.6666666666666667	71.0	-75.0	0.3333333333333333	6.0	4.0	1.0	11.289871640329938	0.844	3.0	stim	poldrack-single-stim	s585	False	1
13.327	1.5	12.576	n/a	-1.0	2.386	columbia_card_task_fmri	n/a	n/a	-1.0	n/a	n/a	n/a	n/a	n/a	n/a	n/a	n/a	ITI	poldrack-single-stim	s585	False	0
14.965	0.746	15.711	0.5479742668947216	draw_card	0.746	columbia_card_task_fmri	15.0	0.8333333333333334	89.0	-70.0	0.1666666666666666	6.0	1.0	1.0	1.012813802942965	0.746	n/a	stim	poldrack-single-stim	s585	False	1
15.714	0.951	16.665	-2.285359066438612	draw_card	0.951	columbia_card_task_fmri	15.0	0.8	89.0	-70.0	0.2	6.0	2.0	1.0	3.335096335027675	0.951	n/a	stim	poldrack-single-stim	s585	False	1
16.667	0.993	17.66	-6.5353590664386125	end_round	0.993	columbia_card_task_fmri	15.0	0.75	71.0	-70.0	0.25	6.0	3.0	1.0	6.141084703674554	0.993	2.0	stim	poldrack-single-stim	s585	False	1
18.416	1.5	17.665	n/a	-1.0	2.59	columbia_card_task_fmri	n/a	n/a	-1.0	n/a	n/a	n/a	n/a	n/a	n/a	n/a	n/a	ITI	poldrack-single-stim	s585	False	0
20.258	0.698	20.956	1.3813076002280555	draw_card	0.698	columbia_card_task_fmri	17.0	0.8333333333333334	89.0	-75.0	0.1666666666666666	6.0	1.0	1.0	3.62146198849997	0.698	n/a	stim	poldrack-single-stim	s585	False	1
20.957	0.761	21.718	-1.6853590664386109	draw_card	0.761	columbia_card_task_fmri	17.0	0.8	89.0	-75.0	0.2	6.0	2.0	1.0	6.135005225581022	0.761	2.0	stim	poldrack-single-stim	s585	False	0
22.476	1.5	21.725	n/a	-1.0	2.658	columbia_card_task_fmri	n/a	n/a	-1.0	n/a	n/a	n/a	n/a	n/a	n/a	n/a	n/a	ITI	poldrack-single-stim	s585	False	0
24.385	0.459	24.844	2.714640933561388	draw_card	0.459	columbia_card_task_fmri	24.0	0.75	89.0	-60.0	0.25	8.0	1.0	2.0	5.708085170233435	0.459	n/a	stim	poldrack-single-stim	s585	False	1
24.845	0.873	25.718	-0.2853590664386122	draw_card	0.873	columbia_card_task_fmri	24.0	0.7142857142857143	89.0	-60.0	0.2857142857142857	8.0	2.0	2.0	7.282303697736598	0.873	n/a	stim	poldrack-single-stim	s585	False	1
25.719	1.286	27.005	-4.2853590664386125	draw_card	1.286	columbia_card_task_fmri	24.0	0.6666666666666667	89.0	-60.0	0.3333333333333333	8.0	3.0	2.0	8.932906798656628	1.286	3.0	stim	poldrack-single-stim	s585	False	0
27.757	1.5	27.006	n/a	-1.0	2.386	columbia_card_task_fmri	n/a	n/a	-1.0	n/a	n/a	n/a	n/a	n/a	n/a	n/a	n/a	ITI	poldrack-single-stim	s585	False	0
29.395	1.023	30.418	2.714640933561388	draw_card	1.023	columbia_card_task_fmri	29.0	0.75	89.0	-75.0	0.25	8.0	1.0	2.0	14.36812395287846	1.023	1.0	stim	poldrack-single-stim	s585	False	0
31.171	1.5	30.42	n/a	-1.0	2.386	columbia_card_task_fmri	n/a	n/a	-1.0	n/a	n/a	n/a	n/a	n/a	n/a	n/a	n/a	ITI	poldrack-single-stim	s585	False	0
32.809	1.64	34.449	-1.507581288660832	end_round	1.64	columbia_card_task_fmri	17.0	0.7777777777777778	71.0	-65.0	0.2222222222222222	9.0	1.0	2.0	3.425749341337013	1.64	0.0	stim	poldrack-single-stim	s585	False	1
35.202	1.5	34.451	n/a	-1.0	2.25	columbia_card_task_fmri	n/a	n/a	-1.0	n/a	n/a	n/a	n/a	n/a	n/a	n/a	n/a	ITI	poldrack-single-stim	s585	False	0
36.704	0.693	37.397	2.814640933561388	draw_card	0.693	columbia_card_task_fmri	14.0	0.9	89.0	-95.0	0.1	10.0	1.0	1.0	2.0351439393262574	0.693	n/a	stim	poldrack-single-stim	s585	False	1
37.4	1.41	38.81	1.6035298224502752	draw_card	1.41	columbia_card_task_fmri	14.0	0.8888888888888888	89.0	-95.0	0.1111111111111111	10.0	2.0	1.0	3.5904825848958986	1.41	n/a	stim	poldrack-single-stim	s585	False	1
38.812	0.598	39.41	0.0896409335613877	draw_card	0.598	columbia_card_task_fmri	14.0	0.875	89.0	-95.0	0.125	10.0	3.0	1.0	5.383389906783936	0.598	n/a	stim	poldrack-single-stim	s585	False	1
39.412	0.779	40.191	-1.8567876378671837	end_round	0.779	columbia_card_task_fmri	14.0	0.8571428571428572	71.0	-95.0	0.1428571428571428	10.0	4.0	1.0	7.477020864615898	0.779	3.0	stim	poldrack-single-stim	s585	False	1
40.945	1.5	40.194	n/a	-1.0	2.318	columbia_card_task_fmri	n/a	n/a	-1.0	n/a	n/a	n/a	n/a	n/a	n/a	n/a	n/a	ITI	poldrack-single-stim	s585	False	0
42.515	2.791	45.306	-1.2853590664386123	draw_card	2.791	columbia_card_task_fmri	15.0	0.8	89.0	-65.0	0.2	10.0	1.0	2.0	1.3351711743848576	2.791	1.0	stim	poldrack-single-stim	s585	False	0
46.059	1.5	45.308	n/a	-1.0	2.25	columbia_card_task_fmri	n/a	n/a	-1.0	n/a	n/a	n/a	n/a	n/a	n/a	n/a	n/a	ITI	poldrack-single-stim	s585	False	0
47.561	1.072	48.633	0.3146409335613891	draw_card	1.072	columbia_card_task_fmri	17.0	0.8	89.0	-65.0	0.2	10.0	1.0	2.0	2.135140143493832	1.072	n/a	stim	poldrack-single-stim	s585	False	1
48.635	1.592	50.227	-1.507581288660832	draw_card	1.592	columbia_card_task_fmri	17.0	0.7777777777777778	89.0	-65.0	0.2222222222222222	10.0	2.0	2.0	3.425749341337013	1.592	n/a	stim	poldrack-single-stim	s585	False	1
50.229	0.583	50.812	-3.785359066438612	end_round	0.583	columbia_card_task_fmri	17.0	0.75	71.0	-65.0	0.25	10.0	3.0	2.0	4.842087066850635	0.583	2.0	stim	poldrack-single-stim	s585	False	1
51.564	1.5	50.813	n/a	-1.0	2.25	columbia_card_task_fmri	n/a	n/a	-1.0	n/a	n/a	n/a	n/a	n/a	n/a	n/a	n/a	ITI	poldrack-single-stim	s585	False	0
53.065	0.683	53.748	-1.1186923997719445	draw_card	0.683	columbia_card_task_fmri	13.0	0.8333333333333334	89.0	-70.0	0.1666666666666666	12.0	1.0	2.0	0.2674887793236991	0.683	n/a	stim	poldrack-single-stim	s585	False	1
53.75	2.395	56.145	-2.3762681573477056	end_round	2.395	columbia_card_task_fmri	13.0	0.8181818181818181	71.0	-70.0	0.1818181818181818	12.0	2.0	2.0	1.3478231288984297	2.395	1.0	stim	poldrack-single-stim	s585	False	1
56.9	1.5	56.149	n/a	-1.0	2.386	columbia_card_task_fmri	n/a	n/a	-1.0	n/a	n/a	n/a	n/a	n/a	n/a	n/a	n/a	ITI	poldrack-single-stim	s585	False	0
58.539	0.43	58.969	-1.1186923997719445	draw_card	0.43	columbia_card_task_fmri	15.0	0.8333333333333334	89.0	-80.0	0.1666666666666666	12.0	1.0	2.0	4.739458479296122	0.43	n/a	stim	poldrack-single-stim	s585	False	1
58.97	1.537	60.507	-2.5580863391658872	draw_card	1.537	columbia_card_task_fmri	15.0	0.8181818181818181	89.0	-80.0	0.1818181818181818	12.0	2.0	2.0	5.975997779169017	1.537	n/a	stim	poldrack-single-stim	s585	False	1
60.51	0.78	61.29	-4.2853590664386125	end_round	0.78	columbia_card_task_fmri	15.0	0.8	71.0	-80.0	0.2	12.0	3.0	2.0	7.334970288693373	0.78	2.0	stim	poldrack-single-stim	s585	False	1
62.046	1.5	61.295	n/a	-1.0	2.386	columbia_card_task_fmri	n/a	n/a	-1.0	n/a	n/a	n/a	n/a	n/a	n/a	n/a	n/a	ITI	poldrack-single-stim	s585	False	0
63.684	1.248	64.932	-2.085359066438611	draw_card	1.248	columbia_card_task_fmri	14.0	0.8	89.0	-65.0	0.2	15.0	1.0	3.0	0.935187278989055	1.248	n/a	stim	poldrack-single-stim	s585	False	1
64.935	1.17	66.105	-3.213930495010039	draw_card	1.17	columbia_card_task_fmri	14.0	0.7857142857142857	89.0	-65.0	0.2142857142857142	15.0	2.0	3.0	1.7509012196193616	1.17	n/a	stim	poldrack-single-stim	s585	False	1
66.107	0.926	67.033	-4.516128297207844	draw_card	0.926	columbia_card_task_fmri	14.0	0.7692307692307692	89.0	-65.0	0.2307692307692307	15.0	3.0	3.0	2.6198005636089654	0.926	n/a	stim	poldrack-single-stim	s585	False	1
67.035	0.551	67.586	-6.0353590664386125	end_round	0.551	columbia_card_task_fmri	14.0	0.75	71.0	-65.0	0.25	15.0	4.0	3.0	3.543092503455778	0.551	3.0	stim	poldrack-single-stim	s585	False	1
68.341	1.5	67.59	n/a	-1.0	2.726	columbia_card_task_fmri	n/a	n/a	-1.0	n/a	n/a	n/a	n/a	n/a	n/a	n/a	n/a	ITI	poldrack-single-stim	s585	False	0
70.319	0.847	71.166	-2.160359066438612	draw_card	0.847	columbia_card_task_fmri	1.0	0.9375	89.0	-45.0	0.0625	16.0	1.0	1.0	-19.52761808453749	0.847	n/a	stim	poldrack-single-stim	s585	False	1
71.168	1.779	72.947	-2.3520257331052785	draw_card	1.779	columbia_card_task_fmri	1.0	0.9333333333333332	89.0	-45.0	0.0666666666666666	16.0	2.0	1.0	-19.18813738337318	1.779	n/a	stim	poldrack-single-stim	s585	False	1
72.95	0.911	73.861	-2.5710733521528977	draw_card	0.911	columbia_card_task_fmri	1.0	0.9285714285714286	89.0	-45.0	0.0714285714285714	16.0	3.0	1.0	-18.81585352439891	0.911	n/a	stim	poldrack-single-stim	s585	False	1
73.864	0.773	74.637	-2.8238206049001504	draw_card	0.773	columbia_card_task_fmri	1.0	0.9230769230769232	89.0	-45.0	0.0769230769230769	16.0	4.0	1.0	-18.405189653292663	0.773	n/a	stim	poldrack-single-stim	s585	False	1
74.639	0.785	75.424	-3.1186923997719456	draw_card	0.785	columbia_card_task_fmri	1.0	0.9166666666666666	89.0	-45.0	0.0833333333333333	16.0	5.0	1.0	-17.949170745329916	0.785	n/a	stim	poldrack-single-stim	s585	False	1
75.427	0.98	76.407	-3.4671772482567937	draw_card	0.98	columbia_card_task_fmri	1.0	0.9090909090909092	89.0	-45.0	0.0909090909090909	16.0	6.0	1.0	-17.438952436256955	0.98	n/a	stim	poldrack-single-stim	s585	False	1
76.41	0.877	77.287	-3.885359066438612	end_round	0.877	columbia_card_task_fmri	1.0	0.9	71.0	-45.0	0.1	16.0	7.0	1.0	-16.86315110125656	0.877	6.0	stim	poldrack-single-stim	s585	False	1
78.042	1.5	77.291	n/a	-1.0	2.454	columbia_card_task_fmri	n/a	n/a	-1.0	n/a	n/a	n/a	n/a	n/a	n/a	n/a	n/a	ITI	poldrack-single-stim	s585	False	0
79.749	3.306	83.055	-1.2228590664386123	draw_card	3.306	columbia_card_task_fmri	15.0	0.8125	89.0	-70.0	0.1875	16.0	1.0	3.0	2.511677922006317	3.306	1.0	stim	poldrack-single-stim	s585	False	0
83.811	1.5	83.06	n/a	-1.0	2.318	columbia_card_task_fmri	n/a	n/a	-1.0	n/a	n/a	n/a	n/a	n/a	n/a	n/a	n/a	ITI	poldrack-single-stim	s585	False	0
85.38	0.772	86.152	5.714640933561388	draw_card	0.772	columbia_card_task_fmri	30.0	0.7	89.0	-50.0	0.3	10.0	1.0	3.0	5.995614991832365	0.772	n/a	stim	poldrack-single-stim	s585	False	1
86.155	1.792	87.947	3.047974266894727	end_round	1.792	columbia_card_task_fmri	30.0	0.6666666666666667	71.0	-50.0	0.3333333333333333	10.0	2.0	3.0	7.047340123711191	1.792	1.0	stim	poldrack-single-stim	s585	False	1
88.701	1.5	87.95	n/a	-1.0	2.318	columbia_card_task_fmri	n/a	n/a	-1.0	n/a	n/a	n/a	n/a	n/a	n/a	n/a	n/a	ITI	poldrack-single-stim	s585	False	0
90.272	2.139	92.411	5.114640933561388	draw_card	2.139	columbia_card_task_fmri	17.0	0.8666666666666667	89.0	-70.0	0.1333333333333333	15.0	1.0	2.0	-1.0904112960798038	2.139	1.0	stim	poldrack-single-stim	s585	False	0
93.166	1.5	92.415	n/a	-1.0	2.59	columbia_card_task_fmri	n/a	n/a	-1.0	n/a	n/a	n/a	n/a	n/a	n/a	n/a	n/a	ITI	poldrack-single-stim	s585	False	0
95.008	0.688	95.696	0.3396409335613877	draw_card	0.688	columbia_card_task_fmri	7.0	0.9375	89.0	-95.0	0.0625	16.0	1.0	1.0	-5.974183337761112	0.688	n/a	stim	poldrack-single-stim	s585	False	1
95.699	1.195	96.894	-0.085359066438612	draw_card	1.195	columbia_card_task_fmri	7.0	0.9333333333333332	89.0	-95.0	0.0666666666666666	16.0	2.0	1.0	-5.221230738459898	1.195	n/a	stim	poldrack-single-stim	s585	False	1
96.897	0.632	97.529	-0.5710733521528979	draw_card	0.632	columbia_card_task_fmri	7.0	0.9285714285714286	89.0	-95.0	0.0714285714285714	16.0	3.0	1.0	-4.395534830164063	0.632	n/a	stim	poldrack-single-stim	s585	False	1
97.532	1.868	99.4	-1.131512912592459	draw_card	1.868	columbia_card_task_fmri	7.0	0.9230769230769232	89.0	-95.0	0.0769230769230769	16.0	4.0	1.0	-3.484728991445113	1.868	n/a	stim	poldrack-single-stim	s585	False	1
99.403	0.501	99.904	-1.7853590664386123	end_round	0.501	columbia_card_task_fmri	7.0	0.9166666666666666	71.0	-95.0	0.0833333333333333	16.0	5.0	1.0	-2.473346224131209	0.501	4.0	stim	poldrack-single-stim	s585	False	1
100.657	1.5	99.906	n/a	-1.0	2.726	columbia_card_task_fmri	n/a	n/a	-1.0	n/a	n/a	n/a	n/a	n/a	n/a	n/a	n/a	ITI	poldrack-single-stim	s585	False	0
102.636	2.114	104.75	1.902140933561388	draw_card	2.114	columbia_card_task_fmri	9.0	0.9375	89.0	-100.0	0.0625	16.0	1.0	1.0	-4.279859014614214	2.114	n/a	stim	poldrack-single-stim	s585	False	1
104.752	0.724	105.476	1.447974266894721	draw_card	0.724	columbia_card_task_fmri	9.0	0.9333333333333332	89.0	-100.0	0.0666666666666666	16.0	2.0	1.0	-3.4752267154754577	0.724	n/a	stim	poldrack-single-stim	s585	False	1
105.478	0.83	106.308	0.928926647847103	draw_card	0.83	columbia_card_task_fmri	9.0	0.9285714285714286	89.0	-100.0	0.0714285714285714	16.0	3.0	1.0	-2.59285872038377	0.83	n/a	stim	poldrack-single-stim	s585	False	1
106.311	0.593	106.904	0.3300255489460036	end_round	0.593	columbia_card_task_fmri	9.0	0.9230769230769232	71.0	-100.0	0.0769230769230769	16.0	4.0	1.0	-1.6195396994463032	0.593	3.0	stim	poldrack-single-stim	s585	False	1
107.661	1.5	106.91	n/a	-1.0	2.522	columbia_card_task_fmri	n/a	n/a	-1.0	n/a	n/a	n/a	n/a	n/a	n/a	n/a	n/a	ITI	poldrack-single-stim	s585	False	0
109.434	1.599	111.033	2.839640933561388	draw_card	1.599	columbia_card_task_fmri	15.0	0.875	89.0	-80.0	0.125	16.0	1.0	2.0	0.7534915489649165	1.599	n/a	stim	poldrack-single-stim	s585	False	1
111.036	0.681	111.717	2.047974266894722	draw_card	0.681	columbia_card_task_fmri	15.0	0.8666666666666667	89.0	-80.0	0.1333333333333333	16.0	2.0	2.0	1.6289498528034765	0.681	n/a	stim	poldrack-single-stim	s585	False	1
111.718	1.156	112.874	1.1432123621328183	draw_card	1.156	columbia_card_task_fmri	15.0	0.8571428571428572	89.0	-80.0	0.1428571428571428	16.0	3.0	2.0	2.578198680473168	1.156	3.0	stim	poldrack-single-stim	s585	False	0
113.628	1.5	112.877	n/a	-1.0	3.134	columbia_card_task_fmri	n/a	n/a	-1.0	n/a	n/a	n/a	n/a	n/a	n/a	n/a	n/a	ITI	poldrack-single-stim	s585	False	0
116.014	0.599	116.613	4.964640933561388	draw_card	0.599	columbia_card_task_fmri	16.0	0.875	89.0	-70.0	0.125	16.0	1.0	2.0	-2.2228430680808344	0.599	n/a	stim	poldrack-single-stim	s585	False	1
116.615	1.185	117.8	4.247974266894721	draw_card	1.185	columbia_card_task_fmri	16.0	0.8666666666666667	89.0	-70.0	0.1333333333333333	16.0	2.0	2.0	-1.4303299233335522	1.185	n/a	stim	poldrack-single-stim	s585	False	1
117.802	3.804	121.606	3.428926647847103	draw_card	3.804	columbia_card_task_fmri	16.0	0.8571428571428572	89.0	-70.0	0.1428571428571428	16.0	3.0	2.0	-0.5710171094800423	3.804	n/a	stim	poldrack-single-stim	s585	False	1
121.608	0.572	122.18	2.483871702792156	end_round	0.572	columbia_card_task_fmri	16.0	0.8461538461538461	71.0	-70.0	0.1538461538461538	16.0	4.0	2.0	0.364115249020557	0.572	3.0	stim	poldrack-single-stim	s585	False	1
122.933	1.5	122.182	n/a	-1.0	2.386	columbia_card_task_fmri	n/a	n/a	-1.0	n/a	n/a	n/a	n/a	n/a	n/a	n/a	n/a	ITI	poldrack-single-stim	s585	False	0
124.572	0.54	125.112	6.277140933561388	draw_card	0.54	columbia_card_task_fmri	30.0	0.6875	89.0	-45.0	0.3125	16.0	1.0	5.0	4.098500446735603	0.54	n/a	stim	poldrack-single-stim	s585	False	1
125.115	1.967	127.082	4.714640933561391	end_round	1.967	columbia_card_task_fmri	30.0	0.6666666666666667	71.0	-45.0	0.3333333333333333	16.0	2.0	5.0	4.690389490906771	1.967	1.0	stim	poldrack-single-stim	s585	False	1
127.84	1.5	127.089	n/a	-1.0	2.386	columbia_card_task_fmri	n/a	n/a	-1.0	n/a	n/a	n/a	n/a	n/a	n/a	n/a	n/a	ITI	poldrack-single-stim	s585	False	0
129.478	1.824	131.302	-1.9520257331052784	draw_card	1.824	columbia_card_task_fmri	13.0	0.8333333333333334	89.0	-75.0	0.1666666666666666	6.0	1.0	1.0	2.1308039776104657	1.824	1.0	stim	poldrack-single-stim	s585	False	0
132.058	1.5	131.307	n/a	-1.0	2.318	columbia_card_task_fmri	n/a	n/a	-1.0	n/a	n/a	n/a	n/a	n/a	n/a	n/a	n/a	ITI	poldrack-single-stim	s585	False	0
133.629	1.88	135.509	-0.2853590664386105	draw_card	1.88	columbia_card_task_fmri	14.0	0.8333333333333334	89.0	-70.0	0.1666666666666666	6.0	1.0	1.0	0.6401511068062433	1.88	1.0	stim	poldrack-single-stim	s585	False	0
136.266	1.5	135.515	n/a	-1.0	2.318	columbia_card_task_fmri	n/a	n/a	-1.0	n/a	n/a	n/a	n/a	n/a	n/a	n/a	n/a	ITI	poldrack-single-stim	s585	False	0
137.835	0.97	138.805	-0.2853590664386105	draw_card	0.97	columbia_card_task_fmri	16.0	0.8333333333333334	89.0	-80.0	0.1666666666666666	6.0	1.0	1.0	5.112124497007795	0.97	n/a	stim	poldrack-single-stim	s585	False	1
138.809	4.049	142.858	-3.485359066438612	end_round	4.049	columbia_card_task_fmri	16.0	0.8	71.0	-80.0	0.2	6.0	2.0	1.0	7.734959128278259	4.049	1.0	stim	poldrack-single-stim	s585	False	1
143.615	1.5	142.864	n/a	-1.0	2.862	columbia_card_task_fmri	n/a	n/a	-1.0	n/a	n/a	n/a	n/a	n/a	n/a	n/a	n/a	ITI	poldrack-single-stim	s585	False	0
145.729	0.626	146.355	2.2146409335613897	draw_card	0.626	columbia_card_task_fmri	17.0	0.8333333333333334	89.0	-70.0	0.1666666666666666	6.0	1.0	1.0	1.7581402503341188	0.626	n/a	stim	poldrack-single-stim	s585	False	1
146.357	2.276	148.633	-0.6853590664386109	draw_card	2.276	columbia_card_task_fmri	17.0	0.8	89.0	-70.0	0.2	6.0	2.0	1.0	4.135068807781845	2.276	n/a	stim	poldrack-single-stim	s585	False	1
148.637	0.588	149.225	-5.0353590664386125	end_round	0.588	columbia_card_task_fmri	17.0	0.75	71.0	-70.0	0.25	6.0	3.0	1.0	7.007084678685995	0.588	2.0	stim	poldrack-single-stim	s585	False	1
149.98	1.5	149.229	n/a	-1.0	2.726	columbia_card_task_fmri	n/a	n/a	-1.0	n/a	n/a	n/a	n/a	n/a	n/a	n/a	n/a	ITI	poldrack-single-stim	s585	False	0
151.958	2.242	154.2	2.214640933561388	draw_card	2.242	columbia_card_task_fmri	25.0	0.75	89.0	-65.0	0.25	8.0	1.0	2.0	8.30608676017972	2.242	1.0	stim	poldrack-single-stim	s585	False	0
154.959	1.5	154.208	n/a	-1.0	2.25	columbia_card_task_fmri	n/a	n/a	-1.0	n/a	n/a	n/a	n/a	n/a	n/a	n/a	n/a	ITI	poldrack-single-stim	s585	False	0
156.461	0.443	156.904	2.214640933561388	draw_card	0.443	columbia_card_task_fmri	30.0	0.75	89.0	-80.0	0.25	8.0	1.0	2.0	16.96615085076132	0.443	1.0	stim	poldrack-single-stim	s585	False	0
157.66	1.5	156.909	n/a	-1.0	2.318	columbia_card_task_fmri	n/a	n/a	-1.0	n/a	n/a	n/a	n/a	n/a	n/a	n/a	n/a	ITI	poldrack-single-stim	s585	False	0
159.232	1.185	160.417	1.9146409335613888	draw_card	1.185	columbia_card_task_fmri	13.0	0.9	89.0	-95.0	0.1	10.0	1.0	1.0	1.7351554674017784	1.185	1.0	stim	poldrack-single-stim	s585	False	0
161.173	1.5	160.422	n/a	-1.0	2.454	columbia_card_task_fmri	n/a	n/a	-1.0	n/a	n/a	n/a	n/a	n/a	n/a	n/a	n/a	ITI	poldrack-single-stim	s585	False	0
162.88	1.246	164.126	3.314640933561388	draw_card	1.246	columbia_card_task_fmri	14.0	0.9	89.0	-90.0	0.1	10.0	1.0	1.0	0.5352037965062522	1.246	n/a	stim	poldrack-single-stim	s585	False	1
164.13	0.781	164.911	2.159085378005831	draw_card	0.781	columbia_card_task_fmri	14.0	0.8888888888888888	89.0	-90.0	0.1111111111111111	10.0	2.0	1.0	2.0191913218770203	0.781	n/a	stim	poldrack-single-stim	s585	False	1
164.914	1.342	166.256	0.7146409335613877	draw_card	1.342	columbia_card_task_fmri	14.0	0.875	89.0	-90.0	0.125	10.0	3.0	1.0	3.7298496352747	1.342	n/a	stim	poldrack-single-stim	s585	False	1
166.26	0.623	166.883	-1.1425019235814682	end_round	0.623	columbia_card_task_fmri	14.0	0.8571428571428572	71.0	-90.0	0.1428571428571428	10.0	4.0	1.0	5.727436651713031	0.623	3.0	stim	poldrack-single-stim	s585	False	1
167.641	1.5	166.89	n/a	-1.0	2.522	columbia_card_task_fmri	n/a	n/a	-1.0	n/a	n/a	n/a	n/a	n/a	n/a	n/a	n/a	ITI	poldrack-single-stim	s585	False	0
169.415	2.604	172.019	-1.4853590664386116	draw_card	2.604	columbia_card_task_fmri	16.0	0.8	89.0	-70.0	0.2	10.0	1.0	2.0	3.735082411370893	2.604	n/a	stim	poldrack-single-stim	s585	False	1
172.021	0.543	172.564	-3.396470177549723	end_round	0.543	columbia_card_task_fmri	16.0	0.7777777777777778	71.0	-70.0	0.2222222222222222	10.0	2.0	2.0	5.08865263326776	0.543	1.0	stim	poldrack-single-stim	s585	False	1
173.32	1.5	172.569	n/a	-1.0	2.318	columbia_card_task_fmri	n/a	n/a	-1.0	n/a	n/a	n/a	n/a	n/a	n/a	n/a	n/a	ITI	poldrack-single-stim	s585	False	0
174.893	2.102	176.995	-2.202025733105278	draw_card	2.102	columbia_card_task_fmri	7.0	0.9166666666666666	89.0	-100.0	0.0833333333333333	12.0	1.0	1.0	-1.0914867108539283	2.102	n/a	stim	poldrack-single-stim	s585	False	1
176.998	1.16	178.158	-3.0126317937113405	draw_card	1.16	columbia_card_task_fmri	7.0	0.9090909090909092	89.0	-100.0	0.0909090909090909	12.0	2.0	1.0	0.0955596872225079	1.16	n/a	stim	poldrack-single-stim	s585	False	1
178.162	0.439	178.601	-3.985359066438612	end_round	0.439	columbia_card_task_fmri	7.0	0.9	71.0	-100.0	0.1	12.0	3.0	1.0	1.4351672109426978	0.439	2.0	stim	poldrack-single-stim	s585	False	1
179.354	1.5	178.603	n/a	-1.0	2.522	columbia_card_task_fmri	n/a	n/a	-1.0	n/a	n/a	n/a	n/a	n/a	n/a	n/a	n/a	ITI	poldrack-single-stim	s585	False	0
181.129	1.613	182.742	-1.9520257331052768	draw_card	1.613	columbia_card_task_fmri	14.0	0.8333333333333334	89.0	-80.0	0.1666666666666666	12.0	1.0	2.0	4.366792716434421	1.613	n/a	stim	poldrack-single-stim	s585	False	1
182.746	0.695	183.441	-3.3762681573477056	end_round	0.695	columbia_card_task_fmri	14.0	0.8181818181818181	71.0	-80.0	0.1818181818181818	12.0	2.0	2.0	5.5903149918175465	0.695	1.0	stim	poldrack-single-stim	s585	False	1
184.196	1.5	183.445	n/a	-1.0	2.998	columbia_card_task_fmri	n/a	n/a	-1.0	n/a	n/a	n/a	n/a	n/a	n/a	n/a	n/a	ITI	poldrack-single-stim	s585	False	0
186.448	1.554	188.002	-0.2853590664386122	draw_card	1.554	columbia_card_task_fmri	15.0	0.8333333333333334	89.0	-75.0	0.1666666666666666	12.0	1.0	2.0	2.8761323833754453	1.554	n/a	stim	poldrack-single-stim	s585	False	1
188.005	0.94	188.945	-1.6489954300749774	end_round	0.94	columbia_card_task_fmri	15.0	0.8181818181818181	71.0	-75.0	0.1818181818181818	12.0	2.0	2.0	4.047586469075778	0.94	1.0	stim	poldrack-single-stim	s585	False	1
189.702	1.5	188.951	n/a	-1.0	2.318	columbia_card_task_fmri	n/a	n/a	-1.0	n/a	n/a	n/a	n/a	n/a	n/a	n/a	n/a	ITI	poldrack-single-stim	s585	False	0
191.273	0.669	191.942	-1.2853590664386123	draw_card	0.669	columbia_card_task_fmri	15.0	0.8	89.0	-65.0	0.2	15.0	1.0	3.0	1.3351711743848576	0.669	n/a	stim	poldrack-single-stim	s585	False	1
191.945	1.976	193.921	-2.4282162092957544	end_round	1.976	columbia_card_task_fmri	15.0	0.7857142857142857	71.0	-65.0	0.2142857142857142	15.0	2.0	3.0	2.161211423566588	1.976	1.0	stim	poldrack-single-stim	s585	False	1
194.677	1.5	193.926	n/a	-1.0	2.25	columbia_card_task_fmri	n/a	n/a	-1.0	n/a	n/a	n/a	n/a	n/a	n/a	n/a	n/a	ITI	poldrack-single-stim	s585	False	0
196.179	0.646	196.825	-2.035359066438612	draw_card	0.646	columbia_card_task_fmri	14.0	0.8125	89.0	-70.0	0.1875	16.0	1.0	3.0	2.121380156037436	0.646	1.0	stim	poldrack-single-stim	s585	False	0
197.582	1.5	196.831	n/a	-1.0	2.454	columbia_card_task_fmri	n/a	n/a	-1.0	n/a	n/a	n/a	n/a	n/a	n/a	n/a	n/a	ITI	poldrack-single-stim	s585	False	0
199.288	2.061	201.349	-2.097859066438612	end_round	2.061	columbia_card_task_fmri	11.0	0.6875	71.0	-30.0	0.3125	16.0	1.0	5.0	-11.659950201087687	2.061	0.0	stim	poldrack-single-stim	s585	False	1
202.107	1.5	201.356	n/a	-1.0	2.318	columbia_card_task_fmri	n/a	n/a	-1.0	n/a	n/a	n/a	n/a	n/a	n/a	n/a	n/a	ITI	poldrack-single-stim	s585	False	0
203.678	0.725	204.403	2.714640933561388	draw_card	0.725	columbia_card_task_fmri	15.0	0.8666666666666667	89.0	-75.0	0.1333333333333333	15.0	1.0	2.0	-0.0706532801968116	0.725	n/a	stim	poldrack-single-stim	s585	False	1
204.407	1.208	205.615	1.857498076418532	draw_card	1.208	columbia_card_task_fmri	15.0	0.8571428571428572	89.0	-75.0	0.1428571428571428	15.0	2.0	2.0	0.828631188346602	1.208	n/a	stim	poldrack-single-stim	s585	False	1
205.618	1.25	206.868	0.868487087407541	draw_card	1.25	columbia_card_task_fmri	15.0	0.8461538461538461	89.0	-75.0	0.1538461538461538	15.0	3.0	2.0	1.8072617834955231	1.25	n/a	stim	poldrack-single-stim	s585	False	1
206.873	0.571	207.444	-0.2853590664386122	end_round	0.571	columbia_card_task_fmri	15.0	0.8333333333333334	71.0	-75.0	0.1666666666666666	15.0	4.0	2.0	2.8761323833754453	0.571	3.0	stim	poldrack-single-stim	s585	False	1
208.199	1.5	207.448	n/a	-1.0	2.318	columbia_card_task_fmri	n/a	n/a	-1.0	n/a	n/a	n/a	n/a	n/a	n/a	n/a	n/a	ITI	poldrack-single-stim	s585	False	0
209.77	0.688	210.458	4.447974266894722	draw_card	0.688	columbia_card_task_fmri	17.0	0.8666666666666667	89.0	-75.0	0.1333333333333333	15.0	1.0	2.0	0.6091870595184616	0.688	n/a	stim	poldrack-single-stim	s585	False	1
210.462	1.578	212.04	3.571783790704248	draw_card	1.578	columbia_card_task_fmri	17.0	0.8571428571428572	89.0	-75.0	0.1428571428571428	15.0	2.0	2.0	1.5284572977915367	1.578	2.0	stim	poldrack-single-stim	s585	False	0
212.796	1.5	212.045	n/a	-1.0	2.59	columbia_card_task_fmri	n/a	n/a	-1.0	n/a	n/a	n/a	n/a	n/a	n/a	n/a	n/a	ITI	poldrack-single-stim	s585	False	0
214.64	1.015	215.655	0.0271409335613877	draw_card	1.015	columbia_card_task_fmri	2.0	0.9375	89.0	-25.0	0.0625	16.0	1.0	1.0	-24.124215056073748	1.015	1.0	stim	poldrack-single-stim	s585	False	0
216.411	1.5	215.66	n/a	-1.0	2.25	columbia_card_task_fmri	n/a	n/a	-1.0	n/a	n/a	n/a	n/a	n/a	n/a	n/a	n/a	ITI	poldrack-single-stim	s585	False	0
217.914	0.874	218.788	2.214640933561388	draw_card	0.874	columbia_card_task_fmri	9.0	0.9375	89.0	-95.0	0.0625	16.0	1.0	1.0	-5.490092128410144	0.874	n/a	stim	poldrack-single-stim	s585	False	1
218.792	0.993	219.785	1.781307600228055	draw_card	0.993	columbia_card_task_fmri	9.0	0.9333333333333332	89.0	-95.0	0.0666666666666666	16.0	2.0	1.0	-4.722373857555933	0.993	n/a	stim	poldrack-single-stim	s585	False	1
219.787	3.41	223.197	1.2860695049899598	draw_card	3.41	columbia_card_task_fmri	9.0	0.9285714285714286	89.0	-95.0	0.0714285714285714	16.0	3.0	1.0	-3.8804858801108217	3.41	n/a	stim	poldrack-single-stim	s585	False	1
223.201	0.728	223.929	0.7146409335613877	end_round	0.728	columbia_card_task_fmri	9.0	0.9230769230769232	71.0	-95.0	0.0769230769230769	16.0	4.0	1.0	-2.9518190863890474	0.728	3.0	stim	poldrack-single-stim	s585	False	1
224.684	1.5	223.933	n/a	-1.0	2.25	columbia_card_task_fmri	n/a	n/a	-1.0	n/a	n/a	n/a	n/a	n/a	n/a	n/a	n/a	ITI	poldrack-single-stim	s585	False	0
226.186	2.287	228.473	3.777140933561388	draw_card	2.287	columbia_card_task_fmri	11.0	0.9375	89.0	-100.0	0.0625	16.0	1.0	1.0	-3.795763898003664	2.287	n/a	stim	poldrack-single-stim	s585	False	1
228.476	0.664	229.14	3.3146409335613884	draw_card	0.664	columbia_card_task_fmri	11.0	0.9333333333333332	89.0	-100.0	0.0666666666666666	16.0	2.0	1.0	-2.976366042907685	0.664	n/a	stim	poldrack-single-stim	s585	False	1
229.144	0.689	229.833	2.786069504989961	draw_card	0.689	columbia_card_task_fmri	11.0	0.9285714285714286	89.0	-100.0	0.0714285714285714	16.0	3.0	1.0	-2.077806097815266	0.689	n/a	stim	poldrack-single-stim	s585	False	1
229.835	1.021	230.856	2.1761793950998505	draw_card	1.021	columbia_card_task_fmri	11.0	0.9230769230769232	89.0	-100.0	0.0769230769230769	16.0	4.0	1.0	-1.0866262449109847	1.021	n/a	stim	poldrack-single-stim	s585	False	1
230.86	0.913	231.773	1.4646409335613877	end_round	0.913	columbia_card_task_fmri	11.0	0.9166666666666666	71.0	-100.0	0.0833333333333333	16.0	5.0	1.0	0.0140052767284757	0.913	4.0	stim	poldrack-single-stim	s585	False	1
232.53	1.5	231.779	n/a	-1.0	2.522	columbia_card_task_fmri	n/a	n/a	-1.0	n/a	n/a	n/a	n/a	n/a	n/a	n/a	n/a	ITI	poldrack-single-stim	s585	False	0
234.306	0.468	234.774	4.339640933561388	draw_card	0.468	columbia_card_task_fmri	16.0	0.875	89.0	-75.0	0.125	16.0	1.0	2.0	-0.5693271477125599	0.468	n/a	stim	poldrack-single-stim	s585	False	1
234.778	1.307	236.085	3.581307600228055	draw_card	1.307	columbia_card_task_fmri	16.0	0.8666666666666667	89.0	-75.0	0.1333333333333333	16.0	2.0	2.0	0.2692667307217213	1.307	n/a	stim	poldrack-single-stim	s585	False	1
236.089	0.741	236.83	2.7146409335613897	draw_card	0.741	columbia_card_task_fmri	16.0	0.8571428571428572	89.0	-75.0	0.1428571428571428	16.0	3.0	2.0	1.1785440886674934	0.741	3.0	stim	poldrack-single-stim	s585	False	0
237.585	1.5	236.834	n/a	-1.0	2.454	columbia_card_task_fmri	n/a	n/a	-1.0	n/a	n/a	n/a	n/a	n/a	n/a	n/a	n/a	ITI	poldrack-single-stim	s585	False	0
239.294	0.636	239.93	4.589640933561388	draw_card	0.636	columbia_card_task_fmri	17.0	0.875	89.0	-80.0	0.125	16.0	1.0	2.0	1.4149026588101528	0.636	n/a	stim	poldrack-single-stim	s585	False	1
239.933	0.988	240.921	3.781307600228056	draw_card	0.988	columbia_card_task_fmri	17.0	0.8666666666666667	89.0	-80.0	0.1333333333333333	16.0	2.0	2.0	2.308793127607455	0.988	n/a	stim	poldrack-single-stim	s585	False	1
240.924	0.8	241.724	2.857498076418534	draw_card	0.8	columbia_card_task_fmri	17.0	0.8571428571428572	89.0	-80.0	0.1428571428571428	16.0	3.0	2.0	3.2780276412122653	0.8	n/a	stim	poldrack-single-stim	s585	False	1
241.727	0.467	242.194	1.7915640104844643	end_round	0.467	columbia_card_task_fmri	17.0	0.8461538461538461	71.0	-80.0	0.1538461538461538	16.0	4.0	2.0	4.332779790973067	0.467	3.0	stim	poldrack-single-stim	s585	False	1
242.951	1.5	242.2	n/a	-1.0	2.25	columbia_card_task_fmri	n/a	n/a	-1.0	n/a	n/a	n/a	n/a	n/a	n/a	n/a	n/a	ITI	poldrack-single-stim	s585	False	0
255.458	6.374	261.832	-1.1186923997719445	draw_card	6.374	columbia_card_task_fmri	13.0	0.8333333333333334	89.0	-70.0	0.1666666666666666	6.0	1.0	1.0	0.2674887793236991	6.374	1.0	stim	poldrack-single-stim	s585	False	0
262.587	1.5	261.836	n/a	-1.0	2.454	columbia_card_task_fmri	n/a	n/a	-1.0	n/a	n/a	n/a	n/a	n/a	n/a	n/a	n/a	ITI	poldrack-single-stim	s585	False	0
264.295	1.436	265.731	-1.1186923997719445	draw_card	1.436	columbia_card_task_fmri	15.0	0.8333333333333334	89.0	-80.0	0.1666666666666666	6.0	1.0	1.0	4.739458479296122	1.436	n/a	stim	poldrack-single-stim	s585	False	1
265.735	0.916	266.651	-4.2853590664386125	end_round	0.916	columbia_card_task_fmri	15.0	0.8	71.0	-80.0	0.2	6.0	2.0	1.0	7.334970288693373	0.916	1.0	stim	poldrack-single-stim	s585	False	1
267.404	1.5	266.653	n/a	-1.0	2.454	columbia_card_task_fmri	n/a	n/a	-1.0	n/a	n/a	n/a	n/a	n/a	n/a	n/a	n/a	ITI	poldrack-single-stim	s585	False	0
269.112	1.378	270.49	0.5479742668947216	draw_card	1.378	columbia_card_task_fmri	16.0	0.8333333333333334	89.0	-75.0	0.1666666666666666	6.0	1.0	1.0	3.248797040959825	1.378	n/a	stim	poldrack-single-stim	s585	False	1
270.493	1.916	272.409	-2.485359066438612	end_round	1.916	columbia_card_task_fmri	16.0	0.8	71.0	-75.0	0.2	6.0	2.0	1.0	5.735017383082845	1.916	1.0	stim	poldrack-single-stim	s585	False	1
273.164	1.5	272.413	n/a	-1.0	2.522	columbia_card_task_fmri	n/a	n/a	-1.0	n/a	n/a	n/a	n/a	n/a	n/a	n/a	n/a	ITI	poldrack-single-stim	s585	False	0
274.94	1.008	275.948	1.7146409335613877	draw_card	1.008	columbia_card_task_fmri	21.0	0.75	89.0	-55.0	0.25	8.0	1.0	2.0	2.2441013774228478	1.008	n/a	stim	poldrack-single-stim	s585	False	1
275.952	0.545	276.497	-0.9996447807243258	end_round	0.545	columbia_card_task_fmri	21.0	0.7142857142857143	71.0	-55.0	0.2857142857142857	8.0	2.0	2.0	3.668385020991433	0.545	1.0	stim	poldrack-single-stim	s585	False	1
277.254	1.5	276.503	n/a	-1.0	2.454	columbia_card_task_fmri	n/a	n/a	-1.0	n/a	n/a	n/a	n/a	n/a	n/a	n/a	n/a	ITI	poldrack-single-stim	s585	False	0
278.962	0.729	279.691	2.964640933561388	draw_card	0.729	columbia_card_task_fmri	26.0	0.75	89.0	-65.0	0.25	8.0	1.0	2.0	8.739087981816663	0.729	n/a	stim	poldrack-single-stim	s585	False	1
279.695	0.925	280.62	-0.2853590664386087	end_round	0.925	columbia_card_task_fmri	26.0	0.7142857142857143	71.0	-65.0	0.2857142857142857	8.0	2.0	2.0	10.444498827928957	0.925	1.0	stim	poldrack-single-stim	s585	False	1
281.376	1.5	280.625	n/a	-1.0	2.658	columbia_card_task_fmri	n/a	n/a	-1.0	n/a	n/a	n/a	n/a	n/a	n/a	n/a	n/a	ITI	poldrack-single-stim	s585	False	0
283.286	1.257	284.543	-1.9520257331052784	draw_card	1.257	columbia_card_task_fmri	15.0	0.7777777777777778	89.0	-60.0	0.2222222222222222	9.0	1.0	2.0	0.5156828365961168	1.257	n/a	stim	poldrack-single-stim	s585	False	1
284.547	0.737	285.284	-4.0353590664386125	end_round	0.737	columbia_card_task_fmri	15.0	0.75	71.0	-60.0	0.25	9.0	2.0	2.0	1.8111051705581964	0.737	1.0	stim	poldrack-single-stim	s585	False	1
286.038	1.5	285.287	n/a	-1.0	2.386	columbia_card_task_fmri	n/a	n/a	-1.0	n/a	n/a	n/a	n/a	n/a	n/a	n/a	n/a	ITI	poldrack-single-stim	s585	False	0
287.677	0.424	288.101	2.414640933561389	draw_card	0.424	columbia_card_task_fmri	13.0	0.9	89.0	-90.0	0.1	10.0	1.0	1.0	0.2352164652638073	0.424	n/a	stim	poldrack-single-stim	s585	False	1
288.104	1.251	289.355	1.270196489116943	draw_card	1.251	columbia_card_task_fmri	13.0	0.8888888888888888	89.0	-90.0	0.1111111111111111	10.0	2.0	1.0	1.7049337349395692	1.251	n/a	stim	poldrack-single-stim	s585	False	1
289.36	0.874	290.234	-0.1603590664386122	draw_card	0.874	columbia_card_task_fmri	13.0	0.875	89.0	-90.0	0.125	10.0	3.0	1.0	3.3991422135372424	0.874	n/a	stim	poldrack-single-stim	s585	False	1
290.238	0.425	290.663	-1.999644780724324	end_round	0.425	columbia_card_task_fmri	13.0	0.8571428571428572	71.0	-90.0	0.1428571428571428	10.0	4.0	1.0	5.377520406980569	0.425	3.0	stim	poldrack-single-stim	s585	False	1
291.417	1.5	290.666	n/a	-1.0	2.522	columbia_card_task_fmri	n/a	n/a	-1.0	n/a	n/a	n/a	n/a	n/a	n/a	n/a	n/a	ITI	poldrack-single-stim	s585	False	0
293.193	0.443	293.636	3.714640933561388	draw_card	0.443	columbia_card_task_fmri	15.0	0.9	89.0	-95.0	0.1	10.0	1.0	1.0	2.3351326208402376	0.443	n/a	stim	poldrack-single-stim	s585	False	1
293.639	1.096	294.735	2.4924187113391647	draw_card	1.096	columbia_card_task_fmri	15.0	0.8888888888888888	89.0	-95.0	0.1111111111111111	10.0	2.0	1.0	3.904741460808399	1.096	n/a	stim	poldrack-single-stim	s585	False	1
294.738	0.923	295.661	0.9646409335613876	end_round	0.923	columbia_card_task_fmri	15.0	0.875	71.0	-95.0	0.125	10.0	3.0	1.0	5.714098553398639	0.923	2.0	stim	poldrack-single-stim	s585	False	1
296.418	1.5	295.667	n/a	-1.0	2.59	columbia_card_task_fmri	n/a	n/a	-1.0	n/a	n/a	n/a	n/a	n/a	n/a	n/a	n/a	ITI	poldrack-single-stim	s585	False	0
298.262	0.477	298.739	-0.4853590664386115	draw_card	0.477	columbia_card_task_fmri	16.0	0.8	89.0	-65.0	0.2	10.0	1.0	2.0	1.7351554674017784	0.477	n/a	stim	poldrack-single-stim	s585	False	1
298.744	1.516	300.26	-2.2853590664386103	end_round	1.516	columbia_card_task_fmri	16.0	0.7777777777777778	71.0	-65.0	0.2222222222222222	10.0	2.0	2.0	3.010024375510408	1.516	1.0	stim	poldrack-single-stim	s585	False	1
301.014	1.5	300.263	n/a	-1.0	2.386	columbia_card_task_fmri	n/a	n/a	-1.0	n/a	n/a	n/a	n/a	n/a	n/a	n/a	n/a	ITI	poldrack-single-stim	s585	False	0
302.654	0.83	303.484	-1.7853590664386123	draw_card	0.83	columbia_card_task_fmri	7.0	0.9166666666666666	89.0	-95.0	0.0833333333333333	12.0	1.0	1.0	-2.473346224131209	0.83	n/a	stim	poldrack-single-stim	s585	False	1
303.488	0.444	303.932	-2.558086339165885	draw_card	0.444	columbia_card_task_fmri	7.0	0.9090909090909092	89.0	-95.0	0.0909090909090909	12.0	2.0	1.0	-1.3417743704385785	0.444	n/a	stim	poldrack-single-stim	s585	False	1
303.936	0.899	304.835	-3.4853590664386123	draw_card	0.899	columbia_card_task_fmri	7.0	0.9	89.0	-95.0	0.1	12.0	3.0	1.0	-0.0647706175876621	0.899	n/a	stim	poldrack-single-stim	s585	False	1
304.84	0.653	305.493	-4.6186923997719465	end_round	0.653	columbia_card_task_fmri	7.0	0.8888888888888888	71.0	-95.0	0.1111111111111111	12.0	4.0	1.0	1.3906763851173771	0.653	3.0	stim	poldrack-single-stim	s585	False	1
306.247	1.5	305.496	n/a	-1.0	2.59	columbia_card_task_fmri	n/a	n/a	-1.0	n/a	n/a	n/a	n/a	n/a	n/a	n/a	n/a	ITI	poldrack-single-stim	s585	False	0
308.092	1.019	309.111	-1.1186923997719445	draw_card	1.019	columbia_card_task_fmri	14.0	0.8333333333333334	89.0	-75.0	0.1666666666666666	12.0	1.0	2.0	2.503468025519897	1.019	n/a	stim	poldrack-single-stim	s585	False	1
309.115	0.6	309.715	-2.4671772482567955	end_round	0.6	columbia_card_task_fmri	14.0	0.8181818181818181	71.0	-75.0	0.1818181818181818	12.0	2.0	2.0	3.661905039323021	0.6	1.0	stim	poldrack-single-stim	s585	False	1
310.474	1.5	309.723	n/a	-1.0	2.318	columbia_card_task_fmri	n/a	n/a	-1.0	n/a	n/a	n/a	n/a	n/a	n/a	n/a	n/a	ITI	poldrack-single-stim	s585	False	0
312.046	0.652	312.698	0.5479742668947216	draw_card	0.652	columbia_card_task_fmri	15.0	0.8333333333333334	89.0	-70.0	0.1666666666666666	12.0	1.0	2.0	1.012813802942965	0.652	n/a	stim	poldrack-single-stim	s585	False	1
312.701	1.262	313.963	-0.7399045209840691	draw_card	1.262	columbia_card_task_fmri	15.0	0.8181818181818181	89.0	-70.0	0.1818181818181818	12.0	2.0	2.0	2.1191824208869043	1.262	n/a	stim	poldrack-single-stim	s585	False	1
313.966	0.488	314.454	-2.285359066438612	end_round	0.488	columbia_card_task_fmri	15.0	0.8	71.0	-70.0	0.2	12.0	3.0	2.0	3.335096335027675	0.488	2.0	stim	poldrack-single-stim	s585	False	1
315.21	1.5	314.459	n/a	-1.0	2.25	columbia_card_task_fmri	n/a	n/a	-1.0	n/a	n/a	n/a	n/a	n/a	n/a	n/a	n/a	ITI	poldrack-single-stim	s585	False	0
316.714	1.039	317.753	-1.4853590664386116	draw_card	1.039	columbia_card_task_fmri	16.0	0.8	89.0	-70.0	0.2	15.0	1.0	3.0	3.735082411370893	1.039	1.0	stim	poldrack-single-stim	s585	False	0
318.51	1.5	317.759	n/a	-1.0	2.454	columbia_card_task_fmri	n/a	n/a	-1.0	n/a	n/a	n/a	n/a	n/a	n/a	n/a	n/a	ITI	poldrack-single-stim	s585	False	0
320.218	1.391	321.609	-1.0978590664386123	end_round	1.391	columbia_card_task_fmri	14.0	0.8125	71.0	-65.0	0.1875	16.0	1.0	3.0	0.1698968735474828	1.391	0.0	stim	poldrack-single-stim	s585	False	1
322.365	1.5	321.614	n/a	-1.0	3.27	columbia_card_task_fmri	n/a	n/a	-1.0	n/a	n/a	n/a	n/a	n/a	n/a	n/a	n/a	ITI	poldrack-single-stim	s585	False	0
324.889	1.292	326.181	-1.3478590664386123	draw_card	1.292	columbia_card_task_fmri	16.0	0.8125	89.0	-75.0	0.1875	16.0	1.0	3.0	4.853471260060022	1.292	n/a	stim	poldrack-single-stim	s585	False	1
326.185	0.449	326.634	-2.485359066438612	end_round	0.449	columbia_card_task_fmri	16.0	0.8	71.0	-75.0	0.2	16.0	2.0	3.0	5.735017383082845	0.449	1.0	stim	poldrack-single-stim	s585	False	1
327.391	1.5	326.64	n/a	-1.0	2.25	columbia_card_task_fmri	n/a	n/a	-1.0	n/a	n/a	n/a	n/a	n/a	n/a	n/a	n/a	ITI	poldrack-single-stim	s585	False	0
328.895	0.644	329.539	2.914640933561389	draw_card	0.644	columbia_card_task_fmri	16.0	0.8666666666666667	89.0	-80.0	0.1333333333333333	15.0	1.0	2.0	1.9688713548295065	0.644	n/a	stim	poldrack-single-stim	s585	False	1
329.543	0.927	330.47	2.000355219275676	draw_card	0.927	columbia_card_task_fmri	16.0	0.8571428571428572	89.0	-80.0	0.1428571428571428	15.0	2.0	2.0	2.92811302933168	0.927	n/a	stim	poldrack-single-stim	s585	False	1
330.474	0.494	330.968	0.9454101643306176	end_round	0.494	columbia_card_task_fmri	16.0	0.8461538461538461	71.0	-80.0	0.1538461538461538	15.0	3.0	2.0	3.97199069638798	0.494	2.0	stim	poldrack-single-stim	s585	False	1
331.723	1.5	330.972	n/a	-1.0	2.25	columbia_card_task_fmri	n/a	n/a	-1.0	n/a	n/a	n/a	n/a	n/a	n/a	n/a	n/a	ITI	poldrack-single-stim	s585	False	0
333.227	1.326	334.553	3.781307600228056	draw_card	1.326	columbia_card_task_fmri	17.0	0.8666666666666667	89.0	-80.0	0.1333333333333333	15.0	1.0	2.0	2.308793127607455	1.326	n/a	stim	poldrack-single-stim	s585	False	1
334.557	1.052	335.609	2.857498076418534	draw_card	1.052	columbia_card_task_fmri	17.0	0.8571428571428572	89.0	-80.0	0.1428571428571428	15.0	2.0	2.0	3.2780276412122653	1.052	2.0	stim	poldrack-single-stim	s585	False	0
336.369	1.5	335.618	n/a	-1.0	2.318	columbia_card_task_fmri	n/a	n/a	-1.0	n/a	n/a	n/a	n/a	n/a	n/a	n/a	n/a	ITI	poldrack-single-stim	s585	False	0
337.942	0.402	338.344	-0.2853590664386122	draw_card	0.402	columbia_card_task_fmri	1.0	0.9375	89.0	-15.0	0.0625	16.0	1.0	1.0	-26.78261948176664	0.402	n/a	stim	poldrack-single-stim	s585	False	1
338.348	0.854	339.202	-0.3520257331052789	draw_card	0.854	columbia_card_task_fmri	1.0	0.9333333333333332	89.0	-15.0	0.0666666666666666	16.0	2.0	1.0	-26.664811513078128	0.854	n/a	stim	poldrack-single-stim	s585	False	1
339.207	0.687	339.894	-0.428216209295755	draw_card	0.687	columbia_card_task_fmri	1.0	0.9285714285714286	89.0	-15.0	0.0714285714285714	16.0	3.0	1.0	-26.53560218392621	0.687	n/a	stim	poldrack-single-stim	s585	False	1
339.898	0.528	340.426	-0.5161282972078431	draw_card	0.528	columbia_card_task_fmri	1.0	0.9230769230769232	89.0	-15.0	0.0769230769230769	16.0	4.0	1.0	-26.39305251144032	0.528	n/a	stim	poldrack-single-stim	s585	False	1
340.431	0.831	341.262	-0.6186923997719456	draw_card	0.831	columbia_card_task_fmri	1.0	0.9166666666666666	89.0	-15.0	0.0833333333333333	16.0	5.0	1.0	-26.23473731557664	0.831	n/a	stim	poldrack-single-stim	s585	False	1
341.267	0.554	341.821	-0.7399045209840669	end_round	0.554	columbia_card_task_fmri	1.0	0.9090909090909092	71.0	-15.0	0.0909090909090909	16.0	6.0	1.0	-26.05758135790909	0.554	5.0	stim	poldrack-single-stim	s585	False	1
342.579	1.5	341.828	n/a	-1.0	2.726	columbia_card_task_fmri	n/a	n/a	-1.0	n/a	n/a	n/a	n/a	n/a	n/a	n/a	n/a	ITI	poldrack-single-stim	s585	False	0
344.56	0.806	345.366	2.839640933561388	draw_card	0.806	columbia_card_task_fmri	10.0	0.9375	89.0	-100.0	0.0625	16.0	1.0	1.0	-4.03781158266926	0.806	n/a	stim	poldrack-single-stim	s585	False	1
345.37	1.5	346.87	2.381307600228055	draw_card	1.5	columbia_card_task_fmri	10.0	0.9333333333333332	89.0	-100.0	0.0666666666666666	16.0	2.0	1.0	-3.225796501813452	1.5	n/a	stim	poldrack-single-stim	s585	False	1
346.874	1.097	347.971	1.857498076418532	draw_card	1.097	columbia_card_task_fmri	10.0	0.9285714285714286	89.0	-100.0	0.0714285714285714	16.0	3.0	1.0	-2.335332527868069	1.097	n/a	stim	poldrack-single-stim	s585	False	1
347.976	0.911	348.887	1.253102472022927	end_round	0.911	columbia_card_task_fmri	10.0	0.9230769230769232	71.0	-100.0	0.0769230769230769	16.0	4.0	1.0	-1.3530830869681445	0.911	3.0	stim	poldrack-single-stim	s585	False	1
349.645	1.5	348.894	n/a	-1.0	2.386	columbia_card_task_fmri	n/a	n/a	-1.0	n/a	n/a	n/a	n/a	n/a	n/a	n/a	n/a	ITI	poldrack-single-stim	s585	False	0
351.286	0.373	351.659	3.464640933561388	draw_card	0.373	columbia_card_task_fmri	15.0	0.875	89.0	-75.0	0.125	16.0	1.0	2.0	-0.900031030840097	0.373	n/a	stim	poldrack-single-stim	s585	False	1
351.664	0.65	352.314	2.714640933561388	draw_card	0.65	columbia_card_task_fmri	15.0	0.8666666666666667	89.0	-75.0	0.1333333333333333	16.0	2.0	2.0	-0.0706532801968116	0.65	n/a	stim	poldrack-single-stim	s585	False	1
352.318	0.725	353.043	1.857498076418532	draw_card	0.725	columbia_card_task_fmri	15.0	0.8571428571428572	89.0	-75.0	0.1428571428571428	16.0	3.0	2.0	0.828631188346602	0.725	n/a	stim	poldrack-single-stim	s585	False	1
353.047	1.037	354.084	0.868487087407541	draw_card	1.037	columbia_card_task_fmri	15.0	0.8461538461538461	89.0	-75.0	0.1538461538461538	16.0	4.0	2.0	1.8072617834955231	1.037	n/a	stim	poldrack-single-stim	s585	False	1
354.088	1.196	355.284	-0.2853590664386122	end_round	1.196	columbia_card_task_fmri	15.0	0.8333333333333334	71.0	-75.0	0.1666666666666666	16.0	5.0	2.0	2.8761323833754453	1.196	4.0	stim	poldrack-single-stim	s585	False	1
356.044	1.5	355.293	n/a	-1.0	2.318	columbia_card_task_fmri	n/a	n/a	-1.0	n/a	n/a	n/a	n/a	n/a	n/a	n/a	n/a	ITI	poldrack-single-stim	s585	False	0
357.617	0.768	358.385	3.714640933561388	draw_card	0.768	columbia_card_task_fmri	16.0	0.875	89.0	-80.0	0.125	16.0	1.0	2.0	1.08419696474013	0.768	n/a	stim	poldrack-single-stim	s585	False	1
358.39	0.622	359.012	2.914640933561389	draw_card	0.622	columbia_card_task_fmri	16.0	0.8666666666666667	89.0	-80.0	0.1333333333333333	16.0	2.0	2.0	1.9688713548295065	0.622	n/a	stim	poldrack-single-stim	s585	False	1
359.017	1.68	360.697	2.000355219275676	draw_card	1.68	columbia_card_task_fmri	16.0	0.8571428571428572	89.0	-80.0	0.1428571428571428	16.0	3.0	2.0	2.92811302933168	1.68	3.0	stim	poldrack-single-stim	s585	False	0
361.456	1.5	360.705	n/a	-1.0	2.25	columbia_card_task_fmri	n/a	n/a	-1.0	n/a	n/a	n/a	n/a	n/a	n/a	n/a	n/a	ITI	poldrack-single-stim	s585	False	0
362.962	0.358	363.32	0.9021409335613876	draw_card	0.358	columbia_card_task_fmri	4.0	0.6875	89.0	-5.0	0.3125	16.0	1.0	5.0	-26.484740890117106	0.358	n/a	stim	poldrack-single-stim	s585	False	1
363.325	0.507	363.832	0.7146409335613881	draw_card	0.507	columbia_card_task_fmri	4.0	0.6666666666666667	89.0	-5.0	0.3333333333333333	16.0	2.0	5.0	-26.41387468916584	0.507	n/a	stim	poldrack-single-stim	s585	False	1
363.836	0.952	364.788	0.5003552192756731	end_round	0.952	columbia_card_task_fmri	4.0	0.6428571428571428	71.0	-5.0	0.3571428571428571	16.0	3.0	5.0	-26.34425332169831	0.952	2.0	stim	poldrack-single-stim	s585	False	1
365.547	1.5	364.796	n/a	-1.0	2.25	columbia_card_task_fmri	n/a	n/a	-1.0	n/a	n/a	n/a	n/a	n/a	n/a	n/a	n/a	ITI	poldrack-single-stim	s585	False	0
367.052	0.34	367.392	-1.9520257331052768	draw_card	0.34	columbia_card_task_fmri	14.0	0.8333333333333334	89.0	-80.0	0.1666666666666666	6.0	1.0	1.0	4.366792716434421	0.34	n/a	stim	poldrack-single-stim	s585	False	1
367.398	1.546	368.944	-5.085359066438612	end_round	1.546	columbia_card_task_fmri	14.0	0.8	71.0	-80.0	0.2	6.0	2.0	1.0	6.934981686553986	1.546	1.0	stim	poldrack-single-stim	s585	False	1
369.7	1.5	368.949	n/a	-1.0	2.454	columbia_card_task_fmri	n/a	n/a	-1.0	n/a	n/a	n/a	n/a	n/a	n/a	n/a	n/a	ITI	poldrack-single-stim	s585	False	0
371.407	0.461	371.868	-0.2853590664386122	draw_card	0.461	columbia_card_task_fmri	15.0	0.8333333333333334	89.0	-75.0	0.1666666666666666	6.0	1.0	1.0	2.8761323833754453	0.461	n/a	stim	poldrack-single-stim	s585	False	1
371.873	1.008	372.881	-3.285359066438612	end_round	1.008	columbia_card_task_fmri	15.0	0.8	71.0	-75.0	0.2	6.0	2.0	1.0	5.335029810738785	1.008	1.0	stim	poldrack-single-stim	s585	False	1
373.64	1.5	372.889	n/a	-1.0	2.454	columbia_card_task_fmri	n/a	n/a	-1.0	n/a	n/a	n/a	n/a	n/a	n/a	n/a	n/a	ITI	poldrack-single-stim	s585	False	0
375.348	0.495	375.843	1.3813076002280555	draw_card	0.495	columbia_card_task_fmri	16.0	0.8333333333333334	89.0	-70.0	0.1666666666666666	6.0	1.0	1.0	1.385476854874863	0.495	n/a	stim	poldrack-single-stim	s585	False	1
375.847	1.005	376.852	-1.4853590664386116	end_round	1.005	columbia_card_task_fmri	16.0	0.8	71.0	-70.0	0.2	6.0	2.0	1.0	3.735082411370893	1.005	1.0	stim	poldrack-single-stim	s585	False	1
377.611	1.5	376.86	n/a	-1.0	2.522	columbia_card_task_fmri	n/a	n/a	-1.0	n/a	n/a	n/a	n/a	n/a	n/a	n/a	n/a	ITI	poldrack-single-stim	s585	False	0
379.387	2.045	381.432	1.964640933561388	draw_card	2.045	columbia_card_task_fmri	23.0	0.75	89.0	-60.0	0.25	8.0	1.0	2.0	5.275085954089558	2.045	n/a	stim	poldrack-single-stim	s585	False	1
381.438	0.521	381.959	-0.999644780724324	end_round	0.521	columbia_card_task_fmri	23.0	0.7142857142857143	71.0	-60.0	0.2857142857142857	8.0	2.0	2.0	6.83056267261804	0.521	1.0	stim	poldrack-single-stim	s585	False	1
382.716	1.5	381.965	n/a	-1.0	2.386	columbia_card_task_fmri	n/a	n/a	-1.0	n/a	n/a	n/a	n/a	n/a	n/a	n/a	n/a	ITI	poldrack-single-stim	s585	False	0
384.356	0.057	384.413	2.464640933561388	draw_card	0.057	columbia_card_task_fmri	27.0	0.75	89.0	-70.0	0.25	8.0	1.0	2.0	11.337100282290177	0.057	1.0	stim	poldrack-single-stim	s585	False	0
385.173	1.5	384.422	n/a	-1.0	2.454	columbia_card_task_fmri	n/a	n/a	-1.0	n/a	n/a	n/a	n/a	n/a	n/a	n/a	n/a	ITI	poldrack-single-stim	s585	False	0
386.882	1.694	388.576	-2.2853590664386103	draw_card	1.694	columbia_card_task_fmri	16.0	0.7777777777777778	89.0	-65.0	0.2222222222222222	9.0	1.0	2.0	3.010024375510408	1.694	n/a	stim	poldrack-single-stim	s585	False	1
388.581	1.066	389.647	-4.5353590664386125	end_round	1.066	columbia_card_task_fmri	16.0	0.75	71.0	-65.0	0.25	9.0	2.0	2.0	4.409088520697527	1.066	1.0	stim	poldrack-single-stim	s585	False	1
390.406	1.5	389.655	n/a	-1.0	2.522	columbia_card_task_fmri	n/a	n/a	-1.0	n/a	n/a	n/a	n/a	n/a	n/a	n/a	n/a	ITI	poldrack-single-stim	s585	False	0
392.184	0.033	392.217	2.914640933561389	draw_card	0.033	columbia_card_task_fmri	13.0	0.9	89.0	-85.0	0.1	10.0	1.0	1.0	-1.2647163130215802	0.033	n/a	stim	poldrack-single-stim	s585	False	1
392.222	1.359	393.581	1.8257520446724984	end_round	1.359	columbia_card_task_fmri	13.0	0.8888888888888888	71.0	-85.0	0.1111111111111111	10.0	2.0	1.0	0.1336495021417718	1.359	1.0	stim	poldrack-single-stim	s585	False	1
394.337	1.5	393.586	n/a	-1.0	2.522	columbia_card_task_fmri	n/a	n/a	-1.0	n/a	n/a	n/a	n/a	n/a	n/a	n/a	n/a	ITI	poldrack-single-stim	s585	False	0
396.114	1.345	397.459	-2.085359066438611	draw_card	1.345	columbia_card_task_fmri	14.0	0.8	89.0	-65.0	0.2	10.0	1.0	2.0	0.935187278989055	1.345	1.0	stim	poldrack-single-stim	s585	False	0
398.216	1.5	397.465	n/a	-1.0	2.59	columbia_card_task_fmri	n/a	n/a	-1.0	n/a	n/a	n/a	n/a	n/a	n/a	n/a	n/a	ITI	poldrack-single-stim	s585	False	0
400.061	0.593	400.654	-0.6853590664386109	draw_card	0.593	columbia_card_task_fmri	17.0	0.8	89.0	-70.0	0.2	10.0	1.0	2.0	4.135068807781845	0.593	n/a	stim	poldrack-single-stim	s585	False	1
400.659	0.747	401.406	-2.618692399771944	end_round	0.747	columbia_card_task_fmri	17.0	0.7777777777777778	71.0	-70.0	0.2222222222222222	10.0	2.0	2.0	5.504379254296129	0.747	1.0	stim	poldrack-single-stim	s585	False	1
402.165	1.5	401.414	n/a	-1.0	2.454	columbia_card_task_fmri	n/a	n/a	-1.0	n/a	n/a	n/a	n/a	n/a	n/a	n/a	n/a	ITI	poldrack-single-stim	s585	False	0
403.874	0.932	404.806	-1.9520257331052784	end_round	0.932	columbia_card_task_fmri	13.0	0.8333333333333334	71.0	-75.0	0.1666666666666666	12.0	1.0	2.0	2.1308039776104657	0.932	0.0	stim	poldrack-single-stim	s585	False	1
405.565	1.5	404.814	n/a	-1.0	2.318	columbia_card_task_fmri	n/a	n/a	-1.0	n/a	n/a	n/a	n/a	n/a	n/a	n/a	n/a	ITI	poldrack-single-stim	s585	False	0
407.14	0.57	407.71	-0.2853590664386105	draw_card	0.57	columbia_card_task_fmri	14.0	0.8333333333333334	89.0	-70.0	0.1666666666666666	12.0	1.0	2.0	0.6401511068062433	0.57	n/a	stim	poldrack-single-stim	s585	False	1
407.714	0.753	408.467	-1.5580863391658877	end_round	0.753	columbia_card_task_fmri	14.0	0.8181818181818181	71.0	-70.0	0.1818181818181818	12.0	2.0	2.0	1.73350259678487	0.753	1.0	stim	poldrack-single-stim	s585	False	1
409.223	1.5	408.472	n/a	-1.0	2.25	columbia_card_task_fmri	n/a	n/a	-1.0	n/a	n/a	n/a	n/a	n/a	n/a	n/a	n/a	ITI	poldrack-single-stim	s585	False	0
410.728	0.385	411.113	-0.2853590664386105	draw_card	0.385	columbia_card_task_fmri	16.0	0.8333333333333334	89.0	-80.0	0.1666666666666666	12.0	1.0	2.0	5.112124497007795	0.385	n/a	stim	poldrack-single-stim	s585	False	1
411.119	0.52	411.639	-1.7399045209840691	end_round	0.52	columbia_card_task_fmri	16.0	0.8181818181818181	71.0	-80.0	0.1818181818181818	12.0	2.0	2.0	6.361680812771237	0.52	1.0	stim	poldrack-single-stim	s585	False	1
412.397	1.5	411.646	n/a	-1.0	2.658	columbia_card_task_fmri	n/a	n/a	-1.0	n/a	n/a	n/a	n/a	n/a	n/a	n/a	n/a	ITI	poldrack-single-stim	s585	False	0
414.311	0.388	414.699	-0.4853590664386115	draw_card	0.388	columbia_card_task_fmri	16.0	0.8	89.0	-65.0	0.2	15.0	1.0	3.0	1.7351554674017784	0.388	n/a	stim	poldrack-single-stim	s585	False	1
414.704	1.149	415.853	-1.6425019235814682	end_round	1.149	columbia_card_task_fmri	16.0	0.7857142857142857	71.0	-65.0	0.2142857142857142	15.0	2.0	3.0	2.5715220151310483	1.149	1.0	stim	poldrack-single-stim	s585	False	1
416.61	1.5	415.859	n/a	-1.0	2.454	columbia_card_task_fmri	n/a	n/a	-1.0	n/a	n/a	n/a	n/a	n/a	n/a	n/a	n/a	ITI	poldrack-single-stim	s585	False	0
418.319	0.687	419.006	-2.160359066438612	draw_card	0.687	columbia_card_task_fmri	15.0	0.8125	89.0	-75.0	0.1875	16.0	1.0	3.0	4.463171621242946	0.687	n/a	stim	poldrack-single-stim	s585	False	1
419.011	0.983	419.994	-3.285359066438612	draw_card	0.983	columbia_card_task_fmri	15.0	0.8	89.0	-75.0	0.2	16.0	2.0	3.0	5.335029810738785	0.983	n/a	stim	poldrack-single-stim	s585	False	1
419.999	0.466	420.465	-4.571073352152897	end_round	0.466	columbia_card_task_fmri	15.0	0.7857142857142857	71.0	-75.0	0.2142857142857142	16.0	3.0	3.0	6.264332650231292	0.466	2.0	stim	poldrack-single-stim	s585	False	1
421.221	1.5	420.47	n/a	-1.0	2.386	columbia_card_task_fmri	n/a	n/a	-1.0	n/a	n/a	n/a	n/a	n/a	n/a	n/a	n/a	ITI	poldrack-single-stim	s585	False	0
422.861	0.394	423.255	-1.5978590664386123	draw_card	0.394	columbia_card_task_fmri	14.0	0.6875	89.0	-35.0	0.3125	16.0	1.0	5.0	-7.95220069322361	0.394	1.0	stim	poldrack-single-stim	s585	False	0
424.014	1.5	423.263	n/a	-1.0	2.59	columbia_card_task_fmri	n/a	n/a	-1.0	n/a	n/a	n/a	n/a	n/a	n/a	n/a	n/a	ITI	poldrack-single-stim	s585	False	0
425.859	0.397	426.256	3.581307600228055	draw_card	0.397	columbia_card_task_fmri	16.0	0.8666666666666667	89.0	-75.0	0.1333333333333333	15.0	1.0	2.0	0.2692667307217213	0.397	n/a	stim	poldrack-single-stim	s585	False	1
426.261	1.543	427.804	2.7146409335613897	draw_card	1.543	columbia_card_task_fmri	16.0	0.8571428571428572	89.0	-75.0	0.1428571428571428	15.0	2.0	2.0	1.1785440886674934	1.543	n/a	stim	poldrack-single-stim	s585	False	1
427.809	0.427	428.236	1.7146409335613877	end_round	0.427	columbia_card_task_fmri	16.0	0.8461538461538461	71.0	-75.0	0.1538461538461538	15.0	3.0	2.0	2.168049218093952	0.427	2.0	stim	poldrack-single-stim	s585	False	1
428.996	1.5	428.245	n/a	-1.0	2.318	columbia_card_task_fmri	n/a	n/a	-1.0	n/a	n/a	n/a	n/a	n/a	n/a	n/a	n/a	ITI	poldrack-single-stim	s585	False	0
430.569	1.253	431.822	4.247974266894721	draw_card	1.253	columbia_card_task_fmri	16.0	0.8666666666666667	89.0	-70.0	0.1333333333333333	15.0	1.0	2.0	-1.4303299233335522	1.253	n/a	stim	poldrack-single-stim	s585	False	1
431.827	0.909	432.736	3.428926647847103	draw_card	0.909	columbia_card_task_fmri	16.0	0.8571428571428572	89.0	-70.0	0.1428571428571428	15.0	2.0	2.0	-0.5710171094800423	0.909	n/a	stim	poldrack-single-stim	s585	False	1
432.742	0.476	433.218	2.483871702792156	end_round	0.476	columbia_card_task_fmri	16.0	0.8461538461538461	71.0	-70.0	0.1538461538461538	15.0	3.0	2.0	0.364115249020557	0.476	2.0	stim	poldrack-single-stim	s585	False	1
433.977	1.5	433.226	n/a	-1.0	2.59	columbia_card_task_fmri	n/a	n/a	-1.0	n/a	n/a	n/a	n/a	n/a	n/a	n/a	n/a	ITI	poldrack-single-stim	s585	False	0
435.821	1.155	436.976	1.5896409335613877	draw_card	1.155	columbia_card_task_fmri	8.0	0.9375	89.0	-90.0	0.0625	16.0	1.0	1.0	-6.942361874145266	1.155	n/a	stim	poldrack-single-stim	s585	False	1
436.981	0.513	437.494	1.1813076002280545	draw_card	0.513	columbia_card_task_fmri	8.0	0.9333333333333332	89.0	-90.0	0.0666666666666666	16.0	2.0	1.0	-6.218940732803773	0.513	n/a	stim	poldrack-single-stim	s585	False	1
437.499	1.202	438.701	0.7146409335613886	draw_card	1.202	columbia_card_task_fmri	8.0	0.9285714285714286	89.0	-90.0	0.0714285714285714	16.0	3.0	1.0	-5.425629081190603	1.202	n/a	stim	poldrack-single-stim	s585	False	1
438.705	0.489	439.194	0.1761793950998494	draw_card	0.489	columbia_card_task_fmri	8.0	0.9230769230769232	89.0	-90.0	0.0769230769230769	16.0	4.0	1.0	-4.550545274724303	0.489	n/a	stim	poldrack-single-stim	s585	False	1
439.2	0.452	439.652	-0.4520257331052792	end_round	0.452	columbia_card_task_fmri	8.0	0.9166666666666666	71.0	-90.0	0.0833333333333333	16.0	5.0	1.0	-3.578828877235789	0.452	4.0	stim	poldrack-single-stim	s585	False	1
440.411	1.5	439.66	n/a	-1.0	2.386	columbia_card_task_fmri	n/a	n/a	-1.0	n/a	n/a	n/a	n/a	n/a	n/a	n/a	n/a	ITI	poldrack-single-stim	s585	False	0
442.053	0.47	442.523	3.152140933561388	draw_card	0.47	columbia_card_task_fmri	10.0	0.9375	89.0	-95.0	0.0625	16.0	1.0	1.0	-5.2480460707933965	0.47	n/a	stim	poldrack-single-stim	s585	False	1
442.529	0.839	443.368	2.714640933561389	draw_card	0.839	columbia_card_task_fmri	10.0	0.9333333333333332	89.0	-95.0	0.0666666666666666	16.0	2.0	1.0	-4.472944977562651	0.839	n/a	stim	poldrack-single-stim	s585	False	1
443.374	0.487	443.861	2.214640933561389	draw_card	0.487	columbia_card_task_fmri	10.0	0.9285714285714286	89.0	-95.0	0.0714285714285714	16.0	3.0	1.0	-3.6229609793547226	0.487	n/a	stim	poldrack-single-stim	s585	False	1
443.866	0.401	444.267	1.637717856638311	draw_card	0.401	columbia_card_task_fmri	10.0	0.9230769230769232	89.0	-95.0	0.0769230769230769	16.0	4.0	1.0	-2.6853637223940297	0.401	n/a	stim	poldrack-single-stim	s585	False	1
444.272	0.374	444.646	0.9646409335613876	end_round	0.374	columbia_card_task_fmri	10.0	0.9166666666666666	71.0	-95.0	0.0833333333333333	16.0	5.0	1.0	-1.644231287339622	0.374	4.0	stim	poldrack-single-stim	s585	False	1
445.402	1.5	444.651	n/a	-1.0	2.318	columbia_card_task_fmri	n/a	n/a	-1.0	n/a	n/a	n/a	n/a	n/a	n/a	n/a	n/a	ITI	poldrack-single-stim	s585	False	0
446.976	1.291	448.267	4.089640933561388	draw_card	1.291	columbia_card_task_fmri	15.0	0.875	89.0	-70.0	0.125	16.0	1.0	2.0	-2.5535451418985886	1.291	n/a	stim	poldrack-single-stim	s585	False	1
448.272	0.51	448.782	3.381307600228054	draw_card	0.51	columbia_card_task_fmri	15.0	0.8666666666666667	89.0	-70.0	0.1333333333333333	16.0	2.0	2.0	-1.77024817397956	0.51	n/a	stim	poldrack-single-stim	s585	False	1
448.788	0.549	449.337	2.5717837907042456	end_round	0.549	columbia_card_task_fmri	15.0	0.8571428571428572	71.0	-70.0	0.1428571428571428	16.0	3.0	2.0	-0.9209282997813588	0.549	2.0	stim	poldrack-single-stim	s585	False	1
450.095	1.5	449.344	n/a	-1.0	2.318	columbia_card_task_fmri	n/a	n/a	-1.0	n/a	n/a	n/a	n/a	n/a	n/a	n/a	n/a	ITI	poldrack-single-stim	s585	False	0
451.669	0.572	452.241	3.089640933561388	draw_card	0.572	columbia_card_task_fmri	16.0	0.875	89.0	-85.0	0.125	16.0	1.0	2.0	2.737728052727281	0.572	n/a	stim	poldrack-single-stim	s585	False	1
452.246	0.84	453.086	2.247974266894721	draw_card	0.84	columbia_card_task_fmri	16.0	0.8666666666666667	89.0	-85.0	0.1333333333333333	16.0	2.0	2.0	3.66848276540728	0.84	n/a	stim	poldrack-single-stim	s585	False	1
453.092	0.738	453.83	1.2860695049899606	draw_card	0.738	columbia_card_task_fmri	16.0	0.8571428571428572	89.0	-85.0	0.1428571428571428	16.0	3.0	2.0	4.6776885627150655	0.738	3.0	stim	poldrack-single-stim	s585	False	0
454.586	1.5	453.835	n/a	-1.0	2.318	columbia_card_task_fmri	n/a	n/a	-1.0	n/a	n/a	n/a	n/a	n/a	n/a	n/a	n/a	ITI	poldrack-single-stim	s585	False	0
