onset	duration	movement_onset	CTI	block_duration	correct	correct_response	cue	cue_switch	experiment_exp_id	key_press	response_time	stim_color	stim_number	switch_type	task	task_switch	trial_id	trial_type	worker_id	first_trial_of_block	junk
3.624	1.0	4.672	0.1	2.136	True	89.0	High-Low	n/a	twobytwo	89.0	0.948	blue	6.0	task_switch	magnitude	switch	stim	poldrack-single-stim	s585	1	False
5.866	1.0	6.913	0.1	2.68	True	89.0	High-Low	stay	twobytwo	89.0	0.947	blue	7.0	cue_stay	magnitude	stay	stim	poldrack-single-stim	s585	0	False
9.451	1.0	11.019	0.9	2.544	True	89.0	Magnitude	switch	twobytwo	89.0	0.668	orange	8.0	cue_switch	magnitude	stay	stim	poldrack-single-stim	s585	0	False
12.902	1.0	14.226	0.9	2.272	True	71.0	High-Low	switch	twobytwo	71.0	0.424	orange	2.0	cue_switch	magnitude	stay	stim	poldrack-single-stim	s585	0	False
15.286	1.0	16.194	0.1	2.272	True	71.0	Magnitude	switch	twobytwo	71.0	0.808	orange	1.0	cue_switch	magnitude	stay	stim	poldrack-single-stim	s585	0	False
18.467	1.0	20.087	0.9	2.408	True	89.0	Orange-Blue	n/a	twobytwo	89.0	0.72	blue	1.0	task_switch	color	switch	stim	poldrack-single-stim	s585	0	False
21.78	1.0	23.318	0.9	2.136	True	89.0	Orange-Blue	stay	twobytwo	89.0	0.638	blue	7.0	cue_stay	color	stay	stim	poldrack-single-stim	s585	0	False
24.023	1.0	25.097	0.1	2.272	True	71.0	High-Low	n/a	twobytwo	71.0	0.974	blue	2.0	task_switch	magnitude	switch	stim	poldrack-single-stim	s585	0	False
26.401	1.0	27.32	0.1	2.0	True	89.0	Magnitude	switch	twobytwo	89.0	0.819	orange	7.0	cue_switch	magnitude	stay	stim	poldrack-single-stim	s585	0	False
28.51	1.0	29.387	0.1	2.136	True	71.0	High-Low	switch	twobytwo	71.0	0.777	orange	1.0	cue_switch	magnitude	stay	stim	poldrack-single-stim	s585	0	False
30.753	1.0	31.631	0.1	2.272	True	89.0	High-Low	stay	twobytwo	89.0	0.778	orange	7.0	cue_stay	magnitude	stay	stim	poldrack-single-stim	s585	0	False
33.929	1.0	35.279	0.9	2.0	True	89.0	Orange-Blue	n/a	twobytwo	89.0	0.45	blue	4.0	task_switch	color	switch	stim	poldrack-single-stim	s585	0	False
36.036	1.0	37.117	0.1	2.68	True	89.0	Magnitude	n/a	twobytwo	89.0	0.981	blue	7.0	task_switch	magnitude	switch	stim	poldrack-single-stim	s585	0	False
38.82	1.0	39.685	0.1	2.0	True	71.0	High-Low	switch	twobytwo	71.0	0.765	blue	3.0	cue_switch	magnitude	stay	stim	poldrack-single-stim	s585	0	False
40.924	1.0	42.047	0.1	2.0	True	89.0	Orange-Blue	n/a	twobytwo	89.0	1.023	blue	3.0	task_switch	color	switch	stim	poldrack-single-stim	s585	0	False
43.831	1.0	45.408	0.9	2.0	True	89.0	Orange-Blue	stay	twobytwo	89.0	0.677	blue	8.0	cue_stay	color	stay	stim	poldrack-single-stim	s585	0	False
46.735	1.0	48.274	0.9	2.272	True	89.0	High-Low	n/a	twobytwo	89.0	0.639	blue	7.0	task_switch	magnitude	switch	stim	poldrack-single-stim	s585	0	False
49.117	1.0	50.015	0.1	2.0	False	89.0	Color	n/a	twobytwo	71.0	0.798	blue	1.0	task_switch	color	switch	stim	poldrack-single-stim	s585	0	False
51.223	1.0	52.147	0.1	2.0	True	71.0	High-Low	n/a	twobytwo	71.0	0.824	blue	1.0	task_switch	magnitude	switch	stim	poldrack-single-stim	s585	0	False
54.135	1.0	55.443	0.9	2.0	False	71.0	Orange-Blue	n/a	twobytwo	89.0	0.408	orange	1.0	task_switch	color	switch	stim	poldrack-single-stim	s585	0	False
56.24	1.0	57.242	0.1	2.68	True	71.0	Orange-Blue	stay	twobytwo	71.0	0.902	orange	1.0	cue_stay	color	stay	stim	poldrack-single-stim	s585	0	False
59.032	1.0	59.839	0.1	2.0	True	89.0	Orange-Blue	stay	twobytwo	89.0	0.707	blue	8.0	cue_stay	color	stay	stim	poldrack-single-stim	s585	0	False
61.936	1.0	63.353	0.9	2.136	True	71.0	High-Low	n/a	twobytwo	71.0	0.517	orange	1.0	task_switch	magnitude	switch	stim	poldrack-single-stim	s585	0	False
64.981	1.0	66.549	0.9	2.408	True	89.0	Magnitude	switch	twobytwo	89.0	0.668	blue	8.0	cue_switch	magnitude	stay	stim	poldrack-single-stim	s585	0	False
67.497	1.0	68.387	0.1	2.136	True	71.0	Magnitude	stay	twobytwo	71.0	0.79	orange	1.0	cue_stay	magnitude	stay	stim	poldrack-single-stim	s585	0	False
70.541	1.0	72.345	0.9	2.0	False	71.0	Magnitude	stay	twobytwo	89.0	0.904	blue	1.0	cue_stay	magnitude	stay	stim	poldrack-single-stim	s585	0	False
73.444	1.0	75.481	0.9	2.0	True	89.0	Orange-Blue	n/a	twobytwo	89.0	1.137	blue	2.0	task_switch	color	switch	stim	poldrack-single-stim	s585	0	False
76.35	1.0	78.146	0.9	2.544	False	89.0	Magnitude	n/a	twobytwo	71.0	0.896	orange	6.0	task_switch	magnitude	switch	stim	poldrack-single-stim	s585	0	False
78.998	1.0	80.048	0.1	2.136	True	89.0	Magnitude	stay	twobytwo	89.0	0.95	orange	9.0	cue_stay	magnitude	stay	stim	poldrack-single-stim	s585	0	False
81.24	1.0	82.158	0.1	2.544	True	71.0	Magnitude	stay	twobytwo	71.0	0.818	orange	1.0	cue_stay	magnitude	stay	stim	poldrack-single-stim	s585	0	False
84.689	1.0	86.161	0.9	2.68	True	71.0	Orange-Blue	n/a	twobytwo	71.0	0.572	orange	6.0	task_switch	color	switch	stim	poldrack-single-stim	s585	0	False
88.275	1.0	89.674	0.9	2.0	True	89.0	Color	switch	twobytwo	89.0	0.499	blue	1.0	cue_switch	color	stay	stim	poldrack-single-stim	s585	0	False
91.184	1.0	92.611	0.9	2.272	True	71.0	Magnitude	n/a	twobytwo	71.0	0.527	blue	1.0	task_switch	magnitude	switch	stim	poldrack-single-stim	s585	0	False
93.566	1.0	94.9	0.1	3.088	True	89.0	Orange-Blue	n/a	twobytwo	89.0	1.234	blue	1.0	task_switch	color	switch	stim	poldrack-single-stim	s585	0	False
97.566	1.0	98.924	0.9	2.0	True	71.0	High-Low	n/a	twobytwo	71.0	0.458	orange	2.0	task_switch	magnitude	switch	stim	poldrack-single-stim	s585	0	False
99.675	1.0	100.74	0.1	2.136	True	71.0	High-Low	stay	twobytwo	71.0	0.965	blue	4.0	cue_stay	magnitude	stay	stim	poldrack-single-stim	s585	0	False
102.716	1.0	104.237	0.9	2.136	True	89.0	Orange-Blue	n/a	twobytwo	89.0	0.621	blue	7.0	task_switch	color	switch	stim	poldrack-single-stim	s585	0	False
104.958	1.0	106.277	0.1	2.0	False	89.0	Orange-Blue	stay	twobytwo	71.0	1.219	blue	3.0	cue_stay	color	stay	stim	poldrack-single-stim	s585	0	False
107.065	1.0	108.744	0.1	2.272	True	89.0	Color	switch	twobytwo	89.0	1.579	blue	2.0	cue_switch	color	stay	stim	poldrack-single-stim	s585	0	False
109.444	1.0	110.589	0.1	2.0	True	89.0	High-Low	n/a	twobytwo	89.0	1.045	blue	7.0	task_switch	magnitude	switch	stim	poldrack-single-stim	s585	0	False
112.348	1.0	113.843	0.9	2.136	True	89.0	Color	n/a	twobytwo	89.0	0.595	blue	4.0	task_switch	color	switch	stim	poldrack-single-stim	s585	0	False
114.588	1.0	115.524	0.1	2.136	True	71.0	Magnitude	n/a	twobytwo	71.0	0.836	orange	2.0	task_switch	magnitude	switch	stim	poldrack-single-stim	s585	0	False
116.831	1.0	117.805	0.1	2.544	True	89.0	Magnitude	stay	twobytwo	89.0	0.874	blue	7.0	cue_stay	magnitude	stay	stim	poldrack-single-stim	s585	0	False
119.482	1.0	120.633	0.1	2.0	False	71.0	Orange-Blue	n/a	twobytwo	89.0	1.051	orange	8.0	task_switch	color	switch	stim	poldrack-single-stim	s585	0	False
121.591	1.0	122.665	0.1	2.136	True	89.0	Orange-Blue	stay	twobytwo	89.0	0.974	blue	3.0	cue_stay	color	stay	stim	poldrack-single-stim	s585	0	False
124.631	1.0	126.123	0.9	2.136	True	71.0	Magnitude	n/a	twobytwo	71.0	0.592	blue	3.0	task_switch	magnitude	switch	stim	poldrack-single-stim	s585	0	False
127.674	1.0	129.049	0.9	2.136	True	89.0	Color	n/a	twobytwo	89.0	0.475	blue	3.0	task_switch	color	switch	stim	poldrack-single-stim	s585	0	False
130.719	1.0	132.227	0.9	2.0	True	89.0	High-Low	n/a	twobytwo	89.0	0.608	blue	9.0	task_switch	magnitude	switch	stim	poldrack-single-stim	s585	0	False
132.829	1.0	134.019	0.1	2.136	True	71.0	Orange-Blue	n/a	twobytwo	71.0	1.09	orange	8.0	task_switch	color	switch	stim	poldrack-single-stim	s585	0	False
135.872	1.0	137.244	0.9	2.0	True	89.0	Orange-Blue	stay	twobytwo	89.0	0.472	blue	2.0	cue_stay	color	stay	stim	poldrack-single-stim	s585	0	False
137.977	1.0	138.876	0.1	2.136	True	89.0	Color	switch	twobytwo	89.0	0.799	blue	4.0	cue_switch	color	stay	stim	poldrack-single-stim	s585	0	False
141.024	1.0	142.349	0.9	2.816	True	89.0	High-Low	n/a	twobytwo	89.0	0.425	orange	7.0	task_switch	magnitude	switch	stim	poldrack-single-stim	s585	0	False
143.951	1.0	144.991	0.1	2.136	True	89.0	High-Low	stay	twobytwo	89.0	0.94	orange	9.0	cue_stay	magnitude	stay	stim	poldrack-single-stim	s585	0	False
146.197	1.0	147.0	0.1	2.0	True	89.0	High-Low	stay	twobytwo	89.0	0.703	orange	8.0	cue_stay	magnitude	stay	stim	poldrack-single-stim	s585	0	False
148.302	1.0	149.42	0.1	2.0	True	89.0	Color	n/a	twobytwo	89.0	1.018	blue	1.0	task_switch	color	switch	stim	poldrack-single-stim	s585	0	False
151.211	1.0	152.651	0.9	2.272	True	89.0	Color	stay	twobytwo	89.0	0.54	blue	6.0	cue_stay	color	stay	stim	poldrack-single-stim	s585	0	False
154.39	1.0	155.774	0.9	2.0	True	89.0	Magnitude	n/a	twobytwo	89.0	0.484	orange	7.0	task_switch	magnitude	switch	stim	poldrack-single-stim	s585	0	False
156.496	1.0	157.49	0.1	2.0	True	89.0	Color	n/a	twobytwo	89.0	0.894	blue	2.0	task_switch	color	switch	stim	poldrack-single-stim	s585	0	False
159.408	1.0	161.017	0.9	2.0	True	71.0	High-Low	n/a	twobytwo	71.0	0.709	orange	2.0	task_switch	magnitude	switch	stim	poldrack-single-stim	s585	0	False
162.313	1.0	163.717	0.9	2.408	True	89.0	Orange-Blue	n/a	twobytwo	89.0	0.504	blue	6.0	task_switch	color	switch	stim	poldrack-single-stim	s585	0	False
165.627	1.0	167.022	0.9	2.272	True	89.0	Orange-Blue	stay	twobytwo	89.0	0.495	blue	8.0	cue_stay	color	stay	stim	poldrack-single-stim	s585	0	False
168.003	1.0	169.083	0.1	2.136	True	89.0	Magnitude	n/a	twobytwo	89.0	0.98	orange	9.0	task_switch	magnitude	switch	stim	poldrack-single-stim	s585	0	False
170.246	1.0	171.525	0.1	2.0	True	71.0	High-Low	switch	twobytwo	71.0	1.179	orange	3.0	cue_switch	magnitude	stay	stim	poldrack-single-stim	s585	0	False
172.353	1.0	173.235	0.1	2.0	True	89.0	Color	n/a	twobytwo	89.0	0.782	blue	7.0	task_switch	color	switch	stim	poldrack-single-stim	s585	0	False
175.257	1.0	176.906	0.9	2.136	False	71.0	Magnitude	n/a	twobytwo	89.0	0.749	blue	4.0	task_switch	magnitude	switch	stim	poldrack-single-stim	s585	0	False
177.5	1.0	178.467	0.1	2.0	True	71.0	Color	n/a	twobytwo	71.0	0.867	orange	1.0	task_switch	color	switch	stim	poldrack-single-stim	s585	0	False
179.605	1.0	180.564	0.1	2.136	True	71.0	Magnitude	n/a	twobytwo	71.0	0.859	orange	1.0	task_switch	magnitude	switch	stim	poldrack-single-stim	s585	0	False
181.849	1.0	182.657	0.1	2.408	True	89.0	Magnitude	stay	twobytwo	89.0	0.708	blue	9.0	cue_stay	magnitude	stay	stim	poldrack-single-stim	s585	0	False
185.161	1.0	186.461	0.9	2.136	True	89.0	Color	n/a	twobytwo	89.0	0.4	blue	1.0	task_switch	color	switch	stim	poldrack-single-stim	s585	0	False
187.404	1.0	188.321	0.1	2.0	True	71.0	Magnitude	n/a	twobytwo	71.0	0.817	blue	2.0	task_switch	magnitude	switch	stim	poldrack-single-stim	s585	0	False
190.307	1.0	192.007	0.9	2.136	True	89.0	Orange-Blue	n/a	twobytwo	89.0	0.8	blue	1.0	task_switch	color	switch	stim	poldrack-single-stim	s585	0	False
193.346	1.0	194.697	0.9	2.272	True	89.0	Orange-Blue	stay	twobytwo	89.0	0.451	blue	7.0	cue_stay	color	stay	stim	poldrack-single-stim	s585	0	False
195.73	1.0	196.817	0.1	2.0	True	71.0	Magnitude	n/a	twobytwo	71.0	0.987	blue	4.0	task_switch	magnitude	switch	stim	poldrack-single-stim	s585	0	False
197.839	1.0	198.992	0.1	2.408	True	71.0	Color	n/a	twobytwo	71.0	1.053	orange	8.0	task_switch	color	switch	stim	poldrack-single-stim	s585	0	False
200.354	1.0	201.361	0.1	2.0	True	89.0	Orange-Blue	switch	twobytwo	89.0	0.907	blue	9.0	cue_switch	color	stay	stim	poldrack-single-stim	s585	0	False
202.463	1.0	203.569	0.1	2.136	True	89.0	Magnitude	n/a	twobytwo	89.0	1.006	orange	6.0	task_switch	magnitude	switch	stim	poldrack-single-stim	s585	0	False
204.704	1.0	205.905	0.1	2.408	True	89.0	Color	n/a	twobytwo	89.0	1.101	blue	6.0	task_switch	color	switch	stim	poldrack-single-stim	s585	0	False
207.221	1.0	208.228	0.1	2.136	True	71.0	Magnitude	n/a	twobytwo	71.0	0.907	orange	2.0	task_switch	magnitude	switch	stim	poldrack-single-stim	s585	0	False
210.261	1.0	211.678	0.9	2.408	True	89.0	Color	n/a	twobytwo	89.0	0.517	blue	6.0	task_switch	color	switch	stim	poldrack-single-stim	s585	0	False
212.772	1.0	213.651	0.1	2.136	True	71.0	Magnitude	n/a	twobytwo	71.0	0.779	blue	1.0	task_switch	magnitude	switch	stim	poldrack-single-stim	s585	0	False
228.533	1.0	229.501	0.1	2.0	True	89.0	Magnitude	n/a	twobytwo	89.0	0.868	blue	6.0	task_switch	magnitude	switch	stim	poldrack-single-stim	s585	1	False
230.638	1.0	231.486	0.1	2.272	True	89.0	Magnitude	stay	twobytwo	89.0	0.748	blue	7.0	cue_stay	magnitude	stay	stim	poldrack-single-stim	s585	0	False
233.82	1.0	235.384	0.9	2.0	True	89.0	High-Low	switch	twobytwo	89.0	0.664	orange	8.0	cue_switch	magnitude	stay	stim	poldrack-single-stim	s585	0	False
236.728	1.0	238.331	0.9	2.272	True	71.0	Magnitude	switch	twobytwo	71.0	0.703	orange	2.0	cue_switch	magnitude	stay	stim	poldrack-single-stim	s585	0	False
239.106	1.0	240.142	0.1	2.272	True	71.0	High-Low	switch	twobytwo	71.0	0.936	orange	1.0	cue_switch	magnitude	stay	stim	poldrack-single-stim	s585	0	False
242.283	1.0	243.733	0.9	2.952	True	89.0	Orange-Blue	n/a	twobytwo	89.0	0.55	blue	1.0	task_switch	color	switch	stim	poldrack-single-stim	s585	0	False
246.146	1.0	247.671	0.9	2.68	True	89.0	Orange-Blue	stay	twobytwo	89.0	0.625	blue	7.0	cue_stay	color	stay	stim	poldrack-single-stim	s585	0	False
248.935	1.0	250.22	0.1	2.136	True	71.0	Magnitude	n/a	twobytwo	71.0	1.185	blue	2.0	task_switch	magnitude	switch	stim	poldrack-single-stim	s585	0	False
251.182	1.0	252.162	0.1	2.272	True	89.0	High-Low	switch	twobytwo	89.0	0.88	orange	7.0	cue_switch	magnitude	stay	stim	poldrack-single-stim	s585	0	False
253.561	1.0	254.516	0.1	2.272	True	71.0	Magnitude	switch	twobytwo	71.0	0.855	orange	1.0	cue_switch	magnitude	stay	stim	poldrack-single-stim	s585	0	False
255.942	1.0	257.12	0.1	2.136	True	89.0	Magnitude	stay	twobytwo	89.0	1.078	orange	7.0	cue_stay	magnitude	stay	stim	poldrack-single-stim	s585	0	False
258.983	1.0	260.393	0.9	2.408	True	89.0	Color	n/a	twobytwo	89.0	0.51	blue	4.0	task_switch	color	switch	stim	poldrack-single-stim	s585	0	False
261.495	1.0	262.676	0.1	2.136	True	89.0	High-Low	n/a	twobytwo	89.0	1.081	blue	7.0	task_switch	magnitude	switch	stim	poldrack-single-stim	s585	0	False
263.74	1.0	264.69	0.1	2.136	True	71.0	Magnitude	switch	twobytwo	71.0	0.85	blue	3.0	cue_switch	magnitude	stay	stim	poldrack-single-stim	s585	0	False
265.984	1.0	266.996	0.1	2.0	True	89.0	Orange-Blue	n/a	twobytwo	89.0	0.912	blue	3.0	task_switch	color	switch	stim	poldrack-single-stim	s585	0	False
268.895	1.0	270.404	0.9	2.0	True	89.0	Orange-Blue	stay	twobytwo	89.0	0.609	blue	8.0	cue_stay	color	stay	stim	poldrack-single-stim	s585	0	False
271.806	1.0	273.478	0.9	2.0	True	89.0	High-Low	n/a	twobytwo	89.0	0.772	blue	7.0	task_switch	magnitude	switch	stim	poldrack-single-stim	s585	0	False
273.909	1.0	274.899	0.1	2.0	False	89.0	Orange-Blue	n/a	twobytwo	71.0	0.89	blue	1.0	task_switch	color	switch	stim	poldrack-single-stim	s585	0	False
276.015	1.0	277.199	0.1	2.0	True	71.0	High-Low	n/a	twobytwo	71.0	1.084	blue	1.0	task_switch	magnitude	switch	stim	poldrack-single-stim	s585	0	False
278.922	1.0	280.564	0.9	2.272	True	71.0	Color	n/a	twobytwo	71.0	0.742	orange	1.0	task_switch	color	switch	stim	poldrack-single-stim	s585	0	False
281.303	1.0	282.464	0.1	2.408	True	71.0	Color	stay	twobytwo	71.0	1.061	orange	1.0	cue_stay	color	stay	stim	poldrack-single-stim	s585	0	False
283.818	1.0	284.664	0.1	2.0	True	89.0	Color	stay	twobytwo	89.0	0.746	blue	8.0	cue_stay	color	stay	stim	poldrack-single-stim	s585	0	False
286.727	1.0	288.345	0.9	2.136	True	71.0	High-Low	n/a	twobytwo	71.0	0.718	orange	1.0	task_switch	magnitude	switch	stim	poldrack-single-stim	s585	0	False
289.769	1.0	291.209	0.9	2.0	True	89.0	Magnitude	switch	twobytwo	89.0	0.54	blue	8.0	cue_switch	magnitude	stay	stim	poldrack-single-stim	s585	0	False
291.874	1.0	292.789	0.1	2.136	True	71.0	Magnitude	stay	twobytwo	71.0	0.815	orange	1.0	cue_stay	magnitude	stay	stim	poldrack-single-stim	s585	0	False
294.917	1.0	296.48	0.9	2.544	True	71.0	Magnitude	stay	twobytwo	71.0	0.663	blue	1.0	cue_stay	magnitude	stay	stim	poldrack-single-stim	s585	0	False
298.371	1.0	299.739	0.9	2.68	True	89.0	Orange-Blue	n/a	twobytwo	89.0	0.468	blue	2.0	task_switch	color	switch	stim	poldrack-single-stim	s585	0	False
301.957	1.0	303.703	0.9	3.088	False	89.0	Magnitude	n/a	twobytwo	71.0	0.846	orange	6.0	task_switch	magnitude	switch	stim	poldrack-single-stim	s585	0	False
305.156	1.0	306.468	0.1	2.136	True	89.0	Magnitude	stay	twobytwo	89.0	1.212	orange	9.0	cue_stay	magnitude	stay	stim	poldrack-single-stim	s585	0	False
307.398	1.0	308.386	0.1	2.544	True	71.0	Magnitude	stay	twobytwo	71.0	0.888	orange	1.0	cue_stay	magnitude	stay	stim	poldrack-single-stim	s585	0	False
310.851	1.0	312.184	0.9	2.0	True	71.0	Orange-Blue	n/a	twobytwo	71.0	0.433	orange	6.0	task_switch	color	switch	stim	poldrack-single-stim	s585	0	False
313.758	1.0	315.321	0.9	2.136	True	89.0	Color	switch	twobytwo	89.0	0.663	blue	1.0	cue_switch	color	stay	stim	poldrack-single-stim	s585	0	False
316.802	1.0	318.185	0.9	2.0	True	71.0	Magnitude	n/a	twobytwo	71.0	0.483	blue	1.0	task_switch	magnitude	switch	stim	poldrack-single-stim	s585	0	False
318.91	1.0	319.944	0.1	2.408	False	89.0	Orange-Blue	n/a	twobytwo	71.0	0.934	blue	1.0	task_switch	color	switch	stim	poldrack-single-stim	s585	0	False
322.227	1.0	323.612	0.9	2.0	True	71.0	High-Low	n/a	twobytwo	71.0	0.485	orange	2.0	task_switch	magnitude	switch	stim	poldrack-single-stim	s585	0	False
324.337	1.0	325.303	0.1	2.0	False	71.0	High-Low	stay	twobytwo	89.0	0.866	blue	4.0	cue_stay	magnitude	stay	stim	poldrack-single-stim	s585	0	False
327.244	1.0	328.934	0.9	2.0	True	89.0	Orange-Blue	n/a	twobytwo	89.0	0.79	blue	7.0	task_switch	color	switch	stim	poldrack-single-stim	s585	0	False
329.352	1.0	330.535	0.1	2.68	True	89.0	Orange-Blue	stay	twobytwo	89.0	1.083	blue	3.0	cue_stay	color	stay	stim	poldrack-single-stim	s585	0	False
332.14	1.0	333.032	0.1	2.272	True	89.0	Color	switch	twobytwo	89.0	0.792	blue	2.0	cue_switch	color	stay	stim	poldrack-single-stim	s585	0	False
334.516	1.0	335.487	0.1	2.408	True	89.0	Magnitude	n/a	twobytwo	89.0	0.871	blue	7.0	task_switch	magnitude	switch	stim	poldrack-single-stim	s585	0	False
337.828	1.0	339.237	0.9	3.224	True	89.0	Color	n/a	twobytwo	89.0	0.509	blue	4.0	task_switch	color	switch	stim	poldrack-single-stim	s585	0	False
341.156	1.0	342.088	0.1	2.408	True	71.0	Magnitude	n/a	twobytwo	71.0	0.832	orange	2.0	task_switch	magnitude	switch	stim	poldrack-single-stim	s585	0	False
343.671	1.0	344.58	0.1	2.816	True	89.0	Magnitude	stay	twobytwo	89.0	0.809	blue	7.0	cue_stay	magnitude	stay	stim	poldrack-single-stim	s585	0	False
346.598	1.0	347.591	0.1	2.408	True	71.0	Color	n/a	twobytwo	71.0	0.893	orange	8.0	task_switch	color	switch	stim	poldrack-single-stim	s585	0	False
349.113	1.0	350.03	0.1	2.136	True	89.0	Color	stay	twobytwo	89.0	0.817	blue	3.0	cue_stay	color	stay	stim	poldrack-single-stim	s585	0	False
352.156	1.0	353.582	0.9	2.136	True	71.0	High-Low	n/a	twobytwo	71.0	0.526	blue	3.0	task_switch	magnitude	switch	stim	poldrack-single-stim	s585	0	False
355.202	1.0	356.607	0.9	2.0	True	89.0	Color	n/a	twobytwo	89.0	0.505	blue	3.0	task_switch	color	switch	stim	poldrack-single-stim	s585	0	False
358.109	1.0	359.918	0.9	2.0	True	89.0	High-Low	n/a	twobytwo	89.0	0.909	blue	9.0	task_switch	magnitude	switch	stim	poldrack-single-stim	s585	0	False
360.215	1.0	361.051	0.1	2.272	True	71.0	Color	n/a	twobytwo	71.0	0.736	orange	8.0	task_switch	color	switch	stim	poldrack-single-stim	s585	0	False
363.391	1.0	365.089	0.9	2.408	True	89.0	Color	stay	twobytwo	89.0	0.798	blue	2.0	cue_stay	color	stay	stim	poldrack-single-stim	s585	0	False
365.906	1.0	366.79	0.1	2.0	True	89.0	Orange-Blue	switch	twobytwo	89.0	0.784	blue	4.0	cue_switch	color	stay	stim	poldrack-single-stim	s585	0	False
368.811	1.0	370.258	0.9	2.136	True	89.0	High-Low	n/a	twobytwo	89.0	0.547	orange	7.0	task_switch	magnitude	switch	stim	poldrack-single-stim	s585	0	False
371.053	1.0	372.23	0.1	2.0	True	89.0	High-Low	stay	twobytwo	89.0	1.077	orange	9.0	cue_stay	magnitude	stay	stim	poldrack-single-stim	s585	0	False
373.162	1.0	374.396	0.1	2.408	True	89.0	High-Low	stay	twobytwo	89.0	1.134	orange	8.0	cue_stay	magnitude	stay	stim	poldrack-single-stim	s585	0	False
375.683	1.0	376.765	0.1	2.272	True	89.0	Color	n/a	twobytwo	89.0	0.982	blue	1.0	task_switch	color	switch	stim	poldrack-single-stim	s585	0	False
378.861	1.0	380.313	0.9	2.0	True	89.0	Color	stay	twobytwo	89.0	0.552	blue	6.0	cue_stay	color	stay	stim	poldrack-single-stim	s585	0	False
381.765	1.0	383.807	0.9	2.272	True	89.0	High-Low	n/a	twobytwo	89.0	1.142	orange	7.0	task_switch	magnitude	switch	stim	poldrack-single-stim	s585	0	False
384.147	1.0	385.211	0.1	2.0	True	89.0	Color	n/a	twobytwo	89.0	0.964	blue	2.0	task_switch	color	switch	stim	poldrack-single-stim	s585	0	False
387.059	1.0	388.769	0.9	2.0	True	71.0	High-Low	n/a	twobytwo	71.0	0.81	orange	2.0	task_switch	magnitude	switch	stim	poldrack-single-stim	s585	0	False
389.966	1.0	391.387	0.9	2.272	True	89.0	Orange-Blue	n/a	twobytwo	89.0	0.521	blue	6.0	task_switch	color	switch	stim	poldrack-single-stim	s585	0	False
393.142	1.0	394.465	0.9	2.136	True	89.0	Orange-Blue	stay	twobytwo	89.0	0.423	blue	8.0	cue_stay	color	stay	stim	poldrack-single-stim	s585	0	False
395.39	1.0	396.473	0.1	2.0	True	89.0	High-Low	n/a	twobytwo	89.0	0.983	orange	9.0	task_switch	magnitude	switch	stim	poldrack-single-stim	s585	0	False
397.498	1.0	398.466	0.1	2.0	True	71.0	Magnitude	switch	twobytwo	71.0	0.868	orange	3.0	cue_switch	magnitude	stay	stim	poldrack-single-stim	s585	0	False
399.605	1.0	400.797	0.1	2.0	True	89.0	Orange-Blue	n/a	twobytwo	89.0	1.092	blue	7.0	task_switch	color	switch	stim	poldrack-single-stim	s585	0	False
402.512	1.0	404.027	0.9	2.0	True	71.0	High-Low	n/a	twobytwo	71.0	0.615	blue	4.0	task_switch	magnitude	switch	stim	poldrack-single-stim	s585	0	False
404.617	1.0	405.602	0.1	2.0	True	71.0	Color	n/a	twobytwo	71.0	0.885	orange	1.0	task_switch	color	switch	stim	poldrack-single-stim	s585	0	False
406.726	1.0	407.691	0.1	2.136	True	71.0	High-Low	n/a	twobytwo	71.0	0.865	orange	1.0	task_switch	magnitude	switch	stim	poldrack-single-stim	s585	0	False
408.969	1.0	410.083	0.1	2.0	True	89.0	High-Low	stay	twobytwo	89.0	1.014	blue	9.0	cue_stay	magnitude	stay	stim	poldrack-single-stim	s585	0	False
411.876	1.0	413.785	0.9	2.0	True	89.0	Color	n/a	twobytwo	89.0	1.009	blue	1.0	task_switch	color	switch	stim	poldrack-single-stim	s585	0	False
413.984	1.0	415.222	0.1	2.136	True	71.0	High-Low	n/a	twobytwo	71.0	1.138	blue	2.0	task_switch	magnitude	switch	stim	poldrack-single-stim	s585	0	False
417.028	1.0	418.366	0.9	2.0	True	89.0	Orange-Blue	n/a	twobytwo	89.0	0.438	blue	1.0	task_switch	color	switch	stim	poldrack-single-stim	s585	0	False
419.937	1.0	421.432	0.9	2.136	True	89.0	Orange-Blue	stay	twobytwo	89.0	0.595	blue	7.0	cue_stay	color	stay	stim	poldrack-single-stim	s585	0	False
422.178	1.0	423.175	0.1	2.68	True	71.0	Magnitude	n/a	twobytwo	71.0	0.897	blue	4.0	task_switch	magnitude	switch	stim	poldrack-single-stim	s585	0	False
424.966	1.0	426.363	0.1	2.272	False	71.0	Orange-Blue	n/a	twobytwo	89.0	1.297	orange	8.0	task_switch	color	switch	stim	poldrack-single-stim	s585	0	False
427.349	1.0	428.359	0.1	2.136	True	89.0	Color	switch	twobytwo	89.0	0.91	blue	9.0	cue_switch	color	stay	stim	poldrack-single-stim	s585	0	False
429.591	1.0	430.761	0.1	2.0	True	89.0	Magnitude	n/a	twobytwo	89.0	1.07	orange	6.0	task_switch	magnitude	switch	stim	poldrack-single-stim	s585	0	False
431.698	1.0	432.935	0.1	2.136	True	89.0	Orange-Blue	n/a	twobytwo	89.0	1.137	blue	6.0	task_switch	color	switch	stim	poldrack-single-stim	s585	0	False
433.938	1.0	434.858	0.1	2.68	True	71.0	High-Low	n/a	twobytwo	71.0	0.82	orange	2.0	task_switch	magnitude	switch	stim	poldrack-single-stim	s585	0	False
437.524	1.0	438.999	0.9	2.272	True	89.0	Orange-Blue	n/a	twobytwo	89.0	0.575	blue	6.0	task_switch	color	switch	stim	poldrack-single-stim	s585	0	False
439.905	1.0	440.787	0.1	2.0	True	71.0	High-Low	n/a	twobytwo	71.0	0.782	blue	1.0	task_switch	magnitude	switch	stim	poldrack-single-stim	s585	0	False
455.531	1.0	456.495	0.1	2.0	True	89.0	Color	n/a	twobytwo	89.0	0.864	blue	6.0	task_switch	color	switch	stim	poldrack-single-stim	s585	1	False
457.636	1.0	458.535	0.1	2.136	True	89.0	Color	stay	twobytwo	89.0	0.799	blue	7.0	cue_stay	color	stay	stim	poldrack-single-stim	s585	0	False
460.678	1.0	462.094	0.9	2.0	True	71.0	Orange-Blue	switch	twobytwo	71.0	0.516	orange	8.0	cue_switch	color	stay	stim	poldrack-single-stim	s585	0	False
463.589	1.0	464.887	0.9	2.0	True	71.0	Color	switch	twobytwo	71.0	0.398	orange	2.0	cue_switch	color	stay	stim	poldrack-single-stim	s585	0	False
465.696	1.0	467.021	0.1	2.0	True	71.0	Orange-Blue	switch	twobytwo	71.0	1.225	orange	1.0	cue_switch	color	stay	stim	poldrack-single-stim	s585	0	False
468.603	1.0	470.063	0.9	2.272	True	71.0	High-Low	n/a	twobytwo	71.0	0.56	blue	1.0	task_switch	magnitude	switch	stim	poldrack-single-stim	s585	0	False
471.784	1.0	473.332	0.9	2.408	True	89.0	High-Low	stay	twobytwo	89.0	0.648	blue	7.0	cue_stay	magnitude	stay	stim	poldrack-single-stim	s585	0	False
474.299	1.0	475.391	0.1	2.0	True	89.0	Orange-Blue	n/a	twobytwo	89.0	0.992	blue	2.0	task_switch	color	switch	stim	poldrack-single-stim	s585	0	False
476.406	1.0	477.288	0.1	2.0	True	71.0	Color	switch	twobytwo	71.0	0.782	orange	7.0	cue_switch	color	stay	stim	poldrack-single-stim	s585	0	False
478.513	1.0	479.388	0.1	2.0	True	71.0	Orange-Blue	switch	twobytwo	71.0	0.775	orange	1.0	cue_switch	color	stay	stim	poldrack-single-stim	s585	0	False
480.62	1.0	481.68	0.1	2.272	True	71.0	Orange-Blue	stay	twobytwo	71.0	0.96	orange	7.0	cue_stay	color	stay	stim	poldrack-single-stim	s585	0	False
483.796	1.0	485.426	0.9	2.136	False	71.0	High-Low	n/a	twobytwo	89.0	0.73	blue	4.0	task_switch	magnitude	switch	stim	poldrack-single-stim	s585	0	False
486.041	1.0	487.178	0.1	2.0	True	89.0	Color	n/a	twobytwo	89.0	1.037	blue	7.0	task_switch	color	switch	stim	poldrack-single-stim	s585	0	False
488.147	1.0	489.136	0.1	2.544	True	89.0	Orange-Blue	switch	twobytwo	89.0	0.889	blue	3.0	cue_switch	color	stay	stim	poldrack-single-stim	s585	0	False
490.798	1.0	491.845	0.1	2.272	True	71.0	High-Low	n/a	twobytwo	71.0	0.947	blue	3.0	task_switch	magnitude	switch	stim	poldrack-single-stim	s585	0	False
493.98	1.0	495.354	0.9	2.272	True	89.0	High-Low	stay	twobytwo	89.0	0.474	blue	8.0	cue_stay	magnitude	stay	stim	poldrack-single-stim	s585	0	False
497.159	1.0	498.477	0.9	2.0	False	89.0	Color	n/a	twobytwo	71.0	0.418	blue	7.0	task_switch	color	switch	stim	poldrack-single-stim	s585	0	False
499.266	1.0	500.337	0.1	2.0	True	71.0	High-Low	n/a	twobytwo	71.0	0.971	blue	1.0	task_switch	magnitude	switch	stim	poldrack-single-stim	s585	0	False
501.373	1.0	502.457	0.1	2.136	False	89.0	Color	n/a	twobytwo	71.0	0.984	blue	1.0	task_switch	color	switch	stim	poldrack-single-stim	s585	0	False
504.412	1.0	506.167	0.9	2.0	True	71.0	High-Low	n/a	twobytwo	71.0	0.855	orange	1.0	task_switch	magnitude	switch	stim	poldrack-single-stim	s585	0	False
506.522	1.0	507.543	0.1	2.136	True	71.0	High-Low	stay	twobytwo	71.0	0.921	orange	1.0	cue_stay	magnitude	stay	stim	poldrack-single-stim	s585	0	False
508.77	1.0	509.581	0.1	2.272	True	89.0	High-Low	stay	twobytwo	89.0	0.711	blue	8.0	cue_stay	magnitude	stay	stim	poldrack-single-stim	s585	0	False
511.947	1.0	513.282	0.9	2.136	True	71.0	Color	n/a	twobytwo	71.0	0.435	orange	1.0	task_switch	color	switch	stim	poldrack-single-stim	s585	0	False
514.994	1.0	516.415	0.9	2.272	True	89.0	Orange-Blue	switch	twobytwo	89.0	0.521	blue	8.0	cue_switch	color	stay	stim	poldrack-single-stim	s585	0	False
517.373	1.0	518.465	0.1	2.0	True	71.0	Orange-Blue	stay	twobytwo	71.0	0.992	orange	1.0	cue_stay	color	stay	stim	poldrack-single-stim	s585	0	False
520.28	1.0	521.58	0.9	2.816	True	89.0	Orange-Blue	stay	twobytwo	89.0	0.4	blue	1.0	cue_stay	color	stay	stim	poldrack-single-stim	s585	0	False
524.0	1.0	525.82	0.9	2.408	True	71.0	Magnitude	n/a	twobytwo	71.0	0.92	blue	2.0	task_switch	magnitude	switch	stim	poldrack-single-stim	s585	0	False
527.314	1.0	528.615	0.9	2.0	True	71.0	Orange-Blue	n/a	twobytwo	71.0	0.401	orange	6.0	task_switch	color	switch	stim	poldrack-single-stim	s585	0	False
529.422	1.0	530.584	0.1	2.544	True	71.0	Orange-Blue	stay	twobytwo	71.0	1.062	orange	9.0	cue_stay	color	stay	stim	poldrack-single-stim	s585	0	False
532.075	1.0	533.037	0.1	2.136	True	71.0	Orange-Blue	stay	twobytwo	71.0	0.862	orange	1.0	cue_stay	color	stay	stim	poldrack-single-stim	s585	0	False
535.123	1.0	536.618	0.9	2.0	True	89.0	Magnitude	n/a	twobytwo	89.0	0.595	orange	6.0	task_switch	magnitude	switch	stim	poldrack-single-stim	s585	0	False
538.029	1.0	539.678	0.9	2.0	True	71.0	High-Low	switch	twobytwo	71.0	0.749	blue	1.0	cue_switch	magnitude	stay	stim	poldrack-single-stim	s585	0	False
540.936	1.0	543.217	0.9	2.136	True	89.0	Color	n/a	twobytwo	89.0	1.381	blue	1.0	task_switch	color	switch	stim	poldrack-single-stim	s585	0	False
543.179	1.0	544.173	0.1	2.136	True	71.0	High-Low	n/a	twobytwo	71.0	0.894	blue	1.0	task_switch	magnitude	switch	stim	poldrack-single-stim	s585	0	False
546.221	1.0	547.65	0.9	2.272	True	71.0	Color	n/a	twobytwo	71.0	0.529	orange	2.0	task_switch	color	switch	stim	poldrack-single-stim	s585	0	False
548.598	1.0	549.809	0.1	3.224	True	89.0	Color	stay	twobytwo	89.0	1.111	blue	4.0	cue_stay	color	stay	stim	poldrack-single-stim	s585	0	False
552.734	1.0	554.245	0.9	2.0	True	89.0	Magnitude	n/a	twobytwo	89.0	0.611	blue	7.0	task_switch	magnitude	switch	stim	poldrack-single-stim	s585	0	False
554.84	1.0	554.839	0.1	2.0	False	71.0	Magnitude	stay	twobytwo	-1.0	n/a	blue	3.0	cue_stay	magnitude	stay	stim	poldrack-single-stim	s585	0	False
556.948	1.0	558.078	0.1	2.272	True	71.0	High-Low	switch	twobytwo	71.0	1.03	blue	2.0	cue_switch	magnitude	stay	stim	poldrack-single-stim	s585	0	False
559.324	1.0	560.406	0.1	2.136	True	89.0	Color	n/a	twobytwo	89.0	0.982	blue	7.0	task_switch	color	switch	stim	poldrack-single-stim	s585	0	False
562.366	1.0	563.81	0.9	2.0	True	71.0	Magnitude	n/a	twobytwo	71.0	0.544	blue	4.0	task_switch	magnitude	switch	stim	poldrack-single-stim	s585	0	False
564.472	1.0	565.282	0.1	2.0	True	71.0	Color	n/a	twobytwo	71.0	0.71	orange	2.0	task_switch	color	switch	stim	poldrack-single-stim	s585	0	False
566.579	1.0	567.592	0.1	2.0	True	89.0	Color	stay	twobytwo	89.0	0.913	blue	7.0	cue_stay	color	stay	stim	poldrack-single-stim	s585	0	False
568.689	1.0	569.742	0.1	2.68	True	89.0	High-Low	n/a	twobytwo	89.0	0.953	orange	8.0	task_switch	magnitude	switch	stim	poldrack-single-stim	s585	0	False
571.476	1.0	572.293	0.1	2.0	True	71.0	High-Low	stay	twobytwo	71.0	0.717	blue	3.0	cue_stay	magnitude	stay	stim	poldrack-single-stim	s585	0	False
574.384	1.0	575.8	0.9	2.272	True	89.0	Color	n/a	twobytwo	89.0	0.516	blue	3.0	task_switch	color	switch	stim	poldrack-single-stim	s585	0	False
577.567	1.0	579.733	0.9	2.0	True	71.0	High-Low	n/a	twobytwo	71.0	1.266	blue	3.0	task_switch	magnitude	switch	stim	poldrack-single-stim	s585	0	False
580.474	1.0	582.112	0.9	2.272	True	89.0	Color	n/a	twobytwo	89.0	0.738	blue	9.0	task_switch	color	switch	stim	poldrack-single-stim	s585	0	False
582.85	1.0	583.985	0.1	2.952	True	89.0	Magnitude	n/a	twobytwo	89.0	1.035	orange	8.0	task_switch	magnitude	switch	stim	poldrack-single-stim	s585	0	False
586.709	1.0	588.016	0.9	2.0	True	71.0	Magnitude	stay	twobytwo	71.0	0.407	blue	2.0	cue_stay	magnitude	stay	stim	poldrack-single-stim	s585	0	False
588.815	1.0	589.966	0.1	2.0	True	71.0	High-Low	switch	twobytwo	71.0	1.051	blue	4.0	cue_switch	magnitude	stay	stim	poldrack-single-stim	s585	0	False
591.719	1.0	593.142	0.9	2.0	True	71.0	Color	n/a	twobytwo	71.0	0.523	orange	7.0	task_switch	color	switch	stim	poldrack-single-stim	s585	0	False
593.829	1.0	595.059	0.1	2.0	False	71.0	Color	stay	twobytwo	89.0	1.13	orange	9.0	cue_stay	color	stay	stim	poldrack-single-stim	s585	0	False
595.937	1.0	596.86	0.1	2.136	True	71.0	Color	stay	twobytwo	71.0	0.823	orange	8.0	cue_stay	color	stay	stim	poldrack-single-stim	s585	0	False
598.181	1.0	599.429	0.1	2.0	True	71.0	High-Low	n/a	twobytwo	71.0	1.148	blue	1.0	task_switch	magnitude	switch	stim	poldrack-single-stim	s585	0	False
601.087	1.0	602.564	0.9	2.0	True	89.0	High-Low	stay	twobytwo	89.0	0.577	blue	6.0	cue_stay	magnitude	stay	stim	poldrack-single-stim	s585	0	False
603.995	1.0	605.458	0.9	2.0	True	71.0	Orange-Blue	n/a	twobytwo	71.0	0.563	orange	7.0	task_switch	color	switch	stim	poldrack-single-stim	s585	0	False
606.102	1.0	607.152	0.1	2.272	True	71.0	High-Low	n/a	twobytwo	71.0	0.95	blue	2.0	task_switch	magnitude	switch	stim	poldrack-single-stim	s585	0	False
609.282	1.0	610.631	0.9	2.136	True	71.0	Color	n/a	twobytwo	71.0	0.449	orange	2.0	task_switch	color	switch	stim	poldrack-single-stim	s585	0	False
612.325	1.0	613.848	0.9	2.0	True	89.0	Magnitude	n/a	twobytwo	89.0	0.623	blue	6.0	task_switch	magnitude	switch	stim	poldrack-single-stim	s585	0	False
615.23	1.0	616.866	0.9	2.136	True	89.0	Magnitude	stay	twobytwo	89.0	0.736	blue	8.0	cue_stay	magnitude	stay	stim	poldrack-single-stim	s585	0	False
617.472	1.0	618.405	0.1	2.816	True	71.0	Orange-Blue	n/a	twobytwo	71.0	0.833	orange	9.0	task_switch	color	switch	stim	poldrack-single-stim	s585	0	False
620.392	1.0	621.579	0.1	2.408	True	71.0	Color	switch	twobytwo	71.0	1.087	orange	3.0	cue_switch	color	stay	stim	poldrack-single-stim	s585	0	False
622.907	1.0	624.05	0.1	2.0	True	89.0	High-Low	n/a	twobytwo	89.0	1.043	blue	7.0	task_switch	magnitude	switch	stim	poldrack-single-stim	s585	0	False
625.817	1.0	627.296	0.9	2.136	True	89.0	Color	n/a	twobytwo	89.0	0.579	blue	4.0	task_switch	color	switch	stim	poldrack-single-stim	s585	0	False
628.057	1.0	629.223	0.1	2.136	True	71.0	High-Low	n/a	twobytwo	71.0	1.066	orange	1.0	task_switch	magnitude	switch	stim	poldrack-single-stim	s585	0	False
630.3	1.0	631.661	0.1	2.136	True	71.0	Orange-Blue	n/a	twobytwo	71.0	1.261	orange	1.0	task_switch	color	switch	stim	poldrack-single-stim	s585	0	False
632.545	1.0	633.383	0.1	2.544	True	89.0	Orange-Blue	stay	twobytwo	89.0	0.738	blue	9.0	cue_stay	color	stay	stim	poldrack-single-stim	s585	0	False
635.999	1.0	637.553	0.9	2.136	True	71.0	Magnitude	n/a	twobytwo	71.0	0.654	blue	1.0	task_switch	magnitude	switch	stim	poldrack-single-stim	s585	0	False
638.246	1.0	639.601	0.1	2.0	True	89.0	Color	n/a	twobytwo	89.0	1.255	blue	2.0	task_switch	color	switch	stim	poldrack-single-stim	s585	0	False
641.159	1.0	642.932	0.9	2.0	True	71.0	High-Low	n/a	twobytwo	71.0	0.873	blue	1.0	task_switch	magnitude	switch	stim	poldrack-single-stim	s585	0	False
644.067	1.0	646.049	0.9	2.0	True	89.0	High-Low	stay	twobytwo	89.0	1.082	blue	7.0	cue_stay	magnitude	stay	stim	poldrack-single-stim	s585	0	False
646.177	1.0	647.432	0.1	2.0	True	89.0	Orange-Blue	n/a	twobytwo	89.0	1.155	blue	4.0	task_switch	color	switch	stim	poldrack-single-stim	s585	0	False
648.283	1.0	649.474	0.1	2.136	True	89.0	Magnitude	n/a	twobytwo	89.0	1.091	orange	8.0	task_switch	magnitude	switch	stim	poldrack-single-stim	s585	0	False
650.529	1.0	651.85	0.1	2.0	True	89.0	High-Low	switch	twobytwo	89.0	1.221	blue	9.0	cue_switch	magnitude	stay	stim	poldrack-single-stim	s585	0	False
652.636	1.0	653.855	0.1	2.0	True	71.0	Orange-Blue	n/a	twobytwo	71.0	1.119	orange	6.0	task_switch	color	switch	stim	poldrack-single-stim	s585	0	False
654.748	1.0	655.957	0.1	2.0	True	89.0	Magnitude	n/a	twobytwo	89.0	1.109	blue	6.0	task_switch	magnitude	switch	stim	poldrack-single-stim	s585	0	False
656.854	1.0	657.844	0.1	2.136	True	71.0	Orange-Blue	n/a	twobytwo	71.0	0.89	orange	2.0	task_switch	color	switch	stim	poldrack-single-stim	s585	0	False
659.898	1.0	661.669	0.9	2.136	True	89.0	High-Low	n/a	twobytwo	89.0	0.871	blue	6.0	task_switch	magnitude	switch	stim	poldrack-single-stim	s585	0	False
662.138	1.0	663.569	0.1	2.136	True	89.0	Color	n/a	twobytwo	89.0	1.331	blue	1.0	task_switch	color	switch	stim	poldrack-single-stim	s585	0	False
