onset	duration	SS_delay	block_duration	correct	correct_response	experiment_exp_id	key_press	passed_check	response_time	stop_response	stopped	trial_id	trial_type	worker_id	junk
3.012	0.85	0.35	2.35	1.0	71.0	motor_selective_stop_signal	71.0	True	0.636	89.0	False	stim	noncrit_nosignal	s585	False
5.368	0.85	0.35	2.25	1.0	71.0	motor_selective_stop_signal	71.0	True	0.455	89.0	False	stim	noncrit_nosignal	s585	False
7.622	0.85	0.35	2.45	1.0	71.0	motor_selective_stop_signal	71.0	True	0.499	89.0	False	stim	noncrit_signal	s585	False
10.073	0.85	0.35	2.35	1.0	71.0	motor_selective_stop_signal	71.0	True	0.551	89.0	False	stim	noncrit_nosignal	s585	False
12.425	0.85	0.35	2.65	1.0	71.0	motor_selective_stop_signal	71.0	True	0.548	89.0	False	stim	noncrit_signal	s585	False
15.08	0.85	0.35	2.25	1.0	89.0	motor_selective_stop_signal	89.0	True	0.849	89.0	False	stim	crit_go	s585	False
17.336	0.85	0.35	2.25	1.0	89.0	motor_selective_stop_signal	89.0	True	0.67	89.0	False	stim	crit_stop_failure	s585	False
19.59	0.85	0.3	2.45	1.0	89.0	motor_selective_stop_signal	89.0	True	0.817	89.0	False	stim	crit_go	s585	False
22.043	0.85	0.3	2.25	1.0	89.0	motor_selective_stop_signal	89.0	True	1.015	89.0	False	stim	crit_go	s585	False
24.296	0.85	0.3	2.55	1.0	89.0	motor_selective_stop_signal	-1.0	True	n/a	89.0	True	stim	crit_stop_success	s585	False
26.852	0.85	0.35	2.25	1.0	89.0	motor_selective_stop_signal	89.0	True	0.677	89.0	False	stim	crit_go	s585	False
29.105	0.85	0.35	2.35	1.0	71.0	motor_selective_stop_signal	71.0	True	0.567	89.0	False	stim	noncrit_signal	s585	False
31.458	0.85	0.35	2.25	1.0	89.0	motor_selective_stop_signal	-1.0	True	n/a	89.0	True	stim	crit_stop_success	s585	False
33.715	0.85	0.4	2.55	1.0	89.0	motor_selective_stop_signal	89.0	True	0.98	89.0	False	stim	crit_stop_failure	s585	False
36.267	0.85	0.35	2.55	1.0	71.0	motor_selective_stop_signal	71.0	True	0.55	89.0	False	stim	noncrit_nosignal	s585	False
38.821	0.85	0.35	2.35	1.0	71.0	motor_selective_stop_signal	71.0	True	0.64	89.0	False	stim	noncrit_nosignal	s585	False
41.173	0.85	0.35	2.35	1.0	71.0	motor_selective_stop_signal	71.0	True	0.666	89.0	False	stim	noncrit_nosignal	s585	False
43.528	0.85	0.35	2.25	1.0	71.0	motor_selective_stop_signal	71.0	True	0.55	89.0	False	stim	noncrit_nosignal	s585	False
45.783	0.85	0.35	2.45	1.0	71.0	motor_selective_stop_signal	71.0	True	0.89	89.0	False	stim	noncrit_signal	s585	False
48.239	0.85	0.35	2.25	1.0	89.0	motor_selective_stop_signal	89.0	True	0.913	89.0	False	stim	crit_go	s585	False
50.491	0.85	0.35	2.45	1.0	71.0	motor_selective_stop_signal	71.0	True	0.758	89.0	False	stim	noncrit_signal	s585	False
52.943	0.85	0.35	2.65	1.0	89.0	motor_selective_stop_signal	-1.0	True	n/a	89.0	True	stim	crit_stop_success	s585	False
55.596	0.85	0.4	2.45	1.0	89.0	motor_selective_stop_signal	89.0	True	1.311	89.0	False	stim	crit_go	s585	False
58.049	0.85	0.4	2.35	1.0	71.0	motor_selective_stop_signal	71.0	True	0.659	89.0	False	stim	noncrit_nosignal	s585	False
60.404	0.85	0.4	2.25	1.0	71.0	motor_selective_stop_signal	71.0	True	0.611	89.0	False	stim	noncrit_signal	s585	False
62.66	0.85	0.4	2.55	1.0	89.0	motor_selective_stop_signal	89.0	True	0.859	89.0	False	stim	crit_go	s585	False
65.216	0.85	0.4	2.25	1.0	89.0	motor_selective_stop_signal	89.0	True	0.818	89.0	False	stim	crit_go	s585	False
67.472	0.85	0.4	2.25	1.0	89.0	motor_selective_stop_signal	89.0	True	0.806	89.0	False	stim	crit_go	s585	False
69.724	0.85	0.4	2.35	1.0	89.0	motor_selective_stop_signal	89.0	True	0.952	89.0	False	stim	crit_go	s585	False
72.08	0.85	0.4	2.25	1.0	71.0	motor_selective_stop_signal	71.0	True	0.626	89.0	False	stim	noncrit_nosignal	s585	False
74.336	0.85	0.4	2.65	1.0	71.0	motor_selective_stop_signal	71.0	True	0.572	89.0	False	stim	noncrit_signal	s585	False
76.988	0.85	0.4	2.35	1.0	71.0	motor_selective_stop_signal	71.0	True	0.514	89.0	False	stim	noncrit_signal	s585	False
79.344	0.85	0.4	2.45	1.0	89.0	motor_selective_stop_signal	89.0	True	0.784	89.0	False	stim	crit_go	s585	False
81.799	0.85	0.4	2.35	1.0	71.0	motor_selective_stop_signal	71.0	True	0.661	89.0	False	stim	noncrit_signal	s585	False
84.152	0.85	0.4	2.25	1.0	89.0	motor_selective_stop_signal	-1.0	True	n/a	89.0	True	stim	crit_stop_success	s585	False
86.406	0.85	0.45	2.25	1.0	89.0	motor_selective_stop_signal	89.0	True	0.898	89.0	False	stim	crit_go	s585	False
88.661	0.85	0.45	2.25	1.0	89.0	motor_selective_stop_signal	-1.0	True	n/a	89.0	True	stim	crit_stop_success	s585	False
90.913	0.85	0.5	2.25	1.0	71.0	motor_selective_stop_signal	71.0	True	0.733	89.0	False	stim	noncrit_nosignal	s585	False
93.169	0.85	0.5	2.35	1.0	89.0	motor_selective_stop_signal	-1.0	True	n/a	89.0	True	stim	crit_stop_success	s585	False
95.525	0.85	0.55	3.35	1.0	71.0	motor_selective_stop_signal	71.0	True	0.697	89.0	False	stim	noncrit_nosignal	s585	False
98.88	0.85	0.55	2.55	1.0	71.0	motor_selective_stop_signal	71.0	True	0.684	89.0	False	stim	noncrit_nosignal	s585	False
101.432	0.85	0.55	2.75	1.0	89.0	motor_selective_stop_signal	89.0	True	0.795	89.0	False	stim	crit_stop_failure	s585	False
104.188	0.85	0.5	2.75	1.0	89.0	motor_selective_stop_signal	89.0	True	0.862	89.0	False	stim	crit_go	s585	False
106.94	0.85	0.5	2.65	1.0	71.0	motor_selective_stop_signal	71.0	True	0.714	89.0	False	stim	noncrit_nosignal	s585	False
109.595	0.85	0.5	2.45	1.0	89.0	motor_selective_stop_signal	-1.0	True	n/a	89.0	True	stim	crit_stop_success	s585	False
112.05	0.85	0.55	2.25	1.0	71.0	motor_selective_stop_signal	71.0	True	0.615	89.0	False	stim	noncrit_nosignal	s585	False
114.305	0.85	0.55	2.35	1.0	71.0	motor_selective_stop_signal	71.0	True	0.723	89.0	False	stim	noncrit_nosignal	s585	False
116.662	0.85	0.55	2.45	1.0	71.0	motor_selective_stop_signal	71.0	True	0.606	89.0	False	stim	noncrit_nosignal	s585	False
119.116	0.85	0.55	3.05	1.0	89.0	motor_selective_stop_signal	89.0	True	0.999	89.0	False	stim	crit_go	s585	False
122.169	0.85	0.55	2.35	1.0	71.0	motor_selective_stop_signal	71.0	True	0.813	89.0	False	stim	noncrit_nosignal	s585	False
135.032	0.85	0.55	2.25	1.0	71.0	motor_selective_stop_signal	71.0	True	0.566	89.0	False	stim	noncrit_signal	s585	False
137.288	0.85	0.55	2.35	1.0	89.0	motor_selective_stop_signal	89.0	True	0.745	89.0	False	stim	crit_go	s585	False
139.641	0.85	0.55	2.35	1.0	89.0	motor_selective_stop_signal	89.0	True	0.979	89.0	False	stim	crit_go	s585	False
141.996	0.85	0.55	2.35	1.0	89.0	motor_selective_stop_signal	89.0	True	0.954	89.0	False	stim	crit_go	s585	False
144.351	0.85	0.55	2.35	1.0	71.0	motor_selective_stop_signal	71.0	True	0.61	89.0	False	stim	noncrit_signal	s585	False
146.703	0.85	0.55	2.35	1.0	71.0	motor_selective_stop_signal	71.0	True	0.587	89.0	False	stim	noncrit_nosignal	s585	False
149.057	0.85	0.55	2.25	1.0	89.0	motor_selective_stop_signal	89.0	True	0.78	89.0	False	stim	crit_go	s585	False
151.311	0.85	0.55	2.35	1.0	89.0	motor_selective_stop_signal	-1.0	True	n/a	89.0	True	stim	crit_stop_success	s585	False
153.664	0.85	0.6	2.45	1.0	89.0	motor_selective_stop_signal	89.0	True	0.892	89.0	False	stim	crit_go	s585	False
156.116	0.85	0.6	2.35	1.0	71.0	motor_selective_stop_signal	71.0	True	0.595	89.0	False	stim	noncrit_nosignal	s585	False
158.47	0.85	0.6	2.85	1.0	71.0	motor_selective_stop_signal	71.0	True	0.628	89.0	False	stim	noncrit_nosignal	s585	False
161.325	0.85	0.6	2.55	1.0	71.0	motor_selective_stop_signal	71.0	True	0.59	89.0	False	stim	noncrit_nosignal	s585	False
163.877	0.85	0.6	2.75	1.0	71.0	motor_selective_stop_signal	71.0	True	0.46	89.0	False	stim	noncrit_nosignal	s585	False
166.632	0.85	0.6	2.25	1.0	71.0	motor_selective_stop_signal	71.0	True	0.487	89.0	False	stim	noncrit_signal	s585	False
168.884	0.85	0.6	2.25	1.0	89.0	motor_selective_stop_signal	89.0	True	0.885	89.0	False	stim	crit_go	s585	False
171.137	0.85	0.6	2.85	1.0	89.0	motor_selective_stop_signal	-1.0	True	n/a	89.0	True	stim	crit_stop_success	s585	False
173.989	0.85	0.65	2.35	1.0	71.0	motor_selective_stop_signal	71.0	True	0.667	89.0	False	stim	noncrit_nosignal	s585	False
176.345	0.85	0.65	2.25	1.0	89.0	motor_selective_stop_signal	89.0	True	1.045	89.0	False	stim	crit_go	s585	False
178.601	0.85	0.65	2.25	1.0	89.0	motor_selective_stop_signal	89.0	True	0.547	89.0	False	stim	crit_stop_failure	s585	False
180.857	0.85	0.6	2.25	1.0	89.0	motor_selective_stop_signal	89.0	True	0.935	89.0	False	stim	crit_go	s585	False
183.111	0.85	0.6	2.35	1.0	89.0	motor_selective_stop_signal	89.0	True	0.959	89.0	False	stim	crit_go	s585	False
185.466	0.85	0.6	2.65	1.0	71.0	motor_selective_stop_signal	71.0	True	0.592	89.0	False	stim	noncrit_nosignal	s585	False
188.118	0.85	0.6	2.75	1.0	89.0	motor_selective_stop_signal	-1.0	True	n/a	89.0	True	stim	crit_stop_success	s585	False
190.87	0.85	0.65	2.25	1.0	71.0	motor_selective_stop_signal	71.0	True	0.431	89.0	False	stim	noncrit_nosignal	s585	False
193.123	0.85	0.65	2.75	0.0	89.0	motor_selective_stop_signal	71.0	True	0.46	89.0	False	stim	crit_stop_failure	s585	False
195.875	0.85	0.6	2.25	1.0	71.0	motor_selective_stop_signal	71.0	True	0.629	89.0	False	stim	noncrit_signal	s585	False
198.129	0.85	0.6	2.35	1.0	71.0	motor_selective_stop_signal	71.0	True	0.481	89.0	False	stim	noncrit_nosignal	s585	False
200.481	0.85	0.6	2.35	1.0	71.0	motor_selective_stop_signal	71.0	True	0.568	89.0	False	stim	noncrit_nosignal	s585	False
202.833	0.85	0.6	2.55	1.0	71.0	motor_selective_stop_signal	71.0	True	0.475	89.0	False	stim	noncrit_nosignal	s585	False
205.387	0.85	0.6	2.25	1.0	89.0	motor_selective_stop_signal	89.0	True	0.803	89.0	False	stim	crit_go	s585	False
207.642	0.85	0.6	2.25	1.0	71.0	motor_selective_stop_signal	71.0	True	0.556	89.0	False	stim	noncrit_signal	s585	False
209.899	0.85	0.6	2.25	1.0	71.0	motor_selective_stop_signal	71.0	True	0.387	89.0	False	stim	noncrit_nosignal	s585	False
212.151	0.85	0.6	2.35	0.0	89.0	motor_selective_stop_signal	71.0	True	0.432	89.0	False	stim	crit_go	s585	False
214.502	0.85	0.6	2.65	1.0	89.0	motor_selective_stop_signal	89.0	True	0.83	89.0	False	stim	crit_stop_failure	s585	False
217.154	0.85	0.55	2.35	1.0	71.0	motor_selective_stop_signal	71.0	True	0.648	89.0	False	stim	noncrit_nosignal	s585	False
219.51	0.85	0.55	2.25	1.0	71.0	motor_selective_stop_signal	71.0	True	0.79	89.0	False	stim	noncrit_signal	s585	False
221.762	0.85	0.55	2.35	1.0	71.0	motor_selective_stop_signal	71.0	True	0.548	89.0	False	stim	noncrit_nosignal	s585	False
224.114	0.85	0.55	2.35	1.0	89.0	motor_selective_stop_signal	-1.0	True	n/a	89.0	True	stim	crit_stop_success	s585	False
226.467	0.85	0.6	2.85	1.0	89.0	motor_selective_stop_signal	89.0	True	0.851	89.0	False	stim	crit_go	s585	False
229.319	0.85	0.6	2.45	1.0	71.0	motor_selective_stop_signal	71.0	True	0.686	89.0	False	stim	noncrit_nosignal	s585	False
231.773	0.85	0.6	2.35	1.0	71.0	motor_selective_stop_signal	71.0	True	0.576	89.0	False	stim	noncrit_nosignal	s585	False
234.129	0.85	0.6	2.65	1.0	71.0	motor_selective_stop_signal	71.0	True	0.575	89.0	False	stim	noncrit_nosignal	s585	False
236.785	0.85	0.6	2.25	1.0	71.0	motor_selective_stop_signal	71.0	True	0.54	89.0	False	stim	noncrit_nosignal	s585	False
239.041	0.85	0.6	2.25	1.0	71.0	motor_selective_stop_signal	71.0	True	0.52	89.0	False	stim	noncrit_signal	s585	False
241.297	0.85	0.6	2.25	1.0	71.0	motor_selective_stop_signal	71.0	True	0.491	89.0	False	stim	noncrit_nosignal	s585	False
243.551	0.85	0.6	2.45	1.0	71.0	motor_selective_stop_signal	71.0	True	0.546	89.0	False	stim	noncrit_nosignal	s585	False
246.003	0.85	0.6	2.35	1.0	89.0	motor_selective_stop_signal	89.0	True	0.891	89.0	False	stim	crit_go	s585	False
248.359	0.85	0.6	2.25	1.0	89.0	motor_selective_stop_signal	-1.0	True	n/a	89.0	True	stim	crit_stop_success	s585	False
250.612	0.85	0.65	2.35	1.0	89.0	motor_selective_stop_signal	-1.0	True	n/a	89.0	True	stim	crit_stop_success	s585	False
252.967	0.85	0.7	2.45	1.0	71.0	motor_selective_stop_signal	71.0	True	0.512	89.0	False	stim	noncrit_signal	s585	False
265.929	0.85	0.7	2.35	1.0	89.0	motor_selective_stop_signal	89.0	True	0.907	89.0	False	stim	crit_go	s585	False
268.285	0.85	0.7	2.25	1.0	89.0	motor_selective_stop_signal	89.0	True	0.775	89.0	False	stim	crit_go	s585	False
270.541	0.85	0.7	2.25	1.0	89.0	motor_selective_stop_signal	89.0	True	1.433	89.0	False	stim	crit_go	s585	False
272.793	0.85	0.7	2.35	1.0	71.0	motor_selective_stop_signal	71.0	True	0.661	89.0	False	stim	noncrit_signal	s585	False
275.145	0.85	0.7	2.35	1.0	89.0	motor_selective_stop_signal	89.0	True	0.796	89.0	False	stim	crit_stop_failure	s585	False
277.497	0.85	0.65	2.35	1.0	89.0	motor_selective_stop_signal	89.0	True	0.847	89.0	False	stim	crit_go	s585	False
279.852	0.85	0.65	2.95	1.0	71.0	motor_selective_stop_signal	71.0	True	0.524	89.0	False	stim	noncrit_nosignal	s585	False
282.806	0.85	0.65	2.25	1.0	89.0	motor_selective_stop_signal	89.0	True	0.907	89.0	False	stim	crit_go	s585	False
285.06	0.85	0.65	2.35	1.0	71.0	motor_selective_stop_signal	71.0	True	0.607	89.0	False	stim	noncrit_nosignal	s585	False
287.415	0.85	0.65	2.25	1.0	89.0	motor_selective_stop_signal	89.0	True	0.768	89.0	False	stim	crit_go	s585	False
289.67	0.85	0.65	2.45	1.0	71.0	motor_selective_stop_signal	71.0	True	0.532	89.0	False	stim	noncrit_signal	s585	False
292.122	0.85	0.65	2.35	1.0	71.0	motor_selective_stop_signal	71.0	True	0.455	89.0	False	stim	noncrit_signal	s585	False
294.475	0.85	0.65	2.55	1.0	71.0	motor_selective_stop_signal	71.0	True	0.566	89.0	False	stim	noncrit_signal	s585	False
297.031	0.85	0.65	2.55	1.0	89.0	motor_selective_stop_signal	89.0	True	0.811	89.0	False	stim	crit_go	s585	False
299.584	0.85	0.65	2.25	1.0	89.0	motor_selective_stop_signal	89.0	True	1.007	89.0	False	stim	crit_go	s585	False
301.838	0.85	0.65	2.25	1.0	71.0	motor_selective_stop_signal	71.0	True	0.534	89.0	False	stim	noncrit_nosignal	s585	False
304.091	0.85	0.65	2.75	1.0	89.0	motor_selective_stop_signal	89.0	True	0.764	89.0	False	stim	crit_stop_failure	s585	False
306.843	0.85	0.6	2.35	1.0	89.0	motor_selective_stop_signal	-1.0	True	n/a	89.0	True	stim	crit_stop_success	s585	False
309.195	0.85	0.65	2.25	1.0	89.0	motor_selective_stop_signal	89.0	True	0.715	89.0	False	stim	crit_stop_failure	s585	False
311.446	0.85	0.6	2.45	1.0	89.0	motor_selective_stop_signal	89.0	True	0.945	89.0	False	stim	crit_go	s585	False
313.898	0.85	0.6	2.25	1.0	71.0	motor_selective_stop_signal	71.0	True	0.704	89.0	False	stim	noncrit_nosignal	s585	False
316.154	0.85	0.6	2.35	1.0	71.0	motor_selective_stop_signal	71.0	True	0.508	89.0	False	stim	noncrit_nosignal	s585	False
318.506	0.85	0.6	2.25	1.0	71.0	motor_selective_stop_signal	71.0	True	0.46	89.0	False	stim	noncrit_nosignal	s585	False
320.758	0.85	0.6	2.25	1.0	89.0	motor_selective_stop_signal	-1.0	True	n/a	89.0	True	stim	crit_stop_success	s585	False
323.012	0.85	0.65	2.25	1.0	89.0	motor_selective_stop_signal	89.0	True	0.756	89.0	False	stim	crit_stop_failure	s585	False
325.268	0.85	0.6	2.25	1.0	89.0	motor_selective_stop_signal	89.0	True	0.922	89.0	False	stim	crit_go	s585	False
327.525	0.85	0.6	2.25	1.0	89.0	motor_selective_stop_signal	89.0	True	1.036	89.0	False	stim	crit_go	s585	False
329.777	0.85	0.6	2.35	1.0	71.0	motor_selective_stop_signal	71.0	True	0.423	89.0	False	stim	noncrit_signal	s585	False
332.132	0.85	0.6	2.55	1.0	89.0	motor_selective_stop_signal	-1.0	True	n/a	89.0	True	stim	crit_stop_success	s585	False
334.686	0.85	0.65	2.95	1.0	71.0	motor_selective_stop_signal	71.0	True	0.498	89.0	False	stim	noncrit_nosignal	s585	False
337.642	0.85	0.65	2.25	1.0	89.0	motor_selective_stop_signal	89.0	True	0.873	89.0	False	stim	crit_stop_failure	s585	False
339.895	0.85	0.6	2.35	0.0	89.0	motor_selective_stop_signal	-1.0	True	n/a	89.0	True	stim	crit_go	s585	False
342.249	0.85	0.6	2.55	1.0	71.0	motor_selective_stop_signal	71.0	True	0.586	89.0	False	stim	noncrit_nosignal	s585	False
344.805	0.85	0.6	2.25	1.0	71.0	motor_selective_stop_signal	71.0	True	0.583	89.0	False	stim	noncrit_signal	s585	False
347.057	0.85	0.6	2.35	1.0	71.0	motor_selective_stop_signal	71.0	True	0.617	89.0	False	stim	noncrit_signal	s585	False
349.412	0.85	0.6	2.55	1.0	71.0	motor_selective_stop_signal	71.0	True	0.513	89.0	False	stim	noncrit_signal	s585	False
351.966	0.85	0.6	2.45	1.0	71.0	motor_selective_stop_signal	71.0	True	0.656	89.0	False	stim	noncrit_signal	s585	False
354.418	0.85	0.6	2.35	1.0	89.0	motor_selective_stop_signal	89.0	True	0.85	89.0	False	stim	crit_go	s585	False
356.774	0.85	0.6	2.65	1.0	71.0	motor_selective_stop_signal	71.0	True	0.537	89.0	False	stim	noncrit_nosignal	s585	False
359.428	0.85	0.6	2.55	1.0	71.0	motor_selective_stop_signal	71.0	True	0.616	89.0	False	stim	noncrit_nosignal	s585	False
361.981	0.85	0.6	2.75	1.0	89.0	motor_selective_stop_signal	-1.0	True	n/a	89.0	True	stim	crit_stop_success	s585	False
364.736	0.85	0.65	2.55	1.0	89.0	motor_selective_stop_signal	-1.0	True	n/a	89.0	True	stim	crit_stop_success	s585	False
367.288	0.85	0.7	2.45	0.0	71.0	motor_selective_stop_signal	89.0	True	0.78	89.0	False	stim	noncrit_signal	s585	False
369.741	0.85	0.7	2.75	1.0	89.0	motor_selective_stop_signal	89.0	True	1.419	89.0	False	stim	crit_go	s585	False
372.496	0.85	0.7	2.55	1.0	89.0	motor_selective_stop_signal	89.0	True	1.32	89.0	False	stim	crit_go	s585	False
375.048	0.85	0.7	2.35	1.0	89.0	motor_selective_stop_signal	-1.0	True	n/a	89.0	True	stim	crit_stop_success	s585	False
377.404	0.85	0.75	2.25	1.0	89.0	motor_selective_stop_signal	89.0	True	0.98	89.0	False	stim	crit_go	s585	False
379.66	0.85	0.75	2.65	1.0	89.0	motor_selective_stop_signal	89.0	True	0.983	89.0	False	stim	crit_go	s585	False
382.316	0.85	0.75	2.25	1.0	89.0	motor_selective_stop_signal	89.0	True	0.8	89.0	False	stim	crit_stop_failure	s585	False
384.568	0.85	0.7	2.35	1.0	71.0	motor_selective_stop_signal	71.0	True	0.505	89.0	False	stim	noncrit_nosignal	s585	False
397.431	0.85	0.7	2.25	1.0	89.0	motor_selective_stop_signal	89.0	True	0.763	89.0	False	stim	crit_go	s585	False
399.683	0.85	0.7	2.35	1.0	89.0	motor_selective_stop_signal	89.0	True	0.839	89.0	False	stim	crit_go	s585	False
402.035	0.85	0.7	2.35	1.0	71.0	motor_selective_stop_signal	71.0	True	0.447	89.0	False	stim	noncrit_nosignal	s585	False
404.391	0.85	0.7	2.25	1.0	89.0	motor_selective_stop_signal	89.0	True	0.846	89.0	False	stim	crit_go	s585	False
406.645	0.85	0.7	2.85	1.0	71.0	motor_selective_stop_signal	71.0	True	0.629	89.0	False	stim	noncrit_signal	s585	False
409.497	0.85	0.7	2.35	1.0	71.0	motor_selective_stop_signal	71.0	True	0.539	89.0	False	stim	noncrit_nosignal	s585	False
411.851	0.85	0.7	2.25	1.0	89.0	motor_selective_stop_signal	89.0	True	0.85	89.0	False	stim	crit_go	s585	False
414.105	0.85	0.7	2.35	1.0	89.0	motor_selective_stop_signal	89.0	True	0.921	89.0	False	stim	crit_go	s585	False
416.458	0.85	0.7	2.45	1.0	89.0	motor_selective_stop_signal	89.0	True	0.858	89.0	False	stim	crit_go	s585	False
418.914	0.85	0.7	2.25	1.0	89.0	motor_selective_stop_signal	-1.0	True	n/a	89.0	True	stim	crit_stop_success	s585	False
421.166	0.85	0.75	2.25	1.0	71.0	motor_selective_stop_signal	71.0	True	0.472	89.0	False	stim	noncrit_signal	s585	False
423.418	0.85	0.75	2.75	1.0	89.0	motor_selective_stop_signal	89.0	True	0.994	89.0	False	stim	crit_go	s585	False
426.17	0.85	0.75	2.35	1.0	71.0	motor_selective_stop_signal	71.0	True	0.667	89.0	False	stim	noncrit_signal	s585	False
428.522	0.85	0.75	2.75	1.0	71.0	motor_selective_stop_signal	71.0	True	0.692	89.0	False	stim	noncrit_nosignal	s585	False
431.274	0.85	0.75	2.45	1.0	71.0	motor_selective_stop_signal	71.0	True	0.57	89.0	False	stim	noncrit_nosignal	s585	False
433.726	0.85	0.75	2.25	1.0	89.0	motor_selective_stop_signal	89.0	True	0.849	89.0	False	stim	crit_go	s585	False
435.978	0.85	0.75	2.35	1.0	89.0	motor_selective_stop_signal	-1.0	True	n/a	89.0	True	stim	crit_stop_success	s585	False
438.334	0.85	0.8	2.65	1.0	71.0	motor_selective_stop_signal	71.0	True	0.435	89.0	False	stim	noncrit_nosignal	s585	False
440.988	0.85	0.8	2.45	1.0	89.0	motor_selective_stop_signal	89.0	True	0.847	89.0	False	stim	crit_stop_failure	s585	False
443.444	0.85	0.75	2.25	1.0	71.0	motor_selective_stop_signal	71.0	True	0.532	89.0	False	stim	noncrit_nosignal	s585	False
445.696	0.85	0.75	2.35	1.0	71.0	motor_selective_stop_signal	71.0	True	0.861	89.0	False	stim	noncrit_signal	s585	False
448.051	0.85	0.75	2.95	1.0	71.0	motor_selective_stop_signal	71.0	True	0.554	89.0	False	stim	noncrit_signal	s585	False
451.007	0.85	0.75	2.25	1.0	71.0	motor_selective_stop_signal	71.0	True	0.496	89.0	False	stim	noncrit_nosignal	s585	False
453.261	0.85	0.75	2.95	1.0	89.0	motor_selective_stop_signal	89.0	True	1.006	89.0	False	stim	crit_go	s585	False
456.215	0.85	0.75	2.45	1.0	71.0	motor_selective_stop_signal	71.0	True	0.727	89.0	False	stim	noncrit_signal	s585	False
458.666	0.85	0.75	2.25	1.0	89.0	motor_selective_stop_signal	89.0	True	0.912	89.0	False	stim	crit_stop_failure	s585	False
460.918	0.85	0.7	2.35	1.0	71.0	motor_selective_stop_signal	71.0	True	0.997	89.0	False	stim	noncrit_nosignal	s585	False
463.271	0.85	0.7	2.45	1.0	71.0	motor_selective_stop_signal	71.0	True	0.608	89.0	False	stim	noncrit_nosignal	s585	False
465.724	0.85	0.7	2.25	1.0	89.0	motor_selective_stop_signal	-1.0	True	n/a	89.0	True	stim	crit_stop_success	s585	False
467.976	0.85	0.75	2.45	1.0	71.0	motor_selective_stop_signal	71.0	True	0.553	89.0	False	stim	noncrit_signal	s585	False
470.427	0.85	0.75	2.75	1.0	89.0	motor_selective_stop_signal	89.0	True	0.965	89.0	False	stim	crit_go	s585	False
473.184	0.85	0.75	2.25	1.0	71.0	motor_selective_stop_signal	71.0	True	0.641	89.0	False	stim	noncrit_signal	s585	False
475.436	0.85	0.75	2.35	1.0	89.0	motor_selective_stop_signal	89.0	True	0.99	89.0	False	stim	crit_go	s585	False
477.789	0.85	0.75	2.45	1.0	71.0	motor_selective_stop_signal	71.0	True	0.55	89.0	False	stim	noncrit_signal	s585	False
480.241	0.85	0.75	2.35	1.0	89.0	motor_selective_stop_signal	89.0	True	0.933	89.0	False	stim	crit_go	s585	False
482.593	0.85	0.75	2.25	1.0	71.0	motor_selective_stop_signal	71.0	True	0.623	89.0	False	stim	noncrit_signal	s585	False
484.847	0.85	0.75	2.55	1.0	89.0	motor_selective_stop_signal	89.0	True	0.95	89.0	False	stim	crit_go	s585	False
487.4	0.85	0.75	2.45	1.0	89.0	motor_selective_stop_signal	89.0	True	0.836	89.0	False	stim	crit_go	s585	False
489.856	0.85	0.75	2.65	1.0	89.0	motor_selective_stop_signal	89.0	True	1.237	89.0	False	stim	crit_go	s585	False
492.512	0.85	0.75	2.25	1.0	89.0	motor_selective_stop_signal	89.0	True	0.758	89.0	False	stim	crit_stop_failure	s585	False
494.765	0.85	0.7	2.65	1.0	71.0	motor_selective_stop_signal	71.0	True	0.766	89.0	False	stim	noncrit_signal	s585	False
497.421	0.85	0.7	2.35	1.0	71.0	motor_selective_stop_signal	71.0	True	0.466	89.0	False	stim	noncrit_nosignal	s585	False
499.777	0.85	0.7	2.25	1.0	89.0	motor_selective_stop_signal	89.0	True	0.841	89.0	False	stim	crit_go	s585	False
502.028	0.85	0.7	2.25	1.0	71.0	motor_selective_stop_signal	71.0	True	0.675	89.0	False	stim	noncrit_nosignal	s585	False
504.281	0.85	0.7	2.25	1.0	71.0	motor_selective_stop_signal	71.0	True	0.695	89.0	False	stim	noncrit_nosignal	s585	False
506.536	0.85	0.7	2.35	1.0	71.0	motor_selective_stop_signal	71.0	True	0.485	89.0	False	stim	noncrit_nosignal	s585	False
508.889	0.85	0.7	2.55	1.0	71.0	motor_selective_stop_signal	71.0	True	0.524	89.0	False	stim	noncrit_signal	s585	False
511.443	0.85	0.7	2.35	1.0	89.0	motor_selective_stop_signal	89.0	True	0.705	89.0	False	stim	crit_go	s585	False
513.796	0.85	0.7	2.45	1.0	89.0	motor_selective_stop_signal	-1.0	True	n/a	89.0	True	stim	crit_stop_success	s585	False
516.247	0.85	0.75	2.45	1.0	89.0	motor_selective_stop_signal	89.0	True	0.812	89.0	False	stim	crit_go	s585	False
529.214	0.85	0.75	2.35	1.0	89.0	motor_selective_stop_signal	89.0	True	0.703	89.0	False	stim	crit_stop_failure	s585	False
531.569	0.85	0.7	2.25	1.0	71.0	motor_selective_stop_signal	71.0	True	0.572	89.0	False	stim	noncrit_signal	s585	False
533.825	0.85	0.7	2.55	1.0	89.0	motor_selective_stop_signal	89.0	True	0.892	89.0	False	stim	crit_go	s585	False
536.379	0.85	0.7	2.55	1.0	71.0	motor_selective_stop_signal	71.0	True	0.497	89.0	False	stim	noncrit_nosignal	s585	False
538.936	0.85	0.7	2.25	1.0	71.0	motor_selective_stop_signal	71.0	True	0.415	89.0	False	stim	noncrit_signal	s585	False
541.191	0.85	0.7	2.25	1.0	89.0	motor_selective_stop_signal	89.0	True	0.732	89.0	False	stim	crit_go	s585	False
543.445	0.85	0.7	2.45	1.0	89.0	motor_selective_stop_signal	-1.0	True	n/a	89.0	True	stim	crit_stop_success	s585	False
545.897	0.85	0.75	2.35	1.0	89.0	motor_selective_stop_signal	89.0	True	0.859	89.0	False	stim	crit_go	s585	False
548.253	0.85	0.75	2.25	1.0	89.0	motor_selective_stop_signal	89.0	True	1.001	89.0	False	stim	crit_go	s585	False
550.505	0.85	0.75	3.15	1.0	89.0	motor_selective_stop_signal	89.0	True	1.226	89.0	False	stim	crit_go	s585	False
553.661	0.85	0.75	2.65	1.0	71.0	motor_selective_stop_signal	71.0	True	0.51	89.0	False	stim	noncrit_nosignal	s585	False
556.317	0.85	0.75	2.25	1.0	71.0	motor_selective_stop_signal	71.0	True	0.567	89.0	False	stim	noncrit_signal	s585	False
558.571	0.85	0.75	2.45	1.0	89.0	motor_selective_stop_signal	89.0	True	0.913	89.0	False	stim	crit_stop_failure	s585	False
561.024	0.85	0.7	2.85	1.0	71.0	motor_selective_stop_signal	71.0	True	0.452	89.0	False	stim	noncrit_signal	s585	False
563.878	0.85	0.7	2.45	1.0	71.0	motor_selective_stop_signal	71.0	True	0.516	89.0	False	stim	noncrit_nosignal	s585	False
566.334	0.85	0.7	2.25	1.0	89.0	motor_selective_stop_signal	89.0	True	0.953	89.0	False	stim	crit_go	s585	False
568.59	0.85	0.7	2.25	1.0	89.0	motor_selective_stop_signal	89.0	True	0.924	89.0	False	stim	crit_go	s585	False
570.845	0.85	0.7	2.55	1.0	71.0	motor_selective_stop_signal	71.0	True	0.569	89.0	False	stim	noncrit_signal	s585	False
573.399	0.85	0.7	2.25	1.0	89.0	motor_selective_stop_signal	-1.0	True	n/a	89.0	True	stim	crit_stop_success	s585	False
575.651	0.85	0.75	2.35	1.0	71.0	motor_selective_stop_signal	71.0	True	0.644	89.0	False	stim	noncrit_nosignal	s585	False
578.003	0.85	0.75	2.35	1.0	89.0	motor_selective_stop_signal	89.0	True	0.913	89.0	False	stim	crit_stop_failure	s585	False
580.356	0.85	0.7	2.25	1.0	71.0	motor_selective_stop_signal	71.0	True	0.562	89.0	False	stim	noncrit_nosignal	s585	False
582.608	0.85	0.7	2.35	1.0	71.0	motor_selective_stop_signal	71.0	True	0.504	89.0	False	stim	noncrit_signal	s585	False
584.964	0.85	0.7	2.25	1.0	89.0	motor_selective_stop_signal	89.0	True	0.928	89.0	False	stim	crit_go	s585	False
587.217	0.85	0.7	2.45	1.0	71.0	motor_selective_stop_signal	71.0	True	0.591	89.0	False	stim	noncrit_nosignal	s585	False
589.671	0.85	0.7	2.25	1.0	71.0	motor_selective_stop_signal	71.0	True	0.524	89.0	False	stim	noncrit_nosignal	s585	False
591.926	0.85	0.7	2.35	1.0	71.0	motor_selective_stop_signal	71.0	True	0.664	89.0	False	stim	noncrit_nosignal	s585	False
594.279	0.85	0.7	2.45	1.0	71.0	motor_selective_stop_signal	71.0	True	0.428	89.0	False	stim	noncrit_signal	s585	False
596.73	0.85	0.7	2.25	1.0	89.0	motor_selective_stop_signal	89.0	True	0.973	89.0	False	stim	crit_stop_failure	s585	False
598.986	0.85	0.65	2.25	1.0	71.0	motor_selective_stop_signal	71.0	True	0.559	89.0	False	stim	noncrit_nosignal	s585	False
601.239	0.85	0.65	2.85	1.0	71.0	motor_selective_stop_signal	71.0	True	0.537	89.0	False	stim	noncrit_nosignal	s585	False
604.092	0.85	0.65	2.25	1.0	71.0	motor_selective_stop_signal	71.0	True	0.619	89.0	False	stim	noncrit_nosignal	s585	False
606.346	0.85	0.65	3.45	1.0	89.0	motor_selective_stop_signal	89.0	True	0.948	89.0	False	stim	crit_go	s585	False
609.798	0.85	0.65	2.35	1.0	71.0	motor_selective_stop_signal	71.0	True	0.57	89.0	False	stim	noncrit_signal	s585	False
612.15	0.85	0.65	2.35	1.0	71.0	motor_selective_stop_signal	71.0	True	0.55	89.0	False	stim	noncrit_signal	s585	False
614.502	0.85	0.65	2.35	1.0	89.0	motor_selective_stop_signal	89.0	True	0.86	89.0	False	stim	crit_go	s585	False
616.856	0.85	0.65	2.45	1.0	89.0	motor_selective_stop_signal	-1.0	True	n/a	89.0	True	stim	crit_stop_success	s585	False
619.311	0.85	0.7	2.55	1.0	71.0	motor_selective_stop_signal	71.0	True	0.408	89.0	False	stim	noncrit_signal	s585	False
621.863	0.85	0.7	2.35	1.0	89.0	motor_selective_stop_signal	89.0	True	0.919	89.0	False	stim	crit_go	s585	False
624.214	0.85	0.7	2.25	1.0	89.0	motor_selective_stop_signal	-1.0	True	n/a	89.0	True	stim	crit_stop_success	s585	False
626.469	0.85	0.75	2.25	1.0	89.0	motor_selective_stop_signal	89.0	True	0.878	89.0	False	stim	crit_go	s585	False
628.726	0.85	0.75	3.05	1.0	71.0	motor_selective_stop_signal	71.0	True	0.565	89.0	False	stim	noncrit_nosignal	s585	False
631.779	0.85	0.75	2.45	1.0	89.0	motor_selective_stop_signal	89.0	True	0.872	89.0	False	stim	crit_go	s585	False
634.231	0.85	0.75	2.35	1.0	71.0	motor_selective_stop_signal	71.0	True	0.682	89.0	False	stim	noncrit_nosignal	s585	False
636.587	0.85	0.75	2.25	1.0	89.0	motor_selective_stop_signal	89.0	True	0.87	89.0	False	stim	crit_stop_failure	s585	False
638.841	0.85	0.7	3.25	1.0	89.0	motor_selective_stop_signal	-1.0	True	n/a	89.0	True	stim	crit_stop_success	s585	False
642.095	0.85	0.75	2.95	1.0	71.0	motor_selective_stop_signal	71.0	True	0.411	89.0	False	stim	noncrit_nosignal	s585	False
645.05	0.85	0.75	2.55	1.0	89.0	motor_selective_stop_signal	-1.0	True	n/a	89.0	True	stim	crit_stop_success	s585	False
647.602	0.85	0.8	2.35	1.0	71.0	motor_selective_stop_signal	71.0	True	0.469	89.0	False	stim	noncrit_nosignal	s585	False
649.957	0.85	0.8	2.55	1.0	89.0	motor_selective_stop_signal	-1.0	True	n/a	89.0	True	stim	crit_stop_success	s585	False
