onset	duration	movement_onset	EV	action	block_duration	experiment_exp_id	gain_amount	gain_probability	key_press	loss_amount	loss_probability	num_cards	num_click_in_round	num_loss_cards	risk	response_time	total_cards	trial_id	trial_type	worker_id	junk	feedback
3.013	4.045	7.058	-1.494887962538177	draw_card	4.045	columbia_card_task_fmri	12.0	0.8333333333333334	89.0	-70.0	0.1666666666666666	6.0	1.0	1.0	-0.2161969366023832	4.045	n/a	stim	poldrack-single-stim	s586	False	1
7.062	2.496	9.558	-4.22822129587151	draw_card	2.496	columbia_card_task_fmri	12.0	0.8	89.0	-70.0	0.2	6.0	2.0	1.0	2.024174394443332	2.496	n/a	stim	poldrack-single-stim	s586	False	1
9.56	1.484	11.044	-8.328221295871511	end_round	1.484	columbia_card_task_fmri	12.0	0.75	71.0	-70.0	0.25	6.0	3.0	1.0	4.731181656487681	1.484	2.0	stim	poldrack-single-stim	s586	False	1
11.8	1.5	11.049	n/a	-1.0	2.454	columbia_card_task_fmri	n/a	n/a	-1.0	n/a	n/a	n/a	n/a	n/a	n/a	n/a	n/a	ITI	poldrack-single-stim	s586	False	0
13.507	2.036	15.543	-0.6615546292048431	draw_card	2.036	columbia_card_task_fmri	14.0	0.8333333333333334	89.0	-75.0	0.1666666666666666	6.0	1.0	1.0	2.3925110654881614	2.036	n/a	stim	poldrack-single-stim	s586	False	1
15.544	0.549	16.093	-3.62822129587151	draw_card	0.549	columbia_card_task_fmri	14.0	0.8	89.0	-75.0	0.2	6.0	2.0	1.0	4.824139016336513	0.549	n/a	stim	poldrack-single-stim	s586	False	1
16.096	0.927	17.023	-8.078221295871511	draw_card	0.927	columbia_card_task_fmri	14.0	0.75	89.0	-75.0	0.25	6.0	3.0	1.0	7.762237888746977	0.927	n/a	stim	poldrack-single-stim	s586	False	1
17.024	2.858	19.882	-15.494887962538176	draw_card	2.858	columbia_card_task_fmri	14.0	0.6666666666666667	89.0	-75.0	0.3333333333333333	6.0	4.0	1.0	11.179078592113845	2.858	4.0	stim	poldrack-single-stim	s586	False	0
20.634	1.5	19.883	n/a	-1.0	2.454	columbia_card_task_fmri	n/a	n/a	-1.0	n/a	n/a	n/a	n/a	n/a	n/a	n/a	n/a	ITI	poldrack-single-stim	s586	False	0
22.34	1.343	23.683	1.005112037461823	draw_card	1.343	columbia_card_task_fmri	15.0	0.8333333333333334	89.0	-70.0	0.1666666666666666	6.0	1.0	1.0	0.901820012781144	1.343	n/a	stim	poldrack-single-stim	s586	False	1
23.683	0.757	24.44	-1.828221295871511	draw_card	0.757	columbia_card_task_fmri	15.0	0.8	89.0	-70.0	0.2	6.0	2.0	1.0	3.224158518903142	0.757	n/a	stim	poldrack-single-stim	s586	False	1
24.442	3.119	27.561	-6.078221295871511	end_round	3.119	columbia_card_task_fmri	15.0	0.75	71.0	-70.0	0.25	6.0	3.0	1.0	6.030205096925787	3.119	2.0	stim	poldrack-single-stim	s586	False	1
28.316	1.5	27.565	n/a	-1.0	2.522	columbia_card_task_fmri	n/a	n/a	-1.0	n/a	n/a	n/a	n/a	n/a	n/a	n/a	n/a	ITI	poldrack-single-stim	s586	False	0
30.09	1.728	31.818	1.838445370795157	draw_card	1.728	columbia_card_task_fmri	17.0	0.8333333333333334	89.0	-75.0	0.1666666666666666	6.0	1.0	1.0	3.5105305495009027	1.728	n/a	stim	poldrack-single-stim	s586	False	1
31.821	0.569	32.39	-1.2282212958715095	draw_card	0.569	columbia_card_task_fmri	17.0	0.8	89.0	-75.0	0.2	6.0	2.0	1.0	6.024125502310863	0.569	n/a	stim	poldrack-single-stim	s586	False	1
32.391	0.787	33.178	-5.828221295871511	draw_card	0.787	columbia_card_task_fmri	17.0	0.75	89.0	-75.0	0.25	6.0	3.0	1.0	9.06126351067054	0.787	3.0	stim	poldrack-single-stim	s586	False	0
33.931	1.5	33.18	n/a	-1.0	2.386	columbia_card_task_fmri	n/a	n/a	-1.0	n/a	n/a	n/a	n/a	n/a	n/a	n/a	n/a	ITI	poldrack-single-stim	s586	False	0
35.569	1.898	37.467	3.171778704128489	draw_card	1.898	columbia_card_task_fmri	24.0	0.75	89.0	-60.0	0.25	8.0	1.0	2.0	5.5971971670575975	1.898	n/a	stim	poldrack-single-stim	s586	False	1
37.469	1.344	38.813	0.171778704128489	draw_card	1.344	columbia_card_task_fmri	24.0	0.7142857142857143	89.0	-60.0	0.2857142857142857	8.0	2.0	2.0	7.1714453026804	1.344	2.0	stim	poldrack-single-stim	s586	False	0
39.568	1.5	38.817	n/a	-1.0	2.454	columbia_card_task_fmri	n/a	n/a	-1.0	n/a	n/a	n/a	n/a	n/a	n/a	n/a	n/a	ITI	poldrack-single-stim	s586	False	0
41.273	1.16	42.433	3.171778704128489	draw_card	1.16	columbia_card_task_fmri	29.0	0.75	89.0	-75.0	0.25	8.0	1.0	2.0	14.2573732004436	1.16	n/a	stim	poldrack-single-stim	s586	False	1
42.434	0.725	43.159	-0.5425070101572227	end_round	0.725	columbia_card_task_fmri	29.0	0.7142857142857143	71.0	-75.0	0.2857142857142857	8.0	2.0	2.0	16.206449563247066	0.725	1.0	stim	poldrack-single-stim	s586	False	1
43.913	1.5	43.162	n/a	-1.0	2.522	columbia_card_task_fmri	n/a	n/a	-1.0	n/a	n/a	n/a	n/a	n/a	n/a	n/a	n/a	ITI	poldrack-single-stim	s586	False	0
45.688	2.607	48.295	-1.0504435180937306	draw_card	2.607	columbia_card_task_fmri	17.0	0.7777777777777778	89.0	-65.0	0.2222222222222222	9.0	1.0	2.0	3.3148135555693194	2.607	1.0	stim	poldrack-single-stim	s586	False	0
49.047	1.5	48.296	n/a	-1.0	2.522	columbia_card_task_fmri	n/a	n/a	-1.0	n/a	n/a	n/a	n/a	n/a	n/a	n/a	n/a	ITI	poldrack-single-stim	s586	False	0
50.822	1.126	51.948	3.2717787041284887	draw_card	1.126	columbia_card_task_fmri	14.0	0.9	89.0	-95.0	0.1	10.0	1.0	1.0	1.924175769998751	1.126	n/a	stim	poldrack-single-stim	s586	False	1
51.95	2.259	54.209	2.060667593017377	draw_card	2.259	columbia_card_task_fmri	14.0	0.8888888888888888	89.0	-95.0	0.1111111111111111	10.0	2.0	1.0	3.479550461154556	2.259	2.0	stim	poldrack-single-stim	s586	False	0
54.964	1.5	54.213	n/a	-1.0	2.59	columbia_card_task_fmri	n/a	n/a	-1.0	n/a	n/a	n/a	n/a	n/a	n/a	n/a	n/a	ITI	poldrack-single-stim	s586	False	0
56.806	1.362	58.168	-0.8282212958715109	draw_card	1.362	columbia_card_task_fmri	15.0	0.8	89.0	-65.0	0.2	10.0	1.0	2.0	1.2241856396037356	1.362	n/a	stim	poldrack-single-stim	s586	False	1
58.17	1.69	59.86	-2.605999073649288	end_round	1.69	columbia_card_task_fmri	15.0	0.7777777777777778	71.0	-65.0	0.2222222222222222	10.0	2.0	2.0	2.4833449557270946	1.69	1.0	stim	poldrack-single-stim	s586	False	1
60.614	1.5	59.863	n/a	-1.0	2.454	columbia_card_task_fmri	n/a	n/a	-1.0	n/a	n/a	n/a	n/a	n/a	n/a	n/a	n/a	ITI	poldrack-single-stim	s586	False	0
62.321	1.919	64.24	0.7717787041284905	draw_card	1.919	columbia_card_task_fmri	17.0	0.8	89.0	-65.0	0.2	10.0	1.0	2.0	2.024174394443332	1.919	n/a	stim	poldrack-single-stim	s586	False	1
64.243	0.869	65.112	-1.0504435180937306	draw_card	0.869	columbia_card_task_fmri	17.0	0.7777777777777778	89.0	-65.0	0.2222222222222222	10.0	2.0	2.0	3.3148135555693194	0.869	n/a	stim	poldrack-single-stim	s586	False	1
65.115	0.581	65.696	-3.328221295871511	end_round	0.581	columbia_card_task_fmri	17.0	0.75	71.0	-65.0	0.25	10.0	3.0	2.0	4.7311816564876885	0.581	2.0	stim	poldrack-single-stim	s586	False	1
66.448	1.5	65.697	n/a	-1.0	2.318	columbia_card_task_fmri	n/a	n/a	-1.0	n/a	n/a	n/a	n/a	n/a	n/a	n/a	n/a	ITI	poldrack-single-stim	s586	False	0
68.018	2.055	70.073	-0.6615546292048431	draw_card	2.055	columbia_card_task_fmri	13.0	0.8333333333333334	89.0	-70.0	0.1666666666666666	12.0	1.0	2.0	0.1564752429995621	2.055	1.0	stim	poldrack-single-stim	s586	False	0
70.83	1.5	70.079	n/a	-1.0	2.25	columbia_card_task_fmri	n/a	n/a	-1.0	n/a	n/a	n/a	n/a	n/a	n/a	n/a	n/a	ITI	poldrack-single-stim	s586	False	0
72.332	1.243	73.575	-0.6615546292048431	end_round	1.243	columbia_card_task_fmri	15.0	0.8333333333333334	71.0	-80.0	0.1666666666666666	12.0	1.0	2.0	4.628550949585598	1.243	0.0	stim	poldrack-single-stim	s586	False	1
74.33	1.5	73.579	n/a	-1.0	2.658	columbia_card_task_fmri	n/a	n/a	-1.0	n/a	n/a	n/a	n/a	n/a	n/a	n/a	n/a	ITI	poldrack-single-stim	s586	False	0
76.24	3.081	79.321	-1.62822129587151	draw_card	3.081	columbia_card_task_fmri	14.0	0.8	89.0	-65.0	0.2	15.0	1.0	3.0	0.8241914756949882	3.081	n/a	stim	poldrack-single-stim	s586	False	1
79.323	0.917	80.24	-2.756792724442938	end_round	0.917	columbia_card_task_fmri	14.0	0.7857142857142857	71.0	-65.0	0.2142857142857142	15.0	2.0	3.0	1.6399260890211416	0.917	1.0	stim	poldrack-single-stim	s586	False	1
80.994	1.5	80.243	n/a	-1.0	2.454	columbia_card_task_fmri	n/a	n/a	-1.0	n/a	n/a	n/a	n/a	n/a	n/a	n/a	n/a	ITI	poldrack-single-stim	s586	False	0
82.701	1.307	84.008	-1.703221295871511	draw_card	1.307	columbia_card_task_fmri	1.0	0.9375	89.0	-45.0	0.0625	16.0	1.0	1.0	-19.640123348508155	1.307	n/a	stim	poldrack-single-stim	s586	False	1
84.01	1.978	85.988	-1.8948879625381772	draw_card	1.978	columbia_card_task_fmri	1.0	0.9333333333333332	89.0	-45.0	0.0666666666666666	16.0	2.0	1.0	-19.300573690575437	1.978	n/a	stim	poldrack-single-stim	s586	False	1
85.99	2.069	88.059	-2.1139355815857965	draw_card	2.069	columbia_card_task_fmri	1.0	0.9285714285714286	89.0	-45.0	0.0714285714285714	16.0	3.0	1.0	-18.92821875499302	2.069	n/a	stim	poldrack-single-stim	s586	False	1
88.061	1.409	89.47	-2.3666828343330493	draw_card	1.409	columbia_card_task_fmri	1.0	0.9230769230769232	89.0	-45.0	0.0769230769230769	16.0	4.0	1.0	-18.517481487760964	1.409	n/a	stim	poldrack-single-stim	s586	False	1
89.473	1.901	91.374	-2.6615546292048444	end_round	1.901	columbia_card_task_fmri	1.0	0.9166666666666666	71.0	-45.0	0.0833333333333333	16.0	5.0	1.0	-18.061386633486254	1.901	4.0	stim	poldrack-single-stim	s586	False	1
92.129	1.5	91.378	n/a	-1.0	2.386	columbia_card_task_fmri	n/a	n/a	-1.0	n/a	n/a	n/a	n/a	n/a	n/a	n/a	n/a	ITI	poldrack-single-stim	s586	False	0
93.767	2.546	96.313	-0.7657212958715109	end_round	2.546	columbia_card_task_fmri	15.0	0.8125	71.0	-70.0	0.1875	16.0	1.0	3.0	2.400721155655237	2.546	0.0	stim	poldrack-single-stim	s586	False	1
97.067	1.5	96.316	n/a	-1.0	2.59	columbia_card_task_fmri	n/a	n/a	-1.0	n/a	n/a	n/a	n/a	n/a	n/a	n/a	n/a	ITI	poldrack-single-stim	s586	False	0
98.909	2.146	101.055	6.171778704128489	end_round	2.146	columbia_card_task_fmri	30.0	0.7	71.0	-50.0	0.3	10.0	1.0	3.0	5.884732586359629	2.146	0.0	stim	poldrack-single-stim	s586	False	1
101.809	1.5	101.058	n/a	-1.0	2.318	columbia_card_task_fmri	n/a	n/a	-1.0	n/a	n/a	n/a	n/a	n/a	n/a	n/a	n/a	ITI	poldrack-single-stim	s586	False	0
103.38	1.662	105.042	5.571778704128489	draw_card	1.662	columbia_card_task_fmri	17.0	0.8666666666666667	89.0	-70.0	0.1333333333333333	15.0	1.0	2.0	-1.2014633661706426	1.662	n/a	stim	poldrack-single-stim	s586	False	1
105.044	0.894	105.938	4.743207275557062	draw_card	0.894	columbia_card_task_fmri	17.0	0.8571428571428572	89.0	-70.0	0.1428571428571428	15.0	2.0	2.0	-0.3321325588063466	0.894	n/a	stim	poldrack-single-stim	s586	False	1
105.94	0.789	106.729	3.787163319513104	end_round	0.789	columbia_card_task_fmri	17.0	0.8461538461538461	71.0	-70.0	0.1538461538461538	15.0	3.0	2.0	0.6139000731807762	0.789	2.0	stim	poldrack-single-stim	s586	False	1
107.483	1.5	106.732	n/a	-1.0	2.59	columbia_card_task_fmri	n/a	n/a	-1.0	n/a	n/a	n/a	n/a	n/a	n/a	n/a	n/a	ITI	poldrack-single-stim	s586	False	0
109.326	1.096	110.422	0.7967787041284891	draw_card	1.096	columbia_card_task_fmri	7.0	0.9375	89.0	-95.0	0.0625	16.0	1.0	1.0	-6.085409031728933	1.096	n/a	stim	poldrack-single-stim	s586	False	1
110.424	2.177	112.601	0.3717787041284892	draw_card	2.177	columbia_card_task_fmri	7.0	0.9333333333333332	89.0	-95.0	0.0666666666666666	16.0	2.0	1.0	-5.3324253181403805	2.177	n/a	stim	poldrack-single-stim	s586	False	1
112.604	0.982	113.586	-0.1139355815857965	draw_card	0.982	columbia_card_task_fmri	7.0	0.9285714285714286	89.0	-95.0	0.0714285714285714	16.0	3.0	1.0	-4.506697340053954	0.982	n/a	stim	poldrack-single-stim	s586	False	1
113.588	2.33	115.918	-0.6743751420253576	draw_card	2.33	columbia_card_task_fmri	7.0	0.9230769230769232	89.0	-95.0	0.0769230769230769	16.0	4.0	1.0	-3.595858386007965	2.33	n/a	stim	poldrack-single-stim	s586	False	1
115.921	1.062	116.983	-1.328221295871511	end_round	1.062	columbia_card_task_fmri	7.0	0.9166666666666666	71.0	-95.0	0.0833333333333333	16.0	5.0	1.0	-2.5844413538234186	1.062	4.0	stim	poldrack-single-stim	s586	False	1
117.739	1.5	116.988	n/a	-1.0	2.386	columbia_card_task_fmri	n/a	n/a	-1.0	n/a	n/a	n/a	n/a	n/a	n/a	n/a	n/a	ITI	poldrack-single-stim	s586	False	0
119.378	1.169	120.547	2.359278704128489	draw_card	1.169	columbia_card_task_fmri	9.0	0.9375	89.0	-100.0	0.0625	16.0	1.0	1.0	-4.391017191986354	1.169	n/a	stim	poldrack-single-stim	s586	False	1
120.55	1.422	121.972	1.9051120374618224	draw_card	1.422	columbia_card_task_fmri	9.0	0.9333333333333332	89.0	-100.0	0.0666666666666666	16.0	2.0	1.0	-3.5863557762459983	1.422	n/a	stim	poldrack-single-stim	s586	False	1
121.974	0.61	122.584	1.3860644184142044	draw_card	0.61	columbia_card_task_fmri	9.0	0.9285714285714286	89.0	-100.0	0.0714285714285714	16.0	3.0	1.0	-2.703957770427003	0.61	n/a	stim	poldrack-single-stim	s586	False	1
122.586	1.331	123.917	0.7871633195131049	draw_card	1.331	columbia_card_task_fmri	9.0	0.9230769230769232	89.0	-100.0	0.0769230769230769	16.0	4.0	1.0	-1.730607760385805	1.331	n/a	stim	poldrack-single-stim	s586	False	1
123.921	4.602	128.523	0.0884453707951569	draw_card	4.602	columbia_card_task_fmri	9.0	0.9166666666666666	89.0	-100.0	0.0833333333333333	16.0	5.0	1.0	-0.6497771682945377	4.602	n/a	stim	poldrack-single-stim	s586	False	1
128.525	0.971	129.496	-0.737312204962421	end_round	0.971	columbia_card_task_fmri	9.0	0.9090909090909092	71.0	-100.0	0.0909090909090909	16.0	6.0	1.0	0.5594922340935469	0.971	5.0	stim	poldrack-single-stim	s586	False	1
130.252	1.5	129.501	n/a	-1.0	2.318	columbia_card_task_fmri	n/a	n/a	-1.0	n/a	n/a	n/a	n/a	n/a	n/a	n/a	n/a	ITI	poldrack-single-stim	s586	False	0
131.823	1.632	133.455	3.296778704128489	draw_card	1.632	columbia_card_task_fmri	15.0	0.875	89.0	-80.0	0.125	16.0	1.0	2.0	0.6424909947611646	1.632	n/a	stim	poldrack-single-stim	s586	False	1
133.458	0.576	134.034	2.505112037461823	end_round	0.576	columbia_card_task_fmri	15.0	0.8666666666666667	71.0	-80.0	0.1333333333333333	16.0	2.0	2.0	1.5179716979784423	0.576	1.0	stim	poldrack-single-stim	s586	False	1
134.791	1.5	134.04	n/a	-1.0	2.318	columbia_card_task_fmri	n/a	n/a	-1.0	n/a	n/a	n/a	n/a	n/a	n/a	n/a	n/a	ITI	poldrack-single-stim	s586	False	0
136.361	1.823	138.184	5.421778704128489	draw_card	1.823	columbia_card_task_fmri	16.0	0.875	89.0	-70.0	0.125	16.0	1.0	2.0	-2.333930087456679	1.823	n/a	stim	poldrack-single-stim	s586	False	1
138.187	0.522	138.709	4.705112037461822	draw_card	0.522	columbia_card_task_fmri	16.0	0.8666666666666667	89.0	-70.0	0.1333333333333333	16.0	2.0	2.0	-1.541392199656638	0.522	n/a	stim	poldrack-single-stim	s586	False	1
138.712	2.206	140.918	3.886064418414205	draw_card	2.206	columbia_card_task_fmri	16.0	0.8571428571428572	89.0	-70.0	0.1428571428571428	16.0	3.0	2.0	-0.6820540298021278	2.206	3.0	stim	poldrack-single-stim	s586	False	0
141.675	1.5	140.924	n/a	-1.0	2.318	columbia_card_task_fmri	n/a	n/a	-1.0	n/a	n/a	n/a	n/a	n/a	n/a	n/a	n/a	ITI	poldrack-single-stim	s586	False	0
143.246	2.877	146.123	6.734278704128489	draw_card	2.877	columbia_card_task_fmri	30.0	0.6875	89.0	-45.0	0.3125	16.0	1.0	5.0	3.987579397701072	2.877	n/a	stim	poldrack-single-stim	s586	False	1
146.126	1.42	147.546	5.171778704128492	end_round	1.42	columbia_card_task_fmri	30.0	0.6666666666666667	71.0	-45.0	0.3333333333333333	16.0	2.0	5.0	4.579480943541736	1.42	1.0	stim	poldrack-single-stim	s586	False	1
148.302	1.5	147.551	n/a	-1.0	2.386	columbia_card_task_fmri	n/a	n/a	-1.0	n/a	n/a	n/a	n/a	n/a	n/a	n/a	n/a	ITI	poldrack-single-stim	s586	False	0
149.941	1.494	151.435	-1.494887962538177	draw_card	1.494	columbia_card_task_fmri	13.0	0.8333333333333334	89.0	-75.0	0.1666666666666666	6.0	1.0	1.0	2.0198381239148766	1.494	n/a	stim	poldrack-single-stim	s586	False	1
151.438	0.448	151.886	-4.428221295871511	draw_card	0.448	columbia_card_task_fmri	13.0	0.8	89.0	-75.0	0.2	6.0	2.0	1.0	4.424143725766111	0.448	2.0	stim	poldrack-single-stim	s586	False	0
152.641	1.5	151.89	n/a	-1.0	2.25	columbia_card_task_fmri	n/a	n/a	-1.0	n/a	n/a	n/a	n/a	n/a	n/a	n/a	n/a	ITI	poldrack-single-stim	s586	False	0
154.143	1.705	155.848	0.1717787041284908	draw_card	1.705	columbia_card_task_fmri	14.0	0.8333333333333334	89.0	-70.0	0.1666666666666666	6.0	1.0	1.0	0.5291475610899639	1.705	n/a	stim	poldrack-single-stim	s586	False	1
155.851	1.442	157.293	-2.62822129587151	draw_card	1.442	columbia_card_task_fmri	14.0	0.8	89.0	-70.0	0.2	6.0	2.0	1.0	2.824163684755998	1.442	n/a	stim	poldrack-single-stim	s586	False	1
157.295	1.683	158.978	-6.828221295871511	end_round	1.683	columbia_card_task_fmri	14.0	0.75	71.0	-70.0	0.25	6.0	3.0	1.0	5.59719716705759	1.683	2.0	stim	poldrack-single-stim	s586	False	1
159.731	1.5	158.98	n/a	-1.0	2.386	columbia_card_task_fmri	n/a	n/a	-1.0	n/a	n/a	n/a	n/a	n/a	n/a	n/a	n/a	ITI	poldrack-single-stim	s586	False	0
161.37	5.087	166.457	0.1717787041284908	end_round	5.087	columbia_card_task_fmri	16.0	0.8333333333333334	71.0	-80.0	0.1666666666666666	6.0	1.0	1.0	5.001224605008634	5.087	0.0	stim	poldrack-single-stim	s586	False	1
167.211	1.5	166.46	n/a	-1.0	2.59	columbia_card_task_fmri	n/a	n/a	-1.0	n/a	n/a	n/a	n/a	n/a	n/a	n/a	n/a	ITI	poldrack-single-stim	s586	False	0
169.054	6.54	175.594	2.671778704128491	draw_card	6.54	columbia_card_task_fmri	17.0	0.8333333333333334	89.0	-70.0	0.1666666666666666	6.0	1.0	1.0	1.6471652985386491	6.54	1.0	stim	poldrack-single-stim	s586	False	0
176.351	1.5	175.6	n/a	-1.0	2.658	columbia_card_task_fmri	n/a	n/a	-1.0	n/a	n/a	n/a	n/a	n/a	n/a	n/a	n/a	ITI	poldrack-single-stim	s586	False	0
178.262	4.586	182.848	2.671778704128489	draw_card	4.586	columbia_card_task_fmri	25.0	0.75	89.0	-65.0	0.25	8.0	1.0	2.0	8.195246336917261	4.586	n/a	stim	poldrack-single-stim	s586	False	1
182.85	0.536	183.386	-0.5425070101572227	end_round	0.536	columbia_card_task_fmri	25.0	0.7142857142857143	71.0	-65.0	0.2857142857142857	8.0	2.0	2.0	9.881943091700126	0.536	1.0	stim	poldrack-single-stim	s586	False	1
184.143	1.5	183.392	n/a	-1.0	2.386	columbia_card_task_fmri	n/a	n/a	-1.0	n/a	n/a	n/a	n/a	n/a	n/a	n/a	n/a	ITI	poldrack-single-stim	s586	False	0
185.782	2.001	187.783	2.671778704128489	end_round	2.001	columbia_card_task_fmri	30.0	0.75	71.0	-80.0	0.25	8.0	1.0	2.0	16.855431541624075	2.001	0.0	stim	poldrack-single-stim	s586	False	1
188.538	1.5	187.787	n/a	-1.0	2.386	columbia_card_task_fmri	n/a	n/a	-1.0	n/a	n/a	n/a	n/a	n/a	n/a	n/a	n/a	ITI	poldrack-single-stim	s586	False	0
190.177	2.014	192.191	2.37177870412849	end_round	2.014	columbia_card_task_fmri	13.0	0.9	71.0	-95.0	0.1	10.0	1.0	1.0	1.6241799476104255	2.014	0.0	stim	poldrack-single-stim	s586	False	1
192.948	1.5	192.197	n/a	-1.0	2.25	columbia_card_task_fmri	n/a	n/a	-1.0	n/a	n/a	n/a	n/a	n/a	n/a	n/a	n/a	ITI	poldrack-single-stim	s586	False	0
194.451	2.116	196.567	3.7717787041284887	draw_card	2.116	columbia_card_task_fmri	14.0	0.9	89.0	-90.0	0.1	10.0	1.0	1.0	0.4241974614262496	2.116	n/a	stim	poldrack-single-stim	s586	False	1
196.57	0.663	197.233	2.616223148572932	end_round	0.663	columbia_card_task_fmri	14.0	0.8888888888888888	71.0	-90.0	0.1111111111111111	10.0	2.0	1.0	1.908222765067574	0.663	1.0	stim	poldrack-single-stim	s586	False	1
197.988	1.5	197.237	n/a	-1.0	2.318	columbia_card_task_fmri	n/a	n/a	-1.0	n/a	n/a	n/a	n/a	n/a	n/a	n/a	n/a	ITI	poldrack-single-stim	s586	False	0
199.559	2.193	201.752	-1.0282212958715102	end_round	2.193	columbia_card_task_fmri	16.0	0.8	71.0	-70.0	0.2	10.0	1.0	2.0	3.6241534731841263	2.193	0.0	stim	poldrack-single-stim	s586	False	1
202.505	1.5	201.754	n/a	-1.0	2.25	columbia_card_task_fmri	n/a	n/a	-1.0	n/a	n/a	n/a	n/a	n/a	n/a	n/a	n/a	ITI	poldrack-single-stim	s586	False	0
204.008	5.587	209.595	-1.744887962538177	draw_card	5.587	columbia_card_task_fmri	7.0	0.9166666666666666	89.0	-100.0	0.0833333333333333	12.0	1.0	1.0	-1.2025388128646846	5.587	n/a	stim	poldrack-single-stim	s586	False	1
209.598	0.505	210.103	-2.55549402314424	end_round	0.505	columbia_card_task_fmri	7.0	0.9090909090909092	71.0	-100.0	0.0909090909090909	12.0	2.0	1.0	-0.0154585399068487	0.505	1.0	stim	poldrack-single-stim	s586	False	1
210.857	1.5	210.106	n/a	-1.0	2.25	columbia_card_task_fmri	n/a	n/a	-1.0	n/a	n/a	n/a	n/a	n/a	n/a	n/a	n/a	ITI	poldrack-single-stim	s586	False	0
212.36	3.08	215.44	-1.4948879625381752	draw_card	3.08	columbia_card_task_fmri	14.0	0.8333333333333334	89.0	-80.0	0.1666666666666666	12.0	1.0	2.0	4.255877386518936	3.08	n/a	stim	poldrack-single-stim	s586	False	1
215.442	0.534	215.976	-2.9191303867806044	end_round	0.534	columbia_card_task_fmri	14.0	0.8181818181818181	71.0	-80.0	0.1818181818181818	12.0	2.0	2.0	5.479424670231094	0.534	1.0	stim	poldrack-single-stim	s586	False	1
216.731	1.5	215.98	n/a	-1.0	2.386	columbia_card_task_fmri	n/a	n/a	-1.0	n/a	n/a	n/a	n/a	n/a	n/a	n/a	n/a	ITI	poldrack-single-stim	s586	False	0
218.372	1.672	220.044	0.171778704128489	draw_card	1.672	columbia_card_task_fmri	15.0	0.8333333333333334	89.0	-75.0	0.1666666666666666	12.0	1.0	2.0	2.765184119385349	1.672	n/a	stim	poldrack-single-stim	s586	False	1
220.048	1.375	221.423	-1.191857659507876	draw_card	1.375	columbia_card_task_fmri	15.0	0.8181818181818181	89.0	-75.0	0.1818181818181818	12.0	2.0	2.0	3.936664324740473	1.375	n/a	stim	poldrack-single-stim	s586	False	1
221.427	0.455	221.882	-2.828221295871511	end_round	0.455	columbia_card_task_fmri	15.0	0.8	71.0	-75.0	0.2	12.0	3.0	2.0	5.22413441155911	0.455	2.0	stim	poldrack-single-stim	s586	False	1
222.635	1.5	221.884	n/a	-1.0	2.386	columbia_card_task_fmri	n/a	n/a	-1.0	n/a	n/a	n/a	n/a	n/a	n/a	n/a	n/a	ITI	poldrack-single-stim	s586	False	0
224.275	1.713	225.988	-0.8282212958715109	draw_card	1.713	columbia_card_task_fmri	15.0	0.8	89.0	-65.0	0.2	15.0	1.0	3.0	1.2241856396037356	1.713	n/a	stim	poldrack-single-stim	s586	False	1
225.991	0.44	226.431	-1.9710784387286533	end_round	0.44	columbia_card_task_fmri	15.0	0.7857142857142857	71.0	-65.0	0.2142857142857142	15.0	2.0	3.0	2.05024630311382	0.44	1.0	stim	poldrack-single-stim	s586	False	1
227.185	1.5	226.434	n/a	-1.0	2.726	columbia_card_task_fmri	n/a	n/a	-1.0	n/a	n/a	n/a	n/a	n/a	n/a	n/a	n/a	ITI	poldrack-single-stim	s586	False	0
229.164	1.185	230.349	-1.578221295871511	draw_card	1.185	columbia_card_task_fmri	14.0	0.8125	89.0	-70.0	0.1875	16.0	1.0	3.0	2.0104140748204635	1.185	1.0	stim	poldrack-single-stim	s586	False	0
231.106	1.5	230.355	n/a	-1.0	2.454	columbia_card_task_fmri	n/a	n/a	-1.0	n/a	n/a	n/a	n/a	n/a	n/a	n/a	n/a	ITI	poldrack-single-stim	s586	False	0
232.813	2.986	235.799	-1.640721295871511	end_round	2.986	columbia_card_task_fmri	11.0	0.6875	71.0	-30.0	0.3125	16.0	1.0	5.0	-11.77149045055164	2.986	0.0	stim	poldrack-single-stim	s586	False	1
236.555	1.5	235.804	n/a	-1.0	2.318	columbia_card_task_fmri	n/a	n/a	-1.0	n/a	n/a	n/a	n/a	n/a	n/a	n/a	n/a	ITI	poldrack-single-stim	s586	False	0
238.126	1.704	239.83	3.171778704128489	draw_card	1.704	columbia_card_task_fmri	15.0	0.8666666666666667	89.0	-75.0	0.1333333333333333	15.0	1.0	2.0	-0.1816760922976499	1.704	n/a	stim	poldrack-single-stim	s586	False	1
239.833	1.251	241.084	2.314635846985633	draw_card	1.251	columbia_card_task_fmri	15.0	0.8571428571428572	89.0	-75.0	0.1428571428571428	15.0	2.0	2.0	0.7176326055125877	1.251	n/a	stim	poldrack-single-stim	s586	False	1
241.087	0.534	241.621	1.3256248579746424	end_round	0.534	columbia_card_task_fmri	15.0	0.8461538461538461	71.0	-75.0	0.1538461538461538	15.0	3.0	2.0	1.696288042887172	0.534	2.0	stim	poldrack-single-stim	s586	False	1
242.379	1.5	241.628	n/a	-1.0	2.318	columbia_card_task_fmri	n/a	n/a	-1.0	n/a	n/a	n/a	n/a	n/a	n/a	n/a	n/a	ITI	poldrack-single-stim	s586	False	0
243.95	1.045	244.995	4.905112037461823	draw_card	1.045	columbia_card_task_fmri	17.0	0.8666666666666667	89.0	-75.0	0.1333333333333333	15.0	1.0	2.0	0.4981826927647574	1.045	1.0	stim	poldrack-single-stim	s586	False	0
245.75	1.5	244.999	n/a	-1.0	2.59	columbia_card_task_fmri	n/a	n/a	-1.0	n/a	n/a	n/a	n/a	n/a	n/a	n/a	n/a	ITI	poldrack-single-stim	s586	False	0
247.594	3.695	251.289	0.484278704128489	end_round	3.695	columbia_card_task_fmri	2.0	0.9375	71.0	-25.0	0.0625	16.0	1.0	1.0	-24.23835895567861	3.695	0.0	stim	poldrack-single-stim	s586	False	1
252.046	1.5	251.295	n/a	-1.0	2.726	columbia_card_task_fmri	n/a	n/a	-1.0	n/a	n/a	n/a	n/a	n/a	n/a	n/a	n/a	ITI	poldrack-single-stim	s586	False	0
254.024	4.856	258.88	2.671778704128489	draw_card	4.856	columbia_card_task_fmri	9.0	0.9375	89.0	-95.0	0.0625	16.0	1.0	1.0	-5.6012976046169705	4.856	n/a	stim	poldrack-single-stim	s586	False	1
258.883	0.463	259.346	2.2384453707951564	end_round	0.463	columbia_card_task_fmri	9.0	0.9333333333333332	71.0	-95.0	0.0666666666666666	16.0	2.0	1.0	-4.833548817673115	0.463	1.0	stim	poldrack-single-stim	s586	False	1
260.101	1.5	259.35	n/a	-1.0	2.522	columbia_card_task_fmri	n/a	n/a	-1.0	n/a	n/a	n/a	n/a	n/a	n/a	n/a	n/a	ITI	poldrack-single-stim	s586	False	0
261.876	1.523	263.399	4.234278704128489	draw_card	1.523	columbia_card_task_fmri	11.0	0.9375	89.0	-100.0	0.0625	16.0	1.0	1.0	-3.906904348824263	1.523	n/a	stim	poldrack-single-stim	s586	False	1
263.402	0.389	263.791	3.7717787041284896	end_round	0.389	columbia_card_task_fmri	11.0	0.9333333333333332	71.0	-100.0	0.0666666666666666	16.0	2.0	1.0	-3.0874779016316864	0.389	1.0	stim	poldrack-single-stim	s586	False	1
264.545	1.5	263.794	n/a	-1.0	3.134	columbia_card_task_fmri	n/a	n/a	-1.0	n/a	n/a	n/a	n/a	n/a	n/a	n/a	n/a	ITI	poldrack-single-stim	s586	False	0
266.932	3.304	270.236	4.796778704128489	draw_card	3.304	columbia_card_task_fmri	16.0	0.875	89.0	-75.0	0.125	16.0	1.0	2.0	-0.6803640195950607	3.304	n/a	stim	poldrack-single-stim	s586	False	1
270.239	3.005	273.244	4.038445370795156	draw_card	3.005	columbia_card_task_fmri	16.0	0.8666666666666667	89.0	-75.0	0.1333333333333333	16.0	2.0	2.0	0.1582532426336982	3.005	n/a	stim	poldrack-single-stim	s586	False	1
273.248	0.58	273.828	3.171778704128491	end_round	0.58	columbia_card_task_fmri	16.0	0.8571428571428572	71.0	-75.0	0.1428571428571428	16.0	3.0	2.0	1.067554563635852	0.58	2.0	stim	poldrack-single-stim	s586	False	1
274.585	1.5	273.834	n/a	-1.0	2.386	columbia_card_task_fmri	n/a	n/a	-1.0	n/a	n/a	n/a	n/a	n/a	n/a	n/a	n/a	ITI	poldrack-single-stim	s586	False	0
276.225	6.434	282.659	5.046778704128489	draw_card	6.434	columbia_card_task_fmri	17.0	0.875	89.0	-80.0	0.125	16.0	1.0	2.0	1.3039191403120365	6.434	n/a	stim	poldrack-single-stim	s586	False	1
282.663	0.712	283.375	4.238445370795157	draw_card	0.712	columbia_card_task_fmri	17.0	0.8666666666666667	89.0	-80.0	0.1333333333333333	16.0	2.0	2.0	2.197831546718636	0.712	n/a	stim	poldrack-single-stim	s586	False	1
283.379	0.387	283.766	3.314635846985635	end_round	0.387	columbia_card_task_fmri	17.0	0.8571428571428572	71.0	-80.0	0.1428571428571428	16.0	3.0	2.0	3.167088541356609	0.387	2.0	stim	poldrack-single-stim	s586	False	1
284.52	1.5	283.769	n/a	-1.0	2.386	columbia_card_task_fmri	n/a	n/a	-1.0	n/a	n/a	n/a	n/a	n/a	n/a	n/a	n/a	ITI	poldrack-single-stim	s586	False	0
297.165	5.604	302.769	-0.6615546292048431	draw_card	5.604	columbia_card_task_fmri	13.0	0.8333333333333334	89.0	-70.0	0.1666666666666666	6.0	1.0	1.0	0.1564752429995621	5.604	n/a	stim	poldrack-single-stim	s586	False	1
302.773	2.315	305.088	-3.4282212958715106	draw_card	2.315	columbia_card_task_fmri	13.0	0.8	89.0	-70.0	0.2	6.0	2.0	1.0	2.424168975084772	2.315	n/a	stim	poldrack-single-stim	s586	False	1
305.091	0.612	305.703	-7.578221295871511	end_round	0.612	columbia_card_task_fmri	13.0	0.75	71.0	-70.0	0.25	6.0	3.0	1.0	5.164189352175978	0.612	2.0	stim	poldrack-single-stim	s586	False	1
306.461	1.5	305.71	n/a	-1.0	2.318	columbia_card_task_fmri	n/a	n/a	-1.0	n/a	n/a	n/a	n/a	n/a	n/a	n/a	n/a	ITI	poldrack-single-stim	s586	False	0
308.032	3.825	311.857	-0.6615546292048431	draw_card	3.825	columbia_card_task_fmri	15.0	0.8333333333333334	89.0	-80.0	0.1666666666666666	6.0	1.0	1.0	4.628550949585598	3.825	n/a	stim	poldrack-single-stim	s586	False	1
311.86	3.707	315.567	-3.828221295871511	draw_card	3.707	columbia_card_task_fmri	15.0	0.8	89.0	-80.0	0.2	6.0	2.0	1.0	7.224112841789097	3.707	n/a	stim	poldrack-single-stim	s586	False	1
315.57	0.887	316.457	-8.578221295871511	end_round	0.887	columbia_card_task_fmri	15.0	0.75	71.0	-80.0	0.25	6.0	3.0	1.0	10.360289921031008	0.887	2.0	stim	poldrack-single-stim	s586	False	1
317.213	1.5	316.462	n/a	-1.0	2.318	columbia_card_task_fmri	n/a	n/a	-1.0	n/a	n/a	n/a	n/a	n/a	n/a	n/a	n/a	ITI	poldrack-single-stim	s586	False	0
318.784	3.429	322.213	1.005112037461823	draw_card	3.429	columbia_card_task_fmri	16.0	0.8333333333333334	89.0	-75.0	0.1666666666666666	6.0	1.0	1.0	3.1378572819035675	3.429	n/a	stim	poldrack-single-stim	s586	False	1
322.216	2.21	324.426	-2.0282212958715102	draw_card	2.21	columbia_card_task_fmri	16.0	0.8	89.0	-75.0	0.2	6.0	2.0	1.0	5.624129907983896	2.21	n/a	stim	poldrack-single-stim	s586	False	1
324.43	6.267	330.697	-6.578221295871511	end_round	6.267	columbia_card_task_fmri	16.0	0.75	71.0	-75.0	0.25	6.0	3.0	1.0	8.628254878574591	6.267	2.0	stim	poldrack-single-stim	s586	False	1
331.454	1.5	330.703	n/a	-1.0	2.862	columbia_card_task_fmri	n/a	n/a	-1.0	n/a	n/a	n/a	n/a	n/a	n/a	n/a	n/a	ITI	poldrack-single-stim	s586	False	0
333.569	2.987	336.556	2.171778704128489	draw_card	2.987	columbia_card_task_fmri	21.0	0.75	89.0	-55.0	0.25	8.0	1.0	2.0	2.133138248890699	2.987	n/a	stim	poldrack-single-stim	s586	False	1
336.56	1.196	337.756	-0.5425070101572245	draw_card	1.196	columbia_card_task_fmri	21.0	0.7142857142857143	89.0	-55.0	0.2857142857142857	8.0	2.0	2.0	3.5574546167857086	1.196	n/a	stim	poldrack-single-stim	s586	False	1
337.759	0.717	338.476	-4.161554629204842	draw_card	0.717	columbia_card_task_fmri	21.0	0.6666666666666667	89.0	-55.0	0.3333333333333333	8.0	3.0	2.0	5.050879973572766	0.717	3.0	stim	poldrack-single-stim	s586	False	0
339.233	1.5	338.482	n/a	-1.0	2.726	columbia_card_task_fmri	n/a	n/a	-1.0	n/a	n/a	n/a	n/a	n/a	n/a	n/a	n/a	ITI	poldrack-single-stim	s586	False	0
341.212	2.152	343.364	3.421778704128489	draw_card	2.152	columbia_card_task_fmri	26.0	0.75	89.0	-65.0	0.25	8.0	1.0	2.0	8.628254878574591	2.152	n/a	stim	poldrack-single-stim	s586	False	1
343.367	0.768	344.135	0.1717787041284926	draw_card	0.768	columbia_card_task_fmri	26.0	0.7142857142857143	89.0	-65.0	0.2857142857142857	8.0	2.0	2.0	10.333693055502716	0.768	2.0	stim	poldrack-single-stim	s586	False	0
344.889	1.5	344.138	n/a	-1.0	2.25	columbia_card_task_fmri	n/a	n/a	-1.0	n/a	n/a	n/a	n/a	n/a	n/a	n/a	n/a	ITI	poldrack-single-stim	s586	False	0
346.392	1.501	347.893	-1.494887962538177	draw_card	1.501	columbia_card_task_fmri	15.0	0.7777777777777778	89.0	-60.0	0.2222222222222222	9.0	1.0	2.0	0.4046759806031126	1.501	n/a	stim	poldrack-single-stim	s586	False	1
347.896	1.257	349.153	-3.578221295871511	end_round	1.257	columbia_card_task_fmri	15.0	0.75	71.0	-60.0	0.25	9.0	2.0	2.0	1.7001315245614954	1.257	1.0	stim	poldrack-single-stim	s586	False	1
349.908	1.5	349.157	n/a	-1.0	2.318	columbia_card_task_fmri	n/a	n/a	-1.0	n/a	n/a	n/a	n/a	n/a	n/a	n/a	n/a	ITI	poldrack-single-stim	s586	False	0
351.48	3.87	355.35	2.87177870412849	draw_card	3.87	columbia_card_task_fmri	13.0	0.9	89.0	-90.0	0.1	10.0	1.0	1.0	0.1242020524216762	3.87	n/a	stim	poldrack-single-stim	s586	False	1
355.354	4.852	360.206	1.7273342596840444	draw_card	4.852	columbia_card_task_fmri	13.0	0.8888888888888888	89.0	-90.0	0.1111111111111111	10.0	2.0	1.0	1.5939574670865504	4.852	n/a	stim	poldrack-single-stim	s586	False	1
360.21	0.493	360.703	0.296778704128489	end_round	0.493	columbia_card_task_fmri	13.0	0.875	71.0	-90.0	0.125	10.0	3.0	1.0	3.2882058329697053	0.493	2.0	stim	poldrack-single-stim	s586	False	1
361.461	1.5	360.71	n/a	-1.0	2.454	columbia_card_task_fmri	n/a	n/a	-1.0	n/a	n/a	n/a	n/a	n/a	n/a	n/a	n/a	ITI	poldrack-single-stim	s586	False	0
363.169	2.751	365.92	4.171778704128489	draw_card	2.751	columbia_card_task_fmri	15.0	0.9	89.0	-95.0	0.1	10.0	1.0	1.0	2.224171668342084	2.751	n/a	stim	poldrack-single-stim	s586	False	1
365.924	2.368	368.292	2.949556481906266	draw_card	2.368	columbia_card_task_fmri	15.0	0.8888888888888888	89.0	-95.0	0.1111111111111111	10.0	2.0	1.0	3.793816226257317	2.368	n/a	stim	poldrack-single-stim	s586	False	1
368.296	1.897	370.193	1.421778704128489	draw_card	1.897	columbia_card_task_fmri	15.0	0.875	89.0	-95.0	0.125	10.0	3.0	1.0	5.603210668198795	1.897	n/a	stim	poldrack-single-stim	s586	False	1
370.197	0.449	370.646	-0.5425070101572245	end_round	0.449	columbia_card_task_fmri	15.0	0.8571428571428572	71.0	-95.0	0.1428571428571428	10.0	4.0	1.0	7.716089551634862	0.449	3.0	stim	poldrack-single-stim	s586	False	1
371.4	1.5	370.649	n/a	-1.0	2.522	columbia_card_task_fmri	n/a	n/a	-1.0	n/a	n/a	n/a	n/a	n/a	n/a	n/a	n/a	ITI	poldrack-single-stim	s586	False	0
373.175	4.694	377.869	-0.0282212958715102	draw_card	4.694	columbia_card_task_fmri	16.0	0.8	89.0	-65.0	0.2	10.0	1.0	2.0	1.6241799476104326	4.694	n/a	stim	poldrack-single-stim	s586	False	1
377.872	1.74	379.612	-1.8282212958715087	draw_card	1.74	columbia_card_task_fmri	16.0	0.7777777777777778	89.0	-65.0	0.2222222222222222	10.0	2.0	2.0	2.8990791888628387	1.74	n/a	stim	poldrack-single-stim	s586	False	1
379.617	0.539	380.156	-4.078221295871511	end_round	0.539	columbia_card_task_fmri	16.0	0.75	71.0	-65.0	0.25	10.0	3.0	2.0	4.2981740844071545	0.539	2.0	stim	poldrack-single-stim	s586	False	1
380.912	1.5	380.161	n/a	-1.0	2.318	columbia_card_task_fmri	n/a	n/a	-1.0	n/a	n/a	n/a	n/a	n/a	n/a	n/a	n/a	ITI	poldrack-single-stim	s586	False	0
382.484	4.564	387.048	-1.328221295871511	draw_card	4.564	columbia_card_task_fmri	7.0	0.9166666666666666	89.0	-95.0	0.0833333333333333	12.0	1.0	1.0	-2.5844413538234186	4.564	n/a	stim	poldrack-single-stim	s586	False	1
387.051	3.576	390.627	-2.1009485685987843	draw_card	3.576	columbia_card_task_fmri	7.0	0.9090909090909092	89.0	-95.0	0.0909090909090909	12.0	2.0	1.0	-1.4528339650425934	3.576	n/a	stim	poldrack-single-stim	s586	False	1
390.631	3.283	393.914	-3.028221295871511	draw_card	3.283	columbia_card_task_fmri	7.0	0.9	89.0	-95.0	0.1	12.0	3.0	1.0	-0.1757932665654884	3.283	n/a	stim	poldrack-single-stim	s586	False	1
393.918	0.655	394.573	-4.161554629204845	end_round	0.655	columbia_card_task_fmri	7.0	0.8888888888888888	71.0	-95.0	0.1111111111111111	12.0	4.0	1.0	1.2796922550359715	0.655	3.0	stim	poldrack-single-stim	s586	False	1
395.327	1.5	394.576	n/a	-1.0	2.522	columbia_card_task_fmri	n/a	n/a	-1.0	n/a	n/a	n/a	n/a	n/a	n/a	n/a	n/a	ITI	poldrack-single-stim	s586	False	0
397.102	2.808	399.91	-0.6615546292048431	draw_card	2.808	columbia_card_task_fmri	14.0	0.8333333333333334	89.0	-75.0	0.1666666666666666	12.0	1.0	2.0	2.3925110654881614	2.808	n/a	stim	poldrack-single-stim	s586	False	1
399.913	1.041	400.954	-2.0100394776896944	draw_card	1.041	columbia_card_task_fmri	14.0	0.8181818181818181	89.0	-75.0	0.1818181818181818	12.0	2.0	2.0	3.550974492382668	1.041	n/a	stim	poldrack-single-stim	s586	False	1
400.958	0.389	401.347	-3.62822129587151	end_round	0.389	columbia_card_task_fmri	14.0	0.8	71.0	-75.0	0.2	12.0	3.0	2.0	4.824139016336513	0.389	2.0	stim	poldrack-single-stim	s586	False	1
402.104	1.5	401.353	n/a	-1.0	2.998	columbia_card_task_fmri	n/a	n/a	-1.0	n/a	n/a	n/a	n/a	n/a	n/a	n/a	n/a	ITI	poldrack-single-stim	s586	False	0
404.356	2.396	406.752	1.005112037461823	draw_card	2.396	columbia_card_task_fmri	15.0	0.8333333333333334	89.0	-70.0	0.1666666666666666	12.0	1.0	2.0	0.901820012781144	2.396	n/a	stim	poldrack-single-stim	s586	False	1
406.756	0.442	407.198	-0.2827667504169677	draw_card	0.442	columbia_card_task_fmri	15.0	0.8181818181818181	89.0	-70.0	0.1818181818181818	12.0	2.0	2.0	2.00821628659072	0.442	n/a	stim	poldrack-single-stim	s586	False	1
407.203	0.536	407.739	-1.828221295871511	draw_card	0.536	columbia_card_task_fmri	15.0	0.8	89.0	-70.0	0.2	12.0	3.0	2.0	3.224158518903142	0.536	n/a	stim	poldrack-single-stim	s586	False	1
407.743	0.726	408.469	-3.7171101847604	draw_card	0.726	columbia_card_task_fmri	15.0	0.7777777777777778	89.0	-70.0	0.2222222222222222	12.0	4.0	2.0	4.56201740997172	0.726	4.0	stim	poldrack-single-stim	s586	False	0
409.225	1.5	408.474	n/a	-1.0	2.318	columbia_card_task_fmri	n/a	n/a	-1.0	n/a	n/a	n/a	n/a	n/a	n/a	n/a	n/a	ITI	poldrack-single-stim	s586	False	0
410.796	0.582	411.378	-1.0282212958715102	draw_card	0.582	columbia_card_task_fmri	16.0	0.8	89.0	-70.0	0.2	15.0	1.0	3.0	3.6241534731841263	0.582	n/a	stim	poldrack-single-stim	s586	False	1
411.382	0.504	411.886	-2.25679272444294	draw_card	0.504	columbia_card_task_fmri	16.0	0.7857142857142857	89.0	-70.0	0.2142857142857142	15.0	2.0	3.0	4.512170366079712	0.504	n/a	stim	poldrack-single-stim	s586	False	1
411.89	1.671	413.561	-3.6743751420253576	draw_card	1.671	columbia_card_task_fmri	16.0	0.7692307692307692	89.0	-70.0	0.2307692307692307	15.0	3.0	3.0	5.458085569604908	1.671	n/a	stim	poldrack-single-stim	s586	False	1
413.565	1.642	415.207	-5.328221295871511	end_round	1.642	columbia_card_task_fmri	16.0	0.75	71.0	-70.0	0.25	15.0	4.0	3.0	6.463213137769497	1.642	3.0	stim	poldrack-single-stim	s586	False	1
415.962	1.5	415.211	n/a	-1.0	2.25	columbia_card_task_fmri	n/a	n/a	-1.0	n/a	n/a	n/a	n/a	n/a	n/a	n/a	n/a	ITI	poldrack-single-stim	s586	False	0
417.468	0.906	418.374	-0.6407212958715109	draw_card	0.906	columbia_card_task_fmri	14.0	0.8125	89.0	-65.0	0.1875	16.0	1.0	3.0	0.0588806810063147	0.906	n/a	stim	poldrack-single-stim	s586	False	1
418.378	2.936	421.314	-1.62822129587151	draw_card	2.936	columbia_card_task_fmri	14.0	0.8	89.0	-65.0	0.2	16.0	2.0	3.0	0.8241914756949882	2.936	n/a	stim	poldrack-single-stim	s586	False	1
421.318	1.482	422.8	-2.756792724442938	end_round	1.482	columbia_card_task_fmri	14.0	0.7857142857142857	71.0	-65.0	0.2142857142857142	16.0	3.0	3.0	1.6399260890211416	1.482	2.0	stim	poldrack-single-stim	s586	False	1
423.556	1.5	422.805	n/a	-1.0	2.454	columbia_card_task_fmri	n/a	n/a	-1.0	n/a	n/a	n/a	n/a	n/a	n/a	n/a	n/a	ITI	poldrack-single-stim	s586	False	0
425.263	3.333	428.596	-0.8907212958715109	draw_card	3.333	columbia_card_task_fmri	16.0	0.8125	89.0	-75.0	0.1875	16.0	1.0	3.0	4.742566084033488	3.333	n/a	stim	poldrack-single-stim	s586	False	1
428.599	1.748	430.347	-2.0282212958715102	draw_card	1.748	columbia_card_task_fmri	16.0	0.8	89.0	-75.0	0.2	16.0	2.0	3.0	5.624129907983896	1.748	n/a	stim	poldrack-single-stim	s586	False	1
430.351	1.285	431.636	-3.328221295871509	draw_card	1.285	columbia_card_task_fmri	16.0	0.7857142857142857	89.0	-75.0	0.2142857142857142	16.0	3.0	3.0	6.563776910501257	1.285	n/a	stim	poldrack-single-stim	s586	False	1
431.64	0.495	432.135	-4.828221295871515	end_round	0.495	columbia_card_task_fmri	16.0	0.7692307692307692	71.0	-75.0	0.2307692307692307	16.0	4.0	3.0	7.564688418273892	0.495	3.0	stim	poldrack-single-stim	s586	False	1
432.892	1.5	432.141	n/a	-1.0	2.318	columbia_card_task_fmri	n/a	n/a	-1.0	n/a	n/a	n/a	n/a	n/a	n/a	n/a	n/a	ITI	poldrack-single-stim	s586	False	0
434.465	2.231	436.696	3.37177870412849	draw_card	2.231	columbia_card_task_fmri	16.0	0.8666666666666667	89.0	-80.0	0.1333333333333333	15.0	1.0	2.0	1.8579015732884196	2.231	n/a	stim	poldrack-single-stim	s586	False	1
436.7	0.493	437.193	2.4574929898427773	draw_card	0.493	columbia_card_task_fmri	16.0	0.8571428571428572	89.0	-80.0	0.1428571428571428	15.0	2.0	2.0	2.81716596296582	0.493	n/a	stim	poldrack-single-stim	s586	False	1
437.197	6.715	443.912	1.402547934897719	draw_card	6.715	columbia_card_task_fmri	16.0	0.8461538461538461	89.0	-80.0	0.1538461538461538	15.0	3.0	2.0	3.8610669198381977	6.715	n/a	stim	poldrack-single-stim	s586	False	1
443.916	1.448	445.364	0.1717787041284908	end_round	1.448	columbia_card_task_fmri	16.0	0.8333333333333334	71.0	-80.0	0.1666666666666666	15.0	4.0	2.0	5.001224605008634	1.448	3.0	stim	poldrack-single-stim	s586	False	1
446.119	1.5	445.368	n/a	-1.0	2.318	columbia_card_task_fmri	n/a	n/a	-1.0	n/a	n/a	n/a	n/a	n/a	n/a	n/a	n/a	ITI	poldrack-single-stim	s586	False	0
447.69	3.269	450.959	4.238445370795157	draw_card	3.269	columbia_card_task_fmri	17.0	0.8666666666666667	89.0	-80.0	0.1333333333333333	15.0	1.0	2.0	2.197831546718636	3.269	n/a	stim	poldrack-single-stim	s586	False	1
450.964	0.437	451.401	3.314635846985635	draw_card	0.437	columbia_card_task_fmri	17.0	0.8571428571428572	89.0	-80.0	0.1428571428571428	15.0	2.0	2.0	3.167088541356609	0.437	n/a	stim	poldrack-single-stim	s586	False	1
451.404	6.676	458.08	2.2487017810515657	draw_card	6.676	columbia_card_task_fmri	17.0	0.8461538461538461	89.0	-80.0	0.1538461538461538	15.0	3.0	2.0	4.221863740866116	6.676	n/a	stim	poldrack-single-stim	s586	False	1
458.085	0.568	458.653	1.0051120374618248	end_round	0.568	columbia_card_task_fmri	17.0	0.8333333333333334	71.0	-80.0	0.1666666666666666	15.0	4.0	2.0	5.373898349931732	0.568	3.0	stim	poldrack-single-stim	s586	False	1
459.407	1.5	458.656	n/a	-1.0	2.59	columbia_card_task_fmri	n/a	n/a	-1.0	n/a	n/a	n/a	n/a	n/a	n/a	n/a	n/a	ITI	poldrack-single-stim	s586	False	0
461.252	3.002	464.254	0.171778704128489	draw_card	3.002	columbia_card_task_fmri	1.0	0.9375	89.0	-15.0	0.0625	16.0	1.0	1.0	-26.89948448730912	3.002	n/a	stim	poldrack-single-stim	s586	False	1
464.258	0.41	464.668	0.1051120374618224	draw_card	0.41	columbia_card_task_fmri	1.0	0.9333333333333332	89.0	-15.0	0.0666666666666666	16.0	2.0	1.0	-26.78147920178477	0.41	n/a	stim	poldrack-single-stim	s586	False	1
464.673	0.472	465.145	0.0289215612713462	draw_card	0.472	columbia_card_task_fmri	1.0	0.9285714285714286	89.0	-15.0	0.0714285714285714	16.0	3.0	1.0	-26.652066432408173	0.472	n/a	stim	poldrack-single-stim	s586	False	1
465.149	0.427	465.576	-0.0589905266407417	draw_card	0.427	columbia_card_task_fmri	1.0	0.9230769230769232	89.0	-15.0	0.0769230769230769	16.0	4.0	1.0	-26.50930662119657	0.427	n/a	stim	poldrack-single-stim	s586	False	1
465.58	0.444	466.024	-0.1615546292048443	draw_card	0.444	columbia_card_task_fmri	1.0	0.9166666666666666	89.0	-15.0	0.0833333333333333	16.0	5.0	1.0	-26.350773923770056	0.444	n/a	stim	poldrack-single-stim	s586	False	1
466.029	0.4	466.429	-0.2827667504169656	draw_card	0.4	columbia_card_task_fmri	1.0	0.9090909090909092	89.0	-15.0	0.0909090909090909	16.0	6.0	1.0	-26.17339233094125	0.4	n/a	stim	poldrack-single-stim	s586	False	1
466.434	0.578	467.012	-0.4282212958715109	draw_card	0.578	columbia_card_task_fmri	1.0	0.9	89.0	-15.0	0.1	16.0	7.0	1.0	-25.973202659900974	0.578	n/a	stim	poldrack-single-stim	s586	False	1
467.016	0.655	467.671	-0.6059990736492886	draw_card	0.655	columbia_card_task_fmri	1.0	0.8888888888888888	89.0	-15.0	0.1111111111111111	16.0	8.0	1.0	-25.745027209383576	0.655	n/a	stim	poldrack-single-stim	s586	False	1
467.676	3.415	471.091	-0.8282212958715109	draw_card	3.415	columbia_card_task_fmri	1.0	0.875	89.0	-15.0	0.125	16.0	9.0	1.0	-25.4819852937978	3.415	n/a	stim	poldrack-single-stim	s586	False	1
471.096	0.837	471.933	-1.1139355815857963	draw_card	0.837	columbia_card_task_fmri	1.0	0.8571428571428572	89.0	-15.0	0.1428571428571428	16.0	10.0	1.0	-25.17480715561513	0.837	n/a	stim	poldrack-single-stim	s586	False	1
471.938	4.03	475.968	-1.4948879625381777	draw_card	4.03	columbia_card_task_fmri	1.0	0.8333333333333334	89.0	-15.0	0.1666666666666666	16.0	11.0	1.0	-24.810953676947165	4.03	n/a	stim	poldrack-single-stim	s586	False	1
475.973	0.88	476.853	-2.028221295871511	draw_card	0.88	columbia_card_task_fmri	1.0	0.8	89.0	-15.0	0.2	16.0	12.0	1.0	-24.37397052691627	0.88	n/a	stim	poldrack-single-stim	s586	False	1
476.858	1.272	478.13	-2.828221295871511	draw_card	1.272	columbia_card_task_fmri	1.0	0.75	89.0	-15.0	0.25	16.0	13.0	1.0	-23.84594296435833	1.272	13.0	stim	poldrack-single-stim	s586	False	0
478.887	1.5	478.136	n/a	-1.0	2.25	columbia_card_task_fmri	n/a	n/a	-1.0	n/a	n/a	n/a	n/a	n/a	n/a	n/a	n/a	ITI	poldrack-single-stim	s586	False	0
480.39	3.474	483.864	3.296778704128489	draw_card	3.474	columbia_card_task_fmri	10.0	0.9375	89.0	-100.0	0.0625	16.0	1.0	1.0	-4.14896081619985	3.474	n/a	stim	poldrack-single-stim	s586	False	1
483.868	0.87	484.738	2.838445370795156	draw_card	0.87	columbia_card_task_fmri	10.0	0.9333333333333332	89.0	-100.0	0.0666666666666666	16.0	2.0	1.0	-3.336916883378244	0.87	n/a	stim	poldrack-single-stim	s586	False	1
484.744	0.57	485.314	2.314635846985633	draw_card	0.57	columbia_card_task_fmri	10.0	0.9285714285714286	89.0	-100.0	0.0714285714285714	16.0	3.0	1.0	-2.4464231714716576	0.57	n/a	stim	poldrack-single-stim	s586	False	1
485.318	0.793	486.111	1.7102402425900285	draw_card	0.793	columbia_card_task_fmri	10.0	0.9230769230769232	89.0	-100.0	0.0769230769230769	16.0	4.0	1.0	-1.464143023130401	0.793	n/a	stim	poldrack-single-stim	s586	False	1
486.116	3.509	489.625	1.005112037461823	draw_card	3.509	columbia_card_task_fmri	10.0	0.9166666666666666	89.0	-100.0	0.0833333333333333	16.0	5.0	1.0	-0.3733962211876367	3.509	n/a	stim	poldrack-single-stim	s586	False	1
489.629	0.627	490.256	0.1717787041284872	end_round	0.627	columbia_card_task_fmri	10.0	0.9090909090909092	71.0	-100.0	0.0909090909090909	16.0	6.0	1.0	0.8469677410989114	0.627	5.0	stim	poldrack-single-stim	s586	False	1
491.016	1.5	490.265	n/a	-1.0	2.25	columbia_card_task_fmri	n/a	n/a	-1.0	n/a	n/a	n/a	n/a	n/a	n/a	n/a	n/a	ITI	poldrack-single-stim	s586	False	0
492.52	2.776	495.296	3.921778704128489	draw_card	2.776	columbia_card_task_fmri	15.0	0.875	89.0	-75.0	0.125	16.0	1.0	2.0	-1.011077486508125	2.776	n/a	stim	poldrack-single-stim	s586	False	1
495.3	0.512	495.812	3.171778704128489	draw_card	0.512	columbia_card_task_fmri	15.0	0.8666666666666667	89.0	-75.0	0.1333333333333333	16.0	2.0	2.0	-0.1816760922976499	0.512	n/a	stim	poldrack-single-stim	s586	False	1
495.817	0.501	496.318	2.314635846985633	draw_card	0.501	columbia_card_task_fmri	15.0	0.8571428571428572	89.0	-75.0	0.1428571428571428	16.0	3.0	2.0	0.7176326055125877	0.501	n/a	stim	poldrack-single-stim	s586	False	1
496.323	4.77	501.093	1.3256248579746424	draw_card	4.77	columbia_card_task_fmri	15.0	0.8461538461538461	89.0	-75.0	0.1538461538461538	16.0	4.0	2.0	1.696288042887172	4.77	n/a	stim	poldrack-single-stim	s586	False	1
501.098	2.465	503.563	0.171778704128489	draw_card	2.465	columbia_card_task_fmri	15.0	0.8333333333333334	89.0	-75.0	0.1666666666666666	16.0	5.0	2.0	2.765184119385349	2.465	n/a	stim	poldrack-single-stim	s586	False	1
503.568	0.461	504.029	-1.191857659507876	end_round	0.461	columbia_card_task_fmri	15.0	0.8181818181818181	71.0	-75.0	0.1818181818181818	16.0	6.0	2.0	3.936664324740473	0.461	5.0	stim	poldrack-single-stim	s586	False	1
504.786	1.5	504.035	n/a	-1.0	2.522	columbia_card_task_fmri	n/a	n/a	-1.0	n/a	n/a	n/a	n/a	n/a	n/a	n/a	n/a	ITI	poldrack-single-stim	s586	False	0
506.562	3.34	509.902	4.171778704128489	draw_card	3.34	columbia_card_task_fmri	16.0	0.875	89.0	-80.0	0.125	16.0	1.0	2.0	0.9732050171095068	3.34	n/a	stim	poldrack-single-stim	s586	False	1
509.907	0.383	510.29	3.37177870412849	draw_card	0.383	columbia_card_task_fmri	16.0	0.8666666666666667	89.0	-80.0	0.1333333333333333	16.0	2.0	2.0	1.8579015732884196	0.383	n/a	stim	poldrack-single-stim	s586	False	1
510.296	0.281	510.577	2.4574929898427773	end_round	0.281	columbia_card_task_fmri	16.0	0.8571428571428572	71.0	-80.0	0.1428571428571428	16.0	3.0	2.0	2.81716596296582	0.281	2.0	stim	poldrack-single-stim	s586	False	1
511.335	1.5	510.584	n/a	-1.0	2.454	columbia_card_task_fmri	n/a	n/a	-1.0	n/a	n/a	n/a	n/a	n/a	n/a	n/a	n/a	ITI	poldrack-single-stim	s586	False	0
513.044	2.894	515.938	1.359278704128489	draw_card	2.894	columbia_card_task_fmri	4.0	0.6875	89.0	-5.0	0.3125	16.0	1.0	5.0	-26.60112851399009	2.894	1.0	stim	poldrack-single-stim	s586	False	0
516.696	1.5	515.945	n/a	-1.0	2.25	columbia_card_task_fmri	n/a	n/a	-1.0	n/a	n/a	n/a	n/a	n/a	n/a	n/a	n/a	ITI	poldrack-single-stim	s586	False	0
518.202	5.802	524.004	-1.4948879625381752	draw_card	5.802	columbia_card_task_fmri	14.0	0.8333333333333334	89.0	-80.0	0.1666666666666666	6.0	1.0	1.0	4.255877386518936	5.802	n/a	stim	poldrack-single-stim	s586	False	1
524.009	0.496	524.505	-4.62822129587151	end_round	0.496	columbia_card_task_fmri	14.0	0.8	71.0	-80.0	0.2	6.0	2.0	1.0	6.824116972173496	0.496	1.0	stim	poldrack-single-stim	s586	False	1
525.263	1.5	524.512	n/a	-1.0	2.454	columbia_card_task_fmri	n/a	n/a	-1.0	n/a	n/a	n/a	n/a	n/a	n/a	n/a	n/a	ITI	poldrack-single-stim	s586	False	0
526.973	2.176	529.149	0.171778704128489	draw_card	2.176	columbia_card_task_fmri	15.0	0.8333333333333334	89.0	-75.0	0.1666666666666666	6.0	1.0	1.0	2.765184119385349	2.176	n/a	stim	poldrack-single-stim	s586	False	1
529.153	0.401	529.554	-2.828221295871511	end_round	0.401	columbia_card_task_fmri	15.0	0.8	71.0	-75.0	0.2	6.0	2.0	1.0	5.22413441155911	0.401	1.0	stim	poldrack-single-stim	s586	False	1
530.312	1.5	529.561	n/a	-1.0	2.454	columbia_card_task_fmri	n/a	n/a	-1.0	n/a	n/a	n/a	n/a	n/a	n/a	n/a	n/a	ITI	poldrack-single-stim	s586	False	0
532.021	2.697	534.718	1.838445370795157	draw_card	2.697	columbia_card_task_fmri	16.0	0.8333333333333334	89.0	-70.0	0.1666666666666666	6.0	1.0	1.0	1.2744925934127345	2.697	n/a	stim	poldrack-single-stim	s586	False	1
534.722	0.532	535.254	-1.0282212958715102	end_round	0.532	columbia_card_task_fmri	16.0	0.8	71.0	-70.0	0.2	6.0	2.0	1.0	3.6241534731841263	0.532	1.0	stim	poldrack-single-stim	s586	False	1
536.015	1.5	535.264	n/a	-1.0	2.522	columbia_card_task_fmri	n/a	n/a	-1.0	n/a	n/a	n/a	n/a	n/a	n/a	n/a	n/a	ITI	poldrack-single-stim	s586	False	0
537.791	2.19	539.981	2.421778704128489	draw_card	2.19	columbia_card_task_fmri	23.0	0.75	89.0	-60.0	0.25	8.0	1.0	2.0	5.164189352175985	2.19	n/a	stim	poldrack-single-stim	s586	False	1
539.986	0.753	540.739	-0.5425070101572227	draw_card	0.753	columbia_card_task_fmri	23.0	0.7142857142857143	89.0	-60.0	0.2857142857142857	8.0	2.0	2.0	6.719696035504629	0.753	n/a	stim	poldrack-single-stim	s586	False	1
540.743	2.603	543.346	-4.494887962538176	draw_card	2.603	columbia_card_task_fmri	23.0	0.6666666666666667	89.0	-60.0	0.3333333333333333	8.0	3.0	2.0	8.350676888342011	2.603	3.0	stim	poldrack-single-stim	s586	False	0
544.104	1.5	543.353	n/a	-1.0	2.454	columbia_card_task_fmri	n/a	n/a	-1.0	n/a	n/a	n/a	n/a	n/a	n/a	n/a	n/a	ITI	poldrack-single-stim	s586	False	0
545.813	2.762	548.575	2.921778704128489	draw_card	2.762	columbia_card_task_fmri	27.0	0.75	89.0	-70.0	0.25	8.0	1.0	2.0	11.22630792983372	2.762	n/a	stim	poldrack-single-stim	s586	False	1
548.58	0.496	549.076	-0.5425070101572262	draw_card	0.496	columbia_card_task_fmri	27.0	0.7142857142857143	89.0	-70.0	0.2857142857142857	8.0	2.0	2.0	13.044194564908782	0.496	n/a	stim	poldrack-single-stim	s586	False	1
549.081	0.505	549.586	-5.16155462920484	end_round	0.505	columbia_card_task_fmri	27.0	0.6666666666666667	71.0	-70.0	0.3333333333333333	8.0	3.0	2.0	14.950285755762206	0.505	2.0	stim	poldrack-single-stim	s586	False	1
550.343	1.5	549.592	n/a	-1.0	2.658	columbia_card_task_fmri	n/a	n/a	-1.0	n/a	n/a	n/a	n/a	n/a	n/a	n/a	n/a	ITI	poldrack-single-stim	s586	False	0
552.257	2.499	554.756	-1.8282212958715087	draw_card	2.499	columbia_card_task_fmri	16.0	0.7777777777777778	89.0	-65.0	0.2222222222222222	9.0	1.0	2.0	2.8990791888628387	2.499	1.0	stim	poldrack-single-stim	s586	False	0
555.515	1.5	554.764	n/a	-1.0	2.386	columbia_card_task_fmri	n/a	n/a	-1.0	n/a	n/a	n/a	n/a	n/a	n/a	n/a	n/a	ITI	poldrack-single-stim	s586	False	0
557.156	0.776	557.932	3.37177870412849	draw_card	0.776	columbia_card_task_fmri	13.0	0.9	89.0	-85.0	0.1	10.0	1.0	1.0	-1.3757735872291263	0.776	n/a	stim	poldrack-single-stim	s586	False	1
557.936	3.75	561.686	2.2828898152396	draw_card	3.75	columbia_card_task_fmri	13.0	0.8888888888888888	89.0	-85.0	0.1111111111111111	10.0	2.0	1.0	0.0226323187470427	3.75	2.0	stim	poldrack-single-stim	s586	False	0
562.442	1.5	561.691	n/a	-1.0	2.522	columbia_card_task_fmri	n/a	n/a	-1.0	n/a	n/a	n/a	n/a	n/a	n/a	n/a	n/a	ITI	poldrack-single-stim	s586	False	0
564.22	0.573	564.793	-1.62822129587151	draw_card	0.573	columbia_card_task_fmri	14.0	0.8	89.0	-65.0	0.2	10.0	1.0	2.0	0.8241914756949882	0.573	n/a	stim	poldrack-single-stim	s586	False	1
564.798	8.281	573.079	-3.3837768514270645	draw_card	8.281	columbia_card_task_fmri	14.0	0.7777777777777778	89.0	-65.0	0.2222222222222222	10.0	2.0	2.0	2.067610861234261	8.281	n/a	stim	poldrack-single-stim	s586	False	1
573.084	0.429	573.513	-5.578221295871511	end_round	0.429	columbia_card_task_fmri	14.0	0.75	71.0	-65.0	0.25	10.0	3.0	2.0	3.432159329844847	0.429	2.0	stim	poldrack-single-stim	s586	False	1
574.269	1.5	573.518	n/a	-1.0	2.59	columbia_card_task_fmri	n/a	n/a	-1.0	n/a	n/a	n/a	n/a	n/a	n/a	n/a	n/a	ITI	poldrack-single-stim	s586	False	0
576.114	3.089	579.203	-0.2282212958715095	draw_card	3.089	columbia_card_task_fmri	17.0	0.8	89.0	-70.0	0.2	10.0	1.0	2.0	4.024148543456494	3.089	n/a	stim	poldrack-single-stim	s586	False	1
579.208	0.475	579.683	-2.161554629204843	end_round	0.475	columbia_card_task_fmri	17.0	0.7777777777777778	71.0	-70.0	0.2222222222222222	10.0	2.0	2.0	5.393487231460551	0.475	1.0	stim	poldrack-single-stim	s586	False	1
580.442	1.5	579.691	n/a	-1.0	2.386	columbia_card_task_fmri	n/a	n/a	-1.0	n/a	n/a	n/a	n/a	n/a	n/a	n/a	n/a	ITI	poldrack-single-stim	s586	False	0
582.083	3.749	585.832	-1.494887962538177	draw_card	3.749	columbia_card_task_fmri	13.0	0.8333333333333334	89.0	-75.0	0.1666666666666666	12.0	1.0	2.0	2.0198381239148766	3.749	n/a	stim	poldrack-single-stim	s586	False	1
585.837	1.436	587.273	-2.8282212958715127	draw_card	1.436	columbia_card_task_fmri	13.0	0.8181818181818181	89.0	-75.0	0.1818181818181818	12.0	2.0	2.0	3.1652847685582834	1.436	2.0	stim	poldrack-single-stim	s586	False	0
588.031	1.5	587.28	n/a	-1.0	2.59	columbia_card_task_fmri	n/a	n/a	-1.0	n/a	n/a	n/a	n/a	n/a	n/a	n/a	n/a	ITI	poldrack-single-stim	s586	False	0
589.874	4.117	593.991	0.1717787041284908	draw_card	4.117	columbia_card_task_fmri	14.0	0.8333333333333334	89.0	-70.0	0.1666666666666666	12.0	1.0	2.0	0.5291475610899639	4.117	n/a	stim	poldrack-single-stim	s586	False	1
593.995	0.418	594.413	-1.100948568598786	end_round	0.418	columbia_card_task_fmri	14.0	0.8181818181818181	71.0	-70.0	0.1818181818181818	12.0	2.0	2.0	1.6225270361170097	0.418	1.0	stim	poldrack-single-stim	s586	False	1
595.17	1.5	594.419	n/a	-1.0	2.318	columbia_card_task_fmri	n/a	n/a	-1.0	n/a	n/a	n/a	n/a	n/a	n/a	n/a	n/a	ITI	poldrack-single-stim	s586	False	0
596.743	2.856	599.599	0.1717787041284908	draw_card	2.856	columbia_card_task_fmri	16.0	0.8333333333333334	89.0	-80.0	0.1666666666666666	12.0	1.0	2.0	5.001224605008634	2.856	n/a	stim	poldrack-single-stim	s586	False	1
599.603	0.401	600.004	-1.2827667504169675	draw_card	0.401	columbia_card_task_fmri	16.0	0.8181818181818181	89.0	-80.0	0.1818181818181818	12.0	2.0	2.0	6.250805408160428	0.401	2.0	stim	poldrack-single-stim	s586	False	0
600.764	1.5	600.013	n/a	-1.0	2.25	columbia_card_task_fmri	n/a	n/a	-1.0	n/a	n/a	n/a	n/a	n/a	n/a	n/a	n/a	ITI	poldrack-single-stim	s586	False	0
602.268	2.077	604.345	-0.0282212958715102	draw_card	2.077	columbia_card_task_fmri	16.0	0.8	89.0	-65.0	0.2	15.0	1.0	3.0	1.6241799476104326	2.077	1.0	stim	poldrack-single-stim	s586	False	0
605.103	1.5	604.352	n/a	-1.0	2.454	columbia_card_task_fmri	n/a	n/a	-1.0	n/a	n/a	n/a	n/a	n/a	n/a	n/a	n/a	ITI	poldrack-single-stim	s586	False	0
606.812	2.762	609.574	-1.703221295871511	draw_card	2.762	columbia_card_task_fmri	15.0	0.8125	89.0	-75.0	0.1875	16.0	1.0	3.0	4.352258324484456	2.762	n/a	stim	poldrack-single-stim	s586	False	1
609.58	0.49	610.07	-2.828221295871511	end_round	0.49	columbia_card_task_fmri	15.0	0.8	71.0	-75.0	0.2	16.0	2.0	3.0	5.22413441155911	0.49	1.0	stim	poldrack-single-stim	s586	False	1
610.826	1.5	610.075	n/a	-1.0	3.27	columbia_card_task_fmri	n/a	n/a	-1.0	n/a	n/a	n/a	n/a	n/a	n/a	n/a	n/a	ITI	poldrack-single-stim	s586	False	0
613.352	4.438	617.79	-1.140721295871511	draw_card	4.438	columbia_card_task_fmri	14.0	0.6875	89.0	-35.0	0.3125	16.0	1.0	5.0	-8.063517953170397	4.438	n/a	stim	poldrack-single-stim	s586	False	1
617.795	1.983	619.778	-2.161554629204843	draw_card	1.983	columbia_card_task_fmri	14.0	0.6666666666666667	89.0	-35.0	0.3333333333333333	16.0	2.0	5.0	-7.676815176222949	1.983	2.0	stim	poldrack-single-stim	s586	False	0
620.535	1.5	619.784	n/a	-1.0	2.25	columbia_card_task_fmri	n/a	n/a	-1.0	n/a	n/a	n/a	n/a	n/a	n/a	n/a	n/a	ITI	poldrack-single-stim	s586	False	0
622.04	0.578	622.618	4.038445370795156	draw_card	0.578	columbia_card_task_fmri	16.0	0.8666666666666667	89.0	-75.0	0.1333333333333333	15.0	1.0	2.0	0.1582532426336982	0.578	n/a	stim	poldrack-single-stim	s586	False	1
622.624	4.073	626.697	3.171778704128491	draw_card	4.073	columbia_card_task_fmri	16.0	0.8571428571428572	89.0	-75.0	0.1428571428571428	15.0	2.0	2.0	1.067554563635852	4.073	n/a	stim	poldrack-single-stim	s586	False	1
626.701	1.25	627.951	2.171778704128489	end_round	1.25	columbia_card_task_fmri	16.0	0.8461538461538461	71.0	-75.0	0.1538461538461538	15.0	3.0	2.0	2.0570842623401937	1.25	2.0	stim	poldrack-single-stim	s586	False	1
628.711	1.5	627.96	n/a	-1.0	2.25	columbia_card_task_fmri	n/a	n/a	-1.0	n/a	n/a	n/a	n/a	n/a	n/a	n/a	n/a	ITI	poldrack-single-stim	s586	False	0
630.217	6.53	636.747	4.705112037461822	draw_card	6.53	columbia_card_task_fmri	16.0	0.8666666666666667	89.0	-70.0	0.1333333333333333	15.0	1.0	2.0	-1.541392199656638	6.53	n/a	stim	poldrack-single-stim	s586	False	1
636.754	0.504	637.258	3.886064418414205	draw_card	0.504	columbia_card_task_fmri	16.0	0.8571428571428572	89.0	-70.0	0.1428571428571428	15.0	2.0	2.0	-0.6820540298021278	0.504	2.0	stim	poldrack-single-stim	s586	False	0
638.014	1.5	637.263	n/a	-1.0	2.318	columbia_card_task_fmri	n/a	n/a	-1.0	n/a	n/a	n/a	n/a	n/a	n/a	n/a	n/a	ITI	poldrack-single-stim	s586	False	0
639.587	2.752	642.339	2.046778704128489	draw_card	2.752	columbia_card_task_fmri	8.0	0.9375	89.0	-90.0	0.0625	16.0	1.0	1.0	-7.0536304789251005	2.752	n/a	stim	poldrack-single-stim	s586	False	1
642.344	0.967	643.311	1.6384453707951558	draw_card	0.967	columbia_card_task_fmri	8.0	0.9333333333333332	89.0	-90.0	0.0666666666666666	16.0	2.0	1.0	-6.3301769536827095	0.967	n/a	stim	poldrack-single-stim	s586	False	1
643.317	0.468	643.785	1.17177870412849	draw_card	0.468	columbia_card_task_fmri	8.0	0.9285714285714286	89.0	-90.0	0.0714285714285714	16.0	3.0	1.0	-5.536831923654102	0.468	n/a	stim	poldrack-single-stim	s586	False	1
643.79	0.721	644.511	0.6333171656669507	end_round	0.721	columbia_card_task_fmri	8.0	0.9230769230769232	71.0	-90.0	0.0769230769230769	16.0	4.0	1.0	-4.661713650549437	0.721	3.0	stim	poldrack-single-stim	s586	False	1
645.271	1.5	644.52	n/a	-1.0	2.726	columbia_card_task_fmri	n/a	n/a	-1.0	n/a	n/a	n/a	n/a	n/a	n/a	n/a	n/a	ITI	poldrack-single-stim	s586	False	0
647.251	2.2	649.451	3.609278704128489	draw_card	2.2	columbia_card_task_fmri	10.0	0.9375	89.0	-95.0	0.0625	16.0	1.0	1.0	-5.359241726907204	2.2	n/a	stim	poldrack-single-stim	s586	False	1
649.456	1.196	650.652	3.17177870412849	draw_card	1.196	columbia_card_task_fmri	10.0	0.9333333333333332	89.0	-95.0	0.0666666666666666	16.0	2.0	1.0	-4.584110408143225	1.196	n/a	stim	poldrack-single-stim	s586	False	1
650.657	0.526	651.183	2.67177870412849	draw_card	0.526	columbia_card_task_fmri	10.0	0.9285714285714286	89.0	-95.0	0.0714285714285714	16.0	3.0	1.0	-3.734095256205936	0.526	n/a	stim	poldrack-single-stim	s586	False	1
651.189	0.464	651.653	2.0948556272054124	end_round	0.464	columbia_card_task_fmri	10.0	0.9230769230769232	71.0	-95.0	0.0769230769230769	16.0	4.0	1.0	-2.796465829859184	0.464	3.0	stim	poldrack-single-stim	s586	False	1
652.411	1.5	651.66	n/a	-1.0	2.386	columbia_card_task_fmri	n/a	n/a	-1.0	n/a	n/a	n/a	n/a	n/a	n/a	n/a	n/a	ITI	poldrack-single-stim	s586	False	0
654.053	2.618	656.671	4.546778704128489	draw_card	2.618	columbia_card_task_fmri	15.0	0.875	89.0	-70.0	0.125	16.0	1.0	2.0	-2.664642898665104	2.618	n/a	stim	poldrack-single-stim	s586	False	1
656.676	0.348	657.024	3.838445370795155	draw_card	0.348	columbia_card_task_fmri	15.0	0.8666666666666667	89.0	-70.0	0.1333333333333333	16.0	2.0	2.0	-1.8813208966578827	0.348	n/a	stim	poldrack-single-stim	s586	False	1
657.03	0.631	657.661	3.0289215612713467	draw_card	0.631	columbia_card_task_fmri	15.0	0.8571428571428572	89.0	-70.0	0.1428571428571428	16.0	3.0	2.0	-1.0319753682102188	0.631	3.0	stim	poldrack-single-stim	s586	False	0
658.419	1.5	657.668	n/a	-1.0	2.318	columbia_card_task_fmri	n/a	n/a	-1.0	n/a	n/a	n/a	n/a	n/a	n/a	n/a	n/a	ITI	poldrack-single-stim	s586	False	0
659.993	1.521	661.514	3.546778704128489	draw_card	1.521	columbia_card_task_fmri	16.0	0.875	89.0	-85.0	0.125	16.0	1.0	2.0	2.626776581752392	1.521	n/a	stim	poldrack-single-stim	s586	False	1
661.518	0.616	662.134	2.7051120374618223	draw_card	0.616	columbia_card_task_fmri	16.0	0.8666666666666667	89.0	-85.0	0.1333333333333333	16.0	2.0	2.0	3.5575523633541586	0.616	n/a	stim	poldrack-single-stim	s586	False	1
662.14	1.585	663.725	1.743207275557062	draw_card	1.585	columbia_card_task_fmri	16.0	0.8571428571428572	89.0	-85.0	0.1428571428571428	16.0	3.0	2.0	4.566779751481814	1.585	n/a	stim	poldrack-single-stim	s586	False	1
663.73	0.796	664.526	0.633317165666949	end_round	0.796	columbia_card_task_fmri	16.0	0.8461538461538461	71.0	-85.0	0.1538461538461538	16.0	4.0	2.0	5.665051894520506	0.796	3.0	stim	poldrack-single-stim	s586	False	1
665.285	1.5	664.534	n/a	-1.0	2.25	columbia_card_task_fmri	n/a	n/a	-1.0	n/a	n/a	n/a	n/a	n/a	n/a	n/a	n/a	ITI	poldrack-single-stim	s586	False	0
