onset	duration	movement_onset	CTI	block_duration	correct	correct_response	cue	cue_switch	experiment_exp_id	key_press	response_time	stim_color	stim_number	switch_type	task	task_switch	trial_id	trial_type	worker_id	first_trial_of_block	junk
3.622	1.0	4.669	0.1	2.136	True	71.0	Color	switch	twobytwo	71.0	0.947	orange	9.0	cue_switch	color	stay	stim	poldrack-single-stim	s586	1	False
5.87	1.0	7.261	0.1	2.272	False	71.0	High-Low	n/a	twobytwo	89.0	1.291	blue	7.0	task_switch	magnitude	switch	stim	poldrack-single-stim	s586	0	False
9.046	1.0	10.887	0.9	2.136	True	71.0	Orange-Blue	n/a	twobytwo	71.0	0.941	orange	8.0	task_switch	color	switch	stim	poldrack-single-stim	s586	0	False
11.286	1.0	12.6	0.1	2.272	False	89.0	Orange-Blue	stay	twobytwo	71.0	1.214	blue	9.0	cue_stay	color	stay	stim	poldrack-single-stim	s586	0	False
14.468	1.0	16.011	0.9	2.0	True	71.0	Magnitude	n/a	twobytwo	71.0	0.643	blue	6.0	task_switch	magnitude	switch	stim	poldrack-single-stim	s586	0	False
16.575	1.0	17.699	0.1	2.816	True	71.0	Magnitude	stay	twobytwo	71.0	1.024	orange	9.0	cue_stay	magnitude	stay	stim	poldrack-single-stim	s586	0	False
20.3	1.0	21.753	0.9	2.408	True	89.0	High-Low	switch	twobytwo	89.0	0.553	blue	2.0	cue_switch	magnitude	stay	stim	poldrack-single-stim	s586	0	False
22.82	1.0	24.049	0.1	2.0	True	71.0	High-Low	stay	twobytwo	71.0	1.129	blue	6.0	cue_stay	magnitude	stay	stim	poldrack-single-stim	s586	0	False
24.927	1.0	25.773	0.1	2.544	True	89.0	High-Low	stay	twobytwo	89.0	0.746	blue	1.0	cue_stay	magnitude	stay	stim	poldrack-single-stim	s586	0	False
27.575	1.0	28.299	0.1	2.136	True	71.0	Orange-Blue	n/a	twobytwo	71.0	0.624	orange	7.0	task_switch	color	switch	stim	poldrack-single-stim	s586	0	False
29.817	1.0	30.527	0.1	2.0	False	89.0	High-Low	n/a	twobytwo	71.0	0.61	blue	1.0	task_switch	magnitude	switch	stim	poldrack-single-stim	s586	0	False
31.924	1.0	32.646	0.1	2.0	True	89.0	High-Low	stay	twobytwo	89.0	0.622	blue	1.0	cue_stay	magnitude	stay	stim	poldrack-single-stim	s586	0	False
34.028	1.0	34.866	0.1	2.136	True	71.0	Magnitude	switch	twobytwo	71.0	0.738	orange	8.0	cue_switch	magnitude	stay	stim	poldrack-single-stim	s586	0	False
37.068	1.0	38.533	0.9	2.136	True	89.0	Magnitude	stay	twobytwo	89.0	0.565	blue	1.0	cue_stay	magnitude	stay	stim	poldrack-single-stim	s586	0	False
40.111	1.0	41.889	0.9	2.272	False	89.0	Color	n/a	twobytwo	71.0	0.878	blue	6.0	task_switch	color	switch	stim	poldrack-single-stim	s586	0	False
43.287	1.0	44.892	0.9	3.224	True	89.0	Orange-Blue	switch	twobytwo	89.0	0.705	blue	2.0	cue_switch	color	stay	stim	poldrack-single-stim	s586	0	False
46.618	1.0	47.53	0.1	2.0	False	71.0	Color	switch	twobytwo	89.0	0.812	orange	4.0	cue_switch	color	stay	stim	poldrack-single-stim	s586	0	False
49.525	1.0	50.976	0.9	2.0	True	71.0	Magnitude	n/a	twobytwo	71.0	0.551	orange	9.0	task_switch	magnitude	switch	stim	poldrack-single-stim	s586	0	False
52.432	1.0	53.994	0.9	2.272	False	71.0	Orange-Blue	n/a	twobytwo	89.0	0.662	orange	2.0	task_switch	color	switch	stim	poldrack-single-stim	s586	0	False
54.808	1.0	55.787	0.1	2.136	True	89.0	High-Low	n/a	twobytwo	89.0	0.879	blue	4.0	task_switch	magnitude	switch	stim	poldrack-single-stim	s586	0	False
57.849	1.0	59.421	0.9	2.0	True	71.0	Magnitude	switch	twobytwo	71.0	0.672	orange	8.0	cue_switch	magnitude	stay	stim	poldrack-single-stim	s586	0	False
60.757	1.0	62.285	0.9	2.0	True	71.0	Magnitude	stay	twobytwo	71.0	0.628	blue	8.0	cue_stay	magnitude	stay	stim	poldrack-single-stim	s586	0	False
62.869	1.0	63.969	0.1	2.0	True	71.0	Magnitude	stay	twobytwo	71.0	1.0	orange	9.0	cue_stay	magnitude	stay	stim	poldrack-single-stim	s586	0	False
65.773	1.0	67.677	0.9	2.68	False	71.0	Magnitude	stay	twobytwo	89.0	1.004	blue	6.0	cue_stay	magnitude	stay	stim	poldrack-single-stim	s586	0	False
69.36	1.0	70.891	0.9	2.0	False	71.0	Orange-Blue	n/a	twobytwo	89.0	0.631	orange	2.0	task_switch	color	switch	stim	poldrack-single-stim	s586	0	False
71.467	1.0	72.86	0.1	2.272	True	89.0	High-Low	n/a	twobytwo	89.0	1.293	blue	2.0	task_switch	magnitude	switch	stim	poldrack-single-stim	s586	0	False
73.851	1.0	74.762	0.1	2.0	False	71.0	Color	n/a	twobytwo	89.0	0.811	orange	1.0	task_switch	color	switch	stim	poldrack-single-stim	s586	0	False
75.958	1.0	75.957	0.1	2.272	False	89.0	Orange-Blue	switch	twobytwo	-1.0	n/a	blue	1.0	cue_switch	color	stay	stim	poldrack-single-stim	s586	0	False
78.334	1.0	79.471	0.1	2.952	True	89.0	Color	switch	twobytwo	89.0	1.037	blue	6.0	cue_switch	color	stay	stim	poldrack-single-stim	s586	0	False
82.191	1.0	83.727	0.9	2.0	True	89.0	High-Low	n/a	twobytwo	89.0	0.636	orange	3.0	task_switch	magnitude	switch	stim	poldrack-single-stim	s586	0	False
84.299	1.0	85.21	0.1	2.0	True	89.0	Magnitude	switch	twobytwo	89.0	0.811	blue	1.0	cue_switch	magnitude	stay	stim	poldrack-single-stim	s586	0	False
86.404	1.0	87.462	0.1	2.0	True	89.0	Color	n/a	twobytwo	89.0	0.958	blue	4.0	task_switch	color	switch	stim	poldrack-single-stim	s586	0	False
88.513	1.0	89.111	0.1	2.0	True	71.0	Color	stay	twobytwo	71.0	0.498	orange	6.0	cue_stay	color	stay	stim	poldrack-single-stim	s586	0	False
90.618	1.0	91.394	0.1	2.136	True	89.0	Orange-Blue	switch	twobytwo	89.0	0.676	blue	1.0	cue_switch	color	stay	stim	poldrack-single-stim	s586	0	False
93.664	1.0	95.235	0.9	2.0	True	89.0	High-Low	n/a	twobytwo	89.0	0.671	blue	2.0	task_switch	magnitude	switch	stim	poldrack-single-stim	s586	0	False
95.772	1.0	96.984	0.1	2.0	True	71.0	Orange-Blue	n/a	twobytwo	71.0	1.112	orange	9.0	task_switch	color	switch	stim	poldrack-single-stim	s586	0	False
97.879	1.0	98.66	0.1	2.0	True	71.0	Color	switch	twobytwo	71.0	0.681	orange	9.0	cue_switch	color	stay	stim	poldrack-single-stim	s586	0	False
99.985	1.0	100.893	0.1	2.272	False	71.0	High-Low	n/a	twobytwo	89.0	0.808	blue	7.0	task_switch	magnitude	switch	stim	poldrack-single-stim	s586	0	False
102.363	1.0	103.227	0.1	2.136	True	71.0	Color	n/a	twobytwo	71.0	0.764	orange	6.0	task_switch	color	switch	stim	poldrack-single-stim	s586	0	False
104.61	1.0	105.788	0.1	2.0	True	89.0	High-Low	n/a	twobytwo	89.0	1.078	blue	3.0	task_switch	magnitude	switch	stim	poldrack-single-stim	s586	0	False
107.514	1.0	109.191	0.9	2.136	True	71.0	Orange-Blue	n/a	twobytwo	71.0	0.777	orange	4.0	task_switch	color	switch	stim	poldrack-single-stim	s586	0	False
110.556	1.0	112.414	0.9	2.816	True	89.0	High-Low	n/a	twobytwo	89.0	0.958	blue	2.0	task_switch	magnitude	switch	stim	poldrack-single-stim	s586	0	False
114.277	1.0	115.73	0.9	2.408	True	89.0	Magnitude	switch	twobytwo	89.0	0.553	orange	2.0	cue_switch	magnitude	stay	stim	poldrack-single-stim	s586	0	False
117.597	1.0	119.245	0.9	2.0	True	89.0	Color	n/a	twobytwo	89.0	0.748	blue	4.0	task_switch	color	switch	stim	poldrack-single-stim	s586	0	False
119.702	1.0	120.532	0.1	2.136	True	89.0	High-Low	n/a	twobytwo	89.0	0.73	blue	2.0	task_switch	magnitude	switch	stim	poldrack-single-stim	s586	0	False
122.746	1.0	124.269	0.9	2.136	True	71.0	High-Low	stay	twobytwo	71.0	0.623	blue	7.0	cue_stay	magnitude	stay	stim	poldrack-single-stim	s586	0	False
125.789	1.0	127.701	0.9	2.136	True	71.0	Magnitude	switch	twobytwo	71.0	1.012	orange	9.0	cue_switch	magnitude	stay	stim	poldrack-single-stim	s586	0	False
128.834	1.0	130.25	0.9	2.544	True	89.0	Orange-Blue	n/a	twobytwo	89.0	0.516	blue	3.0	task_switch	color	switch	stim	poldrack-single-stim	s586	0	False
131.488	1.0	132.61	0.1	2.136	True	89.0	High-Low	n/a	twobytwo	89.0	1.022	orange	4.0	task_switch	magnitude	switch	stim	poldrack-single-stim	s586	0	False
134.53	1.0	136.039	0.9	2.0	True	89.0	Color	n/a	twobytwo	89.0	0.609	blue	4.0	task_switch	color	switch	stim	poldrack-single-stim	s586	0	False
137.437	1.0	139.246	0.9	2.0	True	89.0	High-Low	n/a	twobytwo	89.0	0.909	orange	3.0	task_switch	magnitude	switch	stim	poldrack-single-stim	s586	0	False
140.344	1.0	141.704	0.9	2.0	True	89.0	High-Low	stay	twobytwo	89.0	0.46	orange	3.0	cue_stay	magnitude	stay	stim	poldrack-single-stim	s586	0	False
142.451	1.0	143.669	0.1	2.0	False	89.0	Orange-Blue	n/a	twobytwo	71.0	1.118	blue	8.0	task_switch	color	switch	stim	poldrack-single-stim	s586	0	False
144.56	1.0	146.039	0.1	2.136	True	71.0	Magnitude	n/a	twobytwo	71.0	1.379	blue	6.0	task_switch	magnitude	switch	stim	poldrack-single-stim	s586	0	False
147.6	1.0	149.04	0.9	2.0	True	89.0	High-Low	switch	twobytwo	89.0	0.54	orange	4.0	cue_switch	magnitude	stay	stim	poldrack-single-stim	s586	0	False
150.51	1.0	151.928	0.9	2.0	True	71.0	Magnitude	switch	twobytwo	71.0	0.518	orange	7.0	cue_switch	magnitude	stay	stim	poldrack-single-stim	s586	0	False
153.416	1.0	154.786	0.9	2.0	True	89.0	Magnitude	stay	twobytwo	89.0	0.47	blue	2.0	cue_stay	magnitude	stay	stim	poldrack-single-stim	s586	0	False
155.521	1.0	156.412	0.1	2.136	True	89.0	Orange-Blue	n/a	twobytwo	89.0	0.791	blue	3.0	task_switch	color	switch	stim	poldrack-single-stim	s586	0	False
158.56	1.0	160.293	0.9	2.136	True	71.0	High-Low	n/a	twobytwo	71.0	0.833	orange	8.0	task_switch	magnitude	switch	stim	poldrack-single-stim	s586	0	False
161.601	1.0	163.665	0.9	2.136	True	71.0	High-Low	stay	twobytwo	71.0	1.164	orange	7.0	cue_stay	magnitude	stay	stim	poldrack-single-stim	s586	0	False
164.641	1.0	166.132	0.9	2.136	False	71.0	Color	n/a	twobytwo	89.0	0.591	orange	4.0	task_switch	color	switch	stim	poldrack-single-stim	s586	0	False
166.886	1.0	168.206	0.1	2.68	True	71.0	Color	stay	twobytwo	71.0	1.22	orange	2.0	cue_stay	color	stay	stim	poldrack-single-stim	s586	0	False
169.673	1.0	170.661	0.1	2.544	True	71.0	Orange-Blue	switch	twobytwo	71.0	0.888	orange	3.0	cue_switch	color	stay	stim	poldrack-single-stim	s586	0	False
172.324	1.0	173.154	0.1	2.272	True	71.0	Color	switch	twobytwo	71.0	0.73	orange	1.0	cue_switch	color	stay	stim	poldrack-single-stim	s586	0	False
175.502	1.0	176.875	0.9	2.272	True	89.0	Orange-Blue	switch	twobytwo	89.0	0.473	blue	4.0	cue_switch	color	stay	stim	poldrack-single-stim	s586	0	False
178.679	1.0	180.735	0.9	2.408	True	71.0	Magnitude	n/a	twobytwo	71.0	1.156	orange	8.0	task_switch	magnitude	switch	stim	poldrack-single-stim	s586	0	False
181.191	1.0	181.893	0.1	2.136	True	89.0	Magnitude	stay	twobytwo	89.0	0.602	blue	1.0	cue_stay	magnitude	stay	stim	poldrack-single-stim	s586	0	False
183.433	1.0	184.275	0.1	2.272	False	89.0	Color	n/a	twobytwo	71.0	0.742	blue	7.0	task_switch	color	switch	stim	poldrack-single-stim	s586	0	False
185.814	1.0	186.766	0.1	2.0	False	71.0	Orange-Blue	switch	twobytwo	89.0	0.852	orange	2.0	cue_switch	color	stay	stim	poldrack-single-stim	s586	0	False
188.722	1.0	190.161	0.9	2.136	True	89.0	Color	switch	twobytwo	89.0	0.539	blue	7.0	cue_switch	color	stay	stim	poldrack-single-stim	s586	0	False
191.764	1.0	193.255	0.9	2.272	False	71.0	Color	stay	twobytwo	89.0	0.591	orange	1.0	cue_stay	color	stay	stim	poldrack-single-stim	s586	0	False
194.144	1.0	195.276	0.1	2.0	True	89.0	High-Low	n/a	twobytwo	89.0	1.032	orange	2.0	task_switch	magnitude	switch	stim	poldrack-single-stim	s586	0	False
197.053	1.0	198.407	0.9	2.68	True	89.0	Color	n/a	twobytwo	89.0	0.454	blue	1.0	task_switch	color	switch	stim	poldrack-single-stim	s586	0	False
200.64	1.0	202.103	0.9	2.0	True	89.0	Orange-Blue	switch	twobytwo	89.0	0.563	blue	1.0	cue_switch	color	stay	stim	poldrack-single-stim	s586	0	False
202.746	1.0	203.623	0.1	2.0	False	71.0	High-Low	n/a	twobytwo	89.0	0.777	blue	8.0	task_switch	magnitude	switch	stim	poldrack-single-stim	s586	0	False
204.852	1.0	205.977	0.1	2.0	True	71.0	High-Low	stay	twobytwo	71.0	1.025	orange	7.0	cue_stay	magnitude	stay	stim	poldrack-single-stim	s586	0	False
206.961	1.0	207.668	0.1	2.272	True	89.0	Color	n/a	twobytwo	89.0	0.607	blue	2.0	task_switch	color	switch	stim	poldrack-single-stim	s586	0	False
209.339	1.0	209.338	0.1	2.0	False	89.0	High-Low	n/a	twobytwo	-1.0	n/a	orange	4.0	task_switch	magnitude	switch	stim	poldrack-single-stim	s586	0	False
211.444	1.0	212.368	0.1	2.0	False	89.0	Color	n/a	twobytwo	71.0	0.824	blue	7.0	task_switch	color	switch	stim	poldrack-single-stim	s586	0	False
214.352	1.0	215.838	0.9	2.0	True	89.0	High-Low	n/a	twobytwo	89.0	0.586	orange	4.0	task_switch	magnitude	switch	stim	poldrack-single-stim	s586	0	False
229.974	1.0	231.164	0.1	2.68	True	71.0	Color	switch	twobytwo	71.0	1.09	orange	9.0	cue_switch	color	stay	stim	poldrack-single-stim	s586	1	False
232.763	1.0	233.579	0.1	2.0	True	71.0	Magnitude	n/a	twobytwo	71.0	0.716	blue	7.0	task_switch	magnitude	switch	stim	poldrack-single-stim	s586	0	False
235.667	1.0	237.109	0.9	2.136	True	71.0	Orange-Blue	n/a	twobytwo	71.0	0.542	orange	8.0	task_switch	color	switch	stim	poldrack-single-stim	s586	0	False
237.914	1.0	238.771	0.1	2.408	False	89.0	Orange-Blue	stay	twobytwo	71.0	0.757	blue	9.0	cue_stay	color	stay	stim	poldrack-single-stim	s586	0	False
241.23	1.0	242.736	0.9	2.136	True	71.0	High-Low	n/a	twobytwo	71.0	0.606	blue	6.0	task_switch	magnitude	switch	stim	poldrack-single-stim	s586	0	False
243.473	1.0	244.634	0.1	2.0	False	71.0	High-Low	stay	twobytwo	89.0	1.061	orange	9.0	cue_stay	magnitude	stay	stim	poldrack-single-stim	s586	0	False
246.38	1.0	247.841	0.9	2.0	True	89.0	Magnitude	switch	twobytwo	89.0	0.561	blue	2.0	cue_switch	magnitude	stay	stim	poldrack-single-stim	s586	0	False
248.492	1.0	249.475	0.1	2.544	True	71.0	Magnitude	stay	twobytwo	71.0	0.883	blue	6.0	cue_stay	magnitude	stay	stim	poldrack-single-stim	s586	0	False
251.14	1.0	251.811	0.1	2.136	True	89.0	Magnitude	stay	twobytwo	89.0	0.571	blue	1.0	cue_stay	magnitude	stay	stim	poldrack-single-stim	s586	0	False
253.388	1.0	254.377	0.1	2.544	True	71.0	Color	n/a	twobytwo	71.0	0.889	orange	7.0	task_switch	color	switch	stim	poldrack-single-stim	s586	0	False
256.036	1.0	256.774	0.1	2.68	True	89.0	High-Low	n/a	twobytwo	89.0	0.638	blue	1.0	task_switch	magnitude	switch	stim	poldrack-single-stim	s586	0	False
258.824	1.0	259.631	0.1	2.0	True	89.0	High-Low	stay	twobytwo	89.0	0.707	blue	1.0	cue_stay	magnitude	stay	stim	poldrack-single-stim	s586	0	False
260.935	1.0	261.696	0.1	2.272	True	71.0	Magnitude	switch	twobytwo	71.0	0.661	orange	8.0	cue_switch	magnitude	stay	stim	poldrack-single-stim	s586	0	False
264.114	1.0	265.651	0.9	3.088	True	89.0	Magnitude	stay	twobytwo	89.0	0.637	blue	1.0	cue_stay	magnitude	stay	stim	poldrack-single-stim	s586	0	False
268.108	1.0	269.465	0.9	2.0	True	89.0	Color	n/a	twobytwo	89.0	0.457	blue	6.0	task_switch	color	switch	stim	poldrack-single-stim	s586	0	False
271.013	1.0	272.561	0.9	2.136	True	89.0	Orange-Blue	switch	twobytwo	89.0	0.648	blue	2.0	cue_switch	color	stay	stim	poldrack-single-stim	s586	0	False
273.255	1.0	274.163	0.1	2.136	True	71.0	Color	switch	twobytwo	71.0	0.808	orange	4.0	cue_switch	color	stay	stim	poldrack-single-stim	s586	0	False
276.298	1.0	277.852	0.9	2.0	True	71.0	Magnitude	n/a	twobytwo	71.0	0.654	orange	9.0	task_switch	magnitude	switch	stim	poldrack-single-stim	s586	0	False
279.208	1.0	280.502	0.9	2.272	True	71.0	Color	n/a	twobytwo	71.0	0.394	orange	2.0	task_switch	color	switch	stim	poldrack-single-stim	s586	0	False
281.583	1.0	282.535	0.1	2.0	True	89.0	Magnitude	n/a	twobytwo	89.0	0.852	blue	4.0	task_switch	magnitude	switch	stim	poldrack-single-stim	s586	0	False
284.494	1.0	286.391	0.9	2.136	True	71.0	High-Low	switch	twobytwo	71.0	0.997	orange	8.0	cue_switch	magnitude	stay	stim	poldrack-single-stim	s586	0	False
287.535	1.0	288.987	0.9	2.136	True	71.0	High-Low	stay	twobytwo	71.0	0.552	blue	8.0	cue_stay	magnitude	stay	stim	poldrack-single-stim	s586	0	False
289.778	1.0	290.537	0.1	2.544	True	71.0	High-Low	stay	twobytwo	71.0	0.659	orange	9.0	cue_stay	magnitude	stay	stim	poldrack-single-stim	s586	0	False
293.229	1.0	294.761	0.9	2.0	False	71.0	High-Low	stay	twobytwo	89.0	0.632	blue	6.0	cue_stay	magnitude	stay	stim	poldrack-single-stim	s586	0	False
296.133	1.0	297.772	0.9	2.136	False	71.0	Color	n/a	twobytwo	89.0	0.739	orange	2.0	task_switch	color	switch	stim	poldrack-single-stim	s586	0	False
298.373	1.0	299.115	0.1	2.136	True	89.0	High-Low	n/a	twobytwo	89.0	0.642	blue	2.0	task_switch	magnitude	switch	stim	poldrack-single-stim	s586	0	False
300.619	1.0	301.92	0.1	2.136	False	71.0	Orange-Blue	n/a	twobytwo	89.0	1.201	orange	1.0	task_switch	color	switch	stim	poldrack-single-stim	s586	0	False
302.862	1.0	303.833	0.1	2.0	False	89.0	Color	switch	twobytwo	71.0	0.871	blue	1.0	cue_switch	color	stay	stim	poldrack-single-stim	s586	0	False
304.966	1.0	306.054	0.1	2.136	True	89.0	Orange-Blue	switch	twobytwo	89.0	0.988	blue	6.0	cue_switch	color	stay	stim	poldrack-single-stim	s586	0	False
308.009	1.0	309.522	0.9	2.0	True	89.0	High-Low	n/a	twobytwo	89.0	0.613	orange	3.0	task_switch	magnitude	switch	stim	poldrack-single-stim	s586	0	False
310.112	1.0	310.971	0.1	2.136	True	89.0	Magnitude	switch	twobytwo	89.0	0.759	blue	1.0	cue_switch	magnitude	stay	stim	poldrack-single-stim	s586	0	False
312.355	1.0	313.519	0.1	2.816	False	89.0	Orange-Blue	n/a	twobytwo	71.0	1.064	blue	4.0	task_switch	color	switch	stim	poldrack-single-stim	s586	0	False
315.275	1.0	316.099	0.1	2.136	True	71.0	Orange-Blue	stay	twobytwo	71.0	0.724	orange	6.0	cue_stay	color	stay	stim	poldrack-single-stim	s586	0	False
317.518	1.0	318.146	0.1	2.0	True	89.0	Color	switch	twobytwo	89.0	0.528	blue	1.0	cue_switch	color	stay	stim	poldrack-single-stim	s586	0	False
320.428	1.0	322.353	0.9	2.0	False	89.0	High-Low	n/a	twobytwo	71.0	1.025	blue	2.0	task_switch	magnitude	switch	stim	poldrack-single-stim	s586	0	False
322.534	1.0	323.835	0.1	2.272	False	71.0	Color	n/a	twobytwo	89.0	1.201	orange	9.0	task_switch	color	switch	stim	poldrack-single-stim	s586	0	False
324.918	1.0	326.041	0.1	2.0	True	71.0	Orange-Blue	switch	twobytwo	71.0	1.023	orange	9.0	cue_switch	color	stay	stim	poldrack-single-stim	s586	0	False
327.028	1.0	327.81	0.1	2.0	False	71.0	High-Low	n/a	twobytwo	89.0	0.682	blue	7.0	task_switch	magnitude	switch	stim	poldrack-single-stim	s586	0	False
329.134	1.0	330.202	0.1	2.0	True	71.0	Color	n/a	twobytwo	71.0	0.968	orange	6.0	task_switch	color	switch	stim	poldrack-single-stim	s586	0	False
331.239	1.0	332.017	0.1	2.408	True	89.0	High-Low	n/a	twobytwo	89.0	0.678	blue	3.0	task_switch	magnitude	switch	stim	poldrack-single-stim	s586	0	False
334.559	1.0	336.229	0.9	2.272	True	71.0	Orange-Blue	n/a	twobytwo	71.0	0.77	orange	4.0	task_switch	color	switch	stim	poldrack-single-stim	s586	0	False
337.735	1.0	339.252	0.9	2.136	True	89.0	Magnitude	n/a	twobytwo	89.0	0.617	blue	2.0	task_switch	magnitude	switch	stim	poldrack-single-stim	s586	0	False
340.778	1.0	342.397	0.9	2.0	True	89.0	High-Low	switch	twobytwo	89.0	0.719	orange	2.0	cue_switch	magnitude	stay	stim	poldrack-single-stim	s586	0	False
343.684	1.0	345.4	0.9	2.0	False	89.0	Orange-Blue	n/a	twobytwo	71.0	0.816	blue	4.0	task_switch	color	switch	stim	poldrack-single-stim	s586	0	False
345.79	1.0	346.701	0.1	2.136	True	89.0	High-Low	n/a	twobytwo	89.0	0.811	blue	2.0	task_switch	magnitude	switch	stim	poldrack-single-stim	s586	0	False
348.837	1.0	350.685	0.9	2.0	True	71.0	High-Low	stay	twobytwo	71.0	0.948	blue	7.0	cue_stay	magnitude	stay	stim	poldrack-single-stim	s586	0	False
351.74	1.0	353.863	0.9	2.136	True	71.0	Magnitude	switch	twobytwo	71.0	1.223	orange	9.0	cue_switch	magnitude	stay	stim	poldrack-single-stim	s586	0	False
354.782	1.0	356.263	0.9	2.408	True	89.0	Color	n/a	twobytwo	89.0	0.581	blue	3.0	task_switch	color	switch	stim	poldrack-single-stim	s586	0	False
357.298	1.0	358.125	0.1	2.136	True	89.0	Magnitude	n/a	twobytwo	89.0	0.727	orange	4.0	task_switch	magnitude	switch	stim	poldrack-single-stim	s586	0	False
360.346	1.0	362.227	0.9	2.0	True	89.0	Color	n/a	twobytwo	89.0	0.981	blue	4.0	task_switch	color	switch	stim	poldrack-single-stim	s586	0	False
363.25	1.0	365.111	0.9	2.136	False	89.0	Magnitude	n/a	twobytwo	71.0	0.961	orange	3.0	task_switch	magnitude	switch	stim	poldrack-single-stim	s586	0	False
366.29	1.0	367.731	0.9	2.272	True	89.0	Magnitude	stay	twobytwo	89.0	0.541	orange	3.0	cue_stay	magnitude	stay	stim	poldrack-single-stim	s586	0	False
368.669	1.0	369.455	0.1	2.0	False	89.0	Orange-Blue	n/a	twobytwo	71.0	0.686	blue	8.0	task_switch	color	switch	stim	poldrack-single-stim	s586	0	False
370.776	1.0	372.194	0.1	2.408	True	71.0	Magnitude	n/a	twobytwo	71.0	1.318	blue	6.0	task_switch	magnitude	switch	stim	poldrack-single-stim	s586	0	False
374.091	1.0	375.353	0.9	2.0	True	89.0	High-Low	switch	twobytwo	89.0	0.362	orange	4.0	cue_switch	magnitude	stay	stim	poldrack-single-stim	s586	0	False
376.996	1.0	378.805	0.9	2.136	True	71.0	Magnitude	switch	twobytwo	71.0	0.909	orange	7.0	cue_switch	magnitude	stay	stim	poldrack-single-stim	s586	0	False
380.04	1.0	381.738	0.9	2.408	True	89.0	Magnitude	stay	twobytwo	89.0	0.798	blue	2.0	cue_stay	magnitude	stay	stim	poldrack-single-stim	s586	0	False
382.553	1.0	383.85	0.1	2.136	True	89.0	Color	n/a	twobytwo	89.0	1.197	blue	3.0	task_switch	color	switch	stim	poldrack-single-stim	s586	0	False
385.597	1.0	387.075	0.9	2.408	True	71.0	Magnitude	n/a	twobytwo	71.0	0.578	orange	8.0	task_switch	magnitude	switch	stim	poldrack-single-stim	s586	0	False
388.91	1.0	390.749	0.9	2.136	True	71.0	Magnitude	stay	twobytwo	71.0	0.939	orange	7.0	cue_stay	magnitude	stay	stim	poldrack-single-stim	s586	0	False
391.953	1.0	393.366	0.9	2.0	True	71.0	Color	n/a	twobytwo	71.0	0.513	orange	4.0	task_switch	color	switch	stim	poldrack-single-stim	s586	0	False
394.06	1.0	395.069	0.1	2.272	False	71.0	Color	stay	twobytwo	89.0	0.909	orange	2.0	cue_stay	color	stay	stim	poldrack-single-stim	s586	0	False
396.438	1.0	397.813	0.1	2.0	True	71.0	Orange-Blue	switch	twobytwo	71.0	1.275	orange	3.0	cue_switch	color	stay	stim	poldrack-single-stim	s586	0	False
398.544	1.0	399.36	0.1	2.272	True	71.0	Color	switch	twobytwo	71.0	0.716	orange	1.0	cue_switch	color	stay	stim	poldrack-single-stim	s586	0	False
401.721	1.0	403.114	0.9	2.272	True	89.0	Orange-Blue	switch	twobytwo	89.0	0.493	blue	4.0	cue_switch	color	stay	stim	poldrack-single-stim	s586	0	False
404.9	1.0	406.376	0.9	2.952	True	71.0	High-Low	n/a	twobytwo	71.0	0.576	orange	8.0	task_switch	magnitude	switch	stim	poldrack-single-stim	s586	0	False
407.962	1.0	408.758	0.1	2.68	True	89.0	High-Low	stay	twobytwo	89.0	0.696	blue	1.0	cue_stay	magnitude	stay	stim	poldrack-single-stim	s586	0	False
410.745	1.0	411.825	0.1	2.136	True	89.0	Orange-Blue	n/a	twobytwo	89.0	0.98	blue	7.0	task_switch	color	switch	stim	poldrack-single-stim	s586	0	False
412.988	1.0	414.126	0.1	2.272	False	71.0	Color	switch	twobytwo	89.0	1.038	orange	2.0	cue_switch	color	stay	stim	poldrack-single-stim	s586	0	False
416.167	1.0	417.87	0.9	2.272	True	89.0	Orange-Blue	switch	twobytwo	89.0	0.803	blue	7.0	cue_switch	color	stay	stim	poldrack-single-stim	s586	0	False
419.348	1.0	420.938	0.9	2.136	False	71.0	Orange-Blue	stay	twobytwo	89.0	0.69	orange	1.0	cue_stay	color	stay	stim	poldrack-single-stim	s586	0	False
421.589	1.0	422.666	0.1	2.408	True	89.0	High-Low	n/a	twobytwo	89.0	0.977	orange	2.0	task_switch	magnitude	switch	stim	poldrack-single-stim	s586	0	False
424.901	1.0	426.347	0.9	2.136	True	89.0	Color	n/a	twobytwo	89.0	0.546	blue	1.0	task_switch	color	switch	stim	poldrack-single-stim	s586	0	False
427.946	1.0	429.491	0.9	2.136	True	89.0	Orange-Blue	switch	twobytwo	89.0	0.645	blue	1.0	cue_switch	color	stay	stim	poldrack-single-stim	s586	0	False
430.188	1.0	431.333	0.1	2.0	True	71.0	High-Low	n/a	twobytwo	71.0	1.045	blue	8.0	task_switch	magnitude	switch	stim	poldrack-single-stim	s586	0	False
432.295	1.0	433.183	0.1	2.0	True	71.0	High-Low	stay	twobytwo	71.0	0.788	orange	7.0	cue_stay	magnitude	stay	stim	poldrack-single-stim	s586	0	False
434.402	1.0	435.225	0.1	2.0	True	89.0	Color	n/a	twobytwo	89.0	0.723	blue	2.0	task_switch	color	switch	stim	poldrack-single-stim	s586	0	False
436.509	1.0	437.747	0.1	2.0	True	89.0	Magnitude	n/a	twobytwo	89.0	1.138	orange	4.0	task_switch	magnitude	switch	stim	poldrack-single-stim	s586	0	False
438.616	1.0	439.793	0.1	2.0	False	89.0	Color	n/a	twobytwo	71.0	1.077	blue	7.0	task_switch	color	switch	stim	poldrack-single-stim	s586	0	False
441.522	1.0	442.828	0.9	2.272	False	89.0	High-Low	n/a	twobytwo	71.0	0.406	orange	4.0	task_switch	magnitude	switch	stim	poldrack-single-stim	s586	0	False
457.419	1.0	458.466	0.1	2.408	True	71.0	Magnitude	switch	twobytwo	71.0	0.947	orange	9.0	cue_switch	magnitude	stay	stim	poldrack-single-stim	s586	1	False
459.934	1.0	460.611	0.1	2.0	True	89.0	Color	n/a	twobytwo	89.0	0.577	blue	7.0	task_switch	color	switch	stim	poldrack-single-stim	s586	0	False
462.838	1.0	464.188	0.9	2.136	False	71.0	High-Low	n/a	twobytwo	89.0	0.45	orange	8.0	task_switch	magnitude	switch	stim	poldrack-single-stim	s586	0	False
465.081	1.0	466.243	0.1	2.0	True	71.0	High-Low	stay	twobytwo	71.0	1.062	blue	9.0	cue_stay	magnitude	stay	stim	poldrack-single-stim	s586	0	False
467.99	1.0	469.502	0.9	2.136	True	89.0	Orange-Blue	n/a	twobytwo	89.0	0.612	blue	6.0	task_switch	color	switch	stim	poldrack-single-stim	s586	0	False
470.233	1.0	471.542	0.1	2.544	True	71.0	Orange-Blue	stay	twobytwo	71.0	1.209	orange	9.0	cue_stay	color	stay	stim	poldrack-single-stim	s586	0	False
473.681	1.0	475.027	0.9	2.68	True	89.0	Color	switch	twobytwo	89.0	0.446	blue	2.0	cue_switch	color	stay	stim	poldrack-single-stim	s586	0	False
476.468	1.0	477.648	0.1	3.088	False	89.0	Color	stay	twobytwo	71.0	1.08	blue	6.0	cue_stay	color	stay	stim	poldrack-single-stim	s586	0	False
479.665	1.0	480.385	0.1	2.136	True	89.0	Color	stay	twobytwo	89.0	0.62	blue	1.0	cue_stay	color	stay	stim	poldrack-single-stim	s586	0	False
481.906	1.0	482.668	0.1	2.544	True	71.0	Magnitude	n/a	twobytwo	71.0	0.662	orange	7.0	task_switch	magnitude	switch	stim	poldrack-single-stim	s586	0	False
484.559	1.0	485.348	0.1	2.0	True	89.0	Color	n/a	twobytwo	89.0	0.689	blue	1.0	task_switch	color	switch	stim	poldrack-single-stim	s586	0	False
486.668	1.0	487.346	0.1	2.136	True	89.0	Color	stay	twobytwo	89.0	0.578	blue	1.0	cue_stay	color	stay	stim	poldrack-single-stim	s586	0	False
488.911	1.0	489.834	0.1	2.0	True	71.0	Orange-Blue	switch	twobytwo	71.0	0.823	orange	8.0	cue_switch	color	stay	stim	poldrack-single-stim	s586	0	False
491.82	1.0	493.131	0.9	2.408	True	89.0	Orange-Blue	stay	twobytwo	89.0	0.411	blue	1.0	cue_stay	color	stay	stim	poldrack-single-stim	s586	0	False
495.133	1.0	496.649	0.9	2.0	True	71.0	High-Low	n/a	twobytwo	71.0	0.616	blue	6.0	task_switch	magnitude	switch	stim	poldrack-single-stim	s586	0	False
498.042	1.0	499.487	0.9	2.0	True	89.0	Magnitude	switch	twobytwo	89.0	0.545	blue	2.0	cue_switch	magnitude	stay	stim	poldrack-single-stim	s586	0	False
500.149	1.0	501.12	0.1	2.0	True	89.0	High-Low	switch	twobytwo	89.0	0.871	orange	4.0	cue_switch	magnitude	stay	stim	poldrack-single-stim	s586	0	False
503.056	1.0	504.71	0.9	2.68	True	71.0	Color	n/a	twobytwo	71.0	0.754	orange	9.0	task_switch	color	switch	stim	poldrack-single-stim	s586	0	False
506.645	1.0	508.198	0.9	2.272	True	89.0	High-Low	n/a	twobytwo	89.0	0.653	orange	2.0	task_switch	magnitude	switch	stim	poldrack-single-stim	s586	0	False
509.021	1.0	509.914	0.1	2.408	True	89.0	Color	n/a	twobytwo	89.0	0.793	blue	4.0	task_switch	color	switch	stim	poldrack-single-stim	s586	0	False
512.333	1.0	513.832	0.9	3.224	True	71.0	Orange-Blue	switch	twobytwo	71.0	0.599	orange	8.0	cue_switch	color	stay	stim	poldrack-single-stim	s586	0	False
516.463	1.0	518.01	0.9	2.408	False	89.0	Orange-Blue	stay	twobytwo	71.0	0.647	blue	8.0	cue_stay	color	stay	stim	poldrack-single-stim	s586	0	False
518.981	1.0	519.936	0.1	2.816	True	71.0	Orange-Blue	stay	twobytwo	71.0	0.855	orange	9.0	cue_stay	color	stay	stim	poldrack-single-stim	s586	0	False
522.702	1.0	524.821	0.9	2.408	True	89.0	Orange-Blue	stay	twobytwo	89.0	1.219	blue	6.0	cue_stay	color	stay	stim	poldrack-single-stim	s586	0	False
526.013	1.0	527.499	0.9	2.136	True	89.0	High-Low	n/a	twobytwo	89.0	0.586	orange	2.0	task_switch	magnitude	switch	stim	poldrack-single-stim	s586	0	False
528.254	1.0	528.96	0.1	2.136	True	89.0	Color	n/a	twobytwo	89.0	0.606	blue	2.0	task_switch	color	switch	stim	poldrack-single-stim	s586	0	False
530.496	1.0	531.251	0.1	2.0	True	89.0	High-Low	n/a	twobytwo	89.0	0.655	orange	1.0	task_switch	magnitude	switch	stim	poldrack-single-stim	s586	0	False
532.603	1.0	533.319	0.1	2.0	True	89.0	Magnitude	switch	twobytwo	89.0	0.616	blue	1.0	cue_switch	magnitude	stay	stim	poldrack-single-stim	s586	0	False
534.71	1.0	535.734	0.1	2.272	True	71.0	High-Low	switch	twobytwo	71.0	0.924	blue	6.0	cue_switch	magnitude	stay	stim	poldrack-single-stim	s586	0	False
537.888	1.0	539.213	0.9	2.408	False	71.0	Orange-Blue	n/a	twobytwo	89.0	0.425	orange	3.0	task_switch	color	switch	stim	poldrack-single-stim	s586	0	False
540.403	1.0	541.479	0.1	2.0	True	89.0	Color	switch	twobytwo	89.0	0.976	blue	1.0	cue_switch	color	stay	stim	poldrack-single-stim	s586	0	False
542.51	1.0	543.71	0.1	2.136	True	89.0	High-Low	n/a	twobytwo	89.0	1.1	blue	4.0	task_switch	magnitude	switch	stim	poldrack-single-stim	s586	0	False
544.751	1.0	545.752	0.1	2.0	True	71.0	High-Low	stay	twobytwo	71.0	0.901	orange	6.0	cue_stay	magnitude	stay	stim	poldrack-single-stim	s586	0	False
546.857	1.0	547.525	0.1	2.408	True	89.0	Magnitude	switch	twobytwo	89.0	0.568	blue	1.0	cue_switch	magnitude	stay	stim	poldrack-single-stim	s586	0	False
550.172	1.0	551.451	0.9	2.272	True	89.0	Orange-Blue	n/a	twobytwo	89.0	0.379	blue	2.0	task_switch	color	switch	stim	poldrack-single-stim	s586	0	False
552.547	1.0	553.371	0.1	2.0	True	71.0	Magnitude	n/a	twobytwo	71.0	0.724	orange	9.0	task_switch	magnitude	switch	stim	poldrack-single-stim	s586	0	False
554.652	1.0	555.442	0.1	2.272	True	71.0	High-Low	switch	twobytwo	71.0	0.69	orange	9.0	cue_switch	magnitude	stay	stim	poldrack-single-stim	s586	0	False
557.032	1.0	557.728	0.1	2.0	True	89.0	Color	n/a	twobytwo	89.0	0.596	blue	7.0	task_switch	color	switch	stim	poldrack-single-stim	s586	0	False
559.137	1.0	560.251	0.1	2.0	True	71.0	High-Low	n/a	twobytwo	71.0	1.014	orange	6.0	task_switch	magnitude	switch	stim	poldrack-single-stim	s586	0	False
561.244	1.0	562.055	0.1	2.272	True	89.0	Color	n/a	twobytwo	89.0	0.711	blue	3.0	task_switch	color	switch	stim	poldrack-single-stim	s586	0	False
564.42	1.0	565.48	0.9	2.136	False	89.0	Magnitude	n/a	twobytwo	71.0	0.16	orange	4.0	task_switch	magnitude	switch	stim	poldrack-single-stim	s586	0	False
567.462	1.0	569.164	0.9	2.0	True	89.0	Color	n/a	twobytwo	89.0	0.802	blue	2.0	task_switch	color	switch	stim	poldrack-single-stim	s586	0	False
570.37	1.0	572.153	0.9	2.0	True	71.0	Orange-Blue	switch	twobytwo	71.0	0.883	orange	2.0	cue_switch	color	stay	stim	poldrack-single-stim	s586	0	False
573.276	1.0	574.8	0.9	2.0	True	89.0	High-Low	n/a	twobytwo	89.0	0.624	blue	4.0	task_switch	magnitude	switch	stim	poldrack-single-stim	s586	0	False
575.38	1.0	576.149	0.1	2.0	True	89.0	Orange-Blue	n/a	twobytwo	89.0	0.669	blue	2.0	task_switch	color	switch	stim	poldrack-single-stim	s586	0	False
578.29	1.0	579.838	0.9	2.0	False	89.0	Orange-Blue	stay	twobytwo	71.0	0.648	blue	7.0	cue_stay	color	stay	stim	poldrack-single-stim	s586	0	False
581.199	1.0	582.778	0.9	2.136	False	71.0	Color	switch	twobytwo	89.0	0.679	orange	9.0	cue_switch	color	stay	stim	poldrack-single-stim	s586	0	False
584.242	1.0	586.196	0.9	2.0	True	89.0	High-Low	n/a	twobytwo	89.0	1.054	blue	3.0	task_switch	magnitude	switch	stim	poldrack-single-stim	s586	0	False
586.349	1.0	587.473	0.1	2.0	True	71.0	Orange-Blue	n/a	twobytwo	71.0	1.024	orange	4.0	task_switch	color	switch	stim	poldrack-single-stim	s586	0	False
589.259	1.0	590.766	0.9	2.136	True	89.0	High-Low	n/a	twobytwo	89.0	0.607	blue	4.0	task_switch	magnitude	switch	stim	poldrack-single-stim	s586	0	False
592.301	1.0	594.025	0.9	2.0	True	71.0	Orange-Blue	n/a	twobytwo	71.0	0.824	orange	3.0	task_switch	color	switch	stim	poldrack-single-stim	s586	0	False
595.207	1.0	596.924	0.9	2.136	True	71.0	Orange-Blue	stay	twobytwo	71.0	0.817	orange	3.0	cue_stay	color	stay	stim	poldrack-single-stim	s586	0	False
597.45	1.0	598.643	0.1	2.68	True	71.0	Magnitude	n/a	twobytwo	71.0	1.093	blue	8.0	task_switch	magnitude	switch	stim	poldrack-single-stim	s586	0	False
600.233	1.0	601.354	0.1	2.272	False	89.0	Orange-Blue	n/a	twobytwo	71.0	1.021	blue	6.0	task_switch	color	switch	stim	poldrack-single-stim	s586	0	False
603.413	1.0	604.807	0.9	2.136	True	71.0	Color	switch	twobytwo	71.0	0.494	orange	4.0	cue_switch	color	stay	stim	poldrack-single-stim	s586	0	False
606.455	1.0	607.901	0.9	2.0	True	71.0	Orange-Blue	switch	twobytwo	71.0	0.546	orange	7.0	cue_switch	color	stay	stim	poldrack-single-stim	s586	0	False
609.36	1.0	610.914	0.9	2.136	True	89.0	Orange-Blue	stay	twobytwo	89.0	0.654	blue	2.0	cue_stay	color	stay	stim	poldrack-single-stim	s586	0	False
611.6	1.0	612.469	0.1	2.68	True	89.0	Magnitude	n/a	twobytwo	89.0	0.769	blue	3.0	task_switch	magnitude	switch	stim	poldrack-single-stim	s586	0	False
615.187	1.0	616.731	0.9	2.272	True	71.0	Orange-Blue	n/a	twobytwo	71.0	0.644	orange	8.0	task_switch	color	switch	stim	poldrack-single-stim	s586	0	False
618.369	1.0	620.205	0.9	2.0	False	71.0	Orange-Blue	stay	twobytwo	89.0	0.936	orange	7.0	cue_stay	color	stay	stim	poldrack-single-stim	s586	0	False
621.278	1.0	622.771	0.9	2.0	True	89.0	Magnitude	n/a	twobytwo	89.0	0.593	orange	4.0	task_switch	magnitude	switch	stim	poldrack-single-stim	s586	0	False
623.386	1.0	624.337	0.1	2.136	True	89.0	Magnitude	stay	twobytwo	89.0	0.851	orange	2.0	cue_stay	magnitude	stay	stim	poldrack-single-stim	s586	0	False
625.625	1.0	626.422	0.1	2.0	True	89.0	High-Low	switch	twobytwo	89.0	0.697	orange	3.0	cue_switch	magnitude	stay	stim	poldrack-single-stim	s586	0	False
627.731	1.0	628.444	0.1	2.0	True	89.0	Magnitude	switch	twobytwo	89.0	0.613	orange	1.0	cue_switch	magnitude	stay	stim	poldrack-single-stim	s586	0	False
630.638	1.0	632.667	0.9	2.0	True	89.0	High-Low	switch	twobytwo	89.0	1.129	blue	4.0	cue_switch	magnitude	stay	stim	poldrack-single-stim	s586	0	False
633.545	1.0	634.983	0.9	2.272	True	71.0	Color	n/a	twobytwo	71.0	0.538	orange	8.0	task_switch	color	switch	stim	poldrack-single-stim	s586	0	False
635.923	1.0	636.843	0.1	2.408	True	89.0	Color	stay	twobytwo	89.0	0.82	blue	1.0	cue_stay	color	stay	stim	poldrack-single-stim	s586	0	False
638.441	1.0	639.366	0.1	2.0	True	71.0	Magnitude	n/a	twobytwo	71.0	0.825	blue	7.0	task_switch	magnitude	switch	stim	poldrack-single-stim	s586	0	False
640.548	1.0	641.68	0.1	2.0	True	89.0	High-Low	switch	twobytwo	89.0	1.032	orange	2.0	cue_switch	magnitude	stay	stim	poldrack-single-stim	s586	0	False
643.454	1.0	644.977	0.9	2.0	True	71.0	Magnitude	switch	twobytwo	71.0	0.623	blue	7.0	cue_switch	magnitude	stay	stim	poldrack-single-stim	s586	0	False
646.358	1.0	647.736	0.9	2.272	True	89.0	Magnitude	stay	twobytwo	89.0	0.478	orange	1.0	cue_stay	magnitude	stay	stim	poldrack-single-stim	s586	0	False
648.738	1.0	649.928	0.1	2.136	True	71.0	Orange-Blue	n/a	twobytwo	71.0	1.09	orange	2.0	task_switch	color	switch	stim	poldrack-single-stim	s586	0	False
651.78	1.0	653.123	0.9	2.0	True	89.0	Magnitude	n/a	twobytwo	89.0	0.443	blue	1.0	task_switch	magnitude	switch	stim	poldrack-single-stim	s586	0	False
654.686	1.0	656.515	0.9	2.544	True	89.0	High-Low	switch	twobytwo	89.0	0.929	blue	1.0	cue_switch	magnitude	stay	stim	poldrack-single-stim	s586	0	False
657.334	1.0	658.483	0.1	2.272	True	89.0	Orange-Blue	n/a	twobytwo	89.0	1.049	blue	8.0	task_switch	color	switch	stim	poldrack-single-stim	s586	0	False
659.716	1.0	660.49	0.1	2.272	True	71.0	Orange-Blue	stay	twobytwo	71.0	0.674	orange	7.0	cue_stay	color	stay	stim	poldrack-single-stim	s586	0	False
662.095	1.0	662.873	0.1	2.0	True	89.0	High-Low	n/a	twobytwo	89.0	0.678	blue	2.0	task_switch	magnitude	switch	stim	poldrack-single-stim	s586	0	False
664.202	1.0	665.483	0.1	2.0	True	71.0	Orange-Blue	n/a	twobytwo	71.0	1.181	orange	4.0	task_switch	color	switch	stim	poldrack-single-stim	s586	0	False
666.305	1.0	667.513	0.1	2.136	True	71.0	High-Low	n/a	twobytwo	71.0	1.108	blue	7.0	task_switch	magnitude	switch	stim	poldrack-single-stim	s586	0	False
669.348	1.0	670.693	0.9	2.0	True	71.0	Orange-Blue	n/a	twobytwo	71.0	0.445	orange	4.0	task_switch	color	switch	stim	poldrack-single-stim	s586	0	False
