onset	duration	movement_onset	CTI	block_duration	correct	correct_response	cue	cue_switch	experiment_exp_id	key_press	response_time	stim_color	stim_number	switch_type	task	task_switch	trial_id	trial_type	worker_id	first_trial_of_block	junk
4.418	1.0	6.285	0.9	3.224	True	71.0	High-Low	stay	twobytwo	71.0	0.967	blue	3.0	cue_stay	magnitude	stay	stim	poldrack-single-stim	s587	1	False
7.746	1.0	9.249	0.1	2.408	True	71.0	Color	n/a	twobytwo	71.0	1.403	blue	3.0	task_switch	color	switch	stim	poldrack-single-stim	s587	0	False
11.067	1.0	12.745	0.9	2.816	True	89.0	High-Low	n/a	twobytwo	89.0	0.778	orange	8.0	task_switch	magnitude	switch	stim	poldrack-single-stim	s587	0	False
14.792	1.0	16.34	0.9	2.408	True	89.0	Color	n/a	twobytwo	89.0	0.648	orange	3.0	task_switch	color	switch	stim	poldrack-single-stim	s587	0	False
18.105	1.0	19.803	0.9	2.136	True	89.0	High-Low	n/a	twobytwo	89.0	0.798	blue	7.0	task_switch	magnitude	switch	stim	poldrack-single-stim	s587	0	False
21.144	1.0	22.748	0.9	2.136	True	89.0	High-Low	stay	twobytwo	89.0	0.704	orange	8.0	cue_stay	magnitude	stay	stim	poldrack-single-stim	s587	0	False
23.389	1.0	24.543	0.1	2.0	True	71.0	Magnitude	switch	twobytwo	71.0	1.054	orange	1.0	cue_switch	magnitude	stay	stim	poldrack-single-stim	s587	0	False
26.3	1.0	28.065	0.9	2.0	True	71.0	High-Low	switch	twobytwo	71.0	0.865	orange	1.0	cue_switch	magnitude	stay	stim	poldrack-single-stim	s587	0	False
28.406	1.0	29.631	0.1	2.272	True	89.0	Orange-Blue	n/a	twobytwo	89.0	1.125	orange	3.0	task_switch	color	switch	stim	poldrack-single-stim	s587	0	False
31.589	1.0	33.371	0.9	2.408	True	71.0	Magnitude	n/a	twobytwo	71.0	0.882	orange	3.0	task_switch	magnitude	switch	stim	poldrack-single-stim	s587	0	False
34.905	1.0	36.517	0.9	2.0	True	89.0	Color	n/a	twobytwo	89.0	0.712	orange	2.0	task_switch	color	switch	stim	poldrack-single-stim	s587	0	False
37.011	1.0	38.412	0.1	2.136	True	89.0	Orange-Blue	switch	twobytwo	89.0	1.301	orange	4.0	cue_switch	color	stay	stim	poldrack-single-stim	s587	0	False
39.254	1.0	40.416	0.1	2.0	True	71.0	High-Low	n/a	twobytwo	71.0	1.062	blue	1.0	task_switch	magnitude	switch	stim	poldrack-single-stim	s587	0	False
42.158	1.0	44.019	0.9	2.408	True	71.0	Orange-Blue	n/a	twobytwo	71.0	0.961	blue	8.0	task_switch	color	switch	stim	poldrack-single-stim	s587	0	False
44.673	1.0	45.879	0.1	2.272	True	89.0	Color	switch	twobytwo	89.0	1.106	orange	8.0	cue_switch	color	stay	stim	poldrack-single-stim	s587	0	False
47.852	1.0	49.812	0.9	2.0	True	89.0	High-Low	n/a	twobytwo	89.0	1.06	blue	8.0	task_switch	magnitude	switch	stim	poldrack-single-stim	s587	0	False
49.958	1.0	51.872	0.1	2.272	True	89.0	Magnitude	switch	twobytwo	89.0	1.814	orange	7.0	cue_switch	magnitude	stay	stim	poldrack-single-stim	s587	0	False
53.138	1.0	55.482	0.9	2.0	True	89.0	Color	n/a	twobytwo	89.0	1.444	orange	3.0	task_switch	color	switch	stim	poldrack-single-stim	s587	0	False
55.244	1.0	56.29	0.1	2.0	True	71.0	Magnitude	n/a	twobytwo	71.0	0.946	orange	1.0	task_switch	magnitude	switch	stim	poldrack-single-stim	s587	0	False
57.357	1.0	58.367	0.1	2.272	True	71.0	Magnitude	stay	twobytwo	71.0	0.91	orange	4.0	cue_stay	magnitude	stay	stim	poldrack-single-stim	s587	0	False
60.532	1.0	62.02	0.9	2.136	True	89.0	Color	n/a	twobytwo	89.0	0.588	orange	9.0	task_switch	color	switch	stim	poldrack-single-stim	s587	0	False
63.575	1.0	65.263	0.9	2.0	True	71.0	High-Low	n/a	twobytwo	71.0	0.788	orange	4.0	task_switch	magnitude	switch	stim	poldrack-single-stim	s587	0	False
65.681	1.0	67.042	0.1	2.0	False	89.0	High-Low	stay	twobytwo	71.0	1.261	blue	8.0	cue_stay	magnitude	stay	stim	poldrack-single-stim	s587	0	False
67.789	1.0	69.448	0.1	2.0	True	89.0	Orange-Blue	n/a	twobytwo	89.0	1.559	orange	1.0	task_switch	color	switch	stim	poldrack-single-stim	s587	0	False
70.692	1.0	72.463	0.9	2.0	True	89.0	Color	switch	twobytwo	89.0	0.871	orange	8.0	cue_switch	color	stay	stim	poldrack-single-stim	s587	0	False
73.602	1.0	75.176	0.9	2.0	True	89.0	Color	stay	twobytwo	89.0	0.674	orange	7.0	cue_stay	color	stay	stim	poldrack-single-stim	s587	0	False
75.706	1.0	76.748	0.1	2.136	True	71.0	Magnitude	n/a	twobytwo	71.0	0.942	orange	2.0	task_switch	magnitude	switch	stim	poldrack-single-stim	s587	0	False
77.949	1.0	78.892	0.1	2.0	True	71.0	Magnitude	stay	twobytwo	71.0	0.843	orange	1.0	cue_stay	magnitude	stay	stim	poldrack-single-stim	s587	0	False
80.861	1.0	82.665	0.9	2.0	True	71.0	Color	n/a	twobytwo	71.0	0.904	blue	1.0	task_switch	color	switch	stim	poldrack-single-stim	s587	0	False
82.965	1.0	84.19	0.1	2.136	True	89.0	Orange-Blue	switch	twobytwo	89.0	1.125	orange	9.0	cue_switch	color	stay	stim	poldrack-single-stim	s587	0	False
86.005	1.0	87.582	0.9	2.0	True	71.0	Color	switch	twobytwo	71.0	0.677	blue	9.0	cue_switch	color	stay	stim	poldrack-single-stim	s587	0	False
88.112	1.0	89.282	0.1	2.136	True	71.0	Magnitude	n/a	twobytwo	71.0	1.07	orange	3.0	task_switch	magnitude	switch	stim	poldrack-single-stim	s587	0	False
91.151	1.0	92.861	0.9	2.68	True	71.0	Orange-Blue	n/a	twobytwo	71.0	0.81	blue	1.0	task_switch	color	switch	stim	poldrack-single-stim	s587	0	False
93.938	1.0	94.781	0.1	2.272	True	89.0	Orange-Blue	stay	twobytwo	89.0	0.743	orange	6.0	cue_stay	color	stay	stim	poldrack-single-stim	s587	0	False
96.315	1.0	97.439	0.1	2.136	True	71.0	Orange-Blue	stay	twobytwo	71.0	1.024	blue	1.0	cue_stay	color	stay	stim	poldrack-single-stim	s587	0	False
99.358	1.0	101.364	0.9	2.0	True	89.0	High-Low	n/a	twobytwo	89.0	1.106	blue	9.0	task_switch	magnitude	switch	stim	poldrack-single-stim	s587	0	False
102.262	1.0	103.732	0.9	2.136	True	89.0	Color	n/a	twobytwo	89.0	0.57	orange	1.0	task_switch	color	switch	stim	poldrack-single-stim	s587	0	False
105.304	1.0	106.894	0.9	2.68	True	89.0	Magnitude	n/a	twobytwo	89.0	0.69	blue	9.0	task_switch	magnitude	switch	stim	poldrack-single-stim	s587	0	False
108.093	1.0	109.139	0.1	2.272	True	71.0	Color	n/a	twobytwo	71.0	0.946	blue	2.0	task_switch	color	switch	stim	poldrack-single-stim	s587	0	False
110.471	1.0	111.423	0.1	2.0	True	89.0	Orange-Blue	switch	twobytwo	89.0	0.852	orange	3.0	cue_switch	color	stay	stim	poldrack-single-stim	s587	0	False
113.377	1.0	115.045	0.9	2.0	True	71.0	Magnitude	n/a	twobytwo	71.0	0.768	orange	3.0	task_switch	magnitude	switch	stim	poldrack-single-stim	s587	0	False
115.482	1.0	116.449	0.1	2.136	True	89.0	Magnitude	stay	twobytwo	89.0	0.867	blue	6.0	cue_stay	magnitude	stay	stim	poldrack-single-stim	s587	0	False
117.726	1.0	118.649	0.1	2.0	True	71.0	Magnitude	stay	twobytwo	71.0	0.823	orange	1.0	cue_stay	magnitude	stay	stim	poldrack-single-stim	s587	0	False
120.629	1.0	122.136	0.9	2.0	True	89.0	Magnitude	stay	twobytwo	89.0	0.607	blue	8.0	cue_stay	magnitude	stay	stim	poldrack-single-stim	s587	0	False
122.74	1.0	123.705	0.1	2.0	True	71.0	High-Low	switch	twobytwo	71.0	0.865	blue	2.0	cue_switch	magnitude	stay	stim	poldrack-single-stim	s587	0	False
124.845	1.0	126.076	0.1	2.272	True	71.0	Orange-Blue	n/a	twobytwo	71.0	1.131	blue	9.0	task_switch	color	switch	stim	poldrack-single-stim	s587	0	False
127.223	1.0	128.48	0.1	2.408	True	89.0	High-Low	n/a	twobytwo	89.0	1.157	orange	9.0	task_switch	magnitude	switch	stim	poldrack-single-stim	s587	0	False
130.536	1.0	132.56	0.9	2.0	True	71.0	High-Low	stay	twobytwo	71.0	1.124	blue	4.0	cue_stay	magnitude	stay	stim	poldrack-single-stim	s587	0	False
133.444	1.0	135.011	0.9	2.0	True	89.0	High-Low	stay	twobytwo	89.0	0.667	orange	8.0	cue_stay	magnitude	stay	stim	poldrack-single-stim	s587	0	False
135.551	1.0	137.36	0.1	2.0	True	89.0	Color	n/a	twobytwo	89.0	1.709	orange	6.0	task_switch	color	switch	stim	poldrack-single-stim	s587	0	False
138.458	1.0	140.256	0.9	2.272	True	71.0	Magnitude	n/a	twobytwo	71.0	0.898	blue	1.0	task_switch	magnitude	switch	stim	poldrack-single-stim	s587	0	False
140.839	1.0	141.987	0.1	2.136	True	89.0	Magnitude	stay	twobytwo	89.0	1.048	blue	6.0	cue_stay	magnitude	stay	stim	poldrack-single-stim	s587	0	False
143.082	1.0	144.031	0.1	2.0	True	71.0	Color	n/a	twobytwo	71.0	0.849	blue	9.0	task_switch	color	switch	stim	poldrack-single-stim	s587	0	False
145.988	1.0	147.608	0.9	2.544	True	89.0	Orange-Blue	switch	twobytwo	89.0	0.72	orange	9.0	cue_switch	color	stay	stim	poldrack-single-stim	s587	0	False
149.439	1.0	150.92	0.9	2.272	True	89.0	High-Low	n/a	twobytwo	89.0	0.581	blue	8.0	task_switch	magnitude	switch	stim	poldrack-single-stim	s587	0	False
151.818	1.0	153.014	0.1	2.272	True	71.0	High-Low	stay	twobytwo	71.0	1.096	blue	4.0	cue_stay	magnitude	stay	stim	poldrack-single-stim	s587	0	False
154.202	1.0	155.27	0.1	2.0	True	71.0	Magnitude	switch	twobytwo	71.0	0.968	blue	3.0	cue_switch	magnitude	stay	stim	poldrack-single-stim	s587	0	False
156.315	1.0	157.224	0.1	2.0	True	71.0	Magnitude	stay	twobytwo	71.0	0.809	blue	1.0	cue_stay	magnitude	stay	stim	poldrack-single-stim	s587	0	False
159.218	1.0	160.739	0.9	2.136	True	89.0	Orange-Blue	n/a	twobytwo	89.0	0.621	orange	4.0	task_switch	color	switch	stim	poldrack-single-stim	s587	0	False
162.261	1.0	163.957	0.9	2.0	True	89.0	Magnitude	n/a	twobytwo	89.0	0.796	blue	8.0	task_switch	magnitude	switch	stim	poldrack-single-stim	s587	0	False
165.164	1.0	166.79	0.9	2.136	True	71.0	High-Low	switch	twobytwo	71.0	0.726	blue	2.0	cue_switch	magnitude	stay	stim	poldrack-single-stim	s587	0	False
167.408	1.0	168.299	0.1	2.272	True	89.0	Orange-Blue	n/a	twobytwo	89.0	0.791	orange	9.0	task_switch	color	switch	stim	poldrack-single-stim	s587	0	False
170.584	1.0	172.106	0.9	2.136	True	71.0	Magnitude	n/a	twobytwo	71.0	0.622	orange	4.0	task_switch	magnitude	switch	stim	poldrack-single-stim	s587	0	False
173.627	1.0	175.268	0.9	2.272	True	89.0	Magnitude	stay	twobytwo	89.0	0.741	blue	7.0	cue_stay	magnitude	stay	stim	poldrack-single-stim	s587	0	False
176.005	1.0	177.394	0.1	2.0	True	89.0	Orange-Blue	n/a	twobytwo	89.0	1.289	orange	3.0	task_switch	color	switch	stim	poldrack-single-stim	s587	0	False
178.912	1.0	180.427	0.9	2.816	True	89.0	Orange-Blue	stay	twobytwo	89.0	0.615	orange	9.0	cue_stay	color	stay	stim	poldrack-single-stim	s587	0	False
182.633	1.0	184.181	0.9	2.408	True	89.0	Color	switch	twobytwo	89.0	0.648	orange	9.0	cue_switch	color	stay	stim	poldrack-single-stim	s587	0	False
185.147	1.0	186.212	0.1	2.0	True	89.0	Color	stay	twobytwo	89.0	0.965	orange	3.0	cue_stay	color	stay	stim	poldrack-single-stim	s587	0	False
188.054	1.0	189.478	0.9	2.544	True	71.0	Color	stay	twobytwo	71.0	0.524	blue	8.0	cue_stay	color	stay	stim	poldrack-single-stim	s587	0	False
191.502	1.0	193.686	0.9	2.136	True	71.0	High-Low	n/a	twobytwo	71.0	1.284	blue	2.0	task_switch	magnitude	switch	stim	poldrack-single-stim	s587	0	False
194.546	1.0	196.474	0.9	2.0	True	71.0	Orange-Blue	n/a	twobytwo	71.0	1.028	blue	4.0	task_switch	color	switch	stim	poldrack-single-stim	s587	0	False
196.657	1.0	197.942	0.1	2.0	True	89.0	Orange-Blue	stay	twobytwo	89.0	1.185	orange	4.0	cue_stay	color	stay	stim	poldrack-single-stim	s587	0	False
198.764	1.0	200.21	0.1	2.136	True	89.0	Color	switch	twobytwo	89.0	1.346	orange	2.0	cue_switch	color	stay	stim	poldrack-single-stim	s587	0	False
201.807	1.0	203.349	0.9	2.136	True	71.0	Color	stay	twobytwo	71.0	0.642	blue	9.0	cue_stay	color	stay	stim	poldrack-single-stim	s587	0	False
204.851	1.0	206.46	0.9	2.272	True	71.0	Magnitude	n/a	twobytwo	71.0	0.709	blue	1.0	task_switch	magnitude	switch	stim	poldrack-single-stim	s587	0	False
207.231	1.0	208.883	0.1	3.224	True	71.0	High-Low	switch	twobytwo	71.0	1.552	orange	4.0	cue_switch	magnitude	stay	stim	poldrack-single-stim	s587	0	False
210.567	1.0	211.531	0.1	2.0	True	89.0	Magnitude	switch	twobytwo	89.0	0.864	orange	6.0	cue_switch	magnitude	stay	stim	poldrack-single-stim	s587	0	False
212.673	1.0	213.75	0.1	2.0	True	89.0	Orange-Blue	n/a	twobytwo	89.0	0.977	orange	4.0	task_switch	color	switch	stim	poldrack-single-stim	s587	0	False
214.78	1.0	215.961	0.1	2.272	True	89.0	Magnitude	n/a	twobytwo	89.0	1.081	blue	8.0	task_switch	magnitude	switch	stim	poldrack-single-stim	s587	0	False
217.957	1.0	219.504	0.9	2.136	True	89.0	Orange-Blue	n/a	twobytwo	89.0	0.647	orange	7.0	task_switch	color	switch	stim	poldrack-single-stim	s587	0	False
234.52	1.0	236.335	0.9	2.0	True	71.0	Orange-Blue	stay	twobytwo	71.0	0.915	blue	3.0	cue_stay	color	stay	stim	poldrack-single-stim	s587	1	False
236.627	1.0	237.757	0.1	2.0	True	71.0	High-Low	n/a	twobytwo	71.0	1.03	blue	3.0	task_switch	magnitude	switch	stim	poldrack-single-stim	s587	0	False
239.535	1.0	240.867	0.9	2.0	True	89.0	Color	n/a	twobytwo	89.0	0.432	orange	8.0	task_switch	color	switch	stim	poldrack-single-stim	s587	0	False
242.443	1.0	243.866	0.9	2.68	True	71.0	High-Low	n/a	twobytwo	71.0	0.523	orange	3.0	task_switch	magnitude	switch	stim	poldrack-single-stim	s587	0	False
246.03	1.0	247.914	0.9	2.0	True	71.0	Color	n/a	twobytwo	71.0	0.984	blue	7.0	task_switch	color	switch	stim	poldrack-single-stim	s587	0	False
248.936	1.0	250.596	0.9	2.272	True	89.0	Color	stay	twobytwo	89.0	0.76	orange	8.0	cue_stay	color	stay	stim	poldrack-single-stim	s587	0	False
251.32	1.0	252.66	0.1	2.0	False	89.0	Orange-Blue	switch	twobytwo	71.0	1.24	orange	1.0	cue_switch	color	stay	stim	poldrack-single-stim	s587	0	False
254.227	1.0	256.666	0.9	2.272	True	89.0	Color	switch	twobytwo	89.0	1.539	orange	1.0	cue_switch	color	stay	stim	poldrack-single-stim	s587	0	False
256.603	1.0	258.271	0.1	2.952	True	71.0	High-Low	n/a	twobytwo	71.0	1.568	orange	3.0	task_switch	magnitude	switch	stim	poldrack-single-stim	s587	0	False
260.462	1.0	262.059	0.9	2.0	True	89.0	Orange-Blue	n/a	twobytwo	89.0	0.697	orange	3.0	task_switch	color	switch	stim	poldrack-single-stim	s587	0	False
263.369	1.0	265.025	0.9	2.0	True	71.0	Magnitude	n/a	twobytwo	71.0	0.756	orange	2.0	task_switch	magnitude	switch	stim	poldrack-single-stim	s587	0	False
265.48	1.0	266.536	0.1	2.0	True	71.0	High-Low	switch	twobytwo	71.0	0.956	orange	4.0	cue_switch	magnitude	stay	stim	poldrack-single-stim	s587	0	False
267.584	1.0	268.991	0.1	2.0	True	71.0	Orange-Blue	n/a	twobytwo	71.0	1.307	blue	1.0	task_switch	color	switch	stim	poldrack-single-stim	s587	0	False
270.493	1.0	272.294	0.9	2.136	True	89.0	High-Low	n/a	twobytwo	89.0	0.901	blue	8.0	task_switch	magnitude	switch	stim	poldrack-single-stim	s587	0	False
272.736	1.0	272.735	0.1	2.0	False	89.0	Magnitude	switch	twobytwo	-1.0	n/a	orange	8.0	cue_switch	magnitude	stay	stim	poldrack-single-stim	s587	0	False
275.647	1.0	278.014	0.9	2.0	True	71.0	Orange-Blue	n/a	twobytwo	71.0	1.467	blue	8.0	task_switch	color	switch	stim	poldrack-single-stim	s587	0	False
277.754	1.0	278.604	0.1	2.0	True	89.0	Color	switch	twobytwo	89.0	0.75	orange	7.0	cue_switch	color	stay	stim	poldrack-single-stim	s587	0	False
280.66	1.0	282.345	0.9	2.272	True	71.0	High-Low	n/a	twobytwo	71.0	0.785	orange	3.0	task_switch	magnitude	switch	stim	poldrack-single-stim	s587	0	False
283.036	1.0	284.524	0.1	2.136	True	89.0	Orange-Blue	n/a	twobytwo	89.0	1.388	orange	1.0	task_switch	color	switch	stim	poldrack-single-stim	s587	0	False
285.284	1.0	286.51	0.1	2.0	True	89.0	Orange-Blue	stay	twobytwo	89.0	1.126	orange	4.0	cue_stay	color	stay	stim	poldrack-single-stim	s587	0	False
288.194	1.0	289.724	0.9	2.136	True	89.0	Magnitude	n/a	twobytwo	89.0	0.63	orange	9.0	task_switch	magnitude	switch	stim	poldrack-single-stim	s587	0	False
291.242	1.0	292.859	0.9	2.816	True	89.0	Orange-Blue	n/a	twobytwo	89.0	0.717	orange	4.0	task_switch	color	switch	stim	poldrack-single-stim	s587	0	False
294.162	1.0	295.114	0.1	2.408	True	71.0	Orange-Blue	stay	twobytwo	71.0	0.852	blue	8.0	cue_stay	color	stay	stim	poldrack-single-stim	s587	0	False
296.682	1.0	297.542	0.1	2.0	True	71.0	Magnitude	n/a	twobytwo	71.0	0.76	orange	1.0	task_switch	magnitude	switch	stim	poldrack-single-stim	s587	0	False
299.591	1.0	301.121	0.9	2.136	True	89.0	High-Low	switch	twobytwo	89.0	0.63	orange	8.0	cue_switch	magnitude	stay	stim	poldrack-single-stim	s587	0	False
302.632	1.0	304.167	0.9	2.136	True	89.0	High-Low	stay	twobytwo	89.0	0.635	orange	7.0	cue_stay	magnitude	stay	stim	poldrack-single-stim	s587	0	False
304.877	1.0	306.156	0.1	2.136	True	89.0	Orange-Blue	n/a	twobytwo	89.0	1.179	orange	2.0	task_switch	color	switch	stim	poldrack-single-stim	s587	0	False
307.12	1.0	308.047	0.1	2.544	True	89.0	Orange-Blue	stay	twobytwo	89.0	0.827	orange	1.0	cue_stay	color	stay	stim	poldrack-single-stim	s587	0	False
310.573	1.0	312.152	0.9	2.136	True	71.0	High-Low	n/a	twobytwo	71.0	0.679	blue	1.0	task_switch	magnitude	switch	stim	poldrack-single-stim	s587	0	False
312.816	1.0	313.626	0.1	2.0	True	89.0	Magnitude	switch	twobytwo	89.0	0.71	orange	9.0	cue_switch	magnitude	stay	stim	poldrack-single-stim	s587	0	False
315.723	1.0	317.375	0.9	2.0	True	89.0	High-Low	switch	twobytwo	89.0	0.752	blue	9.0	cue_switch	magnitude	stay	stim	poldrack-single-stim	s587	0	False
317.835	1.0	319.189	0.1	2.0	True	89.0	Orange-Blue	n/a	twobytwo	89.0	1.254	orange	3.0	task_switch	color	switch	stim	poldrack-single-stim	s587	0	False
320.74	1.0	322.337	0.9	2.0	True	71.0	High-Low	n/a	twobytwo	71.0	0.697	blue	1.0	task_switch	magnitude	switch	stim	poldrack-single-stim	s587	0	False
322.846	1.0	323.883	0.1	2.136	True	89.0	High-Low	stay	twobytwo	89.0	0.937	orange	6.0	cue_stay	magnitude	stay	stim	poldrack-single-stim	s587	0	False
325.089	1.0	326.15	0.1	2.0	True	71.0	High-Low	stay	twobytwo	71.0	0.961	blue	1.0	cue_stay	magnitude	stay	stim	poldrack-single-stim	s587	0	False
327.999	1.0	329.478	0.9	2.0	True	71.0	Color	n/a	twobytwo	71.0	0.579	blue	9.0	task_switch	color	switch	stim	poldrack-single-stim	s587	0	False
330.907	1.0	332.392	0.9	2.0	True	71.0	Magnitude	n/a	twobytwo	71.0	0.585	orange	1.0	task_switch	magnitude	switch	stim	poldrack-single-stim	s587	0	False
333.81	1.0	335.413	0.9	2.136	True	71.0	Color	n/a	twobytwo	71.0	0.703	blue	9.0	task_switch	color	switch	stim	poldrack-single-stim	s587	0	False
336.051	1.0	337.396	0.1	2.136	True	71.0	High-Low	n/a	twobytwo	71.0	1.245	blue	2.0	task_switch	magnitude	switch	stim	poldrack-single-stim	s587	0	False
338.297	1.0	339.263	0.1	2.136	True	71.0	Magnitude	switch	twobytwo	71.0	0.866	orange	3.0	cue_switch	magnitude	stay	stim	poldrack-single-stim	s587	0	False
341.337	1.0	342.863	0.9	2.136	True	89.0	Color	n/a	twobytwo	89.0	0.626	orange	3.0	task_switch	color	switch	stim	poldrack-single-stim	s587	0	False
343.579	1.0	344.451	0.1	2.68	True	71.0	Color	stay	twobytwo	71.0	0.772	blue	6.0	cue_stay	color	stay	stim	poldrack-single-stim	s587	0	False
346.369	1.0	347.255	0.1	2.544	True	89.0	Color	stay	twobytwo	89.0	0.786	orange	1.0	cue_stay	color	stay	stim	poldrack-single-stim	s587	0	False
349.825	1.0	351.694	0.9	2.272	True	71.0	Color	stay	twobytwo	71.0	0.969	blue	8.0	cue_stay	color	stay	stim	poldrack-single-stim	s587	0	False
352.209	1.0	353.564	0.1	2.272	True	71.0	Orange-Blue	switch	twobytwo	71.0	1.255	blue	2.0	cue_switch	color	stay	stim	poldrack-single-stim	s587	0	False
354.591	1.0	356.271	0.1	2.408	True	89.0	High-Low	n/a	twobytwo	89.0	1.58	blue	9.0	task_switch	magnitude	switch	stim	poldrack-single-stim	s587	0	False
357.107	1.0	358.663	0.1	2.136	True	89.0	Orange-Blue	n/a	twobytwo	89.0	1.456	orange	9.0	task_switch	color	switch	stim	poldrack-single-stim	s587	0	False
360.15	1.0	361.806	0.9	2.272	True	71.0	Orange-Blue	stay	twobytwo	71.0	0.756	blue	4.0	cue_stay	color	stay	stim	poldrack-single-stim	s587	0	False
363.329	1.0	364.902	0.9	2.0	True	89.0	Orange-Blue	stay	twobytwo	89.0	0.673	orange	8.0	cue_stay	color	stay	stim	poldrack-single-stim	s587	0	False
365.439	1.0	366.633	0.1	2.136	True	89.0	High-Low	n/a	twobytwo	89.0	1.094	orange	6.0	task_switch	magnitude	switch	stim	poldrack-single-stim	s587	0	False
368.482	1.0	369.985	0.9	2.272	True	71.0	Color	n/a	twobytwo	71.0	0.603	blue	1.0	task_switch	color	switch	stim	poldrack-single-stim	s587	0	False
370.864	1.0	371.752	0.1	2.0	True	71.0	Color	stay	twobytwo	71.0	0.788	blue	6.0	cue_stay	color	stay	stim	poldrack-single-stim	s587	0	False
372.976	1.0	373.831	0.1	2.68	True	89.0	High-Low	n/a	twobytwo	89.0	0.755	blue	9.0	task_switch	magnitude	switch	stim	poldrack-single-stim	s587	0	False
376.568	1.0	378.173	0.9	2.0	True	89.0	Magnitude	switch	twobytwo	89.0	0.705	orange	9.0	cue_switch	magnitude	stay	stim	poldrack-single-stim	s587	0	False
379.474	1.0	380.918	0.9	2.0	True	71.0	Orange-Blue	n/a	twobytwo	71.0	0.544	blue	8.0	task_switch	color	switch	stim	poldrack-single-stim	s587	0	False
381.58	1.0	382.786	0.1	2.0	True	71.0	Orange-Blue	stay	twobytwo	71.0	1.106	blue	4.0	cue_stay	color	stay	stim	poldrack-single-stim	s587	0	False
383.688	1.0	384.778	0.1	2.272	True	71.0	Color	switch	twobytwo	71.0	0.99	blue	3.0	cue_switch	color	stay	stim	poldrack-single-stim	s587	0	False
386.072	1.0	386.778	0.1	2.0	True	71.0	Color	stay	twobytwo	71.0	0.606	blue	1.0	cue_stay	color	stay	stim	poldrack-single-stim	s587	0	False
388.976	1.0	390.474	0.9	2.0	True	71.0	Magnitude	n/a	twobytwo	71.0	0.598	orange	4.0	task_switch	magnitude	switch	stim	poldrack-single-stim	s587	0	False
391.886	1.0	393.4	0.9	2.0	False	71.0	Color	n/a	twobytwo	89.0	0.614	blue	8.0	task_switch	color	switch	stim	poldrack-single-stim	s587	0	False
394.795	1.0	396.486	0.9	2.68	True	71.0	Orange-Blue	switch	twobytwo	71.0	0.791	blue	2.0	cue_switch	color	stay	stim	poldrack-single-stim	s587	0	False
397.587	1.0	398.568	0.1	2.0	True	89.0	Magnitude	n/a	twobytwo	89.0	0.881	orange	9.0	task_switch	magnitude	switch	stim	poldrack-single-stim	s587	0	False
400.49	1.0	402.15	0.9	2.136	True	89.0	Color	n/a	twobytwo	89.0	0.76	orange	4.0	task_switch	color	switch	stim	poldrack-single-stim	s587	0	False
403.53	1.0	404.983	0.9	2.408	True	71.0	Color	stay	twobytwo	71.0	0.553	blue	7.0	cue_stay	color	stay	stim	poldrack-single-stim	s587	0	False
406.049	1.0	408.043	0.1	2.136	True	71.0	High-Low	n/a	twobytwo	71.0	1.894	orange	3.0	task_switch	magnitude	switch	stim	poldrack-single-stim	s587	0	False
409.097	1.0	410.494	0.9	2.0	True	89.0	High-Low	stay	twobytwo	89.0	0.497	orange	9.0	cue_stay	magnitude	stay	stim	poldrack-single-stim	s587	0	False
412.007	1.0	413.443	0.9	2.0	True	89.0	Magnitude	switch	twobytwo	89.0	0.536	orange	9.0	cue_switch	magnitude	stay	stim	poldrack-single-stim	s587	0	False
414.121	1.0	414.934	0.1	2.544	True	71.0	Magnitude	stay	twobytwo	71.0	0.713	orange	3.0	cue_stay	magnitude	stay	stim	poldrack-single-stim	s587	0	False
417.574	1.0	419.145	0.9	2.136	True	89.0	Magnitude	stay	twobytwo	89.0	0.671	blue	8.0	cue_stay	magnitude	stay	stim	poldrack-single-stim	s587	0	False
420.622	1.0	422.104	0.9	2.544	True	71.0	Color	n/a	twobytwo	71.0	0.582	blue	2.0	task_switch	color	switch	stim	poldrack-single-stim	s587	0	False
424.071	1.0	425.573	0.9	2.68	True	71.0	High-Low	n/a	twobytwo	71.0	0.602	blue	4.0	task_switch	magnitude	switch	stim	poldrack-single-stim	s587	0	False
426.862	1.0	427.859	0.1	2.0	True	71.0	High-Low	stay	twobytwo	71.0	0.897	orange	4.0	cue_stay	magnitude	stay	stim	poldrack-single-stim	s587	0	False
428.975	1.0	429.833	0.1	2.272	True	71.0	Magnitude	switch	twobytwo	71.0	0.758	orange	2.0	cue_switch	magnitude	stay	stim	poldrack-single-stim	s587	0	False
432.159	1.0	433.697	0.9	3.088	True	89.0	Magnitude	stay	twobytwo	89.0	0.638	blue	9.0	cue_stay	magnitude	stay	stim	poldrack-single-stim	s587	0	False
436.154	1.0	437.789	0.9	2.0	True	71.0	Orange-Blue	n/a	twobytwo	71.0	0.735	blue	1.0	task_switch	color	switch	stim	poldrack-single-stim	s587	0	False
438.264	1.0	439.326	0.1	2.136	True	89.0	Color	switch	twobytwo	89.0	0.962	orange	4.0	cue_switch	color	stay	stim	poldrack-single-stim	s587	0	False
440.509	1.0	441.848	0.1	2.136	True	89.0	Orange-Blue	switch	twobytwo	89.0	1.239	orange	6.0	cue_switch	color	stay	stim	poldrack-single-stim	s587	0	False
442.753	1.0	443.781	0.1	2.0	True	71.0	High-Low	n/a	twobytwo	71.0	0.928	orange	4.0	task_switch	magnitude	switch	stim	poldrack-single-stim	s587	0	False
444.864	1.0	445.731	0.1	2.272	False	71.0	Orange-Blue	n/a	twobytwo	89.0	0.767	blue	8.0	task_switch	color	switch	stim	poldrack-single-stim	s587	0	False
448.047	1.0	450.341	0.9	2.0	True	89.0	Magnitude	n/a	twobytwo	89.0	1.394	orange	7.0	task_switch	magnitude	switch	stim	poldrack-single-stim	s587	0	False
464.472	1.0	465.926	0.9	2.136	True	71.0	Magnitude	stay	twobytwo	71.0	0.554	blue	3.0	cue_stay	magnitude	stay	stim	poldrack-single-stim	s587	1	False
466.718	1.0	467.686	0.1	2.136	True	71.0	Orange-Blue	n/a	twobytwo	71.0	0.868	blue	3.0	task_switch	color	switch	stim	poldrack-single-stim	s587	0	False
469.766	1.0	471.338	0.9	2.544	True	89.0	High-Low	n/a	twobytwo	89.0	0.672	orange	8.0	task_switch	magnitude	switch	stim	poldrack-single-stim	s587	0	False
473.222	1.0	474.671	0.9	2.0	True	89.0	Color	n/a	twobytwo	89.0	0.549	orange	3.0	task_switch	color	switch	stim	poldrack-single-stim	s587	0	False
476.131	1.0	477.62	0.9	2.136	True	89.0	Magnitude	n/a	twobytwo	89.0	0.589	blue	7.0	task_switch	magnitude	switch	stim	poldrack-single-stim	s587	0	False
479.177	1.0	480.706	0.9	2.136	True	89.0	Magnitude	stay	twobytwo	89.0	0.629	orange	8.0	cue_stay	magnitude	stay	stim	poldrack-single-stim	s587	0	False
481.423	1.0	482.289	0.1	2.136	True	71.0	High-Low	switch	twobytwo	71.0	0.766	orange	1.0	cue_switch	magnitude	stay	stim	poldrack-single-stim	s587	0	False
484.47	1.0	486.043	0.9	2.0	True	71.0	Magnitude	switch	twobytwo	71.0	0.673	orange	1.0	cue_switch	magnitude	stay	stim	poldrack-single-stim	s587	0	False
486.583	1.0	488.102	0.1	2.136	True	89.0	Orange-Blue	n/a	twobytwo	89.0	1.419	orange	3.0	task_switch	color	switch	stim	poldrack-single-stim	s587	0	False
489.627	1.0	491.371	0.9	2.0	True	71.0	Magnitude	n/a	twobytwo	71.0	0.844	orange	3.0	task_switch	magnitude	switch	stim	poldrack-single-stim	s587	0	False
492.537	1.0	494.346	0.9	2.136	True	89.0	Color	n/a	twobytwo	89.0	0.909	orange	2.0	task_switch	color	switch	stim	poldrack-single-stim	s587	0	False
494.785	1.0	495.817	0.1	2.816	True	89.0	Orange-Blue	switch	twobytwo	89.0	0.932	orange	4.0	cue_switch	color	stay	stim	poldrack-single-stim	s587	0	False
497.711	1.0	498.651	0.1	2.136	True	71.0	Magnitude	n/a	twobytwo	71.0	0.84	blue	1.0	task_switch	magnitude	switch	stim	poldrack-single-stim	s587	0	False
500.759	1.0	502.946	0.9	2.0	True	71.0	Color	n/a	twobytwo	71.0	1.287	blue	8.0	task_switch	color	switch	stim	poldrack-single-stim	s587	0	False
502.871	1.0	503.982	0.1	2.0	True	89.0	Orange-Blue	switch	twobytwo	89.0	1.011	orange	8.0	cue_switch	color	stay	stim	poldrack-single-stim	s587	0	False
505.783	1.0	507.343	0.9	2.272	True	89.0	Magnitude	n/a	twobytwo	89.0	0.66	blue	8.0	task_switch	magnitude	switch	stim	poldrack-single-stim	s587	0	False
508.167	1.0	509.698	0.1	2.0	True	89.0	High-Low	switch	twobytwo	89.0	1.431	orange	7.0	cue_switch	magnitude	stay	stim	poldrack-single-stim	s587	0	False
511.079	1.0	512.858	0.9	2.0	True	89.0	Color	n/a	twobytwo	89.0	0.879	orange	3.0	task_switch	color	switch	stim	poldrack-single-stim	s587	0	False
513.191	1.0	514.644	0.1	2.0	True	71.0	High-Low	n/a	twobytwo	71.0	1.353	orange	1.0	task_switch	magnitude	switch	stim	poldrack-single-stim	s587	0	False
515.301	1.0	516.247	0.1	2.408	True	71.0	High-Low	stay	twobytwo	71.0	0.846	orange	4.0	cue_stay	magnitude	stay	stim	poldrack-single-stim	s587	0	False
518.618	1.0	520.04	0.9	2.272	True	89.0	Color	n/a	twobytwo	89.0	0.522	orange	9.0	task_switch	color	switch	stim	poldrack-single-stim	s587	0	False
521.797	1.0	523.368	0.9	2.136	True	71.0	High-Low	n/a	twobytwo	71.0	0.671	orange	4.0	task_switch	magnitude	switch	stim	poldrack-single-stim	s587	0	False
524.044	1.0	525.223	0.1	2.0	True	89.0	High-Low	stay	twobytwo	89.0	1.079	blue	8.0	cue_stay	magnitude	stay	stim	poldrack-single-stim	s587	0	False
526.157	1.0	527.026	0.1	2.0	True	89.0	Color	n/a	twobytwo	89.0	0.769	orange	1.0	task_switch	color	switch	stim	poldrack-single-stim	s587	0	False
529.067	1.0	530.673	0.9	2.136	True	89.0	Orange-Blue	switch	twobytwo	89.0	0.706	orange	8.0	cue_switch	color	stay	stim	poldrack-single-stim	s587	0	False
532.114	1.0	533.655	0.9	2.0	True	89.0	Orange-Blue	stay	twobytwo	89.0	0.641	orange	7.0	cue_stay	color	stay	stim	poldrack-single-stim	s587	0	False
534.224	1.0	535.484	0.1	2.136	True	71.0	Magnitude	n/a	twobytwo	71.0	1.16	orange	2.0	task_switch	magnitude	switch	stim	poldrack-single-stim	s587	0	False
536.469	1.0	537.358	0.1	2.408	True	71.0	Magnitude	stay	twobytwo	71.0	0.789	orange	1.0	cue_stay	magnitude	stay	stim	poldrack-single-stim	s587	0	False
539.786	1.0	541.209	0.9	2.136	True	71.0	Color	n/a	twobytwo	71.0	0.523	blue	1.0	task_switch	color	switch	stim	poldrack-single-stim	s587	0	False
542.035	1.0	543.25	0.1	2.0	True	89.0	Orange-Blue	switch	twobytwo	89.0	1.115	orange	9.0	cue_switch	color	stay	stim	poldrack-single-stim	s587	0	False
544.944	1.0	546.388	0.9	2.136	True	71.0	Color	switch	twobytwo	71.0	0.544	blue	9.0	cue_switch	color	stay	stim	poldrack-single-stim	s587	0	False
547.191	1.0	548.222	0.1	2.272	True	71.0	Magnitude	n/a	twobytwo	71.0	0.931	orange	3.0	task_switch	magnitude	switch	stim	poldrack-single-stim	s587	0	False
550.376	1.0	552.267	0.9	2.0	True	71.0	Color	n/a	twobytwo	71.0	0.991	blue	1.0	task_switch	color	switch	stim	poldrack-single-stim	s587	0	False
552.486	1.0	553.561	0.1	2.408	True	89.0	Color	stay	twobytwo	89.0	0.975	orange	6.0	cue_stay	color	stay	stim	poldrack-single-stim	s587	0	False
555.003	1.0	555.925	0.1	2.0	True	71.0	Color	stay	twobytwo	71.0	0.822	blue	1.0	cue_stay	color	stay	stim	poldrack-single-stim	s587	0	False
557.91	1.0	559.433	0.9	2.136	True	89.0	Magnitude	n/a	twobytwo	89.0	0.623	blue	9.0	task_switch	magnitude	switch	stim	poldrack-single-stim	s587	0	False
560.957	1.0	562.652	0.9	2.408	True	89.0	Color	n/a	twobytwo	89.0	0.795	orange	1.0	task_switch	color	switch	stim	poldrack-single-stim	s587	0	False
564.273	1.0	566.186	0.9	2.136	True	89.0	Magnitude	n/a	twobytwo	89.0	1.013	blue	9.0	task_switch	magnitude	switch	stim	poldrack-single-stim	s587	0	False
566.519	1.0	567.537	0.1	2.408	True	71.0	Color	n/a	twobytwo	71.0	0.918	blue	2.0	task_switch	color	switch	stim	poldrack-single-stim	s587	0	False
569.036	1.0	570.174	0.1	2.136	True	89.0	Orange-Blue	switch	twobytwo	89.0	1.038	orange	3.0	cue_switch	color	stay	stim	poldrack-single-stim	s587	0	False
572.079	1.0	573.758	0.9	2.0	True	71.0	High-Low	n/a	twobytwo	71.0	0.779	orange	3.0	task_switch	magnitude	switch	stim	poldrack-single-stim	s587	0	False
574.19	1.0	575.133	0.1	2.272	True	89.0	High-Low	stay	twobytwo	89.0	0.843	blue	6.0	cue_stay	magnitude	stay	stim	poldrack-single-stim	s587	0	False
576.57	1.0	577.389	0.1	2.0	True	71.0	High-Low	stay	twobytwo	71.0	0.719	orange	1.0	cue_stay	magnitude	stay	stim	poldrack-single-stim	s587	0	False
579.48	1.0	579.479	0.9	2.272	False	89.0	High-Low	stay	twobytwo	-1.0	n/a	blue	8.0	cue_stay	magnitude	stay	stim	poldrack-single-stim	s587	0	False
581.861	1.0	582.741	0.1	2.272	True	71.0	Magnitude	switch	twobytwo	71.0	0.78	blue	2.0	cue_switch	magnitude	stay	stim	poldrack-single-stim	s587	0	False
584.242	1.0	585.377	0.1	2.952	True	71.0	Orange-Blue	n/a	twobytwo	71.0	1.035	blue	9.0	task_switch	color	switch	stim	poldrack-single-stim	s587	0	False
587.303	1.0	588.508	0.1	2.68	True	89.0	High-Low	n/a	twobytwo	89.0	1.105	orange	9.0	task_switch	magnitude	switch	stim	poldrack-single-stim	s587	0	False
590.893	1.0	592.414	0.9	2.136	True	71.0	High-Low	stay	twobytwo	71.0	0.621	blue	4.0	cue_stay	magnitude	stay	stim	poldrack-single-stim	s587	0	False
593.942	1.0	595.577	0.9	2.272	True	89.0	High-Low	stay	twobytwo	89.0	0.735	orange	8.0	cue_stay	magnitude	stay	stim	poldrack-single-stim	s587	0	False
596.325	1.0	597.687	0.1	2.272	True	89.0	Orange-Blue	n/a	twobytwo	89.0	1.262	orange	6.0	task_switch	color	switch	stim	poldrack-single-stim	s587	0	False
599.506	1.0	601.314	0.9	2.136	True	71.0	Magnitude	n/a	twobytwo	71.0	0.908	blue	1.0	task_switch	magnitude	switch	stim	poldrack-single-stim	s587	0	False
601.752	1.0	602.74	0.1	2.408	True	89.0	Magnitude	stay	twobytwo	89.0	0.888	blue	6.0	cue_stay	magnitude	stay	stim	poldrack-single-stim	s587	0	False
604.269	1.0	605.263	0.1	2.136	True	71.0	Color	n/a	twobytwo	71.0	0.894	blue	9.0	task_switch	color	switch	stim	poldrack-single-stim	s587	0	False
607.314	1.0	608.961	0.9	2.136	True	89.0	Orange-Blue	switch	twobytwo	89.0	0.747	orange	9.0	cue_switch	color	stay	stim	poldrack-single-stim	s587	0	False
610.36	1.0	612.244	0.9	2.0	False	89.0	High-Low	n/a	twobytwo	71.0	0.984	blue	8.0	task_switch	magnitude	switch	stim	poldrack-single-stim	s587	0	False
612.47	1.0	613.558	0.1	2.0	True	71.0	High-Low	stay	twobytwo	71.0	0.988	blue	4.0	cue_stay	magnitude	stay	stim	poldrack-single-stim	s587	0	False
614.581	1.0	615.462	0.1	2.0	True	71.0	Magnitude	switch	twobytwo	71.0	0.781	blue	3.0	cue_switch	magnitude	stay	stim	poldrack-single-stim	s587	0	False
616.693	1.0	617.504	0.1	2.0	True	71.0	Magnitude	stay	twobytwo	71.0	0.711	blue	1.0	cue_stay	magnitude	stay	stim	poldrack-single-stim	s587	0	False
619.606	1.0	621.148	0.9	2.0	True	89.0	Orange-Blue	n/a	twobytwo	89.0	0.642	orange	4.0	task_switch	color	switch	stim	poldrack-single-stim	s587	0	False
622.516	1.0	624.457	0.9	2.272	True	89.0	High-Low	n/a	twobytwo	89.0	1.041	blue	8.0	task_switch	magnitude	switch	stim	poldrack-single-stim	s587	0	False
625.699	1.0	627.359	0.9	2.408	True	71.0	Magnitude	switch	twobytwo	71.0	0.76	blue	2.0	cue_switch	magnitude	stay	stim	poldrack-single-stim	s587	0	False
628.214	1.0	629.528	0.1	2.0	True	89.0	Orange-Blue	n/a	twobytwo	89.0	1.214	orange	9.0	task_switch	color	switch	stim	poldrack-single-stim	s587	0	False
631.123	1.0	632.668	0.9	2.136	True	71.0	Magnitude	n/a	twobytwo	71.0	0.645	orange	4.0	task_switch	magnitude	switch	stim	poldrack-single-stim	s587	0	False
634.171	1.0	635.778	0.9	2.0	True	89.0	Magnitude	stay	twobytwo	89.0	0.707	blue	7.0	cue_stay	magnitude	stay	stim	poldrack-single-stim	s587	0	False
636.284	1.0	637.667	0.1	2.136	True	89.0	Orange-Blue	n/a	twobytwo	89.0	1.283	orange	3.0	task_switch	color	switch	stim	poldrack-single-stim	s587	0	False
639.334	1.0	640.922	0.9	2.544	True	89.0	Orange-Blue	stay	twobytwo	89.0	0.688	orange	9.0	cue_stay	color	stay	stim	poldrack-single-stim	s587	0	False
642.787	1.0	644.392	0.9	2.68	True	89.0	Color	switch	twobytwo	89.0	0.705	orange	9.0	cue_switch	color	stay	stim	poldrack-single-stim	s587	0	False
645.579	1.0	646.51	0.1	3.088	True	89.0	Color	stay	twobytwo	89.0	0.831	orange	3.0	cue_stay	color	stay	stim	poldrack-single-stim	s587	0	False
649.577	1.0	651.33	0.9	2.136	True	71.0	Color	stay	twobytwo	71.0	0.853	blue	8.0	cue_stay	color	stay	stim	poldrack-single-stim	s587	0	False
652.625	1.0	654.485	0.9	2.544	True	71.0	Magnitude	n/a	twobytwo	71.0	0.96	blue	2.0	task_switch	magnitude	switch	stim	poldrack-single-stim	s587	0	False
656.081	1.0	657.745	0.9	2.0	True	71.0	Orange-Blue	n/a	twobytwo	71.0	0.764	blue	4.0	task_switch	color	switch	stim	poldrack-single-stim	s587	0	False
658.191	1.0	659.365	0.1	2.136	True	89.0	Orange-Blue	stay	twobytwo	89.0	1.074	orange	4.0	cue_stay	color	stay	stim	poldrack-single-stim	s587	0	False
660.438	1.0	661.476	0.1	2.0	True	89.0	Color	switch	twobytwo	89.0	0.938	orange	2.0	cue_switch	color	stay	stim	poldrack-single-stim	s587	0	False
663.344	1.0	664.754	0.9	2.408	True	71.0	Color	stay	twobytwo	71.0	0.51	blue	9.0	cue_stay	color	stay	stim	poldrack-single-stim	s587	0	False
666.663	1.0	668.401	0.9	2.0	True	71.0	Magnitude	n/a	twobytwo	71.0	0.838	blue	1.0	task_switch	magnitude	switch	stim	poldrack-single-stim	s587	0	False
668.781	1.0	670.063	0.1	2.0	True	71.0	High-Low	switch	twobytwo	71.0	1.182	orange	4.0	cue_switch	magnitude	stay	stim	poldrack-single-stim	s587	0	False
670.888	1.0	671.725	0.1	2.0	True	89.0	Magnitude	switch	twobytwo	89.0	0.737	orange	6.0	cue_switch	magnitude	stay	stim	poldrack-single-stim	s587	0	False
673.0	1.0	673.834	0.1	2.68	True	89.0	Color	n/a	twobytwo	89.0	0.734	orange	4.0	task_switch	color	switch	stim	poldrack-single-stim	s587	0	False
675.789	1.0	677.051	0.1	2.272	True	89.0	Magnitude	n/a	twobytwo	89.0	1.162	blue	8.0	task_switch	magnitude	switch	stim	poldrack-single-stim	s587	0	False
678.97	1.0	681.319	0.9	2.408	True	89.0	Color	n/a	twobytwo	89.0	1.449	orange	7.0	task_switch	color	switch	stim	poldrack-single-stim	s587	0	False
