onset	duration	block_duration	condition	correct	correct_response	experiment_exp_id	key_press	response_time	stim_color	stim_word	trial_id	trial_type	worker_id	junk
3.516	1.5	2.0	incongruent	1.0	82.0	stroop	82	0.73	green	blue	stim	incongruent	s587	False
5.521	1.5	2.0	congruent	1.0	89.0	stroop	89	0.838	red	red	stim	congruent	s587	False
7.527	1.5	2.272	incongruent	1.0	71.0	stroop	71	0.57	blue	green	stim	incongruent	s587	False
9.8	1.5	2.0	incongruent	1.0	89.0	stroop	89	0.648	red	green	stim	incongruent	s587	False
11.801	1.5	2.136	congruent	1.0	71.0	stroop	71	0.601	blue	blue	stim	congruent	s587	False
13.943	1.5	2.0	congruent	1.0	82.0	stroop	82	0.613	green	green	stim	congruent	s587	False
15.945	1.5	2.136	congruent	1.0	71.0	stroop	71	0.561	blue	blue	stim	congruent	s587	False
18.085	1.5	2.0	congruent	1.0	82.0	stroop	82	0.711	green	green	stim	congruent	s587	False
20.087	1.5	2.0	congruent	1.0	89.0	stroop	89	0.535	red	red	stim	congruent	s587	False
22.092	1.5	2.0	incongruent	1.0	71.0	stroop	71	0.5	blue	green	stim	incongruent	s587	False
24.098	1.5	2.272	incongruent	1.0	71.0	stroop	71	0.588	blue	red	stim	incongruent	s587	False
26.375	1.5	2.0	incongruent	1.0	82.0	stroop	82	0.707	green	red	stim	incongruent	s587	False
28.378	1.5	2.136	incongruent	1.0	89.0	stroop	89	0.72	red	green	stim	incongruent	s587	False
30.516	1.5	2.408	congruent	1.0	82.0	stroop	82	0.664	green	green	stim	congruent	s587	False
32.927	1.5	2.272	incongruent	1.0	89.0	stroop	89	0.601	red	green	stim	incongruent	s587	False
35.205	1.5	2.68	congruent	1.0	89.0	stroop	89	0.55	red	red	stim	congruent	s587	False
37.887	1.5	2.0	congruent	1.0	82.0	stroop	82	0.543	green	green	stim	congruent	s587	False
39.893	1.5	2.408	congruent	1.0	82.0	stroop	82	0.666	green	green	stim	congruent	s587	False
42.303	1.5	2.136	congruent	1.0	89.0	stroop	89	0.529	red	red	stim	congruent	s587	False
44.442	1.5	2.68	incongruent	1.0	82.0	stroop	82	0.583	green	red	stim	incongruent	s587	False
47.128	1.5	2.0	incongruent	1.0	89.0	stroop	89	0.484	red	green	stim	incongruent	s587	False
49.13	1.5	2.136	incongruent	1.0	82.0	stroop	82	0.589	green	red	stim	incongruent	s587	False
51.269	1.5	2.952	congruent	1.0	71.0	stroop	71	0.419	blue	blue	stim	congruent	s587	False
54.227	1.5	2.0	incongruent	1.0	82.0	stroop	82	0.488	green	red	stim	incongruent	s587	False
56.228	1.5	2.272	incongruent	1.0	71.0	stroop	71	0.687	blue	red	stim	incongruent	s587	False
58.504	1.5	2.0	incongruent	1.0	82.0	stroop	82	0.646	green	blue	stim	incongruent	s587	False
60.509	1.5	2.0	congruent	1.0	71.0	stroop	71	0.657	blue	blue	stim	congruent	s587	False
62.515	1.5	2.0	congruent	1.0	82.0	stroop	82	0.594	green	green	stim	congruent	s587	False
64.52	1.5	2.0	incongruent	1.0	82.0	stroop	82	0.622	green	blue	stim	incongruent	s587	False
66.523	1.5	2.136	congruent	1.0	82.0	stroop	82	0.601	green	green	stim	congruent	s587	False
68.664	1.5	2.0	congruent	1.0	89.0	stroop	89	0.541	red	red	stim	congruent	s587	False
70.67	1.5	2.0	incongruent	1.0	71.0	stroop	71	0.638	blue	green	stim	incongruent	s587	False
72.673	1.5	2.136	congruent	1.0	82.0	stroop	82	0.799	green	green	stim	congruent	s587	False
74.814	1.5	2.0	incongruent	1.0	71.0	stroop	71	0.763	blue	red	stim	incongruent	s587	False
76.819	1.5	2.0	incongruent	1.0	89.0	stroop	89	0.861	red	blue	stim	incongruent	s587	False
78.822	1.5	2.136	incongruent	1.0	82.0	stroop	82	0.743	green	red	stim	incongruent	s587	False
80.961	1.5	2.136	congruent	1.0	89.0	stroop	89	0.586	red	red	stim	congruent	s587	False
83.101	1.5	2.272	congruent	1.0	71.0	stroop	71	0.574	blue	blue	stim	congruent	s587	False
85.377	1.5	2.68	incongruent	1.0	71.0	stroop	71	0.639	blue	red	stim	incongruent	s587	False
88.062	1.5	2.0	congruent	1.0	82.0	stroop	82	0.655	green	green	stim	congruent	s587	False
90.068	1.5	2.0	congruent	1.0	71.0	stroop	71	0.594	blue	blue	stim	congruent	s587	False
92.073	1.5	2.272	incongruent	1.0	89.0	stroop	89	0.629	red	green	stim	incongruent	s587	False
94.35	1.5	2.0	incongruent	1.0	89.0	stroop	89	0.614	red	blue	stim	incongruent	s587	False
96.356	1.5	2.0	congruent	1.0	71.0	stroop	71	0.671	blue	blue	stim	congruent	s587	False
98.361	1.5	2.0	incongruent	1.0	71.0	stroop	71	0.751	blue	red	stim	incongruent	s587	False
100.367	1.5	2.0	incongruent	1.0	71.0	stroop	71	0.689	blue	green	stim	incongruent	s587	False
102.372	1.5	2.0	incongruent	1.0	89.0	stroop	89	0.675	red	blue	stim	incongruent	s587	False
104.377	1.5	2.0	incongruent	1.0	71.0	stroop	71	0.595	blue	red	stim	incongruent	s587	False
106.383	1.5	2.272	congruent	1.0	89.0	stroop	89	0.664	red	red	stim	congruent	s587	False
108.66	1.5	2.0	incongruent	1.0	71.0	stroop	71	0.649	blue	green	stim	incongruent	s587	False
110.663	1.5	2.408	congruent	1.0	71.0	stroop	71	0.545	blue	blue	stim	congruent	s587	False
113.076	1.5	2.0	congruent	1.0	89.0	stroop	89	0.541	red	red	stim	congruent	s587	False
115.079	1.5	2.136	congruent	1.0	82.0	stroop	82	0.597	green	green	stim	congruent	s587	False
117.22	1.5	2.0	congruent	1.0	71.0	stroop	71	0.565	blue	blue	stim	congruent	s587	False
119.226	1.5	2.0	congruent	1.0	71.0	stroop	71	0.552	blue	blue	stim	congruent	s587	False
121.231	1.5	2.0	incongruent	1.0	82.0	stroop	82	0.796	green	blue	stim	incongruent	s587	False
123.237	1.5	2.272	congruent	1.0	82.0	stroop	82	0.808	green	green	stim	congruent	s587	False
125.513	1.5	2.0	incongruent	1.0	71.0	stroop	71	0.481	blue	green	stim	incongruent	s587	False
127.517	1.5	2.272	incongruent	1.0	89.0	stroop	89	0.583	red	green	stim	incongruent	s587	False
129.792	1.5	2.272	incongruent	1.0	89.0	stroop	89	0.605	red	blue	stim	incongruent	s587	False
132.069	1.5	2.0	incongruent	1.0	82.0	stroop	82	0.692	green	red	stim	incongruent	s587	False
134.072	1.5	2.68	congruent	1.0	82.0	stroop	82	0.648	green	green	stim	congruent	s587	False
136.756	1.5	2.0	incongruent	1.0	71.0	stroop	71	0.662	blue	red	stim	incongruent	s587	False
138.762	1.5	2.272	congruent	1.0	71.0	stroop	71	0.691	blue	blue	stim	congruent	s587	False
141.04	1.5	2.0	congruent	1.0	89.0	stroop	89	0.71	red	red	stim	congruent	s587	False
143.045	1.5	2.0	congruent	1.0	71.0	stroop	71	0.889	blue	blue	stim	congruent	s587	False
145.051	1.5	2.272	incongruent	1.0	71.0	stroop	71	0.675	blue	green	stim	incongruent	s587	False
147.324	1.5	2.136	congruent	1.0	82.0	stroop	82	0.7	green	green	stim	congruent	s587	False
149.461	1.5	2.544	congruent	1.0	89.0	stroop	89	0.647	red	red	stim	congruent	s587	False
152.008	1.5	2.408	incongruent	1.0	71.0	stroop	71	0.705	blue	green	stim	incongruent	s587	False
154.418	1.5	2.0	incongruent	1.0	82.0	stroop	82	0.803	green	blue	stim	incongruent	s587	False
156.422	1.5	2.0	incongruent	1.0	82.0	stroop	82	0.77	green	red	stim	incongruent	s587	False
158.427	1.5	2.0	incongruent	1.0	89.0	stroop	89	0.552	red	blue	stim	incongruent	s587	False
160.432	1.5	2.544	congruent	1.0	71.0	stroop	71	0.546	blue	blue	stim	congruent	s587	False
162.979	1.5	2.136	congruent	1.0	82.0	stroop	82	0.625	green	green	stim	congruent	s587	False
165.121	1.5	2.0	congruent	1.0	89.0	stroop	89	0.637	red	red	stim	congruent	s587	False
167.126	1.5	2.0	congruent	1.0	89.0	stroop	89	0.693	red	red	stim	congruent	s587	False
169.131	1.5	2.272	congruent	1.0	71.0	stroop	71	0.687	blue	blue	stim	congruent	s587	False
171.404	1.5	2.0	incongruent	1.0	82.0	stroop	82	0.752	green	blue	stim	incongruent	s587	False
173.409	1.5	2.0	congruent	1.0	82.0	stroop	82	0.696	green	green	stim	congruent	s587	False
175.412	1.5	2.136	incongruent	1.0	89.0	stroop	89	0.701	red	blue	stim	incongruent	s587	False
177.551	1.5	2.0	incongruent	1.0	89.0	stroop	89	0.697	red	green	stim	incongruent	s587	False
179.553	1.5	2.272	incongruent	1.0	71.0	stroop	71	0.667	blue	red	stim	incongruent	s587	False
181.828	1.5	2.136	congruent	1.0	89.0	stroop	89	0.63	red	red	stim	congruent	s587	False
183.966	1.5	2.408	incongruent	1.0	89.0	stroop	89	0.612	red	green	stim	incongruent	s587	False
186.378	1.5	2.0	congruent	1.0	71.0	stroop	71	0.505	blue	blue	stim	congruent	s587	False
188.38	1.5	2.0	congruent	1.0	89.0	stroop	89	0.645	red	red	stim	congruent	s587	False
190.385	1.5	2.816	incongruent	1.0	82.0	stroop	82	0.661	green	red	stim	incongruent	s587	False
193.207	1.5	2.0	incongruent	1.0	82.0	stroop	82	0.761	green	blue	stim	incongruent	s587	False
195.211	1.5	2.0	incongruent	1.0	89.0	stroop	89	0.781	red	blue	stim	incongruent	s587	False
197.215	1.5	2.136	congruent	1.0	89.0	stroop	89	0.66	red	red	stim	congruent	s587	False
199.356	1.5	2.0	congruent	1.0	82.0	stroop	82	0.618	green	green	stim	congruent	s587	False
201.362	1.5	2.0	incongruent	1.0	89.0	stroop	89	0.908	red	blue	stim	incongruent	s587	False
203.363	1.5	2.0	congruent	1.0	89.0	stroop	89	0.714	red	red	stim	congruent	s587	False
205.367	1.5	2.0	incongruent	1.0	82.0	stroop	82	0.805	green	blue	stim	incongruent	s587	False
207.372	1.5	2.0	congruent	1.0	71.0	stroop	71	0.677	blue	blue	stim	congruent	s587	False
