onset	duration	movement_onset	block_duration	condition	correct	correct_response	experiment_exp_id	key_press	response_time	trial_id	trial_type	worker_id	junk
3.014	0.5	3.013	0.5	BY	n/a	n/a	dot_pattern_expectancy	-1.0	n/a	cue	BY	s587	False
5.525	0.5	6.081	1.636	BY	1.0	71.0	dot_pattern_expectancy	71.0	0.556	probe	BY	s587	False
7.162	0.5	7.161	0.5	AY	n/a	n/a	dot_pattern_expectancy	-1.0	n/a	cue	AY	s587	False
9.671	0.5	10.418	1.5	AY	1.0	71.0	dot_pattern_expectancy	71.0	0.747	probe	AY	s587	False
11.173	0.5	11.172	0.5	AX	n/a	n/a	dot_pattern_expectancy	-1.0	n/a	cue	AX	s587	False
13.68	0.5	14.209	2.044	AX	1.0	89.0	dot_pattern_expectancy	89.0	0.529	probe	AX	s587	False
15.73	0.5	15.729	0.5	BY	n/a	n/a	dot_pattern_expectancy	-1.0	n/a	cue	BY	s587	False
18.237	0.5	18.799	1.772	BY	1.0	71.0	dot_pattern_expectancy	71.0	0.562	probe	BY	s587	False
20.01	0.5	20.009	0.5	BX	n/a	n/a	dot_pattern_expectancy	-1.0	n/a	cue	BX	s587	False
22.517	0.5	23.086	1.636	BX	1.0	71.0	dot_pattern_expectancy	71.0	0.569	probe	BX	s587	False
24.155	0.5	24.154	0.5	AX	n/a	n/a	dot_pattern_expectancy	-1.0	n/a	cue	AX	s587	False
26.661	0.5	27.112	1.636	AX	1.0	89.0	dot_pattern_expectancy	89.0	0.451	probe	AX	s587	False
28.299	0.5	28.298	0.5	AX	n/a	n/a	dot_pattern_expectancy	-1.0	n/a	cue	AX	s587	False
30.808	0.5	31.321	1.5	AX	1.0	89.0	dot_pattern_expectancy	89.0	0.513	probe	AX	s587	False
32.31	0.5	32.309	0.5	AX	n/a	n/a	dot_pattern_expectancy	-1.0	n/a	cue	AX	s587	False
34.821	0.5	35.408	1.5	AX	1.0	89.0	dot_pattern_expectancy	89.0	0.587	probe	AX	s587	False
36.326	0.5	36.325	0.5	AY	n/a	n/a	dot_pattern_expectancy	-1.0	n/a	cue	AY	s587	False
38.833	0.5	39.394	2.044	AY	1.0	71.0	dot_pattern_expectancy	71.0	0.561	probe	AY	s587	False
40.883	0.5	40.882	0.5	AX	n/a	n/a	dot_pattern_expectancy	-1.0	n/a	cue	AX	s587	False
43.387	0.5	43.964	2.452	AX	1.0	89.0	dot_pattern_expectancy	89.0	0.577	probe	AX	s587	False
45.846	0.5	45.845	0.5	AX	n/a	n/a	dot_pattern_expectancy	-1.0	n/a	cue	AX	s587	False
48.353	0.5	48.889	1.908	AX	1.0	89.0	dot_pattern_expectancy	89.0	0.536	probe	AX	s587	False
50.262	0.5	50.261	0.5	AX	n/a	n/a	dot_pattern_expectancy	-1.0	n/a	cue	AX	s587	False
52.766	0.5	53.261	1.5	AX	1.0	89.0	dot_pattern_expectancy	89.0	0.495	probe	AX	s587	False
54.268	0.5	54.267	0.5	AX	n/a	n/a	dot_pattern_expectancy	-1.0	n/a	cue	AX	s587	False
56.774	0.5	57.419	1.908	AX	1.0	89.0	dot_pattern_expectancy	89.0	0.645	probe	AX	s587	False
58.684	0.5	58.683	0.5	BX	n/a	n/a	dot_pattern_expectancy	-1.0	n/a	cue	BX	s587	False
61.194	0.5	61.733	2.18	BX	1.0	71.0	dot_pattern_expectancy	71.0	0.539	probe	BX	s587	False
63.377	0.5	63.376	0.5	AX	n/a	n/a	dot_pattern_expectancy	-1.0	n/a	cue	AX	s587	False
65.888	0.5	66.571	1.5	AX	1.0	89.0	dot_pattern_expectancy	89.0	0.683	probe	AX	s587	False
67.393	0.5	67.392	0.5	BY	n/a	n/a	dot_pattern_expectancy	-1.0	n/a	cue	BY	s587	False
69.904	0.5	70.397	1.908	BY	1.0	71.0	dot_pattern_expectancy	71.0	0.493	probe	BY	s587	False
71.815	0.5	71.814	0.5	BX	n/a	n/a	dot_pattern_expectancy	-1.0	n/a	cue	BX	s587	False
74.324	0.5	75.112	2.316	BX	1.0	71.0	dot_pattern_expectancy	71.0	0.788	probe	BX	s587	False
76.646	0.5	76.645	0.5	AY	n/a	n/a	dot_pattern_expectancy	-1.0	n/a	cue	AY	s587	False
79.154	0.5	79.783	2.316	AY	1.0	71.0	dot_pattern_expectancy	71.0	0.629	probe	AY	s587	False
81.474	0.5	81.473	0.5	BX	n/a	n/a	dot_pattern_expectancy	-1.0	n/a	cue	BX	s587	False
83.98	0.5	84.448	1.636	BX	1.0	71.0	dot_pattern_expectancy	71.0	0.468	probe	BX	s587	False
85.618	0.5	85.617	0.5	AY	n/a	n/a	dot_pattern_expectancy	-1.0	n/a	cue	AY	s587	False
88.125	0.5	88.786	1.5	AY	1.0	71.0	dot_pattern_expectancy	71.0	0.661	probe	AY	s587	False
89.629	0.5	89.628	0.5	BY	n/a	n/a	dot_pattern_expectancy	-1.0	n/a	cue	BY	s587	False
92.135	0.5	92.834	1.908	BY	1.0	71.0	dot_pattern_expectancy	71.0	0.699	probe	BY	s587	False
94.045	0.5	94.044	0.5	AX	n/a	n/a	dot_pattern_expectancy	-1.0	n/a	cue	AX	s587	False
96.554	0.5	97.051	1.5	AX	1.0	89.0	dot_pattern_expectancy	89.0	0.497	probe	AX	s587	False
98.055	0.5	98.054	0.5	AY	n/a	n/a	dot_pattern_expectancy	-1.0	n/a	cue	AY	s587	False
100.563	0.5	101.086	2.316	AY	1.0	71.0	dot_pattern_expectancy	71.0	0.523	probe	AY	s587	False
102.881	0.5	102.88	0.5	AX	n/a	n/a	dot_pattern_expectancy	-1.0	n/a	cue	AX	s587	False
105.386	0.5	105.902	1.5	AX	1.0	89.0	dot_pattern_expectancy	89.0	0.516	probe	AX	s587	False
106.888	0.5	106.887	0.5	AY	n/a	n/a	dot_pattern_expectancy	-1.0	n/a	cue	AY	s587	False
109.394	0.5	109.961	2.724	AY	1.0	71.0	dot_pattern_expectancy	71.0	0.567	probe	AY	s587	False
112.12	0.5	112.119	0.5	AX	n/a	n/a	dot_pattern_expectancy	-1.0	n/a	cue	AX	s587	False
114.629	0.5	115.091	1.5	AX	1.0	89.0	dot_pattern_expectancy	89.0	0.462	probe	AX	s587	False
116.131	0.5	116.13	0.5	AX	n/a	n/a	dot_pattern_expectancy	-1.0	n/a	cue	AX	s587	False
118.637	0.5	119.235	1.636	AX	1.0	89.0	dot_pattern_expectancy	89.0	0.598	probe	AX	s587	False
120.279	0.5	120.278	0.5	AX	n/a	n/a	dot_pattern_expectancy	-1.0	n/a	cue	AX	s587	False
122.789	0.5	123.284	1.636	AX	1.0	89.0	dot_pattern_expectancy	89.0	0.495	probe	AX	s587	False
124.43	0.5	124.429	0.5	AX	n/a	n/a	dot_pattern_expectancy	-1.0	n/a	cue	AX	s587	False
126.939	0.5	127.475	1.772	AX	1.0	89.0	dot_pattern_expectancy	89.0	0.536	probe	AX	s587	False
128.712	0.5	128.711	0.5	BY	n/a	n/a	dot_pattern_expectancy	-1.0	n/a	cue	BY	s587	False
131.221	0.5	131.616	1.772	BY	1.0	71.0	dot_pattern_expectancy	71.0	0.395	probe	BY	s587	False
132.995	0.5	132.994	0.5	AX	n/a	n/a	dot_pattern_expectancy	-1.0	n/a	cue	AX	s587	False
135.504	0.5	136.078	1.5	AX	1.0	89.0	dot_pattern_expectancy	89.0	0.574	probe	AX	s587	False
137.006	0.5	137.005	0.5	BY	n/a	n/a	dot_pattern_expectancy	-1.0	n/a	cue	BY	s587	False
139.513	0.5	140.18	2.452	BY	1.0	71.0	dot_pattern_expectancy	71.0	0.667	probe	BY	s587	False
141.966	0.5	141.965	0.5	AX	n/a	n/a	dot_pattern_expectancy	-1.0	n/a	cue	AX	s587	False
144.477	0.5	144.987	1.636	AX	1.0	89.0	dot_pattern_expectancy	89.0	0.51	probe	AX	s587	False
146.119	0.5	146.118	0.5	AX	n/a	n/a	dot_pattern_expectancy	-1.0	n/a	cue	AX	s587	False
148.622	0.5	149.088	1.636	AX	1.0	89.0	dot_pattern_expectancy	89.0	0.466	probe	AX	s587	False
150.262	0.5	150.261	0.5	BX	n/a	n/a	dot_pattern_expectancy	-1.0	n/a	cue	BX	s587	False
152.771	0.5	153.335	1.5	BX	1.0	71.0	dot_pattern_expectancy	71.0	0.564	probe	BX	s587	False
154.276	0.5	154.275	0.5	BX	n/a	n/a	dot_pattern_expectancy	-1.0	n/a	cue	BX	s587	False
156.787	0.5	157.113	1.5	BX	1.0	71.0	dot_pattern_expectancy	71.0	0.326	probe	BX	s587	False
158.292	0.5	158.291	0.5	AX	n/a	n/a	dot_pattern_expectancy	-1.0	n/a	cue	AX	s587	False
160.801	0.5	161.275	2.316	AX	1.0	89.0	dot_pattern_expectancy	89.0	0.474	probe	AX	s587	False
163.119	0.5	163.118	0.5	AY	n/a	n/a	dot_pattern_expectancy	-1.0	n/a	cue	AY	s587	False
165.628	0.5	166.203	2.044	AY	1.0	71.0	dot_pattern_expectancy	71.0	0.575	probe	AY	s587	False
167.674	0.5	167.673	0.5	AX	n/a	n/a	dot_pattern_expectancy	-1.0	n/a	cue	AX	s587	False
170.183	0.5	170.627	3.948	AX	1.0	89.0	dot_pattern_expectancy	89.0	0.444	probe	AX	s587	False
174.133	0.5	174.132	0.5	AX	n/a	n/a	dot_pattern_expectancy	-1.0	n/a	cue	AX	s587	False
176.639	0.5	177.169	1.636	AX	1.0	89.0	dot_pattern_expectancy	89.0	0.53	probe	AX	s587	False
188.791	0.5	188.79	0.5	AY	n/a	n/a	dot_pattern_expectancy	-1.0	n/a	cue	AY	s587	False
191.295	0.5	191.761	1.636	AY	1.0	71.0	dot_pattern_expectancy	71.0	0.466	probe	AY	s587	False
192.933	0.5	192.932	0.5	AX	n/a	n/a	dot_pattern_expectancy	-1.0	n/a	cue	AX	s587	False
195.44	0.5	195.991	1.636	AX	1.0	89.0	dot_pattern_expectancy	89.0	0.551	probe	AX	s587	False
197.078	0.5	197.077	0.5	AX	n/a	n/a	dot_pattern_expectancy	-1.0	n/a	cue	AX	s587	False
199.586	0.5	200.014	1.5	AX	1.0	89.0	dot_pattern_expectancy	89.0	0.428	probe	AX	s587	False
201.088	0.5	201.087	0.5	AX	n/a	n/a	dot_pattern_expectancy	-1.0	n/a	cue	AX	s587	False
203.597	0.5	204.116	1.5	AX	1.0	89.0	dot_pattern_expectancy	89.0	0.519	probe	AX	s587	False
205.099	0.5	205.098	0.5	AX	n/a	n/a	dot_pattern_expectancy	-1.0	n/a	cue	AX	s587	False
207.605	0.5	208.126	1.908	AX	1.0	89.0	dot_pattern_expectancy	89.0	0.521	probe	AX	s587	False
209.515	0.5	209.514	0.5	BX	n/a	n/a	dot_pattern_expectancy	-1.0	n/a	cue	BX	s587	False
212.027	0.5	212.323	1.636	BX	1.0	71.0	dot_pattern_expectancy	71.0	0.296	probe	BX	s587	False
213.667	0.5	213.666	0.5	AX	n/a	n/a	dot_pattern_expectancy	-1.0	n/a	cue	AX	s587	False
216.174	0.5	216.656	2.044	AX	1.0	89.0	dot_pattern_expectancy	89.0	0.482	probe	AX	s587	False
218.219	0.5	218.218	0.5	AX	n/a	n/a	dot_pattern_expectancy	-1.0	n/a	cue	AX	s587	False
220.728	0.5	221.201	1.772	AX	1.0	89.0	dot_pattern_expectancy	89.0	0.473	probe	AX	s587	False
222.502	0.5	222.501	0.5	AX	n/a	n/a	dot_pattern_expectancy	-1.0	n/a	cue	AX	s587	False
225.006	0.5	225.447	1.5	AX	1.0	89.0	dot_pattern_expectancy	89.0	0.441	probe	AX	s587	False
226.51	0.5	226.509	0.5	AX	n/a	n/a	dot_pattern_expectancy	-1.0	n/a	cue	AX	s587	False
229.014	0.5	229.509	2.18	AX	1.0	89.0	dot_pattern_expectancy	89.0	0.495	probe	AX	s587	False
231.195	0.5	231.194	0.5	AX	n/a	n/a	dot_pattern_expectancy	-1.0	n/a	cue	AX	s587	False
233.703	0.5	234.204	1.5	AX	1.0	89.0	dot_pattern_expectancy	89.0	0.501	probe	AX	s587	False
235.208	0.5	235.207	0.5	BX	n/a	n/a	dot_pattern_expectancy	-1.0	n/a	cue	BX	s587	False
237.716	0.5	238.121	3.676	BX	1.0	71.0	dot_pattern_expectancy	71.0	0.405	probe	BX	s587	False
241.393	0.5	241.392	0.5	BY	n/a	n/a	dot_pattern_expectancy	-1.0	n/a	cue	BY	s587	False
243.9	0.5	244.327	1.636	BY	1.0	71.0	dot_pattern_expectancy	71.0	0.427	probe	BY	s587	False
245.537	0.5	245.536	0.5	BY	n/a	n/a	dot_pattern_expectancy	-1.0	n/a	cue	BY	s587	False
248.044	0.5	248.628	1.636	BY	1.0	71.0	dot_pattern_expectancy	71.0	0.584	probe	BY	s587	False
249.681	0.5	249.68	0.5	BX	n/a	n/a	dot_pattern_expectancy	-1.0	n/a	cue	BX	s587	False
252.191	0.5	252.677	1.5	BX	1.0	71.0	dot_pattern_expectancy	71.0	0.486	probe	BX	s587	False
253.692	0.5	253.691	0.5	AX	n/a	n/a	dot_pattern_expectancy	-1.0	n/a	cue	AX	s587	False
256.199	0.5	256.77	1.908	AX	1.0	89.0	dot_pattern_expectancy	89.0	0.571	probe	AX	s587	False
258.108	0.5	258.107	0.5	AX	n/a	n/a	dot_pattern_expectancy	-1.0	n/a	cue	AX	s587	False
260.615	0.5	261.069	1.636	AX	1.0	89.0	dot_pattern_expectancy	89.0	0.454	probe	AX	s587	False
262.252	0.5	262.251	0.5	BX	n/a	n/a	dot_pattern_expectancy	-1.0	n/a	cue	BX	s587	False
264.764	0.5	265.077	1.5	BX	1.0	71.0	dot_pattern_expectancy	71.0	0.313	probe	BX	s587	False
266.269	0.5	266.268	0.5	AX	n/a	n/a	dot_pattern_expectancy	-1.0	n/a	cue	AX	s587	False
268.78	0.5	269.223	1.908	AX	1.0	89.0	dot_pattern_expectancy	89.0	0.443	probe	AX	s587	False
270.69	0.5	270.689	0.5	BY	n/a	n/a	dot_pattern_expectancy	-1.0	n/a	cue	BY	s587	False
273.197	0.5	273.483	2.18	BY	1.0	71.0	dot_pattern_expectancy	71.0	0.286	probe	BY	s587	False
275.378	0.5	275.377	0.5	AX	n/a	n/a	dot_pattern_expectancy	-1.0	n/a	cue	AX	s587	False
277.887	0.5	278.321	1.772	AX	1.0	89.0	dot_pattern_expectancy	89.0	0.434	probe	AX	s587	False
279.661	0.5	279.66	0.5	AX	n/a	n/a	dot_pattern_expectancy	-1.0	n/a	cue	AX	s587	False
282.17	0.5	282.596	1.5	AX	1.0	89.0	dot_pattern_expectancy	89.0	0.426	probe	AX	s587	False
283.672	0.5	283.671	0.5	AX	n/a	n/a	dot_pattern_expectancy	-1.0	n/a	cue	AX	s587	False
286.181	0.5	286.682	1.5	AX	1.0	89.0	dot_pattern_expectancy	89.0	0.501	probe	AX	s587	False
287.682	0.5	287.681	0.5	AX	n/a	n/a	dot_pattern_expectancy	-1.0	n/a	cue	AX	s587	False
290.19	0.5	290.686	2.044	AX	1.0	89.0	dot_pattern_expectancy	89.0	0.496	probe	AX	s587	False
292.237	0.5	292.236	0.5	AX	n/a	n/a	dot_pattern_expectancy	-1.0	n/a	cue	AX	s587	False
294.747	0.5	295.214	2.86	AX	1.0	89.0	dot_pattern_expectancy	89.0	0.467	probe	AX	s587	False
297.609	0.5	297.608	0.5	BX	n/a	n/a	dot_pattern_expectancy	-1.0	n/a	cue	BX	s587	False
300.117	0.5	300.501	1.5	BX	1.0	71.0	dot_pattern_expectancy	71.0	0.384	probe	BX	s587	False
301.619	0.5	301.618	0.5	BY	n/a	n/a	dot_pattern_expectancy	-1.0	n/a	cue	BY	s587	False
304.128	0.5	304.532	1.772	BY	1.0	71.0	dot_pattern_expectancy	71.0	0.404	probe	BY	s587	False
305.902	0.5	305.901	0.5	AX	n/a	n/a	dot_pattern_expectancy	-1.0	n/a	cue	AX	s587	False
308.411	0.5	308.902	1.772	AX	1.0	89.0	dot_pattern_expectancy	89.0	0.491	probe	AX	s587	False
310.184	0.5	310.183	0.5	AX	n/a	n/a	dot_pattern_expectancy	-1.0	n/a	cue	AX	s587	False
312.694	0.5	313.364	2.86	AX	1.0	89.0	dot_pattern_expectancy	89.0	0.67	probe	AX	s587	False
315.555	0.5	315.554	0.5	AX	n/a	n/a	dot_pattern_expectancy	-1.0	n/a	cue	AX	s587	False
318.065	0.5	318.546	1.772	AX	1.0	89.0	dot_pattern_expectancy	89.0	0.481	probe	AX	s587	False
319.838	0.5	319.837	0.5	BX	n/a	n/a	dot_pattern_expectancy	-1.0	n/a	cue	BX	s587	False
322.343	0.5	322.679	1.636	BX	1.0	71.0	dot_pattern_expectancy	71.0	0.336	probe	BX	s587	False
323.982	0.5	323.981	0.5	BX	n/a	n/a	dot_pattern_expectancy	-1.0	n/a	cue	BX	s587	False
326.489	0.5	327.145	2.452	BX	1.0	71.0	dot_pattern_expectancy	71.0	0.656	probe	BX	s587	False
328.946	0.5	328.945	0.5	AX	n/a	n/a	dot_pattern_expectancy	-1.0	n/a	cue	AX	s587	False
331.454	0.5	332.001	1.636	AX	1.0	89.0	dot_pattern_expectancy	89.0	0.547	probe	AX	s587	False
333.096	0.5	333.095	0.5	BX	n/a	n/a	dot_pattern_expectancy	-1.0	n/a	cue	BX	s587	False
335.601	0.5	335.976	1.5	BX	1.0	71.0	dot_pattern_expectancy	71.0	0.375	probe	BX	s587	False
337.103	0.5	337.102	0.5	AX	n/a	n/a	dot_pattern_expectancy	-1.0	n/a	cue	AX	s587	False
339.609	0.5	340.148	1.636	AX	1.0	89.0	dot_pattern_expectancy	89.0	0.539	probe	AX	s587	False
341.252	0.5	341.251	0.5	AX	n/a	n/a	dot_pattern_expectancy	-1.0	n/a	cue	AX	s587	False
343.759	0.5	344.194	1.636	AX	1.0	89.0	dot_pattern_expectancy	89.0	0.435	probe	AX	s587	False
345.396	0.5	345.395	0.5	BY	n/a	n/a	dot_pattern_expectancy	-1.0	n/a	cue	BY	s587	False
347.903	0.5	348.402	2.18	BY	1.0	71.0	dot_pattern_expectancy	71.0	0.499	probe	BY	s587	False
350.084	0.5	350.083	0.5	AX	n/a	n/a	dot_pattern_expectancy	-1.0	n/a	cue	AX	s587	False
352.594	0.5	353.198	1.5	AX	1.0	89.0	dot_pattern_expectancy	89.0	0.604	probe	AX	s587	False
354.096	0.5	354.095	0.5	AY	n/a	n/a	dot_pattern_expectancy	-1.0	n/a	cue	AY	s587	False
356.605	0.5	357.217	1.636	AY	1.0	71.0	dot_pattern_expectancy	71.0	0.612	probe	AY	s587	False
358.246	0.5	358.245	0.5	AX	n/a	n/a	dot_pattern_expectancy	-1.0	n/a	cue	AX	s587	False
360.751	0.5	361.368	1.636	AX	1.0	89.0	dot_pattern_expectancy	89.0	0.617	probe	AX	s587	False
372.907	0.5	372.906	0.5	AX	n/a	n/a	dot_pattern_expectancy	-1.0	n/a	cue	AX	s587	False
375.413	0.5	375.944	2.18	AX	1.0	89.0	dot_pattern_expectancy	89.0	0.531	probe	AX	s587	False
377.594	0.5	377.593	0.5	AY	n/a	n/a	dot_pattern_expectancy	-1.0	n/a	cue	AY	s587	False
380.099	0.5	380.642	2.316	AY	1.0	71.0	dot_pattern_expectancy	71.0	0.543	probe	AY	s587	False
382.416	0.5	382.415	0.5	AY	n/a	n/a	dot_pattern_expectancy	-1.0	n/a	cue	AY	s587	False
384.928	0.5	385.482	1.636	AY	1.0	71.0	dot_pattern_expectancy	71.0	0.554	probe	AY	s587	False
386.565	0.5	386.564	0.5	BX	n/a	n/a	dot_pattern_expectancy	-1.0	n/a	cue	BX	s587	False
389.072	0.5	389.467	1.908	BX	1.0	71.0	dot_pattern_expectancy	71.0	0.395	probe	BX	s587	False
390.982	0.5	390.981	0.5	AX	n/a	n/a	dot_pattern_expectancy	-1.0	n/a	cue	AX	s587	False
393.488	0.5	394.081	3.54	AX	1.0	89.0	dot_pattern_expectancy	89.0	0.593	probe	AX	s587	False
397.03	0.5	397.029	0.5	BX	n/a	n/a	dot_pattern_expectancy	-1.0	n/a	cue	BX	s587	False
399.536	0.5	399.926	1.636	BX	1.0	71.0	dot_pattern_expectancy	71.0	0.39	probe	BX	s587	False
401.174	0.5	401.173	0.5	BY	n/a	n/a	dot_pattern_expectancy	-1.0	n/a	cue	BY	s587	False
403.683	0.5	404.359	1.5	BY	1.0	71.0	dot_pattern_expectancy	71.0	0.676	probe	BY	s587	False
405.185	0.5	405.184	0.5	AX	n/a	n/a	dot_pattern_expectancy	-1.0	n/a	cue	AX	s587	False
407.694	0.5	408.129	1.5	AX	1.0	89.0	dot_pattern_expectancy	89.0	0.435	probe	AX	s587	False
409.195	0.5	409.194	0.5	AX	n/a	n/a	dot_pattern_expectancy	-1.0	n/a	cue	AX	s587	False
411.704	0.5	412.179	1.772	AX	1.0	89.0	dot_pattern_expectancy	89.0	0.475	probe	AX	s587	False
413.478	0.5	413.477	0.5	BY	n/a	n/a	dot_pattern_expectancy	-1.0	n/a	cue	BY	s587	False
415.985	0.5	416.252	2.452	BY	1.0	71.0	dot_pattern_expectancy	71.0	0.267	probe	BY	s587	False
418.444	0.5	418.443	0.5	AX	n/a	n/a	dot_pattern_expectancy	-1.0	n/a	cue	AX	s587	False
420.95	0.5	421.421	1.908	AX	1.0	89.0	dot_pattern_expectancy	89.0	0.471	probe	AX	s587	False
422.86	0.5	422.859	0.5	BX	n/a	n/a	dot_pattern_expectancy	-1.0	n/a	cue	BX	s587	False
425.372	0.5	425.831	1.636	BX	1.0	71.0	dot_pattern_expectancy	71.0	0.459	probe	BX	s587	False
427.009	0.5	427.008	0.5	AX	n/a	n/a	dot_pattern_expectancy	-1.0	n/a	cue	AX	s587	False
429.518	0.5	430.249	1.5	AX	1.0	89.0	dot_pattern_expectancy	89.0	0.731	probe	AX	s587	False
431.02	0.5	431.019	0.5	AX	n/a	n/a	dot_pattern_expectancy	-1.0	n/a	cue	AX	s587	False
433.527	0.5	434.052	1.636	AX	1.0	89.0	dot_pattern_expectancy	89.0	0.525	probe	AX	s587	False
435.164	0.5	435.163	0.5	AX	n/a	n/a	dot_pattern_expectancy	-1.0	n/a	cue	AX	s587	False
437.671	0.5	438.213	1.636	AX	1.0	89.0	dot_pattern_expectancy	89.0	0.542	probe	AX	s587	False
439.308	0.5	439.307	0.5	BY	n/a	n/a	dot_pattern_expectancy	-1.0	n/a	cue	BY	s587	False
441.815	0.5	442.123	2.452	BY	1.0	71.0	dot_pattern_expectancy	71.0	0.308	probe	BY	s587	False
444.268	0.5	444.267	0.5	AX	n/a	n/a	dot_pattern_expectancy	-1.0	n/a	cue	AX	s587	False
446.778	0.5	447.217	1.5	AX	1.0	89.0	dot_pattern_expectancy	89.0	0.439	probe	AX	s587	False
448.279	0.5	448.278	0.5	BY	n/a	n/a	dot_pattern_expectancy	-1.0	n/a	cue	BY	s587	False
450.791	0.5	451.057	1.5	BY	1.0	71.0	dot_pattern_expectancy	71.0	0.266	probe	BY	s587	False
452.297	0.5	452.296	0.5	AX	n/a	n/a	dot_pattern_expectancy	-1.0	n/a	cue	AX	s587	False
454.802	0.5	455.299	1.636	AX	1.0	89.0	dot_pattern_expectancy	89.0	0.497	probe	AX	s587	False
456.439	0.5	456.438	0.5	AX	n/a	n/a	dot_pattern_expectancy	-1.0	n/a	cue	AX	s587	False
458.946	0.5	459.493	1.636	AX	1.0	89.0	dot_pattern_expectancy	89.0	0.547	probe	AX	s587	False
460.586	0.5	460.585	0.5	AY	n/a	n/a	dot_pattern_expectancy	-1.0	n/a	cue	AY	s587	False
463.09	0.5	463.648	1.636	AY	1.0	71.0	dot_pattern_expectancy	71.0	0.558	probe	AY	s587	False
464.728	0.5	464.727	0.5	AX	n/a	n/a	dot_pattern_expectancy	-1.0	n/a	cue	AX	s587	False
467.237	0.5	467.804	1.5	AX	1.0	89.0	dot_pattern_expectancy	89.0	0.567	probe	AX	s587	False
468.74	0.5	468.739	0.5	AX	n/a	n/a	dot_pattern_expectancy	-1.0	n/a	cue	AX	s587	False
471.248	0.5	471.756	1.5	AX	1.0	89.0	dot_pattern_expectancy	89.0	0.508	probe	AX	s587	False
472.749	0.5	472.748	0.5	AX	n/a	n/a	dot_pattern_expectancy	-1.0	n/a	cue	AX	s587	False
475.258	0.5	475.814	1.772	AX	1.0	89.0	dot_pattern_expectancy	89.0	0.556	probe	AX	s587	False
477.032	0.5	477.031	0.5	AX	n/a	n/a	dot_pattern_expectancy	-1.0	n/a	cue	AX	s587	False
479.539	0.5	480.05	2.18	AX	1.0	89.0	dot_pattern_expectancy	89.0	0.511	probe	AX	s587	False
481.72	0.5	481.719	0.5	BX	n/a	n/a	dot_pattern_expectancy	-1.0	n/a	cue	BX	s587	False
484.229	0.5	484.563	1.772	BX	1.0	71.0	dot_pattern_expectancy	71.0	0.334	probe	BX	s587	False
486.003	0.5	486.002	0.5	BY	n/a	n/a	dot_pattern_expectancy	-1.0	n/a	cue	BY	s587	False
488.512	0.5	489.329	1.5	BY	1.0	71.0	dot_pattern_expectancy	71.0	0.817	probe	BY	s587	False
490.017	0.5	490.016	0.5	AX	n/a	n/a	dot_pattern_expectancy	-1.0	n/a	cue	AX	s587	False
492.528	0.5	493.025	1.5	AX	1.0	89.0	dot_pattern_expectancy	89.0	0.497	probe	AX	s587	False
494.03	0.5	494.029	0.5	AX	n/a	n/a	dot_pattern_expectancy	-1.0	n/a	cue	AX	s587	False
496.542	0.5	497.135	1.636	AX	1.0	89.0	dot_pattern_expectancy	89.0	0.593	probe	AX	s587	False
498.179	0.5	498.178	0.5	AY	n/a	n/a	dot_pattern_expectancy	-1.0	n/a	cue	AY	s587	False
500.686	0.5	501.327	2.18	AY	1.0	71.0	dot_pattern_expectancy	71.0	0.641	probe	AY	s587	False
502.868	0.5	502.867	0.5	AY	n/a	n/a	dot_pattern_expectancy	-1.0	n/a	cue	AY	s587	False
505.377	0.5	505.967	2.316	AY	1.0	71.0	dot_pattern_expectancy	71.0	0.59	probe	AY	s587	False
507.695	0.5	507.694	0.5	BX	n/a	n/a	dot_pattern_expectancy	-1.0	n/a	cue	BX	s587	False
510.201	0.5	510.589	1.636	BX	1.0	71.0	dot_pattern_expectancy	71.0	0.388	probe	BX	s587	False
511.841	0.5	511.84	0.5	BX	n/a	n/a	dot_pattern_expectancy	-1.0	n/a	cue	BX	s587	False
514.347	0.5	514.813	2.18	BX	1.0	71.0	dot_pattern_expectancy	71.0	0.466	probe	BX	s587	False
516.532	0.5	516.531	0.5	AY	n/a	n/a	dot_pattern_expectancy	-1.0	n/a	cue	AY	s587	False
519.041	0.5	519.574	2.044	AY	1.0	71.0	dot_pattern_expectancy	71.0	0.533	probe	AY	s587	False
521.087	0.5	521.086	0.5	AX	n/a	n/a	dot_pattern_expectancy	-1.0	n/a	cue	AX	s587	False
523.594	0.5	524.09	1.772	AX	1.0	89.0	dot_pattern_expectancy	89.0	0.496	probe	AX	s587	False
525.372	0.5	525.371	0.5	AX	n/a	n/a	dot_pattern_expectancy	-1.0	n/a	cue	AX	s587	False
527.881	0.5	528.337	1.5	AX	1.0	89.0	dot_pattern_expectancy	89.0	0.456	probe	AX	s587	False
529.386	0.5	529.385	0.5	AX	n/a	n/a	dot_pattern_expectancy	-1.0	n/a	cue	AX	s587	False
531.892	0.5	532.343	2.18	AX	1.0	89.0	dot_pattern_expectancy	89.0	0.451	probe	AX	s587	False
534.074	0.5	534.073	0.5	AY	n/a	n/a	dot_pattern_expectancy	-1.0	n/a	cue	AY	s587	False
536.58	0.5	537.109	2.452	AY	1.0	71.0	dot_pattern_expectancy	71.0	0.529	probe	AY	s587	False
539.034	0.5	539.033	0.5	AX	n/a	n/a	dot_pattern_expectancy	-1.0	n/a	cue	AX	s587	False
541.541	0.5	542.019	1.636	AX	1.0	89.0	dot_pattern_expectancy	89.0	0.478	probe	AX	s587	False
543.183	0.5	543.182	0.5	AX	n/a	n/a	dot_pattern_expectancy	-1.0	n/a	cue	AX	s587	False
545.69	0.5	546.137	1.908	AX	1.0	89.0	dot_pattern_expectancy	89.0	0.447	probe	AX	s587	False
558.114	0.5	558.113	0.5	AX	n/a	n/a	dot_pattern_expectancy	-1.0	n/a	cue	AX	s587	False
560.621	0.5	561.031	1.772	AX	1.0	89.0	dot_pattern_expectancy	89.0	0.41	probe	AX	s587	False
562.395	0.5	562.394	0.5	AX	n/a	n/a	dot_pattern_expectancy	-1.0	n/a	cue	AX	s587	False
564.906	0.5	565.396	1.5	AX	1.0	89.0	dot_pattern_expectancy	89.0	0.49	probe	AX	s587	False
566.411	0.5	566.41	0.5	AY	n/a	n/a	dot_pattern_expectancy	-1.0	n/a	cue	AY	s587	False
568.917	0.5	569.445	2.452	AY	1.0	71.0	dot_pattern_expectancy	71.0	0.528	probe	AY	s587	False
571.371	0.5	571.37	0.5	AY	n/a	n/a	dot_pattern_expectancy	-1.0	n/a	cue	AY	s587	False
573.877	0.5	574.385	1.772	AY	1.0	71.0	dot_pattern_expectancy	71.0	0.508	probe	AY	s587	False
575.654	0.5	575.653	0.5	AX	n/a	n/a	dot_pattern_expectancy	-1.0	n/a	cue	AX	s587	False
578.16	0.5	578.742	1.908	AX	1.0	89.0	dot_pattern_expectancy	89.0	0.582	probe	AX	s587	False
580.07	0.5	580.069	0.5	AX	n/a	n/a	dot_pattern_expectancy	-1.0	n/a	cue	AX	s587	False
582.577	0.5	583.035	1.908	AX	1.0	89.0	dot_pattern_expectancy	89.0	0.458	probe	AX	s587	False
584.486	0.5	584.485	0.5	AX	n/a	n/a	dot_pattern_expectancy	-1.0	n/a	cue	AX	s587	False
586.99	0.5	587.658	2.588	AX	1.0	89.0	dot_pattern_expectancy	89.0	0.668	probe	AX	s587	False
589.579	0.5	589.578	0.5	AY	n/a	n/a	dot_pattern_expectancy	-1.0	n/a	cue	AY	s587	False
592.091	0.5	592.642	1.5	AY	1.0	71.0	dot_pattern_expectancy	71.0	0.551	probe	AY	s587	False
593.596	0.5	593.595	0.5	BY	n/a	n/a	dot_pattern_expectancy	-1.0	n/a	cue	BY	s587	False
596.105	0.5	596.436	1.5	BY	1.0	71.0	dot_pattern_expectancy	71.0	0.331	probe	BY	s587	False
597.61	0.5	597.609	0.5	BY	n/a	n/a	dot_pattern_expectancy	-1.0	n/a	cue	BY	s587	False
600.116	0.5	600.693	1.5	BY	1.0	71.0	dot_pattern_expectancy	71.0	0.577	probe	BY	s587	False
601.617	0.5	601.616	0.5	AX	n/a	n/a	dot_pattern_expectancy	-1.0	n/a	cue	AX	s587	False
604.124	0.5	604.51	1.636	AX	1.0	89.0	dot_pattern_expectancy	89.0	0.386	probe	AX	s587	False
605.761	0.5	605.76	0.5	BX	n/a	n/a	dot_pattern_expectancy	-1.0	n/a	cue	BX	s587	False
608.271	0.5	609.065	2.044	BX	1.0	71.0	dot_pattern_expectancy	71.0	0.794	probe	BX	s587	False
610.316	0.5	610.315	0.5	AX	n/a	n/a	dot_pattern_expectancy	-1.0	n/a	cue	AX	s587	False
612.825	0.5	613.26	1.772	AX	1.0	89.0	dot_pattern_expectancy	89.0	0.435	probe	AX	s587	False
614.599	0.5	614.598	0.5	BX	n/a	n/a	dot_pattern_expectancy	-1.0	n/a	cue	BX	s587	False
617.103	0.5	617.444	2.588	BX	1.0	71.0	dot_pattern_expectancy	71.0	0.341	probe	BX	s587	False
619.692	0.5	619.691	0.5	AY	n/a	n/a	dot_pattern_expectancy	-1.0	n/a	cue	AY	s587	False
622.199	0.5	622.858	1.5	AY	1.0	71.0	dot_pattern_expectancy	71.0	0.659	probe	AY	s587	False
623.703	0.5	623.702	0.5	AX	n/a	n/a	dot_pattern_expectancy	-1.0	n/a	cue	AX	s587	False
626.21	0.5	626.678	2.452	AX	1.0	89.0	dot_pattern_expectancy	89.0	0.468	probe	AX	s587	False
628.667	0.5	628.666	0.5	BY	n/a	n/a	dot_pattern_expectancy	-1.0	n/a	cue	BY	s587	False
631.17	0.5	631.558	1.636	BY	1.0	71.0	dot_pattern_expectancy	71.0	0.388	probe	BY	s587	False
632.807	0.5	632.806	0.5	AX	n/a	n/a	dot_pattern_expectancy	-1.0	n/a	cue	AX	s587	False
635.314	0.5	635.797	1.636	AX	1.0	89.0	dot_pattern_expectancy	89.0	0.483	probe	AX	s587	False
636.952	0.5	636.951	0.5	AX	n/a	n/a	dot_pattern_expectancy	-1.0	n/a	cue	AX	s587	False
639.461	0.5	639.918	1.5	AX	1.0	89.0	dot_pattern_expectancy	89.0	0.457	probe	AX	s587	False
640.962	0.5	640.961	0.5	BY	n/a	n/a	dot_pattern_expectancy	-1.0	n/a	cue	BY	s587	False
643.474	0.5	644.061	1.636	BY	1.0	71.0	dot_pattern_expectancy	71.0	0.587	probe	BY	s587	False
645.112	0.5	645.111	0.5	AX	n/a	n/a	dot_pattern_expectancy	-1.0	n/a	cue	AX	s587	False
647.621	0.5	648.108	1.5	AX	1.0	89.0	dot_pattern_expectancy	89.0	0.487	probe	AX	s587	False
649.128	0.5	649.127	0.5	AY	n/a	n/a	dot_pattern_expectancy	-1.0	n/a	cue	AY	s587	False
651.634	0.5	652.294	2.18	AY	1.0	71.0	dot_pattern_expectancy	71.0	0.66	probe	AY	s587	False
653.819	0.5	653.818	0.5	AX	n/a	n/a	dot_pattern_expectancy	-1.0	n/a	cue	AX	s587	False
656.325	0.5	656.844	1.5	AX	1.0	89.0	dot_pattern_expectancy	89.0	0.519	probe	AX	s587	False
657.827	0.5	657.826	0.5	AX	n/a	n/a	dot_pattern_expectancy	-1.0	n/a	cue	AX	s587	False
660.333	0.5	660.932	1.908	AX	1.0	89.0	dot_pattern_expectancy	89.0	0.599	probe	AX	s587	False
662.243	0.5	662.242	0.5	BY	n/a	n/a	dot_pattern_expectancy	-1.0	n/a	cue	BY	s587	False
664.75	0.5	665.168	1.636	BY	1.0	71.0	dot_pattern_expectancy	71.0	0.418	probe	BY	s587	False
666.39	0.5	666.389	0.5	BY	n/a	n/a	dot_pattern_expectancy	-1.0	n/a	cue	BY	s587	False
668.894	0.5	669.589	1.636	BY	1.0	71.0	dot_pattern_expectancy	71.0	0.695	probe	BY	s587	False
670.533	0.5	670.532	0.5	AX	n/a	n/a	dot_pattern_expectancy	-1.0	n/a	cue	AX	s587	False
673.038	0.5	673.51	1.636	AX	1.0	89.0	dot_pattern_expectancy	89.0	0.472	probe	AX	s587	False
674.675	0.5	674.674	0.5	AX	n/a	n/a	dot_pattern_expectancy	-1.0	n/a	cue	AX	s587	False
677.185	0.5	677.621	1.5	AX	1.0	89.0	dot_pattern_expectancy	89.0	0.436	probe	AX	s587	False
678.686	0.5	678.685	0.5	BY	n/a	n/a	dot_pattern_expectancy	-1.0	n/a	cue	BY	s587	False
681.195	0.5	681.681	2.044	BY	1.0	71.0	dot_pattern_expectancy	71.0	0.486	probe	BY	s587	False
683.241	0.5	683.24	0.5	AY	n/a	n/a	dot_pattern_expectancy	-1.0	n/a	cue	AY	s587	False
685.748	0.5	686.316	2.18	AY	1.0	71.0	dot_pattern_expectancy	71.0	0.568	probe	AY	s587	False
687.929	0.5	687.928	0.5	AY	n/a	n/a	dot_pattern_expectancy	-1.0	n/a	cue	AY	s587	False
690.436	0.5	690.938	1.636	AY	1.0	71.0	dot_pattern_expectancy	71.0	0.502	probe	AY	s587	False
692.073	0.5	692.072	0.5	AY	n/a	n/a	dot_pattern_expectancy	-1.0	n/a	cue	AY	s587	False
694.582	0.5	695.206	1.772	AY	1.0	71.0	dot_pattern_expectancy	71.0	0.624	probe	AY	s587	False
696.356	0.5	696.355	0.5	BY	n/a	n/a	dot_pattern_expectancy	-1.0	n/a	cue	BY	s587	False
698.865	0.5	699.512	1.5	BY	1.0	71.0	dot_pattern_expectancy	71.0	0.647	probe	BY	s587	False
700.367	0.5	700.366	0.5	BX	n/a	n/a	dot_pattern_expectancy	-1.0	n/a	cue	BX	s587	False
702.877	0.5	703.32	1.908	BX	1.0	71.0	dot_pattern_expectancy	71.0	0.443	probe	BX	s587	False
704.788	0.5	704.787	0.5	AX	n/a	n/a	dot_pattern_expectancy	-1.0	n/a	cue	AX	s587	False
707.297	0.5	707.841	2.044	AX	1.0	89.0	dot_pattern_expectancy	89.0	0.544	probe	AX	s587	False
709.343	0.5	709.342	0.5	AX	n/a	n/a	dot_pattern_expectancy	-1.0	n/a	cue	AX	s587	False
711.85	0.5	712.288	1.636	AX	1.0	89.0	dot_pattern_expectancy	89.0	0.438	probe	AX	s587	False
713.487	0.5	713.486	0.5	AX	n/a	n/a	dot_pattern_expectancy	-1.0	n/a	cue	AX	s587	False
715.997	0.5	716.493	1.772	AX	1.0	89.0	dot_pattern_expectancy	89.0	0.496	probe	AX	s587	False
717.77	0.5	717.769	0.5	AX	n/a	n/a	dot_pattern_expectancy	-1.0	n/a	cue	AX	s587	False
720.276	0.5	720.681	1.636	AX	1.0	89.0	dot_pattern_expectancy	89.0	0.405	probe	AX	s587	False
721.914	0.5	721.913	0.5	BX	n/a	n/a	dot_pattern_expectancy	-1.0	n/a	cue	BX	s587	False
724.424	0.5	724.718	1.772	BX	1.0	71.0	dot_pattern_expectancy	71.0	0.294	probe	BX	s587	False
726.197	0.5	726.196	0.5	AX	n/a	n/a	dot_pattern_expectancy	-1.0	n/a	cue	AX	s587	False
728.706	0.5	729.158	1.5	AX	1.0	89.0	dot_pattern_expectancy	89.0	0.452	probe	AX	s587	False
