duration	onset	block_duration	movement_onset	planning	condition	exp_stage	experiment_exp_id	key_press	problem_id	response_time	trial_id	trial_type	worker_id	junk
4.227	3.013	4.227	7.24	1	UA_with_intermediate	practice	ward_and_allport	71	0.0	4.227	to_hand	poldrack-single-stim	s588	False
0.1	7.242	1.833	9.075	0	UA_with_intermediate	practice	ward_and_allport	89	0.0	1.833	to_board	poldrack-single-stim	s588	False
0.1	9.077	0.414	9.491	0	UA_with_intermediate	practice	ward_and_allport	71	0.0	0.414	to_hand	poldrack-single-stim	s588	False
0.1	9.491	0.448	9.939	0	UA_with_intermediate	practice	ward_and_allport	89	0.0	0.448	to_board	poldrack-single-stim	s588	False
0.1	9.94	2.207	12.147	0	UA_with_intermediate	practice	ward_and_allport	89	0.0	2.207	to_hand	poldrack-single-stim	s588	False
0.1	12.149	0.437	12.586	0	UA_with_intermediate	practice	ward_and_allport	71	0.0	0.437	to_board	poldrack-single-stim	s588	False
0.1	12.587	0.797	13.384	0	UA_with_intermediate	practice	ward_and_allport	89	0.0	0.797	to_hand	poldrack-single-stim	s588	False
0.1	13.386	0.645	14.031	0	UA_with_intermediate	practice	ward_and_allport	82	0.0	0.645	to_board	poldrack-single-stim	s588	False
0.1	14.033	0.654	14.687	0	UA_with_intermediate	practice	ward_and_allport	71	0.0	0.654	to_hand	poldrack-single-stim	s588	False
0.1	14.687	0.489	15.176	0	UA_with_intermediate	practice	ward_and_allport	89	0.0	0.489	to_board	poldrack-single-stim	s588	False
0.1	15.179	0.758	15.937	0	UA_with_intermediate	practice	ward_and_allport	82	0.0	0.758	to_hand	poldrack-single-stim	s588	False
0.1	15.937	0.396	16.333	0	UA_with_intermediate	practice	ward_and_allport	89	0.0	0.396	to_board	poldrack-single-stim	s588	False
1.0	16.34	2.5	16.339	0	UA_with_intermediate	practice	ward_and_allport	-1	0.0	n/a	feedback	poldrack-single-stim	s588	False
4.57	18.842	4.57	23.412	1	UA_with_intermediate	practice	ward_and_allport	71	1.0	4.57	to_hand	poldrack-single-stim	s588	False
0.1	23.412	0.449	23.861	0	UA_with_intermediate	practice	ward_and_allport	89	1.0	0.449	to_board	poldrack-single-stim	s588	False
0.1	23.862	2.174	26.036	0	UA_with_intermediate	practice	ward_and_allport	89	1.0	2.174	to_hand	poldrack-single-stim	s588	False
0.1	26.038	1.832	27.87	0	UA_with_intermediate	practice	ward_and_allport	71	1.0	1.832	to_board	poldrack-single-stim	s588	False
0.1	27.872	0.425	28.297	0	UA_with_intermediate	practice	ward_and_allport	89	1.0	0.425	to_hand	poldrack-single-stim	s588	False
0.1	28.298	0.794	29.092	0	UA_with_intermediate	practice	ward_and_allport	82	1.0	0.794	to_board	poldrack-single-stim	s588	False
0.1	29.093	0.668	29.761	0	UA_with_intermediate	practice	ward_and_allport	71	1.0	0.668	to_hand	poldrack-single-stim	s588	False
0.1	29.763	0.474	30.237	0	UA_with_intermediate	practice	ward_and_allport	89	1.0	0.474	to_board	poldrack-single-stim	s588	False
0.1	30.238	0.749	30.987	0	UA_with_intermediate	practice	ward_and_allport	82	1.0	0.749	to_hand	poldrack-single-stim	s588	False
0.1	30.989	3.256	34.245	0	UA_with_intermediate	practice	ward_and_allport	89	1.0	3.256	to_board	poldrack-single-stim	s588	False
1.0	34.25	2.1	34.249	0	UA_with_intermediate	practice	ward_and_allport	-1	1.0	n/a	feedback	poldrack-single-stim	s588	False
5.731	36.352	5.731	42.083	1	UA_without_intermediate	practice	ward_and_allport	82	2.0	5.731	to_hand	poldrack-single-stim	s588	False
0.1	42.085	1.481	43.566	0	UA_without_intermediate	practice	ward_and_allport	89	2.0	1.481	to_board	poldrack-single-stim	s588	False
0.1	43.568	0.8	44.368	0	UA_without_intermediate	practice	ward_and_allport	71	2.0	0.8	to_hand	poldrack-single-stim	s588	False
0.1	44.369	0.715	45.084	0	UA_without_intermediate	practice	ward_and_allport	89	2.0	0.715	to_board	poldrack-single-stim	s588	False
0.1	45.087	0.58	45.667	0	UA_without_intermediate	practice	ward_and_allport	71	2.0	0.58	to_hand	poldrack-single-stim	s588	False
0.1	45.668	0.733	46.401	0	UA_without_intermediate	practice	ward_and_allport	89	2.0	0.733	to_board	poldrack-single-stim	s588	False
1.0	46.407	2.2	46.406	0	UA_without_intermediate	practice	ward_and_allport	-1	2.0	n/a	feedback	poldrack-single-stim	s588	False
3.958	48.608	3.958	52.566	1	UA_without_intermediate	practice	ward_and_allport	71	3.0	3.958	to_hand	poldrack-single-stim	s588	False
0.1	52.567	0.427	52.994	0	UA_without_intermediate	practice	ward_and_allport	89	3.0	0.427	to_board	poldrack-single-stim	s588	False
0.1	52.997	0.644	53.641	0	UA_without_intermediate	practice	ward_and_allport	82	3.0	0.644	to_hand	poldrack-single-stim	s588	False
0.1	53.641	0.583	54.224	0	UA_without_intermediate	practice	ward_and_allport	89	3.0	0.583	to_board	poldrack-single-stim	s588	False
0.1	54.227	0.524	54.751	0	UA_without_intermediate	practice	ward_and_allport	71	3.0	0.524	to_hand	poldrack-single-stim	s588	False
0.1	54.751	0.481	55.232	0	UA_without_intermediate	practice	ward_and_allport	89	3.0	0.481	to_board	poldrack-single-stim	s588	False
1.0	55.236	2.0	55.235	0	UA_without_intermediate	practice	ward_and_allport	-1	3.0	n/a	feedback	poldrack-single-stim	s588	False
3.768	59.243	3.768	63.011	1	PA_with_intermediate	test	ward_and_allport	71	0.0	3.768	to_hand	poldrack-single-stim	s588	False
0.1	63.012	0.756	63.768	0	PA_with_intermediate	test	ward_and_allport	82	0.0	0.756	to_board	poldrack-single-stim	s588	False
0.1	63.771	0.748	64.519	0	PA_with_intermediate	test	ward_and_allport	71	0.0	0.748	to_hand	poldrack-single-stim	s588	False
0.1	64.52	0.667	65.187	0	PA_with_intermediate	test	ward_and_allport	89	0.0	0.667	to_board	poldrack-single-stim	s588	False
0.1	65.189	2.029	67.218	0	PA_with_intermediate	test	ward_and_allport	82	0.0	2.029	to_hand	poldrack-single-stim	s588	False
0.1	67.219	0.44	67.659	0	PA_with_intermediate	test	ward_and_allport	71	0.0	0.44	to_board	poldrack-single-stim	s588	False
1.0	67.664	4.176	67.663	0	PA_with_intermediate	test	ward_and_allport	-1	0.0	n/a	feedback	poldrack-single-stim	s588	False
4.362	71.841	4.362	76.203	1	PA_with_intermediate	test	ward_and_allport	82	1.0	4.362	to_hand	poldrack-single-stim	s588	False
0.1	76.204	0.618	76.822	0	PA_with_intermediate	test	ward_and_allport	89	1.0	0.618	to_board	poldrack-single-stim	s588	False
0.1	76.824	1.729	78.553	0	PA_with_intermediate	test	ward_and_allport	82	1.0	1.729	to_hand	poldrack-single-stim	s588	False
0.1	78.554	0.529	79.083	0	PA_with_intermediate	test	ward_and_allport	71	1.0	0.529	to_board	poldrack-single-stim	s588	False
0.1	79.086	0.829	79.915	0	PA_with_intermediate	test	ward_and_allport	89	1.0	0.829	to_hand	poldrack-single-stim	s588	False
0.1	79.915	0.427	80.342	0	PA_with_intermediate	test	ward_and_allport	82	1.0	0.427	to_board	poldrack-single-stim	s588	False
1.0	80.347	3.36	80.346	0	PA_with_intermediate	test	ward_and_allport	-1	1.0	n/a	feedback	poldrack-single-stim	s588	False
4.054	83.709	4.054	87.763	1	PA_with_intermediate	test	ward_and_allport	82	2.0	4.054	to_hand	poldrack-single-stim	s588	False
0.1	87.763	0.812	88.575	0	PA_with_intermediate	test	ward_and_allport	71	2.0	0.812	to_board	poldrack-single-stim	s588	False
0.1	88.577	1.061	89.638	0	PA_with_intermediate	test	ward_and_allport	82	2.0	1.061	to_hand	poldrack-single-stim	s588	False
0.1	89.64	0.609	90.249	0	PA_with_intermediate	test	ward_and_allport	89	2.0	0.609	to_board	poldrack-single-stim	s588	False
0.1	90.251	1.674	91.925	0	PA_with_intermediate	test	ward_and_allport	71	2.0	1.674	to_hand	poldrack-single-stim	s588	False
0.1	91.925	0.389	92.314	0	PA_with_intermediate	test	ward_and_allport	89	2.0	0.389	to_board	poldrack-single-stim	s588	False
1.0	92.32	2.0	92.319	0	PA_with_intermediate	test	ward_and_allport	-1	2.0	n/a	feedback	poldrack-single-stim	s588	False
4.092	94.322	4.092	98.414	1	PA_without_intermediate	test	ward_and_allport	71	3.0	4.092	to_hand	poldrack-single-stim	s588	False
0.1	98.415	0.388	98.803	0	PA_without_intermediate	test	ward_and_allport	89	3.0	0.388	to_board	poldrack-single-stim	s588	False
0.1	98.805	0.53	99.335	0	PA_without_intermediate	test	ward_and_allport	71	3.0	0.53	to_hand	poldrack-single-stim	s588	False
0.1	99.337	0.45	99.787	0	PA_without_intermediate	test	ward_and_allport	89	3.0	0.45	to_board	poldrack-single-stim	s588	False
0.1	99.79	0.761	100.551	0	PA_without_intermediate	test	ward_and_allport	71	3.0	0.761	to_hand	poldrack-single-stim	s588	False
0.1	100.551	0.521	101.072	0	PA_without_intermediate	test	ward_and_allport	82	3.0	0.521	to_board	poldrack-single-stim	s588	False
1.0	101.075	2.408	101.074	0	PA_without_intermediate	test	ward_and_allport	-1	3.0	n/a	feedback	poldrack-single-stim	s588	False
2.668	103.487	2.668	106.155	1	PA_with_intermediate	test	ward_and_allport	89	4.0	2.668	to_hand	poldrack-single-stim	s588	False
0.1	106.156	0.443	106.599	0	PA_with_intermediate	test	ward_and_allport	82	4.0	0.443	to_board	poldrack-single-stim	s588	False
0.1	106.601	0.808	107.409	0	PA_with_intermediate	test	ward_and_allport	89	4.0	0.808	to_hand	poldrack-single-stim	s588	False
0.1	107.411	0.71	108.121	0	PA_with_intermediate	test	ward_and_allport	71	4.0	0.71	to_board	poldrack-single-stim	s588	False
0.1	108.125	1.005	109.13	0	PA_with_intermediate	test	ward_and_allport	82	4.0	1.005	to_hand	poldrack-single-stim	s588	False
0.1	109.13	0.477	109.607	0	PA_with_intermediate	test	ward_and_allport	71	4.0	0.477	to_board	poldrack-single-stim	s588	False
1.0	109.612	2.816	109.611	0	PA_with_intermediate	test	ward_and_allport	-1	4.0	n/a	feedback	poldrack-single-stim	s588	False
3.808	112.431	3.808	116.239	1	PA_without_intermediate	test	ward_and_allport	82	5.0	3.808	to_hand	poldrack-single-stim	s588	False
0.1	116.24	1.086	117.326	0	PA_without_intermediate	test	ward_and_allport	71	5.0	1.086	to_board	poldrack-single-stim	s588	False
0.1	117.328	0.63	117.958	0	PA_without_intermediate	test	ward_and_allport	82	5.0	0.63	to_hand	poldrack-single-stim	s588	False
0.1	117.96	0.55	118.51	0	PA_without_intermediate	test	ward_and_allport	71	5.0	0.55	to_board	poldrack-single-stim	s588	False
0.1	118.513	0.461	118.974	0	PA_without_intermediate	test	ward_and_allport	82	5.0	0.461	to_hand	poldrack-single-stim	s588	False
0.1	118.974	0.388	119.362	0	PA_without_intermediate	test	ward_and_allport	89	5.0	0.388	to_board	poldrack-single-stim	s588	False
1.0	119.367	3.088	119.366	0	PA_without_intermediate	test	ward_and_allport	-1	5.0	n/a	feedback	poldrack-single-stim	s588	False
2.371	122.457	2.371	124.828	1	PA_without_intermediate	test	ward_and_allport	82	6.0	2.371	to_hand	poldrack-single-stim	s588	False
0.1	124.829	0.828	125.657	0	PA_without_intermediate	test	ward_and_allport	89	6.0	0.828	to_board	poldrack-single-stim	s588	False
0.1	125.66	1.037	126.697	0	PA_without_intermediate	test	ward_and_allport	82	6.0	1.037	to_hand	poldrack-single-stim	s588	False
0.1	126.698	0.449	127.147	0	PA_without_intermediate	test	ward_and_allport	71	6.0	0.449	to_board	poldrack-single-stim	s588	False
0.1	127.151	0.606	127.757	0	PA_without_intermediate	test	ward_and_allport	82	6.0	0.606	to_hand	poldrack-single-stim	s588	False
0.1	127.757	0.496	128.253	0	PA_without_intermediate	test	ward_and_allport	89	6.0	0.496	to_board	poldrack-single-stim	s588	False
1.0	128.26	2.136	128.259	0	PA_without_intermediate	test	ward_and_allport	-1	6.0	n/a	feedback	poldrack-single-stim	s588	False
2.65	130.399	2.65	133.049	1	PA_without_intermediate	test	ward_and_allport	89	7.0	2.65	to_hand	poldrack-single-stim	s588	False
0.1	133.05	0.612	133.662	0	PA_without_intermediate	test	ward_and_allport	82	7.0	0.612	to_board	poldrack-single-stim	s588	False
0.1	133.666	0.463	134.129	0	PA_without_intermediate	test	ward_and_allport	89	7.0	0.463	to_hand	poldrack-single-stim	s588	False
0.1	134.13	0.407	134.537	0	PA_without_intermediate	test	ward_and_allport	82	7.0	0.407	to_board	poldrack-single-stim	s588	False
0.1	134.54	0.524	135.064	0	PA_without_intermediate	test	ward_and_allport	89	7.0	0.524	to_hand	poldrack-single-stim	s588	False
0.1	135.065	0.415	135.48	0	PA_without_intermediate	test	ward_and_allport	71	7.0	0.415	to_board	poldrack-single-stim	s588	False
1.0	135.487	7.168	135.486	0	PA_without_intermediate	test	ward_and_allport	-1	7.0	n/a	feedback	poldrack-single-stim	s588	False
3.111	142.659	3.111	145.77	1	PA_without_intermediate	test	ward_and_allport	82	8.0	3.111	to_hand	poldrack-single-stim	s588	False
0.1	145.77	0.543	146.313	0	PA_without_intermediate	test	ward_and_allport	71	8.0	0.543	to_board	poldrack-single-stim	s588	False
0.1	146.316	0.435	146.751	0	PA_without_intermediate	test	ward_and_allport	82	8.0	0.435	to_hand	poldrack-single-stim	s588	False
0.1	146.752	0.42	147.172	0	PA_without_intermediate	test	ward_and_allport	71	8.0	0.42	to_board	poldrack-single-stim	s588	False
0.1	147.177	0.828	148.005	0	PA_without_intermediate	test	ward_and_allport	82	8.0	0.828	to_hand	poldrack-single-stim	s588	False
0.1	148.007	0.665	148.672	0	PA_without_intermediate	test	ward_and_allport	89	8.0	0.665	to_board	poldrack-single-stim	s588	False
1.0	148.68	2.816	148.679	0	PA_without_intermediate	test	ward_and_allport	-1	8.0	n/a	feedback	poldrack-single-stim	s588	False
3.328	151.5	3.328	154.828	1	PA_with_intermediate	test	ward_and_allport	89	9.0	3.328	to_hand	poldrack-single-stim	s588	False
0.1	154.829	0.332	155.161	0	PA_with_intermediate	test	ward_and_allport	71	9.0	0.332	to_board	poldrack-single-stim	s588	False
0.1	155.164	0.409	155.573	0	PA_with_intermediate	test	ward_and_allport	89	9.0	0.409	to_hand	poldrack-single-stim	s588	False
0.1	155.574	0.549	156.123	0	PA_with_intermediate	test	ward_and_allport	82	9.0	0.549	to_board	poldrack-single-stim	s588	False
0.1	156.127	1.147	157.274	0	PA_with_intermediate	test	ward_and_allport	71	9.0	1.147	to_hand	poldrack-single-stim	s588	False
0.1	157.275	0.406	157.681	0	PA_with_intermediate	test	ward_and_allport	82	9.0	0.406	to_board	poldrack-single-stim	s588	False
1.0	157.686	2.952	157.685	0	PA_with_intermediate	test	ward_and_allport	-1	9.0	n/a	feedback	poldrack-single-stim	s588	False
2.8	160.642	2.8	163.442	1	PA_with_intermediate	test	ward_and_allport	82	10.0	2.8	to_hand	poldrack-single-stim	s588	False
0.1	163.443	0.509	163.952	0	PA_with_intermediate	test	ward_and_allport	71	10.0	0.509	to_board	poldrack-single-stim	s588	False
0.1	163.956	0.424	164.38	0	PA_with_intermediate	test	ward_and_allport	82	10.0	0.424	to_hand	poldrack-single-stim	s588	False
0.1	164.381	0.768	165.149	0	PA_with_intermediate	test	ward_and_allport	89	10.0	0.768	to_board	poldrack-single-stim	s588	False
0.1	165.153	1.005	166.158	0	PA_with_intermediate	test	ward_and_allport	71	10.0	1.005	to_hand	poldrack-single-stim	s588	False
0.1	166.159	0.251	166.41	0	PA_with_intermediate	test	ward_and_allport	89	10.0	0.251	to_board	poldrack-single-stim	s588	False
1.0	166.417	2.136	166.416	0	PA_with_intermediate	test	ward_and_allport	-1	10.0	n/a	feedback	poldrack-single-stim	s588	False
2.032	168.556	2.032	170.588	1	PA_without_intermediate	test	ward_and_allport	82	11.0	2.032	to_hand	poldrack-single-stim	s588	False
0.1	170.59	0.588	171.178	0	PA_without_intermediate	test	ward_and_allport	71	11.0	0.588	to_board	poldrack-single-stim	s588	False
0.1	171.181	0.821	172.002	0	PA_without_intermediate	test	ward_and_allport	82	11.0	0.821	to_hand	poldrack-single-stim	s588	False
0.1	172.003	0.48	172.483	0	PA_without_intermediate	test	ward_and_allport	89	11.0	0.48	to_board	poldrack-single-stim	s588	False
0.1	172.487	1.359	173.846	0	PA_without_intermediate	test	ward_and_allport	82	11.0	1.359	to_hand	poldrack-single-stim	s588	False
0.1	173.847	0.377	174.224	0	PA_without_intermediate	test	ward_and_allport	71	11.0	0.377	to_board	poldrack-single-stim	s588	False
1.0	174.23	2.68	174.229	0	PA_without_intermediate	test	ward_and_allport	-1	11.0	n/a	feedback	poldrack-single-stim	s588	False
2.488	176.914	2.488	179.402	1	PA_without_intermediate	test	ward_and_allport	82	12.0	2.488	to_hand	poldrack-single-stim	s588	False
0.1	179.403	0.476	179.879	0	PA_without_intermediate	test	ward_and_allport	89	12.0	0.476	to_board	poldrack-single-stim	s588	False
0.1	179.883	0.473	180.356	0	PA_without_intermediate	test	ward_and_allport	82	12.0	0.473	to_hand	poldrack-single-stim	s588	False
0.1	180.356	0.524	180.88	0	PA_without_intermediate	test	ward_and_allport	89	12.0	0.524	to_board	poldrack-single-stim	s588	False
0.1	180.885	1.449	182.334	0	PA_without_intermediate	test	ward_and_allport	82	12.0	1.449	to_hand	poldrack-single-stim	s588	False
0.1	182.335	0.276	182.611	0	PA_without_intermediate	test	ward_and_allport	71	12.0	0.276	to_board	poldrack-single-stim	s588	False
1.0	182.618	3.088	182.617	0	PA_without_intermediate	test	ward_and_allport	-1	12.0	n/a	feedback	poldrack-single-stim	s588	False
4.696	185.709	4.696	190.405	1	PA_with_intermediate	test	ward_and_allport	82	13.0	4.696	to_hand	poldrack-single-stim	s588	False
0.1	190.406	0.509	190.915	0	PA_with_intermediate	test	ward_and_allport	71	13.0	0.509	to_board	poldrack-single-stim	s588	False
0.1	190.919	0.467	191.386	0	PA_with_intermediate	test	ward_and_allport	82	13.0	0.467	to_hand	poldrack-single-stim	s588	False
0.1	191.387	0.481	191.868	0	PA_with_intermediate	test	ward_and_allport	89	13.0	0.481	to_board	poldrack-single-stim	s588	False
0.1	191.872	0.619	192.491	0	PA_with_intermediate	test	ward_and_allport	71	13.0	0.619	to_hand	poldrack-single-stim	s588	False
0.1	192.492	0.45	192.942	0	PA_with_intermediate	test	ward_and_allport	82	13.0	0.45	to_board	poldrack-single-stim	s588	False
1.0	192.949	2.0	192.948	0	PA_with_intermediate	test	ward_and_allport	-1	13.0	n/a	feedback	poldrack-single-stim	s588	False
2.713	194.952	2.713	197.665	1	PA_without_intermediate	test	ward_and_allport	71	14.0	2.713	to_hand	poldrack-single-stim	s588	False
0.1	197.666	0.443	198.109	0	PA_without_intermediate	test	ward_and_allport	82	14.0	0.443	to_board	poldrack-single-stim	s588	False
0.1	198.112	0.402	198.514	0	PA_without_intermediate	test	ward_and_allport	71	14.0	0.402	to_hand	poldrack-single-stim	s588	False
0.1	198.516	0.431	198.947	0	PA_without_intermediate	test	ward_and_allport	82	14.0	0.431	to_board	poldrack-single-stim	s588	False
0.1	198.95	0.459	199.409	0	PA_without_intermediate	test	ward_and_allport	71	14.0	0.459	to_hand	poldrack-single-stim	s588	False
0.1	199.41	0.394	199.804	0	PA_without_intermediate	test	ward_and_allport	89	14.0	0.394	to_board	poldrack-single-stim	s588	False
1.0	199.811	2.0	199.81	0	PA_without_intermediate	test	ward_and_allport	-1	14.0	n/a	feedback	poldrack-single-stim	s588	False
3.382	206.82	3.382	210.202	1	PA_without_intermediate	test	ward_and_allport	89	15.0	3.382	to_hand	poldrack-single-stim	s588	False
0.1	210.203	0.54	210.743	0	PA_without_intermediate	test	ward_and_allport	71	15.0	0.54	to_board	poldrack-single-stim	s588	False
0.1	210.747	0.477	211.224	0	PA_without_intermediate	test	ward_and_allport	89	15.0	0.477	to_hand	poldrack-single-stim	s588	False
0.1	211.225	0.519	211.744	0	PA_without_intermediate	test	ward_and_allport	82	15.0	0.519	to_board	poldrack-single-stim	s588	False
0.1	211.748	0.734	212.482	0	PA_without_intermediate	test	ward_and_allport	89	15.0	0.734	to_hand	poldrack-single-stim	s588	False
0.1	212.483	0.441	212.924	0	PA_without_intermediate	test	ward_and_allport	71	15.0	0.441	to_board	poldrack-single-stim	s588	False
1.0	212.928	2.0	212.927	0	PA_without_intermediate	test	ward_and_allport	-1	15.0	n/a	feedback	poldrack-single-stim	s588	False
2.829	214.933	2.829	217.762	1	PA_with_intermediate	test	ward_and_allport	82	16.0	2.829	to_hand	poldrack-single-stim	s588	False
0.1	217.763	0.794	218.557	0	PA_with_intermediate	test	ward_and_allport	71	16.0	0.794	to_board	poldrack-single-stim	s588	False
0.1	218.56	0.431	218.991	0	PA_with_intermediate	test	ward_and_allport	82	16.0	0.431	to_hand	poldrack-single-stim	s588	False
0.1	218.993	0.477	219.47	0	PA_with_intermediate	test	ward_and_allport	89	16.0	0.477	to_board	poldrack-single-stim	s588	False
0.1	219.475	0.549	220.024	0	PA_with_intermediate	test	ward_and_allport	71	16.0	0.549	to_hand	poldrack-single-stim	s588	False
0.1	220.024	0.396	220.42	0	PA_with_intermediate	test	ward_and_allport	82	16.0	0.396	to_board	poldrack-single-stim	s588	False
1.0	220.427	2.544	220.426	0	PA_with_intermediate	test	ward_and_allport	-1	16.0	n/a	feedback	poldrack-single-stim	s588	False
2.582	222.976	2.582	225.558	1	PA_without_intermediate	test	ward_and_allport	71	17.0	2.582	to_hand	poldrack-single-stim	s588	False
0.1	225.559	0.506	226.065	0	PA_without_intermediate	test	ward_and_allport	89	17.0	0.506	to_board	poldrack-single-stim	s588	False
0.1	226.068	0.52	226.588	0	PA_without_intermediate	test	ward_and_allport	71	17.0	0.52	to_hand	poldrack-single-stim	s588	False
0.1	226.589	0.474	227.063	0	PA_without_intermediate	test	ward_and_allport	82	17.0	0.474	to_board	poldrack-single-stim	s588	False
0.1	227.067	0.599	227.666	0	PA_without_intermediate	test	ward_and_allport	71	17.0	0.599	to_hand	poldrack-single-stim	s588	False
0.1	227.668	0.407	228.075	0	PA_without_intermediate	test	ward_and_allport	89	17.0	0.407	to_board	poldrack-single-stim	s588	False
1.0	228.081	2.272	228.08	0	PA_without_intermediate	test	ward_and_allport	-1	17.0	n/a	feedback	poldrack-single-stim	s588	False
2.158	230.357	2.158	232.515	1	PA_with_intermediate	test	ward_and_allport	82	18.0	2.158	to_hand	poldrack-single-stim	s588	False
0.1	232.516	0.667	233.183	0	PA_with_intermediate	test	ward_and_allport	71	18.0	0.667	to_board	poldrack-single-stim	s588	False
0.1	233.187	2.24	235.427	0	PA_with_intermediate	test	ward_and_allport	71	18.0	2.24	to_hand	poldrack-single-stim	s588	False
0.1	235.428	1.576	237.004	0	PA_with_intermediate	test	ward_and_allport	89	18.0	1.576	to_board	poldrack-single-stim	s588	False
0.1	237.009	1.148	238.157	0	PA_with_intermediate	test	ward_and_allport	82	18.0	1.148	to_hand	poldrack-single-stim	s588	False
0.1	238.158	0.576	238.734	0	PA_with_intermediate	test	ward_and_allport	71	18.0	0.576	to_board	poldrack-single-stim	s588	False
0.1	238.737	0.506	239.243	0	PA_with_intermediate	test	ward_and_allport	89	18.0	0.506	to_hand	poldrack-single-stim	s588	False
0.1	239.244	0.806	240.05	0	PA_with_intermediate	test	ward_and_allport	71	18.0	0.806	to_board	poldrack-single-stim	s588	False
1.0	240.057	4.04	240.056	0	PA_with_intermediate	test	ward_and_allport	-1	18.0	n/a	feedback	poldrack-single-stim	s588	False
3.355	244.101	3.355	247.456	1	PA_with_intermediate	test	ward_and_allport	71	19.0	3.355	to_hand	poldrack-single-stim	s588	False
0.1	247.457	0.426	247.883	0	PA_with_intermediate	test	ward_and_allport	89	19.0	0.426	to_board	poldrack-single-stim	s588	False
0.1	247.887	0.423	248.31	0	PA_with_intermediate	test	ward_and_allport	71	19.0	0.423	to_hand	poldrack-single-stim	s588	False
0.1	248.311	0.561	248.872	0	PA_with_intermediate	test	ward_and_allport	82	19.0	0.561	to_board	poldrack-single-stim	s588	False
0.1	248.877	0.469	249.346	0	PA_with_intermediate	test	ward_and_allport	89	19.0	0.469	to_hand	poldrack-single-stim	s588	False
0.1	249.346	0.33	249.676	0	PA_with_intermediate	test	ward_and_allport	71	19.0	0.33	to_board	poldrack-single-stim	s588	False
1.0	249.682	2.272	249.681	0	PA_with_intermediate	test	ward_and_allport	-1	19.0	n/a	feedback	poldrack-single-stim	s588	False
4.378	251.959	4.378	256.337	1	PA_with_intermediate	test	ward_and_allport	82	20.0	4.378	to_hand	poldrack-single-stim	s588	False
0.1	256.338	0.429	256.767	0	PA_with_intermediate	test	ward_and_allport	89	20.0	0.429	to_board	poldrack-single-stim	s588	False
0.1	256.772	1.378	258.15	0	PA_with_intermediate	test	ward_and_allport	82	20.0	1.378	to_hand	poldrack-single-stim	s588	False
0.1	258.151	0.465	258.616	0	PA_with_intermediate	test	ward_and_allport	71	20.0	0.465	to_board	poldrack-single-stim	s588	False
0.1	258.621	0.66	259.281	0	PA_with_intermediate	test	ward_and_allport	89	20.0	0.66	to_hand	poldrack-single-stim	s588	False
0.1	259.283	0.368	259.651	0	PA_with_intermediate	test	ward_and_allport	82	20.0	0.368	to_board	poldrack-single-stim	s588	False
1.0	259.658	2.136	259.657	0	PA_with_intermediate	test	ward_and_allport	-1	20.0	n/a	feedback	poldrack-single-stim	s588	False
3.842	261.802	3.842	265.644	1	PA_with_intermediate	test	ward_and_allport	71	21.0	3.842	to_hand	poldrack-single-stim	s588	False
0.1	265.646	0.543	266.189	0	PA_with_intermediate	test	ward_and_allport	82	21.0	0.543	to_board	poldrack-single-stim	s588	False
0.1	266.194	0.406	266.6	0	PA_with_intermediate	test	ward_and_allport	71	21.0	0.406	to_hand	poldrack-single-stim	s588	False
0.1	266.602	0.373	266.975	0	PA_with_intermediate	test	ward_and_allport	89	21.0	0.373	to_board	poldrack-single-stim	s588	False
0.1	266.98	0.42	267.4	0	PA_with_intermediate	test	ward_and_allport	82	21.0	0.42	to_hand	poldrack-single-stim	s588	False
0.1	267.401	0.447	267.848	0	PA_with_intermediate	test	ward_and_allport	71	21.0	0.447	to_board	poldrack-single-stim	s588	False
1.0	267.858	2.0	267.857	0	PA_with_intermediate	test	ward_and_allport	-1	21.0	n/a	feedback	poldrack-single-stim	s588	False
3.361	269.864	3.361	273.225	1	PA_with_intermediate	test	ward_and_allport	71	22.0	3.361	to_hand	poldrack-single-stim	s588	False
0.1	273.226	0.416	273.642	0	PA_with_intermediate	test	ward_and_allport	82	22.0	0.416	to_board	poldrack-single-stim	s588	False
0.1	273.647	0.474	274.121	0	PA_with_intermediate	test	ward_and_allport	71	22.0	0.474	to_hand	poldrack-single-stim	s588	False
0.1	274.123	0.418	274.541	0	PA_with_intermediate	test	ward_and_allport	89	22.0	0.418	to_board	poldrack-single-stim	s588	False
0.1	274.546	0.38	274.926	0	PA_with_intermediate	test	ward_and_allport	82	22.0	0.38	to_hand	poldrack-single-stim	s588	False
0.1	274.927	0.693	275.62	0	PA_with_intermediate	test	ward_and_allport	89	22.0	0.693	to_board	poldrack-single-stim	s588	False
1.0	275.629	2.0	275.628	0	PA_with_intermediate	test	ward_and_allport	-1	22.0	n/a	feedback	poldrack-single-stim	s588	False
2.72	277.636	2.72	280.356	1	PA_without_intermediate	test	ward_and_allport	71	23.0	2.72	to_hand	poldrack-single-stim	s588	False
0.1	280.357	0.439	280.796	0	PA_without_intermediate	test	ward_and_allport	89	23.0	0.439	to_board	poldrack-single-stim	s588	False
0.1	280.801	0.68	281.481	0	PA_without_intermediate	test	ward_and_allport	71	23.0	0.68	to_hand	poldrack-single-stim	s588	False
0.1	281.482	0.484	281.966	0	PA_without_intermediate	test	ward_and_allport	82	23.0	0.484	to_board	poldrack-single-stim	s588	False
0.1	281.972	0.669	282.641	0	PA_without_intermediate	test	ward_and_allport	71	23.0	0.669	to_hand	poldrack-single-stim	s588	False
0.1	282.642	0.334	282.976	0	PA_without_intermediate	test	ward_and_allport	89	23.0	0.334	to_board	poldrack-single-stim	s588	False
1.0	282.985	2.408	282.984	0	PA_without_intermediate	test	ward_and_allport	-1	23.0	n/a	feedback	poldrack-single-stim	s588	False
2.405	285.399	2.405	287.804	1	PA_with_intermediate	test	ward_and_allport	89	24.0	2.405	to_hand	poldrack-single-stim	s588	False
0.1	287.805	0.355	288.16	0	PA_with_intermediate	test	ward_and_allport	82	24.0	0.355	to_board	poldrack-single-stim	s588	False
0.1	288.165	0.569	288.734	0	PA_with_intermediate	test	ward_and_allport	89	24.0	0.569	to_hand	poldrack-single-stim	s588	False
0.1	288.736	0.39	289.126	0	PA_with_intermediate	test	ward_and_allport	71	24.0	0.39	to_board	poldrack-single-stim	s588	False
0.1	289.132	0.703	289.835	0	PA_with_intermediate	test	ward_and_allport	82	24.0	0.703	to_hand	poldrack-single-stim	s588	False
0.1	289.836	0.457	290.293	0	PA_with_intermediate	test	ward_and_allport	89	24.0	0.457	to_board	poldrack-single-stim	s588	False
1.0	290.299	3.768	290.298	0	PA_with_intermediate	test	ward_and_allport	-1	24.0	n/a	feedback	poldrack-single-stim	s588	False
3.5	294.073	3.5	297.573	1	PA_with_intermediate	test	ward_and_allport	89	25.0	3.5	to_hand	poldrack-single-stim	s588	False
0.1	297.575	0.412	297.987	0	PA_with_intermediate	test	ward_and_allport	71	25.0	0.412	to_board	poldrack-single-stim	s588	False
0.1	297.993	0.976	298.969	0	PA_with_intermediate	test	ward_and_allport	89	25.0	0.976	to_hand	poldrack-single-stim	s588	False
0.1	298.969	0.42	299.389	0	PA_with_intermediate	test	ward_and_allport	82	25.0	0.42	to_board	poldrack-single-stim	s588	False
0.1	299.395	0.745	300.14	0	PA_with_intermediate	test	ward_and_allport	71	25.0	0.745	to_hand	poldrack-single-stim	s588	False
0.1	300.141	0.483	300.624	0	PA_with_intermediate	test	ward_and_allport	89	25.0	0.483	to_board	poldrack-single-stim	s588	False
1.0	300.633	2.68	300.632	0	PA_with_intermediate	test	ward_and_allport	-1	25.0	n/a	feedback	poldrack-single-stim	s588	False
2.579	303.32	2.579	305.899	1	PA_without_intermediate	test	ward_and_allport	89	26.0	2.579	to_hand	poldrack-single-stim	s588	False
0.1	305.9	0.435	306.335	0	PA_without_intermediate	test	ward_and_allport	82	26.0	0.435	to_board	poldrack-single-stim	s588	False
0.1	306.343	1.155	307.498	0	PA_without_intermediate	test	ward_and_allport	89	26.0	1.155	to_hand	poldrack-single-stim	s588	False
0.1	307.499	0.371	307.87	0	PA_without_intermediate	test	ward_and_allport	71	26.0	0.371	to_board	poldrack-single-stim	s588	False
0.1	307.877	0.393	308.27	0	PA_without_intermediate	test	ward_and_allport	82	26.0	0.393	to_hand	poldrack-single-stim	s588	False
0.1	308.27	0.39	308.66	0	PA_without_intermediate	test	ward_and_allport	89	26.0	0.39	to_board	poldrack-single-stim	s588	False
0.1	308.667	3.369	312.036	0	PA_without_intermediate	test	ward_and_allport	89	26.0	3.369	to_hand	poldrack-single-stim	s588	False
0.1	312.037	1.601	313.638	0	PA_without_intermediate	test	ward_and_allport	82	26.0	1.601	to_board	poldrack-single-stim	s588	False
0.1	313.644	0.416	314.06	0	PA_without_intermediate	test	ward_and_allport	89	26.0	0.416	to_hand	poldrack-single-stim	s588	False
0.1	314.063	0.308	314.371	0	PA_without_intermediate	test	ward_and_allport	82	26.0	0.308	to_board	poldrack-single-stim	s588	False
1.0	314.38	3.224	314.379	0	PA_without_intermediate	test	ward_and_allport	-1	26.0	n/a	feedback	poldrack-single-stim	s588	False
3.263	317.611	3.263	320.874	1	PA_without_intermediate	test	ward_and_allport	71	27.0	3.263	to_hand	poldrack-single-stim	s588	False
0.1	320.874	0.637	321.511	0	PA_without_intermediate	test	ward_and_allport	82	27.0	0.637	to_board	poldrack-single-stim	s588	False
0.1	321.517	0.494	322.011	0	PA_without_intermediate	test	ward_and_allport	71	27.0	0.494	to_hand	poldrack-single-stim	s588	False
0.1	322.013	0.41	322.423	0	PA_without_intermediate	test	ward_and_allport	82	27.0	0.41	to_board	poldrack-single-stim	s588	False
0.1	322.429	0.634	323.063	0	PA_without_intermediate	test	ward_and_allport	71	27.0	0.634	to_hand	poldrack-single-stim	s588	False
0.1	323.065	0.379	323.444	0	PA_without_intermediate	test	ward_and_allport	89	27.0	0.379	to_board	poldrack-single-stim	s588	False
1.0	323.453	3.36	323.452	0	PA_without_intermediate	test	ward_and_allport	-1	27.0	n/a	feedback	poldrack-single-stim	s588	False
2.648	326.819	2.648	329.467	1	PA_without_intermediate	test	ward_and_allport	82	28.0	2.648	to_hand	poldrack-single-stim	s588	False
0.1	329.469	0.639	330.108	0	PA_without_intermediate	test	ward_and_allport	71	28.0	0.639	to_board	poldrack-single-stim	s588	False
0.1	330.114	1.161	331.275	0	PA_without_intermediate	test	ward_and_allport	82	28.0	1.161	to_hand	poldrack-single-stim	s588	False
0.1	331.276	0.395	331.671	0	PA_without_intermediate	test	ward_and_allport	89	28.0	0.395	to_board	poldrack-single-stim	s588	False
0.1	331.676	1.023	332.699	0	PA_without_intermediate	test	ward_and_allport	82	28.0	1.023	to_hand	poldrack-single-stim	s588	False
0.1	332.7	0.437	333.137	0	PA_without_intermediate	test	ward_and_allport	71	28.0	0.437	to_board	poldrack-single-stim	s588	False
1.0	333.148	2.0	333.147	0	PA_without_intermediate	test	ward_and_allport	-1	28.0	n/a	feedback	poldrack-single-stim	s588	False
2.108	335.155	2.108	337.263	1	PA_without_intermediate	test	ward_and_allport	71	29.0	2.108	to_hand	poldrack-single-stim	s588	False
0.1	337.264	0.365	337.629	0	PA_without_intermediate	test	ward_and_allport	89	29.0	0.365	to_board	poldrack-single-stim	s588	False
0.1	337.636	0.602	338.238	0	PA_without_intermediate	test	ward_and_allport	71	29.0	0.602	to_hand	poldrack-single-stim	s588	False
0.1	338.238	0.407	338.645	0	PA_without_intermediate	test	ward_and_allport	89	29.0	0.407	to_board	poldrack-single-stim	s588	False
0.1	338.653	0.698	339.351	0	PA_without_intermediate	test	ward_and_allport	71	29.0	0.698	to_hand	poldrack-single-stim	s588	False
0.1	339.352	0.316	339.668	0	PA_without_intermediate	test	ward_and_allport	82	29.0	0.316	to_board	poldrack-single-stim	s588	False
1.0	339.677	2.408	339.676	0	PA_without_intermediate	test	ward_and_allport	-1	29.0	n/a	feedback	poldrack-single-stim	s588	False
2.235	347.095	2.235	349.33	1	PA_with_intermediate	test	ward_and_allport	89	30.0	2.235	to_hand	poldrack-single-stim	s588	False
0.1	349.331	0.458	349.789	0	PA_with_intermediate	test	ward_and_allport	82	30.0	0.458	to_board	poldrack-single-stim	s588	False
0.1	349.795	0.575	350.37	0	PA_with_intermediate	test	ward_and_allport	89	30.0	0.575	to_hand	poldrack-single-stim	s588	False
0.1	350.371	0.689	351.06	0	PA_with_intermediate	test	ward_and_allport	71	30.0	0.689	to_board	poldrack-single-stim	s588	False
0.1	351.069	0.477	351.546	0	PA_with_intermediate	test	ward_and_allport	82	30.0	0.477	to_hand	poldrack-single-stim	s588	False
0.1	351.547	0.615	352.162	0	PA_with_intermediate	test	ward_and_allport	71	30.0	0.615	to_board	poldrack-single-stim	s588	False
1.0	352.171	2.136	352.17	0	PA_with_intermediate	test	ward_and_allport	-1	30.0	n/a	feedback	poldrack-single-stim	s588	False
2.228	354.314	2.228	356.542	1	PA_without_intermediate	test	ward_and_allport	71	31.0	2.228	to_hand	poldrack-single-stim	s588	False
0.1	356.543	0.591	357.134	0	PA_without_intermediate	test	ward_and_allport	82	31.0	0.591	to_board	poldrack-single-stim	s588	False
0.1	357.139	0.639	357.778	0	PA_without_intermediate	test	ward_and_allport	71	31.0	0.639	to_hand	poldrack-single-stim	s588	False
0.1	357.779	0.343	358.122	0	PA_without_intermediate	test	ward_and_allport	89	31.0	0.343	to_board	poldrack-single-stim	s588	False
0.1	358.128	0.451	358.579	0	PA_without_intermediate	test	ward_and_allport	71	31.0	0.451	to_hand	poldrack-single-stim	s588	False
0.1	358.58	0.381	358.961	0	PA_without_intermediate	test	ward_and_allport	82	31.0	0.381	to_board	poldrack-single-stim	s588	False
1.0	358.969	5.128	358.968	0	PA_without_intermediate	test	ward_and_allport	-1	31.0	n/a	feedback	poldrack-single-stim	s588	False
1.676	364.103	1.676	365.779	1	PA_without_intermediate	test	ward_and_allport	71	32.0	1.676	to_hand	poldrack-single-stim	s588	False
0.1	365.779	0.753	366.532	0	PA_without_intermediate	test	ward_and_allport	82	32.0	0.753	to_board	poldrack-single-stim	s588	False
0.1	366.54	0.446	366.986	0	PA_without_intermediate	test	ward_and_allport	71	32.0	0.446	to_hand	poldrack-single-stim	s588	False
0.1	366.987	0.403	367.39	0	PA_without_intermediate	test	ward_and_allport	89	32.0	0.403	to_board	poldrack-single-stim	s588	False
0.1	367.398	0.286	367.684	0	PA_without_intermediate	test	ward_and_allport	71	32.0	0.286	to_hand	poldrack-single-stim	s588	False
0.1	367.685	0.296	367.981	0	PA_without_intermediate	test	ward_and_allport	82	32.0	0.296	to_board	poldrack-single-stim	s588	False
1.0	367.988	2.136	367.987	0	PA_without_intermediate	test	ward_and_allport	-1	32.0	n/a	feedback	poldrack-single-stim	s588	False
2.195	370.133	2.195	372.328	1	PA_without_intermediate	test	ward_and_allport	89	33.0	2.195	to_hand	poldrack-single-stim	s588	False
0.1	372.328	0.569	372.897	0	PA_without_intermediate	test	ward_and_allport	82	33.0	0.569	to_board	poldrack-single-stim	s588	False
0.1	372.903	0.981	373.884	0	PA_without_intermediate	test	ward_and_allport	89	33.0	0.981	to_hand	poldrack-single-stim	s588	False
0.1	373.884	0.417	374.301	0	PA_without_intermediate	test	ward_and_allport	71	33.0	0.417	to_board	poldrack-single-stim	s588	False
0.1	374.307	0.469	374.776	0	PA_without_intermediate	test	ward_and_allport	89	33.0	0.469	to_hand	poldrack-single-stim	s588	False
0.1	374.776	0.837	375.613	0	PA_without_intermediate	test	ward_and_allport	82	33.0	0.837	to_board	poldrack-single-stim	s588	False
1.0	375.623	5.264	375.622	0	PA_without_intermediate	test	ward_and_allport	-1	33.0	n/a	feedback	poldrack-single-stim	s588	False
3.584	380.895	3.584	384.479	1	PA_with_intermediate	test	ward_and_allport	71	34.0	3.584	to_hand	poldrack-single-stim	s588	False
0.1	384.48	0.422	384.902	0	PA_with_intermediate	test	ward_and_allport	89	34.0	0.422	to_board	poldrack-single-stim	s588	False
0.1	384.91	0.327	385.237	0	PA_with_intermediate	test	ward_and_allport	71	34.0	0.327	to_hand	poldrack-single-stim	s588	False
0.1	385.238	0.448	385.686	0	PA_with_intermediate	test	ward_and_allport	82	34.0	0.448	to_board	poldrack-single-stim	s588	False
0.1	385.695	0.584	386.279	0	PA_with_intermediate	test	ward_and_allport	89	34.0	0.584	to_hand	poldrack-single-stim	s588	False
0.1	386.279	0.303	386.582	0	PA_with_intermediate	test	ward_and_allport	82	34.0	0.303	to_board	poldrack-single-stim	s588	False
1.0	386.591	4.04	386.59	0	PA_with_intermediate	test	ward_and_allport	-1	34.0	n/a	feedback	poldrack-single-stim	s588	False
2.868	390.636	2.868	393.504	1	PA_with_intermediate	test	ward_and_allport	82	35.0	2.868	to_hand	poldrack-single-stim	s588	False
0.1	393.505	0.425	393.93	0	PA_with_intermediate	test	ward_and_allport	89	35.0	0.425	to_board	poldrack-single-stim	s588	False
0.1	393.936	0.599	394.535	0	PA_with_intermediate	test	ward_and_allport	82	35.0	0.599	to_hand	poldrack-single-stim	s588	False
0.1	394.536	0.508	395.044	0	PA_with_intermediate	test	ward_and_allport	71	35.0	0.508	to_board	poldrack-single-stim	s588	False
0.1	395.051	0.452	395.503	0	PA_with_intermediate	test	ward_and_allport	89	35.0	0.452	to_hand	poldrack-single-stim	s588	False
0.1	395.505	0.349	395.854	0	PA_with_intermediate	test	ward_and_allport	71	35.0	0.349	to_board	poldrack-single-stim	s588	False
1.0	395.865	2.136	395.864	0	PA_with_intermediate	test	ward_and_allport	-1	35.0	n/a	feedback	poldrack-single-stim	s588	False
2.806	398.009	2.806	400.815	1	PA_with_intermediate	test	ward_and_allport	89	36.0	2.806	to_hand	poldrack-single-stim	s588	False
0.1	400.816	0.339	401.155	0	PA_with_intermediate	test	ward_and_allport	71	36.0	0.339	to_board	poldrack-single-stim	s588	False
0.1	401.162	0.719	401.881	0	PA_with_intermediate	test	ward_and_allport	89	36.0	0.719	to_hand	poldrack-single-stim	s588	False
0.1	401.882	0.372	402.254	0	PA_with_intermediate	test	ward_and_allport	82	36.0	0.372	to_board	poldrack-single-stim	s588	False
0.1	402.261	0.646	402.907	0	PA_with_intermediate	test	ward_and_allport	71	36.0	0.646	to_hand	poldrack-single-stim	s588	False
0.1	402.908	0.292	403.2	0	PA_with_intermediate	test	ward_and_allport	82	36.0	0.292	to_board	poldrack-single-stim	s588	False
1.0	403.211	2.408	403.21	0	PA_with_intermediate	test	ward_and_allport	-1	36.0	n/a	feedback	poldrack-single-stim	s588	False
2.143	405.626	2.143	407.769	1	PA_without_intermediate	test	ward_and_allport	89	37.0	2.143	to_hand	poldrack-single-stim	s588	False
0.1	407.769	0.377	408.146	0	PA_without_intermediate	test	ward_and_allport	82	37.0	0.377	to_board	poldrack-single-stim	s588	False
0.1	408.155	0.639	408.794	0	PA_without_intermediate	test	ward_and_allport	89	37.0	0.639	to_hand	poldrack-single-stim	s588	False
0.1	408.795	0.37	409.165	0	PA_without_intermediate	test	ward_and_allport	82	37.0	0.37	to_board	poldrack-single-stim	s588	False
0.1	409.173	1.446	410.619	0	PA_without_intermediate	test	ward_and_allport	89	37.0	1.446	to_hand	poldrack-single-stim	s588	False
0.1	410.62	0.325	410.945	0	PA_without_intermediate	test	ward_and_allport	71	37.0	0.325	to_board	poldrack-single-stim	s588	False
1.0	410.955	2.68	410.954	0	PA_without_intermediate	test	ward_and_allport	-1	37.0	n/a	feedback	poldrack-single-stim	s588	False
2.751	413.641	2.751	416.392	1	PA_with_intermediate	test	ward_and_allport	71	38.0	2.751	to_hand	poldrack-single-stim	s588	False
0.1	416.392	0.355	416.747	0	PA_with_intermediate	test	ward_and_allport	82	38.0	0.355	to_board	poldrack-single-stim	s588	False
0.1	416.754	0.68	417.434	0	PA_with_intermediate	test	ward_and_allport	71	38.0	0.68	to_hand	poldrack-single-stim	s588	False
0.1	417.434	0.333	417.767	0	PA_with_intermediate	test	ward_and_allport	89	38.0	0.333	to_board	poldrack-single-stim	s588	False
0.1	417.777	0.414	418.191	0	PA_with_intermediate	test	ward_and_allport	82	38.0	0.414	to_hand	poldrack-single-stim	s588	False
0.1	418.192	0.365	418.557	0	PA_with_intermediate	test	ward_and_allport	89	38.0	0.365	to_board	poldrack-single-stim	s588	False
1.0	418.569	4.72	418.568	0	PA_with_intermediate	test	ward_and_allport	-1	38.0	n/a	feedback	poldrack-single-stim	s588	False
2.621	423.297	2.621	425.918	1	PA_without_intermediate	test	ward_and_allport	89	39.0	2.621	to_hand	poldrack-single-stim	s588	False
0.1	425.918	0.362	426.28	0	PA_without_intermediate	test	ward_and_allport	71	39.0	0.362	to_board	poldrack-single-stim	s588	False
0.1	426.289	0.4	426.689	0	PA_without_intermediate	test	ward_and_allport	89	39.0	0.4	to_hand	poldrack-single-stim	s588	False
0.1	426.691	0.385	427.076	0	PA_without_intermediate	test	ward_and_allport	71	39.0	0.385	to_board	poldrack-single-stim	s588	False
0.1	427.085	0.366	427.451	0	PA_without_intermediate	test	ward_and_allport	89	39.0	0.366	to_hand	poldrack-single-stim	s588	False
0.1	427.452	0.282	427.734	0	PA_without_intermediate	test	ward_and_allport	82	39.0	0.282	to_board	poldrack-single-stim	s588	False
1.0	427.745	3.224	427.744	0	PA_without_intermediate	test	ward_and_allport	-1	39.0	n/a	feedback	poldrack-single-stim	s588	False
2.492	430.976	2.492	433.468	1	PA_without_intermediate	test	ward_and_allport	89	40.0	2.492	to_hand	poldrack-single-stim	s588	False
0.1	433.469	0.367	433.836	0	PA_without_intermediate	test	ward_and_allport	71	40.0	0.367	to_board	poldrack-single-stim	s588	False
0.1	433.842	0.632	434.474	0	PA_without_intermediate	test	ward_and_allport	89	40.0	0.632	to_hand	poldrack-single-stim	s588	False
0.1	434.476	0.341	434.817	0	PA_without_intermediate	test	ward_and_allport	71	40.0	0.341	to_board	poldrack-single-stim	s588	False
0.1	434.827	0.483	435.31	0	PA_without_intermediate	test	ward_and_allport	89	40.0	0.483	to_hand	poldrack-single-stim	s588	False
0.1	435.311	0.352	435.663	0	PA_without_intermediate	test	ward_and_allport	82	40.0	0.352	to_board	poldrack-single-stim	s588	False
1.0	435.672	2.272	435.671	0	PA_without_intermediate	test	ward_and_allport	-1	40.0	n/a	feedback	poldrack-single-stim	s588	False
3.623	437.952	3.623	441.575	1	PA_with_intermediate	test	ward_and_allport	71	41.0	3.623	to_hand	poldrack-single-stim	s588	False
0.1	441.575	1.154	442.729	0	PA_with_intermediate	test	ward_and_allport	89	41.0	1.154	to_board	poldrack-single-stim	s588	False
0.1	442.736	0.782	443.518	0	PA_with_intermediate	test	ward_and_allport	71	41.0	0.782	to_hand	poldrack-single-stim	s588	False
0.1	443.52	0.339	443.859	0	PA_with_intermediate	test	ward_and_allport	82	41.0	0.339	to_board	poldrack-single-stim	s588	False
0.1	443.867	0.402	444.269	0	PA_with_intermediate	test	ward_and_allport	89	41.0	0.402	to_hand	poldrack-single-stim	s588	False
0.1	444.27	0.269	444.539	0	PA_with_intermediate	test	ward_and_allport	71	41.0	0.269	to_board	poldrack-single-stim	s588	False
1.0	444.553	3.632	444.552	0	PA_with_intermediate	test	ward_and_allport	-1	41.0	n/a	feedback	poldrack-single-stim	s588	False
2.539	448.194	2.539	450.733	1	PA_without_intermediate	test	ward_and_allport	82	42.0	2.539	to_hand	poldrack-single-stim	s588	False
0.1	450.734	0.424	451.158	0	PA_without_intermediate	test	ward_and_allport	89	42.0	0.424	to_board	poldrack-single-stim	s588	False
0.1	451.165	2.782	453.947	0	PA_without_intermediate	test	ward_and_allport	82	42.0	2.782	to_hand	poldrack-single-stim	s588	False
0.1	453.948	0.485	454.433	0	PA_without_intermediate	test	ward_and_allport	71	42.0	0.485	to_board	poldrack-single-stim	s588	False
0.1	454.441	0.453	454.894	0	PA_without_intermediate	test	ward_and_allport	82	42.0	0.453	to_hand	poldrack-single-stim	s588	False
0.1	454.895	0.351	455.246	0	PA_without_intermediate	test	ward_and_allport	89	42.0	0.351	to_board	poldrack-single-stim	s588	False
1.0	455.256	2.408	455.255	0	PA_without_intermediate	test	ward_and_allport	-1	42.0	n/a	feedback	poldrack-single-stim	s588	False
5.44	457.673	5.44	463.113	1	PA_without_intermediate	test	ward_and_allport	89	43.0	5.44	to_hand	poldrack-single-stim	s588	False
0.1	463.114	0.331	463.445	0	PA_without_intermediate	test	ward_and_allport	71	43.0	0.331	to_board	poldrack-single-stim	s588	False
0.1	463.455	0.568	464.023	0	PA_without_intermediate	test	ward_and_allport	89	43.0	0.568	to_hand	poldrack-single-stim	s588	False
0.1	464.025	0.29	464.315	0	PA_without_intermediate	test	ward_and_allport	82	43.0	0.29	to_board	poldrack-single-stim	s588	False
0.1	464.324	1.046	465.37	0	PA_without_intermediate	test	ward_and_allport	89	43.0	1.046	to_hand	poldrack-single-stim	s588	False
0.1	465.371	0.267	465.638	0	PA_without_intermediate	test	ward_and_allport	71	43.0	0.267	to_board	poldrack-single-stim	s588	False
1.0	465.652	2.0	465.651	0	PA_without_intermediate	test	ward_and_allport	-1	43.0	n/a	feedback	poldrack-single-stim	s588	False
3.061	467.66	3.061	470.721	1	PA_with_intermediate	test	ward_and_allport	89	44.0	3.061	to_hand	poldrack-single-stim	s588	False
0.1	470.722	0.319	471.041	0	PA_with_intermediate	test	ward_and_allport	71	44.0	0.319	to_board	poldrack-single-stim	s588	False
0.1	471.048	0.535	471.583	0	PA_with_intermediate	test	ward_and_allport	89	44.0	0.535	to_hand	poldrack-single-stim	s588	False
0.1	471.584	0.502	472.086	0	PA_with_intermediate	test	ward_and_allport	82	44.0	0.502	to_board	poldrack-single-stim	s588	False
0.1	472.095	0.407	472.502	0	PA_with_intermediate	test	ward_and_allport	71	44.0	0.407	to_hand	poldrack-single-stim	s588	False
0.1	472.503	0.313	472.816	0	PA_with_intermediate	test	ward_and_allport	89	44.0	0.313	to_board	poldrack-single-stim	s588	False
1.0	472.827	2.0	472.826	0	PA_with_intermediate	test	ward_and_allport	-1	44.0	n/a	feedback	poldrack-single-stim	s588	False
3.352	479.84	3.352	483.192	1	PA_with_intermediate	test	ward_and_allport	71	45.0	3.352	to_hand	poldrack-single-stim	s588	False
0.1	483.192	0.446	483.638	0	PA_with_intermediate	test	ward_and_allport	89	45.0	0.446	to_board	poldrack-single-stim	s588	False
0.1	483.65	0.352	484.002	0	PA_with_intermediate	test	ward_and_allport	71	45.0	0.352	to_hand	poldrack-single-stim	s588	False
0.1	484.002	0.465	484.467	0	PA_with_intermediate	test	ward_and_allport	82	45.0	0.465	to_board	poldrack-single-stim	s588	False
0.1	484.477	0.574	485.051	0	PA_with_intermediate	test	ward_and_allport	89	45.0	0.574	to_hand	poldrack-single-stim	s588	False
0.1	485.052	0.36	485.412	0	PA_with_intermediate	test	ward_and_allport	82	45.0	0.36	to_board	poldrack-single-stim	s588	False
1.0	485.425	2.0	485.424	0	PA_with_intermediate	test	ward_and_allport	-1	45.0	n/a	feedback	poldrack-single-stim	s588	False
2.393	487.434	2.393	489.827	1	PA_with_intermediate	test	ward_and_allport	89	46.0	2.393	to_hand	poldrack-single-stim	s588	False
0.1	489.828	0.416	490.244	0	PA_with_intermediate	test	ward_and_allport	82	46.0	0.416	to_board	poldrack-single-stim	s588	False
0.1	490.251	0.46	490.711	0	PA_with_intermediate	test	ward_and_allport	89	46.0	0.46	to_hand	poldrack-single-stim	s588	False
0.1	490.712	0.41	491.122	0	PA_with_intermediate	test	ward_and_allport	71	46.0	0.41	to_board	poldrack-single-stim	s588	False
0.1	491.13	0.369	491.499	0	PA_with_intermediate	test	ward_and_allport	82	46.0	0.369	to_hand	poldrack-single-stim	s588	False
0.1	491.499	0.451	491.95	0	PA_with_intermediate	test	ward_and_allport	89	46.0	0.451	to_board	poldrack-single-stim	s588	False
1.0	491.958	2.408	491.957	0	PA_with_intermediate	test	ward_and_allport	-1	46.0	n/a	feedback	poldrack-single-stim	s588	False
2.602	494.375	2.602	496.977	1	PA_without_intermediate	test	ward_and_allport	82	47.0	2.602	to_hand	poldrack-single-stim	s588	False
0.1	496.978	0.457	497.435	0	PA_without_intermediate	test	ward_and_allport	89	47.0	0.457	to_board	poldrack-single-stim	s588	False
0.1	497.442	0.822	498.264	0	PA_without_intermediate	test	ward_and_allport	82	47.0	0.822	to_hand	poldrack-single-stim	s588	False
0.1	498.265	0.363	498.628	0	PA_without_intermediate	test	ward_and_allport	89	47.0	0.363	to_board	poldrack-single-stim	s588	False
0.1	498.635	0.715	499.35	0	PA_without_intermediate	test	ward_and_allport	82	47.0	0.715	to_hand	poldrack-single-stim	s588	False
0.1	499.35	0.56	499.91	0	PA_without_intermediate	test	ward_and_allport	71	47.0	0.56	to_board	poldrack-single-stim	s588	False
1.0	499.921	2.816	499.92	0	PA_without_intermediate	test	ward_and_allport	-1	47.0	n/a	feedback	poldrack-single-stim	s588	False
