onset	duration	movement_onset	EV	action	block_duration	experiment_exp_id	gain_amount	gain_probability	key_press	loss_amount	loss_probability	num_cards	num_click_in_round	num_loss_cards	risk	response_time	total_cards	trial_id	trial_type	worker_id	junk	feedback
3.013	2.709	5.722	-0.164361220844623	draw_card	2.709	columbia_card_task_fmri	12.0	0.8333333333333334	89.0	-70.0	0.1666666666666666	6.0	1.0	1.0	-1.7844874764985228	2.709	1.0	stim	poldrack-single-stim	s588	False	0
6.479	1.5	5.728	n/a	-1.0	2.318	columbia_card_task_fmri	n/a	n/a	-1.0	n/a	n/a	n/a	n/a	n/a	n/a	n/a	n/a	ITI	poldrack-single-stim	s588	False	0
8.049	1.295	9.344	0.6689721124887109	draw_card	1.295	columbia_card_task_fmri	14.0	0.8333333333333334	89.0	-75.0	0.1666666666666666	6.0	1.0	1.0	0.8213590128012314	1.295	1.0	stim	poldrack-single-stim	s588	False	0
10.1	1.5	9.349	n/a	-1.0	2.318	columbia_card_task_fmri	n/a	n/a	-1.0	n/a	n/a	n/a	n/a	n/a	n/a	n/a	n/a	ITI	poldrack-single-stim	s588	False	0
11.67	5.41	17.08	2.335638779155377	draw_card	5.41	columbia_card_task_fmri	15.0	0.8333333333333334	89.0	-70.0	0.1666666666666666	6.0	1.0	1.0	-0.667754502774546	5.41	n/a	stim	poldrack-single-stim	s588	False	1
17.081	3.305	20.386	-0.4976945541779569	draw_card	3.305	columbia_card_task_fmri	15.0	0.8	89.0	-70.0	0.2	6.0	2.0	1.0	1.6521863918467758	3.305	n/a	stim	poldrack-single-stim	s588	False	1
20.388	3.774	24.162	-4.747694554177957	draw_card	3.774	columbia_card_task_fmri	15.0	0.75	89.0	-70.0	0.25	6.0	3.0	1.0	4.455739084225854	3.774	n/a	stim	poldrack-single-stim	s588	False	1
24.162	0.782	24.944	-11.831027887511286	end_round	0.782	columbia_card_task_fmri	15.0	0.6666666666666667	71.0	-70.0	0.3333333333333333	6.0	4.0	1.0	7.716549598080292	0.782	3.0	stim	poldrack-single-stim	s588	False	1
25.701	1.5	24.95	n/a	-1.0	2.862	columbia_card_task_fmri	n/a	n/a	-1.0	n/a	n/a	n/a	n/a	n/a	n/a	n/a	n/a	ITI	poldrack-single-stim	s588	False	0
27.814	4.282	32.096	3.168972112488711	draw_card	4.282	columbia_card_task_fmri	17.0	0.8333333333333334	89.0	-75.0	0.1666666666666666	6.0	1.0	1.0	1.9382852303138025	4.282	n/a	stim	poldrack-single-stim	s588	False	1
32.097	1.523	33.62	0.1023054458220444	draw_card	1.523	columbia_card_task_fmri	17.0	0.8	89.0	-75.0	0.2	6.0	2.0	1.0	4.449664482287624	1.523	n/a	stim	poldrack-single-stim	s588	False	1
33.622	3.29	36.912	-4.497694554177957	draw_card	3.29	columbia_card_task_fmri	17.0	0.75	89.0	-75.0	0.25	6.0	3.0	1.0	7.484497894668209	3.29	n/a	stim	poldrack-single-stim	s588	False	1
36.913	0.927	37.84	-12.164361220844622	draw_card	0.927	columbia_card_task_fmri	17.0	0.6666666666666667	89.0	-75.0	0.3333333333333333	6.0	4.0	1.0	11.014240521113202	0.927	4.0	stim	poldrack-single-stim	s588	False	0
38.595	1.5	37.844	n/a	-1.0	2.726	columbia_card_task_fmri	n/a	n/a	-1.0	n/a	n/a	n/a	n/a	n/a	n/a	n/a	n/a	ITI	poldrack-single-stim	s588	False	0
40.573	3.18	43.753	4.502305445822043	draw_card	3.18	columbia_card_task_fmri	24.0	0.75	89.0	-60.0	0.25	8.0	1.0	2.0	4.023090917074597	3.18	n/a	stim	poldrack-single-stim	s588	False	1
43.755	3.658	47.413	1.502305445822043	draw_card	3.658	columbia_card_task_fmri	24.0	0.7142857142857143	89.0	-60.0	0.2857142857142857	8.0	2.0	2.0	5.596070384442406	3.658	n/a	stim	poldrack-single-stim	s588	False	1
47.415	1.391	48.806	-2.497694554177957	end_round	1.391	columbia_card_task_fmri	24.0	0.6666666666666667	71.0	-60.0	0.3333333333333333	8.0	3.0	2.0	7.245479989897738	1.391	2.0	stim	poldrack-single-stim	s588	False	1
49.562	1.5	48.811	n/a	-1.0	2.25	columbia_card_task_fmri	n/a	n/a	-1.0	n/a	n/a	n/a	n/a	n/a	n/a	n/a	n/a	ITI	poldrack-single-stim	s588	False	0
51.063	2.581	53.644	4.502305445822043	draw_card	2.581	columbia_card_task_fmri	29.0	0.75	89.0	-75.0	0.25	8.0	1.0	2.0	12.677384932729588	2.581	1.0	stim	poldrack-single-stim	s588	False	0
54.4	1.5	53.649	n/a	-1.0	2.318	columbia_card_task_fmri	n/a	n/a	-1.0	n/a	n/a	n/a	n/a	n/a	n/a	n/a	n/a	ITI	poldrack-single-stim	s588	False	0
55.97	2.516	58.486	0.2800832235998234	draw_card	2.516	columbia_card_task_fmri	17.0	0.7777777777777778	89.0	-65.0	0.2222222222222222	9.0	1.0	2.0	1.742754449970377	2.516	1.0	stim	poldrack-single-stim	s588	False	0
59.241	1.5	58.49	n/a	-1.0	2.454	columbia_card_task_fmri	n/a	n/a	-1.0	n/a	n/a	n/a	n/a	n/a	n/a	n/a	n/a	ITI	poldrack-single-stim	s588	False	0
60.947	2.202	63.149	4.602305445822043	draw_card	2.202	columbia_card_task_fmri	14.0	0.9	89.0	-95.0	0.1	10.0	1.0	1.0	0.3535038664336412	2.202	n/a	stim	poldrack-single-stim	s588	False	1
63.151	0.574	63.725	3.3911943347109306	draw_card	0.574	columbia_card_task_fmri	14.0	0.8888888888888888	89.0	-95.0	0.1111111111111111	10.0	2.0	1.0	1.9073344762115736	0.574	n/a	stim	poldrack-single-stim	s588	False	1
63.727	1.874	65.601	1.877305445822043	draw_card	1.874	columbia_card_task_fmri	14.0	0.875	89.0	-95.0	0.125	10.0	3.0	1.0	3.6986646652184314	1.874	n/a	stim	poldrack-single-stim	s588	False	1
65.603	1.889	67.492	-0.0691231256065281	draw_card	1.889	columbia_card_task_fmri	14.0	0.8571428571428572	89.0	-95.0	0.1428571428571428	10.0	4.0	1.0	5.790641389908693	1.889	n/a	stim	poldrack-single-stim	s588	False	1
67.493	0.994	68.487	-2.664361220844621	draw_card	0.994	columbia_card_task_fmri	14.0	0.8333333333333334	89.0	-95.0	0.1666666666666666	10.0	5.0	1.0	8.268684266473613	0.994	n/a	stim	poldrack-single-stim	s588	False	1
68.489	0.443	68.932	-6.297694554177956	end_round	0.443	columbia_card_task_fmri	14.0	0.8	71.0	-95.0	0.2	10.0	6.0	1.0	11.244887002859436	0.443	5.0	stim	poldrack-single-stim	s588	False	1
69.688	1.5	68.937	n/a	-1.0	2.522	columbia_card_task_fmri	n/a	n/a	-1.0	n/a	n/a	n/a	n/a	n/a	n/a	n/a	n/a	ITI	poldrack-single-stim	s588	False	0
71.461	2.578	74.039	0.5023054458220431	draw_card	2.578	columbia_card_task_fmri	15.0	0.8	89.0	-65.0	0.2	10.0	1.0	2.0	-0.3457424572786252	2.578	n/a	stim	poldrack-single-stim	s588	False	1
74.039	0.483	74.522	-1.2754723319557335	draw_card	0.483	columbia_card_task_fmri	15.0	0.7777777777777778	89.0	-65.0	0.2222222222222222	10.0	2.0	2.0	0.9121013411204686	0.483	2.0	stim	poldrack-single-stim	s588	False	0
75.274	1.5	74.523	n/a	-1.0	2.318	columbia_card_task_fmri	n/a	n/a	-1.0	n/a	n/a	n/a	n/a	n/a	n/a	n/a	n/a	ITI	poldrack-single-stim	s588	False	0
76.844	4.178	81.022	2.1023054458220445	draw_card	4.178	columbia_card_task_fmri	17.0	0.8	89.0	-65.0	0.2	10.0	1.0	2.0	0.4533988202800216	4.178	n/a	stim	poldrack-single-stim	s588	False	1
81.024	1.283	82.307	0.2800832235998234	draw_card	1.283	columbia_card_task_fmri	17.0	0.7777777777777778	89.0	-65.0	0.2222222222222222	10.0	2.0	2.0	1.742754449970377	1.283	n/a	stim	poldrack-single-stim	s588	False	1
82.308	3.391	85.699	-1.997694554177957	draw_card	3.391	columbia_card_task_fmri	17.0	0.75	89.0	-65.0	0.25	10.0	3.0	2.0	3.157821220995814	3.391	3.0	stim	poldrack-single-stim	s588	False	0
86.454	1.5	85.703	n/a	-1.0	2.522	columbia_card_task_fmri	n/a	n/a	-1.0	n/a	n/a	n/a	n/a	n/a	n/a	n/a	n/a	ITI	poldrack-single-stim	s588	False	0
88.228	3.414	91.642	0.6689721124887109	draw_card	3.414	columbia_card_task_fmri	13.0	0.8333333333333334	89.0	-70.0	0.1666666666666666	12.0	1.0	2.0	-1.412253583466132	3.414	n/a	stim	poldrack-single-stim	s588	False	1
91.643	1.244	92.887	-0.5886036450870504	draw_card	1.244	columbia_card_task_fmri	13.0	0.8181818181818181	89.0	-70.0	0.1818181818181818	12.0	2.0	2.0	-0.3331039145918026	1.244	n/a	stim	poldrack-single-stim	s588	False	1
92.888	2.043	94.931	-2.0976945541779566	draw_card	2.043	columbia_card_task_fmri	13.0	0.8	89.0	-70.0	0.2	12.0	3.0	2.0	0.8529849539587246	2.043	n/a	stim	poldrack-single-stim	s588	False	1
94.932	1.408	96.34	-3.9421389986224016	draw_card	1.408	columbia_card_task_fmri	13.0	0.7777777777777778	89.0	-70.0	0.2222222222222222	12.0	4.0	2.0	2.1580959161736644	1.408	n/a	stim	poldrack-single-stim	s588	False	1
96.343	2.893	99.236	-6.247694554177957	end_round	2.893	columbia_card_task_fmri	13.0	0.75	71.0	-70.0	0.25	12.0	5.0	2.0	3.5904515225359432	2.893	4.0	stim	poldrack-single-stim	s588	False	1
99.99	1.5	99.239	n/a	-1.0	2.998	columbia_card_task_fmri	n/a	n/a	-1.0	n/a	n/a	n/a	n/a	n/a	n/a	n/a	n/a	ITI	poldrack-single-stim	s588	False	0
102.24	1.698	103.938	0.6689721124887109	draw_card	1.698	columbia_card_task_fmri	15.0	0.8333333333333334	89.0	-80.0	0.1666666666666666	12.0	1.0	2.0	3.0552813148626115	1.698	1.0	stim	poldrack-single-stim	s588	False	0
104.691	1.5	103.94	n/a	-1.0	2.318	columbia_card_task_fmri	n/a	n/a	-1.0	n/a	n/a	n/a	n/a	n/a	n/a	n/a	n/a	ITI	poldrack-single-stim	s588	False	0
106.261	1.085	107.346	-0.2976945541779559	draw_card	1.085	columbia_card_task_fmri	14.0	0.8	89.0	-65.0	0.2	15.0	1.0	3.0	-0.7452968183329958	1.085	n/a	stim	poldrack-single-stim	s588	False	1
107.347	1.819	109.166	-1.426265982749384	draw_card	1.819	columbia_card_task_fmri	14.0	0.7857142857142857	89.0	-65.0	0.2142857142857142	15.0	2.0	3.0	0.0695523604524481	1.819	n/a	stim	poldrack-single-stim	s588	False	1
109.168	1.435	110.603	-2.7284637849471887	draw_card	1.435	columbia_card_task_fmri	14.0	0.7692307692307692	89.0	-65.0	0.2307692307692307	15.0	3.0	3.0	0.9375771084040424	1.435	3.0	stim	poldrack-single-stim	s588	False	0
111.357	1.5	110.606	n/a	-1.0	2.25	columbia_card_task_fmri	n/a	n/a	-1.0	n/a	n/a	n/a	n/a	n/a	n/a	n/a	n/a	ITI	poldrack-single-stim	s588	False	0
112.859	3.354	116.213	-0.3726945541779569	draw_card	3.354	columbia_card_task_fmri	1.0	0.9375	89.0	-45.0	0.0625	16.0	1.0	1.0	-21.14527222200896	3.354	n/a	stim	poldrack-single-stim	s588	False	1
116.215	2.589	118.804	-0.5643612208446234	draw_card	2.589	columbia_card_task_fmri	1.0	0.9333333333333332	89.0	-45.0	0.0666666666666666	16.0	2.0	1.0	-20.808643525466405	2.589	n/a	stim	poldrack-single-stim	s588	False	1
118.807	4.321	123.128	-0.7834088398922425	draw_card	4.321	columbia_card_task_fmri	1.0	0.9285714285714286	89.0	-45.0	0.0714285714285714	16.0	3.0	1.0	-20.439301620016515	4.321	n/a	stim	poldrack-single-stim	s588	False	1
123.13	0.843	123.973	-1.0361560926394953	draw_card	0.843	columbia_card_task_fmri	1.0	0.9230769230769232	89.0	-45.0	0.0769230769230769	16.0	4.0	1.0	-20.03167806049417	0.843	n/a	stim	poldrack-single-stim	s588	False	1
123.975	0.948	124.923	-1.3310278875112904	draw_card	0.948	columbia_card_task_fmri	1.0	0.9166666666666666	89.0	-45.0	0.0833333333333333	16.0	5.0	1.0	-19.578807534928703	0.948	n/a	stim	poldrack-single-stim	s588	False	1
124.925	2.236	127.161	-1.6795127359961386	draw_card	2.236	columbia_card_task_fmri	1.0	0.9090909090909092	89.0	-45.0	0.0909090909090909	16.0	6.0	1.0	-19.0718569469108	2.236	n/a	stim	poldrack-single-stim	s588	False	1
127.164	0.848	128.012	-2.097694554177957	end_round	0.848	columbia_card_task_fmri	1.0	0.9	71.0	-45.0	0.1	16.0	7.0	1.0	-18.499455773270785	0.848	6.0	stim	poldrack-single-stim	s588	False	1
128.769	1.5	128.018	n/a	-1.0	2.454	columbia_card_task_fmri	n/a	n/a	-1.0	n/a	n/a	n/a	n/a	n/a	n/a	n/a	n/a	ITI	poldrack-single-stim	s588	False	0
130.476	4.085	134.561	0.5648054458220431	draw_card	4.085	columbia_card_task_fmri	15.0	0.8125	89.0	-70.0	0.1875	16.0	1.0	3.0	0.829560806495607	4.085	n/a	stim	poldrack-single-stim	s588	False	1
134.562	2.429	136.991	-0.4976945541779569	draw_card	2.429	columbia_card_task_fmri	15.0	0.8	89.0	-70.0	0.2	16.0	2.0	3.0	1.6521863918467758	2.429	n/a	stim	poldrack-single-stim	s588	False	1
136.993	0.753	137.746	-1.7119802684636722	end_round	0.753	columbia_card_task_fmri	15.0	0.7857142857142857	71.0	-70.0	0.2142857142857142	16.0	3.0	3.0	2.529054133826726	0.753	2.0	stim	poldrack-single-stim	s588	False	1
138.5	1.5	137.749	n/a	-1.0	2.318	columbia_card_task_fmri	n/a	n/a	-1.0	n/a	n/a	n/a	n/a	n/a	n/a	n/a	n/a	ITI	poldrack-single-stim	s588	False	0
140.07	2.726	142.796	7.502305445822043	draw_card	2.726	columbia_card_task_fmri	30.0	0.7	89.0	-50.0	0.3	10.0	1.0	3.0	4.31038649207153	2.726	1.0	stim	poldrack-single-stim	s588	False	0
143.552	1.5	142.801	n/a	-1.0	2.318	columbia_card_task_fmri	n/a	n/a	-1.0	n/a	n/a	n/a	n/a	n/a	n/a	n/a	n/a	ITI	poldrack-single-stim	s588	False	0
145.122	2.46	147.582	6.902305445822043	draw_card	2.46	columbia_card_task_fmri	17.0	0.8666666666666667	89.0	-70.0	0.1333333333333333	15.0	1.0	2.0	-2.768542064034534	2.46	n/a	stim	poldrack-single-stim	s588	False	1
147.584	3.021	150.605	6.073734017250616	draw_card	3.021	columbia_card_task_fmri	17.0	0.8571428571428572	89.0	-70.0	0.1428571428571428	15.0	2.0	2.0	-1.900284566538307	3.021	n/a	stim	poldrack-single-stim	s588	False	1
150.607	4.456	155.063	5.117690061206658	draw_card	4.456	columbia_card_task_fmri	17.0	0.8461538461538461	89.0	-70.0	0.1538461538461538	15.0	3.0	2.0	-0.955352512748508	4.456	n/a	stim	poldrack-single-stim	s588	False	1
155.064	0.786	155.85	4.002305445822045	end_round	0.786	columbia_card_task_fmri	17.0	0.8333333333333334	71.0	-70.0	0.1666666666666666	15.0	4.0	2.0	0.0767839113378272	0.786	3.0	stim	poldrack-single-stim	s588	False	1
156.603	1.5	155.852	n/a	-1.0	2.59	columbia_card_task_fmri	n/a	n/a	-1.0	n/a	n/a	n/a	n/a	n/a	n/a	n/a	n/a	ITI	poldrack-single-stim	s588	False	0
158.444	1.512	159.956	2.127305445822043	draw_card	1.512	columbia_card_task_fmri	7.0	0.9375	89.0	-95.0	0.0625	16.0	1.0	1.0	-7.645056161226677	1.512	1.0	stim	poldrack-single-stim	s588	False	0
160.714	1.5	159.963	n/a	-1.0	2.25	columbia_card_task_fmri	n/a	n/a	-1.0	n/a	n/a	n/a	n/a	n/a	n/a	n/a	n/a	ITI	poldrack-single-stim	s588	False	0
162.216	4.749	166.965	3.689805445822043	draw_card	4.749	columbia_card_task_fmri	9.0	0.9375	89.0	-100.0	0.0625	16.0	1.0	1.0	-5.9535534943975925	4.749	1.0	stim	poldrack-single-stim	s588	False	0
167.719	1.5	166.968	n/a	-1.0	2.25	columbia_card_task_fmri	n/a	n/a	-1.0	n/a	n/a	n/a	n/a	n/a	n/a	n/a	n/a	ITI	poldrack-single-stim	s588	False	0
169.222	2.781	172.003	4.627305445822043	draw_card	2.781	columbia_card_task_fmri	15.0	0.875	89.0	-80.0	0.125	16.0	1.0	2.0	-0.9267938227262746	2.781	n/a	stim	poldrack-single-stim	s588	False	1
172.005	4.584	176.589	3.835638779155377	draw_card	4.584	columbia_card_task_fmri	15.0	0.8666666666666667	89.0	-80.0	0.1333333333333333	16.0	2.0	2.0	-0.0522724951273971	4.584	n/a	stim	poldrack-single-stim	s588	False	1
176.59	0.691	177.281	2.9308768743934737	end_round	0.691	columbia_card_task_fmri	15.0	0.8571428571428572	71.0	-80.0	0.1428571428571428	16.0	3.0	2.0	0.8960160593837614	0.691	2.0	stim	poldrack-single-stim	s588	False	1
178.037	1.5	177.286	n/a	-1.0	2.522	columbia_card_task_fmri	n/a	n/a	-1.0	n/a	n/a	n/a	n/a	n/a	n/a	n/a	n/a	ITI	poldrack-single-stim	s588	False	0
179.812	2.41	182.222	6.752305445822043	draw_card	2.41	columbia_card_task_fmri	16.0	0.875	89.0	-70.0	0.125	16.0	1.0	2.0	-3.899512387539307	2.41	n/a	stim	poldrack-single-stim	s588	False	1
182.223	2.921	185.144	6.035638779155376	draw_card	2.921	columbia_card_task_fmri	16.0	0.8666666666666667	89.0	-70.0	0.1333333333333333	16.0	2.0	2.0	-3.108033881480292	2.921	n/a	stim	poldrack-single-stim	s588	False	1
185.145	2.929	188.074	5.216591160107758	draw_card	2.929	columbia_card_task_fmri	16.0	0.8571428571428572	89.0	-70.0	0.1428571428571428	16.0	3.0	2.0	-2.249781453566868	2.929	n/a	stim	poldrack-single-stim	s588	False	1
188.078	2.788	190.866	4.271536215052811	draw_card	2.788	columbia_card_task_fmri	16.0	0.8461538461538461	89.0	-70.0	0.1538461538461538	16.0	4.0	2.0	-1.3157364265621787	2.788	n/a	stim	poldrack-single-stim	s588	False	1
190.868	0.838	191.706	3.168972112488711	end_round	0.838	columbia_card_task_fmri	16.0	0.8333333333333334	71.0	-70.0	0.1666666666666666	16.0	5.0	2.0	-0.2954900412633634	0.838	4.0	stim	poldrack-single-stim	s588	False	1
192.463	1.5	191.712	n/a	-1.0	2.454	columbia_card_task_fmri	n/a	n/a	-1.0	n/a	n/a	n/a	n/a	n/a	n/a	n/a	n/a	ITI	poldrack-single-stim	s588	False	0
194.169	2.209	196.378	8.064805445822042	draw_card	2.209	columbia_card_task_fmri	30.0	0.6875	89.0	-45.0	0.3125	16.0	1.0	5.0	2.4148889651951397	2.209	n/a	stim	poldrack-single-stim	s588	False	1
196.379	1.395	197.774	6.502305445822047	draw_card	1.395	columbia_card_task_fmri	30.0	0.6666666666666667	89.0	-45.0	0.3333333333333333	16.0	2.0	5.0	3.006254908697798	1.395	n/a	stim	poldrack-single-stim	s588	False	1
197.776	0.89	198.666	4.716591160107755	end_round	0.89	columbia_card_task_fmri	30.0	0.6428571428571428	71.0	-45.0	0.3571428571428571	16.0	3.0	5.0	3.5872068803736283	0.89	2.0	stim	poldrack-single-stim	s588	False	1
199.42	1.5	198.669	n/a	-1.0	2.25	columbia_card_task_fmri	n/a	n/a	-1.0	n/a	n/a	n/a	n/a	n/a	n/a	n/a	n/a	ITI	poldrack-single-stim	s588	False	0
200.921	2.237	203.158	-0.164361220844623	draw_card	2.237	columbia_card_task_fmri	13.0	0.8333333333333334	89.0	-75.0	0.1666666666666666	6.0	1.0	1.0	0.449067032158517	2.237	n/a	stim	poldrack-single-stim	s588	False	1
203.16	0.643	203.803	-3.0976945541779566	draw_card	0.643	columbia_card_task_fmri	13.0	0.8	89.0	-75.0	0.2	6.0	2.0	1.0	2.851056512177024	0.643	n/a	stim	poldrack-single-stim	s588	False	1
203.805	0.519	204.324	-7.497694554177957	draw_card	0.519	columbia_card_task_fmri	13.0	0.75	89.0	-75.0	0.25	6.0	3.0	1.0	5.753733235499084	0.519	3.0	stim	poldrack-single-stim	s588	False	0
205.082	1.5	204.331	n/a	-1.0	2.454	columbia_card_task_fmri	n/a	n/a	-1.0	n/a	n/a	n/a	n/a	n/a	n/a	n/a	n/a	ITI	poldrack-single-stim	s588	False	0
206.788	1.738	208.526	1.5023054458220448	draw_card	1.738	columbia_card_task_fmri	14.0	0.8333333333333334	89.0	-70.0	0.1666666666666666	6.0	1.0	1.0	-1.040009134993543	1.738	n/a	stim	poldrack-single-stim	s588	False	1
208.527	1.147	209.674	-1.297694554177956	draw_card	1.147	columbia_card_task_fmri	14.0	0.8	89.0	-70.0	0.2	6.0	2.0	1.0	1.2525809266713497	1.147	n/a	stim	poldrack-single-stim	s588	False	1
209.676	0.92	210.596	-5.497694554177957	draw_card	0.92	columbia_card_task_fmri	14.0	0.75	89.0	-70.0	0.25	6.0	3.0	1.0	4.023090917074597	0.92	n/a	stim	poldrack-single-stim	s588	False	1
210.599	1.445	212.044	-12.497694554177954	draw_card	1.445	columbia_card_task_fmri	14.0	0.6666666666666667	89.0	-70.0	0.3333333333333333	6.0	4.0	1.0	7.245479989897731	1.445	4.0	stim	poldrack-single-stim	s588	False	0
212.8	1.5	212.049	n/a	-1.0	2.454	columbia_card_task_fmri	n/a	n/a	-1.0	n/a	n/a	n/a	n/a	n/a	n/a	n/a	n/a	ITI	poldrack-single-stim	s588	False	0
214.506	2.295	216.801	1.5023054458220448	draw_card	2.295	columbia_card_task_fmri	16.0	0.8333333333333334	89.0	-80.0	0.1666666666666666	6.0	1.0	1.0	3.427627739007441	2.295	n/a	stim	poldrack-single-stim	s588	False	1
216.804	3.111	219.915	-1.6976945541779562	draw_card	3.111	columbia_card_task_fmri	16.0	0.8	89.0	-80.0	0.2	6.0	2.0	1.0	6.048388315966712	3.111	n/a	stim	poldrack-single-stim	s588	False	1
219.916	1.388	221.304	-6.497694554177957	draw_card	1.388	columbia_card_task_fmri	16.0	0.75	89.0	-80.0	0.25	6.0	3.0	1.0	9.215369623316882	1.388	n/a	stim	poldrack-single-stim	s588	False	1
221.306	1.14	222.446	-14.497694554177954	end_round	1.14	columbia_card_task_fmri	16.0	0.6666666666666667	71.0	-80.0	0.3333333333333333	6.0	4.0	1.0	12.898775378236609	1.14	3.0	stim	poldrack-single-stim	s588	False	1
223.202	1.5	222.451	n/a	-1.0	2.522	columbia_card_task_fmri	n/a	n/a	-1.0	n/a	n/a	n/a	n/a	n/a	n/a	n/a	n/a	ITI	poldrack-single-stim	s588	False	0
224.976	2.805	227.781	4.002305445822045	draw_card	2.805	columbia_card_task_fmri	17.0	0.8333333333333334	89.0	-70.0	0.1666666666666666	6.0	1.0	1.0	0.0767839113378272	2.805	n/a	stim	poldrack-single-stim	s588	False	1
227.782	1.749	229.531	1.1023054458220445	draw_card	1.749	columbia_card_task_fmri	17.0	0.8	89.0	-70.0	0.2	6.0	2.0	1.0	2.4514244927816407	1.749	n/a	stim	poldrack-single-stim	s588	False	1
229.534	1.564	231.098	-3.247694554177957	draw_card	1.564	columbia_card_task_fmri	17.0	0.75	89.0	-70.0	0.25	6.0	3.0	1.0	5.321060528323422	1.564	n/a	stim	poldrack-single-stim	s588	False	1
231.1	4.624	235.724	-10.497694554177954	draw_card	4.624	columbia_card_task_fmri	17.0	0.6666666666666667	89.0	-70.0	0.3333333333333333	6.0	4.0	1.0	8.658711888193203	4.624	4.0	stim	poldrack-single-stim	s588	False	0
236.481	1.5	235.73	n/a	-1.0	2.454	columbia_card_task_fmri	n/a	n/a	-1.0	n/a	n/a	n/a	n/a	n/a	n/a	n/a	n/a	ITI	poldrack-single-stim	s588	False	0
238.188	3.547	241.735	4.002305445822043	draw_card	3.547	columbia_card_task_fmri	25.0	0.75	89.0	-65.0	0.25	8.0	1.0	2.0	6.619101290456648	3.547	n/a	stim	poldrack-single-stim	s588	False	1
241.736	3.131	244.867	0.7880197315363313	draw_card	3.131	columbia_card_task_fmri	25.0	0.7142857142857143	89.0	-65.0	0.2857142857142857	8.0	2.0	2.0	8.304613765394187	3.131	n/a	stim	poldrack-single-stim	s588	False	1
244.869	0.786	245.655	-3.4976945541779534	end_round	0.786	columbia_card_task_fmri	25.0	0.6666666666666667	71.0	-65.0	0.3333333333333333	8.0	3.0	2.0	10.072009167121344	0.786	2.0	stim	poldrack-single-stim	s588	False	1
246.411	1.5	245.66	n/a	-1.0	2.658	columbia_card_task_fmri	n/a	n/a	-1.0	n/a	n/a	n/a	n/a	n/a	n/a	n/a	n/a	ITI	poldrack-single-stim	s588	False	0
248.322	3.95	252.272	4.002305445822043	draw_card	3.95	columbia_card_task_fmri	30.0	0.75	89.0	-80.0	0.25	8.0	1.0	2.0	15.274095403648625	3.95	n/a	stim	poldrack-single-stim	s588	False	1
252.277	0.422	252.699	0.0737340172506195	draw_card	0.422	columbia_card_task_fmri	30.0	0.7142857142857143	89.0	-80.0	0.2857142857142857	8.0	2.0	2.0	17.33465070235622	0.422	n/a	stim	poldrack-single-stim	s588	False	1
252.701	0.658	253.359	-5.164361220844618	draw_card	0.658	columbia_card_task_fmri	30.0	0.6666666666666667	89.0	-80.0	0.3333333333333333	8.0	3.0	2.0	19.49526733664601	0.658	n/a	stim	poldrack-single-stim	s588	False	1
253.362	2.414	255.776	-12.497694554177958	draw_card	2.414	columbia_card_task_fmri	30.0	0.6	89.0	-80.0	0.4	8.0	4.0	2.0	21.52872338029391	2.414	n/a	stim	poldrack-single-stim	s588	False	1
255.779	3.255	259.034	-23.49769455417796	end_round	3.255	columbia_card_task_fmri	30.0	0.5	71.0	-80.0	0.5	8.0	5.0	2.0	22.639526195449257	3.255	4.0	stim	poldrack-single-stim	s588	False	1
259.792	1.5	259.041	n/a	-1.0	2.386	columbia_card_task_fmri	n/a	n/a	-1.0	n/a	n/a	n/a	n/a	n/a	n/a	n/a	n/a	ITI	poldrack-single-stim	s588	False	0
261.43	3.211	264.641	3.702305445822044	draw_card	3.211	columbia_card_task_fmri	13.0	0.9	89.0	-95.0	0.1	10.0	1.0	1.0	0.0538228892761765	3.211	n/a	stim	poldrack-single-stim	s588	False	1
264.644	1.446	266.09	2.502305445822043	draw_card	1.446	columbia_card_task_fmri	13.0	0.8888888888888888	89.0	-95.0	0.1111111111111111	10.0	2.0	1.0	1.593369376129857	1.446	n/a	stim	poldrack-single-stim	s588	False	1
266.092	0.716	266.808	1.002305445822043	draw_card	0.716	columbia_card_task_fmri	13.0	0.875	89.0	-95.0	0.125	10.0	3.0	1.0	3.368235223426701	0.716	3.0	stim	poldrack-single-stim	s588	False	0
267.561	1.5	266.81	n/a	-1.0	2.522	columbia_card_task_fmri	n/a	n/a	-1.0	n/a	n/a	n/a	n/a	n/a	n/a	n/a	n/a	ITI	poldrack-single-stim	s588	False	0
269.336	2.824	272.16	5.102305445822043	draw_card	2.824	columbia_card_task_fmri	14.0	0.9	89.0	-90.0	0.1	10.0	1.0	1.0	-1.1448397723268329	2.824	n/a	stim	poldrack-single-stim	s588	False	1
272.162	0.999	273.161	3.946749890266486	draw_card	0.999	columbia_card_task_fmri	14.0	0.8888888888888888	89.0	-90.0	0.1111111111111111	10.0	2.0	1.0	0.3375674588872641	0.999	n/a	stim	poldrack-single-stim	s588	False	1
273.162	1.113	274.275	2.502305445822043	draw_card	1.113	columbia_card_task_fmri	14.0	0.875	89.0	-90.0	0.125	10.0	3.0	1.0	2.046573046649854	1.113	n/a	stim	poldrack-single-stim	s588	False	1
274.279	1.349	275.628	0.6451625886791872	draw_card	1.349	columbia_card_task_fmri	14.0	0.8571428571428572	89.0	-90.0	0.1428571428571428	10.0	4.0	1.0	4.042426517137535	1.349	4.0	stim	poldrack-single-stim	s588	False	0
276.384	1.5	275.633	n/a	-1.0	2.59	columbia_card_task_fmri	n/a	n/a	-1.0	n/a	n/a	n/a	n/a	n/a	n/a	n/a	n/a	ITI	poldrack-single-stim	s588	False	0
278.228	3.218	281.446	0.3023054458220438	draw_card	3.218	columbia_card_task_fmri	16.0	0.8	89.0	-70.0	0.2	10.0	1.0	2.0	2.051801018994212	3.218	n/a	stim	poldrack-single-stim	s588	False	1
281.449	1.935	283.384	-1.6088056652890677	draw_card	1.935	columbia_card_task_fmri	16.0	0.7777777777777778	89.0	-70.0	0.2222222222222222	10.0	2.0	2.0	3.404175808097186	1.935	n/a	stim	poldrack-single-stim	s588	False	1
283.386	2.349	285.735	-3.997694554177957	draw_card	2.349	columbia_card_task_fmri	16.0	0.75	89.0	-70.0	0.25	10.0	3.0	2.0	4.888395718474499	2.349	n/a	stim	poldrack-single-stim	s588	False	1
285.737	1.897	287.634	-7.069123125606528	draw_card	1.897	columbia_card_task_fmri	16.0	0.7142857142857143	89.0	-70.0	0.2857142857142857	10.0	4.0	2.0	6.498887509485044	1.897	n/a	stim	poldrack-single-stim	s588	False	1
287.637	2.237	289.874	-11.164361220844622	end_round	2.237	columbia_card_task_fmri	16.0	0.6666666666666667	71.0	-70.0	0.3333333333333333	10.0	5.0	2.0	8.187626986821861	2.237	4.0	stim	poldrack-single-stim	s588	False	1
290.628	1.5	289.877	n/a	-1.0	2.386	columbia_card_task_fmri	n/a	n/a	-1.0	n/a	n/a	n/a	n/a	n/a	n/a	n/a	n/a	ITI	poldrack-single-stim	s588	False	0
292.267	5.554	297.821	-0.414361220844623	draw_card	5.554	columbia_card_task_fmri	7.0	0.9166666666666666	89.0	-100.0	0.0833333333333333	12.0	1.0	1.0	-2.7696161439345985	5.554	n/a	stim	poldrack-single-stim	s588	False	1
297.824	0.559	298.383	-1.2249672814506851	draw_card	0.559	columbia_card_task_fmri	7.0	0.9090909090909092	89.0	-100.0	0.0909090909090909	12.0	2.0	1.0	-1.583986478353502	0.559	n/a	stim	poldrack-single-stim	s588	False	1
298.385	2.649	301.034	-2.197694554177957	draw_card	2.649	columbia_card_task_fmri	7.0	0.9	89.0	-100.0	0.1	12.0	3.0	1.0	-0.2458521345238224	2.649	n/a	stim	poldrack-single-stim	s588	False	1
301.038	1.312	302.35	-3.386583443066846	draw_card	1.312	columbia_card_task_fmri	7.0	0.8888888888888888	89.0	-100.0	0.1111111111111111	12.0	4.0	1.0	1.279409960712023	1.312	n/a	stim	poldrack-single-stim	s588	False	1
302.351	0.6	302.951	-4.872694554177957	end_round	0.6	columbia_card_task_fmri	7.0	0.875	71.0	-100.0	0.125	12.0	5.0	1.0	3.03781118509356	0.6	4.0	stim	poldrack-single-stim	s588	False	1
303.708	1.5	302.957	n/a	-1.0	2.59	columbia_card_task_fmri	n/a	n/a	-1.0	n/a	n/a	n/a	n/a	n/a	n/a	n/a	n/a	ITI	poldrack-single-stim	s588	False	0
305.55	3.634	309.184	-0.1643612208446212	draw_card	3.634	columbia_card_task_fmri	14.0	0.8333333333333334	89.0	-80.0	0.1666666666666666	12.0	1.0	2.0	2.682941935830648	3.634	n/a	stim	poldrack-single-stim	s588	False	1
309.187	0.939	310.126	-1.5886036450870504	draw_card	0.939	columbia_card_task_fmri	14.0	0.8181818181818181	89.0	-80.0	0.1818181818181818	12.0	2.0	2.0	3.905417755634652	0.939	n/a	stim	poldrack-single-stim	s588	False	1
310.127	1.226	311.353	-3.297694554177956	draw_card	1.226	columbia_card_task_fmri	14.0	0.8	89.0	-80.0	0.2	12.0	3.0	2.0	5.2490128391256405	1.226	n/a	stim	poldrack-single-stim	s588	False	1
311.355	1.833	313.188	-5.386583443066846	draw_card	1.833	columbia_card_task_fmri	14.0	0.7777777777777778	89.0	-80.0	0.2222222222222222	12.0	4.0	2.0	6.727410603448973	1.833	4.0	stim	poldrack-single-stim	s588	False	0
313.944	1.5	313.193	n/a	-1.0	2.318	columbia_card_task_fmri	n/a	n/a	-1.0	n/a	n/a	n/a	n/a	n/a	n/a	n/a	n/a	ITI	poldrack-single-stim	s588	False	0
315.515	2.6	318.115	1.502305445822043	draw_card	2.6	columbia_card_task_fmri	15.0	0.8333333333333334	89.0	-75.0	0.1666666666666666	12.0	1.0	2.0	1.1936595585399346	2.6	n/a	stim	poldrack-single-stim	s588	False	1
318.118	1.823	319.941	0.1386690821856779	draw_card	1.823	columbia_card_task_fmri	15.0	0.8181818181818181	89.0	-75.0	0.1818181818181818	12.0	2.0	2.0	2.3640208164738894	1.823	n/a	stim	poldrack-single-stim	s588	False	1
319.944	2.348	322.292	-1.497694554177957	draw_card	2.348	columbia_card_task_fmri	15.0	0.8	89.0	-75.0	0.2	12.0	3.0	2.0	3.650345050409257	2.348	3.0	stim	poldrack-single-stim	s588	False	0
323.047	1.5	322.296	n/a	-1.0	2.25	columbia_card_task_fmri	n/a	n/a	-1.0	n/a	n/a	n/a	n/a	n/a	n/a	n/a	n/a	ITI	poldrack-single-stim	s588	False	0
324.549	3.346	327.895	0.5023054458220431	draw_card	3.346	columbia_card_task_fmri	15.0	0.8	89.0	-65.0	0.2	15.0	1.0	3.0	-0.3457424572786252	3.346	1.0	stim	poldrack-single-stim	s588	False	0
328.651	1.5	327.9	n/a	-1.0	2.454	columbia_card_task_fmri	n/a	n/a	-1.0	n/a	n/a	n/a	n/a	n/a	n/a	n/a	n/a	ITI	poldrack-single-stim	s588	False	0
330.358	1.897	332.255	-0.2476945541779569	draw_card	1.897	columbia_card_task_fmri	14.0	0.8125	89.0	-70.0	0.1875	16.0	1.0	3.0	0.4396527287947194	1.897	n/a	stim	poldrack-single-stim	s588	False	1
332.257	1.437	333.694	-1.297694554177956	draw_card	1.437	columbia_card_task_fmri	14.0	0.8	89.0	-70.0	0.2	16.0	2.0	3.0	1.2525809266713497	1.437	n/a	stim	poldrack-single-stim	s588	False	1
333.697	1.545	335.242	-2.497694554177957	draw_card	1.545	columbia_card_task_fmri	14.0	0.7857142857142857	89.0	-70.0	0.2142857142857142	16.0	3.0	3.0	2.1191128650815827	1.545	n/a	stim	poldrack-single-stim	s588	False	1
335.245	1.109	336.354	-3.882309938793342	end_round	1.109	columbia_card_task_fmri	14.0	0.7692307692307692	71.0	-70.0	0.2307692307692307	16.0	4.0	3.0	3.04218717412909	1.109	3.0	stim	poldrack-single-stim	s588	False	1
337.11	1.5	336.359	n/a	-1.0	3.27	columbia_card_task_fmri	n/a	n/a	-1.0	n/a	n/a	n/a	n/a	n/a	n/a	n/a	n/a	ITI	poldrack-single-stim	s588	False	0
339.632	3.539	343.171	-0.3101945541779569	draw_card	3.539	columbia_card_task_fmri	11.0	0.6875	89.0	-30.0	0.3125	16.0	1.0	5.0	-13.317691159568549	3.539	n/a	stim	poldrack-single-stim	s588	False	1
343.175	2.007	345.182	-1.164361220844623	draw_card	2.007	columbia_card_task_fmri	11.0	0.6666666666666667	89.0	-30.0	0.3333333333333333	16.0	2.0	5.0	-12.995103996743328	2.007	n/a	stim	poldrack-single-stim	s588	False	1
345.185	1.31	346.495	-2.140551697035101	end_round	1.31	columbia_card_task_fmri	11.0	0.6428571428571428	71.0	-30.0	0.3571428571428571	16.0	3.0	5.0	-12.67817548673909	1.31	2.0	stim	poldrack-single-stim	s588	False	1
347.251	1.5	346.5	n/a	-1.0	2.25	columbia_card_task_fmri	n/a	n/a	-1.0	n/a	n/a	n/a	n/a	n/a	n/a	n/a	n/a	ITI	poldrack-single-stim	s588	False	0
348.752	1.829	350.581	4.502305445822043	draw_card	1.829	columbia_card_task_fmri	15.0	0.8666666666666667	89.0	-75.0	0.1333333333333333	15.0	1.0	2.0	-1.7500076788649397	1.829	n/a	stim	poldrack-single-stim	s588	False	1
350.583	1.445	352.028	3.645162588679187	draw_card	1.445	columbia_card_task_fmri	15.0	0.8571428571428572	89.0	-75.0	0.1428571428571428	15.0	2.0	2.0	-0.8517366432314049	1.445	n/a	stim	poldrack-single-stim	s588	False	1
352.031	1.265	353.296	2.6561515996681964	draw_card	1.265	columbia_card_task_fmri	15.0	0.8461538461538461	89.0	-75.0	0.1538461538461538	15.0	3.0	2.0	0.1258547769451894	1.265	n/a	stim	poldrack-single-stim	s588	False	1
353.298	1.899	355.197	1.502305445822043	draw_card	1.899	columbia_card_task_fmri	15.0	0.8333333333333334	89.0	-75.0	0.1666666666666666	15.0	4.0	2.0	1.1936595585399346	1.899	n/a	stim	poldrack-single-stim	s588	False	1
355.199	1.912	357.111	0.1386690821856779	draw_card	1.912	columbia_card_task_fmri	15.0	0.8181818181818181	89.0	-75.0	0.1818181818181818	15.0	5.0	2.0	2.3640208164738894	1.912	n/a	stim	poldrack-single-stim	s588	False	1
357.115	1.646	358.761	-1.497694554177957	end_round	1.646	columbia_card_task_fmri	15.0	0.8	71.0	-75.0	0.2	15.0	6.0	2.0	3.650345050409257	1.646	5.0	stim	poldrack-single-stim	s588	False	1
359.517	1.5	358.766	n/a	-1.0	2.25	columbia_card_task_fmri	n/a	n/a	-1.0	n/a	n/a	n/a	n/a	n/a	n/a	n/a	n/a	ITI	poldrack-single-stim	s588	False	0
361.021	4.05	365.071	6.235638779155377	draw_card	4.05	columbia_card_task_fmri	17.0	0.8666666666666667	89.0	-75.0	0.1333333333333333	15.0	1.0	2.0	-1.0709388399476794	4.05	n/a	stim	poldrack-single-stim	s588	False	1
365.073	2.244	367.317	5.359448302964903	draw_card	2.244	columbia_card_task_fmri	17.0	0.8571428571428572	89.0	-75.0	0.1428571428571428	15.0	2.0	2.0	-0.1526600809053491	2.244	n/a	stim	poldrack-single-stim	s588	False	1
367.32	1.494	368.814	4.34845929197589	draw_card	1.494	columbia_card_task_fmri	17.0	0.8461538461538461	89.0	-75.0	0.1538461538461538	15.0	3.0	2.0	0.8467029144260678	1.494	n/a	stim	poldrack-single-stim	s588	False	1
368.816	3.575	372.391	3.168972112488711	draw_card	3.575	columbia_card_task_fmri	17.0	0.8333333333333334	89.0	-75.0	0.1666666666666666	15.0	4.0	2.0	1.9382852303138025	3.575	n/a	stim	poldrack-single-stim	s588	False	1
372.394	0.471	372.865	1.7750327185493149	draw_card	0.471	columbia_card_task_fmri	17.0	0.8181818181818181	89.0	-75.0	0.1818181818181818	15.0	5.0	2.0	3.134704289991639	0.471	n/a	stim	poldrack-single-stim	s588	False	1
372.867	1.397	374.264	0.1023054458220444	draw_card	1.397	columbia_card_task_fmri	17.0	0.8	89.0	-75.0	0.2	15.0	6.0	2.0	4.449664482287624	1.397	6.0	stim	poldrack-single-stim	s588	False	0
375.018	1.5	374.267	n/a	-1.0	2.318	columbia_card_task_fmri	n/a	n/a	-1.0	n/a	n/a	n/a	n/a	n/a	n/a	n/a	n/a	ITI	poldrack-single-stim	s588	False	0
376.59	5.491	382.081	1.814805445822043	draw_card	5.491	columbia_card_task_fmri	2.0	0.9375	89.0	-25.0	0.0625	16.0	1.0	1.0	-25.67488832892939	5.491	n/a	stim	poldrack-single-stim	s588	False	1
382.083	2.419	384.502	1.702305445822043	draw_card	2.419	columbia_card_task_fmri	2.0	0.9333333333333332	89.0	-25.0	0.0666666666666666	16.0	2.0	1.0	-25.480485897780987	2.419	n/a	stim	poldrack-single-stim	s588	False	1
384.506	0.485	384.991	1.573734017250615	draw_card	0.485	columbia_card_task_fmri	2.0	0.9285714285714286	89.0	-25.0	0.0714285714285714	16.0	3.0	1.0	-25.266989805277948	0.485	n/a	stim	poldrack-single-stim	s588	False	1
384.994	0.96	385.954	1.4253823688989662	draw_card	0.96	columbia_card_task_fmri	2.0	0.9230769230769232	89.0	-25.0	0.0769230769230769	16.0	4.0	1.0	-25.03114151400088	0.96	n/a	stim	poldrack-single-stim	s588	False	1
385.957	0.512	386.469	1.2523054458220433	end_round	0.512	columbia_card_task_fmri	2.0	0.9166666666666666	71.0	-25.0	0.0833333333333333	16.0	5.0	1.0	-24.768864114543497	0.512	4.0	stim	poldrack-single-stim	s588	False	1
387.224	1.5	386.473	n/a	-1.0	2.726	columbia_card_task_fmri	n/a	n/a	-1.0	n/a	n/a	n/a	n/a	n/a	n/a	n/a	n/a	ITI	poldrack-single-stim	s588	False	0
389.204	2.245	391.449	4.002305445822043	draw_card	2.245	columbia_card_task_fmri	9.0	0.9375	89.0	-95.0	0.0625	16.0	1.0	1.0	-7.161809792425796	2.245	n/a	stim	poldrack-single-stim	s588	False	1
391.453	3.247	394.7	3.5689721124887104	draw_card	3.247	columbia_card_task_fmri	9.0	0.9333333333333332	89.0	-95.0	0.0666666666666666	16.0	2.0	1.0	-6.395366863182648	3.247	n/a	stim	poldrack-single-stim	s588	False	1
394.702	1.61	396.312	3.073734017250615	draw_card	1.61	columbia_card_task_fmri	9.0	0.9285714285714286	89.0	-95.0	0.0714285714285714	16.0	3.0	1.0	-5.554793593418292	1.61	n/a	stim	poldrack-single-stim	s588	False	1
396.315	1.769	398.084	2.502305445822043	draw_card	1.769	columbia_card_task_fmri	9.0	0.9230769230769232	89.0	-95.0	0.0769230769230769	16.0	4.0	1.0	-4.627484576821999	1.769	n/a	stim	poldrack-single-stim	s588	False	1
398.088	2.11	400.198	1.835638779155377	draw_card	2.11	columbia_card_task_fmri	9.0	0.9166666666666666	89.0	-95.0	0.0833333333333333	16.0	5.0	1.0	-3.597673812465992	2.11	n/a	stim	poldrack-single-stim	s588	False	1
400.201	2.581	402.782	1.047759991276588	draw_card	2.581	columbia_card_task_fmri	9.0	0.9090909090909092	89.0	-95.0	0.0909090909090909	16.0	6.0	1.0	-2.445369546599906	2.581	n/a	stim	poldrack-single-stim	s588	False	1
402.785	2.253	405.038	0.1023054458220427	draw_card	2.253	columbia_card_task_fmri	9.0	0.9	89.0	-95.0	0.1	16.0	7.0	1.0	-1.1448397723268329	2.253	n/a	stim	poldrack-single-stim	s588	False	1
405.04	1.671	406.711	-1.0532501097335123	draw_card	1.671	columbia_card_task_fmri	9.0	0.8888888888888888	89.0	-95.0	0.1111111111111111	16.0	8.0	1.0	0.3375674588872641	1.671	n/a	stim	poldrack-single-stim	s588	False	1
406.714	2.829	409.543	-2.497694554177957	draw_card	2.829	columbia_card_task_fmri	9.0	0.875	89.0	-95.0	0.125	16.0	9.0	1.0	2.046573046649854	2.829	n/a	stim	poldrack-single-stim	s588	False	1
409.545	1.486	411.031	-4.354837411320813	draw_card	1.486	columbia_card_task_fmri	9.0	0.8571428571428572	89.0	-95.0	0.1428571428571428	16.0	10.0	1.0	4.042426517137535	1.486	10.0	stim	poldrack-single-stim	s588	False	0
411.786	1.5	411.035	n/a	-1.0	2.386	columbia_card_task_fmri	n/a	n/a	-1.0	n/a	n/a	n/a	n/a	n/a	n/a	n/a	n/a	ITI	poldrack-single-stim	s588	False	0
413.426	2.096	415.522	5.564805445822043	draw_card	2.096	columbia_card_task_fmri	11.0	0.9375	89.0	-100.0	0.0625	16.0	1.0	1.0	-5.470199362708648	2.096	n/a	stim	poldrack-single-stim	s588	False	1
415.525	2.483	418.008	5.102305445822044	draw_card	2.483	columbia_card_task_fmri	11.0	0.9333333333333332	89.0	-100.0	0.0666666666666666	16.0	2.0	1.0	-4.651996813277762	2.483	n/a	stim	poldrack-single-stim	s588	False	1
418.01	1.348	419.358	4.573734017250616	draw_card	1.348	columbia_card_task_fmri	11.0	0.9285714285714286	89.0	-100.0	0.0714285714285714	16.0	3.0	1.0	-3.754669045296758	1.348	n/a	stim	poldrack-single-stim	s588	False	1
419.36	1.557	420.917	3.9638439073605056	draw_card	1.557	columbia_card_task_fmri	11.0	0.9230769230769232	89.0	-100.0	0.0769230769230769	16.0	4.0	1.0	-2.7647617103443416	1.557	n/a	stim	poldrack-single-stim	s588	False	1
420.921	2.304	423.225	3.252305445822043	draw_card	2.304	columbia_card_task_fmri	11.0	0.9166666666666666	89.0	-100.0	0.0833333333333333	16.0	5.0	1.0	-1.6654470552759335	2.304	n/a	stim	poldrack-single-stim	s588	False	1
423.229	2.526	425.755	2.411396354912952	draw_card	2.526	columbia_card_task_fmri	11.0	0.9090909090909092	89.0	-100.0	0.0909090909090909	16.0	6.0	1.0	-0.4353870556836909	2.526	n/a	stim	poldrack-single-stim	s588	False	1
425.757	0.747	426.504	1.4023054458220434	draw_card	0.747	columbia_card_task_fmri	11.0	0.9	89.0	-100.0	0.1	16.0	7.0	1.0	0.9528830385492456	0.747	n/a	stim	poldrack-single-stim	s588	False	1
426.507	3.267	429.774	0.1689721124887091	draw_card	3.267	columbia_card_task_fmri	11.0	0.8888888888888888	89.0	-100.0	0.1111111111111111	16.0	8.0	1.0	2.53528111696982	3.267	n/a	stim	poldrack-single-stim	s588	False	1
429.777	1.317	431.094	-1.372694554177957	end_round	1.317	columbia_card_task_fmri	11.0	0.875	71.0	-100.0	0.125	16.0	9.0	1.0	4.359539176017023	1.317	8.0	stim	poldrack-single-stim	s588	False	1
431.85	1.5	431.099	n/a	-1.0	2.318	columbia_card_task_fmri	n/a	n/a	-1.0	n/a	n/a	n/a	n/a	n/a	n/a	n/a	n/a	ITI	poldrack-single-stim	s588	False	0
433.421	4.8	438.221	6.127305445822043	draw_card	4.8	columbia_card_task_fmri	16.0	0.875	89.0	-75.0	0.125	16.0	1.0	2.0	-2.2480935176497887	4.8	n/a	stim	poldrack-single-stim	s588	False	1
438.223	2.327	440.55	5.36897211248871	draw_card	2.327	columbia_card_task_fmri	16.0	0.8666666666666667	89.0	-75.0	0.1333333333333333	16.0	2.0	2.0	-1.4104776496075218	2.327	n/a	stim	poldrack-single-stim	s588	False	1
440.553	1.826	442.379	4.502305445822045	draw_card	1.826	columbia_card_task_fmri	16.0	0.8571428571428572	89.0	-75.0	0.1428571428571428	16.0	3.0	2.0	-0.5022026277512879	1.826	n/a	stim	poldrack-single-stim	s588	False	1
442.383	2.229	444.612	3.502305445822043	draw_card	2.229	columbia_card_task_fmri	16.0	0.8461538461538461	89.0	-75.0	0.1538461538461538	16.0	4.0	2.0	0.4862747077466807	2.229	4.0	stim	poldrack-single-stim	s588	False	0
445.367	1.5	444.616	n/a	-1.0	2.25	columbia_card_task_fmri	n/a	n/a	-1.0	n/a	n/a	n/a	n/a	n/a	n/a	n/a	n/a	ITI	poldrack-single-stim	s588	False	0
446.871	3.571	450.442	6.377305445822043	draw_card	3.571	columbia_card_task_fmri	17.0	0.875	89.0	-80.0	0.125	16.0	1.0	2.0	-0.2660953165378856	3.571	n/a	stim	poldrack-single-stim	s588	False	1
450.446	2.342	452.788	5.568972112488711	draw_card	2.342	columbia_card_task_fmri	17.0	0.8666666666666667	89.0	-80.0	0.1333333333333333	16.0	2.0	2.0	0.6268774304897562	2.342	n/a	stim	poldrack-single-stim	s588	False	1
452.79	0.873	453.663	4.645162588679189	draw_card	0.873	columbia_card_task_fmri	17.0	0.8571428571428572	89.0	-80.0	0.1428571428571428	16.0	3.0	2.0	1.595171407775453	0.873	n/a	stim	poldrack-single-stim	s588	False	1
453.666	1.463	455.129	3.57922852274512	draw_card	1.463	columbia_card_task_fmri	17.0	0.8461538461538461	89.0	-80.0	0.1538461538461538	16.0	4.0	2.0	2.6489591448578054	1.463	4.0	stim	poldrack-single-stim	s588	False	0
455.885	1.5	455.134	n/a	-1.0	2.25	columbia_card_task_fmri	n/a	n/a	-1.0	n/a	n/a	n/a	n/a	n/a	n/a	n/a	n/a	ITI	poldrack-single-stim	s588	False	0
468.4	2.0	470.4	0.6689721124887109	draw_card	2.0	columbia_card_task_fmri	13.0	0.8333333333333334	89.0	-70.0	0.1666666666666666	6.0	1.0	1.0	-1.412253583466132	2.0	1.0	stim	poldrack-single-stim	s588	False	0
471.158	1.5	470.407	n/a	-1.0	2.454	columbia_card_task_fmri	n/a	n/a	-1.0	n/a	n/a	n/a	n/a	n/a	n/a	n/a	n/a	ITI	poldrack-single-stim	s588	False	0
472.864	1.875	474.739	0.6689721124887109	draw_card	1.875	columbia_card_task_fmri	15.0	0.8333333333333334	89.0	-80.0	0.1666666666666666	6.0	1.0	1.0	3.0552813148626115	1.875	n/a	stim	poldrack-single-stim	s588	False	1
474.742	1.044	475.786	-2.497694554177957	draw_card	1.044	columbia_card_task_fmri	15.0	0.8	89.0	-80.0	0.2	6.0	2.0	1.0	5.648697294430015	1.044	n/a	stim	poldrack-single-stim	s588	False	1
475.79	0.79	476.58	-7.247694554177957	draw_card	0.79	columbia_card_task_fmri	15.0	0.75	89.0	-80.0	0.25	6.0	3.0	1.0	8.782642392005535	0.79	n/a	stim	poldrack-single-stim	s588	False	1
476.584	1.348	477.932	-15.164361220844622	draw_card	1.348	columbia_card_task_fmri	15.0	0.6666666666666667	89.0	-80.0	0.3333333333333333	6.0	4.0	1.0	12.427633119434772	1.348	n/a	stim	poldrack-single-stim	s588	False	1
477.934	2.466	480.4	-30.99769455417796	end_round	2.466	columbia_card_task_fmri	15.0	0.5	71.0	-80.0	0.5	6.0	5.0	1.0	15.142763683383208	2.466	4.0	stim	poldrack-single-stim	s588	False	1
481.154	1.5	480.403	n/a	-1.0	2.454	columbia_card_task_fmri	n/a	n/a	-1.0	n/a	n/a	n/a	n/a	n/a	n/a	n/a	n/a	ITI	poldrack-single-stim	s588	False	0
482.861	2.55	485.411	2.335638779155377	draw_card	2.55	columbia_card_task_fmri	16.0	0.8333333333333334	89.0	-75.0	0.1666666666666666	6.0	1.0	1.0	1.565968387571168	2.55	n/a	stim	poldrack-single-stim	s588	False	1
485.416	0.425	485.841	-0.6976945541779562	draw_card	0.425	columbia_card_task_fmri	16.0	0.8	89.0	-75.0	0.2	6.0	2.0	1.0	4.050001031733309	0.425	n/a	stim	poldrack-single-stim	s588	False	1
485.844	0.706	486.55	-5.247694554177957	draw_card	0.706	columbia_card_task_fmri	16.0	0.75	89.0	-75.0	0.25	6.0	3.0	1.0	7.05179614138148	0.706	n/a	stim	poldrack-single-stim	s588	False	1
486.553	1.137	487.69	-12.83102788751129	draw_card	1.137	columbia_card_task_fmri	16.0	0.6666666666666667	89.0	-75.0	0.3333333333333333	6.0	4.0	1.0	10.543121672926231	1.137	4.0	stim	poldrack-single-stim	s588	False	0
488.446	1.5	487.695	n/a	-1.0	2.522	columbia_card_task_fmri	n/a	n/a	-1.0	n/a	n/a	n/a	n/a	n/a	n/a	n/a	n/a	ITI	poldrack-single-stim	s588	False	0
490.221	1.345	491.566	3.502305445822043	draw_card	1.345	columbia_card_task_fmri	21.0	0.75	89.0	-55.0	0.25	8.0	1.0	2.0	0.5622504258716319	1.345	n/a	stim	poldrack-single-stim	s588	False	1
491.569	0.493	492.062	0.7880197315363295	draw_card	0.493	columbia_card_task_fmri	21.0	0.7142857142857143	89.0	-55.0	0.2857142857142857	8.0	2.0	2.0	1.9851649670860996	0.493	n/a	stim	poldrack-single-stim	s588	False	1
492.066	1.898	493.964	-2.8310278875112878	draw_card	1.898	columbia_card_task_fmri	21.0	0.6666666666666667	89.0	-55.0	0.3333333333333333	8.0	3.0	2.0	3.47724002027676	1.898	n/a	stim	poldrack-single-stim	s588	False	1
493.967	4.423	498.39	-7.897694554177957	end_round	4.423	columbia_card_task_fmri	21.0	0.6	71.0	-55.0	0.4	8.0	4.0	2.0	4.881553013024664	4.423	3.0	stim	poldrack-single-stim	s588	False	1
499.148	1.5	498.397	n/a	-1.0	2.386	columbia_card_task_fmri	n/a	n/a	-1.0	n/a	n/a	n/a	n/a	n/a	n/a	n/a	n/a	ITI	poldrack-single-stim	s588	False	0
500.788	3.021	503.809	4.752305445822043	draw_card	3.021	columbia_card_task_fmri	26.0	0.75	89.0	-65.0	0.25	8.0	1.0	2.0	7.05179614138148	3.021	1.0	stim	poldrack-single-stim	s588	False	0
504.566	1.5	503.815	n/a	-1.0	2.454	columbia_card_task_fmri	n/a	n/a	-1.0	n/a	n/a	n/a	n/a	n/a	n/a	n/a	n/a	ITI	poldrack-single-stim	s588	False	0
506.274	3.863	510.137	-0.164361220844623	draw_card	3.863	columbia_card_task_fmri	15.0	0.7777777777777778	89.0	-60.0	0.2222222222222222	9.0	1.0	2.0	-1.164338943736979	3.863	1.0	stim	poldrack-single-stim	s588	False	0
510.895	1.5	510.144	n/a	-1.0	2.522	columbia_card_task_fmri	n/a	n/a	-1.0	n/a	n/a	n/a	n/a	n/a	n/a	n/a	n/a	ITI	poldrack-single-stim	s588	False	0
512.672	4.145	516.817	4.202305445822044	draw_card	4.145	columbia_card_task_fmri	13.0	0.9	89.0	-90.0	0.1	10.0	1.0	1.0	-1.444489236069025	4.145	n/a	stim	poldrack-single-stim	s588	False	1
516.821	1.231	518.052	3.0578610013775984	draw_card	1.231	columbia_card_task_fmri	13.0	0.8888888888888888	89.0	-90.0	0.1111111111111111	10.0	2.0	1.0	0.023632450263193	1.231	n/a	stim	poldrack-single-stim	s588	False	1
518.056	2.718	520.774	1.627305445822043	draw_card	2.718	columbia_card_task_fmri	13.0	0.875	89.0	-90.0	0.125	10.0	3.0	1.0	1.7161722080938944	2.718	n/a	stim	poldrack-single-stim	s588	False	1
520.778	0.688	521.466	-0.2119802684636687	draw_card	0.688	columbia_card_task_fmri	13.0	0.8571428571428572	89.0	-90.0	0.1428571428571428	10.0	4.0	1.0	3.692800072867136	0.688	n/a	stim	poldrack-single-stim	s588	False	1
521.469	1.989	523.458	-2.664361220844623	draw_card	1.989	columbia_card_task_fmri	13.0	0.8333333333333334	89.0	-90.0	0.1666666666666666	10.0	5.0	1.0	6.034232762619524	1.989	n/a	stim	poldrack-single-stim	s588	False	1
523.462	1.674	525.136	-6.097694554177957	end_round	1.674	columbia_card_task_fmri	13.0	0.8	71.0	-90.0	0.2	10.0	6.0	1.0	8.84639327895038	1.674	5.0	stim	poldrack-single-stim	s588	False	1
525.893	1.5	525.142	n/a	-1.0	2.522	columbia_card_task_fmri	n/a	n/a	-1.0	n/a	n/a	n/a	n/a	n/a	n/a	n/a	n/a	ITI	poldrack-single-stim	s588	False	0
527.67	2.465	530.135	5.502305445822043	draw_card	2.465	columbia_card_task_fmri	15.0	0.9	89.0	-95.0	0.1	10.0	1.0	1.0	0.6531906349247407	2.465	n/a	stim	poldrack-single-stim	s588	False	1
530.138	1.008	531.146	4.28008322359982	draw_card	1.008	columbia_card_task_fmri	15.0	0.8888888888888888	89.0	-95.0	0.1111111111111111	10.0	2.0	1.0	2.2213051062172013	1.008	n/a	stim	poldrack-single-stim	s588	False	1
531.151	1.183	532.334	2.752305445822043	draw_card	1.183	columbia_card_task_fmri	15.0	0.875	89.0	-95.0	0.125	10.0	3.0	1.0	4.029099363356067	1.183	n/a	stim	poldrack-single-stim	s588	False	1
532.338	1.35	533.688	0.7880197315363295	draw_card	1.35	columbia_card_task_fmri	15.0	0.8571428571428572	89.0	-95.0	0.1428571428571428	10.0	4.0	1.0	6.140299844473375	1.35	n/a	stim	poldrack-single-stim	s588	False	1
533.691	1.124	534.815	-1.831027887511289	draw_card	1.124	columbia_card_task_fmri	15.0	0.8333333333333334	89.0	-95.0	0.1666666666666666	10.0	5.0	1.0	8.641109977176995	1.124	n/a	stim	poldrack-single-stim	s588	False	1
534.819	1.838	536.657	-5.497694554177957	draw_card	1.838	columbia_card_task_fmri	15.0	0.8	89.0	-95.0	0.2	10.0	6.0	1.0	11.644651918188517	1.838	n/a	stim	poldrack-single-stim	s588	False	1
536.662	1.352	538.014	-10.997694554177958	end_round	1.352	columbia_card_task_fmri	15.0	0.75	71.0	-95.0	0.25	10.0	7.0	1.0	15.274095403648625	1.352	6.0	stim	poldrack-single-stim	s588	False	1
538.768	1.5	538.017	n/a	-1.0	2.59	columbia_card_task_fmri	n/a	n/a	-1.0	n/a	n/a	n/a	n/a	n/a	n/a	n/a	n/a	ITI	poldrack-single-stim	s588	False	0
540.613	3.579	544.192	1.3023054458220438	draw_card	3.579	columbia_card_task_fmri	16.0	0.8	89.0	-65.0	0.2	10.0	1.0	2.0	0.0538228892761765	3.579	1.0	stim	poldrack-single-stim	s588	False	0
544.95	1.5	544.199	n/a	-1.0	2.454	columbia_card_task_fmri	n/a	n/a	-1.0	n/a	n/a	n/a	n/a	n/a	n/a	n/a	n/a	ITI	poldrack-single-stim	s588	False	0
546.659	4.648	551.307	0.002305445822043	draw_card	4.648	columbia_card_task_fmri	7.0	0.9166666666666666	89.0	-95.0	0.0833333333333333	12.0	1.0	1.0	-4.14967643310143	4.648	1.0	stim	poldrack-single-stim	s588	False	0
552.066	1.5	551.315	n/a	-1.0	2.318	columbia_card_task_fmri	n/a	n/a	-1.0	n/a	n/a	n/a	n/a	n/a	n/a	n/a	n/a	ITI	poldrack-single-stim	s588	False	0
553.637	2.382	556.019	0.6689721124887109	draw_card	2.382	columbia_card_task_fmri	14.0	0.8333333333333334	89.0	-75.0	0.1666666666666666	12.0	1.0	2.0	0.8213590128012314	2.382	n/a	stim	poldrack-single-stim	s588	False	1
556.024	0.641	556.665	-0.6795127359961404	draw_card	0.641	columbia_card_task_fmri	14.0	0.8181818181818181	89.0	-75.0	0.1818181818181818	12.0	2.0	2.0	1.9786909574398663	0.641	n/a	stim	poldrack-single-stim	s588	False	1
556.669	0.652	557.321	-2.297694554177956	draw_card	0.652	columbia_card_task_fmri	14.0	0.8	89.0	-75.0	0.2	12.0	3.0	2.0	3.250696789647044	0.652	n/a	stim	poldrack-single-stim	s588	False	1
557.325	2.929	560.254	-4.275472331955732	draw_card	2.929	columbia_card_task_fmri	14.0	0.7777777777777778	89.0	-75.0	0.2222222222222222	12.0	4.0	2.0	4.650332404320004	2.929	4.0	stim	poldrack-single-stim	s588	False	0
561.01	1.5	560.259	n/a	-1.0	2.25	columbia_card_task_fmri	n/a	n/a	-1.0	n/a	n/a	n/a	n/a	n/a	n/a	n/a	n/a	ITI	poldrack-single-stim	s588	False	0
562.513	3.275	565.788	2.335638779155377	draw_card	3.275	columbia_card_task_fmri	15.0	0.8333333333333334	89.0	-70.0	0.1666666666666666	12.0	1.0	2.0	-0.667754502774546	3.275	n/a	stim	poldrack-single-stim	s588	False	1
565.791	0.716	566.507	1.0477599912765865	draw_card	0.716	columbia_card_task_fmri	15.0	0.8181818181818181	89.0	-70.0	0.1818181818181818	12.0	2.0	2.0	0.4374572141771935	0.716	n/a	stim	poldrack-single-stim	s588	False	1
566.51	0.672	567.182	-0.4976945541779569	draw_card	0.672	columbia_card_task_fmri	15.0	0.8	89.0	-70.0	0.2	12.0	3.0	2.0	1.6521863918467758	0.672	n/a	stim	poldrack-single-stim	s588	False	1
567.185	0.669	567.854	-2.386583443066846	draw_card	0.669	columbia_card_task_fmri	15.0	0.7777777777777778	89.0	-70.0	0.2222222222222222	12.0	4.0	2.0	2.988806921072218	0.669	n/a	stim	poldrack-single-stim	s588	False	1
567.858	2.13	569.988	-4.747694554177957	draw_card	2.13	columbia_card_task_fmri	15.0	0.75	89.0	-70.0	0.25	12.0	5.0	2.0	4.455739084225854	2.13	5.0	stim	poldrack-single-stim	s588	False	0
570.746	1.5	569.995	n/a	-1.0	2.658	columbia_card_task_fmri	n/a	n/a	-1.0	n/a	n/a	n/a	n/a	n/a	n/a	n/a	n/a	ITI	poldrack-single-stim	s588	False	0
572.658	4.237	576.895	0.3023054458220438	draw_card	4.237	columbia_card_task_fmri	16.0	0.8	89.0	-70.0	0.2	15.0	1.0	3.0	2.051801018994212	4.237	n/a	stim	poldrack-single-stim	s588	False	1
576.897	2.453	579.35	-0.9262659827493858	draw_card	2.453	columbia_card_task_fmri	16.0	0.7857142857142857	89.0	-70.0	0.2142857142857142	15.0	2.0	3.0	2.9390043352794564	2.453	2.0	stim	poldrack-single-stim	s588	False	0
580.108	1.5	579.357	n/a	-1.0	2.454	columbia_card_task_fmri	n/a	n/a	-1.0	n/a	n/a	n/a	n/a	n/a	n/a	n/a	n/a	ITI	poldrack-single-stim	s588	False	0
581.816	4.681	586.497	0.6898054458220431	draw_card	4.681	columbia_card_task_fmri	14.0	0.8125	89.0	-65.0	0.1875	16.0	1.0	3.0	-1.5097343900678697	4.681	n/a	stim	poldrack-single-stim	s588	False	1
586.501	1.506	588.007	-0.2976945541779559	draw_card	1.506	columbia_card_task_fmri	14.0	0.8	89.0	-65.0	0.2	16.0	2.0	3.0	-0.7452968183329958	1.506	n/a	stim	poldrack-single-stim	s588	False	1
588.011	1.263	589.274	-1.426265982749384	draw_card	1.263	columbia_card_task_fmri	14.0	0.7857142857142857	89.0	-65.0	0.2142857142857142	16.0	3.0	3.0	0.0695523604524481	1.263	n/a	stim	poldrack-single-stim	s588	False	1
589.278	1.985	591.263	-2.7284637849471887	draw_card	1.985	columbia_card_task_fmri	14.0	0.7692307692307692	89.0	-65.0	0.2307692307692307	16.0	4.0	3.0	0.9375771084040424	1.985	n/a	stim	poldrack-single-stim	s588	False	1
591.267	1.888	593.155	-4.247694554177957	draw_card	1.888	columbia_card_task_fmri	14.0	0.75	89.0	-65.0	0.25	16.0	5.0	3.0	1.8599883209962869	1.888	5.0	stim	poldrack-single-stim	s588	False	0
593.909	1.5	593.158	n/a	-1.0	2.386	columbia_card_task_fmri	n/a	n/a	-1.0	n/a	n/a	n/a	n/a	n/a	n/a	n/a	n/a	ITI	poldrack-single-stim	s588	False	0
595.549	2.696	598.245	0.439805445822043	draw_card	2.696	columbia_card_task_fmri	16.0	0.8125	89.0	-75.0	0.1875	16.0	1.0	3.0	3.16919560865216	2.696	n/a	stim	poldrack-single-stim	s588	False	1
598.249	1.096	599.345	-0.6976945541779562	draw_card	1.096	columbia_card_task_fmri	16.0	0.8	89.0	-75.0	0.2	16.0	2.0	3.0	4.050001031733309	1.096	n/a	stim	poldrack-single-stim	s588	False	1
599.349	2.283	601.632	-1.9976945541779552	draw_card	2.283	columbia_card_task_fmri	16.0	0.7857142857142857	89.0	-75.0	0.2142857142857142	16.0	3.0	3.0	4.9888790437253405	2.283	3.0	stim	poldrack-single-stim	s588	False	0
602.388	1.5	601.637	n/a	-1.0	2.59	columbia_card_task_fmri	n/a	n/a	-1.0	n/a	n/a	n/a	n/a	n/a	n/a	n/a	n/a	ITI	poldrack-single-stim	s588	False	0
604.232	2.75	606.982	4.702305445822044	draw_card	2.75	columbia_card_task_fmri	16.0	0.8666666666666667	89.0	-80.0	0.1333333333333333	15.0	1.0	2.0	0.2872987270476272	2.75	1.0	stim	poldrack-single-stim	s588	False	0
607.738	1.5	606.987	n/a	-1.0	2.318	columbia_card_task_fmri	n/a	n/a	-1.0	n/a	n/a	n/a	n/a	n/a	n/a	n/a	n/a	ITI	poldrack-single-stim	s588	False	0
609.31	2.112	611.422	5.568972112488711	draw_card	2.112	columbia_card_task_fmri	17.0	0.8666666666666667	89.0	-80.0	0.1333333333333333	15.0	1.0	2.0	0.6268774304897562	2.112	n/a	stim	poldrack-single-stim	s588	False	1
611.426	4.027	615.453	4.645162588679189	draw_card	4.027	columbia_card_task_fmri	17.0	0.8571428571428572	89.0	-80.0	0.1428571428571428	15.0	2.0	2.0	1.595171407775453	4.027	n/a	stim	poldrack-single-stim	s588	False	1
615.456	0.486	615.942	3.57922852274512	draw_card	0.486	columbia_card_task_fmri	17.0	0.8461538461538461	89.0	-80.0	0.1538461538461538	15.0	3.0	2.0	2.6489591448578054	0.486	3.0	stim	poldrack-single-stim	s588	False	0
616.698	1.5	615.947	n/a	-1.0	2.59	columbia_card_task_fmri	n/a	n/a	-1.0	n/a	n/a	n/a	n/a	n/a	n/a	n/a	n/a	ITI	poldrack-single-stim	s588	False	0
618.543	6.648	625.191	1.502305445822043	draw_card	6.648	columbia_card_task_fmri	1.0	0.9375	89.0	-15.0	0.0625	16.0	1.0	1.0	-28.22684233164361	6.648	n/a	stim	poldrack-single-stim	s588	False	1
625.194	1.651	626.845	1.4356387791553764	draw_card	1.651	columbia_card_task_fmri	1.0	0.9333333333333332	89.0	-15.0	0.0666666666666666	16.0	2.0	1.0	-28.116505001499718	1.651	n/a	stim	poldrack-single-stim	s588	False	1
626.849	0.874	627.723	1.3594483029649005	draw_card	0.874	columbia_card_task_fmri	1.0	0.9285714285714286	89.0	-15.0	0.0714285714285714	16.0	3.0	1.0	-27.99504245470442	0.874	n/a	stim	poldrack-single-stim	s588	False	1
627.726	2.704	630.43	1.2715362150528122	draw_card	2.704	columbia_card_task_fmri	1.0	0.9230769230769232	89.0	-15.0	0.0769230769230769	16.0	4.0	1.0	-27.86054096117772	2.704	n/a	stim	poldrack-single-stim	s588	False	1
630.435	1.161	631.596	1.1689721124887096	draw_card	1.161	columbia_card_task_fmri	1.0	0.9166666666666666	89.0	-15.0	0.0833333333333333	16.0	5.0	1.0	-27.710604465555537	1.161	n/a	stim	poldrack-single-stim	s588	False	1
631.599	0.676	632.275	1.0477599912765885	draw_card	0.676	columbia_card_task_fmri	1.0	0.9090909090909092	89.0	-15.0	0.0909090909090909	16.0	6.0	1.0	-27.54219147789079	0.676	6.0	stim	poldrack-single-stim	s588	False	0
633.03	1.5	632.279	n/a	-1.0	2.386	columbia_card_task_fmri	n/a	n/a	-1.0	n/a	n/a	n/a	n/a	n/a	n/a	n/a	n/a	ITI	poldrack-single-stim	s588	False	0
634.67	3.046	637.716	4.627305445822043	draw_card	3.046	columbia_card_task_fmri	10.0	0.9375	89.0	-100.0	0.0625	16.0	1.0	1.0	-5.711879914718384	3.046	n/a	stim	poldrack-single-stim	s588	False	1
637.721	1.565	639.286	4.16897211248871	draw_card	1.565	columbia_card_task_fmri	10.0	0.9333333333333332	89.0	-100.0	0.0666666666666666	16.0	2.0	1.0	-4.901070954136877	1.565	n/a	stim	poldrack-single-stim	s588	False	1
639.289	1.951	641.24	3.645162588679187	draw_card	1.951	columbia_card_task_fmri	10.0	0.9285714285714286	89.0	-100.0	0.0714285714285714	16.0	3.0	1.0	-4.01185030870834	1.951	n/a	stim	poldrack-single-stim	s588	False	1
641.245	1.161	642.406	3.0407669842835823	draw_card	1.161	columbia_card_task_fmri	10.0	0.9230769230769232	89.0	-100.0	0.0769230769230769	16.0	4.0	1.0	-3.030884905559418	1.161	4.0	stim	poldrack-single-stim	s588	False	0
643.164	1.5	642.413	n/a	-1.0	2.318	columbia_card_task_fmri	n/a	n/a	-1.0	n/a	n/a	n/a	n/a	n/a	n/a	n/a	n/a	ITI	poldrack-single-stim	s588	False	0
644.736	2.728	647.464	5.252305445822043	draw_card	2.728	columbia_card_task_fmri	15.0	0.875	89.0	-75.0	0.125	16.0	1.0	2.0	-2.578396593879308	2.728	n/a	stim	poldrack-single-stim	s588	False	1
647.467	1.832	649.299	4.502305445822043	draw_card	1.832	columbia_card_task_fmri	15.0	0.8666666666666667	89.0	-75.0	0.1333333333333333	16.0	2.0	2.0	-1.7500076788649397	1.832	n/a	stim	poldrack-single-stim	s588	False	1
649.303	1.043	650.346	3.645162588679187	draw_card	1.043	columbia_card_task_fmri	15.0	0.8571428571428572	89.0	-75.0	0.1428571428571428	16.0	3.0	2.0	-0.8517366432314049	1.043	n/a	stim	poldrack-single-stim	s588	False	1
650.35	1.162	651.512	2.6561515996681964	end_round	1.162	columbia_card_task_fmri	15.0	0.8461538461538461	71.0	-75.0	0.1538461538461538	16.0	4.0	2.0	0.1258547769451894	1.162	3.0	stim	poldrack-single-stim	s588	False	1
652.268	1.5	651.517	n/a	-1.0	2.318	columbia_card_task_fmri	n/a	n/a	-1.0	n/a	n/a	n/a	n/a	n/a	n/a	n/a	n/a	ITI	poldrack-single-stim	s588	False	0
653.839	3.13	656.969	5.502305445822043	draw_card	3.13	columbia_card_task_fmri	16.0	0.875	89.0	-80.0	0.125	16.0	1.0	2.0	-0.5964484138118742	3.13	n/a	stim	poldrack-single-stim	s588	False	1
656.973	1.537	658.51	4.702305445822044	draw_card	1.537	columbia_card_task_fmri	16.0	0.8666666666666667	89.0	-80.0	0.1333333333333333	16.0	2.0	2.0	0.2872987270476272	1.537	n/a	stim	poldrack-single-stim	s588	False	1
658.515	1.83	660.345	3.7880197315363313	draw_card	1.83	columbia_card_task_fmri	16.0	0.8571428571428572	89.0	-80.0	0.1428571428571428	16.0	3.0	2.0	1.2455900991139472	1.83	n/a	stim	poldrack-single-stim	s588	False	1
660.349	1.331	661.68	2.733074676591273	draw_card	1.331	columbia_card_task_fmri	16.0	0.8461538461538461	89.0	-80.0	0.1538461538461538	16.0	4.0	2.0	2.2884933376110936	1.331	4.0	stim	poldrack-single-stim	s588	False	0
662.434	1.5	661.683	n/a	-1.0	2.318	columbia_card_task_fmri	n/a	n/a	-1.0	n/a	n/a	n/a	n/a	n/a	n/a	n/a	n/a	ITI	poldrack-single-stim	s588	False	0
664.007	4.611	668.618	2.689805445822043	draw_card	4.611	columbia_card_task_fmri	4.0	0.6875	89.0	-5.0	0.3125	16.0	1.0	5.0	-27.94711043150253	4.611	n/a	stim	poldrack-single-stim	s588	False	1
668.622	3.07	671.692	2.5023054458220435	draw_card	3.07	columbia_card_task_fmri	4.0	0.6666666666666667	89.0	-5.0	0.3333333333333333	16.0	2.0	5.0	-27.88021844178037	3.07	2.0	stim	poldrack-single-stim	s588	False	0
672.451	1.5	671.7	n/a	-1.0	2.386	columbia_card_task_fmri	n/a	n/a	-1.0	n/a	n/a	n/a	n/a	n/a	n/a	n/a	n/a	ITI	poldrack-single-stim	s588	False	0
674.09	2.565	676.655	-0.1643612208446212	draw_card	2.565	columbia_card_task_fmri	14.0	0.8333333333333334	89.0	-80.0	0.1666666666666666	6.0	1.0	1.0	2.682941935830648	2.565	n/a	stim	poldrack-single-stim	s588	False	1
676.659	1.241	677.9	-3.297694554177956	draw_card	1.241	columbia_card_task_fmri	14.0	0.8	89.0	-80.0	0.2	6.0	2.0	1.0	5.2490128391256405	1.241	2.0	stim	poldrack-single-stim	s588	False	0
678.657	1.5	677.906	n/a	-1.0	2.25	columbia_card_task_fmri	n/a	n/a	-1.0	n/a	n/a	n/a	n/a	n/a	n/a	n/a	n/a	ITI	poldrack-single-stim	s588	False	0
680.161	1.535	681.696	1.502305445822043	draw_card	1.535	columbia_card_task_fmri	15.0	0.8333333333333334	89.0	-75.0	0.1666666666666666	6.0	1.0	1.0	1.1936595585399346	1.535	n/a	stim	poldrack-single-stim	s588	False	1
681.699	0.625	682.324	-1.497694554177957	draw_card	0.625	columbia_card_task_fmri	15.0	0.8	89.0	-75.0	0.2	6.0	2.0	1.0	3.650345050409257	0.625	n/a	stim	poldrack-single-stim	s588	False	1
682.328	0.593	682.921	-5.997694554177957	end_round	0.593	columbia_card_task_fmri	15.0	0.75	71.0	-75.0	0.25	6.0	3.0	1.0	6.619101290456648	0.593	2.0	stim	poldrack-single-stim	s588	False	1
683.678	1.5	682.927	n/a	-1.0	2.386	columbia_card_task_fmri	n/a	n/a	-1.0	n/a	n/a	n/a	n/a	n/a	n/a	n/a	n/a	ITI	poldrack-single-stim	s588	False	0
