onset	duration	movement_onset	CTI	block_duration	correct	correct_response	cue	cue_switch	experiment_exp_id	key_press	response_time	stim_color	stim_number	switch_type	task	task_switch	trial_id	trial_type	worker_id	first_trial_of_block	junk
3.624	1.0	4.533	0.1	2.272	True	89.0	Color	stay	twobytwo	89.0	0.809	orange	7.0	cue_stay	color	stay	stim	poldrack-single-stim	s588	1	False
6.005	1.0	6.786	0.1	2.136	True	71.0	Magnitude	n/a	twobytwo	71.0	0.681	blue	2.0	task_switch	magnitude	switch	stim	poldrack-single-stim	s588	0	False
9.054	1.0	10.439	0.9	2.0	True	71.0	High-Low	switch	twobytwo	71.0	0.485	blue	3.0	cue_switch	magnitude	stay	stim	poldrack-single-stim	s588	0	False
11.966	1.0	13.288	0.9	2.0	True	89.0	Orange-Blue	n/a	twobytwo	89.0	0.422	orange	2.0	task_switch	color	switch	stim	poldrack-single-stim	s588	0	False
14.875	1.0	16.385	0.9	2.136	True	71.0	High-Low	n/a	twobytwo	71.0	0.61	orange	2.0	task_switch	magnitude	switch	stim	poldrack-single-stim	s588	0	False
17.123	1.0	18.048	0.1	2.0	True	71.0	Color	n/a	twobytwo	71.0	0.825	blue	6.0	task_switch	color	switch	stim	poldrack-single-stim	s588	0	False
20.027	1.0	21.488	0.9	2.136	True	89.0	High-Low	n/a	twobytwo	89.0	0.561	orange	8.0	task_switch	magnitude	switch	stim	poldrack-single-stim	s588	0	False
22.267	1.0	23.073	0.1	2.408	True	71.0	High-Low	stay	twobytwo	71.0	0.706	blue	3.0	cue_stay	magnitude	stay	stim	poldrack-single-stim	s588	0	False
25.58	1.0	26.925	0.9	2.136	True	71.0	Orange-Blue	n/a	twobytwo	71.0	0.445	blue	7.0	task_switch	color	switch	stim	poldrack-single-stim	s588	0	False
27.828	1.0	28.793	0.1	2.0	False	71.0	High-Low	n/a	twobytwo	89.0	0.865	blue	1.0	task_switch	magnitude	switch	stim	poldrack-single-stim	s588	0	False
29.934	1.0	31.282	0.1	2.136	True	71.0	Color	n/a	twobytwo	71.0	1.248	blue	8.0	task_switch	color	switch	stim	poldrack-single-stim	s588	0	False
32.979	1.0	34.359	0.9	2.272	True	71.0	Color	stay	twobytwo	71.0	0.48	blue	1.0	cue_stay	color	stay	stim	poldrack-single-stim	s588	0	False
36.159	1.0	37.759	0.9	2.0	True	71.0	Magnitude	n/a	twobytwo	71.0	0.7	orange	2.0	task_switch	magnitude	switch	stim	poldrack-single-stim	s588	0	False
39.068	1.0	40.457	0.9	2.408	True	89.0	Color	n/a	twobytwo	89.0	0.489	orange	6.0	task_switch	color	switch	stim	poldrack-single-stim	s588	0	False
41.588	1.0	42.59	0.1	2.0	True	89.0	Orange-Blue	switch	twobytwo	89.0	0.902	orange	2.0	cue_switch	color	stay	stim	poldrack-single-stim	s588	0	False
43.692	1.0	44.7	0.1	2.136	False	89.0	High-Low	n/a	twobytwo	71.0	0.908	blue	6.0	task_switch	magnitude	switch	stim	poldrack-single-stim	s588	0	False
46.732	1.0	48.125	0.9	2.408	True	71.0	Color	n/a	twobytwo	71.0	0.493	blue	7.0	task_switch	color	switch	stim	poldrack-single-stim	s588	0	False
49.245	1.0	50.276	0.1	2.136	True	71.0	Magnitude	n/a	twobytwo	71.0	0.931	orange	1.0	task_switch	magnitude	switch	stim	poldrack-single-stim	s588	0	False
51.485	1.0	52.31	0.1	2.408	True	89.0	Color	n/a	twobytwo	89.0	0.725	orange	7.0	task_switch	color	switch	stim	poldrack-single-stim	s588	0	False
54.002	1.0	54.857	0.1	2.136	True	71.0	Magnitude	n/a	twobytwo	71.0	0.755	orange	3.0	task_switch	magnitude	switch	stim	poldrack-single-stim	s588	0	False
57.05	1.0	58.463	0.9	2.0	True	71.0	High-Low	switch	twobytwo	71.0	0.513	orange	3.0	cue_switch	magnitude	stay	stim	poldrack-single-stim	s588	0	False
59.957	1.0	61.553	0.9	2.272	True	71.0	High-Low	stay	twobytwo	71.0	0.696	orange	3.0	cue_stay	magnitude	stay	stim	poldrack-single-stim	s588	0	False
62.339	1.0	63.23	0.1	2.0	True	89.0	Orange-Blue	n/a	twobytwo	89.0	0.791	orange	2.0	task_switch	color	switch	stim	poldrack-single-stim	s588	0	False
64.446	1.0	65.266	0.1	2.272	True	89.0	High-Low	n/a	twobytwo	89.0	0.72	blue	9.0	task_switch	magnitude	switch	stim	poldrack-single-stim	s588	0	False
67.625	1.0	69.122	0.9	2.272	True	71.0	Magnitude	switch	twobytwo	71.0	0.597	orange	1.0	cue_switch	magnitude	stay	stim	poldrack-single-stim	s588	0	False
70.803	1.0	72.275	0.9	2.952	True	89.0	High-Low	switch	twobytwo	89.0	0.572	orange	8.0	cue_switch	magnitude	stay	stim	poldrack-single-stim	s588	0	False
73.864	1.0	74.676	0.1	2.68	True	89.0	High-Low	stay	twobytwo	89.0	0.712	orange	8.0	cue_stay	magnitude	stay	stim	poldrack-single-stim	s588	0	False
77.448	1.0	79.137	0.9	2.136	True	89.0	High-Low	stay	twobytwo	89.0	0.789	blue	7.0	cue_stay	magnitude	stay	stim	poldrack-single-stim	s588	0	False
79.691	1.0	80.873	0.1	2.272	True	71.0	High-Low	stay	twobytwo	71.0	1.082	blue	4.0	cue_stay	magnitude	stay	stim	poldrack-single-stim	s588	0	False
82.068	1.0	82.866	0.1	2.272	True	71.0	Magnitude	switch	twobytwo	71.0	0.698	orange	1.0	cue_switch	magnitude	stay	stim	poldrack-single-stim	s588	0	False
85.246	1.0	86.564	0.9	2.136	True	89.0	Color	n/a	twobytwo	89.0	0.418	orange	2.0	task_switch	color	switch	stim	poldrack-single-stim	s588	0	False
87.486	1.0	88.518	0.1	2.408	True	71.0	Orange-Blue	switch	twobytwo	71.0	0.932	blue	4.0	cue_switch	color	stay	stim	poldrack-single-stim	s588	0	False
90.804	1.0	92.115	0.9	2.136	True	71.0	Color	switch	twobytwo	71.0	0.411	blue	2.0	cue_switch	color	stay	stim	poldrack-single-stim	s588	0	False
93.049	1.0	93.904	0.1	2.136	True	89.0	Orange-Blue	switch	twobytwo	89.0	0.755	orange	2.0	cue_switch	color	stay	stim	poldrack-single-stim	s588	0	False
96.097	1.0	97.477	0.9	2.0	True	89.0	Color	switch	twobytwo	89.0	0.48	orange	8.0	cue_switch	color	stay	stim	poldrack-single-stim	s588	0	False
98.204	1.0	98.991	0.1	2.0	True	71.0	Color	stay	twobytwo	71.0	0.687	blue	9.0	cue_stay	color	stay	stim	poldrack-single-stim	s588	0	False
100.311	1.0	101.009	0.1	2.0	True	71.0	Orange-Blue	switch	twobytwo	71.0	0.598	blue	7.0	cue_switch	color	stay	stim	poldrack-single-stim	s588	0	False
103.223	1.0	104.566	0.9	2.0	True	71.0	Color	switch	twobytwo	71.0	0.443	blue	3.0	cue_switch	color	stay	stim	poldrack-single-stim	s588	0	False
105.33	1.0	106.241	0.1	2.0	True	89.0	Orange-Blue	switch	twobytwo	89.0	0.811	orange	6.0	cue_switch	color	stay	stim	poldrack-single-stim	s588	0	False
108.242	1.0	109.766	0.9	2.272	True	89.0	Color	switch	twobytwo	89.0	0.624	orange	8.0	cue_switch	color	stay	stim	poldrack-single-stim	s588	0	False
111.423	1.0	112.899	0.9	2.408	True	89.0	Orange-Blue	switch	twobytwo	89.0	0.576	orange	8.0	cue_switch	color	stay	stim	poldrack-single-stim	s588	0	False
113.938	1.0	115.065	0.1	2.0	True	89.0	Orange-Blue	stay	twobytwo	89.0	1.027	orange	4.0	cue_stay	color	stay	stim	poldrack-single-stim	s588	0	False
116.847	1.0	118.45	0.9	2.136	True	89.0	High-Low	n/a	twobytwo	89.0	0.703	blue	7.0	task_switch	magnitude	switch	stim	poldrack-single-stim	s588	0	False
119.089	1.0	119.963	0.1	2.0	True	89.0	Magnitude	switch	twobytwo	89.0	0.774	blue	7.0	cue_switch	magnitude	stay	stim	poldrack-single-stim	s588	0	False
121.194	1.0	122.072	0.1	2.136	True	71.0	Color	n/a	twobytwo	71.0	0.778	blue	6.0	task_switch	color	switch	stim	poldrack-single-stim	s588	0	False
123.442	1.0	124.495	0.1	2.544	True	71.0	High-Low	n/a	twobytwo	71.0	0.953	orange	2.0	task_switch	magnitude	switch	stim	poldrack-single-stim	s588	0	False
126.896	1.0	128.295	0.9	2.68	True	89.0	Color	n/a	twobytwo	89.0	0.499	orange	9.0	task_switch	color	switch	stim	poldrack-single-stim	s588	0	False
130.483	1.0	131.96	0.9	3.088	True	89.0	Orange-Blue	switch	twobytwo	89.0	0.577	orange	6.0	cue_switch	color	stay	stim	poldrack-single-stim	s588	0	False
134.475	1.0	135.82	0.9	2.136	True	71.0	Color	switch	twobytwo	71.0	0.445	blue	3.0	cue_switch	color	stay	stim	poldrack-single-stim	s588	0	False
136.718	1.0	137.671	0.1	2.544	True	71.0	Orange-Blue	switch	twobytwo	71.0	0.853	blue	7.0	cue_switch	color	stay	stim	poldrack-single-stim	s588	0	False
139.374	1.0	140.181	0.1	2.0	True	89.0	Color	switch	twobytwo	89.0	0.707	orange	7.0	cue_switch	color	stay	stim	poldrack-single-stim	s588	0	False
141.483	1.0	142.289	0.1	2.136	False	89.0	Magnitude	n/a	twobytwo	71.0	0.706	blue	9.0	task_switch	magnitude	switch	stim	poldrack-single-stim	s588	0	False
144.526	1.0	145.85	0.9	2.0	True	71.0	Color	n/a	twobytwo	71.0	0.424	blue	9.0	task_switch	color	switch	stim	poldrack-single-stim	s588	0	False
147.436	1.0	149.092	0.9	2.408	True	71.0	High-Low	n/a	twobytwo	71.0	0.756	orange	1.0	task_switch	magnitude	switch	stim	poldrack-single-stim	s588	0	False
150.756	1.0	152.384	0.9	2.0	True	89.0	Magnitude	switch	twobytwo	89.0	0.728	blue	9.0	cue_switch	magnitude	stay	stim	poldrack-single-stim	s588	0	False
152.862	1.0	153.754	0.1	2.0	True	89.0	Magnitude	stay	twobytwo	89.0	0.792	orange	7.0	cue_stay	magnitude	stay	stim	poldrack-single-stim	s588	0	False
155.774	1.0	157.087	0.9	2.0	True	71.0	Orange-Blue	n/a	twobytwo	71.0	0.413	blue	2.0	task_switch	color	switch	stim	poldrack-single-stim	s588	0	False
158.679	1.0	160.259	0.9	2.68	True	71.0	Orange-Blue	stay	twobytwo	71.0	0.68	blue	8.0	cue_stay	color	stay	stim	poldrack-single-stim	s588	0	False
162.271	1.0	163.702	0.9	2.272	True	71.0	Color	switch	twobytwo	71.0	0.531	blue	6.0	cue_switch	color	stay	stim	poldrack-single-stim	s588	0	False
164.652	1.0	165.492	0.1	2.408	True	89.0	Color	stay	twobytwo	89.0	0.74	orange	8.0	cue_stay	color	stay	stim	poldrack-single-stim	s588	0	False
167.965	1.0	169.408	0.9	3.224	True	89.0	Color	stay	twobytwo	89.0	0.543	orange	6.0	cue_stay	color	stay	stim	poldrack-single-stim	s588	0	False
172.098	1.0	173.51	0.9	2.408	True	89.0	Magnitude	n/a	twobytwo	89.0	0.512	orange	7.0	task_switch	magnitude	switch	stim	poldrack-single-stim	s588	0	False
175.418	1.0	176.823	0.9	2.816	True	89.0	Orange-Blue	n/a	twobytwo	89.0	0.505	orange	9.0	task_switch	color	switch	stim	poldrack-single-stim	s588	0	False
179.138	1.0	180.592	0.9	2.408	True	71.0	Magnitude	n/a	twobytwo	71.0	0.554	orange	1.0	task_switch	magnitude	switch	stim	poldrack-single-stim	s588	0	False
182.45	1.0	183.99	0.9	2.136	False	89.0	Color	n/a	twobytwo	71.0	0.64	orange	1.0	task_switch	color	switch	stim	poldrack-single-stim	s588	0	False
185.496	1.0	187.0	0.9	2.136	True	71.0	Color	stay	twobytwo	71.0	0.604	blue	7.0	cue_stay	color	stay	stim	poldrack-single-stim	s588	0	False
187.738	1.0	188.711	0.1	2.0	True	89.0	Orange-Blue	switch	twobytwo	89.0	0.873	orange	6.0	cue_switch	color	stay	stim	poldrack-single-stim	s588	0	False
190.645	1.0	191.92	0.9	2.0	True	71.0	Color	switch	twobytwo	71.0	0.375	blue	2.0	cue_switch	color	stay	stim	poldrack-single-stim	s588	0	False
193.557	1.0	195.106	0.9	2.272	True	89.0	High-Low	n/a	twobytwo	89.0	0.649	blue	6.0	task_switch	magnitude	switch	stim	poldrack-single-stim	s588	0	False
195.939	1.0	196.989	0.1	2.408	True	71.0	Color	n/a	twobytwo	71.0	0.95	blue	4.0	task_switch	color	switch	stim	poldrack-single-stim	s588	0	False
198.457	1.0	199.263	0.1	2.0	True	89.0	High-Low	n/a	twobytwo	89.0	0.706	orange	6.0	task_switch	magnitude	switch	stim	poldrack-single-stim	s588	0	False
201.364	1.0	202.837	0.9	2.136	True	71.0	Magnitude	switch	twobytwo	71.0	0.573	orange	4.0	cue_switch	magnitude	stay	stim	poldrack-single-stim	s588	0	False
204.411	1.0	205.969	0.9	2.0	True	89.0	Orange-Blue	n/a	twobytwo	89.0	0.658	orange	9.0	task_switch	color	switch	stim	poldrack-single-stim	s588	0	False
206.52	1.0	207.462	0.1	2.408	True	89.0	High-Low	n/a	twobytwo	89.0	0.842	blue	9.0	task_switch	magnitude	switch	stim	poldrack-single-stim	s588	0	False
209.041	1.0	209.915	0.1	2.272	True	89.0	Magnitude	switch	twobytwo	89.0	0.774	blue	6.0	cue_switch	magnitude	stay	stim	poldrack-single-stim	s588	0	False
211.419	1.0	212.534	0.1	2.0	True	89.0	Orange-Blue	n/a	twobytwo	89.0	1.015	orange	2.0	task_switch	color	switch	stim	poldrack-single-stim	s588	0	False
214.33	1.0	215.566	0.9	2.272	True	71.0	Color	switch	twobytwo	71.0	0.336	blue	9.0	cue_switch	color	stay	stim	poldrack-single-stim	s588	0	False
216.71	1.0	217.628	0.1	2.0	False	89.0	High-Low	n/a	twobytwo	71.0	0.818	blue	8.0	task_switch	magnitude	switch	stim	poldrack-single-stim	s588	0	False
218.817	1.0	219.479	0.1	2.0	False	71.0	Orange-Blue	n/a	twobytwo	89.0	0.562	blue	8.0	task_switch	color	switch	stim	poldrack-single-stim	s588	0	False
221.729	1.0	221.728	0.9	2.272	False	71.0	Orange-Blue	stay	twobytwo	-1.0	n/a	blue	4.0	cue_stay	color	stay	stim	poldrack-single-stim	s588	0	False
237.626	1.0	238.436	0.1	2.136	True	89.0	High-Low	stay	twobytwo	89.0	0.71	orange	7.0	cue_stay	magnitude	stay	stim	poldrack-single-stim	s588	1	False
239.869	1.0	240.591	0.1	2.0	True	71.0	Color	n/a	twobytwo	71.0	0.622	blue	2.0	task_switch	color	switch	stim	poldrack-single-stim	s588	0	False
242.775	1.0	244.11	0.9	2.0	True	71.0	Orange-Blue	switch	twobytwo	71.0	0.435	blue	3.0	cue_switch	color	stay	stim	poldrack-single-stim	s588	0	False
245.687	1.0	247.319	0.9	2.0	False	71.0	Magnitude	n/a	twobytwo	89.0	0.732	orange	2.0	task_switch	magnitude	switch	stim	poldrack-single-stim	s588	0	False
248.594	1.0	250.008	0.9	2.0	True	89.0	Color	n/a	twobytwo	89.0	0.514	orange	2.0	task_switch	color	switch	stim	poldrack-single-stim	s588	0	False
250.706	1.0	251.709	0.1	2.0	True	89.0	High-Low	n/a	twobytwo	89.0	0.903	blue	6.0	task_switch	magnitude	switch	stim	poldrack-single-stim	s588	0	False
253.616	1.0	255.163	0.9	2.136	True	89.0	Orange-Blue	n/a	twobytwo	89.0	0.647	orange	8.0	task_switch	color	switch	stim	poldrack-single-stim	s588	0	False
255.859	1.0	256.668	0.1	2.0	True	71.0	Orange-Blue	stay	twobytwo	71.0	0.709	blue	3.0	cue_stay	color	stay	stim	poldrack-single-stim	s588	0	False
258.767	1.0	260.254	0.9	2.0	True	89.0	High-Low	n/a	twobytwo	89.0	0.587	blue	7.0	task_switch	magnitude	switch	stim	poldrack-single-stim	s588	0	False
260.875	1.0	260.874	0.1	2.136	False	71.0	Color	n/a	twobytwo	-1.0	n/a	blue	1.0	task_switch	color	switch	stim	poldrack-single-stim	s588	0	False
263.123	1.0	264.071	0.1	2.0	True	89.0	High-Low	n/a	twobytwo	89.0	0.848	blue	8.0	task_switch	magnitude	switch	stim	poldrack-single-stim	s588	0	False
266.035	1.0	267.554	0.9	2.136	True	71.0	High-Low	stay	twobytwo	71.0	0.619	blue	1.0	cue_stay	magnitude	stay	stim	poldrack-single-stim	s588	0	False
269.078	1.0	270.688	0.9	2.68	True	89.0	Color	n/a	twobytwo	89.0	0.71	orange	2.0	task_switch	color	switch	stim	poldrack-single-stim	s588	0	False
272.665	1.0	274.31	0.9	2.272	True	89.0	High-Low	n/a	twobytwo	89.0	0.745	orange	6.0	task_switch	magnitude	switch	stim	poldrack-single-stim	s588	0	False
275.046	1.0	276.248	0.1	2.136	True	71.0	Magnitude	switch	twobytwo	71.0	1.102	orange	2.0	cue_switch	magnitude	stay	stim	poldrack-single-stim	s588	0	False
277.294	1.0	278.314	0.1	2.0	False	71.0	Orange-Blue	n/a	twobytwo	89.0	0.92	blue	6.0	task_switch	color	switch	stim	poldrack-single-stim	s588	0	False
280.204	1.0	282.007	0.9	2.136	False	89.0	High-Low	n/a	twobytwo	71.0	0.903	blue	7.0	task_switch	magnitude	switch	stim	poldrack-single-stim	s588	0	False
282.444	1.0	283.616	0.1	2.68	True	89.0	Orange-Blue	n/a	twobytwo	89.0	1.072	orange	1.0	task_switch	color	switch	stim	poldrack-single-stim	s588	0	False
285.23	1.0	286.157	0.1	2.272	True	89.0	Magnitude	n/a	twobytwo	89.0	0.827	orange	7.0	task_switch	magnitude	switch	stim	poldrack-single-stim	s588	0	False
287.609	1.0	288.645	0.1	2.0	True	89.0	Color	n/a	twobytwo	89.0	0.936	orange	3.0	task_switch	color	switch	stim	poldrack-single-stim	s588	0	False
290.521	1.0	291.96	0.9	2.0	True	89.0	Orange-Blue	switch	twobytwo	89.0	0.539	orange	3.0	cue_switch	color	stay	stim	poldrack-single-stim	s588	0	False
293.425	1.0	294.935	0.9	2.136	True	89.0	Orange-Blue	stay	twobytwo	89.0	0.61	orange	3.0	cue_stay	color	stay	stim	poldrack-single-stim	s588	0	False
295.674	1.0	296.926	0.1	2.0	True	71.0	Magnitude	n/a	twobytwo	71.0	1.152	orange	2.0	task_switch	magnitude	switch	stim	poldrack-single-stim	s588	0	False
297.78	1.0	297.779	0.1	2.0	False	71.0	Color	n/a	twobytwo	-1.0	n/a	blue	9.0	task_switch	color	switch	stim	poldrack-single-stim	s588	0	False
300.687	1.0	302.209	0.9	2.0	True	89.0	Orange-Blue	switch	twobytwo	89.0	0.622	orange	1.0	cue_switch	color	stay	stim	poldrack-single-stim	s588	0	False
303.599	1.0	305.179	0.9	2.272	True	89.0	Color	switch	twobytwo	89.0	0.68	orange	8.0	cue_switch	color	stay	stim	poldrack-single-stim	s588	0	False
305.984	1.0	306.871	0.1	2.408	True	89.0	Color	stay	twobytwo	89.0	0.787	orange	8.0	cue_stay	color	stay	stim	poldrack-single-stim	s588	0	False
309.301	1.0	310.552	0.9	2.0	True	71.0	Color	stay	twobytwo	71.0	0.351	blue	7.0	cue_stay	color	stay	stim	poldrack-single-stim	s588	0	False
311.408	1.0	312.168	0.1	2.0	True	71.0	Color	stay	twobytwo	71.0	0.66	blue	4.0	cue_stay	color	stay	stim	poldrack-single-stim	s588	0	False
313.514	1.0	314.555	0.1	2.0	True	89.0	Orange-Blue	switch	twobytwo	89.0	0.941	orange	1.0	cue_switch	color	stay	stim	poldrack-single-stim	s588	0	False
316.421	1.0	317.829	0.9	2.272	True	71.0	Magnitude	n/a	twobytwo	71.0	0.508	orange	2.0	task_switch	magnitude	switch	stim	poldrack-single-stim	s588	0	False
318.8	1.0	319.769	0.1	2.136	True	71.0	High-Low	switch	twobytwo	71.0	0.869	blue	4.0	cue_switch	magnitude	stay	stim	poldrack-single-stim	s588	0	False
321.845	1.0	323.46	0.9	2.0	True	71.0	Magnitude	switch	twobytwo	71.0	0.715	blue	2.0	cue_switch	magnitude	stay	stim	poldrack-single-stim	s588	0	False
323.952	1.0	324.914	0.1	2.544	True	71.0	High-Low	switch	twobytwo	71.0	0.862	orange	2.0	cue_switch	magnitude	stay	stim	poldrack-single-stim	s588	0	False
327.408	1.0	328.883	0.9	2.272	True	89.0	Magnitude	switch	twobytwo	89.0	0.575	orange	8.0	cue_switch	magnitude	stay	stim	poldrack-single-stim	s588	0	False
329.789	1.0	330.932	0.1	2.272	True	89.0	Magnitude	stay	twobytwo	89.0	1.043	blue	9.0	cue_stay	magnitude	stay	stim	poldrack-single-stim	s588	0	False
332.167	1.0	333.189	0.1	2.0	True	89.0	High-Low	switch	twobytwo	89.0	0.922	blue	7.0	cue_switch	magnitude	stay	stim	poldrack-single-stim	s588	0	False
335.078	1.0	336.563	0.9	2.0	True	71.0	Magnitude	switch	twobytwo	71.0	0.585	blue	3.0	cue_switch	magnitude	stay	stim	poldrack-single-stim	s588	0	False
337.184	1.0	338.014	0.1	2.136	True	89.0	High-Low	switch	twobytwo	89.0	0.73	orange	6.0	cue_switch	magnitude	stay	stim	poldrack-single-stim	s588	0	False
340.23	1.0	341.728	0.9	2.0	True	89.0	Magnitude	switch	twobytwo	89.0	0.598	orange	8.0	cue_switch	magnitude	stay	stim	poldrack-single-stim	s588	0	False
343.134	1.0	344.545	0.9	2.136	True	89.0	High-Low	switch	twobytwo	89.0	0.511	orange	8.0	cue_switch	magnitude	stay	stim	poldrack-single-stim	s588	0	False
345.382	1.0	346.417	0.1	2.272	True	71.0	High-Low	stay	twobytwo	71.0	0.935	orange	4.0	cue_stay	magnitude	stay	stim	poldrack-single-stim	s588	0	False
348.558	1.0	350.408	0.9	2.136	True	71.0	Color	n/a	twobytwo	71.0	0.95	blue	7.0	task_switch	color	switch	stim	poldrack-single-stim	s588	0	False
350.807	1.0	351.803	0.1	2.272	True	71.0	Orange-Blue	switch	twobytwo	71.0	0.896	blue	7.0	cue_switch	color	stay	stim	poldrack-single-stim	s588	0	False
353.191	1.0	354.309	0.1	2.0	True	89.0	Magnitude	n/a	twobytwo	89.0	1.018	blue	6.0	task_switch	magnitude	switch	stim	poldrack-single-stim	s588	0	False
355.298	1.0	356.232	0.1	2.816	True	89.0	Orange-Blue	n/a	twobytwo	89.0	0.834	orange	2.0	task_switch	color	switch	stim	poldrack-single-stim	s588	0	False
359.023	1.0	360.443	0.9	2.408	False	89.0	High-Low	n/a	twobytwo	71.0	0.52	orange	9.0	task_switch	magnitude	switch	stim	poldrack-single-stim	s588	0	False
362.343	1.0	363.867	0.9	2.0	True	89.0	Magnitude	switch	twobytwo	89.0	0.624	orange	6.0	cue_switch	magnitude	stay	stim	poldrack-single-stim	s588	0	False
365.25	1.0	366.706	0.9	2.544	True	71.0	High-Low	switch	twobytwo	71.0	0.556	blue	3.0	cue_switch	magnitude	stay	stim	poldrack-single-stim	s588	0	False
367.898	1.0	369.03	0.1	2.136	True	89.0	Magnitude	switch	twobytwo	89.0	1.032	blue	7.0	cue_switch	magnitude	stay	stim	poldrack-single-stim	s588	0	False
370.142	1.0	371.133	0.1	2.0	True	89.0	High-Low	switch	twobytwo	89.0	0.891	orange	7.0	cue_switch	magnitude	stay	stim	poldrack-single-stim	s588	0	False
372.253	1.0	373.004	0.1	2.0	True	71.0	Orange-Blue	n/a	twobytwo	71.0	0.651	blue	9.0	task_switch	color	switch	stim	poldrack-single-stim	s588	0	False
375.162	1.0	376.51	0.9	2.136	False	89.0	High-Low	n/a	twobytwo	71.0	0.448	blue	9.0	task_switch	magnitude	switch	stim	poldrack-single-stim	s588	0	False
378.208	1.0	379.734	0.9	2.136	True	89.0	Color	n/a	twobytwo	89.0	0.626	orange	1.0	task_switch	color	switch	stim	poldrack-single-stim	s588	0	False
381.252	1.0	382.963	0.9	2.272	True	71.0	Orange-Blue	switch	twobytwo	71.0	0.811	blue	9.0	cue_switch	color	stay	stim	poldrack-single-stim	s588	0	False
383.632	1.0	384.574	0.1	3.224	True	89.0	Orange-Blue	stay	twobytwo	89.0	0.842	orange	7.0	cue_stay	color	stay	stim	poldrack-single-stim	s588	0	False
387.763	1.0	389.48	0.9	2.0	False	71.0	High-Low	n/a	twobytwo	89.0	0.817	blue	2.0	task_switch	magnitude	switch	stim	poldrack-single-stim	s588	0	False
390.67	1.0	390.669	0.9	2.0	False	89.0	High-Low	stay	twobytwo	-1.0	n/a	blue	8.0	cue_stay	magnitude	stay	stim	poldrack-single-stim	s588	0	False
393.582	1.0	395.354	0.9	2.272	True	89.0	Magnitude	switch	twobytwo	89.0	0.872	blue	6.0	cue_switch	magnitude	stay	stim	poldrack-single-stim	s588	0	False
395.965	1.0	396.969	0.1	2.136	True	89.0	Magnitude	stay	twobytwo	89.0	0.904	orange	8.0	cue_stay	magnitude	stay	stim	poldrack-single-stim	s588	0	False
399.011	1.0	400.501	0.9	2.0	True	89.0	Magnitude	stay	twobytwo	89.0	0.59	orange	6.0	cue_stay	magnitude	stay	stim	poldrack-single-stim	s588	0	False
401.918	1.0	403.349	0.9	2.0	True	89.0	Orange-Blue	n/a	twobytwo	89.0	0.531	orange	7.0	task_switch	color	switch	stim	poldrack-single-stim	s588	0	False
404.825	1.0	406.504	0.9	2.0	True	89.0	High-Low	n/a	twobytwo	89.0	0.779	orange	9.0	task_switch	magnitude	switch	stim	poldrack-single-stim	s588	0	False
407.734	1.0	409.112	0.9	2.68	True	89.0	Color	n/a	twobytwo	89.0	0.478	orange	1.0	task_switch	color	switch	stim	poldrack-single-stim	s588	0	False
411.327	1.0	412.807	0.9	2.0	False	71.0	High-Low	n/a	twobytwo	89.0	0.58	orange	1.0	task_switch	magnitude	switch	stim	poldrack-single-stim	s588	0	False
414.233	1.0	414.232	0.9	2.272	False	89.0	High-Low	stay	twobytwo	-1.0	n/a	blue	7.0	cue_stay	magnitude	stay	stim	poldrack-single-stim	s588	0	False
416.617	1.0	417.647	0.1	2.0	True	89.0	Magnitude	switch	twobytwo	89.0	0.93	orange	6.0	cue_switch	magnitude	stay	stim	poldrack-single-stim	s588	0	False
419.521	1.0	420.973	0.9	2.272	True	71.0	High-Low	switch	twobytwo	71.0	0.552	blue	2.0	cue_switch	magnitude	stay	stim	poldrack-single-stim	s588	0	False
422.7	1.0	424.343	0.9	2.952	True	71.0	Orange-Blue	n/a	twobytwo	71.0	0.743	blue	6.0	task_switch	color	switch	stim	poldrack-single-stim	s588	0	False
425.764	1.0	426.897	0.1	2.0	True	71.0	Magnitude	n/a	twobytwo	71.0	1.033	blue	4.0	task_switch	magnitude	switch	stim	poldrack-single-stim	s588	0	False
427.871	1.0	428.899	0.1	2.0	True	89.0	Orange-Blue	n/a	twobytwo	89.0	0.928	orange	6.0	task_switch	color	switch	stim	poldrack-single-stim	s588	0	False
430.783	1.0	432.276	0.9	2.0	True	89.0	Color	switch	twobytwo	89.0	0.593	orange	4.0	cue_switch	color	stay	stim	poldrack-single-stim	s588	0	False
433.687	1.0	435.153	0.9	2.0	False	89.0	High-Low	n/a	twobytwo	71.0	0.566	orange	9.0	task_switch	magnitude	switch	stim	poldrack-single-stim	s588	0	False
435.794	1.0	436.695	0.1	2.136	True	71.0	Orange-Blue	n/a	twobytwo	71.0	0.801	blue	9.0	task_switch	color	switch	stim	poldrack-single-stim	s588	0	False
438.042	1.0	439.274	0.1	2.0	True	71.0	Color	switch	twobytwo	71.0	1.132	blue	6.0	cue_switch	color	stay	stim	poldrack-single-stim	s588	0	False
440.149	1.0	441.155	0.1	2.0	False	71.0	High-Low	n/a	twobytwo	89.0	0.906	orange	2.0	task_switch	magnitude	switch	stim	poldrack-single-stim	s588	0	False
443.056	1.0	444.777	0.9	2.0	True	89.0	Magnitude	switch	twobytwo	89.0	0.821	blue	9.0	cue_switch	magnitude	stay	stim	poldrack-single-stim	s588	0	False
445.163	1.0	446.089	0.1	2.272	True	71.0	Color	n/a	twobytwo	71.0	0.826	blue	8.0	task_switch	color	switch	stim	poldrack-single-stim	s588	0	False
447.544	1.0	448.523	0.1	2.136	True	89.0	High-Low	n/a	twobytwo	89.0	0.879	blue	8.0	task_switch	magnitude	switch	stim	poldrack-single-stim	s588	0	False
450.592	1.0	452.061	0.9	2.0	True	71.0	High-Low	stay	twobytwo	71.0	0.569	blue	4.0	cue_stay	magnitude	stay	stim	poldrack-single-stim	s588	0	False
466.217	1.0	467.007	0.1	2.136	True	89.0	High-Low	stay	twobytwo	89.0	0.69	orange	7.0	cue_stay	magnitude	stay	stim	poldrack-single-stim	s588	1	False
468.458	1.0	469.246	0.1	2.816	True	71.0	Orange-Blue	n/a	twobytwo	71.0	0.688	blue	2.0	task_switch	color	switch	stim	poldrack-single-stim	s588	0	False
472.18	1.0	473.587	0.9	2.408	True	71.0	Color	switch	twobytwo	71.0	0.507	blue	3.0	cue_switch	color	stay	stim	poldrack-single-stim	s588	0	False
475.494	1.0	477.392	0.9	2.0	True	71.0	Magnitude	n/a	twobytwo	71.0	0.998	orange	2.0	task_switch	magnitude	switch	stim	poldrack-single-stim	s588	0	False
478.403	1.0	479.901	0.9	2.136	True	89.0	Color	n/a	twobytwo	89.0	0.598	orange	2.0	task_switch	color	switch	stim	poldrack-single-stim	s588	0	False
480.644	1.0	481.609	0.1	2.136	True	89.0	High-Low	n/a	twobytwo	89.0	0.865	blue	6.0	task_switch	magnitude	switch	stim	poldrack-single-stim	s588	0	False
483.684	1.0	485.188	0.9	2.136	True	89.0	Color	n/a	twobytwo	89.0	0.604	orange	8.0	task_switch	color	switch	stim	poldrack-single-stim	s588	0	False
485.932	1.0	486.804	0.1	2.544	True	71.0	Color	stay	twobytwo	71.0	0.772	blue	3.0	cue_stay	color	stay	stim	poldrack-single-stim	s588	0	False
489.386	1.0	490.959	0.9	2.136	True	89.0	Magnitude	n/a	twobytwo	89.0	0.673	blue	7.0	task_switch	magnitude	switch	stim	poldrack-single-stim	s588	0	False
491.631	1.0	492.846	0.1	2.0	True	71.0	Orange-Blue	n/a	twobytwo	71.0	1.115	blue	1.0	task_switch	color	switch	stim	poldrack-single-stim	s588	0	False
493.741	1.0	494.491	0.1	2.0	True	89.0	High-Low	n/a	twobytwo	89.0	0.65	blue	8.0	task_switch	magnitude	switch	stim	poldrack-single-stim	s588	0	False
496.653	1.0	498.064	0.9	2.0	True	71.0	High-Low	stay	twobytwo	71.0	0.511	blue	1.0	cue_stay	magnitude	stay	stim	poldrack-single-stim	s588	0	False
499.565	1.0	500.906	0.9	2.0	True	89.0	Color	n/a	twobytwo	89.0	0.441	orange	2.0	task_switch	color	switch	stim	poldrack-single-stim	s588	0	False
502.474	1.0	504.04	0.9	2.136	True	89.0	Magnitude	n/a	twobytwo	89.0	0.666	orange	6.0	task_switch	magnitude	switch	stim	poldrack-single-stim	s588	0	False
504.723	1.0	505.515	0.1	2.0	True	71.0	High-Low	switch	twobytwo	71.0	0.692	orange	2.0	cue_switch	magnitude	stay	stim	poldrack-single-stim	s588	0	False
506.834	1.0	507.604	0.1	2.0	True	71.0	Orange-Blue	n/a	twobytwo	71.0	0.67	blue	6.0	task_switch	color	switch	stim	poldrack-single-stim	s588	0	False
509.747	1.0	511.24	0.9	2.0	True	89.0	High-Low	n/a	twobytwo	89.0	0.593	blue	7.0	task_switch	magnitude	switch	stim	poldrack-single-stim	s588	0	False
511.856	1.0	512.713	0.1	2.136	True	89.0	Color	n/a	twobytwo	89.0	0.757	orange	1.0	task_switch	color	switch	stim	poldrack-single-stim	s588	0	False
514.096	1.0	514.87	0.1	2.136	True	89.0	High-Low	n/a	twobytwo	89.0	0.674	orange	7.0	task_switch	magnitude	switch	stim	poldrack-single-stim	s588	0	False
516.339	1.0	517.357	0.1	2.136	True	89.0	Orange-Blue	n/a	twobytwo	89.0	0.918	orange	3.0	task_switch	color	switch	stim	poldrack-single-stim	s588	0	False
519.382	1.0	521.023	0.9	2.136	True	89.0	Color	switch	twobytwo	89.0	0.741	orange	3.0	cue_switch	color	stay	stim	poldrack-single-stim	s588	0	False
522.427	1.0	523.855	0.9	2.68	True	89.0	Color	stay	twobytwo	89.0	0.528	orange	3.0	cue_stay	color	stay	stim	poldrack-single-stim	s588	0	False
525.214	1.0	526.19	0.1	2.544	True	71.0	Magnitude	n/a	twobytwo	71.0	0.876	orange	2.0	task_switch	magnitude	switch	stim	poldrack-single-stim	s588	0	False
527.869	1.0	528.916	0.1	2.272	True	71.0	Color	n/a	twobytwo	71.0	0.947	blue	9.0	task_switch	color	switch	stim	poldrack-single-stim	s588	0	False
531.051	1.0	532.797	0.9	2.272	True	89.0	Orange-Blue	switch	twobytwo	89.0	0.846	orange	1.0	cue_switch	color	stay	stim	poldrack-single-stim	s588	0	False
534.23	1.0	535.705	0.9	2.408	True	89.0	Color	switch	twobytwo	89.0	0.575	orange	8.0	cue_switch	color	stay	stim	poldrack-single-stim	s588	0	False
536.748	1.0	537.924	0.1	2.136	True	89.0	Color	stay	twobytwo	89.0	1.076	orange	8.0	cue_stay	color	stay	stim	poldrack-single-stim	s588	0	False
539.796	1.0	541.034	0.9	2.272	True	71.0	Color	stay	twobytwo	71.0	0.338	blue	7.0	cue_stay	color	stay	stim	poldrack-single-stim	s588	0	False
542.175	1.0	542.918	0.1	2.0	True	71.0	Color	stay	twobytwo	71.0	0.643	blue	4.0	cue_stay	color	stay	stim	poldrack-single-stim	s588	0	False
544.284	1.0	545.183	0.1	2.136	True	89.0	Orange-Blue	switch	twobytwo	89.0	0.799	orange	1.0	cue_switch	color	stay	stim	poldrack-single-stim	s588	0	False
547.332	1.0	548.801	0.9	2.272	True	71.0	High-Low	n/a	twobytwo	71.0	0.569	orange	2.0	task_switch	magnitude	switch	stim	poldrack-single-stim	s588	0	False
549.711	1.0	550.834	0.1	2.0	True	71.0	Magnitude	switch	twobytwo	71.0	1.023	blue	4.0	cue_switch	magnitude	stay	stim	poldrack-single-stim	s588	0	False
552.615	1.0	554.01	0.9	2.68	True	71.0	High-Low	switch	twobytwo	71.0	0.495	blue	2.0	cue_switch	magnitude	stay	stim	poldrack-single-stim	s588	0	False
555.402	1.0	556.31	0.1	2.0	True	71.0	Magnitude	switch	twobytwo	71.0	0.808	orange	2.0	cue_switch	magnitude	stay	stim	poldrack-single-stim	s588	0	False
558.309	1.0	559.671	0.9	2.0	True	89.0	High-Low	switch	twobytwo	89.0	0.462	orange	8.0	cue_switch	magnitude	stay	stim	poldrack-single-stim	s588	0	False
560.416	1.0	561.34	0.1	2.0	True	89.0	High-Low	stay	twobytwo	89.0	0.824	blue	9.0	cue_stay	magnitude	stay	stim	poldrack-single-stim	s588	0	False
562.522	1.0	563.457	0.1	2.272	True	89.0	Magnitude	switch	twobytwo	89.0	0.835	blue	7.0	cue_switch	magnitude	stay	stim	poldrack-single-stim	s588	0	False
565.706	1.0	567.158	0.9	2.0	True	71.0	High-Low	switch	twobytwo	71.0	0.552	blue	3.0	cue_switch	magnitude	stay	stim	poldrack-single-stim	s588	0	False
567.813	1.0	568.752	0.1	2.0	True	89.0	Magnitude	switch	twobytwo	89.0	0.839	orange	6.0	cue_switch	magnitude	stay	stim	poldrack-single-stim	s588	0	False
570.725	1.0	572.37	0.9	2.0	True	89.0	High-Low	switch	twobytwo	89.0	0.745	orange	8.0	cue_switch	magnitude	stay	stim	poldrack-single-stim	s588	0	False
573.635	1.0	575.177	0.9	2.68	True	89.0	Magnitude	switch	twobytwo	89.0	0.642	orange	8.0	cue_switch	magnitude	stay	stim	poldrack-single-stim	s588	0	False
576.427	1.0	577.42	0.1	2.0	True	71.0	Magnitude	stay	twobytwo	71.0	0.893	orange	4.0	cue_stay	magnitude	stay	stim	poldrack-single-stim	s588	0	False
579.336	1.0	580.974	0.9	2.136	True	71.0	Color	n/a	twobytwo	71.0	0.738	blue	7.0	task_switch	color	switch	stim	poldrack-single-stim	s588	0	False
581.582	1.0	582.645	0.1	2.408	True	71.0	Orange-Blue	switch	twobytwo	71.0	0.963	blue	7.0	cue_switch	color	stay	stim	poldrack-single-stim	s588	0	False
584.094	1.0	585.168	0.1	2.136	True	89.0	Magnitude	n/a	twobytwo	89.0	0.974	blue	6.0	task_switch	magnitude	switch	stim	poldrack-single-stim	s588	0	False
586.337	1.0	587.525	0.1	2.0	True	89.0	Color	n/a	twobytwo	89.0	1.088	orange	2.0	task_switch	color	switch	stim	poldrack-single-stim	s588	0	False
589.249	1.0	590.823	0.9	2.0	True	89.0	High-Low	n/a	twobytwo	89.0	0.674	orange	9.0	task_switch	magnitude	switch	stim	poldrack-single-stim	s588	0	False
592.156	1.0	593.687	0.9	2.544	True	89.0	Magnitude	switch	twobytwo	89.0	0.631	orange	6.0	cue_switch	magnitude	stay	stim	poldrack-single-stim	s588	0	False
595.608	1.0	597.033	0.9	2.136	True	71.0	High-Low	switch	twobytwo	71.0	0.525	blue	3.0	cue_switch	magnitude	stay	stim	poldrack-single-stim	s588	0	False
597.852	1.0	599.081	0.1	2.544	True	89.0	Magnitude	switch	twobytwo	89.0	1.129	blue	7.0	cue_switch	magnitude	stay	stim	poldrack-single-stim	s588	0	False
600.5	1.0	601.321	0.1	2.68	True	89.0	High-Low	switch	twobytwo	89.0	0.721	orange	7.0	cue_switch	magnitude	stay	stim	poldrack-single-stim	s588	0	False
603.292	1.0	604.112	0.1	2.0	True	71.0	Orange-Blue	n/a	twobytwo	71.0	0.72	blue	9.0	task_switch	color	switch	stim	poldrack-single-stim	s588	0	False
606.197	1.0	607.818	0.9	2.272	True	89.0	High-Low	n/a	twobytwo	89.0	0.721	blue	9.0	task_switch	magnitude	switch	stim	poldrack-single-stim	s588	0	False
609.378	1.0	610.795	0.9	3.088	True	89.0	Color	n/a	twobytwo	89.0	0.517	orange	1.0	task_switch	color	switch	stim	poldrack-single-stim	s588	0	False
613.37	1.0	614.909	0.9	2.0	True	71.0	Orange-Blue	switch	twobytwo	71.0	0.639	blue	9.0	cue_switch	color	stay	stim	poldrack-single-stim	s588	0	False
615.477	1.0	616.302	0.1	2.136	True	89.0	Orange-Blue	stay	twobytwo	89.0	0.725	orange	7.0	cue_stay	color	stay	stim	poldrack-single-stim	s588	0	False
618.522	1.0	619.957	0.9	2.136	True	71.0	High-Low	n/a	twobytwo	71.0	0.535	blue	2.0	task_switch	magnitude	switch	stim	poldrack-single-stim	s588	0	False
621.566	1.0	623.148	0.9	2.0	True	89.0	High-Low	stay	twobytwo	89.0	0.682	blue	8.0	cue_stay	magnitude	stay	stim	poldrack-single-stim	s588	0	False
624.477	1.0	625.926	0.9	2.272	True	89.0	Magnitude	switch	twobytwo	89.0	0.549	blue	6.0	cue_switch	magnitude	stay	stim	poldrack-single-stim	s588	0	False
626.856	1.0	627.693	0.1	2.0	True	89.0	Magnitude	stay	twobytwo	89.0	0.737	orange	8.0	cue_stay	magnitude	stay	stim	poldrack-single-stim	s588	0	False
629.764	1.0	631.161	0.9	2.136	True	89.0	Magnitude	stay	twobytwo	89.0	0.497	orange	6.0	cue_stay	magnitude	stay	stim	poldrack-single-stim	s588	0	False
632.805	1.0	634.176	0.9	2.136	True	89.0	Color	n/a	twobytwo	89.0	0.471	orange	7.0	task_switch	color	switch	stim	poldrack-single-stim	s588	0	False
635.853	1.0	637.501	0.9	2.544	True	89.0	Magnitude	n/a	twobytwo	89.0	0.748	orange	9.0	task_switch	magnitude	switch	stim	poldrack-single-stim	s588	0	False
639.307	1.0	640.744	0.9	2.0	True	89.0	Color	n/a	twobytwo	89.0	0.537	orange	1.0	task_switch	color	switch	stim	poldrack-single-stim	s588	0	False
642.214	1.0	643.8	0.9	2.136	True	71.0	High-Low	n/a	twobytwo	71.0	0.686	orange	1.0	task_switch	magnitude	switch	stim	poldrack-single-stim	s588	0	False
645.259	1.0	646.761	0.9	2.136	True	89.0	High-Low	stay	twobytwo	89.0	0.602	blue	7.0	cue_stay	magnitude	stay	stim	poldrack-single-stim	s588	0	False
647.505	1.0	648.752	0.1	2.136	True	89.0	Magnitude	switch	twobytwo	89.0	1.147	orange	6.0	cue_switch	magnitude	stay	stim	poldrack-single-stim	s588	0	False
650.547	1.0	652.028	0.9	2.0	True	71.0	High-Low	switch	twobytwo	71.0	0.581	blue	2.0	cue_switch	magnitude	stay	stim	poldrack-single-stim	s588	0	False
653.452	1.0	654.768	0.9	2.136	True	71.0	Orange-Blue	n/a	twobytwo	71.0	0.416	blue	6.0	task_switch	color	switch	stim	poldrack-single-stim	s588	0	False
655.7	1.0	656.943	0.1	2.0	True	71.0	High-Low	n/a	twobytwo	71.0	1.143	blue	4.0	task_switch	magnitude	switch	stim	poldrack-single-stim	s588	0	False
657.809	1.0	658.595	0.1	2.136	True	89.0	Orange-Blue	n/a	twobytwo	89.0	0.686	orange	6.0	task_switch	color	switch	stim	poldrack-single-stim	s588	0	False
660.852	1.0	662.163	0.9	2.816	True	89.0	Color	switch	twobytwo	89.0	0.411	orange	4.0	cue_switch	color	stay	stim	poldrack-single-stim	s588	0	False
664.577	1.0	666.104	0.9	2.136	True	89.0	Magnitude	n/a	twobytwo	89.0	0.627	orange	9.0	task_switch	magnitude	switch	stim	poldrack-single-stim	s588	0	False
666.825	1.0	667.557	0.1	2.0	True	71.0	Color	n/a	twobytwo	71.0	0.632	blue	9.0	task_switch	color	switch	stim	poldrack-single-stim	s588	0	False
668.932	1.0	670.119	0.1	2.0	True	71.0	Orange-Blue	switch	twobytwo	71.0	1.087	blue	6.0	cue_switch	color	stay	stim	poldrack-single-stim	s588	0	False
671.039	1.0	671.876	0.1	2.272	False	71.0	High-Low	n/a	twobytwo	89.0	0.737	orange	2.0	task_switch	magnitude	switch	stim	poldrack-single-stim	s588	0	False
674.22	1.0	675.756	0.9	2.0	True	89.0	Magnitude	switch	twobytwo	89.0	0.636	blue	9.0	cue_switch	magnitude	stay	stim	poldrack-single-stim	s588	0	False
676.33	1.0	677.223	0.1	2.0	True	71.0	Orange-Blue	n/a	twobytwo	71.0	0.793	blue	8.0	task_switch	color	switch	stim	poldrack-single-stim	s588	0	False
678.437	1.0	679.292	0.1	2.0	True	89.0	Magnitude	n/a	twobytwo	89.0	0.755	blue	8.0	task_switch	magnitude	switch	stim	poldrack-single-stim	s588	0	False
681.341	1.0	682.819	0.9	2.408	True	71.0	Magnitude	stay	twobytwo	71.0	0.578	blue	4.0	cue_stay	magnitude	stay	stim	poldrack-single-stim	s588	0	False
