onset	duration	movement_onset	EV	action	block_duration	experiment_exp_id	gain_amount	gain_probability	key_press	loss_amount	loss_probability	num_cards	num_click_in_round	num_loss_cards	risk	response_time	total_cards	trial_id	trial_type	worker_id	junk	feedback
3.017	3.838	6.855	-2.1451346374423297	draw_card	3.838	columbia_card_task_fmri	12.0	0.8333333333333334	89.0	-70.0	0.1666666666666666	6.0	1.0	1.0	-1.5793800025398106	3.838	n/a	stim	poldrack-single-stim	s589	False	1
6.859	0.904	7.763	-4.878467970775662	end_round	0.904	columbia_card_task_fmri	12.0	0.8	71.0	-70.0	0.2	6.0	2.0	1.0	0.6607685016362979	0.904	1.0	stim	poldrack-single-stim	s589	False	1
8.517	1.5	7.766	n/a	-1.0	2.25	columbia_card_task_fmri	n/a	n/a	-1.0	n/a	n/a	n/a	n/a	n/a	n/a	n/a	n/a	ITI	poldrack-single-stim	s589	False	0
10.02	3.295	13.315	-1.3118013041089958	draw_card	3.295	columbia_card_task_fmri	14.0	0.8333333333333334	89.0	-75.0	0.1666666666666666	6.0	1.0	1.0	1.029071418887142	3.295	1.0	stim	poldrack-single-stim	s589	False	0
14.071	1.5	13.32	n/a	-1.0	2.386	columbia_card_task_fmri	n/a	n/a	-1.0	n/a	n/a	n/a	n/a	n/a	n/a	n/a	n/a	ITI	poldrack-single-stim	s589	False	0
15.708	4.068	19.776	0.3548653625576702	draw_card	4.068	columbia_card_task_fmri	15.0	0.8333333333333334	89.0	-70.0	0.1666666666666666	6.0	1.0	1.0	-0.4614781900373188	4.068	n/a	stim	poldrack-single-stim	s589	False	1
19.778	1.415	21.193	-2.478467970775664	draw_card	1.415	columbia_card_task_fmri	15.0	0.8	89.0	-70.0	0.2	6.0	2.0	1.0	1.8606453508060736	1.415	n/a	stim	poldrack-single-stim	s589	False	1
21.194	0.585	21.779	-6.728467970775664	end_round	0.585	columbia_card_task_fmri	15.0	0.75	71.0	-70.0	0.25	6.0	3.0	1.0	4.666468375657431	0.585	2.0	stim	poldrack-single-stim	s589	False	1
22.534	1.5	21.783	n/a	-1.0	2.59	columbia_card_task_fmri	n/a	n/a	-1.0	n/a	n/a	n/a	n/a	n/a	n/a	n/a	n/a	ITI	poldrack-single-stim	s589	False	0
24.377	2.677	27.054	1.1881986958910042	draw_card	2.677	columbia_card_task_fmri	17.0	0.8333333333333334	89.0	-75.0	0.1666666666666666	6.0	1.0	1.0	2.1469928902010693	2.677	n/a	stim	poldrack-single-stim	s589	False	1
27.055	0.606	27.661	-1.8784679707756624	draw_card	0.606	columbia_card_task_fmri	17.0	0.8	89.0	-75.0	0.2	6.0	2.0	1.0	4.660389228546116	0.606	n/a	stim	poldrack-single-stim	s589	False	1
27.662	0.429	28.091	-6.478467970775664	end_round	0.429	columbia_card_task_fmri	17.0	0.75	71.0	-75.0	0.25	6.0	3.0	1.0	7.697320688522666	0.429	2.0	stim	poldrack-single-stim	s589	False	1
28.845	1.5	28.094	n/a	-1.0	2.658	columbia_card_task_fmri	n/a	n/a	-1.0	n/a	n/a	n/a	n/a	n/a	n/a	n/a	n/a	ITI	poldrack-single-stim	s589	False	0
30.755	4.627	35.382	2.5215320292243364	draw_card	4.627	columbia_card_task_fmri	24.0	0.75	89.0	-60.0	0.25	8.0	1.0	2.0	4.233492692468374	4.627	n/a	stim	poldrack-single-stim	s589	False	1
35.386	0.899	36.285	-0.4784679707756636	draw_card	0.899	columbia_card_task_fmri	24.0	0.7142857142857143	89.0	-60.0	0.2857142857142857	8.0	2.0	2.0	5.807627117121484	0.899	n/a	stim	poldrack-single-stim	s589	False	1
36.287	1.646	37.933	-4.478467970775664	draw_card	1.646	columbia_card_task_fmri	24.0	0.6666666666666667	89.0	-60.0	0.3333333333333333	8.0	3.0	2.0	7.458149215216125	1.646	3.0	stim	poldrack-single-stim	s589	False	0
38.688	1.5	37.937	n/a	-1.0	2.386	columbia_card_task_fmri	n/a	n/a	-1.0	n/a	n/a	n/a	n/a	n/a	n/a	n/a	n/a	ITI	poldrack-single-stim	s589	False	0
40.325	7.35	47.675	2.5215320292243364	draw_card	7.35	columbia_card_task_fmri	29.0	0.75	89.0	-75.0	0.25	8.0	1.0	2.0	12.893141603683468	7.35	n/a	stim	poldrack-single-stim	s589	False	1
47.676	1.991	49.667	-1.1927536850613754	draw_card	1.991	columbia_card_task_fmri	29.0	0.7142857142857143	89.0	-75.0	0.2857142857142857	8.0	2.0	2.0	14.842126118525512	1.991	n/a	stim	poldrack-single-stim	s589	False	1
49.669	2.435	52.104	-6.145134637442328	end_round	2.435	columbia_card_task_fmri	29.0	0.6666666666666667	71.0	-75.0	0.3333333333333333	8.0	3.0	2.0	16.88568377749317	2.435	2.0	stim	poldrack-single-stim	s589	False	1
52.857	1.5	52.106	n/a	-1.0	2.386	columbia_card_task_fmri	n/a	n/a	-1.0	n/a	n/a	n/a	n/a	n/a	n/a	n/a	n/a	ITI	poldrack-single-stim	s589	False	0
54.495	4.175	58.67	-1.7006901929978833	draw_card	4.175	columbia_card_task_fmri	17.0	0.7777777777777778	89.0	-65.0	0.2222222222222222	9.0	1.0	2.0	1.951292589938028	4.175	n/a	stim	poldrack-single-stim	s589	False	1
58.672	0.448	59.12	-3.978467970775664	end_round	0.448	columbia_card_task_fmri	17.0	0.75	71.0	-65.0	0.25	9.0	2.0	2.0	3.367544034414294	0.448	1.0	stim	poldrack-single-stim	s589	False	1
59.873	1.5	59.122	n/a	-1.0	2.25	columbia_card_task_fmri	n/a	n/a	-1.0	n/a	n/a	n/a	n/a	n/a	n/a	n/a	n/a	ITI	poldrack-single-stim	s589	False	0
61.376	7.389	68.765	2.621532029224336	draw_card	7.389	columbia_card_task_fmri	14.0	0.9	89.0	-95.0	0.1	10.0	1.0	1.0	0.560779172132932	7.389	1.0	stim	poldrack-single-stim	s589	False	0
69.517	1.5	68.766	n/a	-1.0	2.318	columbia_card_task_fmri	n/a	n/a	-1.0	n/a	n/a	n/a	n/a	n/a	n/a	n/a	n/a	ITI	poldrack-single-stim	s589	False	0
71.086	6.77	77.856	-1.4784679707756636	draw_card	6.77	columbia_card_task_fmri	15.0	0.8	89.0	-65.0	0.2	10.0	1.0	2.0	-0.1391442673619849	6.77	n/a	stim	poldrack-single-stim	s589	False	1
77.858	1.425	79.283	-3.2562457485534404	end_round	1.425	columbia_card_task_fmri	15.0	0.7777777777777778	71.0	-65.0	0.2222222222222222	10.0	2.0	2.0	1.119897100151917	1.425	1.0	stim	poldrack-single-stim	s589	False	1
80.039	1.5	79.288	n/a	-1.0	2.25	columbia_card_task_fmri	n/a	n/a	-1.0	n/a	n/a	n/a	n/a	n/a	n/a	n/a	n/a	ITI	poldrack-single-stim	s589	False	0
81.541	5.272	86.813	0.1215320292243377	draw_card	5.272	columbia_card_task_fmri	17.0	0.8	89.0	-65.0	0.2	10.0	1.0	2.0	0.6607685016362979	5.272	n/a	stim	poldrack-single-stim	s589	False	1
86.815	2.058	88.873	-1.7006901929978833	draw_card	2.058	columbia_card_task_fmri	17.0	0.7777777777777778	89.0	-65.0	0.2222222222222222	10.0	2.0	2.0	1.951292589938028	2.058	n/a	stim	poldrack-single-stim	s589	False	1
88.875	0.416	89.291	-3.978467970775664	end_round	0.416	columbia_card_task_fmri	17.0	0.75	71.0	-65.0	0.25	10.0	3.0	2.0	3.367544034414294	0.416	2.0	stim	poldrack-single-stim	s589	False	1
90.044	1.5	89.293	n/a	-1.0	2.25	columbia_card_task_fmri	n/a	n/a	-1.0	n/a	n/a	n/a	n/a	n/a	n/a	n/a	n/a	ITI	poldrack-single-stim	s589	False	0
91.545	4.544	96.089	-1.3118013041089958	draw_card	4.544	columbia_card_task_fmri	13.0	0.8333333333333334	89.0	-70.0	0.1666666666666666	12.0	1.0	2.0	-1.2067471265058352	4.544	1.0	stim	poldrack-single-stim	s589	False	0
96.843	1.5	96.092	n/a	-1.0	2.386	columbia_card_task_fmri	n/a	n/a	-1.0	n/a	n/a	n/a	n/a	n/a	n/a	n/a	n/a	ITI	poldrack-single-stim	s589	False	0
98.481	4.728	103.209	-1.3118013041089958	end_round	4.728	columbia_card_task_fmri	15.0	0.8333333333333334	71.0	-80.0	0.1666666666666666	12.0	1.0	2.0	3.264921466873673	4.728	0.0	stim	poldrack-single-stim	s589	False	1
103.966	1.5	103.215	n/a	-1.0	2.386	columbia_card_task_fmri	n/a	n/a	-1.0	n/a	n/a	n/a	n/a	n/a	n/a	n/a	n/a	ITI	poldrack-single-stim	s589	False	0
105.604	5.621	111.225	-2.2784679707756625	end_round	5.621	columbia_card_task_fmri	14.0	0.8	71.0	-65.0	0.2	15.0	1.0	3.0	-0.5390989958563637	5.621	0.0	stim	poldrack-single-stim	s589	False	1
111.981	1.5	111.23	n/a	-1.0	2.726	columbia_card_task_fmri	n/a	n/a	-1.0	n/a	n/a	n/a	n/a	n/a	n/a	n/a	n/a	ITI	poldrack-single-stim	s589	False	0
113.96	2.624	116.584	-2.353467970775664	end_round	2.624	columbia_card_task_fmri	1.0	0.9375	71.0	-45.0	0.0625	16.0	1.0	1.0	-20.99761876440227	2.624	0.0	stim	poldrack-single-stim	s589	False	1
117.339	1.5	116.588	n/a	-1.0	2.454	columbia_card_task_fmri	n/a	n/a	-1.0	n/a	n/a	n/a	n/a	n/a	n/a	n/a	n/a	ITI	poldrack-single-stim	s589	False	0
119.045	10.729	129.774	-1.4159679707756636	draw_card	10.729	columbia_card_task_fmri	15.0	0.8125	89.0	-70.0	0.1875	16.0	1.0	3.0	1.0372807652323033	10.729	1.0	stim	poldrack-single-stim	s589	False	0
130.528	1.5	129.777	n/a	-1.0	2.318	columbia_card_task_fmri	n/a	n/a	-1.0	n/a	n/a	n/a	n/a	n/a	n/a	n/a	n/a	ITI	poldrack-single-stim	s589	False	0
132.098	7.413	139.511	5.521532029224336	draw_card	7.413	columbia_card_task_fmri	30.0	0.7	89.0	-50.0	0.3	10.0	1.0	3.0	4.521006613664667	7.413	n/a	stim	poldrack-single-stim	s589	False	1
139.513	3.585	143.098	2.854865362557676	draw_card	3.585	columbia_card_task_fmri	30.0	0.6666666666666667	89.0	-50.0	0.3333333333333333	10.0	2.0	3.0	5.572675650321102	3.585	n/a	stim	poldrack-single-stim	s589	False	1
143.1	1.745	144.845	-0.4784679707756636	draw_card	1.745	columbia_card_task_fmri	30.0	0.625	89.0	-50.0	0.375	10.0	3.0	3.0	6.590067719857778	1.745	n/a	stim	poldrack-single-stim	s589	False	1
144.847	0.498	145.345	-4.764182256489948	end_round	0.498	columbia_card_task_fmri	30.0	0.5714285714285714	71.0	-50.0	0.4285714285714285	10.0	4.0	3.0	7.449902815301023	0.498	3.0	stim	poldrack-single-stim	s589	False	1
146.101	1.5	145.35	n/a	-1.0	2.318	columbia_card_task_fmri	n/a	n/a	-1.0	n/a	n/a	n/a	n/a	n/a	n/a	n/a	n/a	ITI	poldrack-single-stim	s589	False	0
147.671	11.682	159.353	4.921532029224337	draw_card	11.682	columbia_card_task_fmri	17.0	0.8666666666666667	89.0	-70.0	0.1333333333333333	15.0	1.0	2.0	-2.564537751499841	11.682	n/a	stim	poldrack-single-stim	s589	False	1
159.355	0.769	160.124	4.092960600652909	draw_card	0.769	columbia_card_task_fmri	17.0	0.8571428571428572	89.0	-70.0	0.1428571428571428	15.0	2.0	2.0	-1.6953032014832914	0.769	n/a	stim	poldrack-single-stim	s589	False	1
160.127	0.41	160.537	3.136916644608952	end_round	0.41	columbia_card_task_fmri	17.0	0.8461538461538461	71.0	-70.0	0.1538461538461538	15.0	3.0	2.0	-0.7493692627250361	0.41	2.0	stim	poldrack-single-stim	s589	False	1
161.291	1.5	160.54	n/a	-1.0	2.59	columbia_card_task_fmri	n/a	n/a	-1.0	n/a	n/a	n/a	n/a	n/a	n/a	n/a	n/a	ITI	poldrack-single-stim	s589	False	0
163.134	6.732	169.866	0.1465320292243363	draw_card	6.732	columbia_card_task_fmri	7.0	0.9375	89.0	-95.0	0.0625	16.0	1.0	1.0	-7.447816657405234	6.732	n/a	stim	poldrack-single-stim	s589	False	1
169.869	0.452	170.321	-0.2784679707756635	draw_card	0.452	columbia_card_task_fmri	7.0	0.9333333333333332	89.0	-95.0	0.0666666666666666	16.0	2.0	1.0	-6.6949524278116215	0.452	n/a	stim	poldrack-single-stim	s589	False	1
170.324	1.735	172.059	-0.7641822564899492	draw_card	1.735	columbia_card_task_fmri	7.0	0.9285714285714286	89.0	-95.0	0.0714285714285714	16.0	3.0	1.0	-5.869347604312644	1.735	n/a	stim	poldrack-single-stim	s589	False	1
172.062	0.721	172.783	-1.3246218169295103	end_round	0.721	columbia_card_task_fmri	7.0	0.9230769230769232	71.0	-95.0	0.0769230769230769	16.0	4.0	1.0	-4.958635821272775	0.721	3.0	stim	poldrack-single-stim	s589	False	1
173.54	1.5	172.789	n/a	-1.0	2.726	columbia_card_task_fmri	n/a	n/a	-1.0	n/a	n/a	n/a	n/a	n/a	n/a	n/a	n/a	ITI	poldrack-single-stim	s589	False	0
175.518	7.78	183.298	1.7090320292243364	draw_card	7.78	columbia_card_task_fmri	9.0	0.9375	89.0	-100.0	0.0625	16.0	1.0	1.0	-5.753684094102834	7.78	n/a	stim	poldrack-single-stim	s589	False	1
183.301	0.682	183.983	1.2548653625576698	draw_card	0.682	columbia_card_task_fmri	9.0	0.9333333333333332	89.0	-100.0	0.0666666666666666	16.0	2.0	1.0	-4.949134493362241	0.682	n/a	stim	poldrack-single-stim	s589	False	1
183.986	0.579	184.565	0.7358177435100517	draw_card	0.579	columbia_card_task_fmri	9.0	0.9285714285714286	89.0	-100.0	0.0714285714285714	16.0	3.0	1.0	-4.066851737275702	0.579	n/a	stim	poldrack-single-stim	s589	False	1
184.568	0.516	185.084	0.1369166446089522	draw_card	0.516	columbia_card_task_fmri	9.0	0.9230769230769232	89.0	-100.0	0.0769230769230769	16.0	4.0	1.0	-3.093620735312104	0.516	n/a	stim	poldrack-single-stim	s589	False	1
185.085	0.5	185.585	-0.5618013041089958	end_round	0.5	columbia_card_task_fmri	9.0	0.9166666666666666	71.0	-100.0	0.0833333333333333	16.0	5.0	1.0	-2.0129132834831154	0.5	4.0	stim	poldrack-single-stim	s589	False	1
186.342	1.5	185.591	n/a	-1.0	2.522	columbia_card_task_fmri	n/a	n/a	-1.0	n/a	n/a	n/a	n/a	n/a	n/a	n/a	n/a	ITI	poldrack-single-stim	s589	False	0
188.116	13.854	201.97	2.6465320292243364	draw_card	13.854	columbia_card_task_fmri	15.0	0.875	89.0	-80.0	0.125	16.0	1.0	2.0	-0.7207812313329924	13.854	n/a	stim	poldrack-single-stim	s589	False	1
201.973	0.582	202.555	1.8548653625576703	draw_card	0.582	columbia_card_task_fmri	15.0	0.8666666666666667	89.0	-80.0	0.1333333333333333	16.0	2.0	2.0	0.1546134488065575	0.582	n/a	stim	poldrack-single-stim	s589	False	1
202.557	0.635	203.192	0.950103457795767	draw_card	0.635	columbia_card_task_fmri	15.0	0.8571428571428572	89.0	-80.0	0.1428571428571428	16.0	3.0	2.0	1.1037970761939349	0.635	3.0	stim	poldrack-single-stim	s589	False	0
203.949	1.5	203.198	n/a	-1.0	3.134	columbia_card_task_fmri	n/a	n/a	-1.0	n/a	n/a	n/a	n/a	n/a	n/a	n/a	n/a	ITI	poldrack-single-stim	s589	False	0
206.335	11.007	217.342	4.771532029224336	draw_card	11.007	columbia_card_task_fmri	16.0	0.875	89.0	-70.0	0.125	16.0	1.0	2.0	-3.696870255788156	11.007	n/a	stim	poldrack-single-stim	s589	False	1
217.344	0.685	218.029	4.05486536255767	draw_card	0.685	columbia_card_task_fmri	16.0	0.8666666666666667	89.0	-70.0	0.1333333333333333	16.0	2.0	2.0	-2.904427389482514	0.685	n/a	stim	poldrack-single-stim	s589	False	1
218.031	0.757	218.788	3.235817743510052	draw_card	0.757	columbia_card_task_fmri	16.0	0.8571428571428572	89.0	-70.0	0.1428571428571428	16.0	3.0	2.0	-2.0451865957568494	0.757	n/a	stim	poldrack-single-stim	s589	False	1
218.79	1.116	219.906	2.2907627984551047	draw_card	1.116	columbia_card_task_fmri	16.0	0.8461538461538461	89.0	-70.0	0.1538461538461538	16.0	4.0	2.0	-1.110128080130412	1.116	n/a	stim	poldrack-single-stim	s589	False	1
219.909	5.219	225.128	1.1881986958910042	draw_card	5.219	columbia_card_task_fmri	16.0	0.8333333333333334	89.0	-70.0	0.1666666666666666	16.0	5.0	2.0	-0.0888422036417182	5.219	5.0	stim	poldrack-single-stim	s589	False	0
225.883	1.5	225.132	n/a	-1.0	2.386	columbia_card_task_fmri	n/a	n/a	-1.0	n/a	n/a	n/a	n/a	n/a	n/a	n/a	n/a	ITI	poldrack-single-stim	s589	False	0
227.522	5.08	232.602	6.084032029224336	draw_card	5.08	columbia_card_task_fmri	30.0	0.6875	89.0	-45.0	0.3125	16.0	1.0	5.0	2.6240018358999606	5.08	1.0	stim	poldrack-single-stim	s589	False	0
233.359	1.5	232.608	n/a	-1.0	2.386	columbia_card_task_fmri	n/a	n/a	-1.0	n/a	n/a	n/a	n/a	n/a	n/a	n/a	n/a	ITI	poldrack-single-stim	s589	False	0
234.998	3.323	238.321	-2.1451346374423297	draw_card	3.323	columbia_card_task_fmri	13.0	0.8333333333333334	89.0	-75.0	0.1666666666666666	6.0	1.0	1.0	0.6564326329916739	3.323	n/a	stim	poldrack-single-stim	s589	False	1
238.323	0.543	238.866	-5.078467970775663	end_round	0.543	columbia_card_task_fmri	13.0	0.8	71.0	-75.0	0.2	6.0	2.0	1.0	3.0605305954179585	0.543	1.0	stim	poldrack-single-stim	s589	False	1
239.619	1.5	238.868	n/a	-1.0	2.318	columbia_card_task_fmri	n/a	n/a	-1.0	n/a	n/a	n/a	n/a	n/a	n/a	n/a	n/a	ITI	poldrack-single-stim	s589	False	0
241.19	1.541	242.731	-0.4784679707756619	draw_card	1.541	columbia_card_task_fmri	14.0	0.8333333333333334	89.0	-70.0	0.1666666666666666	6.0	1.0	1.0	-0.8341131763714671	1.541	n/a	stim	poldrack-single-stim	s589	False	1
242.734	0.445	243.179	-3.2784679707756625	end_round	0.445	columbia_card_task_fmri	14.0	0.8	71.0	-70.0	0.2	6.0	2.0	1.0	1.4606854238445166	0.445	1.0	stim	poldrack-single-stim	s589	False	1
243.932	1.5	243.181	n/a	-1.0	2.318	columbia_card_task_fmri	n/a	n/a	-1.0	n/a	n/a	n/a	n/a	n/a	n/a	n/a	n/a	ITI	poldrack-single-stim	s589	False	0
245.502	2.345	247.847	-0.4784679707756619	draw_card	2.345	columbia_card_task_fmri	16.0	0.8333333333333334	89.0	-80.0	0.1666666666666666	6.0	1.0	1.0	3.637565789621277	2.345	n/a	stim	poldrack-single-stim	s589	False	1
247.849	0.58	248.429	-3.678467970775663	end_round	0.58	columbia_card_task_fmri	16.0	0.8	71.0	-80.0	0.2	6.0	2.0	1.0	6.260259640813956	0.58	1.0	stim	poldrack-single-stim	s589	False	1
249.184	1.5	248.433	n/a	-1.0	2.862	columbia_card_task_fmri	n/a	n/a	-1.0	n/a	n/a	n/a	n/a	n/a	n/a	n/a	n/a	ITI	poldrack-single-stim	s589	False	0
251.298	1.384	252.682	2.021532029224338	draw_card	1.384	columbia_card_task_fmri	17.0	0.8333333333333334	89.0	-70.0	0.1666666666666666	6.0	1.0	1.0	0.2837947483381171	1.384	n/a	stim	poldrack-single-stim	s589	False	1
252.684	0.489	253.173	-0.8784679707756622	end_round	0.489	columbia_card_task_fmri	17.0	0.8	71.0	-70.0	0.2	6.0	2.0	1.0	2.660567967987525	0.489	1.0	stim	poldrack-single-stim	s589	False	1
253.929	1.5	253.178	n/a	-1.0	2.726	columbia_card_task_fmri	n/a	n/a	-1.0	n/a	n/a	n/a	n/a	n/a	n/a	n/a	n/a	ITI	poldrack-single-stim	s589	False	0
255.909	1.173	257.082	2.0215320292243364	draw_card	1.173	columbia_card_task_fmri	25.0	0.75	89.0	-65.0	0.25	8.0	1.0	2.0	6.831359129715054	1.173	n/a	stim	poldrack-single-stim	s589	False	1
257.084	6.668	263.752	-1.1927536850613754	draw_card	6.668	columbia_card_task_fmri	25.0	0.7142857142857143	89.0	-65.0	0.2857142857142857	8.0	2.0	2.0	8.517949752337678	6.668	2.0	stim	poldrack-single-stim	s589	False	0
264.51	1.5	263.759	n/a	-1.0	2.25	columbia_card_task_fmri	n/a	n/a	-1.0	n/a	n/a	n/a	n/a	n/a	n/a	n/a	n/a	ITI	poldrack-single-stim	s589	False	0
266.012	7.037	273.049	2.0215320292243364	draw_card	7.037	columbia_card_task_fmri	30.0	0.75	89.0	-80.0	0.25	8.0	1.0	2.0	15.49107918238272	7.037	n/a	stim	poldrack-single-stim	s589	False	1
273.052	0.721	273.773	-1.907039399347087	draw_card	0.721	columbia_card_task_fmri	30.0	0.7142857142857143	89.0	-80.0	0.2857142857142857	8.0	2.0	2.0	17.552516944970506	0.721	2.0	stim	poldrack-single-stim	s589	False	0
274.527	1.5	273.776	n/a	-1.0	2.318	columbia_card_task_fmri	n/a	n/a	-1.0	n/a	n/a	n/a	n/a	n/a	n/a	n/a	n/a	ITI	poldrack-single-stim	s589	False	0
276.098	6.474	282.572	1.7215320292243377	draw_card	6.474	columbia_card_task_fmri	13.0	0.9	89.0	-95.0	0.1	10.0	1.0	1.0	0.2608115787622367	6.474	n/a	stim	poldrack-single-stim	s589	False	1
282.575	0.695	283.27	0.5215320292243364	draw_card	0.695	columbia_card_task_fmri	13.0	0.8888888888888888	89.0	-95.0	0.1111111111111111	10.0	2.0	1.0	1.8017766866898697	0.695	n/a	stim	poldrack-single-stim	s589	False	1
283.273	5.445	288.718	-0.9784679707756636	draw_card	5.445	columbia_card_task_fmri	13.0	0.875	89.0	-95.0	0.125	10.0	3.0	1.0	3.578126173076001	5.445	n/a	stim	poldrack-single-stim	s589	False	1
288.72	0.536	289.256	-2.9070393993470907	end_round	0.536	columbia_card_task_fmri	13.0	0.8571428571428572	71.0	-95.0	0.1428571428571428	10.0	4.0	1.0	5.652435041591922	0.536	3.0	stim	poldrack-single-stim	s589	False	1
290.012	1.5	289.261	n/a	-1.0	2.454	columbia_card_task_fmri	n/a	n/a	-1.0	n/a	n/a	n/a	n/a	n/a	n/a	n/a	n/a	ITI	poldrack-single-stim	s589	False	0
291.718	7.002	298.72	3.121532029224336	draw_card	7.002	columbia_card_task_fmri	14.0	0.9	89.0	-90.0	0.1	10.0	1.0	1.0	-0.9390525637450295	7.002	n/a	stim	poldrack-single-stim	s589	False	1
298.722	1.417	300.139	1.9659764736687797	draw_card	1.417	columbia_card_task_fmri	14.0	0.8888888888888888	89.0	-90.0	0.1111111111111111	10.0	2.0	1.0	0.5448276553043812	1.417	n/a	stim	poldrack-single-stim	s589	False	1
300.142	3.092	303.234	0.5215320292243364	draw_card	3.092	columbia_card_task_fmri	14.0	0.875	89.0	-90.0	0.125	10.0	3.0	1.0	2.255373759586334	3.092	n/a	stim	poldrack-single-stim	s589	False	1
303.237	0.562	303.799	-1.3356108279185197	end_round	0.562	columbia_card_task_fmri	14.0	0.8571428571428572	71.0	-90.0	0.1428571428571428	10.0	4.0	1.0	4.2528430959257975	0.562	3.0	stim	poldrack-single-stim	s589	False	1
304.553	1.5	303.802	n/a	-1.0	2.522	columbia_card_task_fmri	n/a	n/a	-1.0	n/a	n/a	n/a	n/a	n/a	n/a	n/a	n/a	ITI	poldrack-single-stim	s589	False	0
306.329	5.012	311.341	-1.678467970775663	draw_card	5.012	columbia_card_task_fmri	16.0	0.8	89.0	-70.0	0.2	10.0	1.0	2.0	2.2606062095619635	5.012	n/a	stim	poldrack-single-stim	s589	False	1
311.345	0.418	311.763	-3.5895790818867743	end_round	0.418	columbia_card_task_fmri	16.0	0.7777777777777778	71.0	-70.0	0.2222222222222222	10.0	2.0	2.0	3.614095278965252	0.418	1.0	stim	poldrack-single-stim	s589	False	1
312.518	1.5	311.767	n/a	-1.0	2.318	columbia_card_task_fmri	n/a	n/a	-1.0	n/a	n/a	n/a	n/a	n/a	n/a	n/a	n/a	ITI	poldrack-single-stim	s589	False	0
314.089	5.36	319.449	-2.3951346374423297	end_round	5.36	columbia_card_task_fmri	7.0	0.9166666666666666	71.0	-100.0	0.0833333333333333	12.0	1.0	1.0	-2.5656130756100595	5.36	0.0	stim	poldrack-single-stim	s589	False	1
320.202	1.5	319.451	n/a	-1.0	2.522	columbia_card_task_fmri	n/a	n/a	-1.0	n/a	n/a	n/a	n/a	n/a	n/a	n/a	n/a	ITI	poldrack-single-stim	s589	False	0
321.978	6.645	328.623	-2.145134637442328	draw_card	6.645	columbia_card_task_fmri	14.0	0.8333333333333334	89.0	-80.0	0.1666666666666666	12.0	1.0	2.0	2.8922778604843917	6.645	n/a	stim	poldrack-single-stim	s589	False	1
328.627	0.407	329.034	-3.569377061684757	end_round	0.407	columbia_card_task_fmri	14.0	0.8181818181818181	71.0	-80.0	0.1818181818181818	12.0	2.0	2.0	4.115729099542207	0.407	1.0	stim	poldrack-single-stim	s589	False	1
329.79	1.5	329.039	n/a	-1.0	2.998	columbia_card_task_fmri	n/a	n/a	-1.0	n/a	n/a	n/a	n/a	n/a	n/a	n/a	n/a	ITI	poldrack-single-stim	s589	False	0
332.04	4.102	336.142	-0.4784679707756636	draw_card	4.102	columbia_card_task_fmri	15.0	0.8333333333333334	89.0	-75.0	0.1666666666666666	12.0	1.0	2.0	1.4017110759893685	4.102	n/a	stim	poldrack-single-stim	s589	False	1
336.146	0.475	336.621	-1.8421043344120287	end_round	0.475	columbia_card_task_fmri	15.0	0.8181818181818181	71.0	-75.0	0.1818181818181818	12.0	2.0	2.0	2.573090969430197	0.475	1.0	stim	poldrack-single-stim	s589	False	1
337.376	1.5	336.625	n/a	-1.0	2.318	columbia_card_task_fmri	n/a	n/a	-1.0	n/a	n/a	n/a	n/a	n/a	n/a	n/a	n/a	ITI	poldrack-single-stim	s589	False	0
338.948	6.335	345.283	-1.4784679707756636	draw_card	6.335	columbia_card_task_fmri	15.0	0.8	89.0	-65.0	0.2	15.0	1.0	3.0	-0.1391442673619849	6.335	n/a	stim	poldrack-single-stim	s589	False	1
345.286	0.388	345.674	-2.621325113632806	end_round	0.388	columbia_card_task_fmri	15.0	0.7857142857142857	71.0	-65.0	0.2142857142857142	15.0	2.0	3.0	0.686837996210663	0.388	1.0	stim	poldrack-single-stim	s589	False	1
346.427	1.5	345.676	n/a	-1.0	2.25	columbia_card_task_fmri	n/a	n/a	-1.0	n/a	n/a	n/a	n/a	n/a	n/a	n/a	n/a	ITI	poldrack-single-stim	s589	False	0
347.93	8.658	356.588	-2.228467970775664	draw_card	8.658	columbia_card_task_fmri	14.0	0.8125	89.0	-70.0	0.1875	16.0	1.0	3.0	0.6470094576808947	8.658	n/a	stim	poldrack-single-stim	s589	False	1
356.591	0.361	356.952	-3.2784679707756625	end_round	0.361	columbia_card_task_fmri	14.0	0.8	71.0	-70.0	0.2	16.0	2.0	3.0	1.4606854238445166	0.361	1.0	stim	poldrack-single-stim	s589	False	1
357.706	1.5	356.955	n/a	-1.0	2.454	columbia_card_task_fmri	n/a	n/a	-1.0	n/a	n/a	n/a	n/a	n/a	n/a	n/a	n/a	ITI	poldrack-single-stim	s589	False	0
359.414	7.441	366.855	-2.290967970775664	draw_card	7.441	columbia_card_task_fmri	11.0	0.6875	89.0	-30.0	0.3125	16.0	1.0	5.0	-13.13269020974984	7.441	1.0	stim	poldrack-single-stim	s589	False	0
367.609	1.5	366.858	n/a	-1.0	2.318	columbia_card_task_fmri	n/a	n/a	-1.0	n/a	n/a	n/a	n/a	n/a	n/a	n/a	n/a	ITI	poldrack-single-stim	s589	False	0
369.18	4.346	373.526	2.5215320292243364	draw_card	4.346	columbia_card_task_fmri	15.0	0.8666666666666667	89.0	-75.0	0.1333333333333333	15.0	1.0	2.0	-1.5448628391809187	4.346	n/a	stim	poldrack-single-stim	s589	False	1
373.53	6.34	379.87	1.6643891720814803	draw_card	6.34	columbia_card_task_fmri	15.0	0.8571428571428572	89.0	-75.0	0.1428571428571428	15.0	2.0	2.0	-0.6456471914534667	6.34	n/a	stim	poldrack-single-stim	s589	False	1
379.873	0.676	380.549	0.6753781830704897	draw_card	0.676	columbia_card_task_fmri	15.0	0.8461538461538461	89.0	-75.0	0.1538461538461538	15.0	3.0	2.0	0.3329128411978459	0.676	3.0	stim	poldrack-single-stim	s589	False	0
381.304	1.5	380.553	n/a	-1.0	2.318	columbia_card_task_fmri	n/a	n/a	-1.0	n/a	n/a	n/a	n/a	n/a	n/a	n/a	n/a	ITI	poldrack-single-stim	s589	False	0
382.876	9.696	392.572	4.254865362557671	draw_card	9.696	columbia_card_task_fmri	17.0	0.8666666666666667	89.0	-75.0	0.1333333333333333	15.0	1.0	2.0	-0.8650748915784838	9.696	n/a	stim	poldrack-single-stim	s589	False	1
392.575	0.718	393.293	3.378674886367196	draw_card	0.718	columbia_card_task_fmri	17.0	0.8571428571428572	89.0	-75.0	0.1428571428571428	15.0	2.0	2.0	0.0541280212837804	0.718	n/a	stim	poldrack-single-stim	s589	False	1
393.297	1.003	394.3	2.367685875378183	draw_card	1.003	columbia_card_task_fmri	17.0	0.8461538461538461	89.0	-75.0	0.1538461538461538	15.0	3.0	2.0	1.0544386464769104	1.003	n/a	stim	poldrack-single-stim	s589	False	1
394.303	0.436	394.739	1.1881986958910042	end_round	0.436	columbia_card_task_fmri	17.0	0.8333333333333334	71.0	-75.0	0.1666666666666666	15.0	4.0	2.0	2.1469928902010693	0.436	3.0	stim	poldrack-single-stim	s589	False	1
395.493	1.5	394.742	n/a	-1.0	2.59	columbia_card_task_fmri	n/a	n/a	-1.0	n/a	n/a	n/a	n/a	n/a	n/a	n/a	n/a	ITI	poldrack-single-stim	s589	False	0
397.336	8.18	405.516	-0.1659679707756636	draw_card	8.18	columbia_card_task_fmri	2.0	0.9375	89.0	-25.0	0.0625	16.0	1.0	1.0	-25.589571091146524	8.18	n/a	stim	poldrack-single-stim	s589	False	1
405.52	0.463	405.983	-0.2784679707756637	draw_card	0.463	columbia_card_task_fmri	2.0	0.9333333333333332	89.0	-25.0	0.0666666666666666	16.0	2.0	1.0	-25.39076351133612	0.463	n/a	stim	poldrack-single-stim	s589	False	1
405.987	1.983	407.97	-0.407039399347092	draw_card	1.983	columbia_card_task_fmri	2.0	0.9285714285714286	89.0	-25.0	0.0714285714285714	16.0	3.0	1.0	-25.172715928903635	1.983	n/a	stim	poldrack-single-stim	s589	False	1
407.974	0.452	408.426	-0.5553910476987405	end_round	0.452	columbia_card_task_fmri	2.0	0.9230769230769232	71.0	-25.0	0.0769230769230769	16.0	4.0	1.0	-24.932156290856955	0.452	3.0	stim	poldrack-single-stim	s589	False	1
409.181	1.5	408.43	n/a	-1.0	2.25	columbia_card_task_fmri	n/a	n/a	-1.0	n/a	n/a	n/a	n/a	n/a	n/a	n/a	n/a	ITI	poldrack-single-stim	s589	False	0
410.685	2.931	413.616	2.0215320292243364	draw_card	2.931	columbia_card_task_fmri	9.0	0.9375	89.0	-95.0	0.0625	16.0	1.0	1.0	-6.963782869686341	2.931	n/a	stim	poldrack-single-stim	s589	False	1
413.62	3.147	416.767	1.5881986958910037	draw_card	3.147	columbia_card_task_fmri	9.0	0.9333333333333332	89.0	-95.0	0.0666666666666666	16.0	2.0	1.0	-6.196151270345595	3.147	n/a	stim	poldrack-single-stim	s589	False	1
416.771	4.434	421.205	1.0929606006529085	draw_card	4.434	columbia_card_task_fmri	9.0	0.9285714285714286	89.0	-95.0	0.0714285714285714	16.0	3.0	1.0	-5.354352627251824	4.434	n/a	stim	poldrack-single-stim	s589	False	1
421.209	0.528	421.737	0.5215320292243364	draw_card	0.528	columbia_card_task_fmri	9.0	0.9230769230769232	89.0	-95.0	0.0769230769230769	16.0	4.0	1.0	-4.425778081591801	0.528	4.0	stim	poldrack-single-stim	s589	False	0
422.494	1.5	421.743	n/a	-1.0	2.25	columbia_card_task_fmri	n/a	n/a	-1.0	n/a	n/a	n/a	n/a	n/a	n/a	n/a	n/a	ITI	poldrack-single-stim	s589	False	0
423.998	5.875	429.873	3.5840320292243364	draw_card	5.875	columbia_card_task_fmri	11.0	0.9375	89.0	-100.0	0.0625	16.0	1.0	1.0	-5.269639325189104	5.875	n/a	stim	poldrack-single-stim	s589	False	1
429.876	0.622	430.498	3.121532029224337	draw_card	0.622	columbia_card_task_fmri	11.0	0.9333333333333332	89.0	-100.0	0.0666666666666666	16.0	2.0	1.0	-4.450322679371098	0.622	n/a	stim	poldrack-single-stim	s589	False	1
430.502	0.483	430.985	2.5929606006529093	draw_card	0.483	columbia_card_task_fmri	11.0	0.9285714285714286	89.0	-100.0	0.0714285714285714	16.0	3.0	1.0	-3.551846438357604	0.483	3.0	stim	poldrack-single-stim	s589	False	0
431.742	1.5	430.991	n/a	-1.0	2.522	columbia_card_task_fmri	n/a	n/a	-1.0	n/a	n/a	n/a	n/a	n/a	n/a	n/a	n/a	ITI	poldrack-single-stim	s589	False	0
433.518	20.056	453.574	4.146532029224336	draw_card	20.056	columbia_card_task_fmri	16.0	0.875	89.0	-75.0	0.125	16.0	1.0	2.0	-2.043496771575814	20.056	1.0	stim	poldrack-single-stim	s589	False	0
454.329	1.5	453.578	n/a	-1.0	2.454	columbia_card_task_fmri	n/a	n/a	-1.0	n/a	n/a	n/a	n/a	n/a	n/a	n/a	n/a	ITI	poldrack-single-stim	s589	False	0
456.038	8.478	464.516	4.396532029224336	draw_card	8.478	columbia_card_task_fmri	17.0	0.875	89.0	-80.0	0.125	16.0	1.0	2.0	-0.059418510042299	8.478	n/a	stim	poldrack-single-stim	s589	False	1
464.52	0.456	464.976	3.5881986958910046	draw_card	0.456	columbia_card_task_fmri	17.0	0.8666666666666667	89.0	-80.0	0.1333333333333333	16.0	2.0	2.0	0.8344096463013599	0.456	2.0	stim	poldrack-single-stim	s589	False	0
465.733	1.5	464.982	n/a	-1.0	2.25	columbia_card_task_fmri	n/a	n/a	-1.0	n/a	n/a	n/a	n/a	n/a	n/a	n/a	n/a	ITI	poldrack-single-stim	s589	False	0
478.243	2.263	480.506	-1.3118013041089958	draw_card	2.263	columbia_card_task_fmri	13.0	0.8333333333333334	89.0	-70.0	0.1666666666666666	6.0	1.0	1.0	-1.2067471265058352	2.263	n/a	stim	poldrack-single-stim	s589	False	1
480.51	0.532	481.042	-4.078467970775663	end_round	0.532	columbia_card_task_fmri	13.0	0.8	71.0	-70.0	0.2	6.0	2.0	1.0	1.0607264623497343	0.532	1.0	stim	poldrack-single-stim	s589	False	1
481.796	1.5	481.045	n/a	-1.0	2.454	columbia_card_task_fmri	n/a	n/a	-1.0	n/a	n/a	n/a	n/a	n/a	n/a	n/a	n/a	ITI	poldrack-single-stim	s589	False	0
483.504	3.802	487.306	-1.3118013041089958	draw_card	3.802	columbia_card_task_fmri	15.0	0.8333333333333334	89.0	-80.0	0.1666666666666666	6.0	1.0	1.0	3.264921466873673	3.802	n/a	stim	poldrack-single-stim	s589	False	1
487.309	0.441	487.75	-4.478467970775664	end_round	0.441	columbia_card_task_fmri	15.0	0.8	71.0	-80.0	0.2	6.0	2.0	1.0	5.860291014808482	0.441	1.0	stim	poldrack-single-stim	s589	False	1
488.507	1.5	487.756	n/a	-1.0	2.454	columbia_card_task_fmri	n/a	n/a	-1.0	n/a	n/a	n/a	n/a	n/a	n/a	n/a	n/a	ITI	poldrack-single-stim	s589	False	0
490.214	2.207	492.421	0.3548653625576702	draw_card	2.207	columbia_card_task_fmri	16.0	0.8333333333333334	89.0	-75.0	0.1666666666666666	6.0	1.0	1.0	1.7743515755830472	2.207	1.0	stim	poldrack-single-stim	s589	False	0
493.179	1.5	492.428	n/a	-1.0	2.522	columbia_card_task_fmri	n/a	n/a	-1.0	n/a	n/a	n/a	n/a	n/a	n/a	n/a	n/a	ITI	poldrack-single-stim	s589	False	0
494.953	5.257	500.21	1.5215320292243364	draw_card	5.257	columbia_card_task_fmri	21.0	0.75	89.0	-55.0	0.25	8.0	1.0	2.0	0.7697222921199156	5.257	n/a	stim	poldrack-single-stim	s589	False	1
500.213	0.517	500.73	-1.1927536850613771	end_round	0.517	columbia_card_task_fmri	21.0	0.7142857142857143	71.0	-55.0	0.2857142857142857	8.0	2.0	2.0	2.19391298338234	0.517	1.0	stim	poldrack-single-stim	s589	False	1
501.487	1.5	500.736	n/a	-1.0	2.454	columbia_card_task_fmri	n/a	n/a	-1.0	n/a	n/a	n/a	n/a	n/a	n/a	n/a	n/a	ITI	poldrack-single-stim	s589	False	0
503.194	3.787	506.981	2.7715320292243364	draw_card	3.787	columbia_card_task_fmri	26.0	0.75	89.0	-65.0	0.25	8.0	1.0	2.0	7.264339558361073	3.787	n/a	stim	poldrack-single-stim	s589	False	1
506.985	0.506	507.491	-0.4784679707756601	draw_card	0.506	columbia_card_task_fmri	26.0	0.7142857142857143	89.0	-65.0	0.2857142857142857	8.0	2.0	2.0	8.969672769135641	0.506	2.0	stim	poldrack-single-stim	s589	False	0
508.248	1.5	507.497	n/a	-1.0	2.658	columbia_card_task_fmri	n/a	n/a	-1.0	n/a	n/a	n/a	n/a	n/a	n/a	n/a	n/a	ITI	poldrack-single-stim	s589	False	0
510.159	4.716	514.875	-2.1451346374423297	end_round	4.716	columbia_card_task_fmri	15.0	0.7777777777777778	71.0	-60.0	0.2222222222222222	9.0	1.0	2.0	-0.9585720440514756	4.716	0.0	stim	poldrack-single-stim	s589	False	1
515.632	1.5	514.881	n/a	-1.0	2.386	columbia_card_task_fmri	n/a	n/a	-1.0	n/a	n/a	n/a	n/a	n/a	n/a	n/a	n/a	ITI	poldrack-single-stim	s589	False	0
517.271	9.619	526.89	2.221532029224337	draw_card	9.619	columbia_card_task_fmri	13.0	0.9	89.0	-90.0	0.1	10.0	1.0	1.0	-1.2390169509067732	9.619	1.0	stim	poldrack-single-stim	s589	False	0
527.647	1.5	526.896	n/a	-1.0	2.522	columbia_card_task_fmri	n/a	n/a	-1.0	n/a	n/a	n/a	n/a	n/a	n/a	n/a	n/a	ITI	poldrack-single-stim	s589	False	0
529.422	6.105	535.527	3.5215320292243364	draw_card	6.105	columbia_card_task_fmri	15.0	0.9	89.0	-95.0	0.1	10.0	1.0	1.0	0.8607473546213171	6.105	n/a	stim	poldrack-single-stim	s589	False	1
535.531	0.557	536.088	2.299309807002113	draw_card	0.557	columbia_card_task_fmri	15.0	0.8888888888888888	89.0	-95.0	0.1111111111111111	10.0	2.0	1.0	2.4302547388813664	0.557	n/a	stim	poldrack-single-stim	s589	False	1
536.092	4.576	540.668	0.7715320292243364	draw_card	4.576	columbia_card_task_fmri	15.0	0.875	89.0	-95.0	0.125	10.0	3.0	1.0	4.239505740520379	4.576	n/a	stim	poldrack-single-stim	s589	False	1
540.672	0.935	541.607	-1.1927536850613771	draw_card	0.935	columbia_card_task_fmri	15.0	0.8571428571428572	89.0	-95.0	0.1428571428571428	10.0	4.0	1.0	6.352234190741591	0.935	n/a	stim	poldrack-single-stim	s589	False	1
541.61	0.367	541.977	-3.811801304108996	end_round	0.367	columbia_card_task_fmri	15.0	0.8333333333333334	71.0	-95.0	0.1666666666666666	10.0	5.0	1.0	8.854650586633127	0.367	4.0	stim	poldrack-single-stim	s589	False	1
542.734	1.5	541.983	n/a	-1.0	2.59	columbia_card_task_fmri	n/a	n/a	-1.0	n/a	n/a	n/a	n/a	n/a	n/a	n/a	n/a	ITI	poldrack-single-stim	s589	False	0
544.577	6.673	551.25	-0.6784679707756629	draw_card	6.673	columbia_card_task_fmri	16.0	0.8	89.0	-65.0	0.2	10.0	1.0	2.0	0.2608115787622438	6.673	n/a	stim	poldrack-single-stim	s589	False	1
551.254	0.492	551.746	-2.478467970775662	end_round	0.492	columbia_card_task_fmri	16.0	0.7777777777777778	71.0	-65.0	0.2222222222222222	10.0	2.0	2.0	1.5355943270400942	0.492	1.0	stim	poldrack-single-stim	s589	False	1
552.501	1.5	551.75	n/a	-1.0	2.386	columbia_card_task_fmri	n/a	n/a	-1.0	n/a	n/a	n/a	n/a	n/a	n/a	n/a	n/a	ITI	poldrack-single-stim	s589	False	0
554.14	6.813	560.953	-1.978467970775664	draw_card	6.813	columbia_card_task_fmri	7.0	0.9166666666666666	89.0	-95.0	0.0833333333333333	12.0	1.0	1.0	-3.9473503760138255	6.813	n/a	stim	poldrack-single-stim	s589	False	1
560.956	0.339	561.295	-2.751195243502937	end_round	0.339	columbia_card_task_fmri	7.0	0.9090909090909092	71.0	-95.0	0.0909090909090909	12.0	2.0	1.0	-2.8158794535968923	0.339	1.0	stim	poldrack-single-stim	s589	False	1
562.052	1.5	561.301	n/a	-1.0	2.59	columbia_card_task_fmri	n/a	n/a	-1.0	n/a	n/a	n/a	n/a	n/a	n/a	n/a	n/a	ITI	poldrack-single-stim	s589	False	0
563.895	6.637	570.532	-1.3118013041089958	draw_card	6.637	columbia_card_task_fmri	14.0	0.8333333333333334	89.0	-75.0	0.1666666666666666	12.0	1.0	2.0	1.029071418887142	6.637	1.0	stim	poldrack-single-stim	s589	False	0
571.289	1.5	570.538	n/a	-1.0	2.318	columbia_card_task_fmri	n/a	n/a	-1.0	n/a	n/a	n/a	n/a	n/a	n/a	n/a	n/a	ITI	poldrack-single-stim	s589	False	0
572.861	7.107	579.968	0.3548653625576702	draw_card	7.107	columbia_card_task_fmri	15.0	0.8333333333333334	89.0	-70.0	0.1666666666666666	12.0	1.0	2.0	-0.4614781900373188	7.107	1.0	stim	poldrack-single-stim	s589	False	0
580.725	1.5	579.974	n/a	-1.0	2.25	columbia_card_task_fmri	n/a	n/a	-1.0	n/a	n/a	n/a	n/a	n/a	n/a	n/a	n/a	ITI	poldrack-single-stim	s589	False	0
582.228	6.812	589.04	-1.678467970775663	draw_card	6.812	columbia_card_task_fmri	16.0	0.8	89.0	-70.0	0.2	15.0	1.0	3.0	2.2606062095619635	6.812	n/a	stim	poldrack-single-stim	s589	False	1
589.043	0.431	589.474	-2.9070393993470924	end_round	0.431	columbia_card_task_fmri	16.0	0.7857142857142857	71.0	-70.0	0.2142857142857142	15.0	2.0	3.0	3.148550170470834	0.431	1.0	stim	poldrack-single-stim	s589	False	1
590.231	1.5	589.48	n/a	-1.0	2.454	columbia_card_task_fmri	n/a	n/a	-1.0	n/a	n/a	n/a	n/a	n/a	n/a	n/a	n/a	ITI	poldrack-single-stim	s589	False	0
591.94	11.296	603.236	-1.2909679707756636	draw_card	11.296	columbia_card_task_fmri	14.0	0.8125	89.0	-65.0	0.1875	16.0	1.0	3.0	-1.3043314875741103	11.296	n/a	stim	poldrack-single-stim	s589	False	1
603.241	0.436	603.677	-2.2784679707756625	end_round	0.436	columbia_card_task_fmri	14.0	0.8	71.0	-65.0	0.2	16.0	2.0	3.0	-0.5390989958563637	0.436	1.0	stim	poldrack-single-stim	s589	False	1
604.435	1.5	603.684	n/a	-1.0	3.27	columbia_card_task_fmri	n/a	n/a	-1.0	n/a	n/a	n/a	n/a	n/a	n/a	n/a	n/a	ITI	poldrack-single-stim	s589	False	0
606.958	10.041	616.999	-1.5409679707756636	draw_card	10.041	columbia_card_task_fmri	16.0	0.8125	89.0	-75.0	0.1875	16.0	1.0	3.0	3.3789275619900536	10.041	n/a	stim	poldrack-single-stim	s589	False	1
617.003	0.407	617.41	-2.678467970775663	end_round	0.407	columbia_card_task_fmri	16.0	0.8	71.0	-75.0	0.2	16.0	2.0	3.0	4.260423405304628	0.407	1.0	stim	poldrack-single-stim	s589	False	1
618.17	1.5	617.419	n/a	-1.0	2.25	columbia_card_task_fmri	n/a	n/a	-1.0	n/a	n/a	n/a	n/a	n/a	n/a	n/a	n/a	ITI	poldrack-single-stim	s589	False	0
619.674	9.065	628.739	2.721532029224337	draw_card	9.065	columbia_card_task_fmri	16.0	0.8666666666666667	89.0	-80.0	0.1333333333333333	15.0	1.0	2.0	0.4945111670372668	9.065	n/a	stim	poldrack-single-stim	s589	False	1
628.744	0.325	629.069	1.8072463149386249	draw_card	0.325	columbia_card_task_fmri	16.0	0.8571428571428572	89.0	-80.0	0.1428571428571428	15.0	2.0	2.0	1.4536883201367772	0.325	n/a	stim	poldrack-single-stim	s589	False	1
629.073	0.215	629.288	0.7523012599935663	draw_card	0.215	columbia_card_task_fmri	16.0	0.8461538461538461	89.0	-80.0	0.1538461538461538	15.0	3.0	2.0	2.497499833027952	0.215	3.0	stim	poldrack-single-stim	s589	False	0
630.046	1.5	629.295	n/a	-1.0	2.25	columbia_card_task_fmri	n/a	n/a	-1.0	n/a	n/a	n/a	n/a	n/a	n/a	n/a	n/a	ITI	poldrack-single-stim	s589	False	0
631.55	8.883	640.433	3.5881986958910046	draw_card	8.883	columbia_card_task_fmri	17.0	0.8666666666666667	89.0	-80.0	0.1333333333333333	15.0	1.0	2.0	0.8344096463013599	8.883	n/a	stim	poldrack-single-stim	s589	False	1
640.436	5.918	646.354	2.6643891720814823	draw_card	5.918	columbia_card_task_fmri	17.0	0.8571428571428572	89.0	-80.0	0.1428571428571428	15.0	2.0	2.0	1.8035803033944544	5.918	n/a	stim	poldrack-single-stim	s589	False	1
646.358	0.402	646.76	1.598455106147413	draw_card	0.402	columbia_card_task_fmri	17.0	0.8461538461538461	89.0	-80.0	0.1538461538461538	15.0	3.0	2.0	2.8582669807231227	0.402	n/a	stim	poldrack-single-stim	s589	False	1
646.765	0.417	647.182	0.354865362557672	draw_card	0.417	columbia_card_task_fmri	17.0	0.8333333333333334	89.0	-80.0	0.1666666666666666	15.0	4.0	2.0	4.010210806575742	0.417	n/a	stim	poldrack-single-stim	s589	False	1
647.186	0.732	647.918	-1.114831607139302	end_round	0.732	columbia_card_task_fmri	17.0	0.8181818181818181	71.0	-80.0	0.1818181818181818	15.0	5.0	2.0	5.272715289802349	0.732	4.0	stim	poldrack-single-stim	s589	False	1
648.674	1.5	647.923	n/a	-1.0	2.318	columbia_card_task_fmri	n/a	n/a	-1.0	n/a	n/a	n/a	n/a	n/a	n/a	n/a	n/a	ITI	poldrack-single-stim	s589	False	0
650.246	5.043	655.289	-0.4784679707756636	draw_card	5.043	columbia_card_task_fmri	1.0	0.9375	89.0	-15.0	0.0625	16.0	1.0	1.0	-28.24029475038862	5.043	n/a	stim	poldrack-single-stim	s589	False	1
655.294	0.389	655.683	-0.5451346374423303	end_round	0.389	columbia_card_task_fmri	1.0	0.9333333333333332	71.0	-15.0	0.0666666666666666	16.0	2.0	1.0	-28.123041971328902	0.389	1.0	stim	poldrack-single-stim	s589	False	1
656.438	1.5	655.687	n/a	-1.0	2.726	columbia_card_task_fmri	n/a	n/a	-1.0	n/a	n/a	n/a	n/a	n/a	n/a	n/a	n/a	ITI	poldrack-single-stim	s589	False	0
658.419	5.089	663.508	2.6465320292243364	draw_card	5.089	columbia_card_task_fmri	10.0	0.9375	89.0	-100.0	0.0625	16.0	1.0	1.0	-5.511662064784336	5.089	n/a	stim	poldrack-single-stim	s589	False	1
663.512	0.319	663.831	2.188198695891004	draw_card	0.319	columbia_card_task_fmri	10.0	0.9333333333333332	89.0	-100.0	0.0666666666666666	16.0	2.0	1.0	-4.699728931004341	0.319	n/a	stim	poldrack-single-stim	s589	False	1
663.835	0.302	664.137	1.6643891720814803	draw_card	0.302	columbia_card_task_fmri	10.0	0.9285714285714286	89.0	-100.0	0.0714285714285714	16.0	3.0	1.0	-3.8093494216303263	0.302	n/a	stim	poldrack-single-stim	s589	False	1
664.142	0.316	664.458	1.0599935676858756	draw_card	0.316	columbia_card_task_fmri	10.0	0.9230769230769232	89.0	-100.0	0.0769230769230769	16.0	4.0	1.0	-2.827187199982525	0.316	4.0	stim	poldrack-single-stim	s589	False	0
665.214	1.5	664.463	n/a	-1.0	2.386	columbia_card_task_fmri	n/a	n/a	-1.0	n/a	n/a	n/a	n/a	n/a	n/a	n/a	n/a	ITI	poldrack-single-stim	s589	False	0
666.855	5.055	671.91	3.2715320292243364	draw_card	5.055	columbia_card_task_fmri	15.0	0.875	89.0	-75.0	0.125	16.0	1.0	2.0	-2.374173433234805	5.055	n/a	stim	poldrack-single-stim	s589	False	1
671.915	0.218	672.133	2.5215320292243364	draw_card	0.218	columbia_card_task_fmri	15.0	0.8666666666666667	89.0	-75.0	0.1333333333333333	16.0	2.0	2.0	-1.5448628391809187	0.218	n/a	stim	poldrack-single-stim	s589	False	1
672.137	0.255	672.392	1.6643891720814803	draw_card	0.255	columbia_card_task_fmri	15.0	0.8571428571428572	89.0	-75.0	0.1428571428571428	16.0	3.0	2.0	-0.6456471914534667	0.255	3.0	stim	poldrack-single-stim	s589	False	0
673.148	1.5	672.397	n/a	-1.0	2.318	columbia_card_task_fmri	n/a	n/a	-1.0	n/a	n/a	n/a	n/a	n/a	n/a	n/a	n/a	ITI	poldrack-single-stim	s589	False	0
674.721	9.085	683.806	3.5215320292243364	draw_card	9.085	columbia_card_task_fmri	16.0	0.875	89.0	-80.0	0.125	16.0	1.0	2.0	-0.3901002618005833	9.085	n/a	stim	poldrack-single-stim	s589	False	1
683.81	0.322	684.132	2.721532029224337	draw_card	0.322	columbia_card_task_fmri	16.0	0.8666666666666667	89.0	-80.0	0.1333333333333333	16.0	2.0	2.0	0.4945111670372668	0.322	n/a	stim	poldrack-single-stim	s589	False	1
684.136	0.436	684.572	1.8072463149386249	draw_card	0.436	columbia_card_task_fmri	16.0	0.8571428571428572	89.0	-80.0	0.1428571428571428	16.0	3.0	2.0	1.4536883201367772	0.436	n/a	stim	poldrack-single-stim	s589	False	1
684.576	0.403	684.979	0.7523012599935663	draw_card	0.403	columbia_card_task_fmri	16.0	0.8461538461538461	89.0	-80.0	0.1538461538461538	16.0	4.0	2.0	2.497499833027952	0.403	n/a	stim	poldrack-single-stim	s589	False	1
684.984	0.985	685.969	-0.4784679707756619	draw_card	0.985	columbia_card_task_fmri	16.0	0.8333333333333334	89.0	-80.0	0.1666666666666666	16.0	5.0	2.0	3.637565789621277	0.985	5.0	stim	poldrack-single-stim	s589	False	0
686.727	1.5	685.976	n/a	-1.0	2.25	columbia_card_task_fmri	n/a	n/a	-1.0	n/a	n/a	n/a	n/a	n/a	n/a	n/a	n/a	ITI	poldrack-single-stim	s589	False	0
