onset	duration	movement_onset	CTI	block_duration	correct	correct_response	cue	cue_switch	experiment_exp_id	key_press	response_time	stim_color	stim_number	switch_type	task	task_switch	trial_id	trial_type	worker_id	first_trial_of_block	junk
3.629	1.0	4.474	0.1	2.136	True	89.0	High-Low	n/a	twobytwo	89.0	0.745	blue	1.0	task_switch	magnitude	switch	stim	poldrack-single-stim	s589	1	False
5.874	1.0	6.785	0.1	2.68	True	71.0	High-Low	stay	twobytwo	71.0	0.811	blue	7.0	cue_stay	magnitude	stay	stim	poldrack-single-stim	s589	0	False
9.466	1.0	11.178	0.9	2.544	True	89.0	Magnitude	switch	twobytwo	89.0	0.812	orange	2.0	cue_switch	magnitude	stay	stim	poldrack-single-stim	s589	0	False
12.114	1.0	13.107	0.1	2.272	True	89.0	High-Low	switch	twobytwo	89.0	0.893	orange	2.0	cue_switch	magnitude	stay	stim	poldrack-single-stim	s589	0	False
15.295	1.0	16.713	0.9	2.272	True	89.0	Magnitude	switch	twobytwo	89.0	0.518	orange	1.0	cue_switch	magnitude	stay	stim	poldrack-single-stim	s589	0	False
17.677	1.0	18.603	0.1	2.408	True	89.0	Color	n/a	twobytwo	89.0	0.826	blue	9.0	task_switch	color	switch	stim	poldrack-single-stim	s589	0	False
20.189	1.0	21.388	0.1	2.136	True	71.0	Color	stay	twobytwo	71.0	1.099	orange	1.0	cue_stay	color	stay	stim	poldrack-single-stim	s589	0	False
22.431	1.0	23.299	0.1	2.272	True	71.0	High-Low	n/a	twobytwo	71.0	0.768	orange	8.0	task_switch	magnitude	switch	stim	poldrack-single-stim	s589	0	False
25.611	1.0	27.074	0.9	2.0	True	89.0	Magnitude	switch	twobytwo	89.0	0.563	blue	2.0	cue_switch	magnitude	stay	stim	poldrack-single-stim	s589	0	False
28.522	1.0	29.948	0.9	2.136	True	89.0	High-Low	switch	twobytwo	89.0	0.526	blue	3.0	cue_switch	magnitude	stay	stim	poldrack-single-stim	s589	0	False
31.563	1.0	33.043	0.9	2.272	True	71.0	High-Low	stay	twobytwo	71.0	0.58	orange	9.0	cue_stay	magnitude	stay	stim	poldrack-single-stim	s589	0	False
33.941	1.0	34.74	0.1	2.0	True	89.0	Color	n/a	twobytwo	89.0	0.699	blue	1.0	task_switch	color	switch	stim	poldrack-single-stim	s589	0	False
36.046	1.0	37.2	0.1	2.68	True	89.0	High-Low	n/a	twobytwo	89.0	1.054	orange	4.0	task_switch	magnitude	switch	stim	poldrack-single-stim	s589	0	False
38.834	1.0	39.587	0.1	2.0	True	71.0	Magnitude	switch	twobytwo	71.0	0.653	blue	8.0	cue_switch	magnitude	stay	stim	poldrack-single-stim	s589	0	False
40.939	1.0	41.864	0.1	2.0	True	89.0	Orange-Blue	n/a	twobytwo	89.0	0.825	blue	4.0	task_switch	color	switch	stim	poldrack-single-stim	s589	0	False
43.851	1.0	45.379	0.9	2.0	True	71.0	Orange-Blue	stay	twobytwo	71.0	0.628	orange	7.0	cue_stay	color	stay	stim	poldrack-single-stim	s589	0	False
46.758	1.0	48.221	0.9	2.272	True	89.0	Magnitude	n/a	twobytwo	89.0	0.563	blue	4.0	task_switch	magnitude	switch	stim	poldrack-single-stim	s589	0	False
49.936	1.0	51.481	0.9	2.0	True	89.0	Color	n/a	twobytwo	89.0	0.645	blue	7.0	task_switch	color	switch	stim	poldrack-single-stim	s589	0	False
52.843	1.0	54.632	0.9	2.0	True	89.0	Magnitude	n/a	twobytwo	89.0	0.889	orange	4.0	task_switch	magnitude	switch	stim	poldrack-single-stim	s589	0	False
54.953	1.0	55.91	0.1	2.0	True	71.0	Color	n/a	twobytwo	71.0	0.857	orange	8.0	task_switch	color	switch	stim	poldrack-single-stim	s589	0	False
57.059	1.0	57.845	0.1	2.68	True	89.0	Color	stay	twobytwo	89.0	0.686	blue	4.0	cue_stay	color	stay	stim	poldrack-single-stim	s589	0	False
60.646	1.0	62.098	0.9	2.0	True	89.0	Color	stay	twobytwo	89.0	0.552	blue	2.0	cue_stay	color	stay	stim	poldrack-single-stim	s589	0	False
62.755	1.0	63.474	0.1	2.136	True	71.0	High-Low	n/a	twobytwo	71.0	0.619	blue	9.0	task_switch	magnitude	switch	stim	poldrack-single-stim	s589	0	False
64.995	1.0	65.732	0.1	2.408	True	89.0	Magnitude	switch	twobytwo	89.0	0.637	blue	1.0	cue_switch	magnitude	stay	stim	poldrack-single-stim	s589	0	False
67.51	1.0	68.311	0.1	2.136	True	71.0	Magnitude	stay	twobytwo	71.0	0.701	orange	6.0	cue_stay	magnitude	stay	stim	poldrack-single-stim	s589	0	False
70.556	1.0	71.954	0.9	2.0	True	71.0	Magnitude	stay	twobytwo	71.0	0.498	blue	8.0	cue_stay	magnitude	stay	stim	poldrack-single-stim	s589	0	False
73.464	1.0	74.827	0.9	2.0	False	71.0	Orange-Blue	n/a	twobytwo	89.0	0.463	orange	6.0	task_switch	color	switch	stim	poldrack-single-stim	s589	0	False
75.569	1.0	76.848	0.1	2.544	True	71.0	High-Low	n/a	twobytwo	71.0	1.179	blue	6.0	task_switch	magnitude	switch	stim	poldrack-single-stim	s589	0	False
79.018	1.0	80.559	0.9	2.136	True	89.0	High-Low	stay	twobytwo	89.0	0.641	orange	2.0	cue_stay	magnitude	stay	stim	poldrack-single-stim	s589	0	False
81.265	1.0	82.2	0.1	2.544	True	71.0	High-Low	stay	twobytwo	71.0	0.835	orange	6.0	cue_stay	magnitude	stay	stim	poldrack-single-stim	s589	0	False
83.914	1.0	84.758	0.1	2.68	True	71.0	Color	n/a	twobytwo	71.0	0.744	orange	6.0	task_switch	color	switch	stim	poldrack-single-stim	s589	0	False
86.706	1.0	87.727	0.1	2.0	True	71.0	Orange-Blue	switch	twobytwo	71.0	0.921	orange	2.0	cue_switch	color	stay	stim	poldrack-single-stim	s589	0	False
88.812	1.0	89.569	0.1	2.272	True	71.0	High-Low	n/a	twobytwo	71.0	0.657	orange	9.0	task_switch	magnitude	switch	stim	poldrack-single-stim	s589	0	False
91.991	1.0	93.6	0.9	3.088	True	71.0	Orange-Blue	n/a	twobytwo	71.0	0.709	orange	7.0	task_switch	color	switch	stim	poldrack-single-stim	s589	0	False
95.186	1.0	96.015	0.1	2.0	True	71.0	High-Low	n/a	twobytwo	71.0	0.729	blue	6.0	task_switch	magnitude	switch	stim	poldrack-single-stim	s589	0	False
97.295	1.0	98.282	0.1	2.136	True	89.0	High-Low	stay	twobytwo	89.0	0.887	orange	1.0	cue_stay	magnitude	stay	stim	poldrack-single-stim	s589	0	False
99.536	1.0	100.67	0.1	2.136	True	89.0	Orange-Blue	n/a	twobytwo	89.0	1.034	blue	6.0	task_switch	color	switch	stim	poldrack-single-stim	s589	0	False
101.778	1.0	102.674	0.1	2.0	True	89.0	Orange-Blue	stay	twobytwo	89.0	0.796	blue	8.0	cue_stay	color	stay	stim	poldrack-single-stim	s589	0	False
103.885	1.0	104.663	0.1	2.272	True	89.0	Color	switch	twobytwo	89.0	0.678	blue	1.0	cue_switch	color	stay	stim	poldrack-single-stim	s589	0	False
107.063	1.0	108.724	0.9	2.0	True	89.0	Magnitude	n/a	twobytwo	89.0	0.761	blue	4.0	task_switch	magnitude	switch	stim	poldrack-single-stim	s589	0	False
109.173	1.0	110.247	0.1	2.136	True	71.0	Orange-Blue	n/a	twobytwo	71.0	0.974	orange	6.0	task_switch	color	switch	stim	poldrack-single-stim	s589	0	False
112.213	1.0	113.793	0.9	2.136	True	89.0	Magnitude	n/a	twobytwo	89.0	0.68	orange	1.0	task_switch	magnitude	switch	stim	poldrack-single-stim	s589	0	False
114.456	1.0	115.298	0.1	2.544	True	71.0	Magnitude	stay	twobytwo	71.0	0.742	orange	6.0	cue_stay	magnitude	stay	stim	poldrack-single-stim	s589	0	False
117.112	1.0	118.075	0.1	2.0	True	71.0	Orange-Blue	n/a	twobytwo	71.0	0.863	orange	1.0	task_switch	color	switch	stim	poldrack-single-stim	s589	0	False
119.219	1.0	120.118	0.1	2.136	True	71.0	Orange-Blue	stay	twobytwo	71.0	0.799	orange	2.0	cue_stay	color	stay	stim	poldrack-single-stim	s589	0	False
122.262	1.0	123.809	0.9	2.136	True	89.0	Magnitude	n/a	twobytwo	89.0	0.647	blue	1.0	task_switch	magnitude	switch	stim	poldrack-single-stim	s589	0	False
125.309	1.0	126.872	0.9	2.136	True	89.0	Orange-Blue	n/a	twobytwo	89.0	0.663	blue	1.0	task_switch	color	switch	stim	poldrack-single-stim	s589	0	False
127.555	1.0	128.608	0.1	2.0	True	89.0	Magnitude	n/a	twobytwo	89.0	0.953	blue	1.0	task_switch	magnitude	switch	stim	poldrack-single-stim	s589	0	False
130.465	1.0	131.901	0.9	2.136	True	71.0	Color	n/a	twobytwo	71.0	0.536	orange	9.0	task_switch	color	switch	stim	poldrack-single-stim	s589	0	False
132.708	1.0	133.744	0.1	2.0	True	71.0	Color	stay	twobytwo	71.0	0.936	orange	3.0	cue_stay	color	stay	stim	poldrack-single-stim	s589	0	False
134.817	1.0	135.993	0.1	2.136	True	71.0	Orange-Blue	switch	twobytwo	71.0	1.076	orange	8.0	cue_switch	color	stay	stim	poldrack-single-stim	s589	0	False
137.06	1.0	137.994	0.1	2.816	True	89.0	Magnitude	n/a	twobytwo	89.0	0.834	orange	2.0	task_switch	magnitude	switch	stim	poldrack-single-stim	s589	0	False
139.98	1.0	140.851	0.1	2.136	True	71.0	Magnitude	stay	twobytwo	71.0	0.771	orange	9.0	cue_stay	magnitude	stay	stim	poldrack-single-stim	s589	0	False
143.022	1.0	144.399	0.9	2.0	True	71.0	Magnitude	stay	twobytwo	71.0	0.477	orange	6.0	cue_stay	magnitude	stay	stim	poldrack-single-stim	s589	0	False
145.927	1.0	147.337	0.9	2.0	True	89.0	Color	n/a	twobytwo	89.0	0.51	blue	4.0	task_switch	color	switch	stim	poldrack-single-stim	s589	0	False
148.836	1.0	150.439	0.9	2.272	True	71.0	Color	stay	twobytwo	71.0	0.703	orange	4.0	cue_stay	color	stay	stim	poldrack-single-stim	s589	0	False
151.214	1.0	151.969	0.1	2.0	True	89.0	Magnitude	n/a	twobytwo	89.0	0.655	blue	2.0	task_switch	magnitude	switch	stim	poldrack-single-stim	s589	0	False
154.122	1.0	155.72	0.9	2.0	True	71.0	Color	n/a	twobytwo	71.0	0.698	orange	7.0	task_switch	color	switch	stim	poldrack-single-stim	s589	0	False
156.234	1.0	157.078	0.1	2.0	True	71.0	High-Low	n/a	twobytwo	71.0	0.744	orange	9.0	task_switch	magnitude	switch	stim	poldrack-single-stim	s589	0	False
159.139	1.0	160.674	0.9	2.408	True	89.0	Orange-Blue	n/a	twobytwo	89.0	0.635	blue	2.0	task_switch	color	switch	stim	poldrack-single-stim	s589	0	False
162.453	1.0	163.904	0.9	2.272	True	71.0	Orange-Blue	stay	twobytwo	71.0	0.551	orange	8.0	cue_stay	color	stay	stim	poldrack-single-stim	s589	0	False
164.828	1.0	165.683	0.1	2.136	True	89.0	Magnitude	n/a	twobytwo	89.0	0.755	orange	2.0	task_switch	magnitude	switch	stim	poldrack-single-stim	s589	0	False
167.071	1.0	167.865	0.1	2.0	True	71.0	High-Low	switch	twobytwo	71.0	0.694	blue	8.0	cue_switch	magnitude	stay	stim	poldrack-single-stim	s589	0	False
169.977	1.0	171.464	0.9	2.0	True	89.0	Orange-Blue	n/a	twobytwo	89.0	0.587	blue	6.0	task_switch	color	switch	stim	poldrack-single-stim	s589	0	False
172.886	1.0	174.708	0.9	2.136	True	89.0	High-Low	n/a	twobytwo	89.0	0.922	orange	2.0	task_switch	magnitude	switch	stim	poldrack-single-stim	s589	0	False
175.93	1.0	177.391	0.9	2.0	True	71.0	Color	n/a	twobytwo	71.0	0.561	orange	9.0	task_switch	color	switch	stim	poldrack-single-stim	s589	0	False
178.035	1.0	178.893	0.1	2.136	True	71.0	High-Low	n/a	twobytwo	71.0	0.758	orange	8.0	task_switch	magnitude	switch	stim	poldrack-single-stim	s589	0	False
180.279	1.0	181.047	0.1	2.408	True	71.0	High-Low	stay	twobytwo	71.0	0.668	blue	7.0	cue_stay	magnitude	stay	stim	poldrack-single-stim	s589	0	False
182.792	1.0	183.966	0.1	2.136	True	89.0	Orange-Blue	n/a	twobytwo	89.0	1.074	blue	8.0	task_switch	color	switch	stim	poldrack-single-stim	s589	0	False
185.035	1.0	186.184	0.1	2.0	True	71.0	Magnitude	n/a	twobytwo	71.0	1.049	orange	8.0	task_switch	magnitude	switch	stim	poldrack-single-stim	s589	0	False
187.144	1.0	188.053	0.1	2.136	True	89.0	Orange-Blue	n/a	twobytwo	89.0	0.809	blue	6.0	task_switch	color	switch	stim	poldrack-single-stim	s589	0	False
189.385	1.0	190.141	0.1	2.272	True	71.0	Orange-Blue	stay	twobytwo	71.0	0.656	orange	7.0	cue_stay	color	stay	stim	poldrack-single-stim	s589	0	False
192.565	1.0	194.059	0.9	2.0	True	89.0	Magnitude	n/a	twobytwo	89.0	0.594	blue	1.0	task_switch	magnitude	switch	stim	poldrack-single-stim	s589	0	False
194.673	1.0	195.595	0.1	2.408	True	71.0	Orange-Blue	n/a	twobytwo	71.0	0.822	orange	9.0	task_switch	color	switch	stim	poldrack-single-stim	s589	0	False
197.989	1.0	199.342	0.9	2.0	True	71.0	Color	switch	twobytwo	71.0	0.453	orange	7.0	cue_switch	color	stay	stim	poldrack-single-stim	s589	0	False
200.1	1.0	200.849	0.1	2.136	True	71.0	Magnitude	n/a	twobytwo	71.0	0.649	orange	8.0	task_switch	magnitude	switch	stim	poldrack-single-stim	s589	0	False
202.345	1.0	203.134	0.1	2.408	True	89.0	Orange-Blue	n/a	twobytwo	89.0	0.689	blue	8.0	task_switch	color	switch	stim	poldrack-single-stim	s589	0	False
204.862	1.0	205.635	0.1	2.136	True	71.0	High-Low	n/a	twobytwo	71.0	0.673	orange	7.0	task_switch	magnitude	switch	stim	poldrack-single-stim	s589	0	False
207.103	1.0	207.803	0.1	2.408	True	89.0	Color	n/a	twobytwo	89.0	0.6	blue	9.0	task_switch	color	switch	stim	poldrack-single-stim	s589	0	False
209.619	1.0	210.343	0.1	2.136	True	71.0	High-Low	n/a	twobytwo	71.0	0.624	blue	6.0	task_switch	magnitude	switch	stim	poldrack-single-stim	s589	0	False
225.382	1.0	226.224	0.1	2.0	True	89.0	Orange-Blue	n/a	twobytwo	89.0	0.742	blue	1.0	task_switch	color	switch	stim	poldrack-single-stim	s589	1	False
227.49	1.0	228.221	0.1	2.272	True	89.0	Orange-Blue	stay	twobytwo	89.0	0.631	blue	7.0	cue_stay	color	stay	stim	poldrack-single-stim	s589	0	False
230.674	1.0	232.349	0.9	2.0	True	71.0	Color	switch	twobytwo	71.0	0.775	orange	2.0	cue_switch	color	stay	stim	poldrack-single-stim	s589	0	False
232.786	1.0	233.622	0.1	2.272	True	71.0	Orange-Blue	switch	twobytwo	71.0	0.736	orange	2.0	cue_switch	color	stay	stim	poldrack-single-stim	s589	0	False
235.964	1.0	237.314	0.9	2.272	True	71.0	Color	switch	twobytwo	71.0	0.45	orange	1.0	cue_switch	color	stay	stim	poldrack-single-stim	s589	0	False
238.341	1.0	239.055	0.1	2.952	True	71.0	Magnitude	n/a	twobytwo	71.0	0.614	blue	9.0	task_switch	magnitude	switch	stim	poldrack-single-stim	s589	0	False
241.402	1.0	242.213	0.1	2.68	True	89.0	Magnitude	stay	twobytwo	89.0	0.711	orange	1.0	cue_stay	magnitude	stay	stim	poldrack-single-stim	s589	0	False
244.187	1.0	245.023	0.1	2.136	True	71.0	Color	n/a	twobytwo	71.0	0.736	orange	8.0	task_switch	color	switch	stim	poldrack-single-stim	s589	0	False
247.234	1.0	248.774	0.9	2.272	True	89.0	Orange-Blue	switch	twobytwo	89.0	0.64	blue	2.0	cue_switch	color	stay	stim	poldrack-single-stim	s589	0	False
250.413	1.0	251.937	0.9	2.272	True	89.0	Color	switch	twobytwo	89.0	0.624	blue	3.0	cue_switch	color	stay	stim	poldrack-single-stim	s589	0	False
253.595	1.0	255.029	0.9	2.136	True	71.0	Color	stay	twobytwo	71.0	0.534	orange	9.0	cue_stay	color	stay	stim	poldrack-single-stim	s589	0	False
255.84	1.0	256.68	0.1	2.408	True	89.0	Magnitude	n/a	twobytwo	89.0	0.74	blue	1.0	task_switch	magnitude	switch	stim	poldrack-single-stim	s589	0	False
258.351	1.0	259.719	0.1	2.136	True	71.0	Orange-Blue	n/a	twobytwo	71.0	1.268	orange	4.0	task_switch	color	switch	stim	poldrack-single-stim	s589	0	False
260.595	1.0	261.613	0.1	2.136	True	89.0	Color	switch	twobytwo	89.0	0.918	blue	8.0	cue_switch	color	stay	stim	poldrack-single-stim	s589	0	False
262.84	1.0	263.473	0.1	2.0	False	89.0	High-Low	n/a	twobytwo	71.0	0.533	blue	4.0	task_switch	magnitude	switch	stim	poldrack-single-stim	s589	0	False
265.75	1.0	267.706	0.9	2.0	True	71.0	High-Low	stay	twobytwo	71.0	1.056	orange	7.0	cue_stay	magnitude	stay	stim	poldrack-single-stim	s589	0	False
268.655	1.0	270.211	0.9	2.0	True	89.0	Color	n/a	twobytwo	89.0	0.656	blue	4.0	task_switch	color	switch	stim	poldrack-single-stim	s589	0	False
271.567	1.0	273.393	0.9	2.0	True	71.0	Magnitude	n/a	twobytwo	71.0	0.926	blue	7.0	task_switch	magnitude	switch	stim	poldrack-single-stim	s589	0	False
274.478	1.0	275.956	0.9	2.0	True	71.0	Orange-Blue	n/a	twobytwo	71.0	0.578	orange	4.0	task_switch	color	switch	stim	poldrack-single-stim	s589	0	False
276.584	1.0	277.478	0.1	2.272	True	71.0	Magnitude	n/a	twobytwo	71.0	0.794	orange	8.0	task_switch	magnitude	switch	stim	poldrack-single-stim	s589	0	False
278.965	1.0	279.807	0.1	2.408	True	89.0	Magnitude	stay	twobytwo	89.0	0.742	blue	4.0	cue_stay	magnitude	stay	stim	poldrack-single-stim	s589	0	False
282.281	1.0	283.705	0.9	2.0	True	89.0	Magnitude	stay	twobytwo	89.0	0.524	blue	2.0	cue_stay	magnitude	stay	stim	poldrack-single-stim	s589	0	False
284.387	1.0	285.29	0.1	2.136	True	89.0	Color	n/a	twobytwo	89.0	0.803	blue	9.0	task_switch	color	switch	stim	poldrack-single-stim	s589	0	False
286.632	1.0	287.339	0.1	2.0	True	89.0	Orange-Blue	switch	twobytwo	89.0	0.607	blue	1.0	cue_switch	color	stay	stim	poldrack-single-stim	s589	0	False
288.737	1.0	289.674	0.1	2.136	True	71.0	Orange-Blue	stay	twobytwo	71.0	0.837	orange	6.0	cue_stay	color	stay	stim	poldrack-single-stim	s589	0	False
291.777	1.0	293.197	0.9	2.544	True	89.0	Orange-Blue	stay	twobytwo	89.0	0.52	blue	8.0	cue_stay	color	stay	stim	poldrack-single-stim	s589	0	False
295.227	1.0	296.744	0.9	2.68	True	71.0	Magnitude	n/a	twobytwo	71.0	0.617	orange	6.0	task_switch	magnitude	switch	stim	poldrack-single-stim	s589	0	False
298.011	1.0	298.863	0.1	3.088	True	89.0	Color	n/a	twobytwo	89.0	0.752	blue	6.0	task_switch	color	switch	stim	poldrack-single-stim	s589	0	False
302.007	1.0	303.927	0.9	2.136	True	71.0	Color	stay	twobytwo	71.0	1.02	orange	2.0	cue_stay	color	stay	stim	poldrack-single-stim	s589	0	False
304.249	1.0	304.99	0.1	2.544	True	71.0	Color	stay	twobytwo	71.0	0.641	orange	6.0	cue_stay	color	stay	stim	poldrack-single-stim	s589	0	False
306.9	1.0	307.784	0.1	2.0	True	71.0	High-Low	n/a	twobytwo	71.0	0.784	orange	6.0	task_switch	magnitude	switch	stim	poldrack-single-stim	s589	0	False
309.004	1.0	309.842	0.1	2.136	True	89.0	Magnitude	switch	twobytwo	89.0	0.738	orange	2.0	cue_switch	magnitude	stay	stim	poldrack-single-stim	s589	0	False
311.247	1.0	312.068	0.1	2.0	True	71.0	Color	n/a	twobytwo	71.0	0.721	orange	9.0	task_switch	color	switch	stim	poldrack-single-stim	s589	0	False
314.151	1.0	315.567	0.9	2.408	True	71.0	Magnitude	n/a	twobytwo	71.0	0.516	orange	7.0	task_switch	magnitude	switch	stim	poldrack-single-stim	s589	0	False
316.666	1.0	317.49	0.1	2.0	True	89.0	Color	n/a	twobytwo	89.0	0.724	blue	6.0	task_switch	color	switch	stim	poldrack-single-stim	s589	0	False
318.773	1.0	319.756	0.1	2.0	True	71.0	Color	stay	twobytwo	71.0	0.883	orange	1.0	cue_stay	color	stay	stim	poldrack-single-stim	s589	0	False
320.879	1.0	321.665	0.1	2.0	True	71.0	High-Low	n/a	twobytwo	71.0	0.686	blue	6.0	task_switch	magnitude	switch	stim	poldrack-single-stim	s589	0	False
322.985	1.0	323.817	0.1	2.68	True	71.0	High-Low	stay	twobytwo	71.0	0.732	blue	8.0	cue_stay	magnitude	stay	stim	poldrack-single-stim	s589	0	False
325.776	1.0	326.533	0.1	2.272	True	89.0	Magnitude	switch	twobytwo	89.0	0.657	blue	1.0	cue_switch	magnitude	stay	stim	poldrack-single-stim	s589	0	False
328.954	1.0	330.404	0.9	2.408	True	89.0	Orange-Blue	n/a	twobytwo	89.0	0.55	blue	4.0	task_switch	color	switch	stim	poldrack-single-stim	s589	0	False
331.469	1.0	332.215	0.1	3.224	True	71.0	High-Low	n/a	twobytwo	71.0	0.646	orange	6.0	task_switch	magnitude	switch	stim	poldrack-single-stim	s589	0	False
335.597	1.0	337.16	0.9	2.408	True	71.0	Color	n/a	twobytwo	71.0	0.663	orange	1.0	task_switch	color	switch	stim	poldrack-single-stim	s589	0	False
338.117	1.0	339.005	0.1	2.816	True	71.0	Color	stay	twobytwo	71.0	0.788	orange	6.0	cue_stay	color	stay	stim	poldrack-single-stim	s589	0	False
341.043	1.0	342.128	0.1	2.408	True	89.0	Magnitude	n/a	twobytwo	89.0	0.985	orange	1.0	task_switch	magnitude	switch	stim	poldrack-single-stim	s589	0	False
343.557	1.0	344.338	0.1	2.136	True	89.0	Magnitude	stay	twobytwo	89.0	0.681	orange	2.0	cue_stay	magnitude	stay	stim	poldrack-single-stim	s589	0	False
346.6	1.0	348.054	0.9	2.136	True	89.0	Orange-Blue	n/a	twobytwo	89.0	0.554	blue	1.0	task_switch	color	switch	stim	poldrack-single-stim	s589	0	False
349.643	1.0	351.346	0.9	2.0	True	89.0	High-Low	n/a	twobytwo	89.0	0.803	blue	1.0	task_switch	magnitude	switch	stim	poldrack-single-stim	s589	0	False
351.75	1.0	353.531	0.1	2.0	True	89.0	Color	n/a	twobytwo	89.0	1.681	blue	1.0	task_switch	color	switch	stim	poldrack-single-stim	s589	0	False
354.656	1.0	356.213	0.9	2.272	True	71.0	Magnitude	n/a	twobytwo	71.0	0.657	orange	9.0	task_switch	magnitude	switch	stim	poldrack-single-stim	s589	0	False
357.033	1.0	358.091	0.1	2.408	True	89.0	Magnitude	stay	twobytwo	89.0	0.958	orange	3.0	cue_stay	magnitude	stay	stim	poldrack-single-stim	s589	0	False
359.547	1.0	360.498	0.1	2.0	True	71.0	High-Low	switch	twobytwo	71.0	0.851	orange	8.0	cue_switch	magnitude	stay	stim	poldrack-single-stim	s589	0	False
361.657	1.0	362.556	0.1	2.136	True	71.0	Orange-Blue	n/a	twobytwo	71.0	0.799	orange	2.0	task_switch	color	switch	stim	poldrack-single-stim	s589	0	False
363.899	1.0	364.557	0.1	2.0	True	71.0	Orange-Blue	stay	twobytwo	71.0	0.558	orange	9.0	cue_stay	color	stay	stim	poldrack-single-stim	s589	0	False
366.809	1.0	368.184	0.9	2.408	True	71.0	Orange-Blue	stay	twobytwo	71.0	0.475	orange	6.0	cue_stay	color	stay	stim	poldrack-single-stim	s589	0	False
370.123	1.0	371.612	0.9	2.272	True	89.0	High-Low	n/a	twobytwo	89.0	0.589	blue	4.0	task_switch	magnitude	switch	stim	poldrack-single-stim	s589	0	False
373.302	1.0	374.672	0.9	2.0	True	89.0	High-Low	stay	twobytwo	89.0	0.47	orange	4.0	cue_stay	magnitude	stay	stim	poldrack-single-stim	s589	0	False
375.409	1.0	376.655	0.1	2.272	True	89.0	Color	n/a	twobytwo	89.0	1.146	blue	2.0	task_switch	color	switch	stim	poldrack-single-stim	s589	0	False
378.591	1.0	380.073	0.9	2.0	True	71.0	High-Low	n/a	twobytwo	71.0	0.582	orange	7.0	task_switch	magnitude	switch	stim	poldrack-single-stim	s589	0	False
380.7	1.0	381.389	0.1	2.0	True	71.0	Orange-Blue	n/a	twobytwo	71.0	0.589	orange	9.0	task_switch	color	switch	stim	poldrack-single-stim	s589	0	False
383.607	1.0	385.001	0.9	2.272	True	89.0	Magnitude	n/a	twobytwo	89.0	0.494	blue	2.0	task_switch	magnitude	switch	stim	poldrack-single-stim	s589	0	False
386.788	1.0	388.244	0.9	2.136	True	71.0	Magnitude	stay	twobytwo	71.0	0.556	orange	8.0	cue_stay	magnitude	stay	stim	poldrack-single-stim	s589	0	False
389.03	1.0	389.716	0.1	2.0	False	71.0	Color	n/a	twobytwo	89.0	0.586	orange	2.0	task_switch	color	switch	stim	poldrack-single-stim	s589	0	False
391.138	1.0	392.131	0.1	2.0	True	89.0	Orange-Blue	switch	twobytwo	89.0	0.893	blue	8.0	cue_switch	color	stay	stim	poldrack-single-stim	s589	0	False
394.044	1.0	395.451	0.9	2.0	True	71.0	High-Low	n/a	twobytwo	71.0	0.507	blue	6.0	task_switch	magnitude	switch	stim	poldrack-single-stim	s589	0	False
396.951	1.0	398.621	0.9	2.0	True	71.0	Orange-Blue	n/a	twobytwo	71.0	0.77	orange	2.0	task_switch	color	switch	stim	poldrack-single-stim	s589	0	False
399.858	1.0	401.446	0.9	2.0	True	71.0	High-Low	n/a	twobytwo	71.0	0.688	orange	9.0	task_switch	magnitude	switch	stim	poldrack-single-stim	s589	0	False
401.964	1.0	402.768	0.1	2.136	True	71.0	Orange-Blue	n/a	twobytwo	71.0	0.704	orange	8.0	task_switch	color	switch	stim	poldrack-single-stim	s589	0	False
404.21	1.0	404.905	0.1	2.0	True	89.0	Orange-Blue	stay	twobytwo	89.0	0.595	blue	7.0	cue_stay	color	stay	stim	poldrack-single-stim	s589	0	False
406.319	1.0	407.08	0.1	2.0	True	71.0	Magnitude	n/a	twobytwo	71.0	0.661	blue	8.0	task_switch	magnitude	switch	stim	poldrack-single-stim	s589	0	False
408.426	1.0	409.079	0.1	2.136	False	71.0	Color	n/a	twobytwo	89.0	0.553	orange	8.0	task_switch	color	switch	stim	poldrack-single-stim	s589	0	False
410.671	1.0	412.471	0.1	2.0	True	71.0	Magnitude	n/a	twobytwo	71.0	1.7	blue	6.0	task_switch	magnitude	switch	stim	poldrack-single-stim	s589	0	False
412.779	1.0	413.796	0.1	2.136	True	71.0	Magnitude	stay	twobytwo	71.0	0.917	orange	7.0	cue_stay	magnitude	stay	stim	poldrack-single-stim	s589	0	False
415.821	1.0	417.395	0.9	2.68	True	89.0	Orange-Blue	n/a	twobytwo	89.0	0.674	blue	1.0	task_switch	color	switch	stim	poldrack-single-stim	s589	0	False
418.611	1.0	419.391	0.1	2.272	True	71.0	High-Low	n/a	twobytwo	71.0	0.68	orange	9.0	task_switch	magnitude	switch	stim	poldrack-single-stim	s589	0	False
421.793	1.0	423.18	0.9	2.136	True	71.0	Magnitude	switch	twobytwo	71.0	0.487	orange	7.0	cue_switch	magnitude	stay	stim	poldrack-single-stim	s589	0	False
424.04	1.0	424.788	0.1	2.0	True	71.0	Orange-Blue	n/a	twobytwo	71.0	0.648	orange	8.0	task_switch	color	switch	stim	poldrack-single-stim	s589	0	False
426.149	1.0	426.942	0.1	2.136	True	71.0	Magnitude	n/a	twobytwo	71.0	0.693	blue	8.0	task_switch	magnitude	switch	stim	poldrack-single-stim	s589	0	False
428.39	1.0	429.294	0.1	2.68	True	71.0	Color	n/a	twobytwo	71.0	0.804	orange	7.0	task_switch	color	switch	stim	poldrack-single-stim	s589	0	False
431.177	1.0	431.845	0.1	2.272	True	71.0	Magnitude	n/a	twobytwo	71.0	0.568	blue	9.0	task_switch	magnitude	switch	stim	poldrack-single-stim	s589	0	False
433.56	1.0	434.475	0.1	2.0	True	89.0	Orange-Blue	n/a	twobytwo	89.0	0.815	blue	6.0	task_switch	color	switch	stim	poldrack-single-stim	s589	0	False
449.188	1.0	450.063	0.1	2.0	True	89.0	High-Low	n/a	twobytwo	89.0	0.775	blue	1.0	task_switch	magnitude	switch	stim	poldrack-single-stim	s589	1	False
451.293	1.0	452.817	0.1	2.136	True	71.0	High-Low	stay	twobytwo	71.0	1.424	blue	7.0	cue_stay	magnitude	stay	stim	poldrack-single-stim	s589	0	False
454.336	1.0	455.862	0.9	2.0	True	89.0	Magnitude	switch	twobytwo	89.0	0.626	orange	2.0	cue_switch	magnitude	stay	stim	poldrack-single-stim	s589	0	False
456.441	1.0	457.61	0.1	2.0	True	89.0	High-Low	switch	twobytwo	89.0	1.069	orange	2.0	cue_switch	magnitude	stay	stim	poldrack-single-stim	s589	0	False
459.348	1.0	460.654	0.9	2.0	True	89.0	Magnitude	switch	twobytwo	89.0	0.406	orange	1.0	cue_switch	magnitude	stay	stim	poldrack-single-stim	s589	0	False
461.456	1.0	462.382	0.1	2.272	True	89.0	Orange-Blue	n/a	twobytwo	89.0	0.826	blue	9.0	task_switch	color	switch	stim	poldrack-single-stim	s589	0	False
463.836	1.0	464.864	0.1	2.408	True	71.0	Orange-Blue	stay	twobytwo	71.0	0.928	orange	1.0	cue_stay	color	stay	stim	poldrack-single-stim	s589	0	False
466.351	1.0	467.124	0.1	2.0	True	71.0	High-Low	n/a	twobytwo	71.0	0.673	orange	8.0	task_switch	magnitude	switch	stim	poldrack-single-stim	s589	0	False
469.258	1.0	470.668	0.9	2.0	True	89.0	Magnitude	switch	twobytwo	89.0	0.51	blue	2.0	cue_switch	magnitude	stay	stim	poldrack-single-stim	s589	0	False
472.165	1.0	474.094	0.9	2.0	True	89.0	High-Low	switch	twobytwo	89.0	1.029	blue	3.0	cue_switch	magnitude	stay	stim	poldrack-single-stim	s589	0	False
475.072	1.0	476.592	0.9	2.272	True	71.0	High-Low	stay	twobytwo	71.0	0.62	orange	9.0	cue_stay	magnitude	stay	stim	poldrack-single-stim	s589	0	False
477.453	1.0	478.15	0.1	2.136	True	89.0	Color	n/a	twobytwo	89.0	0.597	blue	1.0	task_switch	color	switch	stim	poldrack-single-stim	s589	0	False
479.701	1.0	480.864	0.1	2.0	True	89.0	High-Low	n/a	twobytwo	89.0	1.063	orange	4.0	task_switch	magnitude	switch	stim	poldrack-single-stim	s589	0	False
481.809	1.0	482.674	0.1	2.544	True	71.0	Magnitude	switch	twobytwo	71.0	0.765	blue	8.0	cue_switch	magnitude	stay	stim	poldrack-single-stim	s589	0	False
484.464	1.0	485.62	0.1	2.272	True	89.0	Color	n/a	twobytwo	89.0	1.056	blue	4.0	task_switch	color	switch	stim	poldrack-single-stim	s589	0	False
487.642	1.0	489.119	0.9	2.272	True	71.0	Color	stay	twobytwo	71.0	0.577	orange	7.0	cue_stay	color	stay	stim	poldrack-single-stim	s589	0	False
490.827	1.0	492.254	0.9	2.0	True	89.0	High-Low	n/a	twobytwo	89.0	0.527	blue	4.0	task_switch	magnitude	switch	stim	poldrack-single-stim	s589	0	False
493.733	1.0	495.256	0.9	2.0	True	89.0	Color	n/a	twobytwo	89.0	0.623	blue	7.0	task_switch	color	switch	stim	poldrack-single-stim	s589	0	False
496.637	1.0	498.208	0.9	2.136	True	89.0	High-Low	n/a	twobytwo	89.0	0.671	orange	4.0	task_switch	magnitude	switch	stim	poldrack-single-stim	s589	0	False
498.885	1.0	499.907	0.1	2.0	True	71.0	Orange-Blue	n/a	twobytwo	71.0	0.922	orange	8.0	task_switch	color	switch	stim	poldrack-single-stim	s589	0	False
500.991	1.0	501.722	0.1	2.136	True	89.0	Orange-Blue	stay	twobytwo	89.0	0.631	blue	4.0	cue_stay	color	stay	stim	poldrack-single-stim	s589	0	False
504.038	1.0	505.589	0.9	2.272	True	89.0	Orange-Blue	stay	twobytwo	89.0	0.651	blue	2.0	cue_stay	color	stay	stim	poldrack-single-stim	s589	0	False
506.414	1.0	507.23	0.1	2.136	True	71.0	Magnitude	n/a	twobytwo	71.0	0.716	blue	9.0	task_switch	magnitude	switch	stim	poldrack-single-stim	s589	0	False
508.659	1.0	509.399	0.1	2.272	True	89.0	High-Low	switch	twobytwo	89.0	0.64	blue	1.0	cue_switch	magnitude	stay	stim	poldrack-single-stim	s589	0	False
511.041	1.0	511.822	0.1	2.0	True	71.0	High-Low	stay	twobytwo	71.0	0.681	orange	6.0	cue_stay	magnitude	stay	stim	poldrack-single-stim	s589	0	False
513.947	1.0	515.62	0.9	2.816	False	71.0	High-Low	stay	twobytwo	89.0	0.773	blue	8.0	cue_stay	magnitude	stay	stim	poldrack-single-stim	s589	0	False
517.673	1.0	519.501	0.9	2.408	True	71.0	Color	n/a	twobytwo	71.0	0.928	orange	6.0	task_switch	color	switch	stim	poldrack-single-stim	s589	0	False
520.193	1.0	521.455	0.1	2.0	True	71.0	High-Low	n/a	twobytwo	71.0	1.162	blue	6.0	task_switch	magnitude	switch	stim	poldrack-single-stim	s589	0	False
523.096	1.0	524.63	0.9	2.544	True	89.0	High-Low	stay	twobytwo	89.0	0.634	orange	2.0	cue_stay	magnitude	stay	stim	poldrack-single-stim	s589	0	False
525.748	1.0	526.546	0.1	2.136	True	71.0	High-Low	stay	twobytwo	71.0	0.698	orange	6.0	cue_stay	magnitude	stay	stim	poldrack-single-stim	s589	0	False
527.99	1.0	528.947	0.1	2.0	True	71.0	Color	n/a	twobytwo	71.0	0.857	orange	6.0	task_switch	color	switch	stim	poldrack-single-stim	s589	0	False
530.097	1.0	530.896	0.1	2.0	False	71.0	Orange-Blue	switch	twobytwo	89.0	0.699	orange	2.0	cue_switch	color	stay	stim	poldrack-single-stim	s589	0	False
532.207	1.0	533.099	0.1	2.136	True	71.0	High-Low	n/a	twobytwo	71.0	0.792	orange	9.0	task_switch	magnitude	switch	stim	poldrack-single-stim	s589	0	False
535.253	1.0	536.615	0.9	2.136	True	71.0	Orange-Blue	n/a	twobytwo	71.0	0.462	orange	7.0	task_switch	color	switch	stim	poldrack-single-stim	s589	0	False
537.5	1.0	538.314	0.1	2.272	False	71.0	High-Low	n/a	twobytwo	89.0	0.714	blue	6.0	task_switch	magnitude	switch	stim	poldrack-single-stim	s589	0	False
539.876	1.0	540.961	0.1	3.224	True	89.0	High-Low	stay	twobytwo	89.0	0.985	orange	1.0	cue_stay	magnitude	stay	stim	poldrack-single-stim	s589	0	False
543.207	1.0	544.126	0.1	2.0	True	89.0	Color	n/a	twobytwo	89.0	0.819	blue	6.0	task_switch	color	switch	stim	poldrack-single-stim	s589	0	False
545.319	1.0	546.217	0.1	2.0	True	89.0	Color	stay	twobytwo	89.0	0.798	blue	8.0	cue_stay	color	stay	stim	poldrack-single-stim	s589	0	False
547.426	1.0	548.259	0.1	2.272	True	89.0	Orange-Blue	switch	twobytwo	89.0	0.733	blue	1.0	cue_switch	color	stay	stim	poldrack-single-stim	s589	0	False
550.606	1.0	552.082	0.9	2.136	True	89.0	High-Low	n/a	twobytwo	89.0	0.576	blue	4.0	task_switch	magnitude	switch	stim	poldrack-single-stim	s589	0	False
552.85	1.0	553.947	0.1	2.0	True	71.0	Color	n/a	twobytwo	71.0	0.997	orange	6.0	task_switch	color	switch	stim	poldrack-single-stim	s589	0	False
555.762	1.0	557.279	0.9	2.0	True	89.0	High-Low	n/a	twobytwo	89.0	0.617	orange	1.0	task_switch	magnitude	switch	stim	poldrack-single-stim	s589	0	False
557.874	1.0	559.019	0.1	2.0	True	71.0	High-Low	stay	twobytwo	71.0	1.045	orange	6.0	cue_stay	magnitude	stay	stim	poldrack-single-stim	s589	0	False
559.978	1.0	561.156	0.1	2.68	True	71.0	Orange-Blue	n/a	twobytwo	71.0	1.078	orange	1.0	task_switch	color	switch	stim	poldrack-single-stim	s589	0	False
562.765	1.0	563.61	0.1	2.0	True	71.0	Orange-Blue	stay	twobytwo	71.0	0.745	orange	2.0	cue_stay	color	stay	stim	poldrack-single-stim	s589	0	False
565.673	1.0	567.128	0.9	2.272	True	89.0	Magnitude	n/a	twobytwo	89.0	0.555	blue	1.0	task_switch	magnitude	switch	stim	poldrack-single-stim	s589	0	False
568.856	1.0	570.312	0.9	2.0	True	89.0	Orange-Blue	n/a	twobytwo	89.0	0.556	blue	1.0	task_switch	color	switch	stim	poldrack-single-stim	s589	0	False
570.963	1.0	572.077	0.1	2.272	True	89.0	High-Low	n/a	twobytwo	89.0	1.014	blue	1.0	task_switch	magnitude	switch	stim	poldrack-single-stim	s589	0	False
574.142	1.0	575.687	0.9	2.952	True	71.0	Orange-Blue	n/a	twobytwo	71.0	0.645	orange	9.0	task_switch	color	switch	stim	poldrack-single-stim	s589	0	False
577.203	1.0	578.01	0.1	2.0	True	71.0	Orange-Blue	stay	twobytwo	71.0	0.707	orange	3.0	cue_stay	color	stay	stim	poldrack-single-stim	s589	0	False
579.309	1.0	580.299	0.1	2.0	True	71.0	Color	switch	twobytwo	71.0	0.89	orange	8.0	cue_switch	color	stay	stim	poldrack-single-stim	s589	0	False
581.416	1.0	582.202	0.1	2.0	True	89.0	Magnitude	n/a	twobytwo	89.0	0.686	orange	2.0	task_switch	magnitude	switch	stim	poldrack-single-stim	s589	0	False
583.523	1.0	584.264	0.1	2.0	True	71.0	Magnitude	stay	twobytwo	71.0	0.641	orange	9.0	cue_stay	magnitude	stay	stim	poldrack-single-stim	s589	0	False
586.427	1.0	587.939	0.9	2.136	True	71.0	Magnitude	stay	twobytwo	71.0	0.612	orange	6.0	cue_stay	magnitude	stay	stim	poldrack-single-stim	s589	0	False
589.47	1.0	591.085	0.9	2.0	True	89.0	Color	n/a	twobytwo	89.0	0.715	blue	4.0	task_switch	color	switch	stim	poldrack-single-stim	s589	0	False
592.375	1.0	593.971	0.9	2.0	True	71.0	Color	stay	twobytwo	71.0	0.696	orange	4.0	cue_stay	color	stay	stim	poldrack-single-stim	s589	0	False
594.484	1.0	595.299	0.1	2.0	True	89.0	High-Low	n/a	twobytwo	89.0	0.715	blue	2.0	task_switch	magnitude	switch	stim	poldrack-single-stim	s589	0	False
597.391	1.0	598.763	0.9	2.272	True	71.0	Color	n/a	twobytwo	71.0	0.472	orange	7.0	task_switch	color	switch	stim	poldrack-single-stim	s589	0	False
599.766	1.0	600.455	0.1	2.136	True	71.0	Magnitude	n/a	twobytwo	71.0	0.589	orange	9.0	task_switch	magnitude	switch	stim	poldrack-single-stim	s589	0	False
602.809	1.0	604.264	0.9	2.0	True	89.0	Orange-Blue	n/a	twobytwo	89.0	0.555	blue	2.0	task_switch	color	switch	stim	poldrack-single-stim	s589	0	False
605.718	1.0	607.276	0.9	2.136	True	71.0	Orange-Blue	stay	twobytwo	71.0	0.658	orange	8.0	cue_stay	color	stay	stim	poldrack-single-stim	s589	0	False
607.961	1.0	608.914	0.1	2.816	True	89.0	Magnitude	n/a	twobytwo	89.0	0.853	orange	2.0	task_switch	magnitude	switch	stim	poldrack-single-stim	s589	0	False
610.881	1.0	611.543	0.1	2.408	True	71.0	High-Low	switch	twobytwo	71.0	0.562	blue	8.0	cue_switch	magnitude	stay	stim	poldrack-single-stim	s589	0	False
614.202	1.0	615.55	0.9	2.0	True	89.0	Color	n/a	twobytwo	89.0	0.448	blue	6.0	task_switch	color	switch	stim	poldrack-single-stim	s589	0	False
617.106	1.0	618.539	0.9	2.136	True	89.0	Magnitude	n/a	twobytwo	89.0	0.533	orange	2.0	task_switch	magnitude	switch	stim	poldrack-single-stim	s589	0	False
620.151	1.0	621.56	0.9	2.136	True	71.0	Orange-Blue	n/a	twobytwo	71.0	0.509	orange	9.0	task_switch	color	switch	stim	poldrack-single-stim	s589	0	False
622.396	1.0	623.21	0.1	2.136	True	71.0	High-Low	n/a	twobytwo	71.0	0.714	orange	8.0	task_switch	magnitude	switch	stim	poldrack-single-stim	s589	0	False
624.638	1.0	625.518	0.1	2.544	True	71.0	High-Low	stay	twobytwo	71.0	0.78	blue	7.0	cue_stay	magnitude	stay	stim	poldrack-single-stim	s589	0	False
627.287	1.0	628.091	0.1	2.136	True	89.0	Color	n/a	twobytwo	89.0	0.704	blue	8.0	task_switch	color	switch	stim	poldrack-single-stim	s589	0	False
629.53	1.0	630.256	0.1	2.0	True	71.0	High-Low	n/a	twobytwo	71.0	0.626	orange	8.0	task_switch	magnitude	switch	stim	poldrack-single-stim	s589	0	False
631.637	1.0	632.412	0.1	2.0	True	89.0	Orange-Blue	n/a	twobytwo	89.0	0.675	blue	6.0	task_switch	color	switch	stim	poldrack-single-stim	s589	0	False
633.744	1.0	634.54	0.1	2.0	True	71.0	Orange-Blue	stay	twobytwo	71.0	0.696	orange	7.0	cue_stay	color	stay	stim	poldrack-single-stim	s589	0	False
636.656	1.0	638.056	0.9	2.0	True	89.0	Magnitude	n/a	twobytwo	89.0	0.5	blue	1.0	task_switch	magnitude	switch	stim	poldrack-single-stim	s589	0	False
638.76	1.0	639.452	0.1	2.136	True	71.0	Color	n/a	twobytwo	71.0	0.592	orange	9.0	task_switch	color	switch	stim	poldrack-single-stim	s589	0	False
641.803	1.0	643.224	0.9	2.0	True	71.0	Orange-Blue	switch	twobytwo	71.0	0.521	orange	7.0	cue_switch	color	stay	stim	poldrack-single-stim	s589	0	False
643.909	1.0	644.79	0.1	2.0	True	71.0	Magnitude	n/a	twobytwo	71.0	0.781	orange	8.0	task_switch	magnitude	switch	stim	poldrack-single-stim	s589	0	False
646.016	1.0	647.046	0.1	2.0	True	89.0	Color	n/a	twobytwo	89.0	0.93	blue	8.0	task_switch	color	switch	stim	poldrack-single-stim	s589	0	False
648.125	1.0	648.923	0.1	2.136	True	71.0	High-Low	n/a	twobytwo	71.0	0.698	orange	7.0	task_switch	magnitude	switch	stim	poldrack-single-stim	s589	0	False
650.366	1.0	651.4	0.1	2.136	True	89.0	Orange-Blue	n/a	twobytwo	89.0	0.934	blue	9.0	task_switch	color	switch	stim	poldrack-single-stim	s589	0	False
652.611	1.0	653.38	0.1	2.136	True	71.0	Magnitude	n/a	twobytwo	71.0	0.669	blue	6.0	task_switch	magnitude	switch	stim	poldrack-single-stim	s589	0	False
