duration	onset	block_duration	movement_onset	planning	condition	exp_stage	experiment_exp_id	key_press	problem_id	response_time	trial_id	trial_type	worker_id	junk
2.757	3.014	2.757	5.771	1	UA_with_intermediate	practice	ward_and_allport	71	0.0	2.757	to_hand	poldrack-single-stim	s589	False
0.1	5.773	0.388	6.161	0	UA_with_intermediate	practice	ward_and_allport	82	0.0	0.388	to_board	poldrack-single-stim	s589	False
0.1	6.164	0.41	6.574	0	UA_with_intermediate	practice	ward_and_allport	71	0.0	0.41	to_hand	poldrack-single-stim	s589	False
0.1	6.575	0.349	6.924	0	UA_with_intermediate	practice	ward_and_allport	89	0.0	0.349	to_board	poldrack-single-stim	s589	False
0.1	6.926	0.537	7.463	0	UA_with_intermediate	practice	ward_and_allport	82	0.0	0.537	to_hand	poldrack-single-stim	s589	False
0.1	7.464	0.325	7.789	0	UA_with_intermediate	practice	ward_and_allport	71	0.0	0.325	to_board	poldrack-single-stim	s589	False
0.1	7.79	0.757	8.547	0	UA_with_intermediate	practice	ward_and_allport	71	0.0	0.757	to_hand	poldrack-single-stim	s589	False
0.1	8.549	0.326	8.875	0	UA_with_intermediate	practice	ward_and_allport	89	0.0	0.326	to_board	poldrack-single-stim	s589	False
1.0	8.88	2.5	8.879	0	UA_with_intermediate	practice	ward_and_allport	-1	0.0	n/a	feedback	poldrack-single-stim	s589	False
3.595	11.382	3.595	14.977	1	UA_with_intermediate	practice	ward_and_allport	89	1.0	3.595	to_hand	poldrack-single-stim	s589	False
0.1	14.978	0.568	15.546	0	UA_with_intermediate	practice	ward_and_allport	82	1.0	0.568	to_board	poldrack-single-stim	s589	False
0.1	15.549	0.423	15.972	0	UA_with_intermediate	practice	ward_and_allport	71	1.0	0.423	to_hand	poldrack-single-stim	s589	False
0.1	15.973	0.325	16.298	0	UA_with_intermediate	practice	ward_and_allport	89	1.0	0.325	to_board	poldrack-single-stim	s589	False
0.1	16.299	0.454	16.753	0	UA_with_intermediate	practice	ward_and_allport	82	1.0	0.454	to_hand	poldrack-single-stim	s589	False
0.1	16.755	0.443	17.198	0	UA_with_intermediate	practice	ward_and_allport	89	1.0	0.443	to_board	poldrack-single-stim	s589	False
1.0	17.202	2.1	17.201	0	UA_with_intermediate	practice	ward_and_allport	-1	1.0	n/a	feedback	poldrack-single-stim	s589	False
2.267	19.303	2.267	21.57	1	UA_without_intermediate	practice	ward_and_allport	82	2.0	2.267	to_hand	poldrack-single-stim	s589	False
0.1	21.572	0.42	21.992	0	UA_without_intermediate	practice	ward_and_allport	89	2.0	0.42	to_board	poldrack-single-stim	s589	False
0.1	21.995	1.718	23.713	0	UA_without_intermediate	practice	ward_and_allport	71	2.0	1.718	to_hand	poldrack-single-stim	s589	False
0.1	23.713	0.847	24.56	0	UA_without_intermediate	practice	ward_and_allport	82	2.0	0.847	to_board	poldrack-single-stim	s589	False
0.1	24.563	0.917	25.48	0	UA_without_intermediate	practice	ward_and_allport	71	2.0	0.917	to_hand	poldrack-single-stim	s589	False
0.1	25.481	0.838	26.319	0	UA_without_intermediate	practice	ward_and_allport	71	2.0	0.838	to_board	poldrack-single-stim	s589	False
0.1	26.321	0.525	26.846	0	UA_without_intermediate	practice	ward_and_allport	82	2.0	0.525	to_hand	poldrack-single-stim	s589	False
0.1	26.847	0.197	27.044	0	UA_without_intermediate	practice	ward_and_allport	89	2.0	0.197	to_board	poldrack-single-stim	s589	False
0.1	27.046	0.472	27.518	0	UA_without_intermediate	practice	ward_and_allport	71	2.0	0.472	to_hand	poldrack-single-stim	s589	False
0.1	27.519	0.323	27.842	0	UA_without_intermediate	practice	ward_and_allport	89	2.0	0.323	to_board	poldrack-single-stim	s589	False
1.0	27.848	2.2	27.847	0	UA_without_intermediate	practice	ward_and_allport	-1	2.0	n/a	feedback	poldrack-single-stim	s589	False
2.396	30.051	2.396	32.447	1	UA_without_intermediate	practice	ward_and_allport	71	3.0	2.396	to_hand	poldrack-single-stim	s589	False
0.1	32.448	0.291	32.739	0	UA_without_intermediate	practice	ward_and_allport	89	3.0	0.291	to_board	poldrack-single-stim	s589	False
0.1	32.741	1.076	33.817	0	UA_without_intermediate	practice	ward_and_allport	82	3.0	1.076	to_hand	poldrack-single-stim	s589	False
0.1	33.819	0.275	34.094	0	UA_without_intermediate	practice	ward_and_allport	89	3.0	0.275	to_board	poldrack-single-stim	s589	False
0.1	34.097	0.749	34.846	0	UA_without_intermediate	practice	ward_and_allport	71	3.0	0.749	to_hand	poldrack-single-stim	s589	False
0.1	34.847	0.221	35.068	0	UA_without_intermediate	practice	ward_and_allport	89	3.0	0.221	to_board	poldrack-single-stim	s589	False
1.0	35.072	2.0	35.071	0	UA_without_intermediate	practice	ward_and_allport	-1	3.0	n/a	feedback	poldrack-single-stim	s589	False
3.357	39.078	3.357	42.435	1	PA_with_intermediate	test	ward_and_allport	71	0.0	3.357	to_hand	poldrack-single-stim	s589	False
0.1	42.437	0.654	43.091	0	PA_with_intermediate	test	ward_and_allport	89	0.0	0.654	to_board	poldrack-single-stim	s589	False
0.1	43.093	0.648	43.741	0	PA_with_intermediate	test	ward_and_allport	71	0.0	0.648	to_hand	poldrack-single-stim	s589	False
0.1	43.743	0.355	44.098	0	PA_with_intermediate	test	ward_and_allport	82	0.0	0.355	to_board	poldrack-single-stim	s589	False
0.1	44.1	0.578	44.678	0	PA_with_intermediate	test	ward_and_allport	89	0.0	0.578	to_hand	poldrack-single-stim	s589	False
0.1	44.68	0.339	45.019	0	PA_with_intermediate	test	ward_and_allport	71	0.0	0.339	to_board	poldrack-single-stim	s589	False
1.0	45.022	2.408	45.021	0	PA_with_intermediate	test	ward_and_allport	-1	0.0	n/a	feedback	poldrack-single-stim	s589	False
2.793	47.432	2.793	50.225	1	PA_without_intermediate	test	ward_and_allport	71	1.0	2.793	to_hand	poldrack-single-stim	s589	False
0.1	50.226	0.349	50.575	0	PA_without_intermediate	test	ward_and_allport	89	1.0	0.349	to_board	poldrack-single-stim	s589	False
0.1	50.578	0.992	51.57	0	PA_without_intermediate	test	ward_and_allport	71	1.0	0.992	to_hand	poldrack-single-stim	s589	False
0.1	51.571	0.305	51.876	0	PA_without_intermediate	test	ward_and_allport	82	1.0	0.305	to_board	poldrack-single-stim	s589	False
0.1	51.879	0.427	52.306	0	PA_without_intermediate	test	ward_and_allport	71	1.0	0.427	to_hand	poldrack-single-stim	s589	False
0.1	52.306	0.28	52.586	0	PA_without_intermediate	test	ward_and_allport	89	1.0	0.28	to_board	poldrack-single-stim	s589	False
1.0	52.59	2.68	52.589	0	PA_without_intermediate	test	ward_and_allport	-1	1.0	n/a	feedback	poldrack-single-stim	s589	False
2.745	55.273	2.745	58.018	1	PA_with_intermediate	test	ward_and_allport	89	2.0	2.745	to_hand	poldrack-single-stim	s589	False
0.1	58.019	0.497	58.516	0	PA_with_intermediate	test	ward_and_allport	71	2.0	0.497	to_board	poldrack-single-stim	s589	False
0.1	58.519	0.689	59.208	0	PA_with_intermediate	test	ward_and_allport	89	2.0	0.689	to_hand	poldrack-single-stim	s589	False
0.1	59.209	0.352	59.561	0	PA_with_intermediate	test	ward_and_allport	82	2.0	0.352	to_board	poldrack-single-stim	s589	False
0.1	59.564	0.422	59.986	0	PA_with_intermediate	test	ward_and_allport	71	2.0	0.422	to_hand	poldrack-single-stim	s589	False
0.1	59.987	0.314	60.301	0	PA_with_intermediate	test	ward_and_allport	89	2.0	0.314	to_board	poldrack-single-stim	s589	False
1.0	60.305	4.72	60.304	0	PA_with_intermediate	test	ward_and_allport	-1	2.0	n/a	feedback	poldrack-single-stim	s589	False
2.716	65.028	2.716	67.744	1	PA_without_intermediate	test	ward_and_allport	89	3.0	2.716	to_hand	poldrack-single-stim	s589	False
0.1	67.746	0.785	68.531	0	PA_without_intermediate	test	ward_and_allport	71	3.0	0.785	to_board	poldrack-single-stim	s589	False
0.1	68.534	0.455	68.989	0	PA_without_intermediate	test	ward_and_allport	89	3.0	0.455	to_hand	poldrack-single-stim	s589	False
0.1	68.991	0.355	69.346	0	PA_without_intermediate	test	ward_and_allport	71	3.0	0.355	to_board	poldrack-single-stim	s589	False
0.1	69.349	0.352	69.701	0	PA_without_intermediate	test	ward_and_allport	89	3.0	0.352	to_hand	poldrack-single-stim	s589	False
0.1	69.703	0.247	69.95	0	PA_without_intermediate	test	ward_and_allport	82	3.0	0.247	to_board	poldrack-single-stim	s589	False
1.0	69.956	3.224	69.955	0	PA_without_intermediate	test	ward_and_allport	-1	3.0	n/a	feedback	poldrack-single-stim	s589	False
1.969	73.182	1.969	75.151	1	PA_without_intermediate	test	ward_and_allport	71	4.0	1.969	to_hand	poldrack-single-stim	s589	False
0.1	75.152	0.474	75.626	0	PA_without_intermediate	test	ward_and_allport	82	4.0	0.474	to_board	poldrack-single-stim	s589	False
0.1	75.63	0.395	76.025	0	PA_without_intermediate	test	ward_and_allport	71	4.0	0.395	to_hand	poldrack-single-stim	s589	False
0.1	76.026	0.361	76.387	0	PA_without_intermediate	test	ward_and_allport	82	4.0	0.361	to_board	poldrack-single-stim	s589	False
0.1	76.39	0.422	76.812	0	PA_without_intermediate	test	ward_and_allport	71	4.0	0.422	to_hand	poldrack-single-stim	s589	False
0.1	76.813	0.275	77.088	0	PA_without_intermediate	test	ward_and_allport	89	4.0	0.275	to_board	poldrack-single-stim	s589	False
1.0	77.095	2.272	77.094	0	PA_without_intermediate	test	ward_and_allport	-1	4.0	n/a	feedback	poldrack-single-stim	s589	False
1.717	79.369	1.717	81.086	1	PA_with_intermediate	test	ward_and_allport	89	5.0	1.717	to_hand	poldrack-single-stim	s589	False
0.1	81.088	0.383	81.471	0	PA_with_intermediate	test	ward_and_allport	71	5.0	0.383	to_board	poldrack-single-stim	s589	False
0.1	81.474	0.433	81.907	0	PA_with_intermediate	test	ward_and_allport	89	5.0	0.433	to_hand	poldrack-single-stim	s589	False
0.1	81.908	0.388	82.296	0	PA_with_intermediate	test	ward_and_allport	82	5.0	0.388	to_board	poldrack-single-stim	s589	False
0.1	82.299	0.58	82.879	0	PA_with_intermediate	test	ward_and_allport	71	5.0	0.58	to_hand	poldrack-single-stim	s589	False
0.1	82.88	0.325	83.205	0	PA_with_intermediate	test	ward_and_allport	82	5.0	0.325	to_board	poldrack-single-stim	s589	False
1.0	83.213	3.632	83.212	0	PA_with_intermediate	test	ward_and_allport	-1	5.0	n/a	feedback	poldrack-single-stim	s589	False
1.825	86.848	1.825	88.673	1	PA_without_intermediate	test	ward_and_allport	82	6.0	1.825	to_hand	poldrack-single-stim	s589	False
0.1	88.674	0.482	89.156	0	PA_without_intermediate	test	ward_and_allport	89	6.0	0.482	to_board	poldrack-single-stim	s589	False
0.1	89.16	0.805	89.965	0	PA_without_intermediate	test	ward_and_allport	82	6.0	0.805	to_hand	poldrack-single-stim	s589	False
0.1	89.966	0.369	90.335	0	PA_without_intermediate	test	ward_and_allport	71	6.0	0.369	to_board	poldrack-single-stim	s589	False
0.1	90.339	0.444	90.783	0	PA_without_intermediate	test	ward_and_allport	82	6.0	0.444	to_hand	poldrack-single-stim	s589	False
0.1	90.784	0.42	91.204	0	PA_without_intermediate	test	ward_and_allport	89	6.0	0.42	to_board	poldrack-single-stim	s589	False
1.0	91.21	2.408	91.209	0	PA_without_intermediate	test	ward_and_allport	-1	6.0	n/a	feedback	poldrack-single-stim	s589	False
1.393	93.622	1.393	95.015	1	PA_without_intermediate	test	ward_and_allport	71	7.0	1.393	to_hand	poldrack-single-stim	s589	False
0.1	95.017	0.384	95.401	0	PA_without_intermediate	test	ward_and_allport	82	7.0	0.384	to_board	poldrack-single-stim	s589	False
0.1	95.405	0.468	95.873	0	PA_without_intermediate	test	ward_and_allport	71	7.0	0.468	to_hand	poldrack-single-stim	s589	False
0.1	95.875	0.343	96.218	0	PA_without_intermediate	test	ward_and_allport	89	7.0	0.343	to_board	poldrack-single-stim	s589	False
0.1	96.222	0.472	96.694	0	PA_without_intermediate	test	ward_and_allport	71	7.0	0.472	to_hand	poldrack-single-stim	s589	False
0.1	96.696	0.365	97.061	0	PA_without_intermediate	test	ward_and_allport	82	7.0	0.365	to_board	poldrack-single-stim	s589	False
1.0	97.068	2.0	97.067	0	PA_without_intermediate	test	ward_and_allport	-1	7.0	n/a	feedback	poldrack-single-stim	s589	False
2.196	99.072	2.196	101.268	1	PA_with_intermediate	test	ward_and_allport	82	8.0	2.196	to_hand	poldrack-single-stim	s589	False
0.1	101.27	0.751	102.021	0	PA_with_intermediate	test	ward_and_allport	71	8.0	0.751	to_board	poldrack-single-stim	s589	False
0.1	102.026	0.511	102.537	0	PA_with_intermediate	test	ward_and_allport	82	8.0	0.511	to_hand	poldrack-single-stim	s589	False
0.1	102.537	0.32	102.857	0	PA_with_intermediate	test	ward_and_allport	89	8.0	0.32	to_board	poldrack-single-stim	s589	False
0.1	102.861	0.433	103.294	0	PA_with_intermediate	test	ward_and_allport	71	8.0	0.433	to_hand	poldrack-single-stim	s589	False
0.1	103.295	0.291	103.586	0	PA_with_intermediate	test	ward_and_allport	89	8.0	0.291	to_board	poldrack-single-stim	s589	False
1.0	103.592	2.0	103.591	0	PA_with_intermediate	test	ward_and_allport	-1	8.0	n/a	feedback	poldrack-single-stim	s589	False
2.028	105.597	2.028	107.625	1	PA_with_intermediate	test	ward_and_allport	82	9.0	2.028	to_hand	poldrack-single-stim	s589	False
0.1	107.626	0.424	108.05	0	PA_with_intermediate	test	ward_and_allport	71	9.0	0.424	to_board	poldrack-single-stim	s589	False
0.1	108.055	0.901	108.956	0	PA_with_intermediate	test	ward_and_allport	71	9.0	0.901	to_hand	poldrack-single-stim	s589	False
0.1	108.958	1.091	110.049	0	PA_with_intermediate	test	ward_and_allport	89	9.0	1.091	to_board	poldrack-single-stim	s589	False
0.1	110.053	0.985	111.038	0	PA_with_intermediate	test	ward_and_allport	82	9.0	0.985	to_hand	poldrack-single-stim	s589	False
0.1	111.04	0.336	111.376	0	PA_with_intermediate	test	ward_and_allport	71	9.0	0.336	to_board	poldrack-single-stim	s589	False
0.1	111.38	0.588	111.968	0	PA_with_intermediate	test	ward_and_allport	89	9.0	0.588	to_hand	poldrack-single-stim	s589	False
0.1	111.97	0.367	112.337	0	PA_with_intermediate	test	ward_and_allport	82	9.0	0.367	to_board	poldrack-single-stim	s589	False
1.0	112.344	2.0	112.343	0	PA_with_intermediate	test	ward_and_allport	-1	9.0	n/a	feedback	poldrack-single-stim	s589	False
1.908	114.35	1.908	116.258	1	PA_with_intermediate	test	ward_and_allport	71	10.0	1.908	to_hand	poldrack-single-stim	s589	False
0.1	116.261	0.342	116.603	0	PA_with_intermediate	test	ward_and_allport	89	10.0	0.342	to_board	poldrack-single-stim	s589	False
0.1	116.608	0.413	117.021	0	PA_with_intermediate	test	ward_and_allport	71	10.0	0.413	to_hand	poldrack-single-stim	s589	False
0.1	117.022	0.328	117.35	0	PA_with_intermediate	test	ward_and_allport	82	10.0	0.328	to_board	poldrack-single-stim	s589	False
0.1	117.356	0.612	117.968	0	PA_with_intermediate	test	ward_and_allport	89	10.0	0.612	to_hand	poldrack-single-stim	s589	False
0.1	117.969	0.344	118.313	0	PA_with_intermediate	test	ward_and_allport	82	10.0	0.344	to_board	poldrack-single-stim	s589	False
1.0	118.32	2.408	118.319	0	PA_with_intermediate	test	ward_and_allport	-1	10.0	n/a	feedback	poldrack-single-stim	s589	False
1.595	120.734	1.595	122.329	1	PA_without_intermediate	test	ward_and_allport	89	11.0	1.595	to_hand	poldrack-single-stim	s589	False
0.1	122.33	0.313	122.643	0	PA_without_intermediate	test	ward_and_allport	82	11.0	0.313	to_board	poldrack-single-stim	s589	False
0.1	122.649	0.697	123.346	0	PA_without_intermediate	test	ward_and_allport	89	11.0	0.697	to_hand	poldrack-single-stim	s589	False
0.1	123.347	0.397	123.744	0	PA_without_intermediate	test	ward_and_allport	71	11.0	0.397	to_board	poldrack-single-stim	s589	False
0.1	123.749	0.39	124.139	0	PA_without_intermediate	test	ward_and_allport	89	11.0	0.39	to_hand	poldrack-single-stim	s589	False
0.1	124.141	0.347	124.488	0	PA_without_intermediate	test	ward_and_allport	82	11.0	0.347	to_board	poldrack-single-stim	s589	False
1.0	124.494	2.816	124.493	0	PA_without_intermediate	test	ward_and_allport	-1	11.0	n/a	feedback	poldrack-single-stim	s589	False
2.106	127.315	2.106	129.421	1	PA_with_intermediate	test	ward_and_allport	89	12.0	2.106	to_hand	poldrack-single-stim	s589	False
0.1	129.422	0.298	129.72	0	PA_with_intermediate	test	ward_and_allport	82	12.0	0.298	to_board	poldrack-single-stim	s589	False
0.1	129.726	0.926	130.652	0	PA_with_intermediate	test	ward_and_allport	89	12.0	0.926	to_hand	poldrack-single-stim	s589	False
0.1	130.653	0.374	131.027	0	PA_with_intermediate	test	ward_and_allport	71	12.0	0.374	to_board	poldrack-single-stim	s589	False
0.1	131.032	0.564	131.596	0	PA_with_intermediate	test	ward_and_allport	82	12.0	0.564	to_hand	poldrack-single-stim	s589	False
0.1	131.598	0.287	131.885	0	PA_with_intermediate	test	ward_and_allport	71	12.0	0.287	to_board	poldrack-single-stim	s589	False
1.0	131.892	4.176	131.891	0	PA_with_intermediate	test	ward_and_allport	-1	12.0	n/a	feedback	poldrack-single-stim	s589	False
2.006	136.073	2.006	138.079	1	PA_with_intermediate	test	ward_and_allport	82	13.0	2.006	to_hand	poldrack-single-stim	s589	False
0.1	138.08	0.43	138.51	0	PA_with_intermediate	test	ward_and_allport	89	13.0	0.43	to_board	poldrack-single-stim	s589	False
0.1	138.515	0.756	139.271	0	PA_with_intermediate	test	ward_and_allport	82	13.0	0.756	to_hand	poldrack-single-stim	s589	False
0.1	139.272	0.347	139.619	0	PA_with_intermediate	test	ward_and_allport	71	13.0	0.347	to_board	poldrack-single-stim	s589	False
0.1	139.624	0.461	140.085	0	PA_with_intermediate	test	ward_and_allport	89	13.0	0.461	to_hand	poldrack-single-stim	s589	False
0.1	140.087	0.439	140.526	0	PA_with_intermediate	test	ward_and_allport	71	13.0	0.439	to_board	poldrack-single-stim	s589	False
1.0	140.532	3.36	140.531	0	PA_with_intermediate	test	ward_and_allport	-1	13.0	n/a	feedback	poldrack-single-stim	s589	False
1.821	143.897	1.821	145.718	1	PA_with_intermediate	test	ward_and_allport	89	14.0	1.821	to_hand	poldrack-single-stim	s589	False
0.1	145.719	0.818	146.537	0	PA_with_intermediate	test	ward_and_allport	82	14.0	0.818	to_board	poldrack-single-stim	s589	False
0.1	146.543	1.418	147.961	0	PA_with_intermediate	test	ward_and_allport	89	14.0	1.418	to_hand	poldrack-single-stim	s589	False
0.1	147.963	0.556	148.519	0	PA_with_intermediate	test	ward_and_allport	71	14.0	0.556	to_board	poldrack-single-stim	s589	False
0.1	148.525	1.232	149.757	0	PA_with_intermediate	test	ward_and_allport	82	14.0	1.232	to_hand	poldrack-single-stim	s589	False
0.1	149.759	0.43	150.189	0	PA_with_intermediate	test	ward_and_allport	89	14.0	0.43	to_board	poldrack-single-stim	s589	False
1.0	150.196	2.0	150.195	0	PA_with_intermediate	test	ward_and_allport	-1	14.0	n/a	feedback	poldrack-single-stim	s589	False
1.396	157.204	1.396	158.6	1	PA_without_intermediate	test	ward_and_allport	89	15.0	1.396	to_hand	poldrack-single-stim	s589	False
0.1	158.601	0.311	158.912	0	PA_without_intermediate	test	ward_and_allport	82	15.0	0.311	to_board	poldrack-single-stim	s589	False
0.1	158.918	0.852	159.77	0	PA_without_intermediate	test	ward_and_allport	89	15.0	0.852	to_hand	poldrack-single-stim	s589	False
0.1	159.77	0.245	160.015	0	PA_without_intermediate	test	ward_and_allport	71	15.0	0.245	to_board	poldrack-single-stim	s589	False
0.1	160.022	0.384	160.406	0	PA_without_intermediate	test	ward_and_allport	89	15.0	0.384	to_hand	poldrack-single-stim	s589	False
0.1	160.406	0.196	160.602	0	PA_without_intermediate	test	ward_and_allport	82	15.0	0.196	to_board	poldrack-single-stim	s589	False
1.0	160.612	2.408	160.611	0	PA_without_intermediate	test	ward_and_allport	-1	15.0	n/a	feedback	poldrack-single-stim	s589	False
1.863	163.026	1.863	164.889	1	PA_with_intermediate	test	ward_and_allport	82	16.0	1.863	to_hand	poldrack-single-stim	s589	False
0.1	164.89	0.274	165.164	0	PA_with_intermediate	test	ward_and_allport	89	16.0	0.274	to_board	poldrack-single-stim	s589	False
0.1	165.169	0.697	165.866	0	PA_with_intermediate	test	ward_and_allport	82	16.0	0.697	to_hand	poldrack-single-stim	s589	False
0.1	165.868	0.475	166.343	0	PA_with_intermediate	test	ward_and_allport	71	16.0	0.475	to_board	poldrack-single-stim	s589	False
0.1	166.348	0.548	166.896	0	PA_with_intermediate	test	ward_and_allport	89	16.0	0.548	to_hand	poldrack-single-stim	s589	False
0.1	166.897	0.25	167.147	0	PA_with_intermediate	test	ward_and_allport	71	16.0	0.25	to_board	poldrack-single-stim	s589	False
1.0	167.155	2.816	167.154	0	PA_with_intermediate	test	ward_and_allport	-1	16.0	n/a	feedback	poldrack-single-stim	s589	False
1.411	169.977	1.411	171.388	1	PA_without_intermediate	test	ward_and_allport	82	17.0	1.411	to_hand	poldrack-single-stim	s589	False
0.1	171.389	0.414	171.803	0	PA_without_intermediate	test	ward_and_allport	71	17.0	0.414	to_board	poldrack-single-stim	s589	False
0.1	171.809	1.072	172.881	0	PA_without_intermediate	test	ward_and_allport	71	17.0	1.072	to_hand	poldrack-single-stim	s589	False
0.1	172.882	0.698	173.58	0	PA_without_intermediate	test	ward_and_allport	71	17.0	0.698	to_board	poldrack-single-stim	s589	False
0.1	173.586	0.401	173.987	0	PA_without_intermediate	test	ward_and_allport	82	17.0	0.401	to_hand	poldrack-single-stim	s589	False
0.1	173.989	0.322	174.311	0	PA_without_intermediate	test	ward_and_allport	89	17.0	0.322	to_board	poldrack-single-stim	s589	False
0.1	174.317	0.819	175.136	0	PA_without_intermediate	test	ward_and_allport	82	17.0	0.819	to_hand	poldrack-single-stim	s589	False
0.1	175.138	0.215	175.353	0	PA_without_intermediate	test	ward_and_allport	71	17.0	0.215	to_board	poldrack-single-stim	s589	False
1.0	175.36	3.088	175.359	0	PA_without_intermediate	test	ward_and_allport	-1	17.0	n/a	feedback	poldrack-single-stim	s589	False
1.883	178.454	1.883	180.337	1	PA_without_intermediate	test	ward_and_allport	71	18.0	1.883	to_hand	poldrack-single-stim	s589	False
0.1	180.338	0.244	180.582	0	PA_without_intermediate	test	ward_and_allport	82	18.0	0.244	to_board	poldrack-single-stim	s589	False
0.1	180.589	0.56	181.149	0	PA_without_intermediate	test	ward_and_allport	71	18.0	0.56	to_hand	poldrack-single-stim	s589	False
0.1	181.151	0.174	181.325	0	PA_without_intermediate	test	ward_and_allport	82	18.0	0.174	to_board	poldrack-single-stim	s589	False
0.1	181.33	0.502	181.832	0	PA_without_intermediate	test	ward_and_allport	71	18.0	0.502	to_hand	poldrack-single-stim	s589	False
0.1	181.833	0.349	182.182	0	PA_without_intermediate	test	ward_and_allport	89	18.0	0.349	to_board	poldrack-single-stim	s589	False
1.0	182.189	2.136	182.188	0	PA_without_intermediate	test	ward_and_allport	-1	18.0	n/a	feedback	poldrack-single-stim	s589	False
1.952	184.331	1.952	186.283	1	PA_without_intermediate	test	ward_and_allport	82	19.0	1.952	to_hand	poldrack-single-stim	s589	False
0.1	186.284	0.176	186.46	0	PA_without_intermediate	test	ward_and_allport	71	19.0	0.176	to_board	poldrack-single-stim	s589	False
0.1	186.466	0.653	187.119	0	PA_without_intermediate	test	ward_and_allport	82	19.0	0.653	to_hand	poldrack-single-stim	s589	False
0.1	187.12	0.236	187.356	0	PA_without_intermediate	test	ward_and_allport	71	19.0	0.236	to_board	poldrack-single-stim	s589	False
0.1	187.362	0.506	187.868	0	PA_without_intermediate	test	ward_and_allport	82	19.0	0.506	to_hand	poldrack-single-stim	s589	False
0.1	187.869	0.193	188.062	0	PA_without_intermediate	test	ward_and_allport	89	19.0	0.193	to_board	poldrack-single-stim	s589	False
1.0	188.07	7.168	188.069	0	PA_without_intermediate	test	ward_and_allport	-1	19.0	n/a	feedback	poldrack-single-stim	s589	False
1.335	195.244	1.335	196.579	1	PA_without_intermediate	test	ward_and_allport	82	20.0	1.335	to_hand	poldrack-single-stim	s589	False
0.1	196.58	0.288	196.868	0	PA_without_intermediate	test	ward_and_allport	71	20.0	0.288	to_board	poldrack-single-stim	s589	False
0.1	196.874	1.188	198.062	0	PA_without_intermediate	test	ward_and_allport	82	20.0	1.188	to_hand	poldrack-single-stim	s589	False
0.1	198.063	0.236	198.299	0	PA_without_intermediate	test	ward_and_allport	89	20.0	0.236	to_board	poldrack-single-stim	s589	False
0.1	198.305	1.013	199.318	0	PA_without_intermediate	test	ward_and_allport	82	20.0	1.013	to_hand	poldrack-single-stim	s589	False
0.1	199.319	0.238	199.557	0	PA_without_intermediate	test	ward_and_allport	71	20.0	0.238	to_board	poldrack-single-stim	s589	False
1.0	199.569	2.816	199.568	0	PA_without_intermediate	test	ward_and_allport	-1	20.0	n/a	feedback	poldrack-single-stim	s589	False
1.878	202.392	1.878	204.27	1	PA_with_intermediate	test	ward_and_allport	71	21.0	1.878	to_hand	poldrack-single-stim	s589	False
0.1	204.272	0.183	204.455	0	PA_with_intermediate	test	ward_and_allport	82	21.0	0.183	to_board	poldrack-single-stim	s589	False
0.1	204.463	0.467	204.93	0	PA_with_intermediate	test	ward_and_allport	71	21.0	0.467	to_hand	poldrack-single-stim	s589	False
0.1	204.932	0.146	205.078	0	PA_with_intermediate	test	ward_and_allport	89	21.0	0.146	to_board	poldrack-single-stim	s589	False
0.1	205.086	1.025	206.111	0	PA_with_intermediate	test	ward_and_allport	82	21.0	1.025	to_hand	poldrack-single-stim	s589	False
0.1	206.113	0.103	206.216	0	PA_with_intermediate	test	ward_and_allport	71	21.0	0.103	to_board	poldrack-single-stim	s589	False
0.1	206.224	0.047	206.271	0	PA_with_intermediate	test	ward_and_allport	89	21.0	0.047	to_hand	poldrack-single-stim	s589	False
0.1	206.273	1.302	207.575	0	PA_with_intermediate	test	ward_and_allport	89	21.0	1.302	to_board	poldrack-single-stim	s589	False
0.1	207.583	0.676	208.259	0	PA_with_intermediate	test	ward_and_allport	71	21.0	0.676	to_hand	poldrack-single-stim	s589	False
0.1	208.261	0.147	208.408	0	PA_with_intermediate	test	ward_and_allport	89	21.0	0.147	to_board	poldrack-single-stim	s589	False
1.0	208.42	2.952	208.419	0	PA_with_intermediate	test	ward_and_allport	-1	21.0	n/a	feedback	poldrack-single-stim	s589	False
1.761	211.379	1.761	213.14	1	PA_with_intermediate	test	ward_and_allport	89	22.0	1.761	to_hand	poldrack-single-stim	s589	False
0.1	213.142	0.247	213.389	0	PA_with_intermediate	test	ward_and_allport	71	22.0	0.247	to_board	poldrack-single-stim	s589	False
0.1	213.396	0.645	214.041	0	PA_with_intermediate	test	ward_and_allport	89	22.0	0.645	to_hand	poldrack-single-stim	s589	False
0.1	214.042	0.221	214.263	0	PA_with_intermediate	test	ward_and_allport	82	22.0	0.221	to_board	poldrack-single-stim	s589	False
0.1	214.27	0.675	214.945	0	PA_with_intermediate	test	ward_and_allport	71	22.0	0.675	to_hand	poldrack-single-stim	s589	False
0.1	214.946	0.19	215.136	0	PA_with_intermediate	test	ward_and_allport	82	22.0	0.19	to_board	poldrack-single-stim	s589	False
1.0	215.146	2.136	215.145	0	PA_with_intermediate	test	ward_and_allport	-1	22.0	n/a	feedback	poldrack-single-stim	s589	False
1.39	217.29	1.39	218.68	1	PA_without_intermediate	test	ward_and_allport	89	23.0	1.39	to_hand	poldrack-single-stim	s589	False
0.1	218.682	0.243	218.925	0	PA_without_intermediate	test	ward_and_allport	71	23.0	0.243	to_board	poldrack-single-stim	s589	False
0.1	218.933	0.949	219.882	0	PA_without_intermediate	test	ward_and_allport	89	23.0	0.949	to_hand	poldrack-single-stim	s589	False
0.1	219.883	0.162	220.045	0	PA_without_intermediate	test	ward_and_allport	82	23.0	0.162	to_board	poldrack-single-stim	s589	False
0.1	220.054	0.699	220.753	0	PA_without_intermediate	test	ward_and_allport	89	23.0	0.699	to_hand	poldrack-single-stim	s589	False
0.1	220.754	0.158	220.912	0	PA_without_intermediate	test	ward_and_allport	71	23.0	0.158	to_board	poldrack-single-stim	s589	False
1.0	220.924	2.68	220.923	0	PA_without_intermediate	test	ward_and_allport	-1	23.0	n/a	feedback	poldrack-single-stim	s589	False
2.212	223.613	2.212	225.825	1	PA_without_intermediate	test	ward_and_allport	82	24.0	2.212	to_hand	poldrack-single-stim	s589	False
0.1	225.826	0.276	226.102	0	PA_without_intermediate	test	ward_and_allport	89	24.0	0.276	to_board	poldrack-single-stim	s589	False
0.1	226.11	0.78	226.89	0	PA_without_intermediate	test	ward_and_allport	82	24.0	0.78	to_hand	poldrack-single-stim	s589	False
0.1	226.891	0.222	227.113	0	PA_without_intermediate	test	ward_and_allport	89	24.0	0.222	to_board	poldrack-single-stim	s589	False
0.1	227.121	0.786	227.907	0	PA_without_intermediate	test	ward_and_allport	82	24.0	0.786	to_hand	poldrack-single-stim	s589	False
0.1	227.909	0.21	228.119	0	PA_without_intermediate	test	ward_and_allport	71	24.0	0.21	to_board	poldrack-single-stim	s589	False
1.0	228.13	3.088	228.129	0	PA_without_intermediate	test	ward_and_allport	-1	24.0	n/a	feedback	poldrack-single-stim	s589	False
2.414	231.227	2.414	233.641	1	PA_with_intermediate	test	ward_and_allport	89	25.0	2.414	to_hand	poldrack-single-stim	s589	False
0.1	233.643	0.208	233.851	0	PA_with_intermediate	test	ward_and_allport	71	25.0	0.208	to_board	poldrack-single-stim	s589	False
0.1	233.861	0.422	234.283	0	PA_with_intermediate	test	ward_and_allport	89	25.0	0.422	to_hand	poldrack-single-stim	s589	False
0.1	234.285	0.168	234.453	0	PA_with_intermediate	test	ward_and_allport	82	25.0	0.168	to_board	poldrack-single-stim	s589	False
0.1	234.462	0.653	235.115	0	PA_with_intermediate	test	ward_and_allport	71	25.0	0.653	to_hand	poldrack-single-stim	s589	False
0.1	235.117	0.117	235.234	0	PA_with_intermediate	test	ward_and_allport	89	25.0	0.117	to_board	poldrack-single-stim	s589	False
1.0	235.245	2.0	235.244	0	PA_with_intermediate	test	ward_and_allport	-1	25.0	n/a	feedback	poldrack-single-stim	s589	False
1.361	237.253	1.361	238.614	1	PA_without_intermediate	test	ward_and_allport	89	26.0	1.361	to_hand	poldrack-single-stim	s589	False
0.1	238.615	0.146	238.761	0	PA_without_intermediate	test	ward_and_allport	71	26.0	0.146	to_board	poldrack-single-stim	s589	False
0.1	238.769	0.461	239.23	0	PA_without_intermediate	test	ward_and_allport	89	26.0	0.461	to_hand	poldrack-single-stim	s589	False
0.1	239.231	0.114	239.345	0	PA_without_intermediate	test	ward_and_allport	71	26.0	0.114	to_board	poldrack-single-stim	s589	False
0.1	239.352	0.375	239.727	0	PA_without_intermediate	test	ward_and_allport	89	26.0	0.375	to_hand	poldrack-single-stim	s589	False
0.1	239.728	0.12	239.848	0	PA_without_intermediate	test	ward_and_allport	82	26.0	0.12	to_board	poldrack-single-stim	s589	False
1.0	239.858	2.0	239.857	0	PA_without_intermediate	test	ward_and_allport	-1	26.0	n/a	feedback	poldrack-single-stim	s589	False
1.0	241.865	1.0	242.865	1	PA_without_intermediate	test	ward_and_allport	89	27.0	1.0	to_hand	poldrack-single-stim	s589	False
0.1	242.866	0.109	242.975	0	PA_without_intermediate	test	ward_and_allport	82	27.0	0.109	to_board	poldrack-single-stim	s589	False
0.1	242.982	0.417	243.399	0	PA_without_intermediate	test	ward_and_allport	89	27.0	0.417	to_hand	poldrack-single-stim	s589	False
0.1	243.4	0.124	243.524	0	PA_without_intermediate	test	ward_and_allport	82	27.0	0.124	to_board	poldrack-single-stim	s589	False
0.1	243.532	0.442	243.974	0	PA_without_intermediate	test	ward_and_allport	89	27.0	0.442	to_hand	poldrack-single-stim	s589	False
0.1	243.975	0.116	244.091	0	PA_without_intermediate	test	ward_and_allport	71	27.0	0.116	to_board	poldrack-single-stim	s589	False
1.0	244.099	2.0	244.098	0	PA_without_intermediate	test	ward_and_allport	-1	27.0	n/a	feedback	poldrack-single-stim	s589	False
1.589	246.107	1.589	247.696	1	PA_with_intermediate	test	ward_and_allport	89	28.0	1.589	to_hand	poldrack-single-stim	s589	False
0.1	247.697	0.16	247.857	0	PA_with_intermediate	test	ward_and_allport	82	28.0	0.16	to_board	poldrack-single-stim	s589	False
0.1	247.862	0.491	248.353	0	PA_with_intermediate	test	ward_and_allport	89	28.0	0.491	to_hand	poldrack-single-stim	s589	False
0.1	248.355	0.213	248.568	0	PA_with_intermediate	test	ward_and_allport	71	28.0	0.213	to_board	poldrack-single-stim	s589	False
0.1	248.575	0.54	249.115	0	PA_with_intermediate	test	ward_and_allport	82	28.0	0.54	to_hand	poldrack-single-stim	s589	False
0.1	249.116	0.121	249.237	0	PA_with_intermediate	test	ward_and_allport	89	28.0	0.121	to_board	poldrack-single-stim	s589	False
1.0	249.247	2.544	249.246	0	PA_with_intermediate	test	ward_and_allport	-1	28.0	n/a	feedback	poldrack-single-stim	s589	False
1.592	251.797	1.592	253.389	1	PA_without_intermediate	test	ward_and_allport	82	29.0	1.592	to_hand	poldrack-single-stim	s589	False
0.1	253.39	0.181	253.571	0	PA_without_intermediate	test	ward_and_allport	89	29.0	0.181	to_board	poldrack-single-stim	s589	False
0.1	253.579	1.011	254.59	0	PA_without_intermediate	test	ward_and_allport	82	29.0	1.011	to_hand	poldrack-single-stim	s589	False
0.1	254.591	0.155	254.746	0	PA_without_intermediate	test	ward_and_allport	89	29.0	0.155	to_board	poldrack-single-stim	s589	False
0.1	254.756	0.697	255.453	0	PA_without_intermediate	test	ward_and_allport	82	29.0	0.697	to_hand	poldrack-single-stim	s589	False
0.1	255.455	0.124	255.579	0	PA_without_intermediate	test	ward_and_allport	71	29.0	0.124	to_board	poldrack-single-stim	s589	False
1.0	255.592	2.272	255.591	0	PA_without_intermediate	test	ward_and_allport	-1	29.0	n/a	feedback	poldrack-single-stim	s589	False
1.645	262.877	1.645	264.522	1	PA_with_intermediate	test	ward_and_allport	71	30.0	1.645	to_hand	poldrack-single-stim	s589	False
0.1	264.523	0.139	264.662	0	PA_with_intermediate	test	ward_and_allport	82	30.0	0.139	to_board	poldrack-single-stim	s589	False
0.1	264.675	0.507	265.182	0	PA_with_intermediate	test	ward_and_allport	71	30.0	0.507	to_hand	poldrack-single-stim	s589	False
0.1	265.184	0.109	265.293	0	PA_with_intermediate	test	ward_and_allport	89	30.0	0.109	to_board	poldrack-single-stim	s589	False
0.1	265.303	0.478	265.781	0	PA_with_intermediate	test	ward_and_allport	82	30.0	0.478	to_hand	poldrack-single-stim	s589	False
0.1	265.782	0.419	266.201	0	PA_with_intermediate	test	ward_and_allport	71	30.0	0.419	to_board	poldrack-single-stim	s589	False
1.0	266.214	4.04	266.213	0	PA_with_intermediate	test	ward_and_allport	-1	30.0	n/a	feedback	poldrack-single-stim	s589	False
1.264	270.263	1.264	271.527	1	PA_with_intermediate	test	ward_and_allport	71	31.0	1.264	to_hand	poldrack-single-stim	s589	False
0.1	271.528	0.165	271.693	0	PA_with_intermediate	test	ward_and_allport	89	31.0	0.165	to_board	poldrack-single-stim	s589	False
0.1	271.702	1.251	272.953	0	PA_with_intermediate	test	ward_and_allport	71	31.0	1.251	to_hand	poldrack-single-stim	s589	False
0.1	272.953	0.314	273.267	0	PA_with_intermediate	test	ward_and_allport	82	31.0	0.314	to_board	poldrack-single-stim	s589	False
0.1	273.277	0.866	274.143	0	PA_with_intermediate	test	ward_and_allport	89	31.0	0.866	to_hand	poldrack-single-stim	s589	False
0.1	274.143	1.144	275.287	0	PA_with_intermediate	test	ward_and_allport	71	31.0	1.144	to_board	poldrack-single-stim	s589	False
0.1	275.299	0.472	275.771	0	PA_with_intermediate	test	ward_and_allport	82	31.0	0.472	to_hand	poldrack-single-stim	s589	False
0.1	275.772	0.31	276.082	0	PA_with_intermediate	test	ward_and_allport	89	31.0	0.31	to_board	poldrack-single-stim	s589	False
0.1	276.093	0.465	276.558	0	PA_with_intermediate	test	ward_and_allport	71	31.0	0.465	to_hand	poldrack-single-stim	s589	False
0.1	276.559	0.177	276.736	0	PA_with_intermediate	test	ward_and_allport	89	31.0	0.177	to_board	poldrack-single-stim	s589	False
1.0	276.747	2.272	276.746	0	PA_with_intermediate	test	ward_and_allport	-1	31.0	n/a	feedback	poldrack-single-stim	s589	False
1.881	279.027	1.881	280.908	1	PA_with_intermediate	test	ward_and_allport	89	32.0	1.881	to_hand	poldrack-single-stim	s589	False
0.1	280.91	0.186	281.096	0	PA_with_intermediate	test	ward_and_allport	82	32.0	0.186	to_board	poldrack-single-stim	s589	False
0.1	281.104	0.538	281.642	0	PA_with_intermediate	test	ward_and_allport	89	32.0	0.538	to_hand	poldrack-single-stim	s589	False
0.1	281.643	0.154	281.797	0	PA_with_intermediate	test	ward_and_allport	71	32.0	0.154	to_board	poldrack-single-stim	s589	False
0.1	281.804	0.679	282.483	0	PA_with_intermediate	test	ward_and_allport	82	32.0	0.679	to_hand	poldrack-single-stim	s589	False
0.1	282.484	0.212	282.696	0	PA_with_intermediate	test	ward_and_allport	71	32.0	0.212	to_board	poldrack-single-stim	s589	False
1.0	282.704	2.136	282.703	0	PA_with_intermediate	test	ward_and_allport	-1	32.0	n/a	feedback	poldrack-single-stim	s589	False
1.963	284.848	1.963	286.811	1	PA_with_intermediate	test	ward_and_allport	82	33.0	1.963	to_hand	poldrack-single-stim	s589	False
0.1	286.813	0.66	287.473	0	PA_with_intermediate	test	ward_and_allport	71	33.0	0.66	to_board	poldrack-single-stim	s589	False
0.1	287.48	0.535	288.015	0	PA_with_intermediate	test	ward_and_allport	82	33.0	0.535	to_hand	poldrack-single-stim	s589	False
0.1	288.017	0.202	288.219	0	PA_with_intermediate	test	ward_and_allport	89	33.0	0.202	to_board	poldrack-single-stim	s589	False
0.1	288.23	0.423	288.653	0	PA_with_intermediate	test	ward_and_allport	71	33.0	0.423	to_hand	poldrack-single-stim	s589	False
0.1	288.655	0.218	288.873	0	PA_with_intermediate	test	ward_and_allport	82	33.0	0.218	to_board	poldrack-single-stim	s589	False
1.0	288.887	2.0	288.886	0	PA_with_intermediate	test	ward_and_allport	-1	33.0	n/a	feedback	poldrack-single-stim	s589	False
2.521	290.895	2.521	293.416	1	PA_with_intermediate	test	ward_and_allport	71	34.0	2.521	to_hand	poldrack-single-stim	s589	False
0.1	293.418	0.168	293.586	0	PA_with_intermediate	test	ward_and_allport	89	34.0	0.168	to_board	poldrack-single-stim	s589	False
0.1	293.593	0.379	293.972	0	PA_with_intermediate	test	ward_and_allport	71	34.0	0.379	to_hand	poldrack-single-stim	s589	False
0.1	293.973	0.164	294.137	0	PA_with_intermediate	test	ward_and_allport	82	34.0	0.164	to_board	poldrack-single-stim	s589	False
0.1	294.144	0.332	294.476	0	PA_with_intermediate	test	ward_and_allport	89	34.0	0.332	to_hand	poldrack-single-stim	s589	False
0.1	294.477	0.102	294.579	0	PA_with_intermediate	test	ward_and_allport	71	34.0	0.102	to_board	poldrack-single-stim	s589	False
0.1	294.586	0.144	294.73	0	PA_with_intermediate	test	ward_and_allport	82	34.0	0.144	to_hand	poldrack-single-stim	s589	False
0.1	294.731	1.0	295.731	0	PA_with_intermediate	test	ward_and_allport	82	34.0	1.0	to_board	poldrack-single-stim	s589	False
0.1	295.738	0.558	296.296	0	PA_with_intermediate	test	ward_and_allport	71	34.0	0.558	to_hand	poldrack-single-stim	s589	False
0.1	296.297	0.163	296.46	0	PA_with_intermediate	test	ward_and_allport	82	34.0	0.163	to_board	poldrack-single-stim	s589	False
1.0	296.469	2.0	296.468	0	PA_with_intermediate	test	ward_and_allport	-1	34.0	n/a	feedback	poldrack-single-stim	s589	False
1.558	298.477	1.558	300.035	1	PA_without_intermediate	test	ward_and_allport	71	35.0	1.558	to_hand	poldrack-single-stim	s589	False
0.1	300.036	0.158	300.194	0	PA_without_intermediate	test	ward_and_allport	82	35.0	0.158	to_board	poldrack-single-stim	s589	False
0.1	300.203	0.94	301.143	0	PA_without_intermediate	test	ward_and_allport	71	35.0	0.94	to_hand	poldrack-single-stim	s589	False
0.1	301.144	0.121	301.265	0	PA_without_intermediate	test	ward_and_allport	89	35.0	0.121	to_board	poldrack-single-stim	s589	False
0.1	301.273	0.503	301.776	0	PA_without_intermediate	test	ward_and_allport	71	35.0	0.503	to_hand	poldrack-single-stim	s589	False
0.1	301.777	0.166	301.943	0	PA_without_intermediate	test	ward_and_allport	82	35.0	0.166	to_board	poldrack-single-stim	s589	False
1.0	301.956	2.408	301.955	0	PA_without_intermediate	test	ward_and_allport	-1	35.0	n/a	feedback	poldrack-single-stim	s589	False
1.701	304.372	1.701	306.073	1	PA_with_intermediate	test	ward_and_allport	82	36.0	1.701	to_hand	poldrack-single-stim	s589	False
0.1	306.075	0.376	306.451	0	PA_with_intermediate	test	ward_and_allport	71	36.0	0.376	to_board	poldrack-single-stim	s589	False
0.1	306.459	0.675	307.134	0	PA_with_intermediate	test	ward_and_allport	82	36.0	0.675	to_hand	poldrack-single-stim	s589	False
0.1	307.135	0.303	307.438	0	PA_with_intermediate	test	ward_and_allport	89	36.0	0.303	to_board	poldrack-single-stim	s589	False
0.1	307.448	0.492	307.94	0	PA_with_intermediate	test	ward_and_allport	71	36.0	0.492	to_hand	poldrack-single-stim	s589	False
0.1	307.942	0.165	308.107	0	PA_with_intermediate	test	ward_and_allport	89	36.0	0.165	to_board	poldrack-single-stim	s589	False
1.0	308.119	3.768	308.118	0	PA_with_intermediate	test	ward_and_allport	-1	36.0	n/a	feedback	poldrack-single-stim	s589	False
2.039	311.899	2.039	313.938	1	PA_with_intermediate	test	ward_and_allport	82	37.0	2.039	to_hand	poldrack-single-stim	s589	False
0.1	313.94	0.28	314.22	0	PA_with_intermediate	test	ward_and_allport	71	37.0	0.28	to_board	poldrack-single-stim	s589	False
0.1	314.228	0.729	314.957	0	PA_with_intermediate	test	ward_and_allport	82	37.0	0.729	to_hand	poldrack-single-stim	s589	False
0.1	314.958	0.145	315.103	0	PA_with_intermediate	test	ward_and_allport	89	37.0	0.145	to_board	poldrack-single-stim	s589	False
0.1	315.111	0.542	315.653	0	PA_with_intermediate	test	ward_and_allport	71	37.0	0.542	to_hand	poldrack-single-stim	s589	False
0.1	315.655	0.174	315.829	0	PA_with_intermediate	test	ward_and_allport	82	37.0	0.174	to_board	poldrack-single-stim	s589	False
1.0	315.841	2.68	315.84	0	PA_with_intermediate	test	ward_and_allport	-1	37.0	n/a	feedback	poldrack-single-stim	s589	False
1.424	318.529	1.424	319.953	1	PA_without_intermediate	test	ward_and_allport	89	38.0	1.424	to_hand	poldrack-single-stim	s589	False
0.1	319.955	0.118	320.073	0	PA_without_intermediate	test	ward_and_allport	71	38.0	0.118	to_board	poldrack-single-stim	s589	False
0.1	320.082	0.82	320.902	0	PA_without_intermediate	test	ward_and_allport	89	38.0	0.82	to_hand	poldrack-single-stim	s589	False
0.1	320.903	0.161	321.064	0	PA_without_intermediate	test	ward_and_allport	82	38.0	0.161	to_board	poldrack-single-stim	s589	False
0.1	321.074	0.528	321.602	0	PA_without_intermediate	test	ward_and_allport	89	38.0	0.528	to_hand	poldrack-single-stim	s589	False
0.1	321.604	0.137	321.741	0	PA_without_intermediate	test	ward_and_allport	71	38.0	0.137	to_board	poldrack-single-stim	s589	False
1.0	321.752	3.224	321.751	0	PA_without_intermediate	test	ward_and_allport	-1	38.0	n/a	feedback	poldrack-single-stim	s589	False
1.183	324.984	1.183	326.167	1	PA_without_intermediate	test	ward_and_allport	71	39.0	1.183	to_hand	poldrack-single-stim	s589	False
0.1	326.167	0.084	326.251	0	PA_without_intermediate	test	ward_and_allport	89	39.0	0.084	to_board	poldrack-single-stim	s589	False
0.1	326.26	0.699	326.959	0	PA_without_intermediate	test	ward_and_allport	71	39.0	0.699	to_hand	poldrack-single-stim	s589	False
0.1	326.96	0.155	327.115	0	PA_without_intermediate	test	ward_and_allport	82	39.0	0.155	to_board	poldrack-single-stim	s589	False
0.1	327.124	0.548	327.672	0	PA_without_intermediate	test	ward_and_allport	71	39.0	0.548	to_hand	poldrack-single-stim	s589	False
0.1	327.673	0.152	327.825	0	PA_without_intermediate	test	ward_and_allport	89	39.0	0.152	to_board	poldrack-single-stim	s589	False
1.0	327.837	3.36	327.836	0	PA_without_intermediate	test	ward_and_allport	-1	39.0	n/a	feedback	poldrack-single-stim	s589	False
1.441	331.209	1.441	332.65	1	PA_without_intermediate	test	ward_and_allport	82	40.0	1.441	to_hand	poldrack-single-stim	s589	False
0.1	332.652	0.205	332.857	0	PA_without_intermediate	test	ward_and_allport	71	40.0	0.205	to_board	poldrack-single-stim	s589	False
0.1	332.866	0.778	333.644	0	PA_without_intermediate	test	ward_and_allport	82	40.0	0.778	to_hand	poldrack-single-stim	s589	False
0.1	333.645	0.205	333.85	0	PA_without_intermediate	test	ward_and_allport	71	40.0	0.205	to_board	poldrack-single-stim	s589	False
0.1	333.86	1.028	334.888	0	PA_without_intermediate	test	ward_and_allport	82	40.0	1.028	to_hand	poldrack-single-stim	s589	False
0.1	334.889	0.147	335.036	0	PA_without_intermediate	test	ward_and_allport	89	40.0	0.147	to_board	poldrack-single-stim	s589	False
1.0	335.047	2.0	335.046	0	PA_without_intermediate	test	ward_and_allport	-1	40.0	n/a	feedback	poldrack-single-stim	s589	False
1.452	337.057	1.452	338.509	1	PA_without_intermediate	test	ward_and_allport	71	41.0	1.452	to_hand	poldrack-single-stim	s589	False
0.1	338.509	0.133	338.642	0	PA_without_intermediate	test	ward_and_allport	89	41.0	0.133	to_board	poldrack-single-stim	s589	False
0.1	338.651	0.508	339.159	0	PA_without_intermediate	test	ward_and_allport	71	41.0	0.508	to_hand	poldrack-single-stim	s589	False
0.1	339.16	0.147	339.307	0	PA_without_intermediate	test	ward_and_allport	89	41.0	0.147	to_board	poldrack-single-stim	s589	False
0.1	339.315	0.467	339.782	0	PA_without_intermediate	test	ward_and_allport	71	41.0	0.467	to_hand	poldrack-single-stim	s589	False
0.1	339.784	0.134	339.918	0	PA_without_intermediate	test	ward_and_allport	82	41.0	0.134	to_board	poldrack-single-stim	s589	False
1.0	339.928	2.408	339.927	0	PA_without_intermediate	test	ward_and_allport	-1	41.0	n/a	feedback	poldrack-single-stim	s589	False
1.688	342.344	1.688	344.032	1	PA_with_intermediate	test	ward_and_allport	82	42.0	1.688	to_hand	poldrack-single-stim	s589	False
0.1	344.034	0.161	344.195	0	PA_with_intermediate	test	ward_and_allport	71	42.0	0.161	to_board	poldrack-single-stim	s589	False
0.1	344.204	0.9	345.104	0	PA_with_intermediate	test	ward_and_allport	71	42.0	0.9	to_hand	poldrack-single-stim	s589	False
0.1	345.106	0.176	345.282	0	PA_with_intermediate	test	ward_and_allport	89	42.0	0.176	to_board	poldrack-single-stim	s589	False
0.1	345.296	0.717	346.013	0	PA_with_intermediate	test	ward_and_allport	82	42.0	0.717	to_hand	poldrack-single-stim	s589	False
0.1	346.015	0.228	346.243	0	PA_with_intermediate	test	ward_and_allport	89	42.0	0.228	to_board	poldrack-single-stim	s589	False
0.1	346.251	0.777	347.028	0	PA_with_intermediate	test	ward_and_allport	89	42.0	0.777	to_hand	poldrack-single-stim	s589	False
0.1	347.03	0.298	347.328	0	PA_with_intermediate	test	ward_and_allport	71	42.0	0.298	to_board	poldrack-single-stim	s589	False
0.1	347.336	0.466	347.802	0	PA_with_intermediate	test	ward_and_allport	89	42.0	0.466	to_hand	poldrack-single-stim	s589	False
0.1	347.804	0.174	347.978	0	PA_with_intermediate	test	ward_and_allport	82	42.0	0.174	to_board	poldrack-single-stim	s589	False
1.0	347.989	2.136	347.988	0	PA_with_intermediate	test	ward_and_allport	-1	42.0	n/a	feedback	poldrack-single-stim	s589	False
1.968	350.132	1.968	352.1	1	PA_without_intermediate	test	ward_and_allport	89	43.0	1.968	to_hand	poldrack-single-stim	s589	False
0.1	352.101	0.123	352.224	0	PA_without_intermediate	test	ward_and_allport	82	43.0	0.123	to_board	poldrack-single-stim	s589	False
0.1	352.232	0.642	352.874	0	PA_without_intermediate	test	ward_and_allport	89	43.0	0.642	to_hand	poldrack-single-stim	s589	False
0.1	352.876	0.156	353.032	0	PA_without_intermediate	test	ward_and_allport	82	43.0	0.156	to_board	poldrack-single-stim	s589	False
0.1	353.04	0.557	353.597	0	PA_without_intermediate	test	ward_and_allport	89	43.0	0.557	to_hand	poldrack-single-stim	s589	False
0.1	353.598	0.103	353.701	0	PA_without_intermediate	test	ward_and_allport	71	43.0	0.103	to_board	poldrack-single-stim	s589	False
1.0	353.713	5.128	353.712	0	PA_without_intermediate	test	ward_and_allport	-1	43.0	n/a	feedback	poldrack-single-stim	s589	False
1.652	358.852	1.652	360.504	1	PA_without_intermediate	test	ward_and_allport	82	44.0	1.652	to_hand	poldrack-single-stim	s589	False
0.1	360.505	0.159	360.664	0	PA_without_intermediate	test	ward_and_allport	89	44.0	0.159	to_board	poldrack-single-stim	s589	False
0.1	360.677	0.916	361.593	0	PA_without_intermediate	test	ward_and_allport	82	44.0	0.916	to_hand	poldrack-single-stim	s589	False
0.1	361.594	0.137	361.731	0	PA_without_intermediate	test	ward_and_allport	71	44.0	0.137	to_board	poldrack-single-stim	s589	False
0.1	361.746	0.655	362.401	0	PA_without_intermediate	test	ward_and_allport	82	44.0	0.655	to_hand	poldrack-single-stim	s589	False
0.1	362.403	0.126	362.529	0	PA_without_intermediate	test	ward_and_allport	89	44.0	0.126	to_board	poldrack-single-stim	s589	False
1.0	362.542	2.136	362.541	0	PA_without_intermediate	test	ward_and_allport	-1	44.0	n/a	feedback	poldrack-single-stim	s589	False
1.352	369.691	1.352	371.043	1	PA_without_intermediate	test	ward_and_allport	71	45.0	1.352	to_hand	poldrack-single-stim	s589	False
0.1	371.045	0.137	371.182	0	PA_without_intermediate	test	ward_and_allport	89	45.0	0.137	to_board	poldrack-single-stim	s589	False
0.1	371.194	0.604	371.798	0	PA_without_intermediate	test	ward_and_allport	71	45.0	0.604	to_hand	poldrack-single-stim	s589	False
0.1	371.8	0.11	371.91	0	PA_without_intermediate	test	ward_and_allport	89	45.0	0.11	to_board	poldrack-single-stim	s589	False
0.1	371.923	0.538	372.461	0	PA_without_intermediate	test	ward_and_allport	71	45.0	0.538	to_hand	poldrack-single-stim	s589	False
0.1	372.463	0.159	372.622	0	PA_without_intermediate	test	ward_and_allport	82	45.0	0.159	to_board	poldrack-single-stim	s589	False
1.0	372.637	5.264	372.636	0	PA_without_intermediate	test	ward_and_allport	-1	45.0	n/a	feedback	poldrack-single-stim	s589	False
1.587	377.913	1.587	379.5	1	PA_with_intermediate	test	ward_and_allport	71	46.0	1.587	to_hand	poldrack-single-stim	s589	False
0.1	379.501	0.194	379.695	0	PA_with_intermediate	test	ward_and_allport	82	46.0	0.194	to_board	poldrack-single-stim	s589	False
0.1	379.709	0.392	380.101	0	PA_with_intermediate	test	ward_and_allport	71	46.0	0.392	to_hand	poldrack-single-stim	s589	False
0.1	380.102	0.17	380.272	0	PA_with_intermediate	test	ward_and_allport	89	46.0	0.17	to_board	poldrack-single-stim	s589	False
0.1	380.286	0.563	380.849	0	PA_with_intermediate	test	ward_and_allport	82	46.0	0.563	to_hand	poldrack-single-stim	s589	False
0.1	380.85	0.094	380.944	0	PA_with_intermediate	test	ward_and_allport	71	46.0	0.094	to_board	poldrack-single-stim	s589	False
1.0	380.958	4.04	380.957	0	PA_with_intermediate	test	ward_and_allport	-1	46.0	n/a	feedback	poldrack-single-stim	s589	False
1.557	385.008	1.557	386.565	1	PA_with_intermediate	test	ward_and_allport	71	47.0	1.557	to_hand	poldrack-single-stim	s589	False
0.1	386.567	0.599	387.166	0	PA_with_intermediate	test	ward_and_allport	89	47.0	0.599	to_board	poldrack-single-stim	s589	False
0.1	387.177	0.299	387.476	0	PA_with_intermediate	test	ward_and_allport	71	47.0	0.299	to_hand	poldrack-single-stim	s589	False
0.1	387.478	0.605	388.083	0	PA_with_intermediate	test	ward_and_allport	82	47.0	0.605	to_board	poldrack-single-stim	s589	False
0.1	388.098	0.454	388.552	0	PA_with_intermediate	test	ward_and_allport	89	47.0	0.454	to_hand	poldrack-single-stim	s589	False
0.1	388.553	0.11	388.663	0	PA_with_intermediate	test	ward_and_allport	71	47.0	0.11	to_board	poldrack-single-stim	s589	False
1.0	388.677	2.136	388.676	0	PA_with_intermediate	test	ward_and_allport	-1	47.0	n/a	feedback	poldrack-single-stim	s589	False
