onset	duration	movement_onset	CTI	block_duration	correct	correct_response	cue	cue_switch	experiment_exp_id	key_press	response_time	stim_color	stim_number	switch_type	task	task_switch	trial_id	trial_type	worker_id	first_trial_of_block	junk
4.425	1.0	5.716	0.9	2.136	True	89.0	Orange-Blue	switch	twobytwo	89.0	0.391	blue	8.0	cue_switch	color	stay	stim	poldrack-single-stim	s590	1	False
7.469	1.0	8.816	0.9	2.272	True	89.0	High-Low	n/a	twobytwo	89.0	0.447	blue	6.0	task_switch	magnitude	switch	stim	poldrack-single-stim	s590	0	False
9.85	1.0	10.684	0.1	2.136	True	71.0	Color	n/a	twobytwo	71.0	0.734	orange	2.0	task_switch	color	switch	stim	poldrack-single-stim	s590	0	False
12.092	1.0	13.118	0.1	2.272	True	89.0	Color	stay	twobytwo	89.0	0.926	blue	4.0	cue_stay	color	stay	stim	poldrack-single-stim	s590	0	False
14.472	1.0	15.645	0.1	2.0	True	89.0	High-Low	n/a	twobytwo	89.0	1.073	orange	8.0	task_switch	magnitude	switch	stim	poldrack-single-stim	s590	0	False
17.384	1.0	18.752	0.9	2.816	True	89.0	High-Low	stay	twobytwo	89.0	0.468	orange	7.0	cue_stay	magnitude	stay	stim	poldrack-single-stim	s590	0	False
21.103	1.0	22.539	0.9	2.408	True	89.0	Magnitude	switch	twobytwo	89.0	0.536	orange	6.0	cue_switch	magnitude	stay	stim	poldrack-single-stim	s590	0	False
24.418	1.0	25.857	0.9	2.0	True	89.0	Magnitude	stay	twobytwo	89.0	0.539	blue	7.0	cue_stay	magnitude	stay	stim	poldrack-single-stim	s590	0	False
26.525	1.0	27.258	0.1	2.544	True	89.0	Magnitude	stay	twobytwo	89.0	0.633	blue	9.0	cue_stay	magnitude	stay	stim	poldrack-single-stim	s590	0	False
29.174	1.0	29.893	0.1	2.136	True	71.0	Color	n/a	twobytwo	71.0	0.619	orange	6.0	task_switch	color	switch	stim	poldrack-single-stim	s590	0	False
32.222	1.0	33.903	0.9	2.0	True	89.0	High-Low	n/a	twobytwo	89.0	0.781	blue	6.0	task_switch	magnitude	switch	stim	poldrack-single-stim	s590	0	False
35.128	1.0	36.689	0.9	2.0	True	71.0	High-Low	stay	twobytwo	71.0	0.661	blue	3.0	cue_stay	magnitude	stay	stim	poldrack-single-stim	s590	0	False
38.033	1.0	39.606	0.9	2.136	True	71.0	Magnitude	switch	twobytwo	71.0	0.673	orange	2.0	cue_switch	magnitude	stay	stim	poldrack-single-stim	s590	0	False
40.278	1.0	41.286	0.1	2.136	True	71.0	Magnitude	stay	twobytwo	71.0	0.908	blue	2.0	cue_stay	magnitude	stay	stim	poldrack-single-stim	s590	0	False
43.317	1.0	44.712	0.9	2.272	True	71.0	Orange-Blue	n/a	twobytwo	71.0	0.495	orange	3.0	task_switch	color	switch	stim	poldrack-single-stim	s590	0	False
45.696	1.0	46.94	0.1	3.224	True	71.0	Color	switch	twobytwo	71.0	1.144	orange	9.0	cue_switch	color	stay	stim	poldrack-single-stim	s590	0	False
49.023	1.0	50.046	0.1	2.0	True	89.0	Orange-Blue	switch	twobytwo	89.0	0.923	blue	3.0	cue_switch	color	stay	stim	poldrack-single-stim	s590	0	False
51.129	1.0	52.146	0.1	2.0	False	71.0	High-Low	n/a	twobytwo	89.0	0.917	orange	1.0	task_switch	magnitude	switch	stim	poldrack-single-stim	s590	0	False
54.041	1.0	55.623	0.9	2.272	True	89.0	Orange-Blue	n/a	twobytwo	89.0	0.682	blue	7.0	task_switch	color	switch	stim	poldrack-single-stim	s590	0	False
57.227	1.0	58.91	0.9	2.136	True	89.0	High-Low	n/a	twobytwo	89.0	0.783	blue	7.0	task_switch	magnitude	switch	stim	poldrack-single-stim	s590	0	False
60.27	1.0	61.677	0.9	2.0	True	71.0	Magnitude	switch	twobytwo	71.0	0.507	blue	2.0	cue_switch	magnitude	stay	stim	poldrack-single-stim	s590	0	False
63.178	1.0	64.851	0.9	2.0	True	71.0	Magnitude	stay	twobytwo	71.0	0.773	blue	4.0	cue_stay	magnitude	stay	stim	poldrack-single-stim	s590	0	False
66.084	1.0	67.599	0.9	2.0	True	89.0	Magnitude	stay	twobytwo	89.0	0.615	orange	6.0	cue_stay	magnitude	stay	stim	poldrack-single-stim	s590	0	False
68.988	1.0	70.545	0.9	2.68	True	89.0	Magnitude	stay	twobytwo	89.0	0.657	orange	7.0	cue_stay	magnitude	stay	stim	poldrack-single-stim	s590	0	False
72.575	1.0	74.065	0.9	2.0	False	89.0	Orange-Blue	n/a	twobytwo	71.0	0.59	blue	4.0	task_switch	color	switch	stim	poldrack-single-stim	s590	0	False
74.683	1.0	75.886	0.1	2.272	True	89.0	High-Low	n/a	twobytwo	89.0	1.103	blue	8.0	task_switch	magnitude	switch	stim	poldrack-single-stim	s590	0	False
77.861	1.0	79.176	0.9	2.0	True	71.0	Color	n/a	twobytwo	71.0	0.415	orange	7.0	task_switch	color	switch	stim	poldrack-single-stim	s590	0	False
79.967	1.0	80.733	0.1	2.272	True	89.0	Orange-Blue	switch	twobytwo	89.0	0.666	blue	3.0	cue_switch	color	stay	stim	poldrack-single-stim	s590	0	False
83.145	1.0	84.452	0.9	2.952	True	89.0	Color	switch	twobytwo	89.0	0.407	blue	4.0	cue_switch	color	stay	stim	poldrack-single-stim	s590	0	False
86.208	1.0	87.28	0.1	2.0	True	89.0	Magnitude	n/a	twobytwo	89.0	0.972	orange	6.0	task_switch	magnitude	switch	stim	poldrack-single-stim	s590	0	False
89.11	1.0	90.446	0.9	2.0	True	89.0	High-Low	switch	twobytwo	89.0	0.436	blue	9.0	cue_switch	magnitude	stay	stim	poldrack-single-stim	s590	0	False
92.016	1.0	93.743	0.9	2.0	True	71.0	Color	n/a	twobytwo	71.0	0.827	orange	9.0	task_switch	color	switch	stim	poldrack-single-stim	s590	0	False
94.123	1.0	95.175	0.1	2.0	True	89.0	Color	stay	twobytwo	89.0	0.952	blue	3.0	cue_stay	color	stay	stim	poldrack-single-stim	s590	0	False
96.227	1.0	97.433	0.1	2.136	True	71.0	Orange-Blue	switch	twobytwo	71.0	1.106	orange	8.0	cue_switch	color	stay	stim	poldrack-single-stim	s590	0	False
99.274	1.0	101.104	0.9	2.0	True	71.0	Magnitude	n/a	twobytwo	71.0	0.93	blue	4.0	task_switch	magnitude	switch	stim	poldrack-single-stim	s590	0	False
101.381	1.0	102.323	0.1	2.0	True	89.0	Color	n/a	twobytwo	89.0	0.842	blue	4.0	task_switch	color	switch	stim	poldrack-single-stim	s590	0	False
104.288	1.0	105.798	0.9	2.0	True	71.0	Orange-Blue	switch	twobytwo	71.0	0.61	orange	1.0	cue_switch	color	stay	stim	poldrack-single-stim	s590	0	False
106.395	1.0	107.609	0.1	2.272	False	71.0	High-Low	n/a	twobytwo	89.0	1.114	orange	4.0	task_switch	magnitude	switch	stim	poldrack-single-stim	s590	0	False
109.576	1.0	111.024	0.9	2.136	True	71.0	Orange-Blue	n/a	twobytwo	71.0	0.548	orange	3.0	task_switch	color	switch	stim	poldrack-single-stim	s590	0	False
112.618	1.0	114.153	0.9	2.0	True	71.0	High-Low	n/a	twobytwo	71.0	0.635	orange	4.0	task_switch	magnitude	switch	stim	poldrack-single-stim	s590	0	False
114.723	1.0	115.685	0.1	2.136	True	71.0	Orange-Blue	n/a	twobytwo	71.0	0.862	orange	2.0	task_switch	color	switch	stim	poldrack-single-stim	s590	0	False
116.966	1.0	117.889	0.1	2.816	True	89.0	High-Low	n/a	twobytwo	89.0	0.823	orange	8.0	task_switch	magnitude	switch	stim	poldrack-single-stim	s590	0	False
119.888	1.0	121.206	0.1	2.408	True	89.0	Magnitude	switch	twobytwo	89.0	1.218	blue	7.0	cue_switch	magnitude	stay	stim	poldrack-single-stim	s590	0	False
122.402	1.0	123.645	0.1	2.0	False	89.0	Orange-Blue	n/a	twobytwo	71.0	1.143	blue	1.0	task_switch	color	switch	stim	poldrack-single-stim	s590	0	False
124.508	1.0	125.328	0.1	2.136	True	89.0	Magnitude	n/a	twobytwo	89.0	0.72	blue	7.0	task_switch	magnitude	switch	stim	poldrack-single-stim	s590	0	False
127.55	1.0	129.002	0.9	2.136	True	71.0	Magnitude	stay	twobytwo	71.0	0.552	blue	3.0	cue_stay	magnitude	stay	stim	poldrack-single-stim	s590	0	False
129.789	1.0	130.756	0.1	2.136	True	71.0	High-Low	switch	twobytwo	71.0	0.867	blue	1.0	cue_switch	magnitude	stay	stim	poldrack-single-stim	s590	0	False
132.833	1.0	134.37	0.9	2.544	True	89.0	Orange-Blue	n/a	twobytwo	89.0	0.637	blue	6.0	task_switch	color	switch	stim	poldrack-single-stim	s590	0	False
136.287	1.0	137.723	0.9	2.136	True	89.0	High-Low	n/a	twobytwo	89.0	0.536	blue	9.0	task_switch	magnitude	switch	stim	poldrack-single-stim	s590	0	False
138.529	1.0	139.288	0.1	2.0	True	71.0	Color	n/a	twobytwo	71.0	0.659	orange	4.0	task_switch	color	switch	stim	poldrack-single-stim	s590	0	False
140.636	1.0	141.387	0.1	2.0	True	71.0	High-Low	n/a	twobytwo	71.0	0.651	orange	2.0	task_switch	magnitude	switch	stim	poldrack-single-stim	s590	0	False
143.54	1.0	144.921	0.9	2.0	True	89.0	High-Low	stay	twobytwo	89.0	0.481	blue	9.0	cue_stay	magnitude	stay	stim	poldrack-single-stim	s590	0	False
146.45	1.0	148.394	0.9	2.0	True	89.0	Orange-Blue	n/a	twobytwo	89.0	1.044	blue	8.0	task_switch	color	switch	stim	poldrack-single-stim	s590	0	False
149.354	1.0	151.045	0.9	2.136	True	71.0	Magnitude	n/a	twobytwo	71.0	0.791	blue	1.0	task_switch	magnitude	switch	stim	poldrack-single-stim	s590	0	False
151.597	1.0	152.763	0.1	2.0	True	71.0	High-Low	switch	twobytwo	71.0	1.066	orange	1.0	cue_switch	magnitude	stay	stim	poldrack-single-stim	s590	0	False
154.503	1.0	156.198	0.9	2.0	False	71.0	Magnitude	switch	twobytwo	89.0	0.795	orange	1.0	cue_switch	magnitude	stay	stim	poldrack-single-stim	s590	0	False
157.41	1.0	158.796	0.9	2.0	True	89.0	Magnitude	stay	twobytwo	89.0	0.486	orange	9.0	cue_stay	magnitude	stay	stim	poldrack-single-stim	s590	0	False
159.519	1.0	160.906	0.1	2.136	False	89.0	Color	n/a	twobytwo	71.0	1.287	blue	2.0	task_switch	color	switch	stim	poldrack-single-stim	s590	0	False
162.559	1.0	163.947	0.9	2.136	True	71.0	Magnitude	n/a	twobytwo	71.0	0.488	orange	3.0	task_switch	magnitude	switch	stim	poldrack-single-stim	s590	0	False
164.799	1.0	166.196	0.1	2.136	True	71.0	Magnitude	stay	twobytwo	71.0	1.297	orange	4.0	cue_stay	magnitude	stay	stim	poldrack-single-stim	s590	0	False
167.042	1.0	167.98	0.1	2.136	True	89.0	Color	n/a	twobytwo	89.0	0.838	blue	3.0	task_switch	color	switch	stim	poldrack-single-stim	s590	0	False
170.085	1.0	171.59	0.9	2.68	True	89.0	Color	stay	twobytwo	89.0	0.605	blue	3.0	cue_stay	color	stay	stim	poldrack-single-stim	s590	0	False
172.872	1.0	173.85	0.1	2.544	True	71.0	Orange-Blue	switch	twobytwo	71.0	0.878	orange	8.0	cue_switch	color	stay	stim	poldrack-single-stim	s590	0	False
175.519	1.0	176.391	0.1	2.272	True	71.0	Color	switch	twobytwo	71.0	0.772	orange	1.0	cue_switch	color	stay	stim	poldrack-single-stim	s590	0	False
178.701	1.0	180.165	0.9	2.272	True	71.0	Orange-Blue	switch	twobytwo	71.0	0.564	orange	4.0	cue_switch	color	stay	stim	poldrack-single-stim	s590	0	False
181.876	1.0	183.374	0.9	2.408	True	71.0	Magnitude	n/a	twobytwo	71.0	0.598	blue	1.0	task_switch	magnitude	switch	stim	poldrack-single-stim	s590	0	False
184.39	1.0	185.179	0.1	2.136	True	71.0	Magnitude	stay	twobytwo	71.0	0.689	orange	4.0	cue_stay	magnitude	stay	stim	poldrack-single-stim	s590	0	False
187.437	1.0	189.286	0.9	2.272	False	89.0	Orange-Blue	n/a	twobytwo	71.0	0.949	blue	8.0	task_switch	color	switch	stim	poldrack-single-stim	s590	0	False
190.616	1.0	192.767	0.9	2.0	False	89.0	Color	switch	twobytwo	71.0	1.251	blue	1.0	cue_switch	color	stay	stim	poldrack-single-stim	s590	0	False
193.521	1.0	195.434	0.9	2.136	False	89.0	Orange-Blue	switch	twobytwo	71.0	1.013	blue	7.0	cue_switch	color	stay	stim	poldrack-single-stim	s590	0	False
196.563	1.0	198.486	0.9	2.272	True	71.0	Orange-Blue	stay	twobytwo	71.0	1.023	orange	6.0	cue_stay	color	stay	stim	poldrack-single-stim	s590	0	False
199.741	1.0	201.41	0.9	2.0	True	89.0	High-Low	n/a	twobytwo	89.0	0.769	blue	7.0	task_switch	magnitude	switch	stim	poldrack-single-stim	s590	0	False
202.646	1.0	204.263	0.9	2.68	True	89.0	Color	n/a	twobytwo	89.0	0.717	blue	1.0	task_switch	color	switch	stim	poldrack-single-stim	s590	0	False
206.234	1.0	208.184	0.9	2.0	True	71.0	Orange-Blue	switch	twobytwo	71.0	1.05	orange	7.0	cue_switch	color	stay	stim	poldrack-single-stim	s590	0	False
208.339	1.0	209.705	0.1	2.0	True	71.0	Magnitude	n/a	twobytwo	71.0	1.266	orange	4.0	task_switch	magnitude	switch	stim	poldrack-single-stim	s590	0	False
211.247	1.0	212.708	0.9	2.0	True	89.0	Magnitude	stay	twobytwo	89.0	0.561	orange	7.0	cue_stay	magnitude	stay	stim	poldrack-single-stim	s590	0	False
213.353	1.0	214.867	0.1	2.272	True	89.0	Orange-Blue	n/a	twobytwo	89.0	1.414	blue	2.0	task_switch	color	switch	stim	poldrack-single-stim	s590	0	False
216.531	1.0	218.334	0.9	2.0	False	71.0	Magnitude	n/a	twobytwo	89.0	0.903	blue	4.0	task_switch	magnitude	switch	stim	poldrack-single-stim	s590	0	False
218.639	1.0	219.907	0.1	2.0	True	89.0	Color	n/a	twobytwo	89.0	1.168	blue	6.0	task_switch	color	switch	stim	poldrack-single-stim	s590	0	False
220.746	1.0	221.607	0.1	2.0	True	71.0	Magnitude	n/a	twobytwo	71.0	0.761	orange	1.0	task_switch	magnitude	switch	stim	poldrack-single-stim	s590	0	False
237.169	1.0	238.709	0.9	2.68	True	89.0	Orange-Blue	switch	twobytwo	89.0	0.64	blue	8.0	cue_switch	color	stay	stim	poldrack-single-stim	s590	1	False
240.756	1.0	242.532	0.9	2.0	True	89.0	Magnitude	n/a	twobytwo	89.0	0.876	blue	6.0	task_switch	magnitude	switch	stim	poldrack-single-stim	s590	0	False
242.861	1.0	244.098	0.1	2.136	True	71.0	Color	n/a	twobytwo	71.0	1.137	orange	2.0	task_switch	color	switch	stim	poldrack-single-stim	s590	0	False
245.101	1.0	245.983	0.1	2.408	True	89.0	Color	stay	twobytwo	89.0	0.782	blue	4.0	cue_stay	color	stay	stim	poldrack-single-stim	s590	0	False
247.612	1.0	248.554	0.1	2.136	True	89.0	Magnitude	n/a	twobytwo	89.0	0.842	orange	8.0	task_switch	magnitude	switch	stim	poldrack-single-stim	s590	0	False
250.655	1.0	252.061	0.9	2.0	True	89.0	Magnitude	stay	twobytwo	89.0	0.506	orange	7.0	cue_stay	magnitude	stay	stim	poldrack-single-stim	s590	0	False
253.562	1.0	254.893	0.9	2.0	True	89.0	High-Low	switch	twobytwo	89.0	0.431	orange	6.0	cue_switch	magnitude	stay	stim	poldrack-single-stim	s590	0	False
256.469	1.0	257.98	0.9	2.544	True	89.0	High-Low	stay	twobytwo	89.0	0.611	blue	7.0	cue_stay	magnitude	stay	stim	poldrack-single-stim	s590	0	False
259.117	1.0	259.94	0.1	2.136	True	89.0	High-Low	stay	twobytwo	89.0	0.723	blue	9.0	cue_stay	magnitude	stay	stim	poldrack-single-stim	s590	0	False
261.36	1.0	262.395	0.1	2.544	True	71.0	Color	n/a	twobytwo	71.0	0.935	orange	6.0	task_switch	color	switch	stim	poldrack-single-stim	s590	0	False
264.808	1.0	266.383	0.9	2.68	True	89.0	High-Low	n/a	twobytwo	89.0	0.675	blue	6.0	task_switch	magnitude	switch	stim	poldrack-single-stim	s590	0	False
268.395	1.0	269.728	0.9	2.0	True	71.0	High-Low	stay	twobytwo	71.0	0.433	blue	3.0	cue_stay	magnitude	stay	stim	poldrack-single-stim	s590	0	False
271.302	1.0	272.846	0.9	2.272	True	71.0	Magnitude	switch	twobytwo	71.0	0.644	orange	2.0	cue_switch	magnitude	stay	stim	poldrack-single-stim	s590	0	False
273.678	1.0	274.756	0.1	3.088	True	71.0	Magnitude	stay	twobytwo	71.0	0.978	blue	2.0	cue_stay	magnitude	stay	stim	poldrack-single-stim	s590	0	False
277.675	1.0	278.992	0.9	2.0	True	71.0	Orange-Blue	n/a	twobytwo	71.0	0.417	orange	3.0	task_switch	color	switch	stim	poldrack-single-stim	s590	0	False
279.779	1.0	280.468	0.1	2.136	True	71.0	Color	switch	twobytwo	71.0	0.589	orange	9.0	cue_switch	color	stay	stim	poldrack-single-stim	s590	0	False
282.025	1.0	283.248	0.1	2.136	False	89.0	Orange-Blue	switch	twobytwo	71.0	1.123	blue	3.0	cue_switch	color	stay	stim	poldrack-single-stim	s590	0	False
284.268	1.0	284.914	0.1	2.0	False	71.0	Magnitude	n/a	twobytwo	89.0	0.546	orange	1.0	task_switch	magnitude	switch	stim	poldrack-single-stim	s590	0	False
287.174	1.0	288.607	0.9	2.272	True	89.0	Orange-Blue	n/a	twobytwo	89.0	0.533	blue	7.0	task_switch	color	switch	stim	poldrack-single-stim	s590	0	False
290.353	1.0	291.901	0.9	2.0	True	89.0	High-Low	n/a	twobytwo	89.0	0.648	blue	7.0	task_switch	magnitude	switch	stim	poldrack-single-stim	s590	0	False
293.257	1.0	294.743	0.9	2.136	True	71.0	Magnitude	switch	twobytwo	71.0	0.586	blue	2.0	cue_switch	magnitude	stay	stim	poldrack-single-stim	s590	0	False
296.3	1.0	297.821	0.9	2.136	True	71.0	Magnitude	stay	twobytwo	71.0	0.621	blue	4.0	cue_stay	magnitude	stay	stim	poldrack-single-stim	s590	0	False
299.346	1.0	300.78	0.9	2.544	True	89.0	Magnitude	stay	twobytwo	89.0	0.534	orange	6.0	cue_stay	magnitude	stay	stim	poldrack-single-stim	s590	0	False
302.793	1.0	304.385	0.9	2.0	True	89.0	Magnitude	stay	twobytwo	89.0	0.692	orange	7.0	cue_stay	magnitude	stay	stim	poldrack-single-stim	s590	0	False
305.7	1.0	307.677	0.9	2.136	True	89.0	Orange-Blue	n/a	twobytwo	89.0	1.077	blue	4.0	task_switch	color	switch	stim	poldrack-single-stim	s590	0	False
307.944	1.0	308.877	0.1	2.136	True	89.0	High-Low	n/a	twobytwo	89.0	0.833	blue	8.0	task_switch	magnitude	switch	stim	poldrack-single-stim	s590	0	False
310.986	1.0	312.304	0.9	2.136	True	71.0	Orange-Blue	n/a	twobytwo	71.0	0.418	orange	7.0	task_switch	color	switch	stim	poldrack-single-stim	s590	0	False
313.231	1.0	314.842	0.1	2.0	True	89.0	Color	switch	twobytwo	89.0	1.511	blue	3.0	cue_switch	color	stay	stim	poldrack-single-stim	s590	0	False
316.134	1.0	317.62	0.9	2.136	True	89.0	Orange-Blue	switch	twobytwo	89.0	0.586	blue	4.0	cue_switch	color	stay	stim	poldrack-single-stim	s590	0	False
318.376	1.0	319.379	0.1	2.0	False	89.0	High-Low	n/a	twobytwo	71.0	0.903	orange	6.0	task_switch	magnitude	switch	stim	poldrack-single-stim	s590	0	False
321.28	1.0	322.729	0.9	2.136	True	89.0	Magnitude	switch	twobytwo	89.0	0.549	blue	9.0	cue_switch	magnitude	stay	stim	poldrack-single-stim	s590	0	False
324.319	1.0	325.689	0.9	2.816	True	71.0	Orange-Blue	n/a	twobytwo	71.0	0.47	orange	9.0	task_switch	color	switch	stim	poldrack-single-stim	s590	0	False
327.243	1.0	328.181	0.1	2.136	True	89.0	Orange-Blue	stay	twobytwo	89.0	0.838	blue	3.0	cue_stay	color	stay	stim	poldrack-single-stim	s590	0	False
329.485	1.0	330.455	0.1	2.0	True	71.0	Color	switch	twobytwo	71.0	0.87	orange	8.0	cue_switch	color	stay	stim	poldrack-single-stim	s590	0	False
332.392	1.0	333.806	0.9	2.0	True	71.0	Magnitude	n/a	twobytwo	71.0	0.514	blue	4.0	task_switch	magnitude	switch	stim	poldrack-single-stim	s590	0	False
334.497	1.0	336.053	0.1	2.272	True	89.0	Orange-Blue	n/a	twobytwo	89.0	1.456	blue	4.0	task_switch	color	switch	stim	poldrack-single-stim	s590	0	False
337.678	1.0	339.15	0.9	2.0	True	71.0	Color	switch	twobytwo	71.0	0.572	orange	1.0	cue_switch	color	stay	stim	poldrack-single-stim	s590	0	False
339.784	1.0	340.867	0.1	2.0	True	71.0	Magnitude	n/a	twobytwo	71.0	0.983	orange	4.0	task_switch	magnitude	switch	stim	poldrack-single-stim	s590	0	False
342.694	1.0	343.998	0.9	2.0	True	71.0	Orange-Blue	n/a	twobytwo	71.0	0.404	orange	3.0	task_switch	color	switch	stim	poldrack-single-stim	s590	0	False
345.601	1.0	346.963	0.9	2.408	True	71.0	Magnitude	n/a	twobytwo	71.0	0.462	orange	4.0	task_switch	magnitude	switch	stim	poldrack-single-stim	s590	0	False
348.115	1.0	348.882	0.1	2.272	True	71.0	Orange-Blue	n/a	twobytwo	71.0	0.667	orange	2.0	task_switch	color	switch	stim	poldrack-single-stim	s590	0	False
350.497	1.0	351.257	0.1	2.136	True	89.0	Magnitude	n/a	twobytwo	89.0	0.66	orange	8.0	task_switch	magnitude	switch	stim	poldrack-single-stim	s590	0	False
352.739	1.0	353.884	0.1	2.0	True	89.0	High-Low	switch	twobytwo	89.0	1.045	blue	7.0	cue_switch	magnitude	stay	stim	poldrack-single-stim	s590	0	False
354.846	1.0	355.835	0.1	2.0	True	89.0	Color	n/a	twobytwo	89.0	0.889	blue	1.0	task_switch	color	switch	stim	poldrack-single-stim	s590	0	False
356.95	1.0	357.933	0.1	2.136	True	89.0	Magnitude	n/a	twobytwo	89.0	0.883	blue	7.0	task_switch	magnitude	switch	stim	poldrack-single-stim	s590	0	False
359.993	1.0	361.769	0.9	2.0	False	71.0	Magnitude	stay	twobytwo	89.0	0.876	blue	3.0	cue_stay	magnitude	stay	stim	poldrack-single-stim	s590	0	False
362.098	1.0	363.087	0.1	2.136	True	71.0	High-Low	switch	twobytwo	71.0	0.889	blue	1.0	cue_switch	magnitude	stay	stim	poldrack-single-stim	s590	0	False
365.137	1.0	366.563	0.9	2.408	True	89.0	Color	n/a	twobytwo	89.0	0.526	blue	6.0	task_switch	color	switch	stim	poldrack-single-stim	s590	0	False
368.449	1.0	369.943	0.9	2.136	True	89.0	High-Low	n/a	twobytwo	89.0	0.594	blue	9.0	task_switch	magnitude	switch	stim	poldrack-single-stim	s590	0	False
370.692	1.0	372.139	0.1	2.0	True	71.0	Color	n/a	twobytwo	71.0	1.347	orange	4.0	task_switch	color	switch	stim	poldrack-single-stim	s590	0	False
372.801	1.0	373.709	0.1	2.136	True	71.0	High-Low	n/a	twobytwo	71.0	0.808	orange	2.0	task_switch	magnitude	switch	stim	poldrack-single-stim	s590	0	False
375.85	1.0	377.365	0.9	2.272	True	89.0	High-Low	stay	twobytwo	89.0	0.615	blue	9.0	cue_stay	magnitude	stay	stim	poldrack-single-stim	s590	0	False
379.028	1.0	380.773	0.9	2.0	True	89.0	Orange-Blue	n/a	twobytwo	89.0	0.845	blue	8.0	task_switch	color	switch	stim	poldrack-single-stim	s590	0	False
381.933	1.0	383.493	0.9	2.408	True	71.0	High-Low	n/a	twobytwo	71.0	0.66	blue	1.0	task_switch	magnitude	switch	stim	poldrack-single-stim	s590	0	False
384.447	1.0	385.332	0.1	2.0	True	71.0	Magnitude	switch	twobytwo	71.0	0.785	orange	1.0	cue_switch	magnitude	stay	stim	poldrack-single-stim	s590	0	False
387.351	1.0	389.63	0.9	2.136	True	71.0	High-Low	switch	twobytwo	71.0	1.379	orange	1.0	cue_switch	magnitude	stay	stim	poldrack-single-stim	s590	0	False
390.391	1.0	391.869	0.9	2.408	True	89.0	High-Low	stay	twobytwo	89.0	0.578	orange	9.0	cue_stay	magnitude	stay	stim	poldrack-single-stim	s590	0	False
392.907	1.0	394.124	0.1	2.136	True	89.0	Color	n/a	twobytwo	89.0	1.117	blue	2.0	task_switch	color	switch	stim	poldrack-single-stim	s590	0	False
395.949	1.0	397.668	0.9	2.408	True	71.0	High-Low	n/a	twobytwo	71.0	0.819	orange	3.0	task_switch	magnitude	switch	stim	poldrack-single-stim	s590	0	False
398.461	1.0	399.182	0.1	2.136	True	71.0	High-Low	stay	twobytwo	71.0	0.621	orange	4.0	cue_stay	magnitude	stay	stim	poldrack-single-stim	s590	0	False
400.704	1.0	401.654	0.1	2.0	True	89.0	Color	n/a	twobytwo	89.0	0.85	blue	3.0	task_switch	color	switch	stim	poldrack-single-stim	s590	0	False
403.611	1.0	404.979	0.9	2.272	True	89.0	Color	stay	twobytwo	89.0	0.468	blue	3.0	cue_stay	color	stay	stim	poldrack-single-stim	s590	0	False
405.989	1.0	407.033	0.1	2.0	True	71.0	Orange-Blue	switch	twobytwo	71.0	0.944	orange	8.0	cue_switch	color	stay	stim	poldrack-single-stim	s590	0	False
408.096	1.0	409.05	0.1	2.272	True	71.0	Color	switch	twobytwo	71.0	0.854	orange	1.0	cue_switch	color	stay	stim	poldrack-single-stim	s590	0	False
411.275	1.0	412.704	0.9	2.272	True	71.0	Orange-Blue	switch	twobytwo	71.0	0.529	orange	4.0	cue_switch	color	stay	stim	poldrack-single-stim	s590	0	False
414.451	1.0	415.975	0.9	2.952	True	71.0	High-Low	n/a	twobytwo	71.0	0.624	blue	1.0	task_switch	magnitude	switch	stim	poldrack-single-stim	s590	0	False
417.507	1.0	418.459	0.1	2.68	True	71.0	High-Low	stay	twobytwo	71.0	0.852	orange	4.0	cue_stay	magnitude	stay	stim	poldrack-single-stim	s590	0	False
421.091	1.0	422.517	0.9	2.136	True	89.0	Orange-Blue	n/a	twobytwo	89.0	0.526	blue	8.0	task_switch	color	switch	stim	poldrack-single-stim	s590	0	False
424.133	1.0	425.48	0.9	2.272	True	89.0	Color	switch	twobytwo	89.0	0.447	blue	1.0	cue_switch	color	stay	stim	poldrack-single-stim	s590	0	False
427.312	1.0	428.845	0.9	2.272	True	89.0	Orange-Blue	switch	twobytwo	89.0	0.633	blue	7.0	cue_switch	color	stay	stim	poldrack-single-stim	s590	0	False
430.491	1.0	431.887	0.9	2.136	True	71.0	Orange-Blue	stay	twobytwo	71.0	0.496	orange	6.0	cue_stay	color	stay	stim	poldrack-single-stim	s590	0	False
433.534	1.0	434.994	0.9	2.408	True	89.0	Magnitude	n/a	twobytwo	89.0	0.56	blue	7.0	task_switch	magnitude	switch	stim	poldrack-single-stim	s590	0	False
436.846	1.0	438.264	0.9	2.136	True	89.0	Orange-Blue	n/a	twobytwo	89.0	0.518	blue	1.0	task_switch	color	switch	stim	poldrack-single-stim	s590	0	False
439.886	1.0	441.376	0.9	2.136	True	71.0	Color	switch	twobytwo	71.0	0.59	orange	7.0	cue_switch	color	stay	stim	poldrack-single-stim	s590	0	False
442.129	1.0	442.898	0.1	2.0	True	71.0	Magnitude	n/a	twobytwo	71.0	0.669	orange	4.0	task_switch	magnitude	switch	stim	poldrack-single-stim	s590	0	False
445.035	1.0	446.393	0.9	2.0	True	89.0	Magnitude	stay	twobytwo	89.0	0.458	orange	7.0	cue_stay	magnitude	stay	stim	poldrack-single-stim	s590	0	False
447.14	1.0	448.441	0.1	2.0	True	89.0	Orange-Blue	n/a	twobytwo	89.0	1.201	blue	2.0	task_switch	color	switch	stim	poldrack-single-stim	s590	0	False
450.048	1.0	451.862	0.9	2.0	True	71.0	High-Low	n/a	twobytwo	71.0	0.914	blue	4.0	task_switch	magnitude	switch	stim	poldrack-single-stim	s590	0	False
452.151	1.0	453.31	0.1	2.0	True	89.0	Color	n/a	twobytwo	89.0	1.059	blue	6.0	task_switch	color	switch	stim	poldrack-single-stim	s590	0	False
454.258	1.0	455.285	0.1	2.272	True	71.0	Magnitude	n/a	twobytwo	71.0	0.927	orange	1.0	task_switch	magnitude	switch	stim	poldrack-single-stim	s590	0	False
470.954	1.0	472.388	0.9	2.408	True	89.0	High-Low	switch	twobytwo	89.0	0.534	blue	8.0	cue_switch	magnitude	stay	stim	poldrack-single-stim	s590	1	False
474.269	1.0	475.684	0.9	2.0	True	89.0	Color	n/a	twobytwo	89.0	0.515	blue	6.0	task_switch	color	switch	stim	poldrack-single-stim	s590	0	False
476.377	1.0	477.066	0.1	2.136	True	71.0	High-Low	n/a	twobytwo	71.0	0.589	orange	2.0	task_switch	magnitude	switch	stim	poldrack-single-stim	s590	0	False
478.618	1.0	479.451	0.1	2.0	True	71.0	High-Low	stay	twobytwo	71.0	0.733	blue	4.0	cue_stay	magnitude	stay	stim	poldrack-single-stim	s590	0	False
480.721	1.0	481.553	0.1	2.136	False	71.0	Color	n/a	twobytwo	89.0	0.732	orange	8.0	task_switch	color	switch	stim	poldrack-single-stim	s590	0	False
483.768	1.0	485.097	0.9	2.544	True	71.0	Color	stay	twobytwo	71.0	0.429	orange	7.0	cue_stay	color	stay	stim	poldrack-single-stim	s590	0	False
487.222	1.0	488.932	0.9	2.68	True	71.0	Orange-Blue	switch	twobytwo	71.0	0.81	orange	6.0	cue_switch	color	stay	stim	poldrack-single-stim	s590	0	False
490.809	1.0	492.607	0.9	3.088	False	89.0	Orange-Blue	stay	twobytwo	71.0	0.898	blue	7.0	cue_stay	color	stay	stim	poldrack-single-stim	s590	0	False
494.006	1.0	494.76	0.1	2.136	True	89.0	Orange-Blue	stay	twobytwo	89.0	0.654	blue	9.0	cue_stay	color	stay	stim	poldrack-single-stim	s590	0	False
496.249	1.0	497.472	0.1	2.544	False	89.0	Magnitude	n/a	twobytwo	71.0	1.123	orange	6.0	task_switch	magnitude	switch	stim	poldrack-single-stim	s590	0	False
499.7	1.0	501.62	0.9	2.0	True	89.0	Orange-Blue	n/a	twobytwo	89.0	1.02	blue	6.0	task_switch	color	switch	stim	poldrack-single-stim	s590	0	False
502.604	1.0	503.971	0.9	2.136	True	89.0	Orange-Blue	stay	twobytwo	89.0	0.467	blue	3.0	cue_stay	color	stay	stim	poldrack-single-stim	s590	0	False
505.646	1.0	507.376	0.9	2.0	True	71.0	Color	switch	twobytwo	71.0	0.83	orange	2.0	cue_switch	color	stay	stim	poldrack-single-stim	s590	0	False
507.751	1.0	508.832	0.1	2.408	True	89.0	Color	stay	twobytwo	89.0	0.981	blue	2.0	cue_stay	color	stay	stim	poldrack-single-stim	s590	0	False
511.067	1.0	512.575	0.9	2.0	True	71.0	High-Low	n/a	twobytwo	71.0	0.608	orange	3.0	task_switch	magnitude	switch	stim	poldrack-single-stim	s590	0	False
513.177	1.0	514.089	0.1	2.0	True	89.0	Magnitude	switch	twobytwo	89.0	0.812	orange	9.0	cue_switch	magnitude	stay	stim	poldrack-single-stim	s590	0	False
515.284	1.0	516.106	0.1	2.0	True	71.0	High-Low	switch	twobytwo	71.0	0.722	blue	3.0	cue_switch	magnitude	stay	stim	poldrack-single-stim	s590	0	False
517.391	1.0	518.716	0.1	2.68	False	71.0	Color	n/a	twobytwo	89.0	1.225	orange	1.0	task_switch	color	switch	stim	poldrack-single-stim	s590	0	False
520.98	1.0	522.508	0.9	2.272	True	89.0	High-Low	n/a	twobytwo	89.0	0.628	blue	7.0	task_switch	magnitude	switch	stim	poldrack-single-stim	s590	0	False
524.156	1.0	525.897	0.9	2.408	True	89.0	Orange-Blue	n/a	twobytwo	89.0	0.841	blue	7.0	task_switch	color	switch	stim	poldrack-single-stim	s590	0	False
527.469	1.0	528.948	0.9	3.224	True	89.0	Color	switch	twobytwo	89.0	0.579	blue	2.0	cue_switch	color	stay	stim	poldrack-single-stim	s590	0	False
531.597	1.0	533.669	0.9	2.408	True	89.0	Color	stay	twobytwo	89.0	1.172	blue	4.0	cue_stay	color	stay	stim	poldrack-single-stim	s590	0	False
534.916	1.0	536.412	0.9	2.816	True	71.0	Color	stay	twobytwo	71.0	0.596	orange	6.0	cue_stay	color	stay	stim	poldrack-single-stim	s590	0	False
538.637	1.0	540.359	0.9	2.408	True	71.0	Color	stay	twobytwo	71.0	0.822	orange	7.0	cue_stay	color	stay	stim	poldrack-single-stim	s590	0	False
541.951	1.0	543.606	0.9	2.136	True	71.0	Magnitude	n/a	twobytwo	71.0	0.755	blue	4.0	task_switch	magnitude	switch	stim	poldrack-single-stim	s590	0	False
544.194	1.0	545.362	0.1	2.136	True	89.0	Orange-Blue	n/a	twobytwo	89.0	1.068	blue	8.0	task_switch	color	switch	stim	poldrack-single-stim	s590	0	False
547.237	1.0	548.806	0.9	2.0	True	89.0	High-Low	n/a	twobytwo	89.0	0.669	orange	7.0	task_switch	magnitude	switch	stim	poldrack-single-stim	s590	0	False
549.344	1.0	550.32	0.1	2.0	True	71.0	Magnitude	switch	twobytwo	71.0	0.876	blue	3.0	cue_switch	magnitude	stay	stim	poldrack-single-stim	s590	0	False
552.248	1.0	553.757	0.9	2.272	True	71.0	High-Low	switch	twobytwo	71.0	0.609	blue	4.0	cue_switch	magnitude	stay	stim	poldrack-single-stim	s590	0	False
554.627	1.0	555.559	0.1	2.408	True	71.0	Orange-Blue	n/a	twobytwo	71.0	0.832	orange	6.0	task_switch	color	switch	stim	poldrack-single-stim	s590	0	False
557.942	1.0	559.206	0.9	2.0	True	89.0	Color	switch	twobytwo	89.0	0.364	blue	9.0	cue_switch	color	stay	stim	poldrack-single-stim	s590	0	False
560.849	1.0	562.799	0.9	2.136	False	89.0	High-Low	n/a	twobytwo	71.0	1.05	orange	9.0	task_switch	magnitude	switch	stim	poldrack-single-stim	s590	0	False
563.089	1.0	564.431	0.1	2.0	False	71.0	High-Low	stay	twobytwo	89.0	1.242	blue	3.0	cue_stay	magnitude	stay	stim	poldrack-single-stim	s590	0	False
565.198	1.0	566.273	0.1	2.408	True	89.0	Magnitude	switch	twobytwo	89.0	0.975	orange	8.0	cue_switch	magnitude	stay	stim	poldrack-single-stim	s590	0	False
568.512	1.0	569.791	0.9	2.272	True	89.0	Orange-Blue	n/a	twobytwo	89.0	0.379	blue	4.0	task_switch	color	switch	stim	poldrack-single-stim	s590	0	False
570.891	1.0	571.805	0.1	2.0	True	71.0	High-Low	n/a	twobytwo	71.0	0.814	blue	4.0	task_switch	magnitude	switch	stim	poldrack-single-stim	s590	0	False
573.804	1.0	575.499	0.9	2.272	False	71.0	Magnitude	switch	twobytwo	89.0	0.795	orange	1.0	cue_switch	magnitude	stay	stim	poldrack-single-stim	s590	0	False
576.179	1.0	577.236	0.1	2.0	True	71.0	Color	n/a	twobytwo	71.0	0.957	orange	4.0	task_switch	color	switch	stim	poldrack-single-stim	s590	0	False
579.089	1.0	580.629	0.9	2.0	True	71.0	High-Low	n/a	twobytwo	71.0	0.64	orange	3.0	task_switch	magnitude	switch	stim	poldrack-single-stim	s590	0	False
581.996	1.0	583.642	0.9	2.272	True	71.0	Orange-Blue	n/a	twobytwo	71.0	0.746	orange	4.0	task_switch	color	switch	stim	poldrack-single-stim	s590	0	False
584.372	1.0	585.274	0.1	2.136	True	71.0	High-Low	n/a	twobytwo	71.0	0.802	orange	2.0	task_switch	magnitude	switch	stim	poldrack-single-stim	s590	0	False
586.614	1.0	587.856	0.1	2.0	True	71.0	Orange-Blue	n/a	twobytwo	71.0	1.142	orange	8.0	task_switch	color	switch	stim	poldrack-single-stim	s590	0	False
588.721	1.0	589.621	0.1	2.0	False	89.0	Color	switch	twobytwo	71.0	0.8	blue	7.0	cue_switch	color	stay	stim	poldrack-single-stim	s590	0	False
590.828	1.0	591.996	0.1	2.0	True	71.0	Magnitude	n/a	twobytwo	71.0	1.068	blue	1.0	task_switch	magnitude	switch	stim	poldrack-single-stim	s590	0	False
592.934	1.0	594.078	0.1	2.0	True	89.0	Orange-Blue	n/a	twobytwo	89.0	1.044	blue	7.0	task_switch	color	switch	stim	poldrack-single-stim	s590	0	False
595.841	1.0	597.185	0.9	2.0	True	89.0	Orange-Blue	stay	twobytwo	89.0	0.444	blue	3.0	cue_stay	color	stay	stim	poldrack-single-stim	s590	0	False
597.947	1.0	599.505	0.1	2.136	True	89.0	Color	switch	twobytwo	89.0	1.458	blue	1.0	cue_switch	color	stay	stim	poldrack-single-stim	s590	0	False
600.99	1.0	602.559	0.9	2.0	True	89.0	Magnitude	n/a	twobytwo	89.0	0.669	blue	6.0	task_switch	magnitude	switch	stim	poldrack-single-stim	s590	0	False
603.895	1.0	605.338	0.9	2.0	True	89.0	Orange-Blue	n/a	twobytwo	89.0	0.543	blue	9.0	task_switch	color	switch	stim	poldrack-single-stim	s590	0	False
606.004	1.0	607.009	0.1	2.136	True	71.0	Magnitude	n/a	twobytwo	71.0	0.905	orange	4.0	task_switch	magnitude	switch	stim	poldrack-single-stim	s590	0	False
608.248	1.0	609.195	0.1	2.0	True	71.0	Color	n/a	twobytwo	71.0	0.847	orange	2.0	task_switch	color	switch	stim	poldrack-single-stim	s590	0	False
611.157	1.0	612.495	0.9	2.136	True	89.0	Color	stay	twobytwo	89.0	0.438	blue	9.0	cue_stay	color	stay	stim	poldrack-single-stim	s590	0	False
614.197	1.0	615.773	0.9	2.68	True	89.0	Magnitude	n/a	twobytwo	89.0	0.676	blue	8.0	task_switch	magnitude	switch	stim	poldrack-single-stim	s590	0	False
617.784	1.0	619.563	0.9	2.272	True	89.0	Orange-Blue	n/a	twobytwo	89.0	0.879	blue	1.0	task_switch	color	switch	stim	poldrack-single-stim	s590	0	False
620.159	1.0	621.029	0.1	2.136	True	71.0	Color	switch	twobytwo	71.0	0.77	orange	1.0	cue_switch	color	stay	stim	poldrack-single-stim	s590	0	False
623.202	1.0	624.856	0.9	2.0	True	71.0	Orange-Blue	switch	twobytwo	71.0	0.754	orange	1.0	cue_switch	color	stay	stim	poldrack-single-stim	s590	0	False
626.107	1.0	627.554	0.9	2.136	True	71.0	Orange-Blue	stay	twobytwo	71.0	0.547	orange	9.0	cue_stay	color	stay	stim	poldrack-single-stim	s590	0	False
628.347	1.0	628.346	0.1	2.68	False	71.0	High-Low	n/a	twobytwo	-1.0	n/a	blue	2.0	task_switch	magnitude	switch	stim	poldrack-single-stim	s590	0	False
631.937	1.0	633.476	0.9	2.272	True	71.0	Color	n/a	twobytwo	71.0	0.639	orange	3.0	task_switch	color	switch	stim	poldrack-single-stim	s590	0	False
634.318	1.0	635.176	0.1	2.0	True	71.0	Color	stay	twobytwo	71.0	0.758	orange	4.0	cue_stay	color	stay	stim	poldrack-single-stim	s590	0	False
636.423	1.0	637.342	0.1	2.0	False	71.0	Magnitude	n/a	twobytwo	89.0	0.819	blue	3.0	task_switch	magnitude	switch	stim	poldrack-single-stim	s590	0	False
639.328	1.0	640.908	0.9	2.136	True	71.0	Magnitude	stay	twobytwo	71.0	0.68	blue	3.0	cue_stay	magnitude	stay	stim	poldrack-single-stim	s590	0	False
641.571	1.0	641.57	0.1	2.0	False	89.0	High-Low	switch	twobytwo	-1.0	n/a	orange	8.0	cue_switch	magnitude	stay	stim	poldrack-single-stim	s590	0	False
643.678	1.0	644.945	0.1	2.0	True	71.0	Magnitude	switch	twobytwo	71.0	1.167	orange	1.0	cue_switch	magnitude	stay	stim	poldrack-single-stim	s590	0	False
646.59	1.0	648.05	0.9	2.0	True	71.0	High-Low	switch	twobytwo	71.0	0.56	orange	4.0	cue_switch	magnitude	stay	stim	poldrack-single-stim	s590	0	False
649.497	1.0	650.88	0.9	2.272	True	89.0	Color	n/a	twobytwo	89.0	0.483	blue	1.0	task_switch	color	switch	stim	poldrack-single-stim	s590	0	False
651.873	1.0	652.634	0.1	2.408	True	71.0	Color	stay	twobytwo	71.0	0.661	orange	4.0	cue_stay	color	stay	stim	poldrack-single-stim	s590	0	False
655.188	1.0	656.514	0.9	2.0	True	89.0	Magnitude	n/a	twobytwo	89.0	0.426	blue	8.0	task_switch	magnitude	switch	stim	poldrack-single-stim	s590	0	False
658.095	1.0	659.655	0.9	2.0	True	71.0	High-Low	switch	twobytwo	71.0	0.66	blue	1.0	cue_switch	magnitude	stay	stim	poldrack-single-stim	s590	0	False
661.002	1.0	662.423	0.9	2.0	False	89.0	Magnitude	switch	twobytwo	71.0	0.521	blue	7.0	cue_switch	magnitude	stay	stim	poldrack-single-stim	s590	0	False
663.911	1.0	665.774	0.9	2.272	False	89.0	Magnitude	stay	twobytwo	71.0	0.963	orange	6.0	cue_stay	magnitude	stay	stim	poldrack-single-stim	s590	0	False
667.09	1.0	668.826	0.9	2.136	True	89.0	Color	n/a	twobytwo	89.0	0.836	blue	7.0	task_switch	color	switch	stim	poldrack-single-stim	s590	0	False
670.132	1.0	671.587	0.9	2.0	True	71.0	Magnitude	n/a	twobytwo	71.0	0.555	blue	1.0	task_switch	magnitude	switch	stim	poldrack-single-stim	s590	0	False
673.039	1.0	675.006	0.9	2.544	True	89.0	High-Low	switch	twobytwo	89.0	1.067	orange	7.0	cue_switch	magnitude	stay	stim	poldrack-single-stim	s590	0	False
675.69	1.0	676.761	0.1	2.272	True	71.0	Color	n/a	twobytwo	71.0	0.971	orange	4.0	task_switch	color	switch	stim	poldrack-single-stim	s590	0	False
678.869	1.0	680.186	0.9	2.272	True	71.0	Color	stay	twobytwo	71.0	0.417	orange	7.0	cue_stay	color	stay	stim	poldrack-single-stim	s590	0	False
681.247	1.0	682.06	0.1	2.0	True	71.0	High-Low	n/a	twobytwo	71.0	0.713	blue	2.0	task_switch	magnitude	switch	stim	poldrack-single-stim	s590	0	False
684.15	1.0	685.868	0.9	2.0	True	89.0	Color	n/a	twobytwo	89.0	0.818	blue	4.0	task_switch	color	switch	stim	poldrack-single-stim	s590	0	False
686.258	1.0	687.082	0.1	2.136	True	89.0	High-Low	n/a	twobytwo	89.0	0.724	blue	6.0	task_switch	magnitude	switch	stim	poldrack-single-stim	s590	0	False
688.501	1.0	689.615	0.1	2.0	True	71.0	Orange-Blue	n/a	twobytwo	71.0	1.014	orange	1.0	task_switch	color	switch	stim	poldrack-single-stim	s590	0	False
