onset	duration	movement_onset	EV	action	block_duration	experiment_exp_id	gain_amount	gain_probability	key_press	loss_amount	loss_probability	num_cards	num_click_in_round	num_loss_cards	risk	response_time	total_cards	trial_id	trial_type	worker_id	junk	feedback
3.011	3.707	6.718	-1.2837767631114405	draw_card	3.707	columbia_card_task_fmri	12.0	0.8333333333333334	89.0	-70.0	0.1666666666666666	6.0	1.0	1.0	-1.4976398365512829	3.707	n/a	stim	poldrack-single-stim	s590	False	1
6.721	1.508	8.229	-4.017110096444773	draw_card	1.508	columbia_card_task_fmri	12.0	0.8	89.0	-70.0	0.2	6.0	2.0	1.0	0.7426006478785752	1.508	n/a	stim	poldrack-single-stim	s590	False	1
8.231	1.282	9.513	-8.117110096444774	draw_card	1.282	columbia_card_task_fmri	12.0	0.75	89.0	-70.0	0.25	6.0	3.0	1.0	3.449471836879127	1.282	n/a	stim	poldrack-single-stim	s590	False	1
9.515	2.216	11.731	-14.950443429778106	end_round	2.216	columbia_card_task_fmri	12.0	0.6666666666666667	71.0	-70.0	0.3333333333333333	6.0	4.0	1.0	6.5974328688906425	2.216	3.0	stim	poldrack-single-stim	s590	False	1
12.485	1.5	11.734	n/a	-1.0	2.454	columbia_card_task_fmri	n/a	n/a	-1.0	n/a	n/a	n/a	n/a	n/a	n/a	n/a	n/a	ITI	poldrack-single-stim	s590	False	0
14.191	4.058	18.249	-0.4504434297781066	draw_card	4.058	columbia_card_task_fmri	14.0	0.8333333333333334	89.0	-75.0	0.1666666666666666	6.0	1.0	1.0	1.1109174983878989	4.058	n/a	stim	poldrack-single-stim	s590	False	1
18.25	0.868	19.118	-3.417110096444773	draw_card	0.868	columbia_card_task_fmri	14.0	0.8	89.0	-75.0	0.2	6.0	2.0	1.0	3.5424248915228347	0.868	n/a	stim	poldrack-single-stim	s590	False	1
19.119	1.05	20.169	-7.867110096444774	draw_card	1.05	columbia_card_task_fmri	14.0	0.75	89.0	-75.0	0.25	6.0	3.0	1.0	6.480398391110725	1.05	n/a	stim	poldrack-single-stim	s590	False	1
20.172	1.747	21.919	-15.28377676311144	end_round	1.747	columbia_card_task_fmri	14.0	0.6666666666666667	71.0	-75.0	0.3333333333333333	6.0	4.0	1.0	9.897115376274158	1.747	3.0	stim	poldrack-single-stim	s590	False	1
22.675	1.5	21.924	n/a	-1.0	2.454	columbia_card_task_fmri	n/a	n/a	-1.0	n/a	n/a	n/a	n/a	n/a	n/a	n/a	n/a	ITI	poldrack-single-stim	s590	False	0
24.38	4.004	28.384	1.2162232368885595	draw_card	4.004	columbia_card_task_fmri	15.0	0.8333333333333334	89.0	-70.0	0.1666666666666666	6.0	1.0	1.0	-0.3796904970704808	4.004	1.0	stim	poldrack-single-stim	s590	False	0
29.137	1.5	28.386	n/a	-1.0	2.522	columbia_card_task_fmri	n/a	n/a	-1.0	n/a	n/a	n/a	n/a	n/a	n/a	n/a	n/a	ITI	poldrack-single-stim	s590	False	0
30.911	2.223	33.134	2.0495565702218936	draw_card	2.223	columbia_card_task_fmri	17.0	0.8333333333333334	89.0	-75.0	0.1666666666666666	6.0	1.0	1.0	2.2288794285910214	2.223	n/a	stim	poldrack-single-stim	s590	False	1
33.136	0.805	33.941	-1.017110096444773	draw_card	0.805	columbia_card_task_fmri	17.0	0.8	89.0	-75.0	0.2	6.0	2.0	1.0	4.74235775407908	0.805	n/a	stim	poldrack-single-stim	s590	False	1
33.943	1.002	34.945	-5.617110096444774	draw_card	1.002	columbia_card_task_fmri	17.0	0.75	89.0	-75.0	0.25	6.0	3.0	1.0	7.779374477109783	1.002	n/a	stim	poldrack-single-stim	s590	False	1
34.947	1.091	36.038	-13.28377676311144	draw_card	1.091	columbia_card_task_fmri	17.0	0.6666666666666667	89.0	-75.0	0.3333333333333333	6.0	4.0	1.0	11.31127196929802	1.091	n/a	stim	poldrack-single-stim	s590	False	1
36.042	1.582	37.624	-28.617110096444776	end_round	1.582	columbia_card_task_fmri	17.0	0.5	71.0	-75.0	0.5	6.0	5.0	1.0	13.941959398106924	1.582	4.0	stim	poldrack-single-stim	s590	False	1
38.376	1.5	37.625	n/a	-1.0	2.386	columbia_card_task_fmri	n/a	n/a	-1.0	n/a	n/a	n/a	n/a	n/a	n/a	n/a	n/a	ITI	poldrack-single-stim	s590	False	0
40.015	4.61	44.625	3.382889903555226	end_round	4.61	columbia_card_task_fmri	24.0	0.75	71.0	-60.0	0.25	8.0	1.0	2.0	4.315448091393172	4.61	0.0	stim	poldrack-single-stim	s590	False	1
45.381	1.5	44.63	n/a	-1.0	2.454	columbia_card_task_fmri	n/a	n/a	-1.0	n/a	n/a	n/a	n/a	n/a	n/a	n/a	n/a	ITI	poldrack-single-stim	s590	False	0
47.086	2.915	50.001	3.382889903555226	draw_card	2.915	columbia_card_task_fmri	29.0	0.75	89.0	-75.0	0.25	8.0	1.0	2.0	12.97531459955615	2.915	1.0	stim	poldrack-single-stim	s590	False	0
50.754	1.5	50.003	n/a	-1.0	2.522	columbia_card_task_fmri	n/a	n/a	-1.0	n/a	n/a	n/a	n/a	n/a	n/a	n/a	n/a	ITI	poldrack-single-stim	s590	False	0
52.527	2.561	55.088	-0.8393323186669941	end_round	2.561	columbia_card_task_fmri	17.0	0.7777777777777778	71.0	-65.0	0.2222222222222222	9.0	1.0	2.0	2.033172237295254	2.561	0.0	stim	poldrack-single-stim	s590	False	1
55.842	1.5	55.091	n/a	-1.0	2.522	columbia_card_task_fmri	n/a	n/a	-1.0	n/a	n/a	n/a	n/a	n/a	n/a	n/a	n/a	ITI	poldrack-single-stim	s590	False	0
57.617	5.419	63.036	3.482889903555225	draw_card	5.419	columbia_card_task_fmri	14.0	0.9	89.0	-95.0	0.1	10.0	1.0	1.0	0.6426074815126199	5.419	1.0	stim	poldrack-single-stim	s590	False	0
63.791	1.5	63.04	n/a	-1.0	2.59	columbia_card_task_fmri	n/a	n/a	-1.0	n/a	n/a	n/a	n/a	n/a	n/a	n/a	n/a	ITI	poldrack-single-stim	s590	False	0
65.633	2.209	67.842	-0.6171100964447744	end_round	2.209	columbia_card_task_fmri	15.0	0.8	71.0	-65.0	0.2	10.0	1.0	2.0	-0.0573434872895006	2.209	0.0	stim	poldrack-single-stim	s590	False	1
68.598	1.5	67.847	n/a	-1.0	2.454	columbia_card_task_fmri	n/a	n/a	-1.0	n/a	n/a	n/a	n/a	n/a	n/a	n/a	n/a	ITI	poldrack-single-stim	s590	False	0
70.304	1.462	71.766	0.982889903555227	end_round	1.462	columbia_card_task_fmri	17.0	0.8	71.0	-65.0	0.2	10.0	1.0	2.0	0.7426006478785752	1.462	0.0	stim	poldrack-single-stim	s590	False	1
72.521	1.5	71.77	n/a	-1.0	2.318	columbia_card_task_fmri	n/a	n/a	-1.0	n/a	n/a	n/a	n/a	n/a	n/a	n/a	n/a	ITI	poldrack-single-stim	s590	False	0
74.092	2.031	76.123	-0.4504434297781066	end_round	2.031	columbia_card_task_fmri	13.0	0.8333333333333334	71.0	-70.0	0.1666666666666666	12.0	1.0	2.0	-1.1249907365603242	2.031	0.0	stim	poldrack-single-stim	s590	False	1
76.878	1.5	76.127	n/a	-1.0	2.25	columbia_card_task_fmri	n/a	n/a	-1.0	n/a	n/a	n/a	n/a	n/a	n/a	n/a	n/a	ITI	poldrack-single-stim	s590	False	0
78.38	1.884	80.264	-0.4504434297781066	draw_card	1.884	columbia_card_task_fmri	15.0	0.8333333333333334	89.0	-80.0	0.1666666666666666	12.0	1.0	2.0	3.34684590944778	1.884	n/a	stim	poldrack-single-stim	s590	False	1
80.267	2.639	82.906	-1.8898373691720496	end_round	2.639	columbia_card_task_fmri	15.0	0.8181818181818181	71.0	-80.0	0.1818181818181818	12.0	2.0	2.0	4.583354150139471	2.639	1.0	stim	poldrack-single-stim	s590	False	1
83.659	1.5	82.908	n/a	-1.0	2.658	columbia_card_task_fmri	n/a	n/a	-1.0	n/a	n/a	n/a	n/a	n/a	n/a	n/a	n/a	ITI	poldrack-single-stim	s590	False	0
85.569	2.933	88.502	-1.4171100964447734	end_round	2.933	columbia_card_task_fmri	14.0	0.8	71.0	-65.0	0.2	15.0	1.0	3.0	-0.457314494263759	2.933	0.0	stim	poldrack-single-stim	s590	False	1
89.255	1.5	88.504	n/a	-1.0	2.454	columbia_card_task_fmri	n/a	n/a	-1.0	n/a	n/a	n/a	n/a	n/a	n/a	n/a	n/a	ITI	poldrack-single-stim	s590	False	0
90.961	2.164	93.125	-1.4921100964447744	end_round	2.164	columbia_card_task_fmri	1.0	0.9375	71.0	-45.0	0.0625	16.0	1.0	1.0	-20.918225768806156	2.164	0.0	stim	poldrack-single-stim	s590	False	1
93.878	1.5	93.127	n/a	-1.0	2.386	columbia_card_task_fmri	n/a	n/a	-1.0	n/a	n/a	n/a	n/a	n/a	n/a	n/a	n/a	ITI	poldrack-single-stim	s590	False	0
95.516	1.766	97.282	-0.5546100964447744	end_round	1.766	columbia_card_task_fmri	15.0	0.8125	71.0	-70.0	0.1875	16.0	1.0	3.0	1.119127151776247	1.766	0.0	stim	poldrack-single-stim	s590	False	1
98.037	1.5	97.286	n/a	-1.0	2.59	columbia_card_task_fmri	n/a	n/a	-1.0	n/a	n/a	n/a	n/a	n/a	n/a	n/a	n/a	ITI	poldrack-single-stim	s590	False	0
99.879	3.201	103.08	6.382889903555226	draw_card	3.201	columbia_card_task_fmri	30.0	0.7	89.0	-50.0	0.3	10.0	1.0	3.0	4.60297088694346	3.201	1.0	stim	poldrack-single-stim	s590	False	0
103.833	1.5	103.082	n/a	-1.0	2.318	columbia_card_task_fmri	n/a	n/a	-1.0	n/a	n/a	n/a	n/a	n/a	n/a	n/a	n/a	ITI	poldrack-single-stim	s590	False	0
105.403	3.641	109.044	5.782889903555226	end_round	3.641	columbia_card_task_fmri	17.0	0.8666666666666667	71.0	-70.0	0.1333333333333333	15.0	1.0	2.0	-2.482842447136587	3.641	0.0	stim	poldrack-single-stim	s590	False	1
109.797	1.5	109.046	n/a	-1.0	2.59	columbia_card_task_fmri	n/a	n/a	-1.0	n/a	n/a	n/a	n/a	n/a	n/a	n/a	n/a	ITI	poldrack-single-stim	s590	False	0
111.64	2.58	114.22	1.0078899035552256	end_round	2.58	columbia_card_task_fmri	7.0	0.9375	71.0	-95.0	0.0625	16.0	1.0	1.0	-7.366396574107672	2.58	0.0	stim	poldrack-single-stim	s590	False	1
114.975	1.5	114.224	n/a	-1.0	2.386	columbia_card_task_fmri	n/a	n/a	-1.0	n/a	n/a	n/a	n/a	n/a	n/a	n/a	n/a	ITI	poldrack-single-stim	s590	False	0
116.614	1.444	118.058	2.570389903555226	end_round	1.444	columbia_card_task_fmri	9.0	0.9375	71.0	-100.0	0.0625	16.0	1.0	1.0	-5.672156989662167	1.444	0.0	stim	poldrack-single-stim	s590	False	1
118.812	1.5	118.061	n/a	-1.0	2.318	columbia_card_task_fmri	n/a	n/a	-1.0	n/a	n/a	n/a	n/a	n/a	n/a	n/a	n/a	ITI	poldrack-single-stim	s590	False	0
120.383	3.544	123.927	3.507889903555226	end_round	3.544	columbia_card_task_fmri	15.0	0.875	71.0	-80.0	0.125	16.0	1.0	2.0	-0.63900426124059	3.544	0.0	stim	poldrack-single-stim	s590	False	1
124.683	1.5	123.932	n/a	-1.0	2.318	columbia_card_task_fmri	n/a	n/a	-1.0	n/a	n/a	n/a	n/a	n/a	n/a	n/a	n/a	ITI	poldrack-single-stim	s590	False	0
126.254	2.765	129.019	5.632889903555226	draw_card	2.765	columbia_card_task_fmri	16.0	0.875	89.0	-70.0	0.125	16.0	1.0	2.0	-3.615230353663538	2.765	n/a	stim	poldrack-single-stim	s590	False	1
129.022	1.304	130.326	4.916223236888559	draw_card	1.304	columbia_card_task_fmri	16.0	0.8666666666666667	89.0	-70.0	0.1333333333333333	16.0	2.0	2.0	-2.8227482643284176	1.304	n/a	stim	poldrack-single-stim	s590	False	1
130.329	0.963	131.292	4.097175617840941	draw_card	0.963	columbia_card_task_fmri	16.0	0.8571428571428572	89.0	-70.0	0.1428571428571428	16.0	3.0	2.0	-1.9634672753929256	0.963	n/a	stim	poldrack-single-stim	s590	False	1
131.295	1.819	133.114	3.152120672785994	end_round	1.819	columbia_card_task_fmri	16.0	0.8461538461538461	71.0	-70.0	0.1538461538461538	16.0	4.0	2.0	-1.0283675471299212	1.819	3.0	stim	poldrack-single-stim	s590	False	1
133.867	1.5	133.116	n/a	-1.0	2.318	columbia_card_task_fmri	n/a	n/a	-1.0	n/a	n/a	n/a	n/a	n/a	n/a	n/a	n/a	ITI	poldrack-single-stim	s590	False	0
135.437	1.246	136.683	6.945389903555226	end_round	1.246	columbia_card_task_fmri	30.0	0.6875	71.0	-45.0	0.3125	16.0	1.0	5.0	2.7059048457946844	1.246	0.0	stim	poldrack-single-stim	s590	False	1
137.437	1.5	136.686	n/a	-1.0	2.386	columbia_card_task_fmri	n/a	n/a	-1.0	n/a	n/a	n/a	n/a	n/a	n/a	n/a	n/a	ITI	poldrack-single-stim	s590	False	0
139.075	2.448	141.523	-1.2837767631114405	end_round	2.448	columbia_card_task_fmri	13.0	0.8333333333333334	71.0	-75.0	0.1666666666666666	6.0	1.0	1.0	0.7382646133401138	2.448	0.0	stim	poldrack-single-stim	s590	False	1
142.277	1.5	141.526	n/a	-1.0	2.25	columbia_card_task_fmri	n/a	n/a	-1.0	n/a	n/a	n/a	n/a	n/a	n/a	n/a	n/a	ITI	poldrack-single-stim	s590	False	0
143.779	1.983	145.762	0.3828899035552273	end_round	1.983	columbia_card_task_fmri	14.0	0.8333333333333334	71.0	-70.0	0.1666666666666666	6.0	1.0	1.0	-0.7523409486413257	1.983	0.0	stim	poldrack-single-stim	s590	False	1
146.514	1.5	145.763	n/a	-1.0	2.386	columbia_card_task_fmri	n/a	n/a	-1.0	n/a	n/a	n/a	n/a	n/a	n/a	n/a	n/a	ITI	poldrack-single-stim	s590	False	0
148.153	2.465	150.618	0.3828899035552273	end_round	2.465	columbia_card_task_fmri	16.0	0.8333333333333334	71.0	-80.0	0.1666666666666666	6.0	1.0	1.0	3.719502340594346	2.465	0.0	stim	poldrack-single-stim	s590	False	1
151.371	1.5	150.62	n/a	-1.0	2.59	columbia_card_task_fmri	n/a	n/a	-1.0	n/a	n/a	n/a	n/a	n/a	n/a	n/a	n/a	ITI	poldrack-single-stim	s590	False	0
153.214	2.204	155.418	2.882889903555228	draw_card	2.204	columbia_card_task_fmri	17.0	0.8333333333333334	89.0	-70.0	0.1666666666666666	6.0	1.0	1.0	0.3656123055016635	2.204	n/a	stim	poldrack-single-stim	s590	False	1
155.421	1.059	156.48	-0.017110096444773	draw_card	1.059	columbia_card_task_fmri	17.0	0.8	89.0	-70.0	0.2	6.0	2.0	1.0	2.7424722219069797	1.059	n/a	stim	poldrack-single-stim	s590	False	1
156.483	2.242	158.725	-4.367110096444774	draw_card	2.242	columbia_card_task_fmri	17.0	0.75	89.0	-70.0	0.25	6.0	3.0	1.0	5.614416709831509	2.242	n/a	stim	poldrack-single-stim	s590	False	1
158.727	1.236	159.963	-11.617110096444772	end_round	1.236	columbia_card_task_fmri	17.0	0.6666666666666667	71.0	-70.0	0.3333333333333333	6.0	4.0	1.0	8.95434649685292	1.236	3.0	stim	poldrack-single-stim	s590	False	1
160.718	1.5	159.967	n/a	-1.0	2.658	columbia_card_task_fmri	n/a	n/a	-1.0	n/a	n/a	n/a	n/a	n/a	n/a	n/a	n/a	ITI	poldrack-single-stim	s590	False	0
162.628	3.466	166.094	2.882889903555226	end_round	3.466	columbia_card_task_fmri	25.0	0.75	71.0	-65.0	0.25	8.0	1.0	2.0	6.913389960405198	3.466	0.0	stim	poldrack-single-stim	s590	False	1
166.85	1.5	166.099	n/a	-1.0	2.386	columbia_card_task_fmri	n/a	n/a	-1.0	n/a	n/a	n/a	n/a	n/a	n/a	n/a	n/a	ITI	poldrack-single-stim	s590	False	0
168.489	5.045	173.534	2.882889903555226	end_round	5.045	columbia_card_task_fmri	30.0	0.75	71.0	-80.0	0.25	8.0	1.0	2.0	15.573302029887763	5.045	0.0	stim	poldrack-single-stim	s590	False	1
174.286	1.5	173.535	n/a	-1.0	2.386	columbia_card_task_fmri	n/a	n/a	-1.0	n/a	n/a	n/a	n/a	n/a	n/a	n/a	n/a	ITI	poldrack-single-stim	s590	False	0
175.925	1.419	177.344	2.582889903555227	end_round	1.419	columbia_card_task_fmri	13.0	0.9	71.0	-95.0	0.1	10.0	1.0	1.0	0.3426282354860106	1.419	0.0	stim	poldrack-single-stim	s590	False	1
178.097	1.5	177.346	n/a	-1.0	2.25	columbia_card_task_fmri	n/a	n/a	-1.0	n/a	n/a	n/a	n/a	n/a	n/a	n/a	n/a	ITI	poldrack-single-stim	s590	False	0
179.599	1.251	180.85	3.9828899035552254	end_round	1.251	columbia_card_task_fmri	14.0	0.9	71.0	-90.0	0.1	10.0	1.0	1.0	-0.8572847579100049	1.251	0.0	stim	poldrack-single-stim	s590	False	1
181.603	1.5	180.852	n/a	-1.0	2.318	columbia_card_task_fmri	n/a	n/a	-1.0	n/a	n/a	n/a	n/a	n/a	n/a	n/a	n/a	ITI	poldrack-single-stim	s590	False	0
183.173	1.273	184.446	-0.8171100964447737	end_round	1.273	columbia_card_task_fmri	16.0	0.8	71.0	-70.0	0.2	10.0	1.0	2.0	2.342496712553462	1.273	0.0	stim	poldrack-single-stim	s590	False	1
185.201	1.5	184.45	n/a	-1.0	2.25	columbia_card_task_fmri	n/a	n/a	-1.0	n/a	n/a	n/a	n/a	n/a	n/a	n/a	n/a	ITI	poldrack-single-stim	s590	False	0
186.704	1.498	188.202	-1.5337767631114405	end_round	1.498	columbia_card_task_fmri	7.0	0.9166666666666666	71.0	-100.0	0.0833333333333333	12.0	1.0	1.0	-2.483917821847296	1.498	0.0	stim	poldrack-single-stim	s590	False	1
188.955	1.5	188.204	n/a	-1.0	2.25	columbia_card_task_fmri	n/a	n/a	-1.0	n/a	n/a	n/a	n/a	n/a	n/a	n/a	n/a	ITI	poldrack-single-stim	s590	False	0
190.457	1.913	192.37	-1.2837767631114387	end_round	1.913	columbia_card_task_fmri	14.0	0.8333333333333334	71.0	-80.0	0.1666666666666666	12.0	1.0	2.0	2.9741899370925324	1.913	0.0	stim	poldrack-single-stim	s590	False	1
193.124	1.5	192.373	n/a	-1.0	2.386	columbia_card_task_fmri	n/a	n/a	-1.0	n/a	n/a	n/a	n/a	n/a	n/a	n/a	n/a	ITI	poldrack-single-stim	s590	False	0
194.762	1.781	196.543	0.3828899035552255	end_round	1.781	columbia_card_task_fmri	15.0	0.8333333333333334	71.0	-75.0	0.1666666666666666	12.0	1.0	2.0	1.4835709414072369	1.781	0.0	stim	poldrack-single-stim	s590	False	1
197.301	1.5	196.55	n/a	-1.0	2.386	columbia_card_task_fmri	n/a	n/a	-1.0	n/a	n/a	n/a	n/a	n/a	n/a	n/a	n/a	ITI	poldrack-single-stim	s590	False	0
198.939	1.395	200.334	-0.6171100964447744	end_round	1.395	columbia_card_task_fmri	15.0	0.8	71.0	-65.0	0.2	15.0	1.0	3.0	-0.0573434872895006	1.395	0.0	stim	poldrack-single-stim	s590	False	1
201.089	1.5	200.338	n/a	-1.0	2.726	columbia_card_task_fmri	n/a	n/a	-1.0	n/a	n/a	n/a	n/a	n/a	n/a	n/a	n/a	ITI	poldrack-single-stim	s590	False	0
203.067	3.033	206.1	-1.3671100964447744	end_round	3.033	columbia_card_task_fmri	14.0	0.8125	71.0	-70.0	0.1875	16.0	1.0	3.0	0.7288410773397658	3.033	0.0	stim	poldrack-single-stim	s590	False	1
206.854	1.5	206.103	n/a	-1.0	2.454	columbia_card_task_fmri	n/a	n/a	-1.0	n/a	n/a	n/a	n/a	n/a	n/a	n/a	n/a	ITI	poldrack-single-stim	s590	False	0
208.561	2.066	210.627	-1.4296100964447744	end_round	2.066	columbia_card_task_fmri	11.0	0.6875	71.0	-30.0	0.3125	16.0	1.0	5.0	-13.051768667531205	2.066	0.0	stim	poldrack-single-stim	s590	False	1
211.385	1.5	210.634	n/a	-1.0	2.318	columbia_card_task_fmri	n/a	n/a	-1.0	n/a	n/a	n/a	n/a	n/a	n/a	n/a	n/a	ITI	poldrack-single-stim	s590	False	0
212.955	4.021	216.976	3.382889903555226	draw_card	4.021	columbia_card_task_fmri	15.0	0.8666666666666667	89.0	-75.0	0.1333333333333333	15.0	1.0	2.0	-1.4631211537515585	4.021	n/a	stim	poldrack-single-stim	s590	False	1
216.979	0.997	217.976	2.52574704641237	draw_card	0.997	columbia_card_task_fmri	15.0	0.8571428571428572	89.0	-75.0	0.1428571428571428	15.0	2.0	2.0	-0.5638670961992531	0.997	n/a	stim	poldrack-single-stim	s590	False	1
217.978	0.72	218.698	1.5367360574013789	draw_card	0.72	columbia_card_task_fmri	15.0	0.8461538461538461	89.0	-75.0	0.1538461538461538	15.0	3.0	2.0	0.414732318448415	0.72	n/a	stim	poldrack-single-stim	s590	False	1
218.7	0.766	219.466	0.3828899035552255	draw_card	0.766	columbia_card_task_fmri	15.0	0.8333333333333334	89.0	-75.0	0.1666666666666666	15.0	4.0	2.0	1.4835709414072369	0.766	n/a	stim	poldrack-single-stim	s590	False	1
219.468	2.822	222.29	-0.9807464600811396	end_round	2.822	columbia_card_task_fmri	15.0	0.8181818181818181	71.0	-75.0	0.1818181818181818	15.0	5.0	2.0	2.6549922429100405	2.822	4.0	stim	poldrack-single-stim	s590	False	1
223.044	1.5	222.293	n/a	-1.0	2.318	columbia_card_task_fmri	n/a	n/a	-1.0	n/a	n/a	n/a	n/a	n/a	n/a	n/a	n/a	ITI	poldrack-single-stim	s590	False	0
224.615	2.888	227.503	5.11622323688856	end_round	2.888	columbia_card_task_fmri	17.0	0.8666666666666667	71.0	-75.0	0.1333333333333333	15.0	1.0	2.0	-0.783303965415115	2.888	0.0	stim	poldrack-single-stim	s590	False	1
228.261	1.5	227.51	n/a	-1.0	2.59	columbia_card_task_fmri	n/a	n/a	-1.0	n/a	n/a	n/a	n/a	n/a	n/a	n/a	n/a	ITI	poldrack-single-stim	s590	False	0
230.103	1.823	231.926	0.6953899035552256	end_round	1.823	columbia_card_task_fmri	2.0	0.9375	71.0	-25.0	0.0625	16.0	1.0	1.0	-25.512768561158182	1.823	0.0	stim	poldrack-single-stim	s590	False	1
232.679	1.5	231.928	n/a	-1.0	2.726	columbia_card_task_fmri	n/a	n/a	-1.0	n/a	n/a	n/a	n/a	n/a	n/a	n/a	n/a	ITI	poldrack-single-stim	s590	False	0
234.658	2.45	237.108	2.882889903555226	end_round	2.45	columbia_card_task_fmri	9.0	0.9375	71.0	-95.0	0.0625	16.0	1.0	1.0	-6.882330739496084	2.45	0.0	stim	poldrack-single-stim	s590	False	1
237.864	1.5	237.113	n/a	-1.0	2.522	columbia_card_task_fmri	n/a	n/a	-1.0	n/a	n/a	n/a	n/a	n/a	n/a	n/a	n/a	ITI	poldrack-single-stim	s590	False	0
239.64	1.627	241.267	4.445389903555226	end_round	1.627	columbia_card_task_fmri	11.0	0.9375	71.0	-100.0	0.0625	16.0	1.0	1.0	-5.188084121531926	1.627	0.0	stim	poldrack-single-stim	s590	False	1
242.024	1.5	241.273	n/a	-1.0	3.134	columbia_card_task_fmri	n/a	n/a	-1.0	n/a	n/a	n/a	n/a	n/a	n/a	n/a	n/a	ITI	poldrack-single-stim	s590	False	0
244.41	2.172	246.582	5.007889903555226	end_round	2.172	columbia_card_task_fmri	16.0	0.875	71.0	-75.0	0.125	16.0	1.0	2.0	-1.9617773744232885	2.172	0.0	stim	poldrack-single-stim	s590	False	1
247.339	1.5	246.588	n/a	-1.0	2.386	columbia_card_task_fmri	n/a	n/a	-1.0	n/a	n/a	n/a	n/a	n/a	n/a	n/a	n/a	ITI	poldrack-single-stim	s590	False	0
248.979	1.553	250.532	5.257889903555226	end_round	1.553	columbia_card_task_fmri	17.0	0.875	71.0	-80.0	0.125	16.0	1.0	2.0	0.0223854664150096	1.553	0.0	stim	poldrack-single-stim	s590	False	1
251.287	1.5	250.536	n/a	-1.0	2.386	columbia_card_task_fmri	n/a	n/a	-1.0	n/a	n/a	n/a	n/a	n/a	n/a	n/a	n/a	ITI	poldrack-single-stim	s590	False	0
263.933	4.771	268.704	-0.4504434297781066	end_round	4.771	columbia_card_task_fmri	13.0	0.8333333333333334	71.0	-70.0	0.1666666666666666	6.0	1.0	1.0	-1.1249907365603242	4.771	0.0	stim	poldrack-single-stim	s590	False	1
269.461	1.5	268.71	n/a	-1.0	2.318	columbia_card_task_fmri	n/a	n/a	-1.0	n/a	n/a	n/a	n/a	n/a	n/a	n/a	n/a	ITI	poldrack-single-stim	s590	False	0
271.032	2.712	273.744	-0.4504434297781066	end_round	2.712	columbia_card_task_fmri	15.0	0.8333333333333334	71.0	-80.0	0.1666666666666666	6.0	1.0	1.0	3.34684590944778	2.712	0.0	stim	poldrack-single-stim	s590	False	1
274.499	1.5	273.748	n/a	-1.0	2.318	columbia_card_task_fmri	n/a	n/a	-1.0	n/a	n/a	n/a	n/a	n/a	n/a	n/a	n/a	ITI	poldrack-single-stim	s590	False	0
276.07	0.97	277.04	1.2162232368885595	end_round	0.97	columbia_card_task_fmri	16.0	0.8333333333333334	71.0	-75.0	0.1666666666666666	6.0	1.0	1.0	1.8562249240058577	0.97	0.0	stim	poldrack-single-stim	s590	False	1
277.798	1.5	277.047	n/a	-1.0	2.862	columbia_card_task_fmri	n/a	n/a	-1.0	n/a	n/a	n/a	n/a	n/a	n/a	n/a	n/a	ITI	poldrack-single-stim	s590	False	0
279.911	1.935	281.846	2.382889903555226	draw_card	1.935	columbia_card_task_fmri	21.0	0.75	89.0	-55.0	0.25	8.0	1.0	2.0	0.8515585926720561	1.935	n/a	stim	poldrack-single-stim	s590	False	1
281.849	1.49	283.339	-0.3313958107304879	draw_card	1.49	columbia_card_task_fmri	21.0	0.7142857142857143	89.0	-55.0	0.2857142857142857	8.0	2.0	2.0	2.275801162256045	1.49	n/a	stim	poldrack-single-stim	s590	False	1
283.342	0.66	284.002	-3.9504434297781046	draw_card	0.66	columbia_card_task_fmri	21.0	0.6666666666666667	89.0	-55.0	0.3333333333333333	8.0	3.0	2.0	3.769155441231831	0.66	n/a	stim	poldrack-single-stim	s590	False	1
284.004	1.238	285.242	-9.017110096444776	draw_card	1.238	columbia_card_task_fmri	21.0	0.6	89.0	-55.0	0.4	8.0	4.0	2.0	5.174578721338932	1.238	4.0	stim	poldrack-single-stim	s590	False	0
285.997	1.5	285.246	n/a	-1.0	2.726	columbia_card_task_fmri	n/a	n/a	-1.0	n/a	n/a	n/a	n/a	n/a	n/a	n/a	n/a	ITI	poldrack-single-stim	s590	False	0
287.977	2.334	290.311	3.632889903555226	draw_card	2.334	columbia_card_task_fmri	26.0	0.75	89.0	-65.0	0.25	8.0	1.0	2.0	7.34638199411912	2.334	n/a	stim	poldrack-single-stim	s590	False	1
290.313	0.793	291.106	0.3828899035552291	draw_card	0.793	columbia_card_task_fmri	26.0	0.7142857142857143	89.0	-65.0	0.2857142857142857	8.0	2.0	2.0	9.051758535112292	0.793	n/a	stim	poldrack-single-stim	s590	False	1
291.11	1.376	292.486	-3.950443429778103	end_round	1.376	columbia_card_task_fmri	26.0	0.6666666666666667	71.0	-65.0	0.3333333333333333	8.0	3.0	2.0	10.839886020957223	1.376	2.0	stim	poldrack-single-stim	s590	False	1
293.242	1.5	292.491	n/a	-1.0	2.25	columbia_card_task_fmri	n/a	n/a	-1.0	n/a	n/a	n/a	n/a	n/a	n/a	n/a	n/a	ITI	poldrack-single-stim	s590	False	0
294.745	2.538	297.283	-1.2837767631114405	end_round	2.538	columbia_card_task_fmri	15.0	0.7777777777777778	71.0	-60.0	0.2222222222222222	9.0	1.0	2.0	-0.8768050640036158	2.538	0.0	stim	poldrack-single-stim	s590	False	1
298.038	1.5	297.287	n/a	-1.0	2.318	columbia_card_task_fmri	n/a	n/a	-1.0	n/a	n/a	n/a	n/a	n/a	n/a	n/a	n/a	ITI	poldrack-single-stim	s590	False	0
299.61	2.448	302.058	3.082889903555227	draw_card	2.448	columbia_card_task_fmri	13.0	0.9	89.0	-90.0	0.1	10.0	1.0	1.0	-1.157261950472929	2.448	1.0	stim	poldrack-single-stim	s590	False	0
302.814	1.5	302.063	n/a	-1.0	2.454	columbia_card_task_fmri	n/a	n/a	-1.0	n/a	n/a	n/a	n/a	n/a	n/a	n/a	n/a	ITI	poldrack-single-stim	s590	False	0
304.521	3.593	308.114	4.382889903555226	end_round	3.593	columbia_card_task_fmri	15.0	0.9	71.0	-95.0	0.1	10.0	1.0	1.0	0.9425871048457566	3.593	0.0	stim	poldrack-single-stim	s590	False	1
308.87	1.5	308.119	n/a	-1.0	2.522	columbia_card_task_fmri	n/a	n/a	-1.0	n/a	n/a	n/a	n/a	n/a	n/a	n/a	n/a	ITI	poldrack-single-stim	s590	False	0
310.644	1.804	312.448	0.1828899035552262	end_round	1.804	columbia_card_task_fmri	16.0	0.8	71.0	-65.0	0.2	10.0	1.0	2.0	0.3426282354860106	1.804	0.0	stim	poldrack-single-stim	s590	False	1
313.202	1.5	312.451	n/a	-1.0	2.318	columbia_card_task_fmri	n/a	n/a	-1.0	n/a	n/a	n/a	n/a	n/a	n/a	n/a	n/a	ITI	poldrack-single-stim	s590	False	0
314.772	1.841	316.613	-1.1171100964447744	end_round	1.841	columbia_card_task_fmri	7.0	0.9166666666666666	71.0	-95.0	0.0833333333333333	12.0	1.0	1.0	-3.86572333036208	1.841	0.0	stim	poldrack-single-stim	s590	False	1
317.371	1.5	316.62	n/a	-1.0	2.522	columbia_card_task_fmri	n/a	n/a	-1.0	n/a	n/a	n/a	n/a	n/a	n/a	n/a	n/a	ITI	poldrack-single-stim	s590	False	0
319.145	1.974	321.119	-0.4504434297781066	end_round	1.974	columbia_card_task_fmri	14.0	0.8333333333333334	71.0	-75.0	0.1666666666666666	12.0	1.0	2.0	1.1109174983878989	1.974	0.0	stim	poldrack-single-stim	s590	False	1
321.876	1.5	321.125	n/a	-1.0	2.998	columbia_card_task_fmri	n/a	n/a	-1.0	n/a	n/a	n/a	n/a	n/a	n/a	n/a	n/a	ITI	poldrack-single-stim	s590	False	0
324.127	2.174	326.301	1.2162232368885595	draw_card	2.174	columbia_card_task_fmri	15.0	0.8333333333333334	89.0	-70.0	0.1666666666666666	12.0	1.0	2.0	-0.3796904970704808	2.174	n/a	stim	poldrack-single-stim	s590	False	1
326.304	0.627	326.931	-0.0716555509902312	draw_card	0.627	columbia_card_task_fmri	15.0	0.8181818181818181	89.0	-70.0	0.1818181818181818	12.0	2.0	2.0	0.7266434088114124	0.627	n/a	stim	poldrack-single-stim	s590	False	1
326.934	0.668	327.602	-1.6171100964447744	draw_card	0.668	columbia_card_task_fmri	15.0	0.8	89.0	-70.0	0.2	12.0	3.0	2.0	1.9425217793962872	0.668	n/a	stim	poldrack-single-stim	s590	False	1
327.605	0.732	328.337	-3.5059989853336635	draw_card	0.732	columbia_card_task_fmri	15.0	0.7777777777777778	89.0	-70.0	0.2222222222222222	12.0	4.0	2.0	3.2803154831052552	0.732	n/a	stim	poldrack-single-stim	s590	False	1
328.34	1.621	329.961	-5.867110096444774	end_round	1.621	columbia_card_task_fmri	15.0	0.75	71.0	-70.0	0.25	12.0	5.0	2.0	4.748437085918738	1.621	4.0	stim	poldrack-single-stim	s590	False	1
330.716	1.5	329.965	n/a	-1.0	2.318	columbia_card_task_fmri	n/a	n/a	-1.0	n/a	n/a	n/a	n/a	n/a	n/a	n/a	n/a	ITI	poldrack-single-stim	s590	False	0
332.287	2.342	334.629	-0.8171100964447737	end_round	2.342	columbia_card_task_fmri	16.0	0.8	71.0	-70.0	0.2	15.0	1.0	3.0	2.342496712553462	2.342	0.0	stim	poldrack-single-stim	s590	False	1
335.382	1.5	334.631	n/a	-1.0	2.25	columbia_card_task_fmri	n/a	n/a	-1.0	n/a	n/a	n/a	n/a	n/a	n/a	n/a	n/a	ITI	poldrack-single-stim	s590	False	0
336.886	1.23	338.116	-0.4296100964447744	end_round	1.23	columbia_card_task_fmri	14.0	0.8125	71.0	-65.0	0.1875	16.0	1.0	3.0	-1.2225793084296654	1.23	0.0	stim	poldrack-single-stim	s590	False	1
338.874	1.5	338.123	n/a	-1.0	2.454	columbia_card_task_fmri	n/a	n/a	-1.0	n/a	n/a	n/a	n/a	n/a	n/a	n/a	n/a	ITI	poldrack-single-stim	s590	False	0
340.581	1.105	341.686	-0.6796100964447744	end_round	1.105	columbia_card_task_fmri	16.0	0.8125	71.0	-75.0	0.1875	16.0	1.0	3.0	3.4608557359584395	1.105	0.0	stim	poldrack-single-stim	s590	False	1
342.44	1.5	341.689	n/a	-1.0	2.318	columbia_card_task_fmri	n/a	n/a	-1.0	n/a	n/a	n/a	n/a	n/a	n/a	n/a	n/a	ITI	poldrack-single-stim	s590	False	0
344.012	1.353	345.365	3.582889903555227	end_round	1.353	columbia_card_task_fmri	16.0	0.8666666666666667	71.0	-80.0	0.1333333333333333	15.0	1.0	2.0	0.5763369205788749	1.353	0.0	stim	poldrack-single-stim	s590	False	1
346.122	1.5	345.371	n/a	-1.0	2.318	columbia_card_task_fmri	n/a	n/a	-1.0	n/a	n/a	n/a	n/a	n/a	n/a	n/a	n/a	ITI	poldrack-single-stim	s590	False	0
347.692	0.972	348.664	4.449556570221894	end_round	0.972	columbia_card_task_fmri	17.0	0.8666666666666667	71.0	-80.0	0.1333333333333333	15.0	1.0	2.0	0.9162484003360944	0.972	0.0	stim	poldrack-single-stim	s590	False	1
349.421	1.5	348.67	n/a	-1.0	2.59	columbia_card_task_fmri	n/a	n/a	-1.0	n/a	n/a	n/a	n/a	n/a	n/a	n/a	n/a	ITI	poldrack-single-stim	s590	False	0
351.265	1.367	352.632	0.3828899035552255	end_round	1.367	columbia_card_task_fmri	1.0	0.9375	71.0	-15.0	0.0625	16.0	1.0	1.0	-28.167770195423	1.367	0.0	stim	poldrack-single-stim	s590	False	1
353.388	1.5	352.637	n/a	-1.0	2.25	columbia_card_task_fmri	n/a	n/a	-1.0	n/a	n/a	n/a	n/a	n/a	n/a	n/a	n/a	ITI	poldrack-single-stim	s590	False	0
354.891	1.742	356.633	3.507889903555226	end_round	1.742	columbia_card_task_fmri	10.0	0.9375	71.0	-100.0	0.0625	16.0	1.0	1.0	-5.430120783062431	1.742	0.0	stim	poldrack-single-stim	s590	False	1
357.388	1.5	356.637	n/a	-1.0	2.25	columbia_card_task_fmri	n/a	n/a	-1.0	n/a	n/a	n/a	n/a	n/a	n/a	n/a	n/a	ITI	poldrack-single-stim	s590	False	0
358.892	3.852	362.744	4.132889903555226	draw_card	3.852	columbia_card_task_fmri	15.0	0.875	89.0	-75.0	0.125	16.0	1.0	2.0	-2.2924692286926422	3.852	n/a	stim	poldrack-single-stim	s590	False	1
362.748	0.48	363.228	3.382889903555226	draw_card	0.48	columbia_card_task_fmri	15.0	0.8666666666666667	89.0	-75.0	0.1333333333333333	16.0	2.0	2.0	-1.4631211537515585	0.48	n/a	stim	poldrack-single-stim	s590	False	1
363.231	0.391	363.622	2.52574704641237	draw_card	0.391	columbia_card_task_fmri	15.0	0.8571428571428572	89.0	-75.0	0.1428571428571428	16.0	3.0	2.0	-0.5638670961992531	0.391	3.0	stim	poldrack-single-stim	s590	False	0
364.376	1.5	363.625	n/a	-1.0	2.522	columbia_card_task_fmri	n/a	n/a	-1.0	n/a	n/a	n/a	n/a	n/a	n/a	n/a	n/a	ITI	poldrack-single-stim	s590	False	0
366.151	3.053	369.204	4.382889903555226	end_round	3.053	columbia_card_task_fmri	16.0	0.875	71.0	-80.0	0.125	16.0	1.0	2.0	-0.3083096479068743	3.053	0.0	stim	poldrack-single-stim	s590	False	1
369.962	1.5	369.211	n/a	-1.0	2.454	columbia_card_task_fmri	n/a	n/a	-1.0	n/a	n/a	n/a	n/a	n/a	n/a	n/a	n/a	ITI	poldrack-single-stim	s590	False	0
371.669	3.34	375.009	1.5703899035552256	draw_card	3.34	columbia_card_task_fmri	4.0	0.6875	89.0	-5.0	0.3125	16.0	1.0	5.0	-27.87048759984922	3.34	n/a	stim	poldrack-single-stim	s590	False	1
375.012	0.634	375.646	1.382889903555226	draw_card	0.634	columbia_card_task_fmri	4.0	0.6666666666666667	89.0	-5.0	0.3333333333333333	16.0	2.0	5.0	-27.799750926808045	0.634	n/a	stim	poldrack-single-stim	s590	False	1
375.649	1.304	376.953	1.168604189269511	draw_card	1.304	columbia_card_task_fmri	4.0	0.6428571428571428	89.0	-5.0	0.3571428571428571	16.0	3.0	5.0	-27.73025268641664	1.304	3.0	stim	poldrack-single-stim	s590	False	0
377.709	1.5	376.958	n/a	-1.0	2.25	columbia_card_task_fmri	n/a	n/a	-1.0	n/a	n/a	n/a	n/a	n/a	n/a	n/a	n/a	ITI	poldrack-single-stim	s590	False	0
379.212	1.737	380.949	-1.2837767631114387	end_round	1.737	columbia_card_task_fmri	14.0	0.8333333333333334	71.0	-80.0	0.1666666666666666	6.0	1.0	1.0	2.9741899370925324	1.737	0.0	stim	poldrack-single-stim	s590	False	1
381.706	1.5	380.955	n/a	-1.0	2.454	columbia_card_task_fmri	n/a	n/a	-1.0	n/a	n/a	n/a	n/a	n/a	n/a	n/a	n/a	ITI	poldrack-single-stim	s590	False	0
383.414	6.066	389.48	0.3828899035552255	draw_card	6.066	columbia_card_task_fmri	15.0	0.8333333333333334	89.0	-75.0	0.1666666666666666	6.0	1.0	1.0	1.4835709414072369	6.066	n/a	stim	poldrack-single-stim	s590	False	1
389.483	1.379	390.862	-2.617110096444774	draw_card	1.379	columbia_card_task_fmri	15.0	0.8	89.0	-75.0	0.2	6.0	2.0	1.0	3.942402015102559	1.379	n/a	stim	poldrack-single-stim	s590	False	1
390.866	0.689	391.555	-7.117110096444774	end_round	0.689	columbia_card_task_fmri	15.0	0.75	71.0	-75.0	0.25	6.0	3.0	1.0	6.913389960405198	0.689	2.0	stim	poldrack-single-stim	s590	False	1
392.312	1.5	391.561	n/a	-1.0	2.454	columbia_card_task_fmri	n/a	n/a	-1.0	n/a	n/a	n/a	n/a	n/a	n/a	n/a	n/a	ITI	poldrack-single-stim	s590	False	0
394.019	2.391	396.41	2.0495565702218936	draw_card	2.391	columbia_card_task_fmri	16.0	0.8333333333333334	89.0	-70.0	0.1666666666666666	6.0	1.0	1.0	-0.0070394049950692	2.391	n/a	stim	poldrack-single-stim	s590	False	1
396.414	0.631	397.045	-0.8171100964447737	end_round	0.631	columbia_card_task_fmri	16.0	0.8	71.0	-70.0	0.2	6.0	2.0	1.0	2.342496712553462	0.631	1.0	stim	poldrack-single-stim	s590	False	1
397.799	1.5	397.048	n/a	-1.0	2.522	columbia_card_task_fmri	n/a	n/a	-1.0	n/a	n/a	n/a	n/a	n/a	n/a	n/a	n/a	ITI	poldrack-single-stim	s590	False	0
399.575	5.239	404.814	2.632889903555226	end_round	5.239	columbia_card_task_fmri	23.0	0.75	71.0	-60.0	0.25	8.0	1.0	2.0	3.8824596680814096	5.239	0.0	stim	poldrack-single-stim	s590	False	1
405.57	1.5	404.819	n/a	-1.0	2.454	columbia_card_task_fmri	n/a	n/a	-1.0	n/a	n/a	n/a	n/a	n/a	n/a	n/a	n/a	ITI	poldrack-single-stim	s590	False	0
407.277	2.11	409.387	3.132889903555226	end_round	2.11	columbia_card_task_fmri	27.0	0.75	71.0	-70.0	0.25	8.0	1.0	2.0	9.944343144926329	2.11	0.0	stim	poldrack-single-stim	s590	False	1
410.144	1.5	409.393	n/a	-1.0	2.658	columbia_card_task_fmri	n/a	n/a	-1.0	n/a	n/a	n/a	n/a	n/a	n/a	n/a	n/a	ITI	poldrack-single-stim	s590	False	0
412.055	1.178	413.233	-1.6171100964447729	end_round	1.178	columbia_card_task_fmri	16.0	0.7777777777777778	71.0	-65.0	0.2222222222222222	9.0	1.0	2.0	1.6174590710113037	1.178	0.0	stim	poldrack-single-stim	s590	False	1
413.99	1.5	413.239	n/a	-1.0	2.386	columbia_card_task_fmri	n/a	n/a	-1.0	n/a	n/a	n/a	n/a	n/a	n/a	n/a	n/a	ITI	poldrack-single-stim	s590	False	0
415.628	2.477	418.105	3.582889903555227	end_round	2.477	columbia_card_task_fmri	13.0	0.9	71.0	-85.0	0.1	10.0	1.0	1.0	-2.657140932275645	2.477	0.0	stim	poldrack-single-stim	s590	False	1
418.862	1.5	418.111	n/a	-1.0	2.522	columbia_card_task_fmri	n/a	n/a	-1.0	n/a	n/a	n/a	n/a	n/a	n/a	n/a	n/a	ITI	poldrack-single-stim	s590	False	0
420.637	1.855	422.492	-1.4171100964447734	end_round	1.855	columbia_card_task_fmri	14.0	0.8	71.0	-65.0	0.2	10.0	1.0	2.0	-0.457314494263759	1.855	0.0	stim	poldrack-single-stim	s590	False	1
423.248	1.5	422.497	n/a	-1.0	2.59	columbia_card_task_fmri	n/a	n/a	-1.0	n/a	n/a	n/a	n/a	n/a	n/a	n/a	n/a	ITI	poldrack-single-stim	s590	False	0
425.091	2.915	428.006	-0.017110096444773	end_round	2.915	columbia_card_task_fmri	17.0	0.8	71.0	-70.0	0.2	10.0	1.0	2.0	2.7424722219069797	2.915	0.0	stim	poldrack-single-stim	s590	False	1
428.764	1.5	428.013	n/a	-1.0	2.386	columbia_card_task_fmri	n/a	n/a	-1.0	n/a	n/a	n/a	n/a	n/a	n/a	n/a	n/a	ITI	poldrack-single-stim	s590	False	0
430.404	2.058	432.462	-1.2837767631114405	end_round	2.058	columbia_card_task_fmri	13.0	0.8333333333333334	71.0	-75.0	0.1666666666666666	12.0	1.0	2.0	0.7382646133401138	2.058	0.0	stim	poldrack-single-stim	s590	False	1
433.216	1.5	432.465	n/a	-1.0	2.59	columbia_card_task_fmri	n/a	n/a	-1.0	n/a	n/a	n/a	n/a	n/a	n/a	n/a	n/a	ITI	poldrack-single-stim	s590	False	0
435.059	1.62	436.679	0.3828899035552273	end_round	1.62	columbia_card_task_fmri	14.0	0.8333333333333334	71.0	-70.0	0.1666666666666666	12.0	1.0	2.0	-0.7523409486413257	1.62	0.0	stim	poldrack-single-stim	s590	False	1
437.435	1.5	436.684	n/a	-1.0	2.318	columbia_card_task_fmri	n/a	n/a	-1.0	n/a	n/a	n/a	n/a	n/a	n/a	n/a	n/a	ITI	poldrack-single-stim	s590	False	0
439.005	3.527	442.532	0.3828899035552273	end_round	3.527	columbia_card_task_fmri	16.0	0.8333333333333334	71.0	-80.0	0.1666666666666666	12.0	1.0	2.0	3.719502340594346	3.527	0.0	stim	poldrack-single-stim	s590	False	1
443.289	1.5	442.538	n/a	-1.0	2.25	columbia_card_task_fmri	n/a	n/a	-1.0	n/a	n/a	n/a	n/a	n/a	n/a	n/a	n/a	ITI	poldrack-single-stim	s590	False	0
444.793	1.501	446.294	0.1828899035552262	end_round	1.501	columbia_card_task_fmri	16.0	0.8	71.0	-65.0	0.2	15.0	1.0	3.0	0.3426282354860106	1.501	0.0	stim	poldrack-single-stim	s590	False	1
447.048	1.5	446.297	n/a	-1.0	2.454	columbia_card_task_fmri	n/a	n/a	-1.0	n/a	n/a	n/a	n/a	n/a	n/a	n/a	n/a	ITI	poldrack-single-stim	s590	False	0
448.756	3.343	452.099	-1.4921100964447744	end_round	3.343	columbia_card_task_fmri	15.0	0.8125	71.0	-75.0	0.1875	16.0	1.0	3.0	3.070566289964816	3.343	0.0	stim	poldrack-single-stim	s590	False	1
452.853	1.5	452.102	n/a	-1.0	3.27	columbia_card_task_fmri	n/a	n/a	-1.0	n/a	n/a	n/a	n/a	n/a	n/a	n/a	n/a	ITI	poldrack-single-stim	s590	False	0
455.377	1.619	456.996	-0.9296100964447744	end_round	1.619	columbia_card_task_fmri	14.0	0.6875	71.0	-35.0	0.3125	16.0	1.0	5.0	-9.344299009502166	1.619	0.0	stim	poldrack-single-stim	s590	False	1
457.754	1.5	457.003	n/a	-1.0	2.25	columbia_card_task_fmri	n/a	n/a	-1.0	n/a	n/a	n/a	n/a	n/a	n/a	n/a	n/a	ITI	poldrack-single-stim	s590	False	0
459.258	1.928	461.186	4.249556570221893	end_round	1.928	columbia_card_task_fmri	16.0	0.8666666666666667	71.0	-75.0	0.1333333333333333	15.0	1.0	2.0	-1.1232128457050834	1.928	0.0	stim	poldrack-single-stim	s590	False	1
461.941	1.5	461.19	n/a	-1.0	2.25	columbia_card_task_fmri	n/a	n/a	-1.0	n/a	n/a	n/a	n/a	n/a	n/a	n/a	n/a	ITI	poldrack-single-stim	s590	False	0
463.444	1.547	464.991	4.916223236888559	end_round	1.547	columbia_card_task_fmri	16.0	0.8666666666666667	71.0	-70.0	0.1333333333333333	15.0	1.0	2.0	-2.8227482643284176	1.547	0.0	stim	poldrack-single-stim	s590	False	1
465.75	1.5	464.999	n/a	-1.0	2.318	columbia_card_task_fmri	n/a	n/a	-1.0	n/a	n/a	n/a	n/a	n/a	n/a	n/a	n/a	ITI	poldrack-single-stim	s590	False	0
467.322	1.327	468.649	2.257889903555226	end_round	1.327	columbia_card_task_fmri	8.0	0.9375	71.0	-90.0	0.0625	16.0	1.0	1.0	-8.334521254815726	1.327	0.0	stim	poldrack-single-stim	s590	False	1
469.407	1.5	468.656	n/a	-1.0	2.726	columbia_card_task_fmri	n/a	n/a	-1.0	n/a	n/a	n/a	n/a	n/a	n/a	n/a	n/a	ITI	poldrack-single-stim	s590	False	0
471.386	2.284	473.67	3.820389903555226	end_round	2.284	columbia_card_task_fmri	10.0	0.9375	71.0	-95.0	0.0625	16.0	1.0	1.0	-6.640297006849952	2.284	0.0	stim	poldrack-single-stim	s590	False	1
474.424	1.5	473.673	n/a	-1.0	2.386	columbia_card_task_fmri	n/a	n/a	-1.0	n/a	n/a	n/a	n/a	n/a	n/a	n/a	n/a	ITI	poldrack-single-stim	s590	False	0
476.063	1.396	477.459	4.757889903555226	end_round	1.396	columbia_card_task_fmri	15.0	0.875	71.0	-70.0	0.125	16.0	1.0	2.0	-3.94591895086236	1.396	0.0	stim	poldrack-single-stim	s590	False	1
478.215	1.5	477.464	n/a	-1.0	2.318	columbia_card_task_fmri	n/a	n/a	-1.0	n/a	n/a	n/a	n/a	n/a	n/a	n/a	n/a	ITI	poldrack-single-stim	s590	False	0
479.787	2.929	482.716	3.757889903555226	end_round	2.929	columbia_card_task_fmri	16.0	0.875	71.0	-85.0	0.125	16.0	1.0	2.0	1.3451706360081133	2.929	0.0	stim	poldrack-single-stim	s590	False	1
483.472	1.5	482.721	n/a	-1.0	2.25	columbia_card_task_fmri	n/a	n/a	-1.0	n/a	n/a	n/a	n/a	n/a	n/a	n/a	n/a	ITI	poldrack-single-stim	s590	False	0
