onset	duration	SS_delay	block_duration	correct	correct_response	experiment_exp_id	key_press	passed_check	response_time	stop_response	stopped	trial_id	trial_type	worker_id	junk
3.012	0.85	0.15	2.65	1.0	89.0	motor_selective_stop_signal	89.0	True	0.562	89.0	False	stim	crit_go	s590	False
5.667	0.85	0.15	2.25	1.0	89.0	motor_selective_stop_signal	89.0	True	0.497	89.0	False	stim	crit_stop_failure	s590	False
7.923	0.85	0.1	2.65	1.0	71.0	motor_selective_stop_signal	71.0	True	0.682	89.0	False	stim	noncrit_signal	s590	False
10.575	0.85	0.1	2.35	1.0	71.0	motor_selective_stop_signal	71.0	True	0.372	89.0	False	stim	noncrit_nosignal	s590	False
12.926	0.85	0.1	2.25	1.0	71.0	motor_selective_stop_signal	71.0	True	0.451	89.0	False	stim	noncrit_nosignal	s590	False
15.182	0.85	0.1	2.25	1.0	89.0	motor_selective_stop_signal	89.0	True	0.637	89.0	False	stim	crit_go	s590	False
17.433	0.85	0.1	2.25	1.0	71.0	motor_selective_stop_signal	71.0	True	0.572	89.0	False	stim	noncrit_nosignal	s590	False
19.684	0.85	0.1	2.35	1.0	71.0	motor_selective_stop_signal	71.0	True	0.509	89.0	False	stim	noncrit_nosignal	s590	False
22.039	0.85	0.1	2.55	1.0	71.0	motor_selective_stop_signal	71.0	True	0.401	89.0	False	stim	noncrit_signal	s590	False
24.592	0.85	0.1	2.35	1.0	89.0	motor_selective_stop_signal	89.0	True	0.364	89.0	False	stim	crit_go	s590	False
26.945	0.85	0.1	2.45	1.0	89.0	motor_selective_stop_signal	-1.0	True	n/a	89.0	True	stim	crit_stop_success	s590	False
29.398	0.85	0.15	2.45	1.0	71.0	motor_selective_stop_signal	71.0	True	0.395	89.0	False	stim	noncrit_nosignal	s590	False
31.85	0.85	0.15	2.35	1.0	89.0	motor_selective_stop_signal	89.0	True	0.468	89.0	False	stim	crit_stop_failure	s590	False
34.206	0.85	0.1	2.25	1.0	71.0	motor_selective_stop_signal	71.0	True	0.48	89.0	False	stim	noncrit_signal	s590	False
36.461	0.85	0.1	2.55	1.0	71.0	motor_selective_stop_signal	71.0	True	0.451	89.0	False	stim	noncrit_nosignal	s590	False
39.016	0.85	0.1	2.55	1.0	71.0	motor_selective_stop_signal	71.0	True	0.444	89.0	False	stim	noncrit_nosignal	s590	False
41.572	0.85	0.1	2.25	1.0	71.0	motor_selective_stop_signal	71.0	True	0.445	89.0	False	stim	noncrit_signal	s590	False
43.823	0.85	0.1	2.25	1.0	89.0	motor_selective_stop_signal	89.0	True	0.74	89.0	False	stim	crit_go	s590	False
46.076	0.85	0.1	2.45	1.0	89.0	motor_selective_stop_signal	-1.0	True	n/a	89.0	True	stim	crit_stop_success	s590	False
48.531	0.85	0.15	2.35	1.0	89.0	motor_selective_stop_signal	89.0	True	0.551	89.0	False	stim	crit_go	s590	False
50.884	0.85	0.15	2.25	1.0	71.0	motor_selective_stop_signal	71.0	True	0.62	89.0	False	stim	noncrit_nosignal	s590	False
53.136	0.85	0.15	3.15	1.0	71.0	motor_selective_stop_signal	71.0	True	0.36	89.0	False	stim	noncrit_nosignal	s590	False
56.287	0.85	0.15	2.65	1.0	89.0	motor_selective_stop_signal	89.0	True	0.503	89.0	False	stim	crit_go	s590	False
58.943	0.85	0.15	2.25	1.0	71.0	motor_selective_stop_signal	71.0	True	0.779	89.0	False	stim	noncrit_signal	s590	False
61.197	0.85	0.15	2.45	1.0	89.0	motor_selective_stop_signal	-1.0	True	n/a	89.0	True	stim	crit_stop_success	s590	False
63.649	0.85	0.2	2.85	1.0	71.0	motor_selective_stop_signal	71.0	True	0.474	89.0	False	stim	noncrit_signal	s590	False
66.503	0.85	0.2	2.45	1.0	89.0	motor_selective_stop_signal	89.0	True	0.767	89.0	False	stim	crit_go	s590	False
68.954	0.85	0.2	2.25	1.0	89.0	motor_selective_stop_signal	89.0	True	0.953	89.0	False	stim	crit_go	s590	False
71.206	0.85	0.2	2.25	1.0	89.0	motor_selective_stop_signal	89.0	True	0.838	89.0	False	stim	crit_go	s590	False
73.459	0.85	0.2	2.55	1.0	71.0	motor_selective_stop_signal	71.0	True	0.51	89.0	False	stim	noncrit_signal	s590	False
76.011	0.85	0.2	2.25	1.0	89.0	motor_selective_stop_signal	-1.0	True	n/a	89.0	True	stim	crit_stop_success	s590	False
78.262	0.85	0.25	2.35	1.0	89.0	motor_selective_stop_signal	89.0	True	0.682	89.0	False	stim	crit_go	s590	False
80.614	0.85	0.25	2.35	1.0	89.0	motor_selective_stop_signal	89.0	True	0.559	89.0	False	stim	crit_stop_failure	s590	False
82.97	0.85	0.2	2.25	1.0	71.0	motor_selective_stop_signal	71.0	True	0.488	89.0	False	stim	noncrit_nosignal	s590	False
85.223	0.85	0.2	2.35	1.0	71.0	motor_selective_stop_signal	71.0	True	0.4	89.0	False	stim	noncrit_signal	s590	False
87.575	0.85	0.2	2.25	1.0	89.0	motor_selective_stop_signal	89.0	True	0.758	89.0	False	stim	crit_go	s590	False
89.827	0.85	0.2	2.45	1.0	89.0	motor_selective_stop_signal	89.0	True	0.626	89.0	False	stim	crit_go	s590	False
92.278	0.85	0.2	2.25	1.0	71.0	motor_selective_stop_signal	71.0	True	0.534	89.0	False	stim	noncrit_nosignal	s590	False
94.534	0.85	0.2	2.35	0.0	89.0	motor_selective_stop_signal	71.0	True	0.434	89.0	False	stim	crit_go	s590	False
96.888	0.85	0.2	2.45	1.0	71.0	motor_selective_stop_signal	71.0	True	0.594	89.0	False	stim	noncrit_signal	s590	False
99.343	0.85	0.2	2.25	1.0	89.0	motor_selective_stop_signal	89.0	True	0.394	89.0	False	stim	crit_stop_failure	s590	False
101.594	0.85	0.15	2.25	1.0	89.0	motor_selective_stop_signal	89.0	True	0.566	89.0	False	stim	crit_go	s590	False
103.848	0.85	0.15	2.85	1.0	71.0	motor_selective_stop_signal	71.0	True	0.521	89.0	False	stim	noncrit_nosignal	s590	False
106.702	0.85	0.15	2.25	1.0	89.0	motor_selective_stop_signal	89.0	True	0.672	89.0	False	stim	crit_go	s590	False
108.955	0.85	0.15	3.45	1.0	71.0	motor_selective_stop_signal	71.0	True	0.579	89.0	False	stim	noncrit_nosignal	s590	False
112.407	0.85	0.15	2.35	1.0	71.0	motor_selective_stop_signal	71.0	True	0.551	89.0	False	stim	noncrit_signal	s590	False
114.759	0.85	0.15	2.35	1.0	71.0	motor_selective_stop_signal	71.0	True	0.533	89.0	False	stim	noncrit_signal	s590	False
117.111	0.85	0.15	2.35	1.0	71.0	motor_selective_stop_signal	71.0	True	0.515	89.0	False	stim	noncrit_nosignal	s590	False
119.465	0.85	0.15	2.45	1.0	89.0	motor_selective_stop_signal	-1.0	True	n/a	89.0	True	stim	crit_stop_success	s590	False
121.917	0.85	0.2	2.55	1.0	71.0	motor_selective_stop_signal	71.0	True	0.732	89.0	False	stim	noncrit_signal	s590	False
134.983	0.85	0.2	2.35	1.0	71.0	motor_selective_stop_signal	71.0	True	0.547	89.0	False	stim	noncrit_nosignal	s590	False
137.334	0.85	0.2	2.25	1.0	89.0	motor_selective_stop_signal	-1.0	True	n/a	89.0	True	stim	crit_stop_success	s590	False
139.586	0.85	0.25	2.25	1.0	89.0	motor_selective_stop_signal	89.0	True	0.43	89.0	False	stim	crit_go	s590	False
141.84	0.85	0.25	3.05	1.0	71.0	motor_selective_stop_signal	71.0	True	0.482	89.0	False	stim	noncrit_nosignal	s590	False
144.895	0.85	0.25	2.45	1.0	89.0	motor_selective_stop_signal	89.0	True	0.624	89.0	False	stim	crit_go	s590	False
147.347	0.85	0.25	2.35	1.0	89.0	motor_selective_stop_signal	89.0	True	0.55	89.0	False	stim	crit_go	s590	False
149.699	0.85	0.25	2.25	1.0	89.0	motor_selective_stop_signal	-1.0	True	n/a	89.0	True	stim	crit_stop_success	s590	False
151.953	0.85	0.3	3.25	1.0	89.0	motor_selective_stop_signal	89.0	True	0.542	89.0	False	stim	crit_stop_failure	s590	False
155.206	0.85	0.25	2.95	1.0	71.0	motor_selective_stop_signal	71.0	True	0.404	89.0	False	stim	noncrit_nosignal	s590	False
158.161	0.85	0.25	2.55	0.0	89.0	motor_selective_stop_signal	71.0	True	0.381	89.0	False	stim	crit_stop_failure	s590	False
160.712	0.85	0.2	2.35	1.0	89.0	motor_selective_stop_signal	89.0	True	0.533	89.0	False	stim	crit_go	s590	False
163.068	0.85	0.2	2.55	1.0	89.0	motor_selective_stop_signal	89.0	True	0.609	89.0	False	stim	crit_stop_failure	s590	False
165.619	0.85	0.15	2.35	1.0	71.0	motor_selective_stop_signal	71.0	True	0.537	89.0	False	stim	noncrit_nosignal	s590	False
167.97	0.85	0.15	2.25	1.0	71.0	motor_selective_stop_signal	71.0	True	0.553	89.0	False	stim	noncrit_nosignal	s590	False
170.223	0.85	0.15	2.45	1.0	71.0	motor_selective_stop_signal	71.0	True	0.744	89.0	False	stim	noncrit_signal	s590	False
172.676	0.85	0.15	2.35	1.0	89.0	motor_selective_stop_signal	89.0	True	0.777	89.0	False	stim	crit_go	s590	False
175.028	0.85	0.15	2.65	1.0	71.0	motor_selective_stop_signal	71.0	True	0.574	89.0	False	stim	noncrit_signal	s590	False
177.683	0.85	0.15	2.25	1.0	71.0	motor_selective_stop_signal	71.0	True	0.542	89.0	False	stim	noncrit_nosignal	s590	False
179.939	0.85	0.15	2.25	1.0	89.0	motor_selective_stop_signal	89.0	True	0.68	89.0	False	stim	crit_stop_failure	s590	False
182.192	0.85	0.1	2.45	1.0	89.0	motor_selective_stop_signal	89.0	True	0.629	89.0	False	stim	crit_go	s590	False
184.643	0.85	0.1	2.25	0.0	89.0	motor_selective_stop_signal	71.0	True	0.793	89.0	False	stim	crit_go	s590	False
186.896	0.85	0.1	2.55	1.0	89.0	motor_selective_stop_signal	-1.0	True	n/a	89.0	True	stim	crit_stop_success	s590	False
189.448	0.85	0.15	2.25	1.0	89.0	motor_selective_stop_signal	89.0	True	0.431	89.0	False	stim	crit_go	s590	False
191.7	0.85	0.15	2.35	1.0	71.0	motor_selective_stop_signal	71.0	True	0.534	89.0	False	stim	noncrit_signal	s590	False
194.056	0.85	0.15	2.25	1.0	89.0	motor_selective_stop_signal	-1.0	True	n/a	89.0	True	stim	crit_stop_success	s590	False
196.311	0.85	0.2	2.55	1.0	89.0	motor_selective_stop_signal	89.0	True	0.526	89.0	False	stim	crit_stop_failure	s590	False
198.865	0.85	0.15	2.55	1.0	71.0	motor_selective_stop_signal	71.0	True	0.524	89.0	False	stim	noncrit_nosignal	s590	False
201.417	0.85	0.15	2.35	1.0	89.0	motor_selective_stop_signal	89.0	True	0.614	89.0	False	stim	crit_go	s590	False
203.769	0.85	0.15	2.35	1.0	89.0	motor_selective_stop_signal	89.0	True	0.716	89.0	False	stim	crit_go	s590	False
206.121	0.85	0.15	2.25	1.0	71.0	motor_selective_stop_signal	71.0	True	0.716	89.0	False	stim	noncrit_nosignal	s590	False
208.372	0.85	0.15	2.45	1.0	71.0	motor_selective_stop_signal	71.0	True	0.665	89.0	False	stim	noncrit_signal	s590	False
210.825	0.85	0.15	2.25	1.0	89.0	motor_selective_stop_signal	89.0	True	0.784	89.0	False	stim	crit_go	s590	False
213.078	0.85	0.15	2.45	1.0	71.0	motor_selective_stop_signal	71.0	True	0.559	89.0	False	stim	noncrit_signal	s590	False
215.535	0.85	0.15	2.65	1.0	89.0	motor_selective_stop_signal	-1.0	True	n/a	89.0	True	stim	crit_stop_success	s590	False
218.186	0.85	0.2	2.45	1.0	89.0	motor_selective_stop_signal	89.0	True	0.69	89.0	False	stim	crit_go	s590	False
220.64	0.85	0.2	2.35	1.0	71.0	motor_selective_stop_signal	71.0	True	0.77	89.0	False	stim	noncrit_nosignal	s590	False
222.996	0.85	0.2	2.25	1.0	71.0	motor_selective_stop_signal	71.0	True	0.64	89.0	False	stim	noncrit_signal	s590	False
225.249	0.85	0.2	2.55	1.0	71.0	motor_selective_stop_signal	71.0	True	0.571	89.0	False	stim	noncrit_nosignal	s590	False
227.801	0.85	0.2	2.25	1.0	71.0	motor_selective_stop_signal	71.0	True	0.496	89.0	False	stim	noncrit_nosignal	s590	False
230.053	0.85	0.2	2.25	1.0	89.0	motor_selective_stop_signal	89.0	True	0.751	89.0	False	stim	crit_go	s590	False
232.308	0.85	0.2	2.35	1.0	89.0	motor_selective_stop_signal	89.0	True	0.647	89.0	False	stim	crit_go	s590	False
234.66	0.85	0.2	2.25	1.0	89.0	motor_selective_stop_signal	89.0	True	0.644	89.0	False	stim	crit_go	s590	False
236.917	0.85	0.2	2.65	1.0	71.0	motor_selective_stop_signal	71.0	True	0.771	89.0	False	stim	noncrit_signal	s590	False
239.569	0.85	0.2	2.35	1.0	71.0	motor_selective_stop_signal	71.0	True	0.518	89.0	False	stim	noncrit_signal	s590	False
241.923	0.85	0.2	2.45	1.0	89.0	motor_selective_stop_signal	89.0	True	0.571	89.0	False	stim	crit_go	s590	False
244.379	0.85	0.2	2.35	1.0	71.0	motor_selective_stop_signal	71.0	True	0.572	89.0	False	stim	noncrit_signal	s590	False
246.731	0.85	0.2	2.25	1.0	89.0	motor_selective_stop_signal	89.0	True	0.47	89.0	False	stim	crit_stop_failure	s590	False
248.986	0.85	0.15	2.25	1.0	89.0	motor_selective_stop_signal	89.0	True	0.433	89.0	False	stim	crit_go	s590	False
251.238	0.85	0.15	2.25	1.0	89.0	motor_selective_stop_signal	-1.0	True	n/a	89.0	True	stim	crit_stop_success	s590	False
253.492	0.85	0.2	2.25	1.0	89.0	motor_selective_stop_signal	89.0	True	0.525	89.0	False	stim	crit_go	s590	False
266.252	0.85	0.2	2.35	1.0	89.0	motor_selective_stop_signal	-1.0	True	n/a	89.0	True	stim	crit_stop_success	s590	False
268.607	0.85	0.25	3.35	1.0	71.0	motor_selective_stop_signal	71.0	True	0.508	89.0	False	stim	noncrit_nosignal	s590	False
271.962	0.85	0.25	2.55	1.0	89.0	motor_selective_stop_signal	89.0	True	0.609	89.0	False	stim	crit_go	s590	False
274.514	0.85	0.25	2.75	1.0	89.0	motor_selective_stop_signal	89.0	True	0.576	89.0	False	stim	crit_stop_failure	s590	False
277.267	0.85	0.2	2.75	1.0	71.0	motor_selective_stop_signal	71.0	True	0.571	89.0	False	stim	noncrit_nosignal	s590	False
280.019	0.85	0.2	2.65	1.0	71.0	motor_selective_stop_signal	71.0	True	0.533	89.0	False	stim	noncrit_nosignal	s590	False
282.675	0.85	0.2	2.45	1.0	89.0	motor_selective_stop_signal	89.0	True	0.73	89.0	False	stim	crit_stop_failure	s590	False
285.127	0.85	0.15	2.25	1.0	71.0	motor_selective_stop_signal	71.0	True	0.511	89.0	False	stim	noncrit_nosignal	s590	False
287.379	0.85	0.15	2.35	1.0	89.0	motor_selective_stop_signal	89.0	True	0.747	89.0	False	stim	crit_go	s590	False
289.731	0.85	0.15	2.45	1.0	89.0	motor_selective_stop_signal	89.0	True	0.455	89.0	False	stim	crit_go	s590	False
292.183	0.85	0.15	3.05	1.0	89.0	motor_selective_stop_signal	89.0	True	0.657	89.0	False	stim	crit_go	s590	False
295.234	0.85	0.15	2.35	1.0	89.0	motor_selective_stop_signal	89.0	True	0.517	89.0	False	stim	crit_go	s590	False
297.586	0.85	0.15	2.25	1.0	71.0	motor_selective_stop_signal	71.0	True	0.558	89.0	False	stim	noncrit_signal	s590	False
299.837	0.85	0.15	2.35	1.0	89.0	motor_selective_stop_signal	89.0	True	0.756	89.0	False	stim	crit_go	s590	False
302.188	0.85	0.15	2.35	1.0	71.0	motor_selective_stop_signal	71.0	True	0.713	89.0	False	stim	noncrit_nosignal	s590	False
304.541	0.85	0.15	2.35	1.0	71.0	motor_selective_stop_signal	71.0	True	0.84	89.0	False	stim	noncrit_nosignal	s590	False
306.893	0.85	0.15	2.35	1.0	71.0	motor_selective_stop_signal	71.0	True	0.704	89.0	False	stim	noncrit_signal	s590	False
309.245	0.85	0.15	2.35	1.0	71.0	motor_selective_stop_signal	71.0	True	0.54	89.0	False	stim	noncrit_nosignal	s590	False
311.601	0.85	0.15	2.25	1.0	89.0	motor_selective_stop_signal	89.0	True	0.795	89.0	False	stim	crit_go	s590	False
313.854	0.85	0.15	2.35	1.0	89.0	motor_selective_stop_signal	-1.0	True	n/a	89.0	True	stim	crit_stop_success	s590	False
316.206	0.85	0.2	2.45	1.0	71.0	motor_selective_stop_signal	71.0	True	0.628	89.0	False	stim	noncrit_nosignal	s590	False
318.659	0.85	0.2	2.35	1.0	71.0	motor_selective_stop_signal	71.0	True	0.536	89.0	False	stim	noncrit_nosignal	s590	False
321.012	0.85	0.2	2.85	1.0	89.0	motor_selective_stop_signal	89.0	True	0.621	89.0	False	stim	crit_go	s590	False
323.863	0.85	0.2	2.55	1.0	89.0	motor_selective_stop_signal	89.0	True	0.626	89.0	False	stim	crit_go	s590	False
326.419	0.85	0.2	2.75	1.0	89.0	motor_selective_stop_signal	89.0	True	0.817	89.0	False	stim	crit_go	s590	False
329.175	0.85	0.2	2.25	1.0	71.0	motor_selective_stop_signal	71.0	True	0.611	89.0	False	stim	noncrit_signal	s590	False
331.429	0.85	0.2	2.25	1.0	89.0	motor_selective_stop_signal	89.0	True	0.831	89.0	False	stim	crit_go	s590	False
333.685	0.85	0.2	2.85	1.0	89.0	motor_selective_stop_signal	-1.0	True	n/a	89.0	True	stim	crit_stop_success	s590	False
336.537	0.85	0.25	2.35	1.0	71.0	motor_selective_stop_signal	71.0	True	0.524	89.0	False	stim	noncrit_nosignal	s590	False
338.893	0.85	0.25	2.25	1.0	89.0	motor_selective_stop_signal	89.0	True	0.645	89.0	False	stim	crit_go	s590	False
341.145	0.85	0.25	2.25	1.0	89.0	motor_selective_stop_signal	-1.0	True	n/a	89.0	True	stim	crit_stop_success	s590	False
343.399	0.85	0.3	2.25	1.0	89.0	motor_selective_stop_signal	89.0	True	0.619	89.0	False	stim	crit_go	s590	False
345.652	0.85	0.3	2.35	1.0	89.0	motor_selective_stop_signal	89.0	True	0.766	89.0	False	stim	crit_go	s590	False
348.008	0.85	0.3	2.65	1.0	89.0	motor_selective_stop_signal	89.0	True	0.491	89.0	False	stim	crit_go	s590	False
350.662	0.85	0.3	2.75	1.0	89.0	motor_selective_stop_signal	89.0	True	0.416	89.0	False	stim	crit_stop_failure	s590	False
353.413	0.85	0.25	2.25	1.0	89.0	motor_selective_stop_signal	89.0	True	0.515	89.0	False	stim	crit_go	s590	False
355.668	0.85	0.25	2.75	1.0	89.0	motor_selective_stop_signal	-1.0	True	n/a	89.0	True	stim	crit_stop_success	s590	False
358.424	0.85	0.3	2.25	1.0	71.0	motor_selective_stop_signal	71.0	True	0.602	89.0	False	stim	noncrit_signal	s590	False
360.676	0.85	0.3	2.35	1.0	71.0	motor_selective_stop_signal	71.0	True	0.529	89.0	False	stim	noncrit_nosignal	s590	False
363.028	0.85	0.3	2.35	1.0	71.0	motor_selective_stop_signal	71.0	True	0.558	89.0	False	stim	noncrit_nosignal	s590	False
365.383	0.85	0.3	2.55	0.0	89.0	motor_selective_stop_signal	71.0	True	0.713	89.0	False	stim	crit_go	s590	False
367.939	0.85	0.3	2.25	1.0	89.0	motor_selective_stop_signal	89.0	True	0.466	89.0	False	stim	crit_go	s590	False
370.191	0.85	0.3	2.25	1.0	71.0	motor_selective_stop_signal	71.0	True	0.567	89.0	False	stim	noncrit_signal	s590	False
372.442	0.85	0.3	2.25	1.0	89.0	motor_selective_stop_signal	89.0	True	0.601	89.0	False	stim	crit_go	s590	False
374.698	0.85	0.3	2.35	1.0	71.0	motor_selective_stop_signal	71.0	True	0.602	89.0	False	stim	noncrit_nosignal	s590	False
377.052	0.85	0.3	2.65	1.0	89.0	motor_selective_stop_signal	89.0	True	0.58	89.0	False	stim	crit_stop_failure	s590	False
379.706	0.85	0.25	2.35	1.0	71.0	motor_selective_stop_signal	71.0	True	0.542	89.0	False	stim	noncrit_nosignal	s590	False
382.06	0.85	0.25	2.25	1.0	71.0	motor_selective_stop_signal	71.0	True	0.557	89.0	False	stim	noncrit_signal	s590	False
384.314	0.85	0.25	2.35	1.0	71.0	motor_selective_stop_signal	71.0	True	0.543	89.0	False	stim	noncrit_nosignal	s590	False
386.666	0.85	0.25	2.35	1.0	89.0	motor_selective_stop_signal	89.0	True	0.673	89.0	False	stim	crit_stop_failure	s590	False
399.532	0.85	0.2	2.85	1.0	71.0	motor_selective_stop_signal	71.0	True	0.527	89.0	False	stim	noncrit_nosignal	s590	False
402.384	0.85	0.2	2.45	1.0	89.0	motor_selective_stop_signal	89.0	True	0.372	89.0	False	stim	crit_go	s590	False
404.837	0.85	0.2	2.35	1.0	89.0	motor_selective_stop_signal	89.0	True	0.707	89.0	False	stim	crit_go	s590	False
407.189	0.85	0.2	2.65	1.0	71.0	motor_selective_stop_signal	71.0	True	0.633	89.0	False	stim	noncrit_nosignal	s590	False
409.84	0.85	0.2	2.25	1.0	89.0	motor_selective_stop_signal	89.0	True	0.685	89.0	False	stim	crit_go	s590	False
412.095	0.85	0.2	2.25	1.0	71.0	motor_selective_stop_signal	71.0	True	0.785	89.0	False	stim	noncrit_signal	s590	False
414.351	0.85	0.2	2.25	1.0	89.0	motor_selective_stop_signal	89.0	True	0.789	89.0	False	stim	crit_go	s590	False
416.604	0.85	0.2	2.45	1.0	71.0	motor_selective_stop_signal	71.0	True	0.507	89.0	False	stim	noncrit_nosignal	s590	False
419.057	0.85	0.2	2.35	1.0	71.0	motor_selective_stop_signal	71.0	True	0.491	89.0	False	stim	noncrit_nosignal	s590	False
421.408	0.85	0.2	2.25	1.0	89.0	motor_selective_stop_signal	89.0	True	0.667	89.0	False	stim	crit_stop_failure	s590	False
423.66	0.85	0.15	2.35	1.0	89.0	motor_selective_stop_signal	-1.0	True	n/a	89.0	True	stim	crit_stop_success	s590	False
426.013	0.85	0.2	2.45	1.0	71.0	motor_selective_stop_signal	71.0	True	0.476	89.0	False	stim	noncrit_signal	s590	False
428.464	0.85	0.2	2.35	1.0	71.0	motor_selective_stop_signal	71.0	True	0.568	89.0	False	stim	noncrit_nosignal	s590	False
430.816	0.85	0.2	2.25	1.0	71.0	motor_selective_stop_signal	71.0	True	0.372	89.0	False	stim	noncrit_nosignal	s590	False
433.072	0.85	0.2	2.25	1.0	71.0	motor_selective_stop_signal	71.0	True	0.545	89.0	False	stim	noncrit_nosignal	s590	False
435.323	0.85	0.2	2.35	1.0	71.0	motor_selective_stop_signal	71.0	True	0.632	89.0	False	stim	noncrit_signal	s590	False
437.675	0.85	0.2	2.35	1.0	89.0	motor_selective_stop_signal	-1.0	True	n/a	89.0	True	stim	crit_stop_success	s590	False
440.027	0.85	0.25	2.35	1.0	89.0	motor_selective_stop_signal	89.0	True	0.698	89.0	False	stim	crit_go	s590	False
442.381	0.85	0.25	2.95	1.0	89.0	motor_selective_stop_signal	89.0	True	0.571	89.0	False	stim	crit_go	s590	False
445.333	0.85	0.25	2.25	1.0	89.0	motor_selective_stop_signal	89.0	True	0.731	89.0	False	stim	crit_go	s590	False
447.585	0.85	0.25	2.35	1.0	71.0	motor_selective_stop_signal	71.0	True	0.692	89.0	False	stim	noncrit_nosignal	s590	False
449.937	0.85	0.25	2.25	1.0	71.0	motor_selective_stop_signal	71.0	True	0.538	89.0	False	stim	noncrit_nosignal	s590	False
452.192	0.85	0.25	2.45	1.0	71.0	motor_selective_stop_signal	71.0	True	0.492	89.0	False	stim	noncrit_signal	s590	False
454.643	0.85	0.25	2.35	1.0	71.0	motor_selective_stop_signal	71.0	True	0.52	89.0	False	stim	noncrit_signal	s590	False
456.997	0.85	0.25	2.55	1.0	71.0	motor_selective_stop_signal	71.0	True	0.522	89.0	False	stim	noncrit_signal	s590	False
459.551	0.85	0.25	2.55	1.0	89.0	motor_selective_stop_signal	89.0	True	0.746	89.0	False	stim	crit_go	s590	False
462.107	0.85	0.25	2.25	1.0	89.0	motor_selective_stop_signal	89.0	True	0.62	89.0	False	stim	crit_go	s590	False
464.359	0.85	0.25	2.25	1.0	71.0	motor_selective_stop_signal	71.0	True	0.722	89.0	False	stim	noncrit_nosignal	s590	False
466.61	0.85	0.25	2.75	1.0	89.0	motor_selective_stop_signal	-1.0	True	n/a	89.0	True	stim	crit_stop_success	s590	False
469.362	0.85	0.3	2.35	1.0	89.0	motor_selective_stop_signal	89.0	True	0.536	89.0	False	stim	crit_stop_failure	s590	False
471.714	0.85	0.25	2.25	1.0	89.0	motor_selective_stop_signal	-1.0	True	n/a	89.0	True	stim	crit_stop_success	s590	False
473.966	0.85	0.3	2.45	1.0	89.0	motor_selective_stop_signal	89.0	True	0.738	89.0	False	stim	crit_go	s590	False
476.418	0.85	0.3	2.25	1.0	71.0	motor_selective_stop_signal	71.0	True	0.909	89.0	False	stim	noncrit_nosignal	s590	False
478.669	0.85	0.3	2.35	1.0	71.0	motor_selective_stop_signal	71.0	True	0.567	89.0	False	stim	noncrit_nosignal	s590	False
481.025	0.85	0.3	2.25	1.0	89.0	motor_selective_stop_signal	89.0	True	1.102	89.0	False	stim	crit_go	s590	False
483.277	0.85	0.3	2.25	1.0	89.0	motor_selective_stop_signal	89.0	True	0.519	89.0	False	stim	crit_stop_failure	s590	False
485.531	0.85	0.25	2.25	1.0	89.0	motor_selective_stop_signal	-1.0	True	n/a	89.0	True	stim	crit_stop_success	s590	False
487.783	0.85	0.3	2.25	1.0	89.0	motor_selective_stop_signal	89.0	True	0.851	89.0	False	stim	crit_go	s590	False
490.035	0.85	0.3	2.25	1.0	71.0	motor_selective_stop_signal	71.0	True	0.56	89.0	False	stim	noncrit_nosignal	s590	False
492.287	0.85	0.3	2.35	1.0	71.0	motor_selective_stop_signal	71.0	True	0.518	89.0	False	stim	noncrit_signal	s590	False
494.64	0.85	0.3	2.55	1.0	89.0	motor_selective_stop_signal	-1.0	True	n/a	89.0	True	stim	crit_stop_success	s590	False
497.195	0.85	0.35	2.95	1.0	71.0	motor_selective_stop_signal	71.0	True	0.548	89.0	False	stim	noncrit_nosignal	s590	False
500.146	0.85	0.35	2.25	1.0	89.0	motor_selective_stop_signal	-1.0	True	n/a	89.0	True	stim	crit_stop_success	s590	False
502.398	0.85	0.4	2.35	1.0	89.0	motor_selective_stop_signal	89.0	True	1.014	89.0	False	stim	crit_go	s590	False
504.749	0.85	0.4	2.55	1.0	71.0	motor_selective_stop_signal	71.0	True	0.602	89.0	False	stim	noncrit_nosignal	s590	False
507.303	0.85	0.4	2.25	1.0	71.0	motor_selective_stop_signal	71.0	True	0.612	89.0	False	stim	noncrit_signal	s590	False
509.555	0.85	0.4	2.35	1.0	71.0	motor_selective_stop_signal	71.0	True	0.573	89.0	False	stim	noncrit_signal	s590	False
511.91	0.85	0.4	2.55	1.0	71.0	motor_selective_stop_signal	71.0	True	0.454	89.0	False	stim	noncrit_signal	s590	False
514.464	0.85	0.4	2.45	1.0	71.0	motor_selective_stop_signal	71.0	True	0.716	89.0	False	stim	noncrit_signal	s590	False
516.915	0.85	0.4	2.35	1.0	71.0	motor_selective_stop_signal	71.0	True	0.656	89.0	False	stim	noncrit_nosignal	s590	False
529.779	0.85	0.4	2.65	1.0	89.0	motor_selective_stop_signal	89.0	True	0.461	89.0	False	stim	crit_go	s590	False
532.433	0.85	0.4	2.55	1.0	71.0	motor_selective_stop_signal	71.0	True	0.559	89.0	False	stim	noncrit_nosignal	s590	False
534.987	0.85	0.4	2.75	1.0	89.0	motor_selective_stop_signal	89.0	True	0.634	89.0	False	stim	crit_stop_failure	s590	False
537.74	0.85	0.35	2.55	1.0	89.0	motor_selective_stop_signal	89.0	True	0.553	89.0	False	stim	crit_stop_failure	s590	False
540.293	0.85	0.3	2.45	1.0	71.0	motor_selective_stop_signal	71.0	True	0.667	89.0	False	stim	noncrit_signal	s590	False
542.746	0.85	0.3	2.75	1.0	89.0	motor_selective_stop_signal	89.0	True	0.606	89.0	False	stim	crit_go	s590	False
545.497	0.85	0.3	2.55	1.0	71.0	motor_selective_stop_signal	71.0	True	0.596	89.0	False	stim	noncrit_nosignal	s590	False
548.052	0.85	0.3	2.35	1.0	89.0	motor_selective_stop_signal	-1.0	True	n/a	89.0	True	stim	crit_stop_success	s590	False
550.405	0.85	0.35	2.25	1.0	89.0	motor_selective_stop_signal	89.0	True	0.757	89.0	False	stim	crit_go	s590	False
552.659	0.85	0.35	2.65	1.0	71.0	motor_selective_stop_signal	71.0	True	0.529	89.0	False	stim	noncrit_nosignal	s590	False
555.311	0.85	0.35	2.25	1.0	89.0	motor_selective_stop_signal	-1.0	True	n/a	89.0	True	stim	crit_stop_success	s590	False
557.562	0.85	0.4	2.35	1.0	71.0	motor_selective_stop_signal	71.0	True	0.473	89.0	False	stim	noncrit_nosignal	s590	False
559.918	0.85	0.4	2.25	1.0	89.0	motor_selective_stop_signal	89.0	True	0.681	89.0	False	stim	crit_go	s590	False
562.17	0.85	0.4	2.35	1.0	71.0	motor_selective_stop_signal	71.0	True	0.523	89.0	False	stim	noncrit_nosignal	s590	False
564.522	0.85	0.4	2.35	1.0	71.0	motor_selective_stop_signal	71.0	True	0.558	89.0	False	stim	noncrit_nosignal	s590	False
566.874	0.85	0.4	2.25	1.0	71.0	motor_selective_stop_signal	71.0	True	0.47	89.0	False	stim	noncrit_nosignal	s590	False
569.127	0.85	0.4	2.85	1.0	71.0	motor_selective_stop_signal	71.0	True	0.486	89.0	False	stim	noncrit_signal	s590	False
571.979	0.85	0.4	2.35	1.0	89.0	motor_selective_stop_signal	89.0	True	0.674	89.0	False	stim	crit_go	s590	False
574.335	0.85	0.4	2.25	1.0	89.0	motor_selective_stop_signal	89.0	True	0.793	89.0	False	stim	crit_go	s590	False
576.591	0.85	0.4	2.35	1.0	71.0	motor_selective_stop_signal	71.0	True	1.021	89.0	False	stim	noncrit_nosignal	s590	False
578.945	0.85	0.4	2.45	1.0	89.0	motor_selective_stop_signal	89.0	True	0.589	89.0	False	stim	crit_go	s590	False
581.396	0.85	0.4	2.25	1.0	89.0	motor_selective_stop_signal	89.0	True	0.608	89.0	False	stim	crit_stop_failure	s590	False
583.652	0.85	0.35	2.25	1.0	71.0	motor_selective_stop_signal	71.0	True	0.486	89.0	False	stim	noncrit_signal	s590	False
585.904	0.85	0.35	2.75	1.0	71.0	motor_selective_stop_signal	71.0	True	0.62	89.0	False	stim	noncrit_nosignal	s590	False
588.655	0.85	0.35	2.35	1.0	71.0	motor_selective_stop_signal	71.0	True	0.693	89.0	False	stim	noncrit_signal	s590	False
591.008	0.85	0.35	2.75	1.0	71.0	motor_selective_stop_signal	71.0	True	0.575	89.0	False	stim	noncrit_nosignal	s590	False
593.762	0.85	0.35	2.45	1.0	71.0	motor_selective_stop_signal	71.0	True	0.55	89.0	False	stim	noncrit_nosignal	s590	False
596.213	0.85	0.35	2.25	1.0	71.0	motor_selective_stop_signal	71.0	True	0.523	89.0	False	stim	noncrit_nosignal	s590	False
598.465	0.85	0.35	2.35	1.0	89.0	motor_selective_stop_signal	-1.0	True	n/a	89.0	True	stim	crit_stop_success	s590	False
600.821	0.85	0.4	2.65	1.0	89.0	motor_selective_stop_signal	89.0	True	0.714	89.0	False	stim	crit_go	s590	False
603.474	0.85	0.4	2.45	1.0	89.0	motor_selective_stop_signal	-1.0	True	n/a	89.0	True	stim	crit_stop_success	s590	False
605.925	0.85	0.45	2.25	1.0	71.0	motor_selective_stop_signal	71.0	True	0.514	89.0	False	stim	noncrit_nosignal	s590	False
608.177	0.85	0.45	2.35	1.0	71.0	motor_selective_stop_signal	71.0	True	0.532	89.0	False	stim	noncrit_signal	s590	False
610.531	0.85	0.45	2.95	1.0	71.0	motor_selective_stop_signal	71.0	True	0.394	89.0	False	stim	noncrit_signal	s590	False
613.483	0.85	0.45	2.25	1.0	71.0	motor_selective_stop_signal	71.0	True	0.5	89.0	False	stim	noncrit_nosignal	s590	False
615.737	0.85	0.45	2.95	1.0	71.0	motor_selective_stop_signal	71.0	True	0.565	89.0	False	stim	noncrit_nosignal	s590	False
618.691	0.85	0.45	2.45	1.0	71.0	motor_selective_stop_signal	71.0	True	0.539	89.0	False	stim	noncrit_signal	s590	False
621.142	0.85	0.45	2.25	1.0	89.0	motor_selective_stop_signal	-1.0	True	n/a	89.0	True	stim	crit_stop_success	s590	False
623.393	0.85	0.5	2.35	1.0	89.0	motor_selective_stop_signal	89.0	True	0.739	89.0	False	stim	crit_go	s590	False
625.747	0.85	0.5	2.45	0.0	89.0	motor_selective_stop_signal	71.0	True	1.375	89.0	False	stim	crit_go	s590	False
628.198	0.85	0.5	2.25	1.0	89.0	motor_selective_stop_signal	89.0	True	0.661	89.0	False	stim	crit_stop_failure	s590	False
630.451	0.85	0.45	2.45	1.0	71.0	motor_selective_stop_signal	71.0	True	0.5	89.0	False	stim	noncrit_signal	s590	False
632.903	0.85	0.45	2.75	1.0	71.0	motor_selective_stop_signal	71.0	True	0.355	89.0	False	stim	noncrit_nosignal	s590	False
635.659	0.85	0.45	2.25	1.0	71.0	motor_selective_stop_signal	71.0	True	0.57	89.0	False	stim	noncrit_signal	s590	False
637.912	0.85	0.45	2.35	1.0	71.0	motor_selective_stop_signal	71.0	True	0.424	89.0	False	stim	noncrit_nosignal	s590	False
640.265	0.85	0.45	2.45	1.0	71.0	motor_selective_stop_signal	71.0	True	0.57	89.0	False	stim	noncrit_signal	s590	False
642.717	0.85	0.45	2.35	1.0	71.0	motor_selective_stop_signal	71.0	True	0.533	89.0	False	stim	noncrit_nosignal	s590	False
645.073	0.85	0.45	2.25	1.0	71.0	motor_selective_stop_signal	71.0	True	0.521	89.0	False	stim	noncrit_signal	s590	False
647.327	0.85	0.45	2.55	1.0	71.0	motor_selective_stop_signal	71.0	True	0.822	89.0	False	stim	noncrit_nosignal	s590	False
649.881	0.85	0.45	2.45	1.0	71.0	motor_selective_stop_signal	71.0	True	0.358	89.0	False	stim	noncrit_nosignal	s590	False
