onset	duration	movement_onset	EV	action	block_duration	experiment_exp_id	gain_amount	gain_probability	key_press	loss_amount	loss_probability	num_cards	num_click_in_round	num_loss_cards	risk	response_time	total_cards	trial_id	trial_type	worker_id	junk	feedback
3.014	3.049	6.063	-0.154630536525554	draw_card	3.049	columbia_card_task_fmri	12.0	0.8333333333333334	89.0	-70.0	0.1666666666666666	6.0	1.0	1.0	-2.3328602777868888	3.049	n/a	stim	poldrack-single-stim	s591	False	1
6.066	4.147	10.213	-2.8879638698588863	draw_card	4.147	columbia_card_task_fmri	12.0	0.8	89.0	-70.0	0.2	6.0	2.0	1.0	-0.0950066498465957	4.147	n/a	stim	poldrack-single-stim	s591	False	1
10.215	6.087	16.302	-6.987963869858888	draw_card	6.087	columbia_card_task_fmri	12.0	0.75	89.0	-70.0	0.25	6.0	3.0	1.0	2.609381761711404	6.087	n/a	stim	poldrack-single-stim	s591	False	1
16.304	1.115	17.419	-13.82129720319222	end_round	1.115	columbia_card_task_fmri	12.0	0.6666666666666667	71.0	-70.0	0.3333333333333333	6.0	4.0	1.0	5.75489223793268	1.115	3.0	stim	poldrack-single-stim	s591	False	1
18.173	1.5	17.422	n/a	-1.0	2.454	columbia_card_task_fmri	n/a	n/a	-1.0	n/a	n/a	n/a	n/a	n/a	n/a	n/a	n/a	ITI	poldrack-single-stim	s591	False	0
19.879	3.994	23.873	0.6787027968077799	draw_card	3.994	columbia_card_task_fmri	14.0	0.8333333333333334	89.0	-75.0	0.1666666666666666	6.0	1.0	1.0	0.272948592731062	3.994	1.0	stim	poldrack-single-stim	s591	False	0
24.626	1.5	23.875	n/a	-1.0	2.454	columbia_card_task_fmri	n/a	n/a	-1.0	n/a	n/a	n/a	n/a	n/a	n/a	n/a	n/a	ITI	poldrack-single-stim	s591	False	0
26.332	4.457	30.789	2.345369463474446	draw_card	4.457	columbia_card_task_fmri	15.0	0.8333333333333334	89.0	-70.0	0.1666666666666666	6.0	1.0	1.0	-1.2161441825328403	4.457	n/a	stim	poldrack-single-stim	s591	False	1
30.791	2.524	33.315	-0.4879638698588879	draw_card	2.524	columbia_card_task_fmri	15.0	0.8	89.0	-70.0	0.2	6.0	2.0	1.0	1.1037651888421465	2.524	n/a	stim	poldrack-single-stim	s591	False	1
33.316	3.599	36.915	-4.737963869858888	draw_card	3.599	columbia_card_task_fmri	15.0	0.75	89.0	-70.0	0.25	6.0	3.0	1.0	3.907285085026544	3.599	n/a	stim	poldrack-single-stim	s591	False	1
36.916	3.582	40.498	-11.821297203192218	draw_card	3.582	columbia_card_task_fmri	15.0	0.6666666666666667	89.0	-70.0	0.3333333333333333	6.0	4.0	1.0	7.168063222656443	3.582	n/a	stim	poldrack-single-stim	s591	False	1
40.499	0.878	41.377	-25.987963869858888	end_round	0.878	columbia_card_task_fmri	15.0	0.5	71.0	-70.0	0.5	6.0	5.0	1.0	9.597049015773692	0.878	4.0	stim	poldrack-single-stim	s591	False	1
42.131	1.5	41.38	n/a	-1.0	2.522	columbia_card_task_fmri	n/a	n/a	-1.0	n/a	n/a	n/a	n/a	n/a	n/a	n/a	n/a	ITI	poldrack-single-stim	s591	False	0
43.905	3.728	47.633	3.17870279680778	draw_card	3.728	columbia_card_task_fmri	17.0	0.8333333333333334	89.0	-75.0	0.1666666666666666	6.0	1.0	1.0	1.3898604350038752	3.728	n/a	stim	poldrack-single-stim	s591	False	1
47.635	4.339	51.974	0.1120361301411134	draw_card	4.339	columbia_card_task_fmri	17.0	0.8	89.0	-75.0	0.2	6.0	2.0	1.0	3.901210548752133	4.339	n/a	stim	poldrack-single-stim	s591	False	1
51.975	3.15	55.125	-4.487963869858888	end_round	3.15	columbia_card_task_fmri	17.0	0.75	71.0	-75.0	0.25	6.0	3.0	1.0	6.936013648216033	3.15	2.0	stim	poldrack-single-stim	s591	False	1
55.881	1.5	55.13	n/a	-1.0	2.454	columbia_card_task_fmri	n/a	n/a	-1.0	n/a	n/a	n/a	n/a	n/a	n/a	n/a	n/a	ITI	poldrack-single-stim	s591	False	0
57.586	4.647	62.233	4.512036130141112	draw_card	4.647	columbia_card_task_fmri	24.0	0.75	89.0	-60.0	0.25	8.0	1.0	2.0	3.474641649415375	4.647	n/a	stim	poldrack-single-stim	s591	False	1
62.235	3.839	66.074	1.512036130141112	draw_card	3.839	columbia_card_task_fmri	24.0	0.7142857142857143	89.0	-60.0	0.2857142857142857	8.0	2.0	2.0	5.047604430844856	3.839	n/a	stim	poldrack-single-stim	s591	False	1
66.077	3.074	69.151	-2.487963869858888	draw_card	3.074	columbia_card_task_fmri	24.0	0.6666666666666667	89.0	-60.0	0.3333333333333333	8.0	3.0	2.0	6.696997962397141	3.074	n/a	stim	poldrack-single-stim	s591	False	1
69.152	3.867	73.019	-8.08796386985889	draw_card	3.867	columbia_card_task_fmri	24.0	0.6	89.0	-60.0	0.4	8.0	4.0	2.0	8.249357275030476	3.867	n/a	stim	poldrack-single-stim	s591	False	1
73.02	1.526	74.546	-16.487963869858888	end_round	1.526	columbia_card_task_fmri	24.0	0.5	71.0	-60.0	0.5	8.0	5.0	2.0	9.09736891203405	1.526	4.0	stim	poldrack-single-stim	s591	False	1
75.298	1.5	74.547	n/a	-1.0	2.658	columbia_card_task_fmri	n/a	n/a	-1.0	n/a	n/a	n/a	n/a	n/a	n/a	n/a	n/a	ITI	poldrack-single-stim	s591	False	0
77.207	2.79	79.997	4.512036130141112	draw_card	2.79	columbia_card_task_fmri	29.0	0.75	89.0	-75.0	0.25	8.0	1.0	2.0	12.128858289111577	2.79	n/a	stim	poldrack-single-stim	s591	False	1
80.0	1.485	81.485	0.7977504158554003	draw_card	1.485	columbia_card_task_fmri	29.0	0.7142857142857143	89.0	-75.0	0.2857142857142857	8.0	2.0	2.0	14.07689602728002	1.485	n/a	stim	poldrack-single-stim	s591	False	1
81.487	0.467	81.954	-4.154630536525552	draw_card	0.467	columbia_card_task_fmri	29.0	0.6666666666666667	89.0	-75.0	0.3333333333333333	8.0	3.0	2.0	16.11954175402859	0.467	n/a	stim	poldrack-single-stim	s591	False	1
81.956	5.719	87.675	-11.08796386985889	draw_card	5.719	columbia_card_task_fmri	29.0	0.6	89.0	-75.0	0.4	8.0	4.0	2.0	18.041978650395777	5.719	4.0	stim	poldrack-single-stim	s591	False	0
88.429	1.5	87.678	n/a	-1.0	2.386	columbia_card_task_fmri	n/a	n/a	-1.0	n/a	n/a	n/a	n/a	n/a	n/a	n/a	n/a	ITI	poldrack-single-stim	s591	False	0
90.068	1.351	91.419	0.2898139079188924	draw_card	1.351	columbia_card_task_fmri	17.0	0.7777777777777778	89.0	-65.0	0.2222222222222222	9.0	1.0	2.0	1.194332103261914	1.351	1.0	stim	poldrack-single-stim	s591	False	0
92.171	1.5	91.42	n/a	-1.0	2.522	columbia_card_task_fmri	n/a	n/a	-1.0	n/a	n/a	n/a	n/a	n/a	n/a	n/a	n/a	ITI	poldrack-single-stim	s591	False	0
93.945	1.154	95.099	4.612036130141112	draw_card	1.154	columbia_card_task_fmri	14.0	0.9	89.0	-95.0	0.1	10.0	1.0	1.0	-0.1949002406611057	1.154	n/a	stim	poldrack-single-stim	s591	False	1
95.101	2.81	97.911	3.40092501903	draw_card	2.81	columbia_card_task_fmri	14.0	0.8888888888888888	89.0	-95.0	0.1111111111111111	10.0	2.0	1.0	1.3589100666327596	2.81	n/a	stim	poldrack-single-stim	s591	False	1
97.912	1.0	98.912	1.887036130141112	draw_card	1.0	columbia_card_task_fmri	14.0	0.875	89.0	-95.0	0.125	10.0	3.0	1.0	3.1502190200074125	1.0	n/a	stim	poldrack-single-stim	s591	False	1
98.915	0.619	99.534	-0.0593924412874591	draw_card	0.619	columbia_card_task_fmri	14.0	0.8571428571428572	89.0	-95.0	0.1428571428571428	10.0	4.0	1.0	5.242173467901985	0.619	n/a	stim	poldrack-single-stim	s591	False	1
99.537	0.499	100.036	-2.654630536525552	draw_card	0.499	columbia_card_task_fmri	14.0	0.8333333333333334	89.0	-95.0	0.1666666666666666	10.0	5.0	1.0	7.720192923179269	0.499	5.0	stim	poldrack-single-stim	s591	False	0
100.791	1.5	100.04	n/a	-1.0	2.59	columbia_card_task_fmri	n/a	n/a	-1.0	n/a	n/a	n/a	n/a	n/a	n/a	n/a	n/a	ITI	poldrack-single-stim	s591	False	0
102.633	0.707	103.34	0.512036130141112	draw_card	0.707	columbia_card_task_fmri	15.0	0.8	89.0	-65.0	0.2	10.0	1.0	2.0	-0.8941367853995104	0.707	n/a	stim	poldrack-single-stim	s591	False	1
103.343	1.783	105.126	-1.2657416476366647	draw_card	1.783	columbia_card_task_fmri	15.0	0.7777777777777778	89.0	-65.0	0.2222222222222222	10.0	2.0	2.0	0.363689717167361	1.783	n/a	stim	poldrack-single-stim	s591	False	1
105.127	3.118	108.245	-3.487963869858888	draw_card	3.118	columbia_card_task_fmri	15.0	0.75	89.0	-65.0	0.25	10.0	3.0	2.0	1.7441600965221014	3.118	n/a	stim	poldrack-single-stim	s591	False	1
108.247	2.738	110.985	-6.345106727001742	draw_card	2.738	columbia_card_task_fmri	15.0	0.7142857142857143	89.0	-65.0	0.2857142857142857	10.0	4.0	2.0	3.242092944546961	2.738	4.0	stim	poldrack-single-stim	s591	False	0
111.738	1.5	110.987	n/a	-1.0	2.386	columbia_card_task_fmri	n/a	n/a	-1.0	n/a	n/a	n/a	n/a	n/a	n/a	n/a	n/a	ITI	poldrack-single-stim	s591	False	0
113.376	0.628	114.004	2.1120361301411137	draw_card	0.628	columbia_card_task_fmri	17.0	0.8	89.0	-65.0	0.2	10.0	1.0	2.0	-0.0950066498465957	0.628	n/a	stim	poldrack-single-stim	s591	False	1
114.005	1.137	115.142	0.2898139079188924	draw_card	1.137	columbia_card_task_fmri	17.0	0.7777777777777778	89.0	-65.0	0.2222222222222222	10.0	2.0	2.0	1.194332103261914	1.137	n/a	stim	poldrack-single-stim	s591	False	1
115.145	0.736	115.881	-1.987963869858888	draw_card	0.736	columbia_card_task_fmri	17.0	0.75	89.0	-65.0	0.25	10.0	3.0	2.0	2.609381761711404	0.736	n/a	stim	poldrack-single-stim	s591	False	1
115.882	2.012	117.894	-4.916535298430315	draw_card	2.012	columbia_card_task_fmri	17.0	0.7142857142857143	89.0	-65.0	0.2857142857142857	10.0	4.0	2.0	4.14483036523356	2.012	n/a	stim	poldrack-single-stim	s591	False	1
117.897	1.425	119.322	-8.821297203192218	draw_card	1.425	columbia_card_task_fmri	17.0	0.6666666666666667	89.0	-65.0	0.3333333333333333	10.0	5.0	2.0	5.75489223793268	1.425	n/a	stim	poldrack-single-stim	s591	False	1
119.324	1.297	120.621	-14.287963869858888	end_round	1.297	columbia_card_task_fmri	17.0	0.6	71.0	-65.0	0.4	10.0	6.0	2.0	7.2702382012262206	1.297	5.0	stim	poldrack-single-stim	s591	False	1
121.374	1.5	120.623	n/a	-1.0	2.59	columbia_card_task_fmri	n/a	n/a	-1.0	n/a	n/a	n/a	n/a	n/a	n/a	n/a	n/a	ITI	poldrack-single-stim	s591	False	0
123.216	0.581	123.797	0.6787027968077799	draw_card	0.581	columbia_card_task_fmri	13.0	0.8333333333333334	89.0	-70.0	0.1666666666666666	12.0	1.0	2.0	-1.960632146001352	0.581	n/a	stim	poldrack-single-stim	s591	False	1
123.799	1.423	125.222	-0.5788729607679814	draw_card	1.423	columbia_card_task_fmri	13.0	0.8181818181818181	89.0	-70.0	0.1818181818181818	12.0	2.0	2.0	-0.8814984232496599	1.423	n/a	stim	poldrack-single-stim	s591	False	1
125.224	0.681	125.905	-2.0879638698588874	draw_card	0.681	columbia_card_task_fmri	13.0	0.8	89.0	-70.0	0.2	12.0	3.0	2.0	0.3045741135593118	0.681	n/a	stim	poldrack-single-stim	s591	False	1
125.908	1.592	127.5	-3.932408314303333	draw_card	1.592	columbia_card_task_fmri	13.0	0.7777777777777778	89.0	-70.0	0.2222222222222222	12.0	4.0	2.0	1.609668401309591	1.592	n/a	stim	poldrack-single-stim	s591	False	1
127.502	1.553	129.055	-6.237963869858888	draw_card	1.553	columbia_card_task_fmri	13.0	0.75	89.0	-70.0	0.25	12.0	5.0	2.0	3.042007100133141	1.553	5.0	stim	poldrack-single-stim	s591	False	0
129.809	1.5	129.058	n/a	-1.0	2.318	columbia_card_task_fmri	n/a	n/a	-1.0	n/a	n/a	n/a	n/a	n/a	n/a	n/a	n/a	ITI	poldrack-single-stim	s591	False	0
131.38	0.535	131.915	0.6787027968077799	draw_card	0.535	columbia_card_task_fmri	15.0	0.8333333333333334	89.0	-80.0	0.1666666666666666	12.0	1.0	2.0	2.5068430496771867	0.535	n/a	stim	poldrack-single-stim	s591	False	1
131.917	1.378	133.295	-0.7606911425861631	draw_card	1.378	columbia_card_task_fmri	15.0	0.8181818181818181	89.0	-80.0	0.1818181818181818	12.0	2.0	2.0	3.742332936177888	1.378	n/a	stim	poldrack-single-stim	s591	False	1
133.298	0.988	134.286	-2.487963869858888	draw_card	0.988	columbia_card_task_fmri	15.0	0.8	89.0	-80.0	0.2	12.0	3.0	2.0	5.100230806436635	0.988	n/a	stim	poldrack-single-stim	s591	False	1
134.289	1.47	135.759	-4.59907498097	draw_card	1.47	columbia_card_task_fmri	15.0	0.7777777777777778	89.0	-80.0	0.2222222222222222	12.0	4.0	2.0	6.594365621629272	1.47	n/a	stim	poldrack-single-stim	s591	False	1
135.762	1.984	137.746	-7.237963869858888	end_round	1.984	columbia_card_task_fmri	15.0	0.75	71.0	-80.0	0.25	12.0	5.0	2.0	8.23414654410145	1.984	4.0	stim	poldrack-single-stim	s591	False	1
138.502	1.5	137.751	n/a	-1.0	2.25	columbia_card_task_fmri	n/a	n/a	-1.0	n/a	n/a	n/a	n/a	n/a	n/a	n/a	n/a	ITI	poldrack-single-stim	s591	False	0
140.004	0.757	140.761	-0.2879638698588869	draw_card	0.757	columbia_card_task_fmri	14.0	0.8	89.0	-65.0	0.2	15.0	1.0	3.0	-1.293685364602425	0.757	1.0	stim	poldrack-single-stim	s591	False	0
141.515	1.5	140.764	n/a	-1.0	2.454	columbia_card_task_fmri	n/a	n/a	-1.0	n/a	n/a	n/a	n/a	n/a	n/a	n/a	n/a	ITI	poldrack-single-stim	s591	False	0
143.222	1.724	144.946	-0.3629638698588879	draw_card	1.724	columbia_card_task_fmri	1.0	0.9375	89.0	-45.0	0.0625	16.0	1.0	1.0	-21.69281914045007	1.724	n/a	stim	poldrack-single-stim	s591	False	1
144.949	2.221	147.17	-0.5546305365255544	draw_card	2.221	columbia_card_task_fmri	1.0	0.9333333333333332	89.0	-45.0	0.0666666666666666	16.0	2.0	1.0	-21.35622840698745	2.221	n/a	stim	poldrack-single-stim	s591	False	1
147.174	3.229	150.403	-0.7736781555731735	draw_card	3.229	columbia_card_task_fmri	1.0	0.9285714285714286	89.0	-45.0	0.0714285714285714	16.0	3.0	1.0	-20.98692569181276	3.229	n/a	stim	poldrack-single-stim	s591	False	1
150.405	2.317	152.722	-1.0264254083204265	end_round	2.317	columbia_card_task_fmri	1.0	0.9230769230769232	71.0	-45.0	0.0769230769230769	16.0	4.0	1.0	-20.57934266372849	2.317	3.0	stim	poldrack-single-stim	s591	False	1
153.475	1.5	152.724	n/a	-1.0	3.27	columbia_card_task_fmri	n/a	n/a	-1.0	n/a	n/a	n/a	n/a	n/a	n/a	n/a	n/a	ITI	poldrack-single-stim	s591	False	0
155.998	1.799	157.797	0.574536130141112	draw_card	1.799	columbia_card_task_fmri	15.0	0.8125	89.0	-70.0	0.1875	16.0	1.0	3.0	0.2811502773414105	1.799	n/a	stim	poldrack-single-stim	s591	False	1
157.801	0.888	158.689	-0.4879638698588879	draw_card	0.888	columbia_card_task_fmri	15.0	0.8	89.0	-70.0	0.2	16.0	2.0	3.0	1.1037651888421465	0.888	2.0	stim	poldrack-single-stim	s591	False	0
159.442	1.5	158.691	n/a	-1.0	2.25	columbia_card_task_fmri	n/a	n/a	-1.0	n/a	n/a	n/a	n/a	n/a	n/a	n/a	n/a	ITI	poldrack-single-stim	s591	False	0
160.945	0.662	161.607	7.512036130141112	draw_card	0.662	columbia_card_task_fmri	30.0	0.7	89.0	-50.0	0.3	10.0	1.0	3.0	3.7619340700351382	0.662	n/a	stim	poldrack-single-stim	s591	False	1
161.61	0.745	162.355	4.845369463474452	draw_card	0.745	columbia_card_task_fmri	30.0	0.6666666666666667	89.0	-50.0	0.3333333333333333	10.0	2.0	3.0	4.812821638003541	0.745	n/a	stim	poldrack-single-stim	s591	False	1
162.358	1.062	163.42	1.512036130141112	draw_card	1.062	columbia_card_task_fmri	30.0	0.625	89.0	-50.0	0.375	10.0	3.0	3.0	5.82949805112851	1.062	n/a	stim	poldrack-single-stim	s591	False	1
163.422	1.851	165.273	-2.7736781555731724	end_round	1.851	columbia_card_task_fmri	30.0	0.5714285714285714	71.0	-50.0	0.4285714285714285	10.0	4.0	3.0	6.688756967416623	1.851	3.0	stim	poldrack-single-stim	s591	False	1
166.029	1.5	165.278	n/a	-1.0	2.25	columbia_card_task_fmri	n/a	n/a	-1.0	n/a	n/a	n/a	n/a	n/a	n/a	n/a	n/a	ITI	poldrack-single-stim	s591	False	0
167.531	2.622	170.153	6.912036130141113	draw_card	2.622	columbia_card_task_fmri	17.0	0.8666666666666667	89.0	-70.0	0.1333333333333333	15.0	1.0	2.0	-3.3168989370579176	2.622	1.0	stim	poldrack-single-stim	s591	False	0
170.91	1.5	170.159	n/a	-1.0	2.318	columbia_card_task_fmri	n/a	n/a	-1.0	n/a	n/a	n/a	n/a	n/a	n/a	n/a	n/a	ITI	poldrack-single-stim	s591	False	0
172.481	3.542	176.023	2.1370361301411123	draw_card	3.542	columbia_card_task_fmri	7.0	0.9375	89.0	-95.0	0.0625	16.0	1.0	1.0	-8.19331540058041	3.542	n/a	stim	poldrack-single-stim	s591	False	1
176.026	0.923	176.949	1.7120361301411122	draw_card	0.923	columbia_card_task_fmri	7.0	0.9333333333333332	89.0	-95.0	0.0666666666666666	16.0	2.0	1.0	-7.441680496109697	0.923	n/a	stim	poldrack-single-stim	s591	False	1
176.952	2.151	179.103	1.2263218444268265	end_round	2.151	columbia_card_task_fmri	7.0	0.9285714285714286	71.0	-95.0	0.0714285714285714	16.0	3.0	1.0	-6.617342967499841	2.151	2.0	stim	poldrack-single-stim	s591	False	1
179.857	1.5	179.106	n/a	-1.0	2.726	columbia_card_task_fmri	n/a	n/a	-1.0	n/a	n/a	n/a	n/a	n/a	n/a	n/a	n/a	ITI	poldrack-single-stim	s591	False	0
181.836	1.358	183.194	3.699536130141112	draw_card	1.358	columbia_card_task_fmri	9.0	0.9375	89.0	-100.0	0.0625	16.0	1.0	1.0	-6.501850681030327	1.358	n/a	stim	poldrack-single-stim	s591	False	1
183.196	2.24	185.436	3.2453694634744457	draw_card	2.24	columbia_card_task_fmri	9.0	0.9333333333333332	89.0	-100.0	0.0666666666666666	16.0	2.0	1.0	-5.698451886321276	2.24	n/a	stim	poldrack-single-stim	s591	False	1
185.439	2.899	188.338	2.726321844426828	draw_card	2.899	columbia_card_task_fmri	9.0	0.9285714285714286	89.0	-100.0	0.0714285714285714	16.0	3.0	1.0	-4.817355454381751	2.899	n/a	stim	poldrack-single-stim	s591	False	1
188.34	3.211	191.551	2.127420745525728	draw_card	3.211	columbia_card_task_fmri	9.0	0.9230769230769232	89.0	-100.0	0.0769230769230769	16.0	4.0	1.0	-3.845349636168159	3.211	n/a	stim	poldrack-single-stim	s591	False	1
191.554	1.475	193.029	1.42870279680778	end_round	1.475	columbia_card_task_fmri	9.0	0.9166666666666666	71.0	-100.0	0.0833333333333333	16.0	5.0	1.0	-2.7659100877040146	1.475	4.0	stim	poldrack-single-stim	s591	False	1
193.782	1.5	193.031	n/a	-1.0	2.386	columbia_card_task_fmri	n/a	n/a	-1.0	n/a	n/a	n/a	n/a	n/a	n/a	n/a	n/a	ITI	poldrack-single-stim	s591	False	0
195.421	2.112	197.533	4.637036130141112	draw_card	2.112	columbia_card_task_fmri	15.0	0.875	89.0	-80.0	0.125	16.0	1.0	2.0	-1.4751796940816284	2.112	n/a	stim	poldrack-single-stim	s591	False	1
197.536	1.74	199.276	3.845369463474446	draw_card	1.74	columbia_card_task_fmri	15.0	0.8666666666666667	89.0	-80.0	0.1333333333333333	16.0	2.0	2.0	-0.6006709789444784	1.74	n/a	stim	poldrack-single-stim	s591	False	1
199.28	0.66	199.94	2.940607558712543	draw_card	0.66	columbia_card_task_fmri	15.0	0.8571428571428572	89.0	-80.0	0.1428571428571428	16.0	3.0	2.0	0.3476046483561106	0.66	n/a	stim	poldrack-single-stim	s591	False	1
199.943	0.824	200.767	1.8966515147564955	draw_card	0.824	columbia_card_task_fmri	15.0	0.8461538461538461	89.0	-80.0	0.1538461538461538	16.0	4.0	2.0	1.3796099138366458	0.824	n/a	stim	poldrack-single-stim	s591	False	1
200.77	0.802	201.572	0.6787027968077799	draw_card	0.802	columbia_card_task_fmri	15.0	0.8333333333333334	89.0	-80.0	0.1666666666666666	16.0	5.0	2.0	2.5068430496771867	0.802	5.0	stim	poldrack-single-stim	s591	False	0
202.325	1.5	201.574	n/a	-1.0	2.318	columbia_card_task_fmri	n/a	n/a	-1.0	n/a	n/a	n/a	n/a	n/a	n/a	n/a	n/a	ITI	poldrack-single-stim	s591	False	0
203.896	0.444	204.34	6.762036130141112	draw_card	0.444	columbia_card_task_fmri	16.0	0.875	89.0	-70.0	0.125	16.0	1.0	2.0	-4.447849594882296	0.444	n/a	stim	poldrack-single-stim	s591	False	1
204.342	0.464	204.806	6.0453694634744455	draw_card	0.464	columbia_card_task_fmri	16.0	0.8666666666666667	89.0	-70.0	0.1333333333333333	16.0	2.0	2.0	-3.656385010915088	0.464	n/a	stim	poldrack-single-stim	s591	False	1
204.809	0.785	205.594	5.226321844426828	draw_card	0.785	columbia_card_task_fmri	16.0	0.8571428571428572	89.0	-70.0	0.1428571428571428	16.0	3.0	2.0	-2.798146853101102	0.785	n/a	stim	poldrack-single-stim	s591	False	1
205.597	0.967	206.564	4.2812668993718805	draw_card	0.967	columbia_card_task_fmri	16.0	0.8461538461538461	89.0	-70.0	0.1538461538461538	16.0	4.0	2.0	-1.8641164604004032	0.967	n/a	stim	poldrack-single-stim	s591	False	1
206.567	0.722	207.289	3.17870279680778	draw_card	0.722	columbia_card_task_fmri	16.0	0.8333333333333334	89.0	-70.0	0.1666666666666666	16.0	5.0	2.0	-0.8438850863801548	0.722	n/a	stim	poldrack-single-stim	s591	False	1
207.292	1.197	208.489	1.8756724937774736	end_round	1.197	columbia_card_task_fmri	16.0	0.8181818181818181	71.0	-70.0	0.1818181818181818	16.0	6.0	2.0	0.2743417608048162	1.197	5.0	stim	poldrack-single-stim	s591	False	1
209.246	1.5	208.495	n/a	-1.0	2.25	columbia_card_task_fmri	n/a	n/a	-1.0	n/a	n/a	n/a	n/a	n/a	n/a	n/a	n/a	ITI	poldrack-single-stim	s591	False	0
210.748	1.102	211.85	8.074536130141112	draw_card	1.102	columbia_card_task_fmri	30.0	0.6875	89.0	-45.0	0.3125	16.0	1.0	5.0	1.8664583167381397	1.102	1.0	stim	poldrack-single-stim	s591	False	0
212.606	1.5	211.855	n/a	-1.0	2.25	columbia_card_task_fmri	n/a	n/a	-1.0	n/a	n/a	n/a	n/a	n/a	n/a	n/a	n/a	ITI	poldrack-single-stim	s591	False	0
214.109	1.214	215.323	-0.154630536525554	draw_card	1.214	columbia_card_task_fmri	13.0	0.8333333333333334	89.0	-75.0	0.1666666666666666	6.0	1.0	1.0	-0.099338379034414	1.214	n/a	stim	poldrack-single-stim	s591	False	1
215.326	1.0	216.326	-3.0879638698588874	draw_card	1.0	columbia_card_task_fmri	13.0	0.8	89.0	-75.0	0.2	6.0	2.0	1.0	2.302620645939733	1.0	n/a	stim	poldrack-single-stim	s591	False	1
216.329	0.696	217.025	-7.487963869858888	draw_card	0.696	columbia_card_task_fmri	13.0	0.75	89.0	-75.0	0.25	6.0	3.0	1.0	5.205265685336023	0.696	n/a	stim	poldrack-single-stim	s591	False	1
217.027	1.703	218.73	-14.82129720319222	end_round	1.703	columbia_card_task_fmri	13.0	0.6666666666666667	71.0	-75.0	0.3333333333333333	6.0	4.0	1.0	8.581305218923518	1.703	3.0	stim	poldrack-single-stim	s591	False	1
219.483	1.5	218.732	n/a	-1.0	2.454	columbia_card_task_fmri	n/a	n/a	-1.0	n/a	n/a	n/a	n/a	n/a	n/a	n/a	n/a	ITI	poldrack-single-stim	s591	False	0
221.19	2.004	223.194	1.5120361301411138	draw_card	2.004	columbia_card_task_fmri	14.0	0.8333333333333334	89.0	-70.0	0.1666666666666666	6.0	1.0	1.0	-1.58839332208467	2.004	n/a	stim	poldrack-single-stim	s591	False	1
223.198	2.046	225.244	-1.287963869858887	draw_card	2.046	columbia_card_task_fmri	14.0	0.8	89.0	-70.0	0.2	6.0	2.0	1.0	0.7041648434729595	2.046	2.0	stim	poldrack-single-stim	s591	False	0
226.002	1.5	225.251	n/a	-1.0	2.454	columbia_card_task_fmri	n/a	n/a	-1.0	n/a	n/a	n/a	n/a	n/a	n/a	n/a	n/a	ITI	poldrack-single-stim	s591	False	0
227.71	0.46	228.17	1.5120361301411138	draw_card	0.46	columbia_card_task_fmri	16.0	0.8333333333333334	89.0	-80.0	0.1666666666666666	6.0	1.0	1.0	2.879185170439051	0.46	n/a	stim	poldrack-single-stim	s591	False	1
228.173	0.769	228.942	-1.6879638698588872	draw_card	0.769	columbia_card_task_fmri	16.0	0.8	89.0	-80.0	0.2	6.0	2.0	1.0	5.499917817111957	0.769	n/a	stim	poldrack-single-stim	s591	False	1
228.944	0.428	229.372	-6.487963869858888	draw_card	0.428	columbia_card_task_fmri	16.0	0.75	89.0	-80.0	0.25	6.0	3.0	1.0	8.666870069070413	0.428	n/a	stim	poldrack-single-stim	s591	False	1
229.375	0.872	230.247	-14.487963869858884	end_round	0.872	columbia_card_task_fmri	16.0	0.6666666666666667	71.0	-80.0	0.3333333333333333	6.0	4.0	1.0	12.350247143214766	0.872	3.0	stim	poldrack-single-stim	s591	False	1
231.003	1.5	230.252	n/a	-1.0	2.522	columbia_card_task_fmri	n/a	n/a	-1.0	n/a	n/a	n/a	n/a	n/a	n/a	n/a	n/a	ITI	poldrack-single-stim	s591	False	0
232.778	0.653	233.431	4.012036130141114	draw_card	0.653	columbia_card_task_fmri	17.0	0.8333333333333334	89.0	-70.0	0.1666666666666666	6.0	1.0	1.0	-0.4716163761994849	0.653	n/a	stim	poldrack-single-stim	s591	False	1
233.434	1.102	234.536	1.1120361301411137	draw_card	1.102	columbia_card_task_fmri	17.0	0.8	89.0	-70.0	0.2	6.0	2.0	1.0	1.9029934022434676	1.102	n/a	stim	poldrack-single-stim	s591	False	1
234.539	1.859	236.398	-3.237963869858888	end_round	1.859	columbia_card_task_fmri	17.0	0.75	71.0	-70.0	0.25	6.0	3.0	1.0	4.772597391559387	1.859	2.0	stim	poldrack-single-stim	s591	False	1
237.155	1.5	236.404	n/a	-1.0	2.386	columbia_card_task_fmri	n/a	n/a	-1.0	n/a	n/a	n/a	n/a	n/a	n/a	n/a	n/a	ITI	poldrack-single-stim	s591	False	0
238.794	0.636	239.43	4.012036130141112	draw_card	0.636	columbia_card_task_fmri	25.0	0.75	89.0	-65.0	0.25	8.0	1.0	2.0	6.070625207050433	0.636	n/a	stim	poldrack-single-stim	s591	False	1
239.434	0.456	239.89	0.7977504158554003	draw_card	0.456	columbia_card_task_fmri	25.0	0.7142857142857143	89.0	-65.0	0.2857142857142857	8.0	2.0	2.0	7.756122103494199	0.456	n/a	stim	poldrack-single-stim	s591	False	1
239.893	0.641	240.534	-3.487963869858884	draw_card	0.641	columbia_card_task_fmri	25.0	0.6666666666666667	89.0	-65.0	0.3333333333333333	8.0	3.0	2.0	9.523502498530071	0.641	3.0	stim	poldrack-single-stim	s591	False	0
241.289	1.5	240.538	n/a	-1.0	2.454	columbia_card_task_fmri	n/a	n/a	-1.0	n/a	n/a	n/a	n/a	n/a	n/a	n/a	n/a	ITI	poldrack-single-stim	s591	False	0
242.996	0.363	243.359	4.012036130141112	draw_card	0.363	columbia_card_task_fmri	30.0	0.75	89.0	-80.0	0.25	8.0	1.0	2.0	14.725551024662876	0.363	n/a	stim	poldrack-single-stim	s591	False	1
243.363	0.564	243.927	0.0834647015696885	draw_card	0.564	columbia_card_task_fmri	30.0	0.7142857142857143	89.0	-80.0	0.2857142857142857	8.0	2.0	2.0	16.78609356827119	0.564	n/a	stim	poldrack-single-stim	s591	False	1
243.931	0.871	244.802	-5.1546305365255485	draw_card	0.871	columbia_card_task_fmri	30.0	0.6666666666666667	89.0	-80.0	0.3333333333333333	8.0	3.0	2.0	18.94669791634269	0.871	n/a	stim	poldrack-single-stim	s591	False	1
244.806	0.668	245.474	-12.487963869858888	end_round	0.668	columbia_card_task_fmri	30.0	0.6	71.0	-80.0	0.4	8.0	4.0	2.0	20.9801432964456	0.668	3.0	stim	poldrack-single-stim	s591	False	1
246.228	1.5	245.477	n/a	-1.0	2.522	columbia_card_task_fmri	n/a	n/a	-1.0	n/a	n/a	n/a	n/a	n/a	n/a	n/a	n/a	ITI	poldrack-single-stim	s591	False	0
248.003	0.843	248.846	3.712036130141113	draw_card	0.843	columbia_card_task_fmri	13.0	0.9	89.0	-95.0	0.1	10.0	1.0	1.0	-0.4945770784026067	0.843	1.0	stim	poldrack-single-stim	s591	False	0
249.6	1.5	248.849	n/a	-1.0	2.522	columbia_card_task_fmri	n/a	n/a	-1.0	n/a	n/a	n/a	n/a	n/a	n/a	n/a	n/a	ITI	poldrack-single-stim	s591	False	0
251.374	1.338	252.712	5.112036130141112	draw_card	1.338	columbia_card_task_fmri	14.0	0.9	89.0	-90.0	0.1	10.0	1.0	1.0	-1.6932223890034417	1.338	n/a	stim	poldrack-single-stim	s591	False	1
252.715	0.528	253.243	3.956480574585555	draw_card	0.528	columbia_card_task_fmri	14.0	0.8888888888888888	89.0	-90.0	0.1111111111111111	10.0	2.0	1.0	-0.2108364299909482	0.528	n/a	stim	poldrack-single-stim	s591	False	1
253.248	0.41	253.658	2.5120361301411123	draw_card	0.41	columbia_card_task_fmri	14.0	0.875	89.0	-90.0	0.125	10.0	3.0	1.0	1.49814690723543	0.41	n/a	stim	poldrack-single-stim	s591	False	1
253.661	0.431	254.092	0.6548932729982562	draw_card	0.431	columbia_card_task_fmri	14.0	0.8571428571428572	89.0	-90.0	0.1428571428571428	10.0	4.0	1.0	3.4939770356202544	0.431	n/a	stim	poldrack-single-stim	s591	False	1
254.095	1.071	255.166	-1.82129720319222	draw_card	1.071	columbia_card_task_fmri	14.0	0.8333333333333334	89.0	-90.0	0.1666666666666666	10.0	5.0	1.0	5.858154384966689	1.071	n/a	stim	poldrack-single-stim	s591	False	1
255.17	1.173	256.343	-5.287963869858887	end_round	1.173	columbia_card_task_fmri	14.0	0.8	71.0	-90.0	0.2	10.0	6.0	1.0	8.697630360285125	1.173	5.0	stim	poldrack-single-stim	s591	False	1
257.1	1.5	256.349	n/a	-1.0	2.59	columbia_card_task_fmri	n/a	n/a	-1.0	n/a	n/a	n/a	n/a	n/a	n/a	n/a	n/a	ITI	poldrack-single-stim	s591	False	0
258.942	0.412	259.354	0.3120361301411127	draw_card	0.412	columbia_card_task_fmri	16.0	0.8	89.0	-70.0	0.2	10.0	1.0	2.0	1.5033748149023651	0.412	n/a	stim	poldrack-single-stim	s591	False	1
259.359	0.344	259.703	-1.599074980969999	draw_card	0.344	columbia_card_task_fmri	16.0	0.7777777777777778	89.0	-70.0	0.2222222222222222	10.0	2.0	2.0	2.855733507931241	0.344	n/a	stim	poldrack-single-stim	s591	False	1
259.705	0.448	260.153	-3.987963869858888	draw_card	0.448	columbia_card_task_fmri	16.0	0.75	89.0	-70.0	0.25	10.0	3.0	2.0	4.339937097497781	0.448	n/a	stim	poldrack-single-stim	s591	False	1
260.158	0.619	260.777	-7.059392441287459	draw_card	0.619	columbia_card_task_fmri	16.0	0.7142857142857143	89.0	-70.0	0.2857142857142857	10.0	4.0	2.0	5.950412588767264	0.619	4.0	stim	poldrack-single-stim	s591	False	0
261.533	1.5	260.782	n/a	-1.0	2.454	columbia_card_task_fmri	n/a	n/a	-1.0	n/a	n/a	n/a	n/a	n/a	n/a	n/a	n/a	ITI	poldrack-single-stim	s591	False	0
263.241	0.463	263.704	-0.404630536525554	draw_card	0.463	columbia_card_task_fmri	7.0	0.9166666666666666	89.0	-100.0	0.0833333333333333	12.0	1.0	1.0	-3.3179729989941684	0.463	n/a	stim	poldrack-single-stim	s591	False	1
263.707	0.747	264.454	-1.2152365971316164	draw_card	0.747	columbia_card_task_fmri	7.0	0.9090909090909092	89.0	-100.0	0.0909090909090909	12.0	2.0	1.0	-2.132362400198545	0.747	n/a	stim	poldrack-single-stim	s591	False	1
264.458	0.622	265.08	-2.187963869858888	draw_card	0.622	columbia_card_task_fmri	7.0	0.9	89.0	-100.0	0.1	12.0	3.0	1.0	-0.7942478856673318	0.622	n/a	stim	poldrack-single-stim	s591	False	1
265.083	1.025	266.108	-3.376852758747777	draw_card	1.025	columbia_card_task_fmri	7.0	0.8888888888888888	89.0	-100.0	0.1111111111111111	12.0	4.0	1.0	0.7309935299692611	1.025	n/a	stim	poldrack-single-stim	s591	False	1
266.111	1.107	267.218	-4.862963869858888	draw_card	1.107	columbia_card_task_fmri	7.0	0.875	89.0	-100.0	0.125	12.0	5.0	1.0	2.4893731240408243	1.107	n/a	stim	poldrack-single-stim	s591	False	1
267.222	1.068	268.29	-6.773678155573172	end_round	1.068	columbia_card_task_fmri	7.0	0.8571428571428572	71.0	-100.0	0.1428571428571428	12.0	6.0	1.0	4.542878775348896	1.068	5.0	stim	poldrack-single-stim	s591	False	1
269.046	1.5	268.295	n/a	-1.0	2.318	columbia_card_task_fmri	n/a	n/a	-1.0	n/a	n/a	n/a	n/a	n/a	n/a	n/a	n/a	ITI	poldrack-single-stim	s591	False	0
270.618	0.737	271.355	-0.1546305365255522	draw_card	0.737	columbia_card_task_fmri	14.0	0.8333333333333334	89.0	-80.0	0.1666666666666666	12.0	1.0	2.0	2.13450806533843	0.737	n/a	stim	poldrack-single-stim	s591	False	1
271.359	0.476	271.835	-1.5788729607679814	draw_card	0.476	columbia_card_task_fmri	14.0	0.8181818181818181	89.0	-80.0	0.1818181818181818	12.0	2.0	2.0	3.356969794393123	0.476	n/a	stim	poldrack-single-stim	s591	False	1
271.839	1.54	273.379	-3.2879638698588867	draw_card	1.54	columbia_card_task_fmri	14.0	0.8	89.0	-80.0	0.2	12.0	3.0	2.0	4.700550447127903	1.54	n/a	stim	poldrack-single-stim	s591	False	1
273.383	1.315	274.698	-5.376852758747777	draw_card	1.315	columbia_card_task_fmri	14.0	0.7777777777777778	89.0	-80.0	0.2222222222222222	12.0	4.0	2.0	6.178933478613523	1.315	n/a	stim	poldrack-single-stim	s591	False	1
274.702	2.992	277.694	-7.987963869858888	draw_card	2.992	columbia_card_task_fmri	14.0	0.75	89.0	-80.0	0.25	12.0	5.0	2.0	7.801429165539524	2.992	n/a	stim	poldrack-single-stim	s591	False	1
277.698	4.892	282.59	-11.345106727001742	draw_card	4.892	columbia_card_task_fmri	14.0	0.7142857142857143	89.0	-80.0	0.2857142857142857	12.0	6.0	2.0	9.56194268150891	4.892	6.0	stim	poldrack-single-stim	s591	False	0
283.345	1.5	282.594	n/a	-1.0	2.25	columbia_card_task_fmri	n/a	n/a	-1.0	n/a	n/a	n/a	n/a	n/a	n/a	n/a	n/a	ITI	poldrack-single-stim	s591	False	0
284.848	0.764	285.612	1.512036130141112	draw_card	0.764	columbia_card_task_fmri	15.0	0.8333333333333334	89.0	-75.0	0.1666666666666666	12.0	1.0	2.0	0.6452442405606575	0.764	n/a	stim	poldrack-single-stim	s591	False	1
285.615	1.662	287.277	0.1483997665047469	draw_card	1.662	columbia_card_task_fmri	15.0	0.8181818181818181	89.0	-75.0	0.1818181818181818	12.0	2.0	2.0	1.8155907850716204	1.662	n/a	stim	poldrack-single-stim	s591	False	1
287.282	1.021	288.303	-1.487963869858888	draw_card	1.021	columbia_card_task_fmri	15.0	0.8	89.0	-75.0	0.2	12.0	3.0	2.0	3.1018999503021547	1.021	3.0	stim	poldrack-single-stim	s591	False	0
289.06	1.5	288.309	n/a	-1.0	2.658	columbia_card_task_fmri	n/a	n/a	-1.0	n/a	n/a	n/a	n/a	n/a	n/a	n/a	n/a	ITI	poldrack-single-stim	s591	False	0
290.973	1.226	292.199	0.512036130141112	draw_card	1.226	columbia_card_task_fmri	15.0	0.8	89.0	-65.0	0.2	15.0	1.0	3.0	-0.8941367853995104	1.226	n/a	stim	poldrack-single-stim	s591	False	1
292.203	0.84	293.043	-0.6308210127160303	draw_card	0.84	columbia_card_task_fmri	15.0	0.7857142857142857	89.0	-65.0	0.2142857142857142	15.0	2.0	3.0	-0.0689620208190646	0.84	n/a	stim	poldrack-single-stim	s591	False	1
293.047	0.626	293.673	-1.9495023313973516	draw_card	0.626	columbia_card_task_fmri	15.0	0.7692307692307692	89.0	-65.0	0.2307692307692307	15.0	3.0	3.0	0.810061547824219	0.626	3.0	stim	poldrack-single-stim	s591	False	0
294.431	1.5	293.68	n/a	-1.0	2.454	columbia_card_task_fmri	n/a	n/a	-1.0	n/a	n/a	n/a	n/a	n/a	n/a	n/a	n/a	ITI	poldrack-single-stim	s591	False	0
296.139	0.783	296.922	-0.2379638698588879	draw_card	0.783	columbia_card_task_fmri	14.0	0.8125	89.0	-70.0	0.1875	16.0	1.0	3.0	-0.1087525542635745	0.783	n/a	stim	poldrack-single-stim	s591	False	1
296.925	1.593	298.518	-1.287963869858887	draw_card	1.593	columbia_card_task_fmri	14.0	0.8	89.0	-70.0	0.2	16.0	2.0	3.0	0.7041648434729595	1.593	n/a	stim	poldrack-single-stim	s591	False	1
298.523	1.253	299.776	-2.487963869858888	end_round	1.253	columbia_card_task_fmri	14.0	0.7857142857142857	71.0	-70.0	0.2142857142857142	16.0	3.0	3.0	1.570685829997899	1.253	2.0	stim	poldrack-single-stim	s591	False	1
300.531	1.5	299.78	n/a	-1.0	2.386	columbia_card_task_fmri	n/a	n/a	-1.0	n/a	n/a	n/a	n/a	n/a	n/a	n/a	n/a	ITI	poldrack-single-stim	s591	False	0
302.171	0.452	302.623	-0.3004638698588879	draw_card	0.452	columbia_card_task_fmri	11.0	0.6875	89.0	-30.0	0.3125	16.0	1.0	5.0	-13.865773980592184	0.452	1.0	stim	poldrack-single-stim	s591	False	0
303.378	1.5	302.627	n/a	-1.0	2.59	columbia_card_task_fmri	n/a	n/a	-1.0	n/a	n/a	n/a	n/a	n/a	n/a	n/a	n/a	ITI	poldrack-single-stim	s591	False	0
305.222	0.672	305.894	4.512036130141112	draw_card	0.672	columbia_card_task_fmri	15.0	0.8666666666666667	89.0	-75.0	0.1333333333333333	15.0	1.0	2.0	-2.2983810196983754	0.672	n/a	stim	poldrack-single-stim	s591	False	1
305.898	0.932	306.83	3.654893272998256	draw_card	0.932	columbia_card_task_fmri	15.0	0.8571428571428572	89.0	-75.0	0.1428571428571428	15.0	2.0	2.0	-1.40012362451845	0.932	2.0	stim	poldrack-single-stim	s591	False	0
307.586	1.5	306.835	n/a	-1.0	2.318	columbia_card_task_fmri	n/a	n/a	-1.0	n/a	n/a	n/a	n/a	n/a	n/a	n/a	n/a	ITI	poldrack-single-stim	s591	False	0
309.158	0.612	309.77	6.245369463474447	draw_card	0.612	columbia_card_task_fmri	17.0	0.8666666666666667	89.0	-75.0	0.1333333333333333	15.0	1.0	2.0	-1.6193225647902132	0.612	n/a	stim	poldrack-single-stim	s591	False	1
309.774	3.324	313.098	5.369178987283972	draw_card	3.324	columbia_card_task_fmri	17.0	0.8571428571428572	89.0	-75.0	0.1428571428571428	15.0	2.0	2.0	-0.701057151695359	3.324	n/a	stim	poldrack-single-stim	s591	False	1
313.102	2.535	315.637	4.358189976294959	draw_card	2.535	columbia_card_task_fmri	17.0	0.8461538461538461	89.0	-75.0	0.1538461538461538	15.0	3.0	2.0	0.298292157455343	2.535	3.0	stim	poldrack-single-stim	s591	False	0
316.392	1.5	315.641	n/a	-1.0	2.59	columbia_card_task_fmri	n/a	n/a	-1.0	n/a	n/a	n/a	n/a	n/a	n/a	n/a	n/a	ITI	poldrack-single-stim	s591	False	0
318.237	0.463	318.7	1.824536130141112	draw_card	0.463	columbia_card_task_fmri	2.0	0.9375	89.0	-25.0	0.0625	16.0	1.0	1.0	-26.22155387733672	0.463	n/a	stim	poldrack-single-stim	s591	False	1
318.704	1.055	319.759	1.712036130141112	draw_card	1.055	columbia_card_task_fmri	2.0	0.9333333333333332	89.0	-25.0	0.0666666666666666	16.0	2.0	1.0	-26.027213027716712	1.055	n/a	stim	poldrack-single-stim	s591	False	1
319.762	2.082	321.844	1.5834647015696837	draw_card	2.082	columbia_card_task_fmri	2.0	0.9285714285714286	89.0	-25.0	0.0714285714285714	16.0	3.0	1.0	-25.81378068911718	2.082	n/a	stim	poldrack-single-stim	s591	False	1
321.848	1.392	323.24	1.4351130532180352	end_round	1.392	columbia_card_task_fmri	2.0	0.9230769230769232	71.0	-25.0	0.0769230769230769	16.0	4.0	1.0	-25.57799852256739	1.392	3.0	stim	poldrack-single-stim	s591	False	1
323.994	1.5	323.243	n/a	-1.0	2.386	columbia_card_task_fmri	n/a	n/a	-1.0	n/a	n/a	n/a	n/a	n/a	n/a	n/a	n/a	ITI	poldrack-single-stim	s591	False	0
325.634	3.535	329.169	4.012036130141112	draw_card	3.535	columbia_card_task_fmri	9.0	0.9375	89.0	-95.0	0.0625	16.0	1.0	1.0	-7.71008039234496	3.535	n/a	stim	poldrack-single-stim	s591	False	1
329.171	2.548	331.719	3.57870279680778	draw_card	2.548	columbia_card_task_fmri	9.0	0.9333333333333332	89.0	-95.0	0.0666666666666666	16.0	2.0	1.0	-6.9436546147980565	2.548	n/a	stim	poldrack-single-stim	s591	False	1
331.723	1.452	333.175	3.0834647015696843	draw_card	1.452	columbia_card_task_fmri	9.0	0.9285714285714286	89.0	-95.0	0.0714285714285714	16.0	3.0	1.0	-6.1030990288325135	1.452	n/a	stim	poldrack-single-stim	s591	False	1
333.18	1.131	334.311	2.5120361301411123	end_round	1.131	columbia_card_task_fmri	9.0	0.9230769230769232	71.0	-95.0	0.0769230769230769	16.0	4.0	1.0	-5.175808278117632	1.131	3.0	stim	poldrack-single-stim	s591	False	1
335.065	1.5	334.314	n/a	-1.0	2.318	columbia_card_task_fmri	n/a	n/a	-1.0	n/a	n/a	n/a	n/a	n/a	n/a	n/a	n/a	ITI	poldrack-single-stim	s591	False	0
336.638	1.88	338.518	5.574536130141112	draw_card	1.88	columbia_card_task_fmri	11.0	0.9375	89.0	-100.0	0.0625	16.0	1.0	1.0	-6.018506516616348	1.88	n/a	stim	poldrack-single-stim	s591	False	1
338.522	0.847	339.369	5.112036130141113	draw_card	0.847	columbia_card_task_fmri	11.0	0.9333333333333332	89.0	-100.0	0.0666666666666666	16.0	2.0	1.0	-5.2003200474576445	0.847	n/a	stim	poldrack-single-stim	s591	False	1
339.373	1.38	340.753	4.583464701569685	draw_card	1.38	columbia_card_task_fmri	11.0	0.9285714285714286	89.0	-100.0	0.0714285714285714	16.0	3.0	1.0	-4.3030088579814745	1.38	n/a	stim	poldrack-single-stim	s591	False	1
340.758	0.971	341.729	3.973574591679575	end_round	0.971	columbia_card_task_fmri	11.0	0.9230769230769232	71.0	-100.0	0.0769230769230769	16.0	4.0	1.0	-3.313118646583209	0.971	3.0	stim	poldrack-single-stim	s591	False	1
342.484	1.5	341.733	n/a	-1.0	2.318	columbia_card_task_fmri	n/a	n/a	-1.0	n/a	n/a	n/a	n/a	n/a	n/a	n/a	n/a	ITI	poldrack-single-stim	s591	False	0
344.056	4.171	348.227	6.137036130141112	draw_card	4.171	columbia_card_task_fmri	16.0	0.875	89.0	-75.0	0.125	16.0	1.0	2.0	-2.7964589444482897	4.171	n/a	stim	poldrack-single-stim	s591	False	1
348.231	0.521	348.752	5.378702796807779	draw_card	0.521	columbia_card_task_fmri	16.0	0.8666666666666667	89.0	-75.0	0.1333333333333333	16.0	2.0	2.0	-1.9588562392978053	0.521	n/a	stim	poldrack-single-stim	s591	False	1
348.756	0.468	349.224	4.512036130141114	draw_card	0.468	columbia_card_task_fmri	16.0	0.8571428571428572	89.0	-75.0	0.1428571428571428	16.0	3.0	2.0	-1.0505947090407588	0.468	n/a	stim	poldrack-single-stim	s591	False	1
349.228	0.741	349.969	3.5120361301411123	draw_card	0.741	columbia_card_task_fmri	16.0	0.8461538461538461	89.0	-75.0	0.1538461538461538	16.0	4.0	2.0	-0.0621312091479424	0.741	n/a	stim	poldrack-single-stim	s591	False	1
349.973	0.762	350.735	2.345369463474446	draw_card	0.762	columbia_card_task_fmri	16.0	0.8333333333333334	89.0	-75.0	0.1666666666666666	16.0	5.0	2.0	1.0175482790073076	0.762	n/a	stim	poldrack-single-stim	s591	False	1
350.74	2.289	353.029	0.9665815846865652	end_round	2.289	columbia_card_task_fmri	16.0	0.8181818181818181	71.0	-75.0	0.1818181818181818	16.0	6.0	2.0	2.2009240196170907	2.289	5.0	stim	poldrack-single-stim	s591	False	1
353.784	1.5	353.033	n/a	-1.0	2.318	columbia_card_task_fmri	n/a	n/a	-1.0	n/a	n/a	n/a	n/a	n/a	n/a	n/a	n/a	ITI	poldrack-single-stim	s591	False	0
355.357	0.574	355.931	6.387036130141112	end_round	0.574	columbia_card_task_fmri	17.0	0.875	71.0	-80.0	0.125	16.0	1.0	2.0	-0.814490780015241	0.574	0.0	stim	poldrack-single-stim	s591	False	1
356.696	1.5	355.945	n/a	-1.0	2.386	columbia_card_task_fmri	n/a	n/a	-1.0	n/a	n/a	n/a	n/a	n/a	n/a	n/a	n/a	ITI	poldrack-single-stim	s591	False	0
369.34	1.113	370.453	0.6787027968077799	draw_card	1.113	columbia_card_task_fmri	13.0	0.8333333333333334	89.0	-70.0	0.1666666666666666	6.0	1.0	1.0	-1.960632146001352	1.113	n/a	stim	poldrack-single-stim	s591	False	1
370.458	0.538	370.996	-2.0879638698588874	draw_card	0.538	columbia_card_task_fmri	13.0	0.8	89.0	-70.0	0.2	6.0	2.0	1.0	0.3045741135593118	0.538	n/a	stim	poldrack-single-stim	s591	False	1
370.999	0.432	371.431	-6.237963869858888	draw_card	0.432	columbia_card_task_fmri	13.0	0.75	89.0	-70.0	0.25	6.0	3.0	1.0	3.042007100133141	0.432	n/a	stim	poldrack-single-stim	s591	False	1
371.434	0.882	372.316	-13.154630536525552	end_round	0.882	columbia_card_task_fmri	13.0	0.6666666666666667	71.0	-70.0	0.3333333333333333	6.0	4.0	1.0	6.225940868054309	0.882	3.0	stim	poldrack-single-stim	s591	False	1
373.075	1.5	372.324	n/a	-1.0	2.25	columbia_card_task_fmri	n/a	n/a	-1.0	n/a	n/a	n/a	n/a	n/a	n/a	n/a	n/a	ITI	poldrack-single-stim	s591	False	0
374.579	1.287	375.866	0.6787027968077799	draw_card	1.287	columbia_card_task_fmri	15.0	0.8333333333333334	89.0	-80.0	0.1666666666666666	6.0	1.0	1.0	2.5068430496771867	1.287	n/a	stim	poldrack-single-stim	s591	False	1
375.871	0.79	376.661	-2.487963869858888	draw_card	0.79	columbia_card_task_fmri	15.0	0.8	89.0	-80.0	0.2	6.0	2.0	1.0	5.100230806436635	0.79	n/a	stim	poldrack-single-stim	s591	False	1
376.665	0.579	377.244	-7.237963869858888	draw_card	0.579	columbia_card_task_fmri	15.0	0.75	89.0	-80.0	0.25	6.0	3.0	1.0	8.23414654410145	0.579	n/a	stim	poldrack-single-stim	s591	False	1
377.248	0.731	377.979	-15.154630536525552	end_round	0.731	columbia_card_task_fmri	15.0	0.6666666666666667	71.0	-80.0	0.3333333333333333	6.0	4.0	1.0	11.879108289964677	0.731	3.0	stim	poldrack-single-stim	s591	False	1
378.737	1.5	377.986	n/a	-1.0	2.386	columbia_card_task_fmri	n/a	n/a	-1.0	n/a	n/a	n/a	n/a	n/a	n/a	n/a	n/a	ITI	poldrack-single-stim	s591	False	0
380.377	0.936	381.313	2.345369463474446	draw_card	0.936	columbia_card_task_fmri	16.0	0.8333333333333334	89.0	-75.0	0.1666666666666666	6.0	1.0	1.0	1.0175482790073076	0.936	n/a	stim	poldrack-single-stim	s591	False	1
381.317	0.594	381.911	-0.6879638698588872	draw_card	0.594	columbia_card_task_fmri	16.0	0.8	89.0	-75.0	0.2	6.0	2.0	1.0	3.5015514665013043	0.594	n/a	stim	poldrack-single-stim	s591	False	1
381.915	0.505	382.42	-5.237963869858888	draw_card	0.505	columbia_card_task_fmri	16.0	0.75	89.0	-75.0	0.25	6.0	3.0	1.0	6.503315931698673	0.505	n/a	stim	poldrack-single-stim	s591	False	1
382.424	0.529	382.953	-12.82129720319222	end_round	0.529	columbia_card_task_fmri	16.0	0.6666666666666667	71.0	-75.0	0.3333333333333333	6.0	4.0	1.0	9.994611212795329	0.529	3.0	stim	poldrack-single-stim	s591	False	1
383.711	1.5	382.96	n/a	-1.0	2.59	columbia_card_task_fmri	n/a	n/a	-1.0	n/a	n/a	n/a	n/a	n/a	n/a	n/a	n/a	ITI	poldrack-single-stim	s591	False	0
385.556	1.794	387.35	3.5120361301411123	draw_card	1.794	columbia_card_task_fmri	21.0	0.75	89.0	-55.0	0.25	8.0	1.0	2.0	0.0138434799138451	1.794	1.0	stim	poldrack-single-stim	s591	False	0
388.107	1.5	387.356	n/a	-1.0	2.658	columbia_card_task_fmri	n/a	n/a	-1.0	n/a	n/a	n/a	n/a	n/a	n/a	n/a	n/a	ITI	poldrack-single-stim	s591	False	0
390.019	0.934	390.953	4.762036130141112	draw_card	0.934	columbia_card_task_fmri	26.0	0.75	89.0	-65.0	0.25	8.0	1.0	2.0	6.503315931698673	0.934	n/a	stim	poldrack-single-stim	s591	False	1
390.956	0.42	391.376	1.5120361301411156	draw_card	0.42	columbia_card_task_fmri	26.0	0.7142857142857143	89.0	-65.0	0.2857142857142857	8.0	2.0	2.0	8.207567407132522	0.42	2.0	stim	poldrack-single-stim	s591	False	0
392.133	1.5	391.382	n/a	-1.0	2.386	columbia_card_task_fmri	n/a	n/a	-1.0	n/a	n/a	n/a	n/a	n/a	n/a	n/a	n/a	ITI	poldrack-single-stim	s591	False	0
393.775	0.424	394.199	-0.154630536525554	draw_card	0.424	columbia_card_task_fmri	15.0	0.7777777777777778	89.0	-60.0	0.2222222222222222	9.0	1.0	2.0	-1.7127212671430243	0.424	n/a	stim	poldrack-single-stim	s591	False	1
394.203	0.438	394.641	-2.237963869858888	draw_card	0.438	columbia_card_task_fmri	15.0	0.75	89.0	-60.0	0.25	9.0	2.0	2.0	-0.4187068167724987	0.438	2.0	stim	poldrack-single-stim	s591	False	0
395.396	1.5	394.645	n/a	-1.0	2.386	columbia_card_task_fmri	n/a	n/a	-1.0	n/a	n/a	n/a	n/a	n/a	n/a	n/a	n/a	ITI	poldrack-single-stim	s591	False	0
397.036	1.062	398.098	4.212036130141113	draw_card	1.062	columbia_card_task_fmri	13.0	0.9	89.0	-90.0	0.1	10.0	1.0	1.0	-1.992867305160388	1.062	n/a	stim	poldrack-single-stim	s591	False	1
398.102	0.724	398.826	3.067591685696668	draw_card	0.724	columbia_card_task_fmri	13.0	0.8888888888888888	89.0	-90.0	0.1111111111111111	10.0	2.0	1.0	-0.5247670961578521	0.724	n/a	stim	poldrack-single-stim	s591	False	1
398.831	1.758	400.589	1.637036130141112	end_round	1.758	columbia_card_task_fmri	13.0	0.875	71.0	-90.0	0.125	10.0	3.0	1.0	1.1677501964391084	1.758	2.0	stim	poldrack-single-stim	s591	False	1
401.347	1.5	400.596	n/a	-1.0	2.25	columbia_card_task_fmri	n/a	n/a	-1.0	n/a	n/a	n/a	n/a	n/a	n/a	n/a	n/a	ITI	poldrack-single-stim	s591	False	0
402.85	1.627	404.477	5.512036130141112	draw_card	1.627	columbia_card_task_fmri	15.0	0.9	89.0	-95.0	0.1	10.0	1.0	1.0	0.1047824634389726	1.627	n/a	stim	poldrack-single-stim	s591	False	1
404.481	0.454	404.935	4.289813907918889	draw_card	0.454	columbia_card_task_fmri	15.0	0.8888888888888888	89.0	-95.0	0.1111111111111111	10.0	2.0	1.0	1.6728768157091949	0.454	n/a	stim	poldrack-single-stim	s591	False	1
404.94	0.433	405.373	2.7620361301411123	draw_card	0.433	columbia_card_task_fmri	15.0	0.875	89.0	-95.0	0.125	10.0	3.0	1.0	3.480650029217145	0.433	n/a	stim	poldrack-single-stim	s591	False	1
405.377	0.864	406.241	0.7977504158553985	draw_card	0.864	columbia_card_task_fmri	15.0	0.8571428571428572	89.0	-95.0	0.1428571428571428	10.0	4.0	1.0	5.591828435065551	0.864	n/a	stim	poldrack-single-stim	s591	False	1
406.246	0.627	406.873	-1.82129720319222	end_round	0.627	columbia_card_task_fmri	15.0	0.8333333333333334	71.0	-95.0	0.1666666666666666	10.0	5.0	1.0	8.09261535847866	0.627	4.0	stim	poldrack-single-stim	s591	False	1
407.628	1.5	406.877	n/a	-1.0	2.318	columbia_card_task_fmri	n/a	n/a	-1.0	n/a	n/a	n/a	n/a	n/a	n/a	n/a	n/a	ITI	poldrack-single-stim	s591	False	0
409.202	1.068	410.27	1.3120361301411128	draw_card	1.068	columbia_card_task_fmri	16.0	0.8	89.0	-65.0	0.2	10.0	1.0	2.0	-0.4945770784026138	1.068	1.0	stim	poldrack-single-stim	s591	False	0
411.028	1.5	410.277	n/a	-1.0	2.25	columbia_card_task_fmri	n/a	n/a	-1.0	n/a	n/a	n/a	n/a	n/a	n/a	n/a	n/a	ITI	poldrack-single-stim	s591	False	0
412.532	0.881	413.413	0.012036130141112	draw_card	0.881	columbia_card_task_fmri	7.0	0.9166666666666666	89.0	-95.0	0.0833333333333333	12.0	1.0	1.0	-4.698009077708466	0.881	n/a	stim	poldrack-single-stim	s591	False	1
413.416	0.592	414.008	-0.7606911425861613	draw_card	0.592	columbia_card_task_fmri	7.0	0.9090909090909092	89.0	-95.0	0.0909090909090909	12.0	2.0	1.0	-3.5679431108688213	0.592	n/a	stim	poldrack-single-stim	s591	False	1
414.014	0.555	414.569	-1.687963869858888	draw_card	0.555	columbia_card_task_fmri	7.0	0.9	89.0	-95.0	0.1	12.0	3.0	1.0	-2.2925052714879754	0.555	n/a	stim	poldrack-single-stim	s591	False	1
414.574	0.742	415.316	-2.8212972031922217	draw_card	0.742	columbia_card_task_fmri	7.0	0.8888888888888888	89.0	-95.0	0.1111111111111111	12.0	4.0	1.0	-0.8386911259477117	0.742	n/a	stim	poldrack-single-stim	s591	False	1
415.321	0.654	415.975	-4.237963869858888	draw_card	0.654	columbia_card_task_fmri	7.0	0.875	89.0	-95.0	0.125	12.0	5.0	1.0	0.8373597939395623	0.654	n/a	stim	poldrack-single-stim	s591	False	1
415.981	1.294	417.275	-6.059392441287459	end_round	1.294	columbia_card_task_fmri	7.0	0.8571428571428572	71.0	-95.0	0.1428571428571428	12.0	6.0	1.0	2.794737915755981	1.294	5.0	stim	poldrack-single-stim	s591	False	1
418.03	1.5	417.279	n/a	-1.0	2.25	columbia_card_task_fmri	n/a	n/a	-1.0	n/a	n/a	n/a	n/a	n/a	n/a	n/a	n/a	ITI	poldrack-single-stim	s591	False	0
419.534	1.755	421.289	0.6787027968077799	draw_card	1.755	columbia_card_task_fmri	14.0	0.8333333333333334	89.0	-75.0	0.1666666666666666	12.0	1.0	2.0	0.272948592731062	1.755	n/a	stim	poldrack-single-stim	s591	False	1
421.295	0.485	421.78	-0.6697820516770714	draw_card	0.485	columbia_card_task_fmri	14.0	0.8181818181818181	89.0	-75.0	0.1818181818181818	12.0	2.0	2.0	1.430265659609752	0.485	n/a	stim	poldrack-single-stim	s591	False	1
421.783	0.442	422.225	-2.2879638698588867	draw_card	0.442	columbia_card_task_fmri	14.0	0.8	89.0	-75.0	0.2	12.0	3.0	2.0	2.7022562547384013	0.442	n/a	stim	poldrack-single-stim	s591	False	1
422.23	0.41	422.64	-4.265741647636663	draw_card	0.41	columbia_card_task_fmri	14.0	0.7777777777777778	89.0	-75.0	0.2222222222222222	12.0	4.0	2.0	4.101876313049033	0.41	4.0	stim	poldrack-single-stim	s591	False	0
423.395	1.5	422.644	n/a	-1.0	2.386	columbia_card_task_fmri	n/a	n/a	-1.0	n/a	n/a	n/a	n/a	n/a	n/a	n/a	n/a	ITI	poldrack-single-stim	s591	False	0
425.036	0.546	425.582	2.345369463474446	draw_card	0.546	columbia_card_task_fmri	15.0	0.8333333333333334	89.0	-70.0	0.1666666666666666	12.0	1.0	2.0	-1.2161441825328403	0.546	n/a	stim	poldrack-single-stim	s591	False	1
425.587	0.575	426.162	1.0574906755956552	draw_card	0.575	columbia_card_task_fmri	15.0	0.8181818181818181	89.0	-70.0	0.1818181818181818	12.0	2.0	2.0	-0.110948038988198	0.575	n/a	stim	poldrack-single-stim	s591	False	1
426.167	1.195	427.362	-0.4879638698588879	draw_card	1.195	columbia_card_task_fmri	15.0	0.8	89.0	-70.0	0.2	12.0	3.0	2.0	1.1037651888421465	1.195	n/a	stim	poldrack-single-stim	s591	False	1
427.367	0.666	428.033	-2.376852758747777	end_round	0.666	columbia_card_task_fmri	15.0	0.7777777777777778	71.0	-70.0	0.2222222222222222	12.0	4.0	2.0	2.4403694336942365	0.666	3.0	stim	poldrack-single-stim	s591	False	1
428.788	1.5	428.037	n/a	-1.0	2.386	columbia_card_task_fmri	n/a	n/a	-1.0	n/a	n/a	n/a	n/a	n/a	n/a	n/a	n/a	ITI	poldrack-single-stim	s591	False	0
430.428	0.654	431.082	0.3120361301411127	end_round	0.654	columbia_card_task_fmri	16.0	0.8	71.0	-70.0	0.2	15.0	1.0	3.0	1.5033748149023651	0.654	0.0	stim	poldrack-single-stim	s591	False	1
431.837	1.5	431.086	n/a	-1.0	2.726	columbia_card_task_fmri	n/a	n/a	-1.0	n/a	n/a	n/a	n/a	n/a	n/a	n/a	n/a	ITI	poldrack-single-stim	s591	False	0
433.818	0.162	433.98	0.699536130141112	draw_card	0.162	columbia_card_task_fmri	14.0	0.8125	89.0	-65.0	0.1875	16.0	1.0	3.0	-2.058111457272336	0.162	n/a	stim	poldrack-single-stim	s591	False	1
433.984	0.657	434.641	-0.2879638698588869	draw_card	0.657	columbia_card_task_fmri	14.0	0.8	89.0	-65.0	0.2	16.0	2.0	3.0	-1.293685364602425	0.657	n/a	stim	poldrack-single-stim	s591	False	1
434.645	0.537	435.182	-1.416535298430315	draw_card	0.537	columbia_card_task_fmri	14.0	0.7857142857142857	89.0	-65.0	0.2142857142857142	16.0	3.0	3.0	-0.4788478263945706	0.537	n/a	stim	poldrack-single-stim	s591	False	1
435.188	1.416	436.604	-2.7187331006281195	draw_card	1.416	columbia_card_task_fmri	14.0	0.7692307692307692	89.0	-65.0	0.2307692307692307	16.0	4.0	3.0	0.3891651476415845	1.416	4.0	stim	poldrack-single-stim	s591	False	0
437.363	1.5	436.612	n/a	-1.0	2.454	columbia_card_task_fmri	n/a	n/a	-1.0	n/a	n/a	n/a	n/a	n/a	n/a	n/a	n/a	ITI	poldrack-single-stim	s591	False	0
439.072	0.662	439.734	0.449536130141112	draw_card	0.662	columbia_card_task_fmri	16.0	0.8125	89.0	-75.0	0.1875	16.0	1.0	3.0	2.620756017335026	0.662	n/a	stim	poldrack-single-stim	s591	False	1
439.74	2.493	442.233	-0.6879638698588872	draw_card	2.493	columbia_card_task_fmri	16.0	0.8	89.0	-75.0	0.2	16.0	2.0	3.0	3.5015514665013043	2.493	n/a	stim	poldrack-single-stim	s591	False	1
442.238	0.91	443.148	-1.9879638698588864	draw_card	0.91	columbia_card_task_fmri	16.0	0.7857142857142857	89.0	-75.0	0.2142857142857142	16.0	3.0	3.0	4.4404193646668375	0.91	n/a	stim	poldrack-single-stim	s591	False	1
443.153	1.328	444.481	-3.4879638698588917	draw_card	1.328	columbia_card_task_fmri	16.0	0.7692307692307692	89.0	-75.0	0.2307692307692307	16.0	4.0	3.0	5.440542925265092	1.328	n/a	stim	poldrack-single-stim	s591	False	1
444.485	0.648	445.133	-5.237963869858888	draw_card	0.648	columbia_card_task_fmri	16.0	0.75	89.0	-75.0	0.25	16.0	5.0	3.0	6.503315931698673	0.648	5.0	stim	poldrack-single-stim	s591	False	0
445.889	1.5	445.138	n/a	-1.0	2.318	columbia_card_task_fmri	n/a	n/a	-1.0	n/a	n/a	n/a	n/a	n/a	n/a	n/a	n/a	ITI	poldrack-single-stim	s591	False	0
447.461	0.564	448.025	4.712036130141113	draw_card	0.564	columbia_card_task_fmri	16.0	0.8666666666666667	89.0	-80.0	0.1333333333333333	15.0	1.0	2.0	-0.2611044721081157	0.564	n/a	stim	poldrack-single-stim	s591	False	1
448.031	0.28	448.311	3.797750415855401	draw_card	0.28	columbia_card_task_fmri	16.0	0.8571428571428572	89.0	-80.0	0.1428571428571428	15.0	2.0	2.0	0.6971741065661021	0.28	n/a	stim	poldrack-single-stim	s591	False	1
448.316	0.35	448.666	2.742805360910342	draw_card	0.35	columbia_card_task_fmri	16.0	0.8461538461538461	89.0	-80.0	0.1538461538461538	15.0	3.0	2.0	1.7400642257329937	0.35	3.0	stim	poldrack-single-stim	s591	False	0
449.421	1.5	448.67	n/a	-1.0	2.318	columbia_card_task_fmri	n/a	n/a	-1.0	n/a	n/a	n/a	n/a	n/a	n/a	n/a	n/a	ITI	poldrack-single-stim	s591	False	0
450.994	1.307	452.301	5.5787027968077805	draw_card	1.307	columbia_card_task_fmri	17.0	0.8666666666666667	89.0	-80.0	0.1333333333333333	15.0	1.0	2.0	0.07846961291159	1.307	n/a	stim	poldrack-single-stim	s591	False	1
452.306	1.118	453.424	4.654893272998258	draw_card	1.118	columbia_card_task_fmri	17.0	0.8571428571428572	89.0	-80.0	0.1428571428571428	15.0	2.0	2.0	1.0467509278899811	1.118	n/a	stim	poldrack-single-stim	s591	False	1
453.429	0.607	454.036	3.588959207064189	draw_card	0.607	columbia_card_task_fmri	17.0	0.8461538461538461	89.0	-80.0	0.1538461538461538	15.0	3.0	2.0	2.1005256801142167	0.607	n/a	stim	poldrack-single-stim	s591	False	1
454.042	0.799	454.841	2.345369463474448	end_round	0.799	columbia_card_task_fmri	17.0	0.8333333333333334	71.0	-80.0	0.1666666666666666	15.0	4.0	2.0	3.251534207301468	0.799	3.0	stim	poldrack-single-stim	s591	False	1
455.601	1.5	454.85	n/a	-1.0	2.59	columbia_card_task_fmri	n/a	n/a	-1.0	n/a	n/a	n/a	n/a	n/a	n/a	n/a	n/a	ITI	poldrack-single-stim	s591	False	0
457.446	1.237	458.683	1.512036130141112	draw_card	1.237	columbia_card_task_fmri	1.0	0.9375	89.0	-15.0	0.0625	16.0	1.0	1.0	-28.772165555277056	1.237	n/a	stim	poldrack-single-stim	s591	False	1
458.688	0.229	458.917	1.4453694634744454	draw_card	0.229	columbia_card_task_fmri	1.0	0.9333333333333332	89.0	-15.0	0.0666666666666666	16.0	2.0	1.0	-28.66191945589669	0.229	n/a	stim	poldrack-single-stim	s591	False	1
458.923	2.03	460.953	1.3691789872839693	draw_card	2.03	columbia_card_task_fmri	1.0	0.9285714285714286	89.0	-15.0	0.0714285714285714	16.0	3.0	1.0	-28.540552037055026	2.03	n/a	stim	poldrack-single-stim	s591	False	1
460.958	0.668	461.626	1.2812668993718812	draw_card	0.668	columbia_card_task_fmri	1.0	0.9230769230769232	89.0	-15.0	0.0769230769230769	16.0	4.0	1.0	-28.406149925302977	0.668	n/a	stim	poldrack-single-stim	s591	False	1
461.631	0.565	462.196	1.1787027968077788	draw_card	0.565	columbia_card_task_fmri	1.0	0.9166666666666666	89.0	-15.0	0.0833333333333333	16.0	5.0	1.0	-28.25631747606141	0.565	5.0	stim	poldrack-single-stim	s591	False	0
462.951	1.5	462.2	n/a	-1.0	2.726	columbia_card_task_fmri	n/a	n/a	-1.0	n/a	n/a	n/a	n/a	n/a	n/a	n/a	n/a	ITI	poldrack-single-stim	s591	False	0
464.931	1.225	466.156	4.637036130141112	draw_card	1.225	columbia_card_task_fmri	10.0	0.9375	89.0	-100.0	0.0625	16.0	1.0	1.0	-6.260182130077343	1.225	n/a	stim	poldrack-single-stim	s591	False	1
466.161	1.579	467.74	4.178702796807779	draw_card	1.579	columbia_card_task_fmri	10.0	0.9333333333333332	89.0	-100.0	0.0666666666666666	16.0	2.0	1.0	-5.44938939459874	1.579	n/a	stim	poldrack-single-stim	s591	False	1
467.746	0.615	468.361	3.654893272998256	end_round	0.615	columbia_card_task_fmri	10.0	0.9285714285714286	71.0	-100.0	0.0714285714285714	16.0	3.0	1.0	-4.560185477076779	0.615	2.0	stim	poldrack-single-stim	s591	False	1
469.117	1.5	468.366	n/a	-1.0	2.522	columbia_card_task_fmri	n/a	n/a	-1.0	n/a	n/a	n/a	n/a	n/a	n/a	n/a	n/a	ITI	poldrack-single-stim	s591	False	0
470.893	1.07	471.963	5.262036130141112	draw_card	1.07	columbia_card_task_fmri	15.0	0.875	89.0	-75.0	0.125	16.0	1.0	2.0	-3.126756626652657	1.07	n/a	stim	poldrack-single-stim	s591	False	1
471.968	0.476	472.444	4.512036130141112	draw_card	0.476	columbia_card_task_fmri	15.0	0.8666666666666667	89.0	-75.0	0.1333333333333333	16.0	2.0	2.0	-2.2983810196983754	0.476	n/a	stim	poldrack-single-stim	s591	False	1
472.448	0.491	472.939	3.654893272998256	draw_card	0.491	columbia_card_task_fmri	15.0	0.8571428571428572	89.0	-75.0	0.1428571428571428	16.0	3.0	2.0	-1.40012362451845	0.491	n/a	stim	poldrack-single-stim	s591	False	1
472.944	0.744	473.688	2.6658822839872656	draw_card	0.744	columbia_card_task_fmri	15.0	0.8461538461538461	89.0	-75.0	0.1538461538461538	16.0	4.0	2.0	-0.4225461926591194	0.744	n/a	stim	poldrack-single-stim	s591	False	1
473.693	1.196	474.889	1.512036130141112	draw_card	1.196	columbia_card_task_fmri	15.0	0.8333333333333334	89.0	-75.0	0.1666666666666666	16.0	5.0	2.0	0.6452442405606575	1.196	n/a	stim	poldrack-single-stim	s591	False	1
474.895	1.445	476.34	0.1483997665047469	end_round	1.445	columbia_card_task_fmri	15.0	0.8181818181818181	71.0	-75.0	0.1818181818181818	16.0	6.0	2.0	1.8155907850716204	1.445	5.0	stim	poldrack-single-stim	s591	False	1
477.095	1.5	476.344	n/a	-1.0	3.134	columbia_card_task_fmri	n/a	n/a	-1.0	n/a	n/a	n/a	n/a	n/a	n/a	n/a	n/a	ITI	poldrack-single-stim	s591	False	0
479.485	0.537	480.022	5.512036130141112	draw_card	0.537	columbia_card_task_fmri	16.0	0.875	89.0	-80.0	0.125	16.0	1.0	2.0	-1.144839131018685	0.537	n/a	stim	poldrack-single-stim	s591	False	1
480.027	0.471	480.498	4.712036130141113	draw_card	0.471	columbia_card_task_fmri	16.0	0.8666666666666667	89.0	-80.0	0.1333333333333333	16.0	2.0	2.0	-0.2611044721081157	0.471	n/a	stim	poldrack-single-stim	s591	False	1
480.504	0.923	481.427	3.797750415855401	draw_card	0.923	columbia_card_task_fmri	16.0	0.8571428571428572	89.0	-80.0	0.1428571428571428	16.0	3.0	2.0	0.6971741065661021	0.923	n/a	stim	poldrack-single-stim	s591	False	1
481.432	1.822	483.254	2.742805360910342	draw_card	1.822	columbia_card_task_fmri	16.0	0.8461538461538461	89.0	-80.0	0.1538461538461538	16.0	4.0	2.0	1.7400642257329937	1.822	n/a	stim	poldrack-single-stim	s591	False	1
483.259	0.978	484.237	1.5120361301411138	end_round	0.978	columbia_card_task_fmri	16.0	0.8333333333333334	71.0	-80.0	0.1666666666666666	16.0	5.0	2.0	2.879185170439051	0.978	4.0	stim	poldrack-single-stim	s591	False	1
484.995	1.5	484.244	n/a	-1.0	2.386	columbia_card_task_fmri	n/a	n/a	-1.0	n/a	n/a	n/a	n/a	n/a	n/a	n/a	n/a	ITI	poldrack-single-stim	s591	False	0
486.637	0.501	487.138	2.6995361301411123	draw_card	0.501	columbia_card_task_fmri	4.0	0.6875	89.0	-5.0	0.3125	16.0	1.0	5.0	-28.492656121054047	0.501	n/a	stim	poldrack-single-stim	s591	False	1
487.144	1.297	488.441	2.5120361301411123	draw_card	1.297	columbia_card_task_fmri	4.0	0.6666666666666667	89.0	-5.0	0.3333333333333333	16.0	2.0	5.0	-28.425813236944435	1.297	2.0	stim	poldrack-single-stim	s591	False	0
489.198	1.5	488.447	n/a	-1.0	2.386	columbia_card_task_fmri	n/a	n/a	-1.0	n/a	n/a	n/a	n/a	n/a	n/a	n/a	n/a	ITI	poldrack-single-stim	s591	False	0
490.839	0.436	491.275	-0.1546305365255522	draw_card	0.436	columbia_card_task_fmri	14.0	0.8333333333333334	89.0	-80.0	0.1666666666666666	6.0	1.0	1.0	2.13450806533843	0.436	1.0	stim	poldrack-single-stim	s591	False	0
492.034	1.5	491.283	n/a	-1.0	2.318	columbia_card_task_fmri	n/a	n/a	-1.0	n/a	n/a	n/a	n/a	n/a	n/a	n/a	n/a	ITI	poldrack-single-stim	s591	False	0
493.607	0.526	494.133	1.512036130141112	draw_card	0.526	columbia_card_task_fmri	15.0	0.8333333333333334	89.0	-75.0	0.1666666666666666	6.0	1.0	1.0	0.6452442405606575	0.526	n/a	stim	poldrack-single-stim	s591	False	1
494.139	2.216	496.355	-1.487963869858888	end_round	2.216	columbia_card_task_fmri	15.0	0.8	71.0	-75.0	0.2	6.0	2.0	1.0	3.1018999503021547	2.216	1.0	stim	poldrack-single-stim	s591	False	1
497.115	1.5	496.364	n/a	-1.0	2.318	columbia_card_task_fmri	n/a	n/a	-1.0	n/a	n/a	n/a	n/a	n/a	n/a	n/a	n/a	ITI	poldrack-single-stim	s591	False	0
498.687	0.468	499.155	3.17870279680778	draw_card	0.468	columbia_card_task_fmri	16.0	0.8333333333333334	89.0	-70.0	0.1666666666666666	6.0	1.0	1.0	-0.8438850863801548	0.468	n/a	stim	poldrack-single-stim	s591	False	1
499.161	0.458	499.619	0.3120361301411127	draw_card	0.458	columbia_card_task_fmri	16.0	0.8	89.0	-70.0	0.2	6.0	2.0	1.0	1.5033748149023651	0.458	n/a	stim	poldrack-single-stim	s591	False	1
499.624	1.766	501.39	-3.987963869858888	end_round	1.766	columbia_card_task_fmri	16.0	0.75	71.0	-70.0	0.25	6.0	3.0	1.0	4.339937097497781	1.766	2.0	stim	poldrack-single-stim	s591	False	1
502.146	1.5	501.395	n/a	-1.0	2.862	columbia_card_task_fmri	n/a	n/a	-1.0	n/a	n/a	n/a	n/a	n/a	n/a	n/a	n/a	ITI	poldrack-single-stim	s591	False	0
504.263	0.61	504.873	3.762036130141112	draw_card	0.61	columbia_card_task_fmri	23.0	0.75	89.0	-60.0	0.25	8.0	1.0	2.0	3.042007100133141	0.61	1.0	stim	poldrack-single-stim	s591	False	0
505.632	1.5	504.881	n/a	-1.0	2.726	columbia_card_task_fmri	n/a	n/a	-1.0	n/a	n/a	n/a	n/a	n/a	n/a	n/a	n/a	ITI	poldrack-single-stim	s591	False	0
507.613	1.226	508.839	4.262036130141112	end_round	1.226	columbia_card_task_fmri	27.0	0.75	71.0	-70.0	0.25	8.0	1.0	2.0	9.09959955060129	1.226	0.0	stim	poldrack-single-stim	s591	False	1
509.596	1.5	508.845	n/a	-1.0	2.25	columbia_card_task_fmri	n/a	n/a	-1.0	n/a	n/a	n/a	n/a	n/a	n/a	n/a	n/a	ITI	poldrack-single-stim	s591	False	0
511.101	0.496	511.597	-0.4879638698588862	draw_card	0.496	columbia_card_task_fmri	16.0	0.7777777777777778	89.0	-65.0	0.2222222222222222	9.0	1.0	2.0	0.7790057511421651	0.496	1.0	stim	poldrack-single-stim	s591	False	0
512.355	1.5	511.604	n/a	-1.0	2.318	columbia_card_task_fmri	n/a	n/a	-1.0	n/a	n/a	n/a	n/a	n/a	n/a	n/a	n/a	ITI	poldrack-single-stim	s591	False	0
513.928	1.127	515.055	4.712036130141113	draw_card	1.127	columbia_card_task_fmri	13.0	0.9	89.0	-85.0	0.1	10.0	1.0	1.0	-3.4909833943248927	1.127	n/a	stim	poldrack-single-stim	s591	False	1
515.06	0.485	515.545	3.623147241252223	draw_card	0.485	columbia_card_task_fmri	13.0	0.8888888888888888	89.0	-85.0	0.1111111111111111	10.0	2.0	1.0	-2.094316827663935	0.485	2.0	stim	poldrack-single-stim	s591	False	0
516.304	1.5	515.553	n/a	-1.0	2.454	columbia_card_task_fmri	n/a	n/a	-1.0	n/a	n/a	n/a	n/a	n/a	n/a	n/a	n/a	ITI	poldrack-single-stim	s591	False	0
518.014	0.705	518.719	-0.2879638698588869	draw_card	0.705	columbia_card_task_fmri	14.0	0.8	89.0	-65.0	0.2	10.0	1.0	2.0	-1.293685364602425	0.705	n/a	stim	poldrack-single-stim	s591	False	1
518.725	0.501	519.226	-2.0435194254144413	draw_card	0.501	columbia_card_task_fmri	14.0	0.7777777777777778	89.0	-65.0	0.2222222222222222	10.0	2.0	2.0	-0.051615607647669	0.501	2.0	stim	poldrack-single-stim	s591	False	0
519.981	1.5	519.23	n/a	-1.0	2.522	columbia_card_task_fmri	n/a	n/a	-1.0	n/a	n/a	n/a	n/a	n/a	n/a	n/a	n/a	ITI	poldrack-single-stim	s591	False	0
521.759	1.697	523.456	1.1120361301411137	draw_card	1.697	columbia_card_task_fmri	17.0	0.8	89.0	-70.0	0.2	10.0	1.0	2.0	1.9029934022434676	1.697	n/a	stim	poldrack-single-stim	s591	False	1
523.462	1.792	525.254	-0.8212972031922201	end_round	1.792	columbia_card_task_fmri	17.0	0.7777777777777778	71.0	-70.0	0.2222222222222222	10.0	2.0	2.0	3.2711062060325418	1.792	1.0	stim	poldrack-single-stim	s591	False	1
526.014	1.5	525.263	n/a	-1.0	2.318	columbia_card_task_fmri	n/a	n/a	-1.0	n/a	n/a	n/a	n/a	n/a	n/a	n/a	n/a	ITI	poldrack-single-stim	s591	False	0
527.587	0.725	528.312	-0.154630536525554	draw_card	0.725	columbia_card_task_fmri	13.0	0.8333333333333334	89.0	-75.0	0.1666666666666666	12.0	1.0	2.0	-0.099338379034414	0.725	n/a	stim	poldrack-single-stim	s591	False	1
528.318	0.558	528.876	-1.4879638698588895	end_round	0.558	columbia_card_task_fmri	13.0	0.8181818181818181	71.0	-75.0	0.1818181818181818	12.0	2.0	2.0	1.0449489191390595	0.558	1.0	stim	poldrack-single-stim	s591	False	1
529.634	1.5	528.883	n/a	-1.0	2.522	columbia_card_task_fmri	n/a	n/a	-1.0	n/a	n/a	n/a	n/a	n/a	n/a	n/a	n/a	ITI	poldrack-single-stim	s591	False	0
531.412	0.612	532.024	1.5120361301411138	draw_card	0.612	columbia_card_task_fmri	14.0	0.8333333333333334	89.0	-70.0	0.1666666666666666	12.0	1.0	2.0	-1.58839332208467	0.612	n/a	stim	poldrack-single-stim	s591	False	1
532.029	1.113	533.142	0.2393088574138369	draw_card	1.113	columbia_card_task_fmri	14.0	0.8181818181818181	89.0	-70.0	0.1818181818181818	12.0	2.0	2.0	-0.4962282160229918	1.113	n/a	stim	poldrack-single-stim	s591	False	1
533.149	0.484	533.633	-1.287963869858887	draw_card	0.484	columbia_card_task_fmri	14.0	0.8	89.0	-70.0	0.2	12.0	3.0	2.0	0.7041648434729595	0.484	n/a	stim	poldrack-single-stim	s591	False	1
533.639	0.679	534.318	-3.154630536525554	draw_card	0.679	columbia_card_task_fmri	14.0	0.7777777777777778	89.0	-70.0	0.2222222222222222	12.0	4.0	2.0	2.0250142907503346	0.679	4.0	stim	poldrack-single-stim	s591	False	0
535.078	1.5	534.327	n/a	-1.0	2.998	columbia_card_task_fmri	n/a	n/a	-1.0	n/a	n/a	n/a	n/a	n/a	n/a	n/a	n/a	ITI	poldrack-single-stim	s591	False	0
537.33	1.33	538.66	1.5120361301411138	draw_card	1.33	columbia_card_task_fmri	16.0	0.8333333333333334	89.0	-80.0	0.1666666666666666	12.0	1.0	2.0	2.879185170439051	1.33	1.0	stim	poldrack-single-stim	s591	False	0
539.416	1.5	538.665	n/a	-1.0	2.318	columbia_card_task_fmri	n/a	n/a	-1.0	n/a	n/a	n/a	n/a	n/a	n/a	n/a	n/a	ITI	poldrack-single-stim	s591	False	0
540.989	1.968	542.957	1.3120361301411128	draw_card	1.968	columbia_card_task_fmri	16.0	0.8	89.0	-65.0	0.2	15.0	1.0	3.0	-0.4945770784026138	1.968	n/a	stim	poldrack-single-stim	s591	False	1
542.962	0.695	543.657	0.1548932729982561	draw_card	0.695	columbia_card_task_fmri	16.0	0.7857142857142857	89.0	-65.0	0.2142857142857142	15.0	2.0	3.0	0.3409346343201704	0.695	n/a	stim	poldrack-single-stim	s591	False	1
543.663	0.422	544.085	-1.1802715621665814	draw_card	0.422	columbia_card_task_fmri	16.0	0.7692307692307692	89.0	-65.0	0.2307692307692307	15.0	3.0	3.0	1.230968516060976	0.422	n/a	stim	poldrack-single-stim	s591	False	1
544.091	0.846	544.937	-2.737963869858888	draw_card	0.846	columbia_card_task_fmri	16.0	0.75	89.0	-65.0	0.25	15.0	4.0	3.0	2.1767659746716888	0.846	4.0	stim	poldrack-single-stim	s591	False	0
545.693	1.5	544.942	n/a	-1.0	2.25	columbia_card_task_fmri	n/a	n/a	-1.0	n/a	n/a	n/a	n/a	n/a	n/a	n/a	n/a	ITI	poldrack-single-stim	s591	False	0
547.199	1.158	548.357	-0.3629638698588879	draw_card	1.158	columbia_card_task_fmri	15.0	0.8125	89.0	-75.0	0.1875	16.0	1.0	3.0	2.2308007522207163	1.158	n/a	stim	poldrack-single-stim	s591	False	1
548.362	0.732	549.094	-1.487963869858888	draw_card	0.732	columbia_card_task_fmri	15.0	0.8	89.0	-75.0	0.2	16.0	2.0	3.0	3.1018999503021547	0.732	2.0	stim	poldrack-single-stim	s591	False	0
549.85	1.5	549.099	n/a	-1.0	2.454	columbia_card_task_fmri	n/a	n/a	-1.0	n/a	n/a	n/a	n/a	n/a	n/a	n/a	n/a	ITI	poldrack-single-stim	s591	False	0
551.56	1.796	553.356	0.199536130141112	draw_card	1.796	columbia_card_task_fmri	14.0	0.6875	89.0	-35.0	0.3125	16.0	1.0	5.0	-10.167456198389011	1.796	n/a	stim	poldrack-single-stim	s591	False	1
553.362	0.916	554.278	-0.8212972031922201	end_round	0.916	columbia_card_task_fmri	14.0	0.6666666666666667	71.0	-35.0	0.3333333333333333	16.0	2.0	5.0	-9.781582431341274	0.916	1.0	stim	poldrack-single-stim	s591	False	1
555.033	1.5	554.282	n/a	-1.0	2.318	columbia_card_task_fmri	n/a	n/a	-1.0	n/a	n/a	n/a	n/a	n/a	n/a	n/a	n/a	ITI	poldrack-single-stim	s591	False	0
556.607	1.112	557.719	5.378702796807779	draw_card	1.112	columbia_card_task_fmri	16.0	0.8666666666666667	89.0	-75.0	0.1333333333333333	15.0	1.0	2.0	-1.9588562392978053	1.112	n/a	stim	poldrack-single-stim	s591	False	1
557.724	0.758	558.482	4.512036130141114	draw_card	0.758	columbia_card_task_fmri	16.0	0.8571428571428572	89.0	-75.0	0.1428571428571428	15.0	2.0	2.0	-1.0505947090407588	0.758	n/a	stim	poldrack-single-stim	s591	False	1
558.489	2.871	561.36	3.5120361301411123	draw_card	2.871	columbia_card_task_fmri	16.0	0.8461538461538461	89.0	-75.0	0.1538461538461538	15.0	3.0	2.0	-0.0621312091479424	2.871	n/a	stim	poldrack-single-stim	s591	False	1
561.366	1.304	562.67	2.345369463474446	end_round	1.304	columbia_card_task_fmri	16.0	0.8333333333333334	71.0	-75.0	0.1666666666666666	15.0	4.0	2.0	1.0175482790073076	1.304	3.0	stim	poldrack-single-stim	s591	False	1
563.43	1.5	562.679	n/a	-1.0	2.318	columbia_card_task_fmri	n/a	n/a	-1.0	n/a	n/a	n/a	n/a	n/a	n/a	n/a	n/a	ITI	poldrack-single-stim	s591	False	0
565.004	0.167	565.171	6.0453694634744455	draw_card	0.167	columbia_card_task_fmri	16.0	0.8666666666666667	89.0	-70.0	0.1333333333333333	15.0	1.0	2.0	-3.656385010915088	0.167	n/a	stim	poldrack-single-stim	s591	False	1
565.178	0.675	565.853	5.226321844426828	draw_card	0.675	columbia_card_task_fmri	16.0	0.8571428571428572	89.0	-70.0	0.1428571428571428	15.0	2.0	2.0	-2.798146853101102	0.675	n/a	stim	poldrack-single-stim	s591	False	1
565.859	1.96	567.819	4.2812668993718805	draw_card	1.96	columbia_card_task_fmri	16.0	0.8461538461538461	89.0	-70.0	0.1538461538461538	15.0	3.0	2.0	-1.8641164604004032	1.96	n/a	stim	poldrack-single-stim	s591	False	1
567.825	3.523	571.348	3.17870279680778	draw_card	3.523	columbia_card_task_fmri	16.0	0.8333333333333334	89.0	-70.0	0.1666666666666666	15.0	4.0	2.0	-0.8438850863801548	3.523	n/a	stim	poldrack-single-stim	s591	False	1
571.353	0.894	572.247	1.8756724937774736	end_round	0.894	columbia_card_task_fmri	16.0	0.8181818181818181	71.0	-70.0	0.1818181818181818	15.0	5.0	2.0	0.2743417608048162	0.894	4.0	stim	poldrack-single-stim	s591	False	1
573.007	1.5	572.256	n/a	-1.0	2.59	columbia_card_task_fmri	n/a	n/a	-1.0	n/a	n/a	n/a	n/a	n/a	n/a	n/a	n/a	ITI	poldrack-single-stim	s591	False	0
574.852	3.688	578.54	3.3870361301411123	draw_card	3.688	columbia_card_task_fmri	8.0	0.9375	89.0	-90.0	0.0625	16.0	1.0	1.0	-9.159677012814868	3.688	n/a	stim	poldrack-single-stim	s591	False	1
578.546	1.14	579.686	2.978702796807779	end_round	1.14	columbia_card_task_fmri	8.0	0.9333333333333332	71.0	-90.0	0.0666666666666666	16.0	2.0	1.0	-8.437627027862984	1.14	1.0	stim	poldrack-single-stim	s591	False	1
580.446	1.5	579.695	n/a	-1.0	2.25	columbia_card_task_fmri	n/a	n/a	-1.0	n/a	n/a	n/a	n/a	n/a	n/a	n/a	n/a	ITI	poldrack-single-stim	s591	False	0
581.952	3.568	585.52	4.949536130141112	end_round	3.568	columbia_card_task_fmri	10.0	0.9375	71.0	-95.0	0.0625	16.0	1.0	1.0	-7.468450237792815	3.568	0.0	stim	poldrack-single-stim	s591	False	1
586.276	1.5	585.525	n/a	-1.0	2.25	columbia_card_task_fmri	n/a	n/a	-1.0	n/a	n/a	n/a	n/a	n/a	n/a	n/a	n/a	ITI	poldrack-single-stim	s591	False	0
587.782	3.622	591.404	5.887036130141112	draw_card	3.622	columbia_card_task_fmri	15.0	0.875	89.0	-70.0	0.125	16.0	1.0	2.0	-4.77809667641753	3.622	n/a	stim	poldrack-single-stim	s591	False	1
591.41	1.524	592.934	5.178702796807778	draw_card	1.524	columbia_card_task_fmri	15.0	0.8666666666666667	89.0	-70.0	0.1333333333333333	16.0	2.0	2.0	-3.995860551783764	1.524	n/a	stim	poldrack-single-stim	s591	False	1
592.941	2.088	595.029	4.36917898728397	draw_card	2.088	columbia_card_task_fmri	15.0	0.8571428571428572	89.0	-70.0	0.1428571428571428	16.0	3.0	2.0	-3.1476279248032384	2.088	3.0	stim	poldrack-single-stim	s591	False	0
595.79	1.5	595.039	n/a	-1.0	2.522	columbia_card_task_fmri	n/a	n/a	-1.0	n/a	n/a	n/a	n/a	n/a	n/a	n/a	n/a	ITI	poldrack-single-stim	s591	False	0
597.567	1.31	598.877	4.887036130141112	draw_card	1.31	columbia_card_task_fmri	16.0	0.875	89.0	-85.0	0.125	16.0	1.0	2.0	0.5069758867343239	1.31	1.0	stim	poldrack-single-stim	s591	False	0
599.634	1.5	598.883	n/a	-1.0	2.454	columbia_card_task_fmri	n/a	n/a	-1.0	n/a	n/a	n/a	n/a	n/a	n/a	n/a	n/a	ITI	poldrack-single-stim	s591	False	0
