duration	onset	block_duration	movement_onset	planning	condition	exp_stage	experiment_exp_id	key_press	problem_id	response_time	trial_id	trial_type	worker_id	junk
5.225	3.013	5.225	8.238	1	UA_with_intermediate	practice	ward_and_allport	71	0.0	5.225	to_hand	poldrack-single-stim	s591	False
0.1	8.24	2.386	10.626	0	UA_with_intermediate	practice	ward_and_allport	82	0.0	2.386	to_board	poldrack-single-stim	s591	False
0.1	10.629	0.669	11.298	0	UA_with_intermediate	practice	ward_and_allport	71	0.0	0.669	to_hand	poldrack-single-stim	s591	False
0.1	11.3	0.438	11.738	0	UA_with_intermediate	practice	ward_and_allport	89	0.0	0.438	to_board	poldrack-single-stim	s591	False
0.1	11.74	1.3	13.04	0	UA_with_intermediate	practice	ward_and_allport	82	0.0	1.3	to_hand	poldrack-single-stim	s591	False
0.1	13.042	0.832	13.874	0	UA_with_intermediate	practice	ward_and_allport	89	0.0	0.832	to_board	poldrack-single-stim	s591	False
1.0	13.88	2.5	13.879	0	UA_with_intermediate	practice	ward_and_allport	-1	0.0	n/a	feedback	poldrack-single-stim	s591	False
2.792	16.382	2.792	19.174	1	UA_with_intermediate	practice	ward_and_allport	89	1.0	2.792	to_hand	poldrack-single-stim	s591	False
0.1	19.175	1.443	20.618	0	UA_with_intermediate	practice	ward_and_allport	82	1.0	1.443	to_board	poldrack-single-stim	s591	False
0.1	20.621	0.463	21.084	0	UA_with_intermediate	practice	ward_and_allport	71	1.0	0.463	to_hand	poldrack-single-stim	s591	False
0.1	21.084	0.395	21.479	0	UA_with_intermediate	practice	ward_and_allport	89	1.0	0.395	to_board	poldrack-single-stim	s591	False
0.1	21.48	0.621	22.101	0	UA_with_intermediate	practice	ward_and_allport	82	1.0	0.621	to_hand	poldrack-single-stim	s591	False
0.1	22.102	0.597	22.699	0	UA_with_intermediate	practice	ward_and_allport	89	1.0	0.597	to_board	poldrack-single-stim	s591	False
1.0	22.703	2.1	22.702	0	UA_with_intermediate	practice	ward_and_allport	-1	1.0	n/a	feedback	poldrack-single-stim	s591	False
2.969	24.805	2.969	27.774	1	UA_without_intermediate	practice	ward_and_allport	82	2.0	2.969	to_hand	poldrack-single-stim	s591	False
0.1	27.775	0.487	28.262	0	UA_without_intermediate	practice	ward_and_allport	89	2.0	0.487	to_board	poldrack-single-stim	s591	False
0.1	28.264	1.653	29.917	0	UA_without_intermediate	practice	ward_and_allport	71	2.0	1.653	to_hand	poldrack-single-stim	s591	False
0.1	29.918	0.322	30.24	0	UA_without_intermediate	practice	ward_and_allport	89	2.0	0.322	to_board	poldrack-single-stim	s591	False
0.1	30.243	0.491	30.734	0	UA_without_intermediate	practice	ward_and_allport	71	2.0	0.491	to_hand	poldrack-single-stim	s591	False
0.1	30.735	0.316	31.051	0	UA_without_intermediate	practice	ward_and_allport	89	2.0	0.316	to_board	poldrack-single-stim	s591	False
1.0	31.054	2.2	31.053	0	UA_without_intermediate	practice	ward_and_allport	-1	2.0	n/a	feedback	poldrack-single-stim	s591	False
2.166	33.256	2.166	35.422	1	UA_without_intermediate	practice	ward_and_allport	71	3.0	2.166	to_hand	poldrack-single-stim	s591	False
0.1	35.424	0.376	35.8	0	UA_without_intermediate	practice	ward_and_allport	89	3.0	0.376	to_board	poldrack-single-stim	s591	False
0.1	35.802	0.951	36.753	0	UA_without_intermediate	practice	ward_and_allport	71	3.0	0.951	to_hand	poldrack-single-stim	s591	False
0.1	36.754	0.298	37.052	0	UA_without_intermediate	practice	ward_and_allport	89	3.0	0.298	to_board	poldrack-single-stim	s591	False
0.1	37.054	0.695	37.749	0	UA_without_intermediate	practice	ward_and_allport	82	3.0	0.695	to_hand	poldrack-single-stim	s591	False
0.1	37.75	0.427	38.177	0	UA_without_intermediate	practice	ward_and_allport	89	3.0	0.427	to_board	poldrack-single-stim	s591	False
0.1	38.18	2.485	40.665	0	UA_without_intermediate	practice	ward_and_allport	89	3.0	2.485	to_hand	poldrack-single-stim	s591	False
0.1	40.666	1.27	41.936	0	UA_without_intermediate	practice	ward_and_allport	71	3.0	1.27	to_board	poldrack-single-stim	s591	False
0.1	41.939	0.897	42.836	0	UA_without_intermediate	practice	ward_and_allport	89	3.0	0.897	to_hand	poldrack-single-stim	s591	False
0.1	42.837	0.894	43.731	0	UA_without_intermediate	practice	ward_and_allport	82	3.0	0.894	to_board	poldrack-single-stim	s591	False
0.1	43.734	0.459	44.193	0	UA_without_intermediate	practice	ward_and_allport	71	3.0	0.459	to_hand	poldrack-single-stim	s591	False
0.1	44.195	0.351	44.546	0	UA_without_intermediate	practice	ward_and_allport	89	3.0	0.351	to_board	poldrack-single-stim	s591	False
0.1	44.549	0.853	45.402	0	UA_without_intermediate	practice	ward_and_allport	82	3.0	0.853	to_hand	poldrack-single-stim	s591	False
0.1	45.403	0.446	45.849	0	UA_without_intermediate	practice	ward_and_allport	89	3.0	0.446	to_board	poldrack-single-stim	s591	False
1.0	45.854	2.0	45.853	0	UA_without_intermediate	practice	ward_and_allport	-1	3.0	n/a	feedback	poldrack-single-stim	s591	False
3.726	49.863	3.726	53.589	1	PA_without_intermediate	test	ward_and_allport	89	0.0	3.726	to_hand	poldrack-single-stim	s591	False
0.1	53.591	1.37	54.961	0	PA_without_intermediate	test	ward_and_allport	82	0.0	1.37	to_board	poldrack-single-stim	s591	False
0.1	54.963	0.838	55.801	0	PA_without_intermediate	test	ward_and_allport	89	0.0	0.838	to_hand	poldrack-single-stim	s591	False
0.1	55.802	0.564	56.366	0	PA_without_intermediate	test	ward_and_allport	82	0.0	0.564	to_board	poldrack-single-stim	s591	False
0.1	56.368	0.996	57.364	0	PA_without_intermediate	test	ward_and_allport	89	0.0	0.996	to_hand	poldrack-single-stim	s591	False
0.1	57.365	0.663	58.028	0	PA_without_intermediate	test	ward_and_allport	71	0.0	0.663	to_board	poldrack-single-stim	s591	False
1.0	58.033	3.088	58.032	0	PA_without_intermediate	test	ward_and_allport	-1	0.0	n/a	feedback	poldrack-single-stim	s591	False
4.57	61.124	4.57	65.694	1	PA_with_intermediate	test	ward_and_allport	82	1.0	4.57	to_hand	poldrack-single-stim	s591	False
0.1	65.695	1.448	67.143	0	PA_with_intermediate	test	ward_and_allport	89	1.0	1.448	to_board	poldrack-single-stim	s591	False
0.1	67.147	0.74	67.887	0	PA_with_intermediate	test	ward_and_allport	82	1.0	0.74	to_hand	poldrack-single-stim	s591	False
0.1	67.889	0.407	68.296	0	PA_with_intermediate	test	ward_and_allport	71	1.0	0.407	to_board	poldrack-single-stim	s591	False
0.1	68.299	0.508	68.807	0	PA_with_intermediate	test	ward_and_allport	89	1.0	0.508	to_hand	poldrack-single-stim	s591	False
0.1	68.808	0.407	69.215	0	PA_with_intermediate	test	ward_and_allport	82	1.0	0.407	to_board	poldrack-single-stim	s591	False
1.0	69.218	2.0	69.217	0	PA_with_intermediate	test	ward_and_allport	-1	1.0	n/a	feedback	poldrack-single-stim	s591	False
3.18	71.221	3.18	74.401	1	PA_without_intermediate	test	ward_and_allport	82	2.0	3.18	to_hand	poldrack-single-stim	s591	False
0.1	74.402	0.528	74.93	0	PA_without_intermediate	test	ward_and_allport	71	2.0	0.528	to_board	poldrack-single-stim	s591	False
0.1	74.934	1.026	75.96	0	PA_without_intermediate	test	ward_and_allport	82	2.0	1.026	to_hand	poldrack-single-stim	s591	False
0.1	75.961	0.508	76.469	0	PA_without_intermediate	test	ward_and_allport	71	2.0	0.508	to_board	poldrack-single-stim	s591	False
0.1	76.472	0.682	77.154	0	PA_without_intermediate	test	ward_and_allport	82	2.0	0.682	to_hand	poldrack-single-stim	s591	False
0.1	77.156	0.476	77.632	0	PA_without_intermediate	test	ward_and_allport	89	2.0	0.476	to_board	poldrack-single-stim	s591	False
1.0	77.639	2.0	77.638	0	PA_without_intermediate	test	ward_and_allport	-1	2.0	n/a	feedback	poldrack-single-stim	s591	False
2.577	79.642	2.577	82.219	1	PA_without_intermediate	test	ward_and_allport	82	3.0	2.577	to_hand	poldrack-single-stim	s591	False
0.1	82.221	0.455	82.676	0	PA_without_intermediate	test	ward_and_allport	89	3.0	0.455	to_board	poldrack-single-stim	s591	False
0.1	82.679	0.648	83.327	0	PA_without_intermediate	test	ward_and_allport	82	3.0	0.648	to_hand	poldrack-single-stim	s591	False
0.1	83.329	0.411	83.74	0	PA_without_intermediate	test	ward_and_allport	89	3.0	0.411	to_board	poldrack-single-stim	s591	False
0.1	83.743	1.662	85.405	0	PA_without_intermediate	test	ward_and_allport	82	3.0	1.662	to_hand	poldrack-single-stim	s591	False
0.1	85.407	0.499	85.906	0	PA_without_intermediate	test	ward_and_allport	71	3.0	0.499	to_board	poldrack-single-stim	s591	False
1.0	85.911	2.0	85.91	0	PA_without_intermediate	test	ward_and_allport	-1	3.0	n/a	feedback	poldrack-single-stim	s591	False
2.037	87.914	2.037	89.951	1	PA_with_intermediate	test	ward_and_allport	82	4.0	2.037	to_hand	poldrack-single-stim	s591	False
0.1	89.952	1.793	91.745	0	PA_with_intermediate	test	ward_and_allport	89	4.0	1.793	to_board	poldrack-single-stim	s591	False
0.1	91.748	0.826	92.574	0	PA_with_intermediate	test	ward_and_allport	82	4.0	0.826	to_hand	poldrack-single-stim	s591	False
0.1	92.575	0.466	93.041	0	PA_with_intermediate	test	ward_and_allport	71	4.0	0.466	to_board	poldrack-single-stim	s591	False
0.1	93.045	0.478	93.523	0	PA_with_intermediate	test	ward_and_allport	89	4.0	0.478	to_hand	poldrack-single-stim	s591	False
0.1	93.523	0.491	94.014	0	PA_with_intermediate	test	ward_and_allport	71	4.0	0.491	to_board	poldrack-single-stim	s591	False
1.0	94.018	2.544	94.017	0	PA_with_intermediate	test	ward_and_allport	-1	4.0	n/a	feedback	poldrack-single-stim	s591	False
2.798	96.566	2.798	99.364	1	PA_without_intermediate	test	ward_and_allport	89	5.0	2.798	to_hand	poldrack-single-stim	s591	False
0.1	99.365	0.407	99.772	0	PA_without_intermediate	test	ward_and_allport	71	5.0	0.407	to_board	poldrack-single-stim	s591	False
0.1	99.775	0.855	100.63	0	PA_without_intermediate	test	ward_and_allport	89	5.0	0.855	to_hand	poldrack-single-stim	s591	False
0.1	100.632	0.378	101.01	0	PA_without_intermediate	test	ward_and_allport	71	5.0	0.378	to_board	poldrack-single-stim	s591	False
0.1	101.014	0.541	101.555	0	PA_without_intermediate	test	ward_and_allport	89	5.0	0.541	to_hand	poldrack-single-stim	s591	False
0.1	101.556	0.384	101.94	0	PA_without_intermediate	test	ward_and_allport	82	5.0	0.384	to_board	poldrack-single-stim	s591	False
1.0	101.943	2.272	101.942	0	PA_without_intermediate	test	ward_and_allport	-1	5.0	n/a	feedback	poldrack-single-stim	s591	False
2.81	104.22	2.81	107.03	1	PA_with_intermediate	test	ward_and_allport	89	6.0	2.81	to_hand	poldrack-single-stim	s591	False
0.1	107.031	0.465	107.496	0	PA_with_intermediate	test	ward_and_allport	82	6.0	0.465	to_board	poldrack-single-stim	s591	False
0.1	107.5	0.585	108.085	0	PA_with_intermediate	test	ward_and_allport	89	6.0	0.585	to_hand	poldrack-single-stim	s591	False
0.1	108.086	0.733	108.819	0	PA_with_intermediate	test	ward_and_allport	71	6.0	0.733	to_board	poldrack-single-stim	s591	False
0.1	108.823	0.692	109.515	0	PA_with_intermediate	test	ward_and_allport	82	6.0	0.692	to_hand	poldrack-single-stim	s591	False
0.1	109.515	0.48	109.995	0	PA_with_intermediate	test	ward_and_allport	71	6.0	0.48	to_board	poldrack-single-stim	s591	False
1.0	110.002	4.04	110.001	0	PA_with_intermediate	test	ward_and_allport	-1	6.0	n/a	feedback	poldrack-single-stim	s591	False
2.512	114.048	2.512	116.56	1	PA_with_intermediate	test	ward_and_allport	89	7.0	2.512	to_hand	poldrack-single-stim	s591	False
0.1	116.562	0.879	117.441	0	PA_with_intermediate	test	ward_and_allport	82	7.0	0.879	to_board	poldrack-single-stim	s591	False
0.1	117.445	0.502	117.947	0	PA_with_intermediate	test	ward_and_allport	89	7.0	0.502	to_hand	poldrack-single-stim	s591	False
0.1	117.949	0.639	118.588	0	PA_with_intermediate	test	ward_and_allport	71	7.0	0.639	to_board	poldrack-single-stim	s591	False
0.1	118.592	0.519	119.111	0	PA_with_intermediate	test	ward_and_allport	82	7.0	0.519	to_hand	poldrack-single-stim	s591	False
0.1	119.113	0.652	119.765	0	PA_with_intermediate	test	ward_and_allport	71	7.0	0.652	to_board	poldrack-single-stim	s591	False
1.0	119.774	2.272	119.773	0	PA_with_intermediate	test	ward_and_allport	-1	7.0	n/a	feedback	poldrack-single-stim	s591	False
3.073	122.049	3.073	125.122	1	PA_with_intermediate	test	ward_and_allport	82	8.0	3.073	to_hand	poldrack-single-stim	s591	False
0.1	125.123	0.471	125.594	0	PA_with_intermediate	test	ward_and_allport	71	8.0	0.471	to_board	poldrack-single-stim	s591	False
0.1	125.598	0.723	126.321	0	PA_with_intermediate	test	ward_and_allport	82	8.0	0.723	to_hand	poldrack-single-stim	s591	False
0.1	126.322	0.44	126.762	0	PA_with_intermediate	test	ward_and_allport	89	8.0	0.44	to_board	poldrack-single-stim	s591	False
0.1	126.766	0.846	127.612	0	PA_with_intermediate	test	ward_and_allport	71	8.0	0.846	to_hand	poldrack-single-stim	s591	False
0.1	127.613	0.374	127.987	0	PA_with_intermediate	test	ward_and_allport	82	8.0	0.374	to_board	poldrack-single-stim	s591	False
1.0	127.995	2.136	127.994	0	PA_with_intermediate	test	ward_and_allport	-1	8.0	n/a	feedback	poldrack-single-stim	s591	False
2.483	130.136	2.483	132.619	1	PA_with_intermediate	test	ward_and_allport	71	9.0	2.483	to_hand	poldrack-single-stim	s591	False
0.1	132.62	0.438	133.058	0	PA_with_intermediate	test	ward_and_allport	82	9.0	0.438	to_board	poldrack-single-stim	s591	False
0.1	133.062	0.456	133.518	0	PA_with_intermediate	test	ward_and_allport	71	9.0	0.456	to_hand	poldrack-single-stim	s591	False
0.1	133.52	0.368	133.888	0	PA_with_intermediate	test	ward_and_allport	89	9.0	0.368	to_board	poldrack-single-stim	s591	False
0.1	133.894	1.202	135.096	0	PA_with_intermediate	test	ward_and_allport	82	9.0	1.202	to_hand	poldrack-single-stim	s591	False
0.1	135.098	0.726	135.824	0	PA_with_intermediate	test	ward_and_allport	89	9.0	0.726	to_board	poldrack-single-stim	s591	False
1.0	135.833	2.0	135.832	0	PA_with_intermediate	test	ward_and_allport	-1	9.0	n/a	feedback	poldrack-single-stim	s591	False
1.703	137.838	1.703	139.541	1	PA_with_intermediate	test	ward_and_allport	89	10.0	1.703	to_hand	poldrack-single-stim	s591	False
0.1	139.543	0.459	140.002	0	PA_with_intermediate	test	ward_and_allport	71	10.0	0.459	to_board	poldrack-single-stim	s591	False
0.1	140.006	0.428	140.434	0	PA_with_intermediate	test	ward_and_allport	89	10.0	0.428	to_hand	poldrack-single-stim	s591	False
0.1	140.435	0.428	140.863	0	PA_with_intermediate	test	ward_and_allport	82	10.0	0.428	to_board	poldrack-single-stim	s591	False
0.1	140.867	0.44	141.307	0	PA_with_intermediate	test	ward_and_allport	71	10.0	0.44	to_hand	poldrack-single-stim	s591	False
0.1	141.309	0.38	141.689	0	PA_with_intermediate	test	ward_and_allport	82	10.0	0.38	to_board	poldrack-single-stim	s591	False
1.0	141.693	2.0	141.692	0	PA_with_intermediate	test	ward_and_allport	-1	10.0	n/a	feedback	poldrack-single-stim	s591	False
1.962	143.698	1.962	145.66	1	PA_without_intermediate	test	ward_and_allport	71	11.0	1.962	to_hand	poldrack-single-stim	s591	False
0.1	145.661	0.37	146.031	0	PA_without_intermediate	test	ward_and_allport	89	11.0	0.37	to_board	poldrack-single-stim	s591	False
0.1	146.036	0.98	147.016	0	PA_without_intermediate	test	ward_and_allport	71	11.0	0.98	to_hand	poldrack-single-stim	s591	False
0.1	147.017	0.342	147.359	0	PA_without_intermediate	test	ward_and_allport	82	11.0	0.342	to_board	poldrack-single-stim	s591	False
0.1	147.363	0.407	147.77	0	PA_without_intermediate	test	ward_and_allport	71	11.0	0.407	to_hand	poldrack-single-stim	s591	False
0.1	147.771	0.316	148.087	0	PA_without_intermediate	test	ward_and_allport	89	11.0	0.316	to_board	poldrack-single-stim	s591	False
1.0	148.092	2.408	148.091	0	PA_without_intermediate	test	ward_and_allport	-1	11.0	n/a	feedback	poldrack-single-stim	s591	False
2.382	150.503	2.382	152.885	1	PA_with_intermediate	test	ward_and_allport	71	12.0	2.382	to_hand	poldrack-single-stim	s591	False
0.1	152.887	0.32	153.207	0	PA_with_intermediate	test	ward_and_allport	89	12.0	0.32	to_board	poldrack-single-stim	s591	False
0.1	153.213	0.295	153.508	0	PA_with_intermediate	test	ward_and_allport	71	12.0	0.295	to_hand	poldrack-single-stim	s591	False
0.1	153.51	0.414	153.924	0	PA_with_intermediate	test	ward_and_allport	82	12.0	0.414	to_board	poldrack-single-stim	s591	False
0.1	153.93	0.763	154.693	0	PA_with_intermediate	test	ward_and_allport	89	12.0	0.763	to_hand	poldrack-single-stim	s591	False
0.1	154.695	0.447	155.142	0	PA_with_intermediate	test	ward_and_allport	71	12.0	0.447	to_board	poldrack-single-stim	s591	False
1.0	155.148	3.768	155.147	0	PA_with_intermediate	test	ward_and_allport	-1	12.0	n/a	feedback	poldrack-single-stim	s591	False
1.659	158.92	1.659	160.579	1	PA_with_intermediate	test	ward_and_allport	71	13.0	1.659	to_hand	poldrack-single-stim	s591	False
0.1	160.58	0.285	160.865	0	PA_with_intermediate	test	ward_and_allport	89	13.0	0.285	to_board	poldrack-single-stim	s591	False
0.1	160.87	0.369	161.239	0	PA_with_intermediate	test	ward_and_allport	71	13.0	0.369	to_hand	poldrack-single-stim	s591	False
0.1	161.24	0.498	161.738	0	PA_with_intermediate	test	ward_and_allport	82	13.0	0.498	to_board	poldrack-single-stim	s591	False
0.1	161.743	0.395	162.138	0	PA_with_intermediate	test	ward_and_allport	89	13.0	0.395	to_hand	poldrack-single-stim	s591	False
0.1	162.14	0.328	162.468	0	PA_with_intermediate	test	ward_and_allport	82	13.0	0.328	to_board	poldrack-single-stim	s591	False
1.0	162.477	2.68	162.476	0	PA_with_intermediate	test	ward_and_allport	-1	13.0	n/a	feedback	poldrack-single-stim	s591	False
1.905	165.162	1.905	167.067	1	PA_without_intermediate	test	ward_and_allport	89	14.0	1.905	to_hand	poldrack-single-stim	s591	False
0.1	167.068	0.86	167.928	0	PA_without_intermediate	test	ward_and_allport	71	14.0	0.86	to_board	poldrack-single-stim	s591	False
0.1	167.932	1.036	168.968	0	PA_without_intermediate	test	ward_and_allport	89	14.0	1.036	to_hand	poldrack-single-stim	s591	False
0.1	168.97	0.452	169.422	0	PA_without_intermediate	test	ward_and_allport	82	14.0	0.452	to_board	poldrack-single-stim	s591	False
0.1	169.427	0.463	169.89	0	PA_without_intermediate	test	ward_and_allport	71	14.0	0.463	to_hand	poldrack-single-stim	s591	False
0.1	169.891	0.727	170.618	0	PA_without_intermediate	test	ward_and_allport	71	14.0	0.727	to_board	poldrack-single-stim	s591	False
0.1	170.625	0.31	170.935	0	PA_without_intermediate	test	ward_and_allport	89	14.0	0.31	to_hand	poldrack-single-stim	s591	False
0.1	170.936	0.438	171.374	0	PA_without_intermediate	test	ward_and_allport	71	14.0	0.438	to_board	poldrack-single-stim	s591	False
1.0	171.383	3.224	171.382	0	PA_without_intermediate	test	ward_and_allport	-1	14.0	n/a	feedback	poldrack-single-stim	s591	False
2.636	179.616	2.636	182.252	1	PA_without_intermediate	test	ward_and_allport	89	15.0	2.636	to_hand	poldrack-single-stim	s591	False
0.1	182.254	1.144	183.398	0	PA_without_intermediate	test	ward_and_allport	71	15.0	1.144	to_board	poldrack-single-stim	s591	False
0.1	183.403	0.385	183.788	0	PA_without_intermediate	test	ward_and_allport	89	15.0	0.385	to_hand	poldrack-single-stim	s591	False
0.1	183.79	0.466	184.256	0	PA_without_intermediate	test	ward_and_allport	71	15.0	0.466	to_board	poldrack-single-stim	s591	False
0.1	184.263	0.428	184.691	0	PA_without_intermediate	test	ward_and_allport	89	15.0	0.428	to_hand	poldrack-single-stim	s591	False
0.1	184.692	0.338	185.03	0	PA_without_intermediate	test	ward_and_allport	82	15.0	0.338	to_board	poldrack-single-stim	s591	False
1.0	185.036	3.36	185.035	0	PA_without_intermediate	test	ward_and_allport	-1	15.0	n/a	feedback	poldrack-single-stim	s591	False
1.087	188.403	1.087	189.49	1	PA_without_intermediate	test	ward_and_allport	89	16.0	1.087	to_hand	poldrack-single-stim	s591	False
0.1	189.491	0.603	190.094	0	PA_without_intermediate	test	ward_and_allport	82	16.0	0.603	to_board	poldrack-single-stim	s591	False
0.1	190.098	0.789	190.887	0	PA_without_intermediate	test	ward_and_allport	89	16.0	0.789	to_hand	poldrack-single-stim	s591	False
0.1	190.888	0.696	191.584	0	PA_without_intermediate	test	ward_and_allport	71	16.0	0.696	to_board	poldrack-single-stim	s591	False
0.1	191.589	0.414	192.003	0	PA_without_intermediate	test	ward_and_allport	89	16.0	0.414	to_hand	poldrack-single-stim	s591	False
0.1	192.005	0.343	192.348	0	PA_without_intermediate	test	ward_and_allport	82	16.0	0.343	to_board	poldrack-single-stim	s591	False
1.0	192.357	2.0	192.356	0	PA_without_intermediate	test	ward_and_allport	-1	16.0	n/a	feedback	poldrack-single-stim	s591	False
2.705	194.363	2.705	197.068	1	PA_without_intermediate	test	ward_and_allport	71	17.0	2.705	to_hand	poldrack-single-stim	s591	False
0.1	197.069	0.471	197.54	0	PA_without_intermediate	test	ward_and_allport	82	17.0	0.471	to_board	poldrack-single-stim	s591	False
0.1	197.546	0.663	198.209	0	PA_without_intermediate	test	ward_and_allport	71	17.0	0.663	to_hand	poldrack-single-stim	s591	False
0.1	198.209	0.366	198.575	0	PA_without_intermediate	test	ward_and_allport	82	17.0	0.366	to_board	poldrack-single-stim	s591	False
0.1	198.581	1.32	199.901	0	PA_without_intermediate	test	ward_and_allport	71	17.0	1.32	to_hand	poldrack-single-stim	s591	False
0.1	199.902	0.334	200.236	0	PA_without_intermediate	test	ward_and_allport	89	17.0	0.334	to_board	poldrack-single-stim	s591	False
1.0	200.243	2.408	200.242	0	PA_without_intermediate	test	ward_and_allport	-1	17.0	n/a	feedback	poldrack-single-stim	s591	False
2.445	202.656	2.445	205.101	1	PA_with_intermediate	test	ward_and_allport	82	18.0	2.445	to_hand	poldrack-single-stim	s591	False
0.1	205.103	0.372	205.475	0	PA_with_intermediate	test	ward_and_allport	89	18.0	0.372	to_board	poldrack-single-stim	s591	False
0.1	205.481	1.054	206.535	0	PA_with_intermediate	test	ward_and_allport	82	18.0	1.054	to_hand	poldrack-single-stim	s591	False
0.1	206.536	0.512	207.048	0	PA_with_intermediate	test	ward_and_allport	71	18.0	0.512	to_board	poldrack-single-stim	s591	False
0.1	207.054	0.497	207.551	0	PA_with_intermediate	test	ward_and_allport	89	18.0	0.497	to_hand	poldrack-single-stim	s591	False
0.1	207.552	0.381	207.933	0	PA_with_intermediate	test	ward_and_allport	82	18.0	0.381	to_board	poldrack-single-stim	s591	False
1.0	207.94	2.136	207.939	0	PA_with_intermediate	test	ward_and_allport	-1	18.0	n/a	feedback	poldrack-single-stim	s591	False
1.354	210.082	1.354	211.436	1	PA_without_intermediate	test	ward_and_allport	71	19.0	1.354	to_hand	poldrack-single-stim	s591	False
0.1	211.437	0.565	212.002	0	PA_without_intermediate	test	ward_and_allport	82	19.0	0.565	to_board	poldrack-single-stim	s591	False
0.1	212.01	0.886	212.896	0	PA_without_intermediate	test	ward_and_allport	71	19.0	0.886	to_hand	poldrack-single-stim	s591	False
0.1	212.897	0.376	213.273	0	PA_without_intermediate	test	ward_and_allport	89	19.0	0.376	to_board	poldrack-single-stim	s591	False
0.1	213.279	0.419	213.698	0	PA_without_intermediate	test	ward_and_allport	71	19.0	0.419	to_hand	poldrack-single-stim	s591	False
0.1	213.699	0.305	214.004	0	PA_without_intermediate	test	ward_and_allport	82	19.0	0.305	to_board	poldrack-single-stim	s591	False
1.0	214.014	5.128	214.013	0	PA_without_intermediate	test	ward_and_allport	-1	19.0	n/a	feedback	poldrack-single-stim	s591	False
2.251	219.148	2.251	221.399	1	PA_without_intermediate	test	ward_and_allport	82	20.0	2.251	to_hand	poldrack-single-stim	s591	False
0.1	221.4	0.504	221.904	0	PA_without_intermediate	test	ward_and_allport	71	20.0	0.504	to_board	poldrack-single-stim	s591	False
0.1	221.91	0.616	222.526	0	PA_without_intermediate	test	ward_and_allport	82	20.0	0.616	to_hand	poldrack-single-stim	s591	False
0.1	222.528	0.44	222.968	0	PA_without_intermediate	test	ward_and_allport	89	20.0	0.44	to_board	poldrack-single-stim	s591	False
0.1	222.974	0.745	223.719	0	PA_without_intermediate	test	ward_and_allport	82	20.0	0.745	to_hand	poldrack-single-stim	s591	False
0.1	223.72	0.508	224.228	0	PA_without_intermediate	test	ward_and_allport	71	20.0	0.508	to_board	poldrack-single-stim	s591	False
1.0	224.238	2.136	224.237	0	PA_without_intermediate	test	ward_and_allport	-1	20.0	n/a	feedback	poldrack-single-stim	s591	False
1.641	226.38	1.641	228.021	1	PA_without_intermediate	test	ward_and_allport	71	21.0	1.641	to_hand	poldrack-single-stim	s591	False
0.1	228.022	0.632	228.654	0	PA_without_intermediate	test	ward_and_allport	82	21.0	0.632	to_board	poldrack-single-stim	s591	False
0.1	228.661	0.425	229.086	0	PA_without_intermediate	test	ward_and_allport	71	21.0	0.425	to_hand	poldrack-single-stim	s591	False
0.1	229.088	0.325	229.413	0	PA_without_intermediate	test	ward_and_allport	82	21.0	0.325	to_board	poldrack-single-stim	s591	False
0.1	229.421	0.694	230.115	0	PA_without_intermediate	test	ward_and_allport	71	21.0	0.694	to_hand	poldrack-single-stim	s591	False
0.1	230.116	0.296	230.412	0	PA_without_intermediate	test	ward_and_allport	89	21.0	0.296	to_board	poldrack-single-stim	s591	False
1.0	230.422	5.264	230.421	0	PA_without_intermediate	test	ward_and_allport	-1	21.0	n/a	feedback	poldrack-single-stim	s591	False
2.232	235.694	2.232	237.926	1	PA_with_intermediate	test	ward_and_allport	71	22.0	2.232	to_hand	poldrack-single-stim	s591	False
0.1	237.927	0.301	238.228	0	PA_with_intermediate	test	ward_and_allport	89	22.0	0.301	to_board	poldrack-single-stim	s591	False
0.1	238.235	0.296	238.531	0	PA_with_intermediate	test	ward_and_allport	71	22.0	0.296	to_hand	poldrack-single-stim	s591	False
0.1	238.533	0.344	238.877	0	PA_with_intermediate	test	ward_and_allport	82	22.0	0.344	to_board	poldrack-single-stim	s591	False
0.1	238.885	0.52	239.405	0	PA_with_intermediate	test	ward_and_allport	89	22.0	0.52	to_hand	poldrack-single-stim	s591	False
0.1	239.405	0.428	239.833	0	PA_with_intermediate	test	ward_and_allport	71	22.0	0.428	to_board	poldrack-single-stim	s591	False
1.0	239.844	4.04	239.843	0	PA_with_intermediate	test	ward_and_allport	-1	22.0	n/a	feedback	poldrack-single-stim	s591	False
2.469	243.892	2.469	246.361	1	PA_with_intermediate	test	ward_and_allport	89	23.0	2.469	to_hand	poldrack-single-stim	s591	False
0.1	246.362	0.318	246.68	0	PA_with_intermediate	test	ward_and_allport	82	23.0	0.318	to_board	poldrack-single-stim	s591	False
0.1	246.688	0.552	247.24	0	PA_with_intermediate	test	ward_and_allport	89	23.0	0.552	to_hand	poldrack-single-stim	s591	False
0.1	247.241	0.526	247.767	0	PA_with_intermediate	test	ward_and_allport	71	23.0	0.526	to_board	poldrack-single-stim	s591	False
0.1	247.775	0.493	248.268	0	PA_with_intermediate	test	ward_and_allport	82	23.0	0.493	to_hand	poldrack-single-stim	s591	False
0.1	248.269	0.728	248.997	0	PA_with_intermediate	test	ward_and_allport	89	23.0	0.728	to_board	poldrack-single-stim	s591	False
1.0	249.005	2.136	249.004	0	PA_with_intermediate	test	ward_and_allport	-1	23.0	n/a	feedback	poldrack-single-stim	s591	False
2.981	251.149	2.981	254.13	1	PA_with_intermediate	test	ward_and_allport	71	24.0	2.981	to_hand	poldrack-single-stim	s591	False
0.1	254.132	0.309	254.441	0	PA_with_intermediate	test	ward_and_allport	82	24.0	0.309	to_board	poldrack-single-stim	s591	False
0.1	254.449	0.366	254.815	0	PA_with_intermediate	test	ward_and_allport	71	24.0	0.366	to_hand	poldrack-single-stim	s591	False
0.1	254.816	0.319	255.135	0	PA_with_intermediate	test	ward_and_allport	89	24.0	0.319	to_board	poldrack-single-stim	s591	False
0.1	255.143	0.724	255.867	0	PA_with_intermediate	test	ward_and_allport	82	24.0	0.724	to_hand	poldrack-single-stim	s591	False
0.1	255.868	0.344	256.212	0	PA_with_intermediate	test	ward_and_allport	71	24.0	0.344	to_board	poldrack-single-stim	s591	False
1.0	256.223	2.408	256.222	0	PA_with_intermediate	test	ward_and_allport	-1	24.0	n/a	feedback	poldrack-single-stim	s591	False
1.235	258.638	1.235	259.873	1	PA_without_intermediate	test	ward_and_allport	82	25.0	1.235	to_hand	poldrack-single-stim	s591	False
0.1	259.875	0.854	260.729	0	PA_without_intermediate	test	ward_and_allport	89	25.0	0.854	to_board	poldrack-single-stim	s591	False
0.1	260.738	0.909	261.647	0	PA_without_intermediate	test	ward_and_allport	82	25.0	0.909	to_hand	poldrack-single-stim	s591	False
0.1	261.647	0.503	262.15	0	PA_without_intermediate	test	ward_and_allport	89	25.0	0.503	to_board	poldrack-single-stim	s591	False
0.1	262.159	0.444	262.603	0	PA_without_intermediate	test	ward_and_allport	82	25.0	0.444	to_hand	poldrack-single-stim	s591	False
0.1	262.604	0.364	262.968	0	PA_without_intermediate	test	ward_and_allport	71	25.0	0.364	to_board	poldrack-single-stim	s591	False
1.0	262.981	2.68	262.98	0	PA_without_intermediate	test	ward_and_allport	-1	25.0	n/a	feedback	poldrack-single-stim	s591	False
1.707	265.668	1.707	267.375	1	PA_with_intermediate	test	ward_and_allport	71	26.0	1.707	to_hand	poldrack-single-stim	s591	False
0.1	267.377	0.317	267.694	0	PA_with_intermediate	test	ward_and_allport	82	26.0	0.317	to_board	poldrack-single-stim	s591	False
0.1	267.701	0.35	268.051	0	PA_with_intermediate	test	ward_and_allport	71	26.0	0.35	to_hand	poldrack-single-stim	s591	False
0.1	268.052	0.316	268.368	0	PA_with_intermediate	test	ward_and_allport	89	26.0	0.316	to_board	poldrack-single-stim	s591	False
0.1	268.376	0.401	268.777	0	PA_with_intermediate	test	ward_and_allport	82	26.0	0.401	to_hand	poldrack-single-stim	s591	False
0.1	268.778	0.363	269.141	0	PA_with_intermediate	test	ward_and_allport	71	26.0	0.363	to_board	poldrack-single-stim	s591	False
1.0	269.154	4.72	269.153	0	PA_with_intermediate	test	ward_and_allport	-1	26.0	n/a	feedback	poldrack-single-stim	s591	False
1.933	273.883	1.933	275.816	1	PA_without_intermediate	test	ward_and_allport	82	27.0	1.933	to_hand	poldrack-single-stim	s591	False
0.1	275.817	0.396	276.213	0	PA_without_intermediate	test	ward_and_allport	89	27.0	0.396	to_board	poldrack-single-stim	s591	False
0.1	276.222	0.914	277.136	0	PA_without_intermediate	test	ward_and_allport	82	27.0	0.914	to_hand	poldrack-single-stim	s591	False
0.1	277.137	0.478	277.615	0	PA_without_intermediate	test	ward_and_allport	71	27.0	0.478	to_board	poldrack-single-stim	s591	False
0.1	277.623	0.442	278.065	0	PA_without_intermediate	test	ward_and_allport	82	27.0	0.442	to_hand	poldrack-single-stim	s591	False
0.1	278.067	0.697	278.764	0	PA_without_intermediate	test	ward_and_allport	89	27.0	0.697	to_board	poldrack-single-stim	s591	False
1.0	278.776	3.224	278.775	0	PA_without_intermediate	test	ward_and_allport	-1	27.0	n/a	feedback	poldrack-single-stim	s591	False
0.95	282.009	0.95	282.959	1	PA_without_intermediate	test	ward_and_allport	82	28.0	0.95	to_hand	poldrack-single-stim	s591	False
0.1	282.96	0.548	283.508	0	PA_without_intermediate	test	ward_and_allport	71	28.0	0.548	to_board	poldrack-single-stim	s591	False
0.1	283.516	0.496	284.012	0	PA_without_intermediate	test	ward_and_allport	82	28.0	0.496	to_hand	poldrack-single-stim	s591	False
0.1	284.013	0.429	284.442	0	PA_without_intermediate	test	ward_and_allport	71	28.0	0.429	to_board	poldrack-single-stim	s591	False
0.1	284.45	0.35	284.8	0	PA_without_intermediate	test	ward_and_allport	82	28.0	0.35	to_hand	poldrack-single-stim	s591	False
0.1	284.801	0.815	285.616	0	PA_without_intermediate	test	ward_and_allport	89	28.0	0.815	to_board	poldrack-single-stim	s591	False
1.0	285.629	2.272	285.628	0	PA_without_intermediate	test	ward_and_allport	-1	28.0	n/a	feedback	poldrack-single-stim	s591	False
1.09	287.91	1.09	289.0	1	PA_with_intermediate	test	ward_and_allport	82	29.0	1.09	to_hand	poldrack-single-stim	s591	False
0.1	289.002	0.677	289.679	0	PA_with_intermediate	test	ward_and_allport	89	29.0	0.677	to_board	poldrack-single-stim	s591	False
0.1	289.689	0.602	290.291	0	PA_with_intermediate	test	ward_and_allport	82	29.0	0.602	to_hand	poldrack-single-stim	s591	False
0.1	290.292	0.493	290.785	0	PA_with_intermediate	test	ward_and_allport	71	29.0	0.493	to_board	poldrack-single-stim	s591	False
0.1	290.794	0.826	291.62	0	PA_with_intermediate	test	ward_and_allport	89	29.0	0.826	to_hand	poldrack-single-stim	s591	False
0.1	291.622	0.7	292.322	0	PA_with_intermediate	test	ward_and_allport	71	29.0	0.7	to_board	poldrack-single-stim	s591	False
1.0	292.334	3.632	292.333	0	PA_with_intermediate	test	ward_and_allport	-1	29.0	n/a	feedback	poldrack-single-stim	s591	False
2.558	300.976	2.558	303.534	1	PA_without_intermediate	test	ward_and_allport	89	30.0	2.558	to_hand	poldrack-single-stim	s591	False
0.1	303.535	0.666	304.201	0	PA_without_intermediate	test	ward_and_allport	82	30.0	0.666	to_board	poldrack-single-stim	s591	False
0.1	304.21	1.876	306.086	0	PA_without_intermediate	test	ward_and_allport	89	30.0	1.876	to_hand	poldrack-single-stim	s591	False
0.1	306.087	0.392	306.479	0	PA_without_intermediate	test	ward_and_allport	71	30.0	0.392	to_board	poldrack-single-stim	s591	False
0.1	306.491	0.586	307.077	0	PA_without_intermediate	test	ward_and_allport	89	30.0	0.586	to_hand	poldrack-single-stim	s591	False
0.1	307.077	0.566	307.643	0	PA_without_intermediate	test	ward_and_allport	82	30.0	0.566	to_board	poldrack-single-stim	s591	False
1.0	307.659	2.408	307.658	0	PA_without_intermediate	test	ward_and_allport	-1	30.0	n/a	feedback	poldrack-single-stim	s591	False
1.276	310.079	1.276	311.355	1	PA_without_intermediate	test	ward_and_allport	71	31.0	1.276	to_hand	poldrack-single-stim	s591	False
0.1	311.356	0.333	311.689	0	PA_without_intermediate	test	ward_and_allport	89	31.0	0.333	to_board	poldrack-single-stim	s591	False
0.1	311.7	0.397	312.097	0	PA_without_intermediate	test	ward_and_allport	71	31.0	0.397	to_hand	poldrack-single-stim	s591	False
0.1	312.098	0.329	312.427	0	PA_without_intermediate	test	ward_and_allport	89	31.0	0.329	to_board	poldrack-single-stim	s591	False
0.1	312.437	0.991	313.428	0	PA_without_intermediate	test	ward_and_allport	71	31.0	0.991	to_hand	poldrack-single-stim	s591	False
0.1	313.43	0.339	313.769	0	PA_without_intermediate	test	ward_and_allport	82	31.0	0.339	to_board	poldrack-single-stim	s591	False
1.0	313.779	2.0	313.778	0	PA_without_intermediate	test	ward_and_allport	-1	31.0	n/a	feedback	poldrack-single-stim	s591	False
1.135	315.787	1.135	316.922	1	PA_with_intermediate	test	ward_and_allport	82	32.0	1.135	to_hand	poldrack-single-stim	s591	False
0.1	316.923	1.798	318.721	0	PA_with_intermediate	test	ward_and_allport	71	32.0	1.798	to_board	poldrack-single-stim	s591	False
0.1	318.731	0.442	319.173	0	PA_with_intermediate	test	ward_and_allport	82	32.0	0.442	to_hand	poldrack-single-stim	s591	False
0.1	319.174	0.494	319.668	0	PA_with_intermediate	test	ward_and_allport	89	32.0	0.494	to_board	poldrack-single-stim	s591	False
0.1	319.679	0.398	320.077	0	PA_with_intermediate	test	ward_and_allport	71	32.0	0.398	to_hand	poldrack-single-stim	s591	False
0.1	320.078	0.29	320.368	0	PA_with_intermediate	test	ward_and_allport	89	32.0	0.29	to_board	poldrack-single-stim	s591	False
1.0	320.382	2.0	320.381	0	PA_with_intermediate	test	ward_and_allport	-1	32.0	n/a	feedback	poldrack-single-stim	s591	False
1.746	322.391	1.746	324.137	1	PA_with_intermediate	test	ward_and_allport	71	33.0	1.746	to_hand	poldrack-single-stim	s591	False
0.1	324.139	0.384	324.523	0	PA_with_intermediate	test	ward_and_allport	82	33.0	0.384	to_board	poldrack-single-stim	s591	False
0.1	324.531	0.698	325.229	0	PA_with_intermediate	test	ward_and_allport	71	33.0	0.698	to_hand	poldrack-single-stim	s591	False
0.1	325.23	0.307	325.537	0	PA_with_intermediate	test	ward_and_allport	89	33.0	0.307	to_board	poldrack-single-stim	s591	False
0.1	325.544	0.443	325.987	0	PA_with_intermediate	test	ward_and_allport	82	33.0	0.443	to_hand	poldrack-single-stim	s591	False
0.1	325.989	0.454	326.443	0	PA_with_intermediate	test	ward_and_allport	89	33.0	0.454	to_board	poldrack-single-stim	s591	False
1.0	326.452	2.0	326.451	0	PA_with_intermediate	test	ward_and_allport	-1	33.0	n/a	feedback	poldrack-single-stim	s591	False
2.81	328.46	2.81	331.27	1	PA_with_intermediate	test	ward_and_allport	89	34.0	2.81	to_hand	poldrack-single-stim	s591	False
0.1	331.271	0.392	331.663	0	PA_with_intermediate	test	ward_and_allport	71	34.0	0.392	to_board	poldrack-single-stim	s591	False
0.1	331.673	0.894	332.567	0	PA_with_intermediate	test	ward_and_allport	89	34.0	0.894	to_hand	poldrack-single-stim	s591	False
0.1	332.568	0.38	332.948	0	PA_with_intermediate	test	ward_and_allport	82	34.0	0.38	to_board	poldrack-single-stim	s591	False
0.1	332.958	0.555	333.513	0	PA_with_intermediate	test	ward_and_allport	71	34.0	0.555	to_hand	poldrack-single-stim	s591	False
0.1	333.514	0.31	333.824	0	PA_with_intermediate	test	ward_and_allport	89	34.0	0.31	to_board	poldrack-single-stim	s591	False
1.0	333.836	2.408	333.835	0	PA_with_intermediate	test	ward_and_allport	-1	34.0	n/a	feedback	poldrack-single-stim	s591	False
1.152	336.255	1.152	337.407	1	PA_without_intermediate	test	ward_and_allport	71	35.0	1.152	to_hand	poldrack-single-stim	s591	False
0.1	337.408	0.433	337.841	0	PA_without_intermediate	test	ward_and_allport	89	35.0	0.433	to_board	poldrack-single-stim	s591	False
0.1	337.852	0.673	338.525	0	PA_without_intermediate	test	ward_and_allport	71	35.0	0.673	to_hand	poldrack-single-stim	s591	False
0.1	338.526	0.324	338.85	0	PA_without_intermediate	test	ward_and_allport	82	35.0	0.324	to_board	poldrack-single-stim	s591	False
0.1	338.858	0.381	339.239	0	PA_without_intermediate	test	ward_and_allport	71	35.0	0.381	to_hand	poldrack-single-stim	s591	False
0.1	339.241	0.273	339.514	0	PA_without_intermediate	test	ward_and_allport	89	35.0	0.273	to_board	poldrack-single-stim	s591	False
1.0	339.524	2.816	339.523	0	PA_without_intermediate	test	ward_and_allport	-1	35.0	n/a	feedback	poldrack-single-stim	s591	False
1.507	342.348	1.507	343.855	1	PA_with_intermediate	test	ward_and_allport	71	36.0	1.507	to_hand	poldrack-single-stim	s591	False
0.1	343.855	0.278	344.133	0	PA_with_intermediate	test	ward_and_allport	89	36.0	0.278	to_board	poldrack-single-stim	s591	False
0.1	344.141	0.319	344.46	0	PA_with_intermediate	test	ward_and_allport	71	36.0	0.319	to_hand	poldrack-single-stim	s591	False
0.1	344.46	0.351	344.811	0	PA_with_intermediate	test	ward_and_allport	82	36.0	0.351	to_board	poldrack-single-stim	s591	False
0.1	344.822	0.397	345.219	0	PA_with_intermediate	test	ward_and_allport	89	36.0	0.397	to_hand	poldrack-single-stim	s591	False
0.1	345.221	0.497	345.718	0	PA_with_intermediate	test	ward_and_allport	82	36.0	0.497	to_board	poldrack-single-stim	s591	False
1.0	345.732	4.176	345.731	0	PA_with_intermediate	test	ward_and_allport	-1	36.0	n/a	feedback	poldrack-single-stim	s591	False
2.275	349.918	2.275	352.193	1	PA_with_intermediate	test	ward_and_allport	89	37.0	2.275	to_hand	poldrack-single-stim	s591	False
0.1	352.194	0.378	352.572	0	PA_with_intermediate	test	ward_and_allport	71	37.0	0.378	to_board	poldrack-single-stim	s591	False
0.1	352.584	0.306	352.89	0	PA_with_intermediate	test	ward_and_allport	89	37.0	0.306	to_hand	poldrack-single-stim	s591	False
0.1	352.891	0.432	353.323	0	PA_with_intermediate	test	ward_and_allport	82	37.0	0.432	to_board	poldrack-single-stim	s591	False
0.1	353.335	0.36	353.695	0	PA_with_intermediate	test	ward_and_allport	71	37.0	0.36	to_hand	poldrack-single-stim	s591	False
0.1	353.696	0.274	353.97	0	PA_with_intermediate	test	ward_and_allport	89	37.0	0.274	to_board	poldrack-single-stim	s591	False
1.0	353.986	3.36	353.985	0	PA_with_intermediate	test	ward_and_allport	-1	37.0	n/a	feedback	poldrack-single-stim	s591	False
2.168	357.353	2.168	359.521	1	PA_with_intermediate	test	ward_and_allport	82	38.0	2.168	to_hand	poldrack-single-stim	s591	False
0.1	359.523	0.33	359.853	0	PA_with_intermediate	test	ward_and_allport	71	38.0	0.33	to_board	poldrack-single-stim	s591	False
0.1	359.862	0.617	360.479	0	PA_with_intermediate	test	ward_and_allport	82	38.0	0.617	to_hand	poldrack-single-stim	s591	False
0.1	360.48	0.318	360.798	0	PA_with_intermediate	test	ward_and_allport	89	38.0	0.318	to_board	poldrack-single-stim	s591	False
0.1	360.809	0.421	361.23	0	PA_with_intermediate	test	ward_and_allport	71	38.0	0.421	to_hand	poldrack-single-stim	s591	False
0.1	361.231	0.282	361.513	0	PA_with_intermediate	test	ward_and_allport	89	38.0	0.282	to_board	poldrack-single-stim	s591	False
1.0	361.524	2.0	361.523	0	PA_with_intermediate	test	ward_and_allport	-1	38.0	n/a	feedback	poldrack-single-stim	s591	False
1.696	363.535	1.696	365.231	1	PA_without_intermediate	test	ward_and_allport	89	39.0	1.696	to_hand	poldrack-single-stim	s591	False
0.1	365.233	0.431	365.664	0	PA_without_intermediate	test	ward_and_allport	71	39.0	0.431	to_board	poldrack-single-stim	s591	False
0.1	365.671	0.401	366.072	0	PA_without_intermediate	test	ward_and_allport	89	39.0	0.401	to_hand	poldrack-single-stim	s591	False
0.1	366.074	0.364	366.438	0	PA_without_intermediate	test	ward_and_allport	82	39.0	0.364	to_board	poldrack-single-stim	s591	False
0.1	366.449	0.347	366.796	0	PA_without_intermediate	test	ward_and_allport	89	39.0	0.347	to_hand	poldrack-single-stim	s591	False
0.1	366.797	0.379	367.176	0	PA_without_intermediate	test	ward_and_allport	71	39.0	0.379	to_board	poldrack-single-stim	s591	False
1.0	367.186	2.408	367.185	0	PA_without_intermediate	test	ward_and_allport	-1	39.0	n/a	feedback	poldrack-single-stim	s591	False
2.532	369.601	2.532	372.133	1	PA_with_intermediate	test	ward_and_allport	82	40.0	2.532	to_hand	poldrack-single-stim	s591	False
0.1	372.134	0.5	372.634	0	PA_with_intermediate	test	ward_and_allport	71	40.0	0.5	to_board	poldrack-single-stim	s591	False
0.1	372.644	0.448	373.092	0	PA_with_intermediate	test	ward_and_allport	82	40.0	0.448	to_hand	poldrack-single-stim	s591	False
0.1	373.094	0.317	373.411	0	PA_with_intermediate	test	ward_and_allport	89	40.0	0.317	to_board	poldrack-single-stim	s591	False
0.1	373.42	0.46	373.88	0	PA_with_intermediate	test	ward_and_allport	71	40.0	0.46	to_hand	poldrack-single-stim	s591	False
0.1	373.881	0.408	374.289	0	PA_with_intermediate	test	ward_and_allport	82	40.0	0.408	to_board	poldrack-single-stim	s591	False
1.0	374.303	2.816	374.302	0	PA_with_intermediate	test	ward_and_allport	-1	40.0	n/a	feedback	poldrack-single-stim	s591	False
1.565	377.129	1.565	378.694	1	PA_without_intermediate	test	ward_and_allport	71	41.0	1.565	to_hand	poldrack-single-stim	s591	False
0.1	378.695	0.318	379.013	0	PA_without_intermediate	test	ward_and_allport	82	41.0	0.318	to_board	poldrack-single-stim	s591	False
0.1	379.023	0.401	379.424	0	PA_without_intermediate	test	ward_and_allport	71	41.0	0.401	to_hand	poldrack-single-stim	s591	False
0.1	379.425	0.282	379.707	0	PA_without_intermediate	test	ward_and_allport	89	41.0	0.282	to_board	poldrack-single-stim	s591	False
0.1	379.715	0.321	380.036	0	PA_without_intermediate	test	ward_and_allport	71	41.0	0.321	to_hand	poldrack-single-stim	s591	False
0.1	380.037	0.345	380.382	0	PA_without_intermediate	test	ward_and_allport	82	41.0	0.345	to_board	poldrack-single-stim	s591	False
1.0	380.395	3.088	380.394	0	PA_without_intermediate	test	ward_and_allport	-1	41.0	n/a	feedback	poldrack-single-stim	s591	False
1.156	383.494	1.156	384.65	1	PA_without_intermediate	test	ward_and_allport	82	42.0	1.156	to_hand	poldrack-single-stim	s591	False
0.1	384.651	0.421	385.072	0	PA_without_intermediate	test	ward_and_allport	71	42.0	0.421	to_board	poldrack-single-stim	s591	False
0.1	385.081	1.664	386.745	0	PA_without_intermediate	test	ward_and_allport	82	42.0	1.664	to_hand	poldrack-single-stim	s591	False
0.1	386.746	0.473	387.219	0	PA_without_intermediate	test	ward_and_allport	89	42.0	0.473	to_board	poldrack-single-stim	s591	False
0.1	387.227	1.217	388.444	0	PA_without_intermediate	test	ward_and_allport	82	42.0	1.217	to_hand	poldrack-single-stim	s591	False
0.1	388.445	0.401	388.846	0	PA_without_intermediate	test	ward_and_allport	71	42.0	0.401	to_board	poldrack-single-stim	s591	False
1.0	388.86	2.136	388.859	0	PA_without_intermediate	test	ward_and_allport	-1	42.0	n/a	feedback	poldrack-single-stim	s591	False
0.993	391.005	0.993	391.998	1	PA_without_intermediate	test	ward_and_allport	82	43.0	0.993	to_hand	poldrack-single-stim	s591	False
0.1	392.0	0.345	392.345	0	PA_without_intermediate	test	ward_and_allport	89	43.0	0.345	to_board	poldrack-single-stim	s591	False
0.1	392.355	0.756	393.111	0	PA_without_intermediate	test	ward_and_allport	82	43.0	0.756	to_hand	poldrack-single-stim	s591	False
0.1	393.113	0.395	393.508	0	PA_without_intermediate	test	ward_and_allport	71	43.0	0.395	to_board	poldrack-single-stim	s591	False
0.1	393.519	0.505	394.024	0	PA_without_intermediate	test	ward_and_allport	82	43.0	0.505	to_hand	poldrack-single-stim	s591	False
0.1	394.026	0.314	394.34	0	PA_without_intermediate	test	ward_and_allport	89	43.0	0.314	to_board	poldrack-single-stim	s591	False
1.0	394.353	7.168	394.352	0	PA_without_intermediate	test	ward_and_allport	-1	43.0	n/a	feedback	poldrack-single-stim	s591	False
1.705	401.528	1.705	403.233	1	PA_without_intermediate	test	ward_and_allport	89	44.0	1.705	to_hand	poldrack-single-stim	s591	False
0.1	403.234	0.431	403.665	0	PA_without_intermediate	test	ward_and_allport	82	44.0	0.431	to_board	poldrack-single-stim	s591	False
0.1	403.674	0.349	404.023	0	PA_without_intermediate	test	ward_and_allport	89	44.0	0.349	to_hand	poldrack-single-stim	s591	False
0.1	404.024	0.473	404.497	0	PA_without_intermediate	test	ward_and_allport	82	44.0	0.473	to_board	poldrack-single-stim	s591	False
0.1	404.51	0.313	404.823	0	PA_without_intermediate	test	ward_and_allport	89	44.0	0.313	to_hand	poldrack-single-stim	s591	False
0.1	404.823	0.348	405.171	0	PA_without_intermediate	test	ward_and_allport	71	44.0	0.348	to_board	poldrack-single-stim	s591	False
1.0	405.186	2.816	405.185	0	PA_without_intermediate	test	ward_and_allport	-1	44.0	n/a	feedback	poldrack-single-stim	s591	False
1.556	413.018	1.556	414.574	1	PA_with_intermediate	test	ward_and_allport	89	45.0	1.556	to_hand	poldrack-single-stim	s591	False
0.1	414.576	0.374	414.95	0	PA_with_intermediate	test	ward_and_allport	71	45.0	0.374	to_board	poldrack-single-stim	s591	False
0.1	414.965	0.28	415.245	0	PA_with_intermediate	test	ward_and_allport	89	45.0	0.28	to_hand	poldrack-single-stim	s591	False
0.1	415.246	0.353	415.599	0	PA_with_intermediate	test	ward_and_allport	82	45.0	0.353	to_board	poldrack-single-stim	s591	False
0.1	415.612	0.398	416.01	0	PA_with_intermediate	test	ward_and_allport	71	45.0	0.398	to_hand	poldrack-single-stim	s591	False
0.1	416.011	0.321	416.332	0	PA_with_intermediate	test	ward_and_allport	82	45.0	0.321	to_board	poldrack-single-stim	s591	False
1.0	416.35	2.952	416.349	0	PA_with_intermediate	test	ward_and_allport	-1	45.0	n/a	feedback	poldrack-single-stim	s591	False
2.395	419.314	2.395	421.709	1	PA_with_intermediate	test	ward_and_allport	89	46.0	2.395	to_hand	poldrack-single-stim	s591	False
0.1	421.711	0.403	422.114	0	PA_with_intermediate	test	ward_and_allport	82	46.0	0.403	to_board	poldrack-single-stim	s591	False
0.1	422.123	0.523	422.646	0	PA_with_intermediate	test	ward_and_allport	89	46.0	0.523	to_hand	poldrack-single-stim	s591	False
0.1	422.647	0.401	423.048	0	PA_with_intermediate	test	ward_and_allport	71	46.0	0.401	to_board	poldrack-single-stim	s591	False
0.1	423.059	0.404	423.463	0	PA_with_intermediate	test	ward_and_allport	82	46.0	0.404	to_hand	poldrack-single-stim	s591	False
0.1	423.465	0.305	423.77	0	PA_with_intermediate	test	ward_and_allport	89	46.0	0.305	to_board	poldrack-single-stim	s591	False
1.0	423.785	2.136	423.784	0	PA_with_intermediate	test	ward_and_allport	-1	46.0	n/a	feedback	poldrack-single-stim	s591	False
1.583	425.932	1.583	427.515	1	PA_without_intermediate	test	ward_and_allport	71	47.0	1.583	to_hand	poldrack-single-stim	s591	False
0.1	427.516	0.296	427.812	0	PA_without_intermediate	test	ward_and_allport	89	47.0	0.296	to_board	poldrack-single-stim	s591	False
0.1	427.822	1.065	428.887	0	PA_without_intermediate	test	ward_and_allport	71	47.0	1.065	to_hand	poldrack-single-stim	s591	False
0.1	428.889	0.327	429.216	0	PA_without_intermediate	test	ward_and_allport	89	47.0	0.327	to_board	poldrack-single-stim	s591	False
0.1	429.226	0.437	429.663	0	PA_without_intermediate	test	ward_and_allport	71	47.0	0.437	to_hand	poldrack-single-stim	s591	False
0.1	429.664	0.338	430.002	0	PA_without_intermediate	test	ward_and_allport	82	47.0	0.338	to_board	poldrack-single-stim	s591	False
1.0	430.014	2.68	430.013	0	PA_without_intermediate	test	ward_and_allport	-1	47.0	n/a	feedback	poldrack-single-stim	s591	False
