onset	duration	block_duration	condition	correct	correct_response	experiment_exp_id	key_press	response_time	stim_color	stim_word	trial_id	trial_type	worker_id	junk
3.515	1.5	2.0	incongruent	1.0	82.0	stroop	82	0.867	green	blue	stim	incongruent	s591	False
5.52	1.5	2.0	congruent	1.0	82.0	stroop	82	0.599	green	green	stim	congruent	s591	False
7.525	1.5	2.272	incongruent	1.0	82.0	stroop	82	0.568	green	blue	stim	incongruent	s591	False
9.803	1.5	2.0	incongruent	1.0	71.0	stroop	71	0.586	blue	red	stim	incongruent	s591	False
11.805	1.5	2.136	congruent	1.0	82.0	stroop	82	0.703	green	green	stim	congruent	s591	False
13.947	1.5	2.0	congruent	1.0	89.0	stroop	89	0.681	red	red	stim	congruent	s591	False
15.95	1.5	2.136	congruent	1.0	82.0	stroop	82	0.73	green	green	stim	congruent	s591	False
18.091	1.5	2.0	congruent	1.0	82.0	stroop	82	0.737	green	green	stim	congruent	s591	False
20.096	1.5	2.0	congruent	1.0	89.0	stroop	89	0.615	red	red	stim	congruent	s591	False
22.102	1.5	2.0	incongruent	1.0	82.0	stroop	82	0.677	green	blue	stim	incongruent	s591	False
24.107	1.5	2.272	incongruent	1.0	82.0	stroop	82	0.602	green	blue	stim	incongruent	s591	False
26.385	1.5	2.0	incongruent	1.0	89.0	stroop	89	0.645	red	green	stim	incongruent	s591	False
28.388	1.5	2.136	incongruent	1.0	89.0	stroop	89	0.577	red	blue	stim	incongruent	s591	False
30.526	1.5	2.408	congruent	1.0	71.0	stroop	71	0.734	blue	blue	stim	congruent	s591	False
32.939	1.5	2.272	incongruent	1.0	82.0	stroop	82	0.733	green	red	stim	incongruent	s591	False
35.214	1.5	2.68	congruent	1.0	71.0	stroop	71	0.604	blue	blue	stim	congruent	s591	False
37.9	1.5	2.0	congruent	1.0	89.0	stroop	89	0.497	red	red	stim	congruent	s591	False
39.903	1.5	2.408	congruent	1.0	89.0	stroop	89	0.542	red	red	stim	congruent	s591	False
42.314	1.5	2.136	congruent	1.0	71.0	stroop	71	0.62	blue	blue	stim	congruent	s591	False
44.455	1.5	2.68	incongruent	1.0	71.0	stroop	71	0.647	blue	red	stim	incongruent	s591	False
47.137	1.5	2.0	incongruent	1.0	89.0	stroop	89	0.891	red	blue	stim	incongruent	s591	False
49.14	1.5	2.136	incongruent	1.0	82.0	stroop	82	0.692	green	red	stim	incongruent	s591	False
51.277	1.5	2.952	congruent	1.0	82.0	stroop	82	0.725	green	green	stim	congruent	s591	False
54.234	1.5	2.0	incongruent	1.0	89.0	stroop	89	0.496	red	blue	stim	incongruent	s591	False
56.236	1.5	2.272	incongruent	1.0	89.0	stroop	89	0.519	red	green	stim	incongruent	s591	False
58.514	1.5	2.0	incongruent	1.0	89.0	stroop	89	0.452	red	blue	stim	incongruent	s591	False
60.519	1.5	2.0	congruent	1.0	71.0	stroop	71	0.745	blue	blue	stim	congruent	s591	False
62.525	1.5	2.0	congruent	1.0	82.0	stroop	82	0.648	green	green	stim	congruent	s591	False
64.53	1.5	2.0	incongruent	0.0	71.0	stroop	89	0.438	blue	green	stim	incongruent	s591	False
66.533	1.5	2.136	congruent	1.0	82.0	stroop	82	0.644	green	green	stim	congruent	s591	False
68.674	1.5	2.0	congruent	1.0	71.0	stroop	71	0.886	blue	blue	stim	congruent	s591	False
70.679	1.5	2.0	incongruent	1.0	82.0	stroop	82	0.646	green	red	stim	incongruent	s591	False
72.682	1.5	2.136	congruent	1.0	89.0	stroop	89	0.542	red	red	stim	congruent	s591	False
74.824	1.5	2.0	incongruent	1.0	82.0	stroop	82	0.651	green	blue	stim	incongruent	s591	False
76.828	1.5	2.0	incongruent	1.0	89.0	stroop	89	0.648	red	blue	stim	incongruent	s591	False
78.832	1.5	2.136	incongruent	1.0	82.0	stroop	82	0.829	green	blue	stim	incongruent	s591	False
80.97	1.5	2.136	congruent	1.0	71.0	stroop	71	0.515	blue	blue	stim	congruent	s591	False
83.112	1.5	2.272	congruent	1.0	71.0	stroop	71	0.657	blue	blue	stim	congruent	s591	False
85.386	1.5	2.68	incongruent	1.0	82.0	stroop	82	0.565	green	blue	stim	incongruent	s591	False
88.072	1.5	2.0	congruent	1.0	71.0	stroop	71	0.762	blue	blue	stim	congruent	s591	False
90.077	1.5	2.0	congruent	1.0	82.0	stroop	82	0.586	green	green	stim	congruent	s591	False
92.082	1.5	2.272	incongruent	1.0	82.0	stroop	82	0.683	green	red	stim	incongruent	s591	False
94.36	1.5	2.0	incongruent	1.0	71.0	stroop	71	0.592	blue	green	stim	incongruent	s591	False
96.365	1.5	2.0	congruent	1.0	89.0	stroop	89	0.584	red	red	stim	congruent	s591	False
98.37	1.5	2.0	incongruent	1.0	82.0	stroop	82	0.713	green	red	stim	incongruent	s591	False
100.376	1.5	2.0	incongruent	1.0	71.0	stroop	71	1.109	blue	red	stim	incongruent	s591	False
102.382	1.5	2.0	incongruent	1.0	71.0	stroop	71	0.608	blue	green	stim	incongruent	s591	False
104.387	1.5	2.0	incongruent	1.0	82.0	stroop	82	0.664	green	red	stim	incongruent	s591	False
106.388	1.5	2.272	congruent	1.0	89.0	stroop	89	0.568	red	red	stim	congruent	s591	False
108.665	1.5	2.0	incongruent	1.0	89.0	stroop	89	0.582	red	green	stim	incongruent	s591	False
110.668	1.5	2.408	congruent	1.0	82.0	stroop	82	0.752	green	green	stim	congruent	s591	False
113.081	1.5	2.0	congruent	1.0	82.0	stroop	82	0.596	green	green	stim	congruent	s591	False
115.083	1.5	2.136	congruent	1.0	89.0	stroop	89	0.588	red	red	stim	congruent	s591	False
117.224	1.5	2.0	congruent	1.0	71.0	stroop	71	0.561	blue	blue	stim	congruent	s591	False
119.23	1.5	2.0	congruent	1.0	89.0	stroop	89	0.683	red	red	stim	congruent	s591	False
121.235	1.5	2.0	incongruent	1.0	71.0	stroop	71	0.741	blue	green	stim	incongruent	s591	False
123.237	1.5	2.272	congruent	1.0	71.0	stroop	71	0.45	blue	blue	stim	congruent	s591	False
125.513	1.5	2.0	incongruent	1.0	82.0	stroop	82	0.633	green	red	stim	incongruent	s591	False
127.519	1.5	2.272	incongruent	1.0	71.0	stroop	71	1.005	blue	green	stim	incongruent	s591	False
129.796	1.5	2.272	incongruent	1.0	89.0	stroop	89	0.974	red	green	stim	incongruent	s591	False
132.074	1.5	2.0	incongruent	1.0	89.0	stroop	89	0.508	red	blue	stim	incongruent	s591	False
134.076	1.5	2.68	congruent	1.0	89.0	stroop	89	0.51	red	red	stim	congruent	s591	False
136.762	1.5	2.0	incongruent	1.0	71.0	stroop	71	0.747	blue	green	stim	incongruent	s591	False
138.767	1.5	2.272	congruent	1.0	71.0	stroop	71	0.769	blue	blue	stim	congruent	s591	False
141.044	1.5	2.0	congruent	1.0	89.0	stroop	89	0.731	red	red	stim	congruent	s591	False
143.05	1.5	2.0	congruent	1.0	89.0	stroop	89	0.57	red	red	stim	congruent	s591	False
145.055	1.5	2.272	incongruent	1.0	89.0	stroop	89	0.589	red	green	stim	incongruent	s591	False
147.33	1.5	2.136	congruent	1.0	89.0	stroop	89	0.659	red	red	stim	congruent	s591	False
149.471	1.5	2.544	congruent	1.0	71.0	stroop	71	0.682	blue	blue	stim	congruent	s591	False
152.018	1.5	2.408	incongruent	1.0	71.0	stroop	71	0.774	blue	green	stim	incongruent	s591	False
154.427	1.5	2.0	incongruent	1.0	82.0	stroop	82	0.803	green	blue	stim	incongruent	s591	False
156.432	1.5	2.0	incongruent	0.0	71.0	stroop	82	0.637	blue	red	stim	incongruent	s591	False
158.437	1.5	2.0	incongruent	1.0	89.0	stroop	89	0.674	red	blue	stim	incongruent	s591	False
160.442	1.5	2.544	congruent	1.0	71.0	stroop	71	0.599	blue	blue	stim	congruent	s591	False
162.989	1.5	2.136	congruent	1.0	89.0	stroop	89	0.981	red	red	stim	congruent	s591	False
165.131	1.5	2.0	congruent	1.0	82.0	stroop	82	0.858	green	green	stim	congruent	s591	False
167.136	1.5	2.0	congruent	1.0	82.0	stroop	82	0.629	green	green	stim	congruent	s591	False
169.141	1.5	2.272	congruent	1.0	71.0	stroop	71	0.919	blue	blue	stim	congruent	s591	False
171.415	1.5	2.0	incongruent	1.0	89.0	stroop	89	0.616	red	green	stim	incongruent	s591	False
173.419	1.5	2.0	congruent	1.0	71.0	stroop	71	0.685	blue	blue	stim	congruent	s591	False
175.42	1.5	2.136	incongruent	1.0	71.0	stroop	71	0.653	blue	red	stim	incongruent	s591	False
177.56	1.5	2.0	incongruent	1.0	89.0	stroop	89	0.954	red	green	stim	incongruent	s591	False
179.563	1.5	2.272	incongruent	1.0	71.0	stroop	71	0.702	blue	red	stim	incongruent	s591	False
181.836	1.5	2.136	congruent	1.0	82.0	stroop	82	0.421	green	green	stim	congruent	s591	False
183.977	1.5	2.408	incongruent	1.0	71.0	stroop	71	0.67	blue	green	stim	incongruent	s591	False
186.386	1.5	2.0	congruent	1.0	89.0	stroop	89	0.518	red	red	stim	congruent	s591	False
188.39	1.5	2.0	congruent	0.0	82.0	stroop	71	1.108	green	green	stim	congruent	s591	False
190.396	1.5	2.816	incongruent	0.0	71.0	stroop	89	1.118	blue	red	stim	incongruent	s591	False
193.217	1.5	2.0	incongruent	1.0	89.0	stroop	89	0.712	red	green	stim	incongruent	s591	False
195.22	1.5	2.0	incongruent	1.0	71.0	stroop	71	0.851	blue	red	stim	incongruent	s591	False
197.225	1.5	2.136	congruent	1.0	89.0	stroop	89	0.552	red	red	stim	congruent	s591	False
199.366	1.5	2.0	congruent	1.0	82.0	stroop	82	0.694	green	green	stim	congruent	s591	False
201.372	1.5	2.0	incongruent	1.0	82.0	stroop	82	0.558	green	red	stim	incongruent	s591	False
203.373	1.5	2.0	congruent	1.0	82.0	stroop	82	0.513	green	green	stim	congruent	s591	False
205.377	1.5	2.0	incongruent	1.0	89.0	stroop	89	0.724	red	blue	stim	incongruent	s591	False
207.383	1.5	2.0	congruent	1.0	71.0	stroop	71	0.511	blue	blue	stim	congruent	s591	False
