onset	duration	movement_onset	block_duration	condition	correct	correct_response	experiment_exp_id	key_press	response_time	trial_id	trial_type	worker_id	junk
3.019	0.5	3.018	0.5	AX	n/a	n/a	dot_pattern_expectancy	-1.0	n/a	cue	AX	s592	False
5.525	0.5	5.934	1.772	AX	1.0	89.0	dot_pattern_expectancy	89.0	0.409	probe	AX	s592	False
7.298	0.5	7.297	0.5	AX	n/a	n/a	dot_pattern_expectancy	-1.0	n/a	cue	AX	s592	False
9.809	0.5	10.218	1.5	AX	1.0	89.0	dot_pattern_expectancy	89.0	0.409	probe	AX	s592	False
11.314	0.5	11.313	0.5	AY	n/a	n/a	dot_pattern_expectancy	-1.0	n/a	cue	AY	s592	False
13.821	0.5	14.355	2.452	AY	1.0	71.0	dot_pattern_expectancy	71.0	0.534	probe	AY	s592	False
16.274	0.5	16.273	0.5	AY	n/a	n/a	dot_pattern_expectancy	-1.0	n/a	cue	AY	s592	False
18.784	0.5	19.308	1.772	AY	0.0	71.0	dot_pattern_expectancy	89.0	0.524	probe	AY	s592	False
20.557	0.5	20.556	0.5	AX	n/a	n/a	dot_pattern_expectancy	-1.0	n/a	cue	AX	s592	False
23.064	0.5	23.53	1.908	AX	1.0	89.0	dot_pattern_expectancy	89.0	0.466	probe	AX	s592	False
24.973	0.5	24.972	0.5	AX	n/a	n/a	dot_pattern_expectancy	-1.0	n/a	cue	AX	s592	False
27.482	0.5	27.93	1.908	AX	1.0	89.0	dot_pattern_expectancy	89.0	0.448	probe	AX	s592	False
29.394	0.5	29.393	0.5	AX	n/a	n/a	dot_pattern_expectancy	-1.0	n/a	cue	AX	s592	False
31.904	0.5	32.368	2.588	AX	1.0	89.0	dot_pattern_expectancy	89.0	0.464	probe	AX	s592	False
34.494	0.5	34.493	0.5	AY	n/a	n/a	dot_pattern_expectancy	-1.0	n/a	cue	AY	s592	False
37.003	0.5	37.46	1.5	AY	1.0	71.0	dot_pattern_expectancy	71.0	0.457	probe	AY	s592	False
38.504	0.5	38.503	0.5	BY	n/a	n/a	dot_pattern_expectancy	-1.0	n/a	cue	BY	s592	False
41.014	0.5	41.576	1.5	BY	1.0	71.0	dot_pattern_expectancy	71.0	0.562	probe	BY	s592	False
42.515	0.5	42.514	0.5	BY	n/a	n/a	dot_pattern_expectancy	-1.0	n/a	cue	BY	s592	False
45.024	0.5	45.326	1.5	BY	1.0	71.0	dot_pattern_expectancy	71.0	0.302	probe	BY	s592	False
46.531	0.5	46.53	0.5	AX	n/a	n/a	dot_pattern_expectancy	-1.0	n/a	cue	AX	s592	False
49.038	0.5	49.433	1.636	AX	1.0	89.0	dot_pattern_expectancy	89.0	0.395	probe	AX	s592	False
50.675	0.5	50.674	0.5	BX	n/a	n/a	dot_pattern_expectancy	-1.0	n/a	cue	BX	s592	False
53.184	0.5	53.452	2.044	BX	1.0	71.0	dot_pattern_expectancy	71.0	0.268	probe	BX	s592	False
55.23	0.5	55.229	0.5	AX	n/a	n/a	dot_pattern_expectancy	-1.0	n/a	cue	AX	s592	False
57.739	0.5	58.127	1.772	AX	1.0	89.0	dot_pattern_expectancy	89.0	0.388	probe	AX	s592	False
59.513	0.5	59.512	0.5	BX	n/a	n/a	dot_pattern_expectancy	-1.0	n/a	cue	BX	s592	False
62.022	0.5	62.356	2.588	BX	1.0	71.0	dot_pattern_expectancy	71.0	0.334	probe	BX	s592	False
64.614	0.5	64.613	0.5	AY	n/a	n/a	dot_pattern_expectancy	-1.0	n/a	cue	AY	s592	False
67.121	0.5	67.91	1.5	AY	1.0	71.0	dot_pattern_expectancy	71.0	0.789	probe	AY	s592	False
68.623	0.5	68.622	0.5	AX	n/a	n/a	dot_pattern_expectancy	-1.0	n/a	cue	AX	s592	False
71.134	0.5	71.648	2.452	AX	1.0	89.0	dot_pattern_expectancy	89.0	0.514	probe	AX	s592	False
73.593	0.5	73.592	0.5	BY	n/a	n/a	dot_pattern_expectancy	-1.0	n/a	cue	BY	s592	False
76.1	0.5	76.489	1.636	BY	1.0	71.0	dot_pattern_expectancy	71.0	0.389	probe	BY	s592	False
77.737	0.5	77.736	0.5	AX	n/a	n/a	dot_pattern_expectancy	-1.0	n/a	cue	AX	s592	False
80.243	0.5	80.715	1.636	AX	1.0	89.0	dot_pattern_expectancy	89.0	0.472	probe	AX	s592	False
81.882	0.5	81.881	0.5	AX	n/a	n/a	dot_pattern_expectancy	-1.0	n/a	cue	AX	s592	False
84.393	0.5	84.952	1.5	AX	1.0	89.0	dot_pattern_expectancy	89.0	0.559	probe	AX	s592	False
85.898	0.5	85.897	0.5	BY	n/a	n/a	dot_pattern_expectancy	-1.0	n/a	cue	BY	s592	False
88.403	0.5	89.571	1.636	BY	1.0	71.0	dot_pattern_expectancy	71.0	1.168	probe	BY	s592	False
90.042	0.5	90.041	0.5	AX	n/a	n/a	dot_pattern_expectancy	-1.0	n/a	cue	AX	s592	False
92.551	0.5	92.92	1.5	AX	1.0	89.0	dot_pattern_expectancy	89.0	0.369	probe	AX	s592	False
94.052	0.5	94.051	0.5	AY	n/a	n/a	dot_pattern_expectancy	-1.0	n/a	cue	AY	s592	False
96.564	0.5	97.23	2.18	AY	1.0	71.0	dot_pattern_expectancy	71.0	0.666	probe	AY	s592	False
98.746	0.5	98.745	0.5	AX	n/a	n/a	dot_pattern_expectancy	-1.0	n/a	cue	AX	s592	False
101.254	0.5	101.756	1.5	AX	1.0	89.0	dot_pattern_expectancy	89.0	0.502	probe	AX	s592	False
102.76	0.5	102.759	0.5	AX	n/a	n/a	dot_pattern_expectancy	-1.0	n/a	cue	AX	s592	False
105.263	0.5	105.733	1.908	AX	1.0	89.0	dot_pattern_expectancy	89.0	0.47	probe	AX	s592	False
107.174	0.5	107.173	0.5	BY	n/a	n/a	dot_pattern_expectancy	-1.0	n/a	cue	BY	s592	False
109.679	0.5	110.012	1.636	BY	1.0	71.0	dot_pattern_expectancy	71.0	0.333	probe	BY	s592	False
111.318	0.5	111.317	0.5	BY	n/a	n/a	dot_pattern_expectancy	-1.0	n/a	cue	BY	s592	False
113.825	0.5	114.467	1.636	BY	1.0	71.0	dot_pattern_expectancy	71.0	0.642	probe	BY	s592	False
115.466	0.5	115.465	0.5	AX	n/a	n/a	dot_pattern_expectancy	-1.0	n/a	cue	AX	s592	False
117.973	0.5	118.702	1.636	AX	1.0	89.0	dot_pattern_expectancy	89.0	0.729	probe	AX	s592	False
119.611	0.5	119.61	0.5	AX	n/a	n/a	dot_pattern_expectancy	-1.0	n/a	cue	AX	s592	False
122.122	0.5	122.784	1.5	AX	1.0	89.0	dot_pattern_expectancy	89.0	0.662	probe	AX	s592	False
123.627	0.5	123.626	0.5	BY	n/a	n/a	dot_pattern_expectancy	-1.0	n/a	cue	BY	s592	False
126.136	0.5	126.704	2.044	BY	1.0	71.0	dot_pattern_expectancy	71.0	0.568	probe	BY	s592	False
128.181	0.5	128.18	0.5	AY	n/a	n/a	dot_pattern_expectancy	-1.0	n/a	cue	AY	s592	False
130.688	0.5	131.451	2.18	AY	0.0	71.0	dot_pattern_expectancy	89.0	0.763	probe	AY	s592	False
132.871	0.5	132.87	0.5	AY	n/a	n/a	dot_pattern_expectancy	-1.0	n/a	cue	AY	s592	False
135.376	0.5	135.873	1.636	AY	0.0	71.0	dot_pattern_expectancy	89.0	0.497	probe	AY	s592	False
137.014	0.5	137.013	0.5	AY	n/a	n/a	dot_pattern_expectancy	-1.0	n/a	cue	AY	s592	False
139.523	0.5	140.142	1.772	AY	1.0	71.0	dot_pattern_expectancy	71.0	0.619	probe	AY	s592	False
141.296	0.5	141.295	0.5	BY	n/a	n/a	dot_pattern_expectancy	-1.0	n/a	cue	BY	s592	False
143.806	0.5	144.324	1.5	BY	1.0	71.0	dot_pattern_expectancy	71.0	0.518	probe	BY	s592	False
145.307	0.5	145.306	0.5	BX	n/a	n/a	dot_pattern_expectancy	-1.0	n/a	cue	BX	s592	False
147.814	0.5	148.207	1.908	BX	1.0	71.0	dot_pattern_expectancy	71.0	0.393	probe	BX	s592	False
149.723	0.5	149.722	0.5	AX	n/a	n/a	dot_pattern_expectancy	-1.0	n/a	cue	AX	s592	False
152.231	0.5	152.754	2.044	AX	1.0	89.0	dot_pattern_expectancy	89.0	0.523	probe	AX	s592	False
154.278	0.5	154.277	0.5	AX	n/a	n/a	dot_pattern_expectancy	-1.0	n/a	cue	AX	s592	False
156.785	0.5	157.351	1.636	AX	1.0	89.0	dot_pattern_expectancy	89.0	0.566	probe	AX	s592	False
158.422	0.5	158.421	0.5	AX	n/a	n/a	dot_pattern_expectancy	-1.0	n/a	cue	AX	s592	False
160.932	0.5	161.409	1.772	AX	1.0	89.0	dot_pattern_expectancy	89.0	0.477	probe	AX	s592	False
162.705	0.5	162.704	0.5	AX	n/a	n/a	dot_pattern_expectancy	-1.0	n/a	cue	AX	s592	False
165.212	0.5	165.686	1.636	AX	1.0	89.0	dot_pattern_expectancy	89.0	0.474	probe	AX	s592	False
166.849	0.5	166.848	0.5	BX	n/a	n/a	dot_pattern_expectancy	-1.0	n/a	cue	BX	s592	False
169.359	0.5	169.694	1.772	BX	1.0	71.0	dot_pattern_expectancy	71.0	0.335	probe	BX	s592	False
171.132	0.5	171.131	0.5	AX	n/a	n/a	dot_pattern_expectancy	-1.0	n/a	cue	AX	s592	False
173.641	0.5	174.157	1.5	AX	1.0	89.0	dot_pattern_expectancy	89.0	0.516	probe	AX	s592	False
185.657	0.5	185.656	0.5	BY	n/a	n/a	dot_pattern_expectancy	-1.0	n/a	cue	BY	s592	False
188.164	0.5	188.77	1.636	BY	1.0	71.0	dot_pattern_expectancy	71.0	0.606	probe	BY	s592	False
189.805	0.5	189.804	0.5	AY	n/a	n/a	dot_pattern_expectancy	-1.0	n/a	cue	AY	s592	False
192.309	0.5	192.807	1.5	AY	0.0	71.0	dot_pattern_expectancy	89.0	0.498	probe	AY	s592	False
193.815	0.5	193.814	0.5	AX	n/a	n/a	dot_pattern_expectancy	-1.0	n/a	cue	AX	s592	False
196.325	0.5	196.714	2.044	AX	1.0	89.0	dot_pattern_expectancy	89.0	0.389	probe	AX	s592	False
198.37	0.5	198.369	0.5	BY	n/a	n/a	dot_pattern_expectancy	-1.0	n/a	cue	BY	s592	False
200.879	0.5	201.445	1.772	BY	1.0	71.0	dot_pattern_expectancy	71.0	0.566	probe	BY	s592	False
202.653	0.5	202.652	0.5	BX	n/a	n/a	dot_pattern_expectancy	-1.0	n/a	cue	BX	s592	False
205.159	0.5	206.005	1.636	BX	1.0	71.0	dot_pattern_expectancy	71.0	0.846	probe	BX	s592	False
206.797	0.5	206.796	0.5	AX	n/a	n/a	dot_pattern_expectancy	-1.0	n/a	cue	AX	s592	False
209.309	0.5	209.723	1.636	AX	1.0	89.0	dot_pattern_expectancy	89.0	0.414	probe	AX	s592	False
210.946	0.5	210.945	0.5	AX	n/a	n/a	dot_pattern_expectancy	-1.0	n/a	cue	AX	s592	False
213.458	0.5	213.888	1.5	AX	1.0	89.0	dot_pattern_expectancy	89.0	0.43	probe	AX	s592	False
214.964	0.5	214.963	0.5	AX	n/a	n/a	dot_pattern_expectancy	-1.0	n/a	cue	AX	s592	False
217.469	0.5	217.893	1.5	AX	1.0	89.0	dot_pattern_expectancy	89.0	0.424	probe	AX	s592	False
218.975	0.5	218.974	0.5	AY	n/a	n/a	dot_pattern_expectancy	-1.0	n/a	cue	AY	s592	False
221.483	0.5	222.089	2.044	AY	1.0	71.0	dot_pattern_expectancy	71.0	0.606	probe	AY	s592	False
223.528	0.5	223.527	0.5	AX	n/a	n/a	dot_pattern_expectancy	-1.0	n/a	cue	AX	s592	False
226.035	0.5	226.409	2.452	AX	1.0	89.0	dot_pattern_expectancy	89.0	0.374	probe	AX	s592	False
228.488	0.5	228.487	0.5	AX	n/a	n/a	dot_pattern_expectancy	-1.0	n/a	cue	AX	s592	False
230.995	0.5	231.402	1.908	AX	1.0	89.0	dot_pattern_expectancy	89.0	0.407	probe	AX	s592	False
232.91	0.5	232.909	0.5	AX	n/a	n/a	dot_pattern_expectancy	-1.0	n/a	cue	AX	s592	False
235.421	0.5	236.437	1.5	AX	1.0	89.0	dot_pattern_expectancy	89.0	1.016	probe	AX	s592	False
236.926	0.5	236.925	0.5	AX	n/a	n/a	dot_pattern_expectancy	-1.0	n/a	cue	AX	s592	False
239.432	0.5	239.827	1.908	AX	1.0	89.0	dot_pattern_expectancy	89.0	0.395	probe	AX	s592	False
241.342	0.5	241.341	0.5	BX	n/a	n/a	dot_pattern_expectancy	-1.0	n/a	cue	BX	s592	False
243.848	0.5	244.179	2.18	BX	1.0	71.0	dot_pattern_expectancy	71.0	0.331	probe	BX	s592	False
246.03	0.5	246.029	0.5	AX	n/a	n/a	dot_pattern_expectancy	-1.0	n/a	cue	AX	s592	False
248.539	0.5	248.964	1.5	AX	1.0	89.0	dot_pattern_expectancy	89.0	0.425	probe	AX	s592	False
250.041	0.5	250.04	0.5	BY	n/a	n/a	dot_pattern_expectancy	-1.0	n/a	cue	BY	s592	False
252.547	0.5	252.869	1.908	BY	1.0	71.0	dot_pattern_expectancy	71.0	0.322	probe	BY	s592	False
254.459	0.5	254.458	0.5	BX	n/a	n/a	dot_pattern_expectancy	-1.0	n/a	cue	BX	s592	False
256.966	0.5	257.429	2.316	BX	1.0	71.0	dot_pattern_expectancy	71.0	0.463	probe	BX	s592	False
259.284	0.5	259.283	0.5	AY	n/a	n/a	dot_pattern_expectancy	-1.0	n/a	cue	AY	s592	False
261.788	0.5	262.406	2.316	AY	0.0	71.0	dot_pattern_expectancy	89.0	0.618	probe	AY	s592	False
264.107	0.5	264.106	0.5	BX	n/a	n/a	dot_pattern_expectancy	-1.0	n/a	cue	BX	s592	False
266.613	0.5	267.347	1.636	BX	1.0	71.0	dot_pattern_expectancy	71.0	0.734	probe	BX	s592	False
268.255	0.5	268.254	0.5	AY	n/a	n/a	dot_pattern_expectancy	-1.0	n/a	cue	AY	s592	False
270.766	0.5	271.32	1.5	AY	1.0	71.0	dot_pattern_expectancy	71.0	0.554	probe	AY	s592	False
272.271	0.5	272.27	0.5	BY	n/a	n/a	dot_pattern_expectancy	-1.0	n/a	cue	BY	s592	False
274.777	0.5	275.087	1.908	BY	1.0	71.0	dot_pattern_expectancy	71.0	0.31	probe	BY	s592	False
276.687	0.5	276.686	0.5	AX	n/a	n/a	dot_pattern_expectancy	-1.0	n/a	cue	AX	s592	False
279.196	0.5	279.709	1.5	AX	1.0	89.0	dot_pattern_expectancy	89.0	0.513	probe	AX	s592	False
280.704	0.5	280.703	0.5	AY	n/a	n/a	dot_pattern_expectancy	-1.0	n/a	cue	AY	s592	False
283.212	0.5	283.723	2.316	AY	1.0	71.0	dot_pattern_expectancy	71.0	0.511	probe	AY	s592	False
285.53	0.5	285.529	0.5	AX	n/a	n/a	dot_pattern_expectancy	-1.0	n/a	cue	AX	s592	False
288.034	0.5	288.44	1.5	AX	1.0	89.0	dot_pattern_expectancy	89.0	0.406	probe	AX	s592	False
289.535	0.5	289.534	0.5	AY	n/a	n/a	dot_pattern_expectancy	-1.0	n/a	cue	AY	s592	False
292.042	0.5	292.863	2.724	AY	1.0	71.0	dot_pattern_expectancy	71.0	0.821	probe	AY	s592	False
294.767	0.5	294.766	0.5	AX	n/a	n/a	dot_pattern_expectancy	-1.0	n/a	cue	AX	s592	False
297.278	0.5	298.298	1.5	AX	1.0	89.0	dot_pattern_expectancy	89.0	1.02	probe	AX	s592	False
298.781	0.5	298.78	0.5	AX	n/a	n/a	dot_pattern_expectancy	-1.0	n/a	cue	AX	s592	False
301.285	0.5	301.89	1.636	AX	1.0	89.0	dot_pattern_expectancy	89.0	0.605	probe	AX	s592	False
302.922	0.5	302.921	0.5	AX	n/a	n/a	dot_pattern_expectancy	-1.0	n/a	cue	AX	s592	False
305.431	0.5	306.028	1.636	AX	1.0	89.0	dot_pattern_expectancy	89.0	0.597	probe	AX	s592	False
307.072	0.5	307.071	0.5	AX	n/a	n/a	dot_pattern_expectancy	-1.0	n/a	cue	AX	s592	False
309.581	0.5	310.057	1.772	AX	1.0	89.0	dot_pattern_expectancy	89.0	0.476	probe	AX	s592	False
311.354	0.5	311.353	0.5	BY	n/a	n/a	dot_pattern_expectancy	-1.0	n/a	cue	BY	s592	False
313.864	0.5	314.175	1.772	BY	1.0	71.0	dot_pattern_expectancy	71.0	0.311	probe	BY	s592	False
315.641	0.5	315.64	0.5	AX	n/a	n/a	dot_pattern_expectancy	-1.0	n/a	cue	AX	s592	False
318.148	0.5	318.709	1.5	AX	1.0	89.0	dot_pattern_expectancy	89.0	0.561	probe	AX	s592	False
319.653	0.5	319.652	0.5	BY	n/a	n/a	dot_pattern_expectancy	-1.0	n/a	cue	BY	s592	False
322.16	0.5	322.666	2.452	BY	1.0	71.0	dot_pattern_expectancy	71.0	0.506	probe	BY	s592	False
324.613	0.5	324.612	0.5	AX	n/a	n/a	dot_pattern_expectancy	-1.0	n/a	cue	AX	s592	False
327.124	0.5	327.65	1.636	AX	1.0	89.0	dot_pattern_expectancy	89.0	0.526	probe	AX	s592	False
328.765	0.5	328.764	0.5	AX	n/a	n/a	dot_pattern_expectancy	-1.0	n/a	cue	AX	s592	False
331.27	0.5	331.695	1.636	AX	1.0	89.0	dot_pattern_expectancy	89.0	0.425	probe	AX	s592	False
332.907	0.5	332.906	0.5	BX	n/a	n/a	dot_pattern_expectancy	-1.0	n/a	cue	BX	s592	False
335.416	0.5	335.96	1.5	BX	1.0	71.0	dot_pattern_expectancy	71.0	0.544	probe	BX	s592	False
336.918	0.5	336.917	0.5	BX	n/a	n/a	dot_pattern_expectancy	-1.0	n/a	cue	BX	s592	False
339.429	0.5	339.975	1.5	BX	1.0	71.0	dot_pattern_expectancy	71.0	0.546	probe	BX	s592	False
340.931	0.5	340.93	0.5	AX	n/a	n/a	dot_pattern_expectancy	-1.0	n/a	cue	AX	s592	False
343.438	0.5	343.981	2.316	AX	1.0	89.0	dot_pattern_expectancy	89.0	0.543	probe	AX	s592	False
345.755	0.5	345.754	0.5	AY	n/a	n/a	dot_pattern_expectancy	-1.0	n/a	cue	AY	s592	False
348.265	0.5	348.856	2.044	AY	1.0	71.0	dot_pattern_expectancy	71.0	0.591	probe	AY	s592	False
350.31	0.5	350.309	0.5	AX	n/a	n/a	dot_pattern_expectancy	-1.0	n/a	cue	AX	s592	False
352.82	0.5	353.274	3.948	AX	1.0	89.0	dot_pattern_expectancy	89.0	0.454	probe	AX	s592	False
356.769	0.5	356.768	0.5	AX	n/a	n/a	dot_pattern_expectancy	-1.0	n/a	cue	AX	s592	False
359.276	0.5	359.795	1.636	AX	1.0	89.0	dot_pattern_expectancy	89.0	0.519	probe	AX	s592	False
371.428	0.5	371.427	0.5	AY	n/a	n/a	dot_pattern_expectancy	-1.0	n/a	cue	AY	s592	False
373.932	0.5	374.623	1.636	AY	1.0	71.0	dot_pattern_expectancy	71.0	0.691	probe	AY	s592	False
375.569	0.5	375.568	0.5	AX	n/a	n/a	dot_pattern_expectancy	-1.0	n/a	cue	AX	s592	False
378.08	0.5	378.495	1.636	AX	1.0	89.0	dot_pattern_expectancy	89.0	0.415	probe	AX	s592	False
379.719	0.5	379.718	0.5	AX	n/a	n/a	dot_pattern_expectancy	-1.0	n/a	cue	AX	s592	False
382.228	0.5	382.842	1.5	AX	1.0	89.0	dot_pattern_expectancy	89.0	0.614	probe	AX	s592	False
383.73	0.5	383.729	0.5	AX	n/a	n/a	dot_pattern_expectancy	-1.0	n/a	cue	AX	s592	False
386.241	0.5	386.741	1.5	AX	1.0	89.0	dot_pattern_expectancy	89.0	0.5	probe	AX	s592	False
387.746	0.5	387.745	0.5	AX	n/a	n/a	dot_pattern_expectancy	-1.0	n/a	cue	AX	s592	False
390.252	0.5	390.735	1.908	AX	1.0	89.0	dot_pattern_expectancy	89.0	0.483	probe	AX	s592	False
392.162	0.5	392.161	0.5	BX	n/a	n/a	dot_pattern_expectancy	-1.0	n/a	cue	BX	s592	False
394.669	0.5	395.034	1.636	BX	1.0	71.0	dot_pattern_expectancy	71.0	0.365	probe	BX	s592	False
396.309	0.5	396.308	0.5	AX	n/a	n/a	dot_pattern_expectancy	-1.0	n/a	cue	AX	s592	False
398.815	0.5	399.223	2.044	AX	1.0	89.0	dot_pattern_expectancy	89.0	0.408	probe	AX	s592	False
400.861	0.5	400.86	0.5	AX	n/a	n/a	dot_pattern_expectancy	-1.0	n/a	cue	AX	s592	False
403.37	0.5	403.822	1.772	AX	1.0	89.0	dot_pattern_expectancy	89.0	0.452	probe	AX	s592	False
405.144	0.5	405.143	0.5	AX	n/a	n/a	dot_pattern_expectancy	-1.0	n/a	cue	AX	s592	False
407.653	0.5	408.612	1.5	AX	1.0	89.0	dot_pattern_expectancy	89.0	0.959	probe	AX	s592	False
409.154	0.5	409.153	0.5	AX	n/a	n/a	dot_pattern_expectancy	-1.0	n/a	cue	AX	s592	False
411.664	0.5	412.265	2.18	AX	1.0	89.0	dot_pattern_expectancy	89.0	0.601	probe	AX	s592	False
413.848	0.5	413.847	0.5	AX	n/a	n/a	dot_pattern_expectancy	-1.0	n/a	cue	AX	s592	False
416.359	0.5	416.775	1.5	AX	1.0	89.0	dot_pattern_expectancy	89.0	0.416	probe	AX	s592	False
417.864	0.5	417.863	0.5	BX	n/a	n/a	dot_pattern_expectancy	-1.0	n/a	cue	BX	s592	False
420.375	0.5	420.905	3.676	BX	0.0	71.0	dot_pattern_expectancy	89.0	0.53	probe	BX	s592	False
424.056	0.5	424.055	0.5	BY	n/a	n/a	dot_pattern_expectancy	-1.0	n/a	cue	BY	s592	False
426.563	0.5	426.951	1.636	BY	1.0	71.0	dot_pattern_expectancy	71.0	0.388	probe	BY	s592	False
428.2	0.5	428.199	0.5	BY	n/a	n/a	dot_pattern_expectancy	-1.0	n/a	cue	BY	s592	False
430.707	0.5	431.178	1.636	BY	1.0	71.0	dot_pattern_expectancy	71.0	0.471	probe	BY	s592	False
432.344	0.5	432.343	0.5	BX	n/a	n/a	dot_pattern_expectancy	-1.0	n/a	cue	BX	s592	False
434.854	0.5	435.249	1.5	BX	1.0	71.0	dot_pattern_expectancy	71.0	0.395	probe	BX	s592	False
436.355	0.5	436.354	0.5	AX	n/a	n/a	dot_pattern_expectancy	-1.0	n/a	cue	AX	s592	False
438.862	0.5	439.259	1.908	AX	1.0	89.0	dot_pattern_expectancy	89.0	0.397	probe	AX	s592	False
440.771	0.5	440.77	0.5	AX	n/a	n/a	dot_pattern_expectancy	-1.0	n/a	cue	AX	s592	False
443.278	0.5	443.75	1.636	AX	1.0	89.0	dot_pattern_expectancy	89.0	0.472	probe	AX	s592	False
444.915	0.5	444.914	0.5	BX	n/a	n/a	dot_pattern_expectancy	-1.0	n/a	cue	BX	s592	False
447.427	0.5	447.814	1.5	BX	1.0	71.0	dot_pattern_expectancy	71.0	0.387	probe	BX	s592	False
448.932	0.5	448.931	0.5	AX	n/a	n/a	dot_pattern_expectancy	-1.0	n/a	cue	AX	s592	False
451.438	0.5	451.958	1.908	AX	1.0	89.0	dot_pattern_expectancy	89.0	0.52	probe	AX	s592	False
453.35	0.5	453.349	0.5	BY	n/a	n/a	dot_pattern_expectancy	-1.0	n/a	cue	BY	s592	False
455.854	0.5	456.189	2.18	BY	1.0	71.0	dot_pattern_expectancy	71.0	0.335	probe	BY	s592	False
458.036	0.5	458.035	0.5	AX	n/a	n/a	dot_pattern_expectancy	-1.0	n/a	cue	AX	s592	False
460.541	0.5	461.08	1.772	AX	1.0	89.0	dot_pattern_expectancy	89.0	0.539	probe	AX	s592	False
462.316	0.5	462.315	0.5	AX	n/a	n/a	dot_pattern_expectancy	-1.0	n/a	cue	AX	s592	False
464.824	0.5	465.427	1.5	AX	1.0	89.0	dot_pattern_expectancy	89.0	0.603	probe	AX	s592	False
466.326	0.5	466.325	0.5	AX	n/a	n/a	dot_pattern_expectancy	-1.0	n/a	cue	AX	s592	False
468.836	0.5	469.405	1.5	AX	1.0	89.0	dot_pattern_expectancy	89.0	0.569	probe	AX	s592	False
470.34	0.5	470.339	0.5	AX	n/a	n/a	dot_pattern_expectancy	-1.0	n/a	cue	AX	s592	False
472.849	0.5	473.334	2.044	AX	1.0	89.0	dot_pattern_expectancy	89.0	0.485	probe	AX	s592	False
474.895	0.5	474.894	0.5	AX	n/a	n/a	dot_pattern_expectancy	-1.0	n/a	cue	AX	s592	False
477.404	0.5	477.943	2.86	AX	1.0	89.0	dot_pattern_expectancy	89.0	0.539	probe	AX	s592	False
480.266	0.5	480.265	0.5	BX	n/a	n/a	dot_pattern_expectancy	-1.0	n/a	cue	BX	s592	False
482.775	0.5	483.193	1.5	BX	1.0	71.0	dot_pattern_expectancy	71.0	0.418	probe	BX	s592	False
484.276	0.5	484.275	0.5	BY	n/a	n/a	dot_pattern_expectancy	-1.0	n/a	cue	BY	s592	False
486.786	0.5	487.118	1.772	BY	1.0	71.0	dot_pattern_expectancy	71.0	0.332	probe	BY	s592	False
488.563	0.5	488.562	0.5	AX	n/a	n/a	dot_pattern_expectancy	-1.0	n/a	cue	AX	s592	False
491.069	0.5	491.423	1.772	AX	1.0	89.0	dot_pattern_expectancy	89.0	0.354	probe	AX	s592	False
492.842	0.5	492.841	0.5	AX	n/a	n/a	dot_pattern_expectancy	-1.0	n/a	cue	AX	s592	False
495.351	0.5	495.822	2.86	AX	1.0	89.0	dot_pattern_expectancy	89.0	0.471	probe	AX	s592	False
498.213	0.5	498.212	0.5	AX	n/a	n/a	dot_pattern_expectancy	-1.0	n/a	cue	AX	s592	False
500.722	0.5	501.055	1.772	AX	1.0	89.0	dot_pattern_expectancy	89.0	0.333	probe	AX	s592	False
502.496	0.5	502.495	0.5	BX	n/a	n/a	dot_pattern_expectancy	-1.0	n/a	cue	BX	s592	False
505.002	0.5	505.321	1.636	BX	1.0	71.0	dot_pattern_expectancy	71.0	0.319	probe	BX	s592	False
506.64	0.5	506.639	0.5	BX	n/a	n/a	dot_pattern_expectancy	-1.0	n/a	cue	BX	s592	False
509.146	0.5	509.494	2.452	BX	1.0	71.0	dot_pattern_expectancy	71.0	0.348	probe	BX	s592	False
511.6	0.5	511.599	0.5	AX	n/a	n/a	dot_pattern_expectancy	-1.0	n/a	cue	AX	s592	False
514.105	0.5	514.73	1.636	AX	1.0	89.0	dot_pattern_expectancy	89.0	0.625	probe	AX	s592	False
515.744	0.5	515.743	0.5	BX	n/a	n/a	dot_pattern_expectancy	-1.0	n/a	cue	BX	s592	False
518.253	0.5	518.685	1.5	BX	1.0	71.0	dot_pattern_expectancy	71.0	0.432	probe	BX	s592	False
519.755	0.5	519.754	0.5	AX	n/a	n/a	dot_pattern_expectancy	-1.0	n/a	cue	AX	s592	False
522.261	0.5	522.617	1.636	AX	1.0	89.0	dot_pattern_expectancy	89.0	0.356	probe	AX	s592	False
523.899	0.5	523.898	0.5	AX	n/a	n/a	dot_pattern_expectancy	-1.0	n/a	cue	AX	s592	False
526.406	0.5	526.874	1.636	AX	1.0	89.0	dot_pattern_expectancy	89.0	0.468	probe	AX	s592	False
528.043	0.5	528.042	0.5	BY	n/a	n/a	dot_pattern_expectancy	-1.0	n/a	cue	BY	s592	False
530.55	0.5	531.343	2.18	BY	1.0	71.0	dot_pattern_expectancy	71.0	0.793	probe	BY	s592	False
532.731	0.5	532.73	0.5	AX	n/a	n/a	dot_pattern_expectancy	-1.0	n/a	cue	AX	s592	False
535.24	0.5	535.793	1.5	AX	1.0	89.0	dot_pattern_expectancy	89.0	0.553	probe	AX	s592	False
536.742	0.5	536.741	0.5	AY	n/a	n/a	dot_pattern_expectancy	-1.0	n/a	cue	AY	s592	False
539.248	0.5	540.122	1.636	AY	0.0	71.0	dot_pattern_expectancy	89.0	0.874	probe	AY	s592	False
540.886	0.5	540.885	0.5	AX	n/a	n/a	dot_pattern_expectancy	-1.0	n/a	cue	AX	s592	False
543.393	0.5	544.337	1.636	AX	0.0	89.0	dot_pattern_expectancy	71.0	0.944	probe	AX	s592	False
555.547	0.5	555.546	0.5	AX	n/a	n/a	dot_pattern_expectancy	-1.0	n/a	cue	AX	s592	False
558.058	0.5	558.448	2.18	AX	1.0	89.0	dot_pattern_expectancy	89.0	0.39	probe	AX	s592	False
560.241	0.5	560.24	0.5	AY	n/a	n/a	dot_pattern_expectancy	-1.0	n/a	cue	AY	s592	False
562.75	0.5	563.379	2.316	AY	1.0	71.0	dot_pattern_expectancy	71.0	0.629	probe	AY	s592	False
565.068	0.5	565.067	0.5	AY	n/a	n/a	dot_pattern_expectancy	-1.0	n/a	cue	AY	s592	False
567.575	0.5	568.301	1.636	AY	1.0	71.0	dot_pattern_expectancy	71.0	0.726	probe	AY	s592	False
569.212	0.5	569.211	0.5	BX	n/a	n/a	dot_pattern_expectancy	-1.0	n/a	cue	BX	s592	False
571.719	0.5	572.043	1.908	BX	1.0	71.0	dot_pattern_expectancy	71.0	0.324	probe	BX	s592	False
573.633	0.5	573.632	0.5	AX	n/a	n/a	dot_pattern_expectancy	-1.0	n/a	cue	AX	s592	False
576.145	0.5	576.605	3.54	AX	1.0	89.0	dot_pattern_expectancy	89.0	0.46	probe	AX	s592	False
579.69	0.5	579.689	0.5	BX	n/a	n/a	dot_pattern_expectancy	-1.0	n/a	cue	BX	s592	False
582.194	0.5	582.685	1.636	BX	1.0	71.0	dot_pattern_expectancy	71.0	0.491	probe	BX	s592	False
583.835	0.5	583.834	0.5	BY	n/a	n/a	dot_pattern_expectancy	-1.0	n/a	cue	BY	s592	False
586.34	0.5	586.696	1.5	BY	1.0	71.0	dot_pattern_expectancy	71.0	0.356	probe	BY	s592	False
587.842	0.5	587.841	0.5	AX	n/a	n/a	dot_pattern_expectancy	-1.0	n/a	cue	AX	s592	False
590.351	0.5	591.104	1.5	AX	1.0	89.0	dot_pattern_expectancy	89.0	0.753	probe	AX	s592	False
591.853	0.5	591.852	0.5	AX	n/a	n/a	dot_pattern_expectancy	-1.0	n/a	cue	AX	s592	False
594.362	0.5	594.762	1.772	AX	1.0	89.0	dot_pattern_expectancy	89.0	0.4	probe	AX	s592	False
596.136	0.5	596.135	0.5	BY	n/a	n/a	dot_pattern_expectancy	-1.0	n/a	cue	BY	s592	False
598.642	0.5	599.072	2.452	BY	1.0	71.0	dot_pattern_expectancy	71.0	0.43	probe	BY	s592	False
601.1	0.5	601.099	0.5	AX	n/a	n/a	dot_pattern_expectancy	-1.0	n/a	cue	AX	s592	False
603.602	0.5	603.978	1.908	AX	1.0	89.0	dot_pattern_expectancy	89.0	0.376	probe	AX	s592	False
605.512	0.5	605.511	0.5	BX	n/a	n/a	dot_pattern_expectancy	-1.0	n/a	cue	BX	s592	False
608.018	0.5	608.609	1.636	BX	1.0	71.0	dot_pattern_expectancy	71.0	0.591	probe	BX	s592	False
609.656	0.5	609.655	0.5	AX	n/a	n/a	dot_pattern_expectancy	-1.0	n/a	cue	AX	s592	False
612.165	0.5	612.91	1.5	AX	1.0	89.0	dot_pattern_expectancy	89.0	0.745	probe	AX	s592	False
613.667	0.5	613.666	0.5	AX	n/a	n/a	dot_pattern_expectancy	-1.0	n/a	cue	AX	s592	False
616.173	0.5	616.785	1.636	AX	1.0	89.0	dot_pattern_expectancy	89.0	0.612	probe	AX	s592	False
617.813	0.5	617.812	0.5	AX	n/a	n/a	dot_pattern_expectancy	-1.0	n/a	cue	AX	s592	False
620.317	0.5	620.928	1.636	AX	1.0	89.0	dot_pattern_expectancy	89.0	0.611	probe	AX	s592	False
621.955	0.5	621.954	0.5	BY	n/a	n/a	dot_pattern_expectancy	-1.0	n/a	cue	BY	s592	False
624.462	0.5	624.778	2.452	BY	1.0	71.0	dot_pattern_expectancy	71.0	0.316	probe	BY	s592	False
626.915	0.5	626.914	0.5	AX	n/a	n/a	dot_pattern_expectancy	-1.0	n/a	cue	AX	s592	False
629.426	0.5	629.839	1.5	AX	1.0	89.0	dot_pattern_expectancy	89.0	0.413	probe	AX	s592	False
630.931	0.5	630.93	0.5	BY	n/a	n/a	dot_pattern_expectancy	-1.0	n/a	cue	BY	s592	False
633.442	0.5	633.715	1.5	BY	1.0	71.0	dot_pattern_expectancy	71.0	0.273	probe	BY	s592	False
634.947	0.5	634.946	0.5	AX	n/a	n/a	dot_pattern_expectancy	-1.0	n/a	cue	AX	s592	False
637.454	0.5	637.924	1.636	AX	1.0	89.0	dot_pattern_expectancy	89.0	0.47	probe	AX	s592	False
639.091	0.5	639.09	0.5	AX	n/a	n/a	dot_pattern_expectancy	-1.0	n/a	cue	AX	s592	False
641.602	0.5	642.008	1.636	AX	1.0	89.0	dot_pattern_expectancy	89.0	0.406	probe	AX	s592	False
643.241	0.5	643.24	0.5	AY	n/a	n/a	dot_pattern_expectancy	-1.0	n/a	cue	AY	s592	False
645.747	0.5	646.393	1.636	AY	1.0	71.0	dot_pattern_expectancy	71.0	0.646	probe	AY	s592	False
647.385	0.5	647.384	0.5	AX	n/a	n/a	dot_pattern_expectancy	-1.0	n/a	cue	AX	s592	False
649.894	0.5	650.385	1.5	AX	1.0	89.0	dot_pattern_expectancy	89.0	0.491	probe	AX	s592	False
651.396	0.5	651.395	0.5	AX	n/a	n/a	dot_pattern_expectancy	-1.0	n/a	cue	AX	s592	False
653.907	0.5	654.406	1.5	AX	1.0	89.0	dot_pattern_expectancy	89.0	0.499	probe	AX	s592	False
655.412	0.5	655.411	0.5	AX	n/a	n/a	dot_pattern_expectancy	-1.0	n/a	cue	AX	s592	False
657.921	0.5	658.638	1.772	AX	1.0	89.0	dot_pattern_expectancy	89.0	0.717	probe	AX	s592	False
659.695	0.5	659.694	0.5	AX	n/a	n/a	dot_pattern_expectancy	-1.0	n/a	cue	AX	s592	False
662.201	0.5	662.618	2.18	AX	1.0	89.0	dot_pattern_expectancy	89.0	0.417	probe	AX	s592	False
664.383	0.5	664.382	0.5	BX	n/a	n/a	dot_pattern_expectancy	-1.0	n/a	cue	BX	s592	False
666.892	0.5	667.32	1.772	BX	1.0	71.0	dot_pattern_expectancy	71.0	0.428	probe	BX	s592	False
668.666	0.5	668.665	0.5	BY	n/a	n/a	dot_pattern_expectancy	-1.0	n/a	cue	BY	s592	False
671.175	0.5	671.618	1.5	BY	1.0	71.0	dot_pattern_expectancy	71.0	0.443	probe	BY	s592	False
672.676	0.5	672.675	0.5	AX	n/a	n/a	dot_pattern_expectancy	-1.0	n/a	cue	AX	s592	False
675.186	0.5	675.679	1.5	AX	1.0	89.0	dot_pattern_expectancy	89.0	0.493	probe	AX	s592	False
676.687	0.5	676.686	0.5	AX	n/a	n/a	dot_pattern_expectancy	-1.0	n/a	cue	AX	s592	False
679.194	0.5	679.774	1.636	AX	1.0	89.0	dot_pattern_expectancy	89.0	0.58	probe	AX	s592	False
680.831	0.5	680.83	0.5	AY	n/a	n/a	dot_pattern_expectancy	-1.0	n/a	cue	AY	s592	False
683.338	0.5	684.004	2.18	AY	1.0	71.0	dot_pattern_expectancy	71.0	0.666	probe	AY	s592	False
685.519	0.5	685.518	0.5	AY	n/a	n/a	dot_pattern_expectancy	-1.0	n/a	cue	AY	s592	False
688.029	0.5	688.808	2.316	AY	1.0	71.0	dot_pattern_expectancy	71.0	0.779	probe	AY	s592	False
690.349	0.5	690.348	0.5	BX	n/a	n/a	dot_pattern_expectancy	-1.0	n/a	cue	BX	s592	False
692.853	0.5	693.273	1.636	BX	1.0	71.0	dot_pattern_expectancy	71.0	0.42	probe	BX	s592	False
694.49	0.5	694.489	0.5	BX	n/a	n/a	dot_pattern_expectancy	-1.0	n/a	cue	BX	s592	False
696.997	0.5	697.46	2.18	BX	1.0	71.0	dot_pattern_expectancy	71.0	0.463	probe	BX	s592	False
699.178	0.5	699.177	0.5	AY	n/a	n/a	dot_pattern_expectancy	-1.0	n/a	cue	AY	s592	False
701.687	0.5	702.562	2.044	AY	1.0	71.0	dot_pattern_expectancy	71.0	0.875	probe	AY	s592	False
703.733	0.5	703.732	0.5	AX	n/a	n/a	dot_pattern_expectancy	-1.0	n/a	cue	AX	s592	False
706.242	0.5	707.012	1.772	AX	1.0	89.0	dot_pattern_expectancy	89.0	0.77	probe	AX	s592	False
708.016	0.5	708.015	0.5	AX	n/a	n/a	dot_pattern_expectancy	-1.0	n/a	cue	AX	s592	False
710.525	0.5	710.524	1.5	AX	0.0	89.0	dot_pattern_expectancy	-1.0	n/a	probe	AX	s592	False
712.028	0.5	712.027	0.5	AX	n/a	n/a	dot_pattern_expectancy	-1.0	n/a	cue	AX	s592	False
714.533	0.5	714.96	2.18	AX	1.0	89.0	dot_pattern_expectancy	89.0	0.427	probe	AX	s592	False
716.72	0.5	716.719	0.5	AY	n/a	n/a	dot_pattern_expectancy	-1.0	n/a	cue	AY	s592	False
719.227	0.5	719.749	2.452	AY	1.0	71.0	dot_pattern_expectancy	71.0	0.522	probe	AY	s592	False
721.68	0.5	721.679	0.5	AX	n/a	n/a	dot_pattern_expectancy	-1.0	n/a	cue	AX	s592	False
724.187	0.5	724.593	1.636	AX	1.0	89.0	dot_pattern_expectancy	89.0	0.406	probe	AX	s592	False
725.824	0.5	725.823	0.5	AX	n/a	n/a	dot_pattern_expectancy	-1.0	n/a	cue	AX	s592	False
728.331	0.5	728.702	1.908	AX	1.0	89.0	dot_pattern_expectancy	89.0	0.371	probe	AX	s592	False
