onset	duration	movement_onset	CTI	block_duration	correct	correct_response	cue	cue_switch	experiment_exp_id	key_press	response_time	stim_color	stim_number	switch_type	task	task_switch	trial_id	trial_type	worker_id	first_trial_of_block	junk
3.624	1.0	4.385	0.1	2.272	True	89.0	High-Low	stay	twobytwo	89.0	0.661	orange	6.0	cue_stay	magnitude	stay	stim	poldrack-single-stim	s593	1	False
6.805	1.0	8.159	0.9	2.136	True	71.0	Orange-Blue	n/a	twobytwo	71.0	0.454	blue	9.0	task_switch	color	switch	stim	poldrack-single-stim	s593	0	False
9.853	1.0	11.178	0.9	2.0	True	89.0	Color	switch	twobytwo	89.0	0.425	orange	7.0	cue_switch	color	stay	stim	poldrack-single-stim	s593	0	False
11.965	1.0	12.581	0.1	2.0	True	89.0	Magnitude	n/a	twobytwo	89.0	0.516	orange	7.0	task_switch	magnitude	switch	stim	poldrack-single-stim	s593	0	False
14.874	1.0	16.21	0.9	2.136	True	89.0	Color	n/a	twobytwo	89.0	0.436	orange	3.0	task_switch	color	switch	stim	poldrack-single-stim	s593	0	False
17.922	1.0	19.371	0.9	2.0	True	71.0	High-Low	n/a	twobytwo	71.0	0.549	orange	2.0	task_switch	magnitude	switch	stim	poldrack-single-stim	s593	0	False
20.826	1.0	22.253	0.9	2.136	True	71.0	Orange-Blue	n/a	twobytwo	71.0	0.527	blue	2.0	task_switch	color	switch	stim	poldrack-single-stim	s593	0	False
23.871	1.0	25.218	0.9	2.408	True	89.0	Orange-Blue	stay	twobytwo	89.0	0.447	orange	6.0	cue_stay	color	stay	stim	poldrack-single-stim	s593	0	False
26.389	1.0	27.167	0.1	2.136	True	71.0	High-Low	n/a	twobytwo	71.0	0.678	blue	4.0	task_switch	magnitude	switch	stim	poldrack-single-stim	s593	0	False
28.636	1.0	29.857	0.1	2.0	False	89.0	Orange-Blue	n/a	twobytwo	71.0	1.121	orange	1.0	task_switch	color	switch	stim	poldrack-single-stim	s593	0	False
30.746	1.0	31.953	0.1	2.136	True	71.0	High-Low	n/a	twobytwo	71.0	1.107	orange	4.0	task_switch	magnitude	switch	stim	poldrack-single-stim	s593	0	False
32.991	1.0	33.665	0.1	2.272	True	89.0	High-Low	stay	twobytwo	89.0	0.574	blue	7.0	cue_stay	magnitude	stay	stim	poldrack-single-stim	s593	0	False
35.367	1.0	36.046	0.1	2.0	True	89.0	Color	n/a	twobytwo	89.0	0.579	orange	7.0	task_switch	color	switch	stim	poldrack-single-stim	s593	0	False
38.271	1.0	39.594	0.9	2.408	True	89.0	High-Low	n/a	twobytwo	89.0	0.423	orange	7.0	task_switch	magnitude	switch	stim	poldrack-single-stim	s593	0	False
41.591	1.0	42.967	0.9	2.0	True	89.0	Magnitude	switch	twobytwo	89.0	0.476	blue	6.0	cue_switch	magnitude	stay	stim	poldrack-single-stim	s593	0	False
44.501	1.0	45.95	0.9	2.136	True	89.0	Color	n/a	twobytwo	89.0	0.549	orange	4.0	task_switch	color	switch	stim	poldrack-single-stim	s593	0	False
46.741	1.0	47.455	0.1	2.408	True	89.0	High-Low	n/a	twobytwo	89.0	0.614	orange	7.0	task_switch	magnitude	switch	stim	poldrack-single-stim	s593	0	False
49.258	1.0	50.253	0.1	2.136	True	71.0	Orange-Blue	n/a	twobytwo	71.0	0.895	blue	1.0	task_switch	color	switch	stim	poldrack-single-stim	s593	0	False
51.498	1.0	52.175	0.1	2.408	True	89.0	High-Low	n/a	twobytwo	89.0	0.577	orange	9.0	task_switch	magnitude	switch	stim	poldrack-single-stim	s593	0	False
54.816	1.0	56.109	0.9	2.136	True	89.0	Orange-Blue	n/a	twobytwo	89.0	0.393	orange	9.0	task_switch	color	switch	stim	poldrack-single-stim	s593	0	False
57.859	1.0	59.176	0.9	2.0	True	89.0	Color	switch	twobytwo	89.0	0.417	orange	3.0	cue_switch	color	stay	stim	poldrack-single-stim	s593	0	False
59.968	1.0	60.781	0.1	2.272	True	71.0	Color	stay	twobytwo	71.0	0.713	blue	9.0	cue_stay	color	stay	stim	poldrack-single-stim	s593	0	False
62.349	1.0	63.208	0.1	2.0	True	89.0	Magnitude	n/a	twobytwo	89.0	0.759	blue	9.0	task_switch	magnitude	switch	stim	poldrack-single-stim	s593	0	False
64.455	1.0	65.437	0.1	2.272	True	71.0	Orange-Blue	n/a	twobytwo	71.0	0.882	blue	2.0	task_switch	color	switch	stim	poldrack-single-stim	s593	0	False
66.84	1.0	67.727	0.1	2.272	True	89.0	Color	switch	twobytwo	89.0	0.787	orange	7.0	cue_switch	color	stay	stim	poldrack-single-stim	s593	0	False
70.021	1.0	71.28	0.9	2.952	True	71.0	Orange-Blue	switch	twobytwo	71.0	0.359	blue	6.0	cue_switch	color	stay	stim	poldrack-single-stim	s593	0	False
73.078	1.0	74.017	0.1	2.68	True	89.0	Orange-Blue	stay	twobytwo	89.0	0.839	orange	9.0	cue_stay	color	stay	stim	poldrack-single-stim	s593	0	False
76.666	1.0	77.906	0.9	2.136	True	71.0	Orange-Blue	stay	twobytwo	71.0	0.34	blue	6.0	cue_stay	color	stay	stim	poldrack-single-stim	s593	0	False
79.714	1.0	81.116	0.9	2.272	True	71.0	Orange-Blue	stay	twobytwo	71.0	0.502	blue	8.0	cue_stay	color	stay	stim	poldrack-single-stim	s593	0	False
82.095	1.0	82.767	0.1	2.272	True	89.0	Color	switch	twobytwo	89.0	0.572	orange	9.0	cue_switch	color	stay	stim	poldrack-single-stim	s593	0	False
85.274	1.0	86.6	0.9	2.136	True	89.0	Magnitude	n/a	twobytwo	89.0	0.426	blue	6.0	task_switch	magnitude	switch	stim	poldrack-single-stim	s593	0	False
88.319	1.0	89.685	0.9	2.408	True	89.0	High-Low	switch	twobytwo	89.0	0.466	orange	9.0	cue_switch	magnitude	stay	stim	poldrack-single-stim	s593	0	False
90.837	1.0	91.586	0.1	2.136	True	71.0	Magnitude	switch	twobytwo	71.0	0.649	blue	3.0	cue_switch	magnitude	stay	stim	poldrack-single-stim	s593	0	False
93.08	1.0	93.913	0.1	2.136	True	71.0	High-Low	switch	twobytwo	71.0	0.733	blue	4.0	cue_switch	magnitude	stay	stim	poldrack-single-stim	s593	0	False
95.325	1.0	96.086	0.1	2.0	True	71.0	Magnitude	switch	twobytwo	71.0	0.661	blue	1.0	cue_switch	magnitude	stay	stim	poldrack-single-stim	s593	0	False
98.231	1.0	99.594	0.9	2.0	True	71.0	Magnitude	stay	twobytwo	71.0	0.463	blue	1.0	cue_stay	magnitude	stay	stim	poldrack-single-stim	s593	0	False
101.138	1.0	102.524	0.9	2.0	True	71.0	High-Low	switch	twobytwo	71.0	0.486	orange	4.0	cue_switch	magnitude	stay	stim	poldrack-single-stim	s593	0	False
104.045	1.0	105.368	0.9	2.0	True	89.0	Magnitude	switch	twobytwo	89.0	0.423	blue	8.0	cue_switch	magnitude	stay	stim	poldrack-single-stim	s593	0	False
106.157	1.0	106.929	0.1	2.0	True	71.0	High-Low	switch	twobytwo	71.0	0.672	blue	2.0	cue_switch	magnitude	stay	stim	poldrack-single-stim	s593	0	False
108.264	1.0	108.928	0.1	2.272	True	71.0	Magnitude	switch	twobytwo	71.0	0.564	blue	2.0	cue_switch	magnitude	stay	stim	poldrack-single-stim	s593	0	False
111.445	1.0	112.795	0.9	2.408	True	71.0	High-Low	switch	twobytwo	71.0	0.45	blue	2.0	cue_switch	magnitude	stay	stim	poldrack-single-stim	s593	0	False
113.959	1.0	114.622	0.1	2.0	True	71.0	High-Low	stay	twobytwo	71.0	0.563	orange	3.0	cue_stay	magnitude	stay	stim	poldrack-single-stim	s593	0	False
116.869	1.0	118.415	0.9	2.136	True	89.0	Orange-Blue	n/a	twobytwo	89.0	0.646	orange	8.0	task_switch	color	switch	stim	poldrack-single-stim	s593	0	False
119.109	1.0	120.391	0.1	2.0	True	89.0	Color	switch	twobytwo	89.0	1.182	orange	6.0	cue_switch	color	stay	stim	poldrack-single-stim	s593	0	False
121.215	1.0	122.082	0.1	2.136	True	89.0	High-Low	n/a	twobytwo	89.0	0.767	orange	9.0	task_switch	magnitude	switch	stim	poldrack-single-stim	s593	0	False
123.458	1.0	124.453	0.1	2.544	True	89.0	Color	n/a	twobytwo	89.0	0.895	orange	4.0	task_switch	color	switch	stim	poldrack-single-stim	s593	0	False
126.911	1.0	128.291	0.9	2.68	True	89.0	High-Low	n/a	twobytwo	89.0	0.48	blue	9.0	task_switch	magnitude	switch	stim	poldrack-single-stim	s593	0	False
130.503	1.0	131.924	0.9	3.088	True	89.0	Magnitude	switch	twobytwo	89.0	0.521	blue	7.0	cue_switch	magnitude	stay	stim	poldrack-single-stim	s593	0	False
133.701	1.0	134.402	0.1	2.136	True	71.0	High-Low	switch	twobytwo	71.0	0.601	blue	3.0	cue_switch	magnitude	stay	stim	poldrack-single-stim	s593	0	False
136.749	1.0	138.075	0.9	2.544	True	89.0	Magnitude	switch	twobytwo	89.0	0.426	blue	7.0	cue_switch	magnitude	stay	stim	poldrack-single-stim	s593	0	False
139.399	1.0	140.014	0.1	2.0	True	89.0	High-Low	switch	twobytwo	89.0	0.515	orange	6.0	cue_switch	magnitude	stay	stim	poldrack-single-stim	s593	0	False
142.309	1.0	143.655	0.9	2.136	True	71.0	Orange-Blue	n/a	twobytwo	71.0	0.446	blue	4.0	task_switch	color	switch	stim	poldrack-single-stim	s593	0	False
145.357	1.0	146.724	0.9	2.0	True	89.0	High-Low	n/a	twobytwo	89.0	0.467	blue	9.0	task_switch	magnitude	switch	stim	poldrack-single-stim	s593	0	False
147.465	1.0	148.089	0.1	2.408	True	89.0	Color	n/a	twobytwo	89.0	0.524	orange	6.0	task_switch	color	switch	stim	poldrack-single-stim	s593	0	False
149.981	1.0	151.2	0.1	2.0	True	71.0	Orange-Blue	switch	twobytwo	71.0	1.119	blue	8.0	cue_switch	color	stay	stim	poldrack-single-stim	s593	0	False
152.893	1.0	154.232	0.9	2.0	True	89.0	Orange-Blue	stay	twobytwo	89.0	0.439	orange	9.0	cue_stay	color	stay	stim	poldrack-single-stim	s593	0	False
155.802	1.0	157.138	0.9	2.0	True	89.0	Magnitude	n/a	twobytwo	89.0	0.436	orange	9.0	task_switch	magnitude	switch	stim	poldrack-single-stim	s593	0	False
157.909	1.0	158.677	0.1	2.68	True	89.0	Magnitude	stay	twobytwo	89.0	0.668	blue	8.0	cue_stay	magnitude	stay	stim	poldrack-single-stim	s593	0	False
160.698	1.0	161.268	0.1	2.272	True	89.0	High-Low	switch	twobytwo	89.0	0.47	blue	9.0	cue_switch	magnitude	stay	stim	poldrack-single-stim	s593	0	False
163.077	1.0	163.644	0.1	2.408	True	89.0	High-Low	stay	twobytwo	89.0	0.467	orange	7.0	cue_stay	magnitude	stay	stim	poldrack-single-stim	s593	0	False
165.594	1.0	166.123	0.1	3.224	False	71.0	High-Low	stay	twobytwo	89.0	0.429	orange	4.0	cue_stay	magnitude	stay	stim	poldrack-single-stim	s593	0	False
168.927	1.0	169.542	0.1	2.408	True	89.0	Orange-Blue	n/a	twobytwo	89.0	0.515	orange	7.0	task_switch	color	switch	stim	poldrack-single-stim	s593	0	False
171.447	1.0	172.091	0.1	2.816	True	89.0	Magnitude	n/a	twobytwo	89.0	0.544	orange	6.0	task_switch	magnitude	switch	stim	poldrack-single-stim	s593	0	False
174.373	1.0	174.983	0.1	2.408	True	71.0	Color	n/a	twobytwo	71.0	0.51	blue	3.0	task_switch	color	switch	stim	poldrack-single-stim	s593	0	False
176.889	1.0	177.661	0.1	2.136	True	71.0	Magnitude	n/a	twobytwo	71.0	0.672	orange	2.0	task_switch	magnitude	switch	stim	poldrack-single-stim	s593	0	False
179.933	1.0	181.283	0.9	2.136	True	89.0	Magnitude	stay	twobytwo	89.0	0.45	blue	7.0	cue_stay	magnitude	stay	stim	poldrack-single-stim	s593	0	False
182.977	1.0	184.378	0.9	2.0	True	71.0	High-Low	switch	twobytwo	71.0	0.501	blue	3.0	cue_switch	magnitude	stay	stim	poldrack-single-stim	s593	0	False
185.885	1.0	187.312	0.9	2.0	True	89.0	Magnitude	switch	twobytwo	89.0	0.527	orange	7.0	cue_switch	magnitude	stay	stim	poldrack-single-stim	s593	0	False
187.991	1.0	188.737	0.1	2.272	True	89.0	Color	n/a	twobytwo	89.0	0.646	orange	9.0	task_switch	color	switch	stim	poldrack-single-stim	s593	0	False
190.368	1.0	191.029	0.1	2.408	True	89.0	High-Low	n/a	twobytwo	89.0	0.561	orange	9.0	task_switch	magnitude	switch	stim	poldrack-single-stim	s593	0	False
193.687	1.0	194.983	0.9	2.0	True	71.0	Orange-Blue	n/a	twobytwo	71.0	0.396	blue	2.0	task_switch	color	switch	stim	poldrack-single-stim	s593	0	False
196.597	1.0	197.92	0.9	2.136	True	89.0	Color	switch	twobytwo	89.0	0.423	orange	1.0	cue_switch	color	stay	stim	poldrack-single-stim	s593	0	False
199.641	1.0	201.039	0.9	2.0	True	71.0	Magnitude	n/a	twobytwo	71.0	0.498	blue	4.0	task_switch	magnitude	switch	stim	poldrack-single-stim	s593	0	False
201.749	1.0	202.591	0.1	2.408	True	89.0	Orange-Blue	n/a	twobytwo	89.0	0.742	orange	3.0	task_switch	color	switch	stim	poldrack-single-stim	s593	0	False
205.069	1.0	206.42	0.9	2.272	True	71.0	Color	switch	twobytwo	71.0	0.451	blue	7.0	cue_switch	color	stay	stim	poldrack-single-stim	s593	0	False
207.45	1.0	208.36	0.1	2.0	True	71.0	High-Low	n/a	twobytwo	71.0	0.81	orange	1.0	task_switch	magnitude	switch	stim	poldrack-single-stim	s593	0	False
209.559	1.0	210.251	0.1	2.272	True	71.0	Magnitude	switch	twobytwo	71.0	0.592	blue	3.0	cue_switch	magnitude	stay	stim	poldrack-single-stim	s593	0	False
212.743	1.0	214.036	0.9	2.0	True	89.0	Color	n/a	twobytwo	89.0	0.393	orange	8.0	task_switch	color	switch	stim	poldrack-single-stim	s593	0	False
214.85	1.0	215.738	0.1	2.0	True	89.0	Magnitude	n/a	twobytwo	89.0	0.788	orange	9.0	task_switch	magnitude	switch	stim	poldrack-single-stim	s593	0	False
216.957	1.0	217.612	0.1	2.272	True	89.0	Magnitude	stay	twobytwo	89.0	0.555	orange	7.0	cue_stay	magnitude	stay	stim	poldrack-single-stim	s593	0	False
232.853	1.0	233.53	0.1	2.136	True	89.0	Magnitude	stay	twobytwo	89.0	0.577	orange	6.0	cue_stay	magnitude	stay	stim	poldrack-single-stim	s593	1	False
235.901	1.0	237.093	0.9	2.0	True	71.0	Orange-Blue	n/a	twobytwo	71.0	0.292	blue	9.0	task_switch	color	switch	stim	poldrack-single-stim	s593	0	False
238.813	1.0	240.082	0.9	2.0	True	89.0	Color	switch	twobytwo	89.0	0.369	orange	7.0	cue_switch	color	stay	stim	poldrack-single-stim	s593	0	False
240.919	1.0	241.56	0.1	2.0	True	89.0	High-Low	n/a	twobytwo	89.0	0.541	orange	7.0	task_switch	magnitude	switch	stim	poldrack-single-stim	s593	0	False
243.831	1.0	245.085	0.9	2.0	True	89.0	Orange-Blue	n/a	twobytwo	89.0	0.354	orange	3.0	task_switch	color	switch	stim	poldrack-single-stim	s593	0	False
246.744	1.0	248.06	0.9	2.0	True	71.0	High-Low	n/a	twobytwo	71.0	0.416	orange	2.0	task_switch	magnitude	switch	stim	poldrack-single-stim	s593	0	False
249.653	1.0	251.085	0.9	2.136	True	71.0	Orange-Blue	n/a	twobytwo	71.0	0.532	blue	2.0	task_switch	color	switch	stim	poldrack-single-stim	s593	0	False
252.701	1.0	254.002	0.9	2.0	True	89.0	Orange-Blue	stay	twobytwo	89.0	0.401	orange	6.0	cue_stay	color	stay	stim	poldrack-single-stim	s593	0	False
254.807	1.0	255.578	0.1	2.0	True	71.0	Magnitude	n/a	twobytwo	71.0	0.671	blue	4.0	task_switch	magnitude	switch	stim	poldrack-single-stim	s593	0	False
256.911	1.0	257.556	0.1	2.136	True	89.0	Color	n/a	twobytwo	89.0	0.545	orange	1.0	task_switch	color	switch	stim	poldrack-single-stim	s593	0	False
259.154	1.0	259.978	0.1	2.0	True	71.0	High-Low	n/a	twobytwo	71.0	0.724	orange	4.0	task_switch	magnitude	switch	stim	poldrack-single-stim	s593	0	False
261.263	1.0	262.007	0.1	2.136	True	89.0	High-Low	stay	twobytwo	89.0	0.644	blue	7.0	cue_stay	magnitude	stay	stim	poldrack-single-stim	s593	0	False
263.509	1.0	264.234	0.1	2.68	True	89.0	Orange-Blue	n/a	twobytwo	89.0	0.625	orange	7.0	task_switch	color	switch	stim	poldrack-single-stim	s593	0	False
267.096	1.0	268.507	0.9	2.272	True	89.0	Magnitude	n/a	twobytwo	89.0	0.511	orange	7.0	task_switch	magnitude	switch	stim	poldrack-single-stim	s593	0	False
270.279	1.0	271.636	0.9	2.136	True	89.0	High-Low	switch	twobytwo	89.0	0.457	blue	6.0	cue_switch	magnitude	stay	stim	poldrack-single-stim	s593	0	False
273.325	1.0	274.635	0.9	2.0	True	89.0	Orange-Blue	n/a	twobytwo	89.0	0.41	orange	4.0	task_switch	color	switch	stim	poldrack-single-stim	s593	0	False
275.434	1.0	276.024	0.1	2.136	True	89.0	High-Low	n/a	twobytwo	89.0	0.49	orange	7.0	task_switch	magnitude	switch	stim	poldrack-single-stim	s593	0	False
277.679	1.0	278.364	0.1	2.68	True	71.0	Orange-Blue	n/a	twobytwo	71.0	0.585	blue	1.0	task_switch	color	switch	stim	poldrack-single-stim	s593	0	False
280.471	1.0	281.118	0.1	2.272	True	89.0	High-Low	n/a	twobytwo	89.0	0.547	orange	9.0	task_switch	magnitude	switch	stim	poldrack-single-stim	s593	0	False
283.651	1.0	284.928	0.9	2.0	True	89.0	Color	n/a	twobytwo	89.0	0.377	orange	9.0	task_switch	color	switch	stim	poldrack-single-stim	s593	0	False
286.562	1.0	287.96	0.9	2.0	True	89.0	Orange-Blue	switch	twobytwo	89.0	0.498	orange	3.0	cue_switch	color	stay	stim	poldrack-single-stim	s593	0	False
288.673	1.0	289.294	0.1	2.136	True	71.0	Orange-Blue	stay	twobytwo	71.0	0.521	blue	9.0	cue_stay	color	stay	stim	poldrack-single-stim	s593	0	False
290.916	1.0	291.592	0.1	2.0	True	89.0	Magnitude	n/a	twobytwo	89.0	0.576	blue	9.0	task_switch	magnitude	switch	stim	poldrack-single-stim	s593	0	False
293.026	1.0	293.687	0.1	2.0	False	71.0	Color	n/a	twobytwo	89.0	0.561	blue	2.0	task_switch	color	switch	stim	poldrack-single-stim	s593	0	False
295.133	1.0	295.885	0.1	2.0	True	89.0	Orange-Blue	switch	twobytwo	89.0	0.652	orange	7.0	cue_switch	color	stay	stim	poldrack-single-stim	s593	0	False
298.045	1.0	299.271	0.9	2.272	True	71.0	Color	switch	twobytwo	71.0	0.326	blue	6.0	cue_switch	color	stay	stim	poldrack-single-stim	s593	0	False
300.426	1.0	301.143	0.1	2.408	True	89.0	Color	stay	twobytwo	89.0	0.617	orange	9.0	cue_stay	color	stay	stim	poldrack-single-stim	s593	0	False
303.745	1.0	304.98	0.9	2.0	True	71.0	Color	stay	twobytwo	71.0	0.335	blue	6.0	cue_stay	color	stay	stim	poldrack-single-stim	s593	0	False
306.653	1.0	307.96	0.9	2.0	True	71.0	Color	stay	twobytwo	71.0	0.407	blue	8.0	cue_stay	color	stay	stim	poldrack-single-stim	s593	0	False
308.76	1.0	309.347	0.1	2.0	True	89.0	Orange-Blue	switch	twobytwo	89.0	0.487	orange	9.0	cue_switch	color	stay	stim	poldrack-single-stim	s593	0	False
311.671	1.0	313.037	0.9	2.272	True	89.0	Magnitude	n/a	twobytwo	89.0	0.466	blue	6.0	task_switch	magnitude	switch	stim	poldrack-single-stim	s593	0	False
314.85	1.0	316.268	0.9	2.136	True	89.0	High-Low	switch	twobytwo	89.0	0.518	orange	9.0	cue_switch	magnitude	stay	stim	poldrack-single-stim	s593	0	False
317.095	1.0	317.937	0.1	2.0	True	71.0	Magnitude	switch	twobytwo	71.0	0.742	blue	3.0	cue_switch	magnitude	stay	stim	poldrack-single-stim	s593	0	False
319.202	1.0	319.934	0.1	2.544	True	71.0	High-Low	switch	twobytwo	71.0	0.632	blue	4.0	cue_switch	magnitude	stay	stim	poldrack-single-stim	s593	0	False
321.855	1.0	322.581	0.1	2.272	True	71.0	Magnitude	switch	twobytwo	71.0	0.626	blue	1.0	cue_switch	magnitude	stay	stim	poldrack-single-stim	s593	0	False
325.031	1.0	326.448	0.9	2.272	True	71.0	Magnitude	stay	twobytwo	71.0	0.517	blue	1.0	cue_stay	magnitude	stay	stim	poldrack-single-stim	s593	0	False
328.21	1.0	329.495	0.9	2.0	True	71.0	High-Low	switch	twobytwo	71.0	0.385	orange	4.0	cue_switch	magnitude	stay	stim	poldrack-single-stim	s593	0	False
331.117	1.0	332.424	0.9	2.0	True	89.0	Magnitude	switch	twobytwo	89.0	0.407	blue	8.0	cue_switch	magnitude	stay	stim	poldrack-single-stim	s593	0	False
333.226	1.0	333.93	0.1	2.136	True	71.0	High-Low	switch	twobytwo	71.0	0.604	blue	2.0	cue_switch	magnitude	stay	stim	poldrack-single-stim	s593	0	False
335.469	1.0	336.193	0.1	2.0	True	71.0	Magnitude	switch	twobytwo	71.0	0.624	blue	2.0	cue_switch	magnitude	stay	stim	poldrack-single-stim	s593	0	False
338.38	1.0	339.679	0.9	2.136	True	71.0	High-Low	switch	twobytwo	71.0	0.399	blue	2.0	cue_switch	magnitude	stay	stim	poldrack-single-stim	s593	0	False
340.626	1.0	341.29	0.1	2.272	True	71.0	High-Low	stay	twobytwo	71.0	0.564	orange	3.0	cue_stay	magnitude	stay	stim	poldrack-single-stim	s593	0	False
343.807	1.0	345.051	0.9	2.136	True	89.0	Color	n/a	twobytwo	89.0	0.344	orange	8.0	task_switch	color	switch	stim	poldrack-single-stim	s593	0	False
346.05	1.0	346.651	0.1	2.272	True	89.0	Orange-Blue	switch	twobytwo	89.0	0.501	orange	6.0	cue_switch	color	stay	stim	poldrack-single-stim	s593	0	False
348.431	1.0	349.195	0.1	2.0	True	89.0	High-Low	n/a	twobytwo	89.0	0.664	orange	9.0	task_switch	magnitude	switch	stim	poldrack-single-stim	s593	0	False
350.541	1.0	351.267	0.1	2.816	False	89.0	Color	n/a	twobytwo	71.0	0.626	orange	4.0	task_switch	color	switch	stim	poldrack-single-stim	s593	0	False
354.266	1.0	355.689	0.9	2.408	True	89.0	High-Low	n/a	twobytwo	89.0	0.523	blue	9.0	task_switch	magnitude	switch	stim	poldrack-single-stim	s593	0	False
357.586	1.0	358.941	0.9	2.0	True	89.0	Magnitude	switch	twobytwo	89.0	0.455	blue	7.0	cue_switch	magnitude	stay	stim	poldrack-single-stim	s593	0	False
359.697	1.0	360.391	0.1	2.544	True	71.0	High-Low	switch	twobytwo	71.0	0.594	blue	3.0	cue_switch	magnitude	stay	stim	poldrack-single-stim	s593	0	False
363.146	1.0	364.493	0.9	2.136	True	89.0	Magnitude	switch	twobytwo	89.0	0.447	blue	7.0	cue_switch	magnitude	stay	stim	poldrack-single-stim	s593	0	False
365.394	1.0	366.241	0.1	2.0	True	89.0	High-Low	switch	twobytwo	89.0	0.747	orange	6.0	cue_switch	magnitude	stay	stim	poldrack-single-stim	s593	0	False
368.303	1.0	369.662	0.9	2.0	True	71.0	Orange-Blue	n/a	twobytwo	71.0	0.459	blue	4.0	task_switch	color	switch	stim	poldrack-single-stim	s593	0	False
371.212	1.0	372.911	0.9	2.136	True	89.0	High-Low	n/a	twobytwo	89.0	0.799	blue	9.0	task_switch	magnitude	switch	stim	poldrack-single-stim	s593	0	False
373.455	1.0	374.337	0.1	2.136	True	89.0	Orange-Blue	n/a	twobytwo	89.0	0.782	orange	6.0	task_switch	color	switch	stim	poldrack-single-stim	s593	0	False
375.703	1.0	376.673	0.1	2.272	True	71.0	Color	switch	twobytwo	71.0	0.87	blue	8.0	cue_switch	color	stay	stim	poldrack-single-stim	s593	0	False
378.88	1.0	380.076	0.9	3.224	True	89.0	Color	stay	twobytwo	89.0	0.296	orange	9.0	cue_stay	color	stay	stim	poldrack-single-stim	s593	0	False
383.01	1.0	384.308	0.9	2.0	True	89.0	Magnitude	n/a	twobytwo	89.0	0.398	orange	9.0	task_switch	magnitude	switch	stim	poldrack-single-stim	s593	0	False
385.117	1.0	385.774	0.1	2.0	True	89.0	Magnitude	stay	twobytwo	89.0	0.557	blue	8.0	cue_stay	magnitude	stay	stim	poldrack-single-stim	s593	0	False
387.223	1.0	387.887	0.1	2.272	True	89.0	High-Low	switch	twobytwo	89.0	0.564	blue	9.0	cue_switch	magnitude	stay	stim	poldrack-single-stim	s593	0	False
389.605	1.0	390.185	0.1	2.136	True	89.0	High-Low	stay	twobytwo	89.0	0.48	orange	7.0	cue_stay	magnitude	stay	stim	poldrack-single-stim	s593	0	False
391.853	1.0	392.657	0.1	2.0	True	71.0	High-Low	stay	twobytwo	71.0	0.704	orange	4.0	cue_stay	magnitude	stay	stim	poldrack-single-stim	s593	0	False
393.96	1.0	394.719	0.1	2.0	True	89.0	Color	n/a	twobytwo	89.0	0.659	orange	7.0	task_switch	color	switch	stim	poldrack-single-stim	s593	0	False
396.071	1.0	396.727	0.1	2.0	True	89.0	High-Low	n/a	twobytwo	89.0	0.556	orange	6.0	task_switch	magnitude	switch	stim	poldrack-single-stim	s593	0	False
398.18	1.0	398.906	0.1	2.68	True	71.0	Orange-Blue	n/a	twobytwo	71.0	0.626	blue	3.0	task_switch	color	switch	stim	poldrack-single-stim	s593	0	False
400.968	1.0	401.709	0.1	2.0	True	71.0	Magnitude	n/a	twobytwo	71.0	0.641	orange	2.0	task_switch	magnitude	switch	stim	poldrack-single-stim	s593	0	False
403.879	1.0	405.192	0.9	2.272	True	89.0	Magnitude	stay	twobytwo	89.0	0.413	blue	7.0	cue_stay	magnitude	stay	stim	poldrack-single-stim	s593	0	False
407.063	1.0	408.399	0.9	2.0	True	71.0	High-Low	switch	twobytwo	71.0	0.436	blue	3.0	cue_switch	magnitude	stay	stim	poldrack-single-stim	s593	0	False
409.97	1.0	411.276	0.9	2.272	True	89.0	Magnitude	switch	twobytwo	89.0	0.406	orange	7.0	cue_switch	magnitude	stay	stim	poldrack-single-stim	s593	0	False
412.35	1.0	413.28	0.1	2.952	True	89.0	Color	n/a	twobytwo	89.0	0.83	orange	9.0	task_switch	color	switch	stim	poldrack-single-stim	s593	0	False
415.41	1.0	416.147	0.1	2.0	True	89.0	High-Low	n/a	twobytwo	89.0	0.637	orange	9.0	task_switch	magnitude	switch	stim	poldrack-single-stim	s593	0	False
418.319	1.0	419.475	0.9	2.0	True	71.0	Orange-Blue	n/a	twobytwo	71.0	0.256	blue	2.0	task_switch	color	switch	stim	poldrack-single-stim	s593	0	False
421.229	1.0	422.421	0.9	2.0	True	89.0	Color	switch	twobytwo	89.0	0.292	orange	1.0	cue_switch	color	stay	stim	poldrack-single-stim	s593	0	False
424.14	1.0	425.693	0.9	2.0	True	71.0	High-Low	n/a	twobytwo	71.0	0.653	blue	4.0	task_switch	magnitude	switch	stim	poldrack-single-stim	s593	0	False
426.248	1.0	427.004	0.1	2.136	True	89.0	Color	n/a	twobytwo	89.0	0.656	orange	3.0	task_switch	color	switch	stim	poldrack-single-stim	s593	0	False
429.293	1.0	430.568	0.9	2.0	True	71.0	Orange-Blue	switch	twobytwo	71.0	0.375	blue	7.0	cue_switch	color	stay	stim	poldrack-single-stim	s593	0	False
431.4	1.0	432.189	0.1	2.0	False	71.0	Magnitude	n/a	twobytwo	89.0	0.689	orange	1.0	task_switch	magnitude	switch	stim	poldrack-single-stim	s593	0	False
433.511	1.0	434.599	0.1	2.0	True	71.0	High-Low	switch	twobytwo	71.0	0.988	blue	3.0	cue_switch	magnitude	stay	stim	poldrack-single-stim	s593	0	False
436.418	1.0	437.847	0.9	2.272	True	89.0	Color	n/a	twobytwo	89.0	0.529	orange	8.0	task_switch	color	switch	stim	poldrack-single-stim	s593	0	False
438.799	1.0	439.542	0.1	2.136	True	89.0	High-Low	n/a	twobytwo	89.0	0.643	orange	9.0	task_switch	magnitude	switch	stim	poldrack-single-stim	s593	0	False
441.042	1.0	441.698	0.1	2.0	True	89.0	High-Low	stay	twobytwo	89.0	0.556	orange	7.0	cue_stay	magnitude	stay	stim	poldrack-single-stim	s593	0	False
456.666	1.0	457.283	0.1	2.136	True	89.0	Orange-Blue	stay	twobytwo	89.0	0.517	orange	6.0	cue_stay	color	stay	stim	poldrack-single-stim	s593	1	False
459.709	1.0	461.165	0.9	2.816	True	89.0	Magnitude	n/a	twobytwo	89.0	0.556	blue	9.0	task_switch	magnitude	switch	stim	poldrack-single-stim	s593	0	False
463.432	1.0	464.72	0.9	2.408	False	89.0	High-Low	switch	twobytwo	71.0	0.388	orange	7.0	cue_switch	magnitude	stay	stim	poldrack-single-stim	s593	0	False
465.949	1.0	466.912	0.1	2.0	True	89.0	Color	n/a	twobytwo	89.0	0.863	orange	7.0	task_switch	color	switch	stim	poldrack-single-stim	s593	0	False
468.853	1.0	470.252	0.9	2.136	True	71.0	High-Low	n/a	twobytwo	71.0	0.499	orange	3.0	task_switch	magnitude	switch	stim	poldrack-single-stim	s593	0	False
471.898	1.0	473.239	0.9	2.136	True	89.0	Orange-Blue	n/a	twobytwo	89.0	0.441	orange	2.0	task_switch	color	switch	stim	poldrack-single-stim	s593	0	False
474.941	1.0	476.392	0.9	2.136	True	71.0	Magnitude	n/a	twobytwo	71.0	0.551	blue	2.0	task_switch	magnitude	switch	stim	poldrack-single-stim	s593	0	False
477.986	1.0	479.346	0.9	2.544	True	89.0	Magnitude	stay	twobytwo	89.0	0.46	orange	6.0	cue_stay	magnitude	stay	stim	poldrack-single-stim	s593	0	False
480.639	1.0	481.681	0.1	2.136	True	71.0	Color	n/a	twobytwo	71.0	0.942	blue	4.0	task_switch	color	switch	stim	poldrack-single-stim	s593	0	False
482.884	1.0	484.206	0.1	2.0	True	71.0	High-Low	n/a	twobytwo	71.0	1.222	orange	1.0	task_switch	magnitude	switch	stim	poldrack-single-stim	s593	0	False
484.994	1.0	485.806	0.1	2.0	True	89.0	Color	n/a	twobytwo	89.0	0.712	orange	4.0	task_switch	color	switch	stim	poldrack-single-stim	s593	0	False
487.106	1.0	487.844	0.1	2.0	True	71.0	Color	stay	twobytwo	71.0	0.638	blue	7.0	cue_stay	color	stay	stim	poldrack-single-stim	s593	0	False
489.213	1.0	489.939	0.1	2.0	True	89.0	High-Low	n/a	twobytwo	89.0	0.626	orange	7.0	task_switch	magnitude	switch	stim	poldrack-single-stim	s593	0	False
492.117	1.0	493.367	0.9	2.136	True	89.0	Orange-Blue	n/a	twobytwo	89.0	0.35	orange	7.0	task_switch	color	switch	stim	poldrack-single-stim	s593	0	False
495.165	1.0	496.386	0.9	2.0	True	71.0	Color	switch	twobytwo	71.0	0.321	blue	6.0	cue_switch	color	stay	stim	poldrack-single-stim	s593	0	False
498.071	1.0	499.436	0.9	2.0	True	71.0	Magnitude	n/a	twobytwo	71.0	0.465	orange	4.0	task_switch	magnitude	switch	stim	poldrack-single-stim	s593	0	False
500.178	1.0	500.977	0.1	2.0	True	89.0	Color	n/a	twobytwo	89.0	0.699	orange	7.0	task_switch	color	switch	stim	poldrack-single-stim	s593	0	False
502.282	1.0	503.098	0.1	2.136	True	71.0	Magnitude	n/a	twobytwo	71.0	0.716	blue	1.0	task_switch	magnitude	switch	stim	poldrack-single-stim	s593	0	False
504.528	1.0	505.196	0.1	2.136	True	89.0	Orange-Blue	n/a	twobytwo	89.0	0.568	orange	9.0	task_switch	color	switch	stim	poldrack-single-stim	s593	0	False
507.573	1.0	507.572	0.9	2.136	False	89.0	High-Low	n/a	twobytwo	-1.0	n/a	orange	9.0	task_switch	magnitude	switch	stim	poldrack-single-stim	s593	0	False
510.618	1.0	512.063	0.9	2.136	True	71.0	Magnitude	switch	twobytwo	71.0	0.545	orange	3.0	cue_switch	magnitude	stay	stim	poldrack-single-stim	s593	0	False
512.863	1.0	513.702	0.1	2.68	True	89.0	Magnitude	stay	twobytwo	89.0	0.739	blue	9.0	cue_stay	magnitude	stay	stim	poldrack-single-stim	s593	0	False
515.655	1.0	516.374	0.1	2.544	False	71.0	Orange-Blue	n/a	twobytwo	89.0	0.619	blue	9.0	task_switch	color	switch	stim	poldrack-single-stim	s593	0	False
518.306	1.0	519.324	0.1	2.272	True	71.0	Magnitude	n/a	twobytwo	71.0	0.918	blue	2.0	task_switch	magnitude	switch	stim	poldrack-single-stim	s593	0	False
520.689	1.0	521.461	0.1	2.272	True	89.0	High-Low	switch	twobytwo	89.0	0.672	orange	7.0	cue_switch	magnitude	stay	stim	poldrack-single-stim	s593	0	False
523.869	1.0	525.382	0.9	2.408	True	89.0	Magnitude	switch	twobytwo	89.0	0.613	blue	6.0	cue_switch	magnitude	stay	stim	poldrack-single-stim	s593	0	False
526.382	1.0	527.055	0.1	2.136	True	89.0	Magnitude	stay	twobytwo	89.0	0.573	orange	9.0	cue_stay	magnitude	stay	stim	poldrack-single-stim	s593	0	False
529.423	1.0	530.929	0.9	2.272	True	89.0	Magnitude	stay	twobytwo	89.0	0.606	blue	6.0	cue_stay	magnitude	stay	stim	poldrack-single-stim	s593	0	False
532.605	1.0	533.969	0.9	2.0	True	89.0	Magnitude	stay	twobytwo	89.0	0.464	blue	8.0	cue_stay	magnitude	stay	stim	poldrack-single-stim	s593	0	False
534.714	1.0	535.412	0.1	2.136	True	89.0	High-Low	switch	twobytwo	89.0	0.598	orange	9.0	cue_switch	magnitude	stay	stim	poldrack-single-stim	s593	0	False
537.762	1.0	539.025	0.9	2.272	True	71.0	Color	n/a	twobytwo	71.0	0.363	blue	6.0	task_switch	color	switch	stim	poldrack-single-stim	s593	0	False
540.946	1.0	542.292	0.9	2.0	True	89.0	Orange-Blue	switch	twobytwo	89.0	0.446	orange	9.0	cue_switch	color	stay	stim	poldrack-single-stim	s593	0	False
543.055	1.0	543.751	0.1	2.68	True	71.0	Color	switch	twobytwo	71.0	0.596	blue	3.0	cue_switch	color	stay	stim	poldrack-single-stim	s593	0	False
545.845	1.0	546.498	0.1	2.0	False	71.0	Orange-Blue	switch	twobytwo	89.0	0.553	blue	4.0	cue_switch	color	stay	stim	poldrack-single-stim	s593	0	False
547.954	1.0	548.77	0.1	2.0	True	71.0	Color	switch	twobytwo	71.0	0.716	blue	1.0	cue_switch	color	stay	stim	poldrack-single-stim	s593	0	False
550.864	1.0	550.863	0.9	2.0	False	71.0	Color	stay	twobytwo	-1.0	n/a	blue	1.0	cue_stay	color	stay	stim	poldrack-single-stim	s593	0	False
553.773	1.0	555.139	0.9	2.272	True	89.0	Orange-Blue	switch	twobytwo	89.0	0.466	orange	4.0	cue_switch	color	stay	stim	poldrack-single-stim	s593	0	False
556.955	1.0	558.253	0.9	2.0	True	71.0	Color	switch	twobytwo	71.0	0.398	blue	8.0	cue_switch	color	stay	stim	poldrack-single-stim	s593	0	False
559.063	1.0	559.762	0.1	2.0	True	71.0	Orange-Blue	switch	twobytwo	71.0	0.599	blue	2.0	cue_switch	color	stay	stim	poldrack-single-stim	s593	0	False
561.17	1.0	561.841	0.1	2.0	True	71.0	Color	switch	twobytwo	71.0	0.571	blue	2.0	cue_switch	color	stay	stim	poldrack-single-stim	s593	0	False
564.08	1.0	565.397	0.9	2.68	True	71.0	Orange-Blue	switch	twobytwo	71.0	0.417	blue	2.0	cue_switch	color	stay	stim	poldrack-single-stim	s593	0	False
566.866	1.0	567.502	0.1	2.0	True	89.0	Orange-Blue	stay	twobytwo	89.0	0.536	orange	3.0	cue_stay	color	stay	stim	poldrack-single-stim	s593	0	False
569.775	1.0	571.183	0.9	2.136	True	89.0	Magnitude	n/a	twobytwo	89.0	0.508	orange	8.0	task_switch	magnitude	switch	stim	poldrack-single-stim	s593	0	False
572.021	1.0	572.684	0.1	2.408	True	89.0	High-Low	switch	twobytwo	89.0	0.563	orange	6.0	cue_switch	magnitude	stay	stim	poldrack-single-stim	s593	0	False
574.536	1.0	575.178	0.1	2.136	True	89.0	Orange-Blue	n/a	twobytwo	89.0	0.542	orange	9.0	task_switch	color	switch	stim	poldrack-single-stim	s593	0	False
576.781	1.0	577.591	0.1	2.0	True	71.0	Magnitude	n/a	twobytwo	71.0	0.71	orange	4.0	task_switch	magnitude	switch	stim	poldrack-single-stim	s593	0	False
579.693	1.0	581.002	0.9	2.0	True	71.0	Color	n/a	twobytwo	71.0	0.409	blue	9.0	task_switch	color	switch	stim	poldrack-single-stim	s593	0	False
582.603	1.0	583.874	0.9	2.544	True	71.0	Orange-Blue	switch	twobytwo	71.0	0.371	blue	7.0	cue_switch	color	stay	stim	poldrack-single-stim	s593	0	False
585.253	1.0	586.09	0.1	2.136	True	71.0	Color	switch	twobytwo	71.0	0.737	blue	3.0	cue_switch	color	stay	stim	poldrack-single-stim	s593	0	False
588.296	1.0	589.63	0.9	2.544	True	71.0	Orange-Blue	switch	twobytwo	71.0	0.434	blue	7.0	cue_switch	color	stay	stim	poldrack-single-stim	s593	0	False
590.949	1.0	591.686	0.1	2.68	True	89.0	Color	switch	twobytwo	89.0	0.637	orange	6.0	cue_switch	color	stay	stim	poldrack-single-stim	s593	0	False
594.537	1.0	595.92	0.9	2.0	True	71.0	Magnitude	n/a	twobytwo	71.0	0.483	blue	4.0	task_switch	magnitude	switch	stim	poldrack-single-stim	s593	0	False
597.448	1.0	598.797	0.9	2.272	True	71.0	Color	n/a	twobytwo	71.0	0.449	blue	9.0	task_switch	color	switch	stim	poldrack-single-stim	s593	0	False
599.831	1.0	600.551	0.1	3.088	True	89.0	High-Low	n/a	twobytwo	89.0	0.62	orange	6.0	task_switch	magnitude	switch	stim	poldrack-single-stim	s593	0	False
603.026	1.0	603.727	0.1	2.0	True	89.0	Magnitude	switch	twobytwo	89.0	0.601	blue	8.0	cue_switch	magnitude	stay	stim	poldrack-single-stim	s593	0	False
605.93	1.0	607.328	0.9	2.136	True	89.0	Magnitude	stay	twobytwo	89.0	0.498	orange	9.0	cue_stay	magnitude	stay	stim	poldrack-single-stim	s593	0	False
608.975	1.0	610.189	0.9	2.136	True	89.0	Color	n/a	twobytwo	89.0	0.314	orange	9.0	task_switch	color	switch	stim	poldrack-single-stim	s593	0	False
611.223	1.0	611.92	0.1	2.0	True	71.0	Color	stay	twobytwo	71.0	0.597	blue	8.0	cue_stay	color	stay	stim	poldrack-single-stim	s593	0	False
613.33	1.0	614.217	0.1	2.272	False	71.0	Orange-Blue	switch	twobytwo	89.0	0.787	blue	9.0	cue_switch	color	stay	stim	poldrack-single-stim	s593	0	False
615.714	1.0	617.029	0.1	2.0	True	89.0	Orange-Blue	stay	twobytwo	89.0	1.215	orange	7.0	cue_stay	color	stay	stim	poldrack-single-stim	s593	0	False
617.823	1.0	618.804	0.1	2.136	True	89.0	Orange-Blue	stay	twobytwo	89.0	0.881	orange	4.0	cue_stay	color	stay	stim	poldrack-single-stim	s593	0	False
620.068	1.0	620.867	0.1	2.136	True	89.0	Magnitude	n/a	twobytwo	89.0	0.699	orange	7.0	task_switch	magnitude	switch	stim	poldrack-single-stim	s593	0	False
622.311	1.0	623.178	0.1	2.544	True	89.0	Color	n/a	twobytwo	89.0	0.767	orange	6.0	task_switch	color	switch	stim	poldrack-single-stim	s593	0	False
624.965	1.0	625.663	0.1	2.0	True	71.0	Magnitude	n/a	twobytwo	71.0	0.598	blue	3.0	task_switch	magnitude	switch	stim	poldrack-single-stim	s593	0	False
627.07	1.0	627.828	0.1	2.136	True	89.0	Color	n/a	twobytwo	89.0	0.658	orange	2.0	task_switch	color	switch	stim	poldrack-single-stim	s593	0	False
630.111	1.0	631.37	0.9	2.136	True	71.0	Color	stay	twobytwo	71.0	0.359	blue	7.0	cue_stay	color	stay	stim	poldrack-single-stim	s593	0	False
633.154	1.0	634.435	0.9	2.136	True	71.0	Orange-Blue	switch	twobytwo	71.0	0.381	blue	3.0	cue_switch	color	stay	stim	poldrack-single-stim	s593	0	False
636.199	1.0	637.646	0.9	2.0	True	89.0	Color	switch	twobytwo	89.0	0.547	orange	7.0	cue_switch	color	stay	stim	poldrack-single-stim	s593	0	False
638.309	1.0	639.058	0.1	2.136	True	89.0	High-Low	n/a	twobytwo	89.0	0.649	orange	9.0	task_switch	magnitude	switch	stim	poldrack-single-stim	s593	0	False
640.552	1.0	641.407	0.1	2.0	True	89.0	Orange-Blue	n/a	twobytwo	89.0	0.755	orange	9.0	task_switch	color	switch	stim	poldrack-single-stim	s593	0	False
643.461	1.0	644.763	0.9	2.136	True	71.0	Magnitude	n/a	twobytwo	71.0	0.402	blue	2.0	task_switch	magnitude	switch	stim	poldrack-single-stim	s593	0	False
646.509	1.0	647.954	0.9	2.816	True	71.0	High-Low	switch	twobytwo	71.0	0.545	orange	1.0	cue_switch	magnitude	stay	stim	poldrack-single-stim	s593	0	False
650.234	1.0	651.693	0.9	2.136	True	71.0	Orange-Blue	n/a	twobytwo	71.0	0.559	blue	4.0	task_switch	color	switch	stim	poldrack-single-stim	s593	0	False
652.481	1.0	653.304	0.1	2.0	False	71.0	High-Low	n/a	twobytwo	89.0	0.723	orange	3.0	task_switch	magnitude	switch	stim	poldrack-single-stim	s593	0	False
655.389	1.0	656.747	0.9	2.0	True	89.0	Magnitude	switch	twobytwo	89.0	0.458	blue	7.0	cue_switch	magnitude	stay	stim	poldrack-single-stim	s593	0	False
657.499	1.0	658.198	0.1	2.272	True	89.0	Color	n/a	twobytwo	89.0	0.599	orange	1.0	task_switch	color	switch	stim	poldrack-single-stim	s593	0	False
659.879	1.0	660.667	0.1	2.0	True	71.0	Orange-Blue	switch	twobytwo	71.0	0.688	blue	3.0	cue_switch	color	stay	stim	poldrack-single-stim	s593	0	False
662.791	1.0	664.126	0.9	2.0	True	89.0	High-Low	n/a	twobytwo	89.0	0.435	orange	8.0	task_switch	magnitude	switch	stim	poldrack-single-stim	s593	0	False
664.898	1.0	665.87	0.1	2.0	True	89.0	Color	n/a	twobytwo	89.0	0.872	orange	9.0	task_switch	color	switch	stim	poldrack-single-stim	s593	0	False
667.008	1.0	667.737	0.1	2.408	True	89.0	Color	stay	twobytwo	89.0	0.629	orange	7.0	cue_stay	color	stay	stim	poldrack-single-stim	s593	0	False
