onset	duration	movement_onset	EV	action	block_duration	experiment_exp_id	gain_amount	gain_probability	key_press	loss_amount	loss_probability	num_cards	num_click_in_round	num_loss_cards	risk	response_time	total_cards	trial_id	trial_type	worker_id	junk	feedback
3.01	3.131	6.141	-0.1301964100714101	draw_card	3.131	columbia_card_task_fmri	12.0	0.8333333333333334	89.0	-70.0	0.1666666666666666	6.0	1.0	1.0	-2.3226706747725565	3.131	n/a	stim	poldrack-single-stim	s593	False	1
6.144	0.736	6.88	-2.863529743404743	draw_card	0.736	columbia_card_task_fmri	12.0	0.8	89.0	-70.0	0.2	6.0	2.0	1.0	-0.0849000028804383	0.736	n/a	stim	poldrack-single-stim	s593	False	1
6.882	1.698	8.58	-6.963529743404744	draw_card	1.698	columbia_card_task_fmri	12.0	0.75	89.0	-70.0	0.25	6.0	3.0	1.0	2.619402099010045	1.698	n/a	stim	poldrack-single-stim	s593	False	1
8.581	0.893	9.474	-13.796863076738076	end_round	0.893	columbia_card_task_fmri	12.0	0.6666666666666667	71.0	-70.0	0.3333333333333333	6.0	4.0	1.0	5.764827367328039	0.893	3.0	stim	poldrack-single-stim	s593	False	1
10.229	1.5	9.478	n/a	-1.0	2.318	columbia_card_task_fmri	n/a	n/a	-1.0	n/a	n/a	n/a	n/a	n/a	n/a	n/a	n/a	ITI	poldrack-single-stim	s593	False	0
11.8	3.282	15.082	0.7031369232619238	draw_card	3.282	columbia_card_task_fmri	14.0	0.8333333333333334	89.0	-75.0	0.1666666666666666	6.0	1.0	1.0	0.2830426702173909	3.282	n/a	stim	poldrack-single-stim	s593	False	1
15.084	0.863	15.947	-2.263529743404743	draw_card	0.863	columbia_card_task_fmri	14.0	0.8	89.0	-75.0	0.2	6.0	2.0	1.0	2.7122738606581365	0.863	2.0	stim	poldrack-single-stim	s593	False	0
16.699	1.5	15.948	n/a	-1.0	2.318	columbia_card_task_fmri	n/a	n/a	-1.0	n/a	n/a	n/a	n/a	n/a	n/a	n/a	n/a	ITI	poldrack-single-stim	s593	False	0
18.267	1.912	20.179	2.3698035899285896	draw_card	1.912	columbia_card_task_fmri	15.0	0.8333333333333334	89.0	-70.0	0.1666666666666666	6.0	1.0	1.0	-1.205997438938514	1.912	n/a	stim	poldrack-single-stim	s593	False	1
20.181	0.677	20.858	-0.463529743404744	draw_card	0.677	columbia_card_task_fmri	15.0	0.8	89.0	-70.0	0.2	6.0	2.0	1.0	1.1138318849622664	0.677	n/a	stim	poldrack-single-stim	s593	False	1
20.86	0.974	21.834	-4.713529743404744	draw_card	0.974	columbia_card_task_fmri	15.0	0.75	89.0	-70.0	0.25	6.0	3.0	1.0	3.917268500419958	0.974	n/a	stim	poldrack-single-stim	s593	False	1
21.836	0.932	22.768	-11.796863076738074	end_round	0.932	columbia_card_task_fmri	15.0	0.6666666666666667	71.0	-70.0	0.3333333333333333	6.0	4.0	1.0	7.177964422998194	0.932	3.0	stim	poldrack-single-stim	s593	False	1
23.52	1.5	22.769	n/a	-1.0	2.862	columbia_card_task_fmri	n/a	n/a	-1.0	n/a	n/a	n/a	n/a	n/a	n/a	n/a	n/a	ITI	poldrack-single-stim	s593	False	0
25.634	1.844	27.478	3.203136923261924	draw_card	1.844	columbia_card_task_fmri	17.0	0.8333333333333334	89.0	-75.0	0.1666666666666666	6.0	1.0	1.0	1.3999180090757122	1.844	n/a	stim	poldrack-single-stim	s593	False	1
27.481	0.511	27.992	0.1364702565952573	draw_card	0.511	columbia_card_task_fmri	17.0	0.8	89.0	-75.0	0.2	6.0	2.0	1.0	3.911194130889229	0.511	n/a	stim	poldrack-single-stim	s593	False	1
27.993	0.579	28.572	-4.463529743404744	draw_card	0.579	columbia_card_task_fmri	17.0	0.75	89.0	-75.0	0.25	6.0	3.0	1.0	6.945920254816279	0.579	n/a	stim	poldrack-single-stim	s593	False	1
28.574	0.704	29.278	-12.13019641007141	draw_card	0.704	columbia_card_task_fmri	17.0	0.6666666666666667	89.0	-75.0	0.3333333333333333	6.0	4.0	1.0	10.475556972452011	0.704	n/a	stim	poldrack-single-stim	s593	False	1
29.279	0.66	29.939	-27.463529743404745	end_round	0.66	columbia_card_task_fmri	17.0	0.5	71.0	-75.0	0.5	6.0	5.0	1.0	13.104785887601338	0.66	4.0	stim	poldrack-single-stim	s593	False	1
30.691	1.5	29.94	n/a	-1.0	2.726	columbia_card_task_fmri	n/a	n/a	-1.0	n/a	n/a	n/a	n/a	n/a	n/a	n/a	n/a	ITI	poldrack-single-stim	s593	False	0
32.669	2.318	34.987	4.536470256595256	draw_card	2.318	columbia_card_task_fmri	24.0	0.75	89.0	-60.0	0.25	8.0	1.0	2.0	3.4846370798533712	2.318	1.0	stim	poldrack-single-stim	s593	False	0
35.743	1.5	34.992	n/a	-1.0	2.25	columbia_card_task_fmri	n/a	n/a	-1.0	n/a	n/a	n/a	n/a	n/a	n/a	n/a	n/a	ITI	poldrack-single-stim	s593	False	0
37.245	2.331	39.576	4.536470256595256	draw_card	2.331	columbia_card_task_fmri	29.0	0.75	89.0	-75.0	0.25	8.0	1.0	2.0	12.13865723283363	2.331	n/a	stim	poldrack-single-stim	s593	False	1
39.578	2.098	41.676	0.8221845423095442	draw_card	2.098	columbia_card_task_fmri	29.0	0.7142857142857143	89.0	-75.0	0.2857142857142857	8.0	2.0	2.0	14.086660717805614	2.098	2.0	stim	poldrack-single-stim	s593	False	0
42.432	1.5	41.681	n/a	-1.0	2.318	columbia_card_task_fmri	n/a	n/a	-1.0	n/a	n/a	n/a	n/a	n/a	n/a	n/a	n/a	ITI	poldrack-single-stim	s593	False	0
44.002	2.998	47.0	0.3142480343730363	draw_card	2.998	columbia_card_task_fmri	17.0	0.7777777777777778	89.0	-65.0	0.2222222222222222	9.0	1.0	2.0	1.2043958951417508	2.998	n/a	stim	poldrack-single-stim	s593	False	1
47.002	1.913	48.915	-1.963529743404744	draw_card	1.913	columbia_card_task_fmri	17.0	0.75	89.0	-65.0	0.25	9.0	2.0	2.0	2.619402099010045	1.913	n/a	stim	poldrack-single-stim	s593	False	1
48.917	1.506	50.423	-4.892101171976171	draw_card	1.506	columbia_card_task_fmri	17.0	0.7142857142857143	89.0	-65.0	0.2857142857142857	9.0	3.0	2.0	4.154807302946018	1.506	3.0	stim	poldrack-single-stim	s593	False	0
51.176	1.5	50.425	n/a	-1.0	2.454	columbia_card_task_fmri	n/a	n/a	-1.0	n/a	n/a	n/a	n/a	n/a	n/a	n/a	n/a	ITI	poldrack-single-stim	s593	False	0
52.882	1.558	54.44	4.636470256595255	draw_card	1.558	columbia_card_task_fmri	14.0	0.9	89.0	-95.0	0.1	10.0	1.0	1.0	-0.1847901325273255	1.558	n/a	stim	poldrack-single-stim	s593	False	1
54.442	0.548	54.99	3.425359145484143	draw_card	0.548	columbia_card_task_fmri	14.0	0.8888888888888888	89.0	-95.0	0.1111111111111111	10.0	2.0	1.0	1.36896862020361	0.548	n/a	stim	poldrack-single-stim	s593	False	1
54.992	1.495	56.487	1.911470256595256	draw_card	1.495	columbia_card_task_fmri	14.0	0.875	89.0	-95.0	0.125	10.0	3.0	1.0	3.160223649104381	1.495	n/a	stim	poldrack-single-stim	s593	False	1
56.489	0.919	57.408	-0.0349583148333152	draw_card	0.919	columbia_card_task_fmri	14.0	0.8571428571428572	89.0	-95.0	0.1428571428571428	10.0	4.0	1.0	5.252121528295888	0.919	n/a	stim	poldrack-single-stim	s593	False	1
57.41	2.45	59.86	-2.6301964100714086	end_round	2.45	columbia_card_task_fmri	14.0	0.8333333333333334	71.0	-95.0	0.1666666666666666	10.0	5.0	1.0	7.73008150822055	2.45	4.0	stim	poldrack-single-stim	s593	False	1
60.612	1.5	59.861	n/a	-1.0	2.522	columbia_card_task_fmri	n/a	n/a	-1.0	n/a	n/a	n/a	n/a	n/a	n/a	n/a	n/a	ITI	poldrack-single-stim	s593	False	0
62.386	3.184	65.57	0.5364702565952559	draw_card	3.184	columbia_card_task_fmri	15.0	0.8	89.0	-65.0	0.2	10.0	1.0	2.0	-0.8840018454135716	3.184	n/a	stim	poldrack-single-stim	s593	False	1
65.572	0.62	66.192	-1.2413075211825209	draw_card	0.62	columbia_card_task_fmri	15.0	0.7777777777777778	89.0	-65.0	0.2222222222222222	10.0	2.0	2.0	0.373780737609259	0.62	n/a	stim	poldrack-single-stim	s593	False	1
66.194	1.474	67.668	-3.4635297434047443	draw_card	1.474	columbia_card_task_fmri	15.0	0.75	89.0	-65.0	0.25	10.0	3.0	2.0	1.7542065825010411	1.474	n/a	stim	poldrack-single-stim	s593	False	1
67.67	4.42	72.09	-6.320672600547598	end_round	4.42	columbia_card_task_fmri	15.0	0.7142857142857143	71.0	-65.0	0.2857142857142857	10.0	4.0	2.0	3.2520949519097115	4.42	3.0	stim	poldrack-single-stim	s593	False	1
72.845	1.5	72.094	n/a	-1.0	2.318	columbia_card_task_fmri	n/a	n/a	-1.0	n/a	n/a	n/a	n/a	n/a	n/a	n/a	n/a	ITI	poldrack-single-stim	s593	False	0
74.415	1.434	75.849	2.136470256595257	draw_card	1.434	columbia_card_task_fmri	17.0	0.8	89.0	-65.0	0.2	10.0	1.0	2.0	-0.0849000028804383	1.434	n/a	stim	poldrack-single-stim	s593	False	1
75.851	0.502	76.353	0.3142480343730363	draw_card	0.502	columbia_card_task_fmri	17.0	0.7777777777777778	89.0	-65.0	0.2222222222222222	10.0	2.0	2.0	1.2043958951417508	0.502	n/a	stim	poldrack-single-stim	s593	False	1
76.355	1.69	78.045	-1.963529743404744	draw_card	1.69	columbia_card_task_fmri	17.0	0.75	89.0	-65.0	0.25	10.0	3.0	2.0	2.619402099010045	1.69	n/a	stim	poldrack-single-stim	s593	False	1
78.047	1.515	79.562	-4.892101171976171	draw_card	1.515	columbia_card_task_fmri	17.0	0.7142857142857143	89.0	-65.0	0.2857142857142857	10.0	4.0	2.0	4.154807302946018	1.515	n/a	stim	poldrack-single-stim	s593	False	1
79.564	1.106	80.67	-8.796863076738074	end_round	1.106	columbia_card_task_fmri	17.0	0.6666666666666667	71.0	-65.0	0.3333333333333333	10.0	5.0	2.0	5.764827367328039	1.106	4.0	stim	poldrack-single-stim	s593	False	1
81.425	1.5	80.674	n/a	-1.0	2.522	columbia_card_task_fmri	n/a	n/a	-1.0	n/a	n/a	n/a	n/a	n/a	n/a	n/a	n/a	ITI	poldrack-single-stim	s593	False	0
83.199	1.599	84.798	0.7031369232619238	draw_card	1.599	columbia_card_task_fmri	13.0	0.8333333333333334	89.0	-70.0	0.1666666666666666	12.0	1.0	2.0	-1.9504571724665207	1.599	1.0	stim	poldrack-single-stim	s593	False	0
85.55	1.5	84.799	n/a	-1.0	2.998	columbia_card_task_fmri	n/a	n/a	-1.0	n/a	n/a	n/a	n/a	n/a	n/a	n/a	n/a	ITI	poldrack-single-stim	s593	False	0
87.8	1.153	88.953	0.7031369232619238	draw_card	1.153	columbia_card_task_fmri	15.0	0.8333333333333334	89.0	-80.0	0.1666666666666666	12.0	1.0	2.0	2.5168664192017545	1.153	n/a	stim	poldrack-single-stim	s593	False	1
88.955	0.785	89.74	-0.7362570161320192	draw_card	0.785	columbia_card_task_fmri	15.0	0.8181818181818181	89.0	-80.0	0.1818181818181818	12.0	2.0	2.0	3.752320899059562	0.785	n/a	stim	poldrack-single-stim	s593	False	1
89.742	2.762	92.504	-2.4635297434047443	draw_card	2.762	columbia_card_task_fmri	15.0	0.8	89.0	-80.0	0.2	12.0	3.0	2.0	5.110182508310864	2.762	n/a	stim	poldrack-single-stim	s593	False	1
92.506	3.095	95.601	-4.574640854515857	draw_card	3.095	columbia_card_task_fmri	15.0	0.7777777777777778	89.0	-80.0	0.2222222222222222	12.0	4.0	2.0	6.604280303428638	3.095	n/a	stim	poldrack-single-stim	s593	False	1
95.603	0.763	96.366	-7.213529743404744	end_round	0.763	columbia_card_task_fmri	15.0	0.75	71.0	-80.0	0.25	12.0	5.0	2.0	8.24402369022225	0.763	4.0	stim	poldrack-single-stim	s593	False	1
97.12	1.5	96.369	n/a	-1.0	2.318	columbia_card_task_fmri	n/a	n/a	-1.0	n/a	n/a	n/a	n/a	n/a	n/a	n/a	n/a	ITI	poldrack-single-stim	s593	False	0
98.69	1.775	100.465	-0.263529743404743	draw_card	1.775	columbia_card_task_fmri	14.0	0.8	89.0	-65.0	0.2	15.0	1.0	3.0	-1.2835357427374383	1.775	n/a	stim	poldrack-single-stim	s593	False	1
100.466	0.754	101.22	-1.3921011719761711	draw_card	0.754	columbia_card_task_fmri	14.0	0.7857142857142857	89.0	-65.0	0.2142857142857142	15.0	2.0	3.0	-0.468727763524555	0.754	2.0	stim	poldrack-single-stim	s593	False	0
101.973	1.5	101.222	n/a	-1.0	2.25	columbia_card_task_fmri	n/a	n/a	-1.0	n/a	n/a	n/a	n/a	n/a	n/a	n/a	n/a	ITI	poldrack-single-stim	s593	False	0
103.475	2.551	106.026	-0.338529743404744	draw_card	2.551	columbia_card_task_fmri	1.0	0.9375	89.0	-45.0	0.0625	16.0	1.0	1.0	-21.68053285601157	2.551	n/a	stim	poldrack-single-stim	s593	False	1
106.028	1.053	107.081	-0.5301964100714105	draw_card	1.053	columbia_card_task_fmri	1.0	0.9333333333333332	89.0	-45.0	0.0666666666666666	16.0	2.0	1.0	-21.34403847204928	1.053	n/a	stim	poldrack-single-stim	s593	False	1
107.083	1.152	108.235	-0.7492440291190297	draw_card	1.152	columbia_card_task_fmri	1.0	0.9285714285714286	89.0	-45.0	0.0714285714285714	16.0	3.0	1.0	-20.97483522448831	1.152	n/a	stim	poldrack-single-stim	s593	False	1
108.237	6.606	114.843	-1.0019912818662824	draw_card	6.606	columbia_card_task_fmri	1.0	0.9230769230769232	89.0	-45.0	0.0769230769230769	16.0	4.0	1.0	-20.567355071624327	6.606	n/a	stim	poldrack-single-stim	s593	False	1
114.845	1.258	116.103	-1.2968630767380775	draw_card	1.258	columbia_card_task_fmri	1.0	0.9166666666666666	89.0	-45.0	0.0833333333333333	16.0	5.0	1.0	-20.11463316741058	1.258	n/a	stim	poldrack-single-stim	s593	False	1
116.105	0.861	116.966	-1.6453479252229255	draw_card	0.861	columbia_card_task_fmri	1.0	0.9090909090909092	89.0	-45.0	0.0909090909090909	16.0	6.0	1.0	-19.60783695588851	0.861	n/a	stim	poldrack-single-stim	s593	False	1
116.968	1.005	117.973	-2.063529743404744	draw_card	1.005	columbia_card_task_fmri	1.0	0.9	89.0	-45.0	0.1	16.0	7.0	1.0	-19.03559654225533	1.005	n/a	stim	poldrack-single-stim	s593	False	1
117.975	2.825	120.8	-2.574640854515855	draw_card	2.825	columbia_card_task_fmri	1.0	0.8888888888888888	89.0	-45.0	0.1111111111111111	16.0	8.0	1.0	-18.38304082952377	2.825	n/a	stim	poldrack-single-stim	s593	False	1
120.802	2.339	123.141	-3.2135297434047443	draw_card	2.339	columbia_card_task_fmri	1.0	0.875	89.0	-45.0	0.125	16.0	9.0	1.0	-17.63040477147173	2.339	n/a	stim	poldrack-single-stim	s593	False	1
123.144	4.732	127.876	-4.034958314833316	end_round	4.732	columbia_card_task_fmri	1.0	0.8571428571428572	71.0	-45.0	0.1428571428571428	16.0	10.0	1.0	-16.751056374909215	4.732	9.0	stim	poldrack-single-stim	s593	False	1
128.629	1.5	127.878	n/a	-1.0	2.454	columbia_card_task_fmri	n/a	n/a	-1.0	n/a	n/a	n/a	n/a	n/a	n/a	n/a	n/a	ITI	poldrack-single-stim	s593	False	0
130.335	2.131	132.466	0.5989702565952559	draw_card	2.131	columbia_card_task_fmri	15.0	0.8125	89.0	-70.0	0.1875	16.0	1.0	3.0	0.2912440778284662	2.131	n/a	stim	poldrack-single-stim	s593	False	1
132.468	1.524	133.992	-0.463529743404744	draw_card	1.524	columbia_card_task_fmri	15.0	0.8	89.0	-70.0	0.2	16.0	2.0	3.0	1.1138318849622664	1.524	n/a	stim	poldrack-single-stim	s593	False	1
133.994	1.729	135.723	-1.6778154576904594	draw_card	1.729	columbia_card_task_fmri	15.0	0.7857142857142857	89.0	-70.0	0.2142857142857142	16.0	3.0	3.0	1.990661317972048	1.729	n/a	stim	poldrack-single-stim	s593	False	1
135.725	1.867	137.592	-3.078914358789361	draw_card	1.867	columbia_card_task_fmri	15.0	0.7692307692307692	89.0	-70.0	0.2307692307692307	16.0	4.0	3.0	2.924706035100364	1.867	4.0	stim	poldrack-single-stim	s593	False	0
138.345	1.5	137.594	n/a	-1.0	2.318	columbia_card_task_fmri	n/a	n/a	-1.0	n/a	n/a	n/a	n/a	n/a	n/a	n/a	n/a	ITI	poldrack-single-stim	s593	False	0
139.916	1.702	141.618	7.536470256595256	draw_card	1.702	columbia_card_task_fmri	30.0	0.7	89.0	-50.0	0.3	10.0	1.0	3.0	3.771921490401816	1.702	n/a	stim	poldrack-single-stim	s593	False	1
141.62	1.413	143.033	4.869803589928595	draw_card	1.413	columbia_card_task_fmri	30.0	0.6666666666666667	89.0	-50.0	0.3333333333333333	10.0	2.0	3.0	4.822780797115669	1.413	2.0	stim	poldrack-single-stim	s593	False	0
143.787	1.5	143.036	n/a	-1.0	2.318	columbia_card_task_fmri	n/a	n/a	-1.0	n/a	n/a	n/a	n/a	n/a	n/a	n/a	n/a	ITI	poldrack-single-stim	s593	False	0
145.357	1.548	146.905	6.936470256595256	draw_card	1.548	columbia_card_task_fmri	17.0	0.8666666666666667	89.0	-70.0	0.1333333333333333	15.0	1.0	2.0	-3.306668887704685	1.548	n/a	stim	poldrack-single-stim	s593	False	1
146.908	0.476	147.384	6.107898828023829	draw_card	0.476	columbia_card_task_fmri	17.0	0.8571428571428572	89.0	-70.0	0.1428571428571428	15.0	2.0	2.0	-2.4384613199695195	0.476	n/a	stim	poldrack-single-stim	s593	False	1
147.386	1.46	148.846	5.151854871979871	draw_card	1.46	columbia_card_task_fmri	17.0	0.8461538461538461	89.0	-70.0	0.1538461538461538	15.0	3.0	2.0	-1.4935804701809623	1.46	n/a	stim	poldrack-single-stim	s593	False	1
148.849	1.49	150.339	4.0364702565952575	draw_card	1.49	columbia_card_task_fmri	17.0	0.8333333333333334	89.0	-70.0	0.1666666666666666	15.0	4.0	2.0	-0.4614965690134909	1.49	n/a	stim	poldrack-single-stim	s593	False	1
150.341	1.364	151.705	2.718288438413436	end_round	1.364	columbia_card_task_fmri	17.0	0.8181818181818181	71.0	-70.0	0.1818181818181818	15.0	5.0	2.0	0.6697220169255687	1.364	4.0	stim	poldrack-single-stim	s593	False	1
152.458	1.5	151.707	n/a	-1.0	2.59	columbia_card_task_fmri	n/a	n/a	-1.0	n/a	n/a	n/a	n/a	n/a	n/a	n/a	n/a	ITI	poldrack-single-stim	s593	False	0
154.301	2.408	156.709	2.161470256595256	draw_card	2.408	columbia_card_task_fmri	7.0	0.9375	89.0	-95.0	0.0625	16.0	1.0	1.0	-8.182837437240014	2.408	n/a	stim	poldrack-single-stim	s593	False	1
156.711	1.851	158.562	1.736470256595256	draw_card	1.851	columbia_card_task_fmri	7.0	0.9333333333333332	89.0	-95.0	0.0666666666666666	16.0	2.0	1.0	-7.431246928911655	1.851	n/a	stim	poldrack-single-stim	s593	False	1
158.564	1.354	159.918	1.2507559708809703	draw_card	1.354	columbia_card_task_fmri	7.0	0.9285714285714286	89.0	-95.0	0.0714285714285714	16.0	3.0	1.0	-6.606955174662684	1.354	n/a	stim	poldrack-single-stim	s593	False	1
159.92	1.985	161.905	0.6903164104414092	draw_card	1.985	columbia_card_task_fmri	7.0	0.9230769230769232	89.0	-95.0	0.0769230769230769	16.0	4.0	1.0	-5.697599509601826	1.985	n/a	stim	poldrack-single-stim	s593	False	1
161.907	1.588	163.495	0.0364702565952559	draw_card	1.588	columbia_card_task_fmri	7.0	0.9166666666666666	89.0	-95.0	0.0833333333333333	16.0	5.0	1.0	-4.687717506045871	1.588	n/a	stim	poldrack-single-stim	s593	False	1
163.498	1.559	165.057	-0.7362570161320174	draw_card	1.559	columbia_card_task_fmri	7.0	0.9090909090909092	89.0	-95.0	0.0909090909090909	16.0	6.0	1.0	-3.5577023089887447	1.559	n/a	stim	poldrack-single-stim	s593	False	1
165.059	1.158	166.217	-1.6635297434047442	end_round	1.158	columbia_card_task_fmri	7.0	0.9	71.0	-95.0	0.1	16.0	7.0	1.0	-2.2823172717040485	1.158	6.0	stim	poldrack-single-stim	s593	False	1
166.97	1.5	166.219	n/a	-1.0	2.25	columbia_card_task_fmri	n/a	n/a	-1.0	n/a	n/a	n/a	n/a	n/a	n/a	n/a	n/a	ITI	poldrack-single-stim	s593	False	0
168.473	4.835	173.308	3.723970256595256	draw_card	4.835	columbia_card_task_fmri	9.0	0.9375	89.0	-100.0	0.0625	16.0	1.0	1.0	-6.49146907328068	4.835	n/a	stim	poldrack-single-stim	s593	False	1
173.31	0.404	173.714	3.269803589928589	draw_card	0.404	columbia_card_task_fmri	9.0	0.9333333333333332	89.0	-100.0	0.0666666666666666	16.0	2.0	1.0	-5.6881118521585385	0.404	n/a	stim	poldrack-single-stim	s593	False	1
173.718	0.493	174.211	2.750755970880971	draw_card	0.493	columbia_card_task_fmri	9.0	0.9285714285714286	89.0	-100.0	0.0714285714285714	16.0	3.0	1.0	-4.807058282637755	0.493	n/a	stim	poldrack-single-stim	s593	False	1
174.214	0.467	174.681	2.151854871979872	draw_card	0.467	columbia_card_task_fmri	9.0	0.9230769230769232	89.0	-100.0	0.0769230769230769	16.0	4.0	1.0	-3.835096736760029	0.467	n/a	stim	poldrack-single-stim	s593	False	1
174.684	1.534	176.218	1.4531369232619238	draw_card	1.534	columbia_card_task_fmri	9.0	0.9166666666666666	89.0	-100.0	0.0833333333333333	16.0	5.0	1.0	-2.7557030104203903	1.534	n/a	stim	poldrack-single-stim	s593	False	1
176.222	1.806	178.028	0.6273793475043459	draw_card	1.806	columbia_card_task_fmri	9.0	0.9090909090909092	89.0	-100.0	0.0909090909090909	16.0	6.0	1.0	-1.5479239498750417	1.806	n/a	stim	poldrack-single-stim	s593	False	1
178.031	0.769	178.8	-0.3635297434047444	end_round	0.769	columbia_card_task_fmri	9.0	0.9	71.0	-100.0	0.1	16.0	7.0	1.0	-0.1847901325273255	0.769	6.0	stim	poldrack-single-stim	s593	False	1
179.555	1.5	178.804	n/a	-1.0	2.25	columbia_card_task_fmri	n/a	n/a	-1.0	n/a	n/a	n/a	n/a	n/a	n/a	n/a	n/a	ITI	poldrack-single-stim	s593	False	0
181.058	2.46	183.518	4.661470256595256	draw_card	2.46	columbia_card_task_fmri	15.0	0.875	89.0	-80.0	0.125	16.0	1.0	2.0	-1.4650232798060117	2.46	n/a	stim	poldrack-single-stim	s593	False	1
183.521	0.547	184.068	3.8698035899285896	draw_card	0.547	columbia_card_task_fmri	15.0	0.8666666666666667	89.0	-80.0	0.1333333333333333	16.0	2.0	2.0	-0.5905465915522754	0.547	n/a	stim	poldrack-single-stim	s593	False	1
184.07	1.213	185.283	2.9650416851666863	draw_card	1.213	columbia_card_task_fmri	15.0	0.8571428571428572	89.0	-80.0	0.1428571428571428	16.0	3.0	2.0	0.357696209484061	1.213	n/a	stim	poldrack-single-stim	s593	False	1
185.285	0.887	186.172	1.9210856412106392	draw_card	0.887	columbia_card_task_fmri	15.0	0.8461538461538461	89.0	-80.0	0.1538461538461538	16.0	4.0	2.0	1.3896678121152206	0.887	n/a	stim	poldrack-single-stim	s593	False	1
186.175	3.592	189.767	0.7031369232619238	draw_card	3.592	columbia_card_task_fmri	15.0	0.8333333333333334	89.0	-80.0	0.1666666666666666	16.0	5.0	2.0	2.5168664192017545	3.592	n/a	stim	poldrack-single-stim	s593	False	1
189.769	0.948	190.717	-0.7362570161320192	end_round	0.948	columbia_card_task_fmri	15.0	0.8181818181818181	71.0	-80.0	0.1818181818181818	16.0	6.0	2.0	3.752320899059562	0.948	5.0	stim	poldrack-single-stim	s593	False	1
191.471	1.5	190.72	n/a	-1.0	2.522	columbia_card_task_fmri	n/a	n/a	-1.0	n/a	n/a	n/a	n/a	n/a	n/a	n/a	n/a	ITI	poldrack-single-stim	s593	False	0
193.246	1.826	195.072	6.786470256595256	draw_card	1.826	columbia_card_task_fmri	16.0	0.875	89.0	-70.0	0.125	16.0	1.0	2.0	-4.437569609162001	1.826	n/a	stim	poldrack-single-stim	s593	False	1
195.074	0.623	195.697	6.069803589928589	draw_card	0.623	columbia_card_task_fmri	16.0	0.8666666666666667	89.0	-70.0	0.1333333333333333	16.0	2.0	2.0	-3.6461403770333543	0.623	2.0	stim	poldrack-single-stim	s593	False	0
196.454	1.5	195.703	n/a	-1.0	2.454	columbia_card_task_fmri	n/a	n/a	-1.0	n/a	n/a	n/a	n/a	n/a	n/a	n/a	n/a	ITI	poldrack-single-stim	s593	False	0
198.161	2.195	200.356	8.098970256595257	draw_card	2.195	columbia_card_task_fmri	30.0	0.6875	89.0	-45.0	0.3125	16.0	1.0	5.0	1.8765010277168912	2.195	n/a	stim	poldrack-single-stim	s593	False	1
200.358	2.986	203.344	6.536470256595259	draw_card	2.986	columbia_card_task_fmri	30.0	0.6666666666666667	89.0	-45.0	0.3333333333333333	16.0	2.0	5.0	2.467842042382742	2.986	2.0	stim	poldrack-single-stim	s593	False	0
204.1	1.5	203.349	n/a	-1.0	2.25	columbia_card_task_fmri	n/a	n/a	-1.0	n/a	n/a	n/a	n/a	n/a	n/a	n/a	n/a	ITI	poldrack-single-stim	s593	False	0
205.603	1.597	207.2	-0.1301964100714101	draw_card	1.597	columbia_card_task_fmri	13.0	0.8333333333333334	89.0	-75.0	0.1666666666666666	6.0	1.0	1.0	-0.0892315824169784	1.597	n/a	stim	poldrack-single-stim	s593	False	1
207.202	0.779	207.981	-3.063529743404744	draw_card	0.779	columbia_card_task_fmri	13.0	0.8	89.0	-75.0	0.2	6.0	2.0	1.0	2.312650107211219	0.779	n/a	stim	poldrack-single-stim	s593	False	1
207.985	1.994	209.979	-7.463529743404744	draw_card	1.994	columbia_card_task_fmri	13.0	0.75	89.0	-75.0	0.25	6.0	3.0	1.0	5.21521468997603	1.994	n/a	stim	poldrack-single-stim	s593	False	1
209.981	0.613	210.594	-14.796863076738076	end_round	0.613	columbia_card_task_fmri	13.0	0.6666666666666667	71.0	-75.0	0.3333333333333333	6.0	4.0	1.0	8.591174798708373	0.613	3.0	stim	poldrack-single-stim	s593	False	1
211.352	1.5	210.601	n/a	-1.0	2.454	columbia_card_task_fmri	n/a	n/a	-1.0	n/a	n/a	n/a	n/a	n/a	n/a	n/a	n/a	ITI	poldrack-single-stim	s593	False	0
213.058	1.342	214.4	1.5364702565952577	draw_card	1.342	columbia_card_task_fmri	14.0	0.8333333333333334	89.0	-70.0	0.1666666666666666	6.0	1.0	1.0	-1.5782326309592207	1.342	1.0	stim	poldrack-single-stim	s593	False	0
215.155	1.5	214.404	n/a	-1.0	2.454	columbia_card_task_fmri	n/a	n/a	-1.0	n/a	n/a	n/a	n/a	n/a	n/a	n/a	n/a	ITI	poldrack-single-stim	s593	False	0
216.862	1.357	218.219	1.5364702565952577	draw_card	1.357	columbia_card_task_fmri	16.0	0.8333333333333334	89.0	-80.0	0.1666666666666666	6.0	1.0	1.0	2.889197612196618	1.357	n/a	stim	poldrack-single-stim	s593	False	1
218.222	0.636	218.858	-1.6635297434047434	draw_card	0.636	columbia_card_task_fmri	16.0	0.8	89.0	-80.0	0.2	6.0	2.0	1.0	5.509859333949649	0.636	n/a	stim	poldrack-single-stim	s593	False	1
218.861	1.41	220.271	-6.463529743404744	draw_card	1.41	columbia_card_task_fmri	16.0	0.75	89.0	-80.0	0.25	6.0	3.0	1.0	8.67673780336574	1.41	n/a	stim	poldrack-single-stim	s593	False	1
220.274	1.882	222.156	-14.46352974340474	end_round	1.882	columbia_card_task_fmri	16.0	0.6666666666666667	71.0	-80.0	0.3333333333333333	6.0	4.0	1.0	12.36004204572231	1.882	3.0	stim	poldrack-single-stim	s593	False	1
222.911	1.5	222.16	n/a	-1.0	2.522	columbia_card_task_fmri	n/a	n/a	-1.0	n/a	n/a	n/a	n/a	n/a	n/a	n/a	n/a	ITI	poldrack-single-stim	s593	False	0
224.686	1.73	226.416	4.0364702565952575	draw_card	1.73	columbia_card_task_fmri	17.0	0.8333333333333334	89.0	-70.0	0.1666666666666666	6.0	1.0	1.0	-0.4614965690134909	1.73	1.0	stim	poldrack-single-stim	s593	False	0
227.171	1.5	226.42	n/a	-1.0	2.454	columbia_card_task_fmri	n/a	n/a	-1.0	n/a	n/a	n/a	n/a	n/a	n/a	n/a	n/a	ITI	poldrack-single-stim	s593	False	0
228.878	1.248	230.126	4.036470256595256	draw_card	1.248	columbia_card_task_fmri	25.0	0.75	89.0	-65.0	0.25	8.0	1.0	2.0	6.080552542660989	1.248	n/a	stim	poldrack-single-stim	s593	False	1
230.129	0.438	230.567	0.8221845423095442	draw_card	0.438	columbia_card_task_fmri	25.0	0.7142857142857143	89.0	-65.0	0.2857142857142857	8.0	2.0	2.0	7.766009879474808	0.438	2.0	stim	poldrack-single-stim	s593	False	0
231.322	1.5	230.571	n/a	-1.0	2.658	columbia_card_task_fmri	n/a	n/a	-1.0	n/a	n/a	n/a	n/a	n/a	n/a	n/a	n/a	ITI	poldrack-single-stim	s593	False	0
233.233	1.205	234.438	4.036470256595256	draw_card	1.205	columbia_card_task_fmri	30.0	0.75	89.0	-80.0	0.25	8.0	1.0	2.0	14.735304931067724	1.205	n/a	stim	poldrack-single-stim	s593	False	1
234.441	0.558	234.999	0.1078988280238324	draw_card	0.558	columbia_card_task_fmri	30.0	0.7142857142857143	89.0	-80.0	0.2857142857142857	8.0	2.0	2.0	16.79581508417686	0.558	n/a	stim	poldrack-single-stim	s593	False	1
235.002	1.267	236.269	-5.130196410071405	draw_card	1.267	columbia_card_task_fmri	30.0	0.6666666666666667	89.0	-80.0	0.3333333333333333	8.0	3.0	2.0	18.956388232349436	1.267	n/a	stim	poldrack-single-stim	s593	False	1
236.271	1.498	237.769	-12.463529743404743	end_round	1.498	columbia_card_task_fmri	30.0	0.6	71.0	-80.0	0.4	8.0	4.0	2.0	20.989806533142755	1.498	3.0	stim	poldrack-single-stim	s593	False	1
238.524	1.5	237.773	n/a	-1.0	2.386	columbia_card_task_fmri	n/a	n/a	-1.0	n/a	n/a	n/a	n/a	n/a	n/a	n/a	n/a	ITI	poldrack-single-stim	s593	False	0
240.163	1.208	241.371	3.736470256595257	draw_card	1.208	columbia_card_task_fmri	13.0	0.9	89.0	-95.0	0.1	10.0	1.0	1.0	-0.4844564589962132	1.208	n/a	stim	poldrack-single-stim	s593	False	1
241.375	0.522	241.897	2.536470256595256	draw_card	0.522	columbia_card_task_fmri	13.0	0.8888888888888888	89.0	-95.0	0.1111111111111111	10.0	2.0	1.0	1.0550175096331174	0.522	n/a	stim	poldrack-single-stim	s593	False	1
241.9	2.247	244.147	1.036470256595256	draw_card	2.247	columbia_card_task_fmri	13.0	0.875	89.0	-95.0	0.125	10.0	3.0	1.0	2.82980750485077	2.247	3.0	stim	poldrack-single-stim	s593	False	0
244.902	1.5	244.151	n/a	-1.0	2.522	columbia_card_task_fmri	n/a	n/a	-1.0	n/a	n/a	n/a	n/a	n/a	n/a	n/a	n/a	ITI	poldrack-single-stim	s593	False	0
246.676	1.14	247.816	5.136470256595255	draw_card	1.14	columbia_card_task_fmri	14.0	0.9	89.0	-90.0	0.1	10.0	1.0	1.0	-1.6830577101287505	1.14	n/a	stim	poldrack-single-stim	s593	False	1
247.819	0.514	248.333	3.9809147010396986	draw_card	0.514	columbia_card_task_fmri	14.0	0.8888888888888888	89.0	-90.0	0.1111111111111111	10.0	2.0	1.0	-0.2007257677367491	0.514	n/a	stim	poldrack-single-stim	s593	False	1
248.336	0.59	248.926	2.536470256595256	draw_card	0.59	columbia_card_task_fmri	14.0	0.875	89.0	-90.0	0.125	10.0	3.0	1.0	1.5082010681798934	0.59	3.0	stim	poldrack-single-stim	s593	False	0
249.68	1.5	248.929	n/a	-1.0	2.59	columbia_card_task_fmri	n/a	n/a	-1.0	n/a	n/a	n/a	n/a	n/a	n/a	n/a	n/a	ITI	poldrack-single-stim	s593	False	0
251.523	1.208	252.731	0.3364702565952566	draw_card	1.208	columbia_card_task_fmri	16.0	0.8	89.0	-70.0	0.2	10.0	1.0	2.0	1.513428811609387	1.208	n/a	stim	poldrack-single-stim	s593	False	1
252.734	0.513	253.247	-1.5746408545158548	draw_card	0.513	columbia_card_task_fmri	16.0	0.7777777777777778	89.0	-70.0	0.2222222222222222	10.0	2.0	2.0	2.865746631255199	0.513	n/a	stim	poldrack-single-stim	s593	False	1
253.25	0.961	254.211	-3.963529743404744	draw_card	0.961	columbia_card_task_fmri	16.0	0.75	89.0	-70.0	0.25	10.0	3.0	2.0	4.34990877655688	0.961	n/a	stim	poldrack-single-stim	s593	False	1
254.214	2.388	256.602	-7.034958314833316	end_round	2.388	columbia_card_task_fmri	16.0	0.7142857142857143	71.0	-70.0	0.2857142857142857	10.0	4.0	2.0	5.960342876872552	2.388	3.0	stim	poldrack-single-stim	s593	False	1
257.356	1.5	256.605	n/a	-1.0	2.386	columbia_card_task_fmri	n/a	n/a	-1.0	n/a	n/a	n/a	n/a	n/a	n/a	n/a	n/a	ITI	poldrack-single-stim	s593	False	0
258.995	2.461	261.456	-0.3801964100714101	draw_card	2.461	columbia_card_task_fmri	7.0	0.9166666666666666	89.0	-100.0	0.0833333333333333	12.0	1.0	1.0	-3.307742904025865	2.461	n/a	stim	poldrack-single-stim	s593	False	1
261.459	0.61	262.069	-1.1908024706774725	draw_card	0.61	columbia_card_task_fmri	7.0	0.9090909090909092	89.0	-100.0	0.0909090909090909	12.0	2.0	1.0	-2.1221807211806016	0.61	n/a	stim	poldrack-single-stim	s593	False	1
262.072	0.512	262.584	-2.1635297434047445	draw_card	0.512	columbia_card_task_fmri	7.0	0.9	89.0	-100.0	0.1	12.0	3.0	1.0	-0.7841165591728867	0.512	n/a	stim	poldrack-single-stim	s593	False	1
262.587	1.343	263.93	-3.3524186322936336	draw_card	1.343	columbia_card_task_fmri	7.0	0.8888888888888888	89.0	-100.0	0.1111111111111111	12.0	4.0	1.0	0.7410723444208216	1.343	n/a	stim	poldrack-single-stim	s593	False	1
263.933	2.078	266.011	-4.838529743404744	draw_card	2.078	columbia_card_task_fmri	7.0	0.875	89.0	-100.0	0.125	12.0	5.0	1.0	2.499397011928039	2.078	n/a	stim	poldrack-single-stim	s593	False	1
266.015	1.031	267.046	-6.749244029119029	end_round	1.031	columbia_card_task_fmri	7.0	0.8571428571428572	71.0	-100.0	0.1428571428571428	12.0	6.0	1.0	4.552845042681796	1.031	5.0	stim	poldrack-single-stim	s593	False	1
267.801	1.5	267.05	n/a	-1.0	2.59	columbia_card_task_fmri	n/a	n/a	-1.0	n/a	n/a	n/a	n/a	n/a	n/a	n/a	n/a	ITI	poldrack-single-stim	s593	False	0
269.644	4.959	274.603	-0.1301964100714083	draw_card	4.959	columbia_card_task_fmri	14.0	0.8333333333333334	89.0	-80.0	0.1666666666666666	12.0	1.0	2.0	2.144542594483518	4.959	n/a	stim	poldrack-single-stim	s593	False	1
274.606	0.652	275.258	-1.5544388343138376	draw_card	0.652	columbia_card_task_fmri	14.0	0.8181818181818181	89.0	-80.0	0.1818181818181818	12.0	2.0	2.0	3.366968542282258	0.652	n/a	stim	poldrack-single-stim	s593	False	1
275.261	0.72	275.981	-3.263529743404743	draw_card	0.72	columbia_card_task_fmri	14.0	0.8	89.0	-80.0	0.2	12.0	3.0	2.0	4.710512550213821	0.72	n/a	stim	poldrack-single-stim	s593	False	1
275.984	1.177	277.161	-5.352418632293634	draw_card	1.177	columbia_card_task_fmri	14.0	0.7777777777777778	89.0	-80.0	0.2222222222222222	12.0	4.0	2.0	6.1888581696503735	1.177	n/a	stim	poldrack-single-stim	s593	False	1
277.164	1.711	278.875	-7.963529743404744	end_round	1.711	columbia_card_task_fmri	14.0	0.75	71.0	-80.0	0.25	12.0	5.0	2.0	7.811315923321132	1.711	4.0	stim	poldrack-single-stim	s593	False	1
279.632	1.5	278.881	n/a	-1.0	2.318	columbia_card_task_fmri	n/a	n/a	-1.0	n/a	n/a	n/a	n/a	n/a	n/a	n/a	n/a	ITI	poldrack-single-stim	s593	False	0
281.203	1.903	283.106	1.536470256595256	draw_card	1.903	columbia_card_task_fmri	15.0	0.8333333333333334	89.0	-75.0	0.1666666666666666	12.0	1.0	2.0	0.655325880679527	1.903	n/a	stim	poldrack-single-stim	s593	False	1
283.109	0.793	283.902	0.1728338929588908	draw_card	0.793	columbia_card_task_fmri	15.0	0.8181818181818181	89.0	-75.0	0.1818181818181818	12.0	2.0	2.0	1.825635062959428	0.793	2.0	stim	poldrack-single-stim	s593	False	0
284.659	1.5	283.908	n/a	-1.0	2.25	columbia_card_task_fmri	n/a	n/a	-1.0	n/a	n/a	n/a	n/a	n/a	n/a	n/a	n/a	ITI	poldrack-single-stim	s593	False	0
286.162	1.403	287.565	0.5364702565952559	draw_card	1.403	columbia_card_task_fmri	15.0	0.8	89.0	-65.0	0.2	15.0	1.0	3.0	-0.8840018454135716	1.403	n/a	stim	poldrack-single-stim	s593	False	1
287.568	0.36	287.928	-0.6063868862618864	draw_card	0.36	columbia_card_task_fmri	15.0	0.7857142857142857	89.0	-65.0	0.2142857142857142	15.0	2.0	3.0	-0.0588562728031476	0.36	2.0	stim	poldrack-single-stim	s593	False	0
288.684	1.5	287.933	n/a	-1.0	2.454	columbia_card_task_fmri	n/a	n/a	-1.0	n/a	n/a	n/a	n/a	n/a	n/a	n/a	n/a	ITI	poldrack-single-stim	s593	False	0
290.391	1.404	291.795	-0.213529743404744	draw_card	1.404	columbia_card_task_fmri	14.0	0.8125	89.0	-70.0	0.1875	16.0	1.0	3.0	-0.0986454322718728	1.404	1.0	stim	poldrack-single-stim	s593	False	0
292.552	1.5	291.801	n/a	-1.0	3.27	columbia_card_task_fmri	n/a	n/a	-1.0	n/a	n/a	n/a	n/a	n/a	n/a	n/a	n/a	ITI	poldrack-single-stim	s593	False	0
295.075	1.588	296.663	-0.276029743404744	draw_card	1.588	columbia_card_task_fmri	11.0	0.6875	89.0	-30.0	0.3125	16.0	1.0	5.0	-13.854848078690932	1.588	n/a	stim	poldrack-single-stim	s593	False	1
296.667	2.551	299.218	-1.13019641007141	draw_card	2.551	columbia_card_task_fmri	11.0	0.6666666666666667	89.0	-30.0	0.3333333333333333	16.0	2.0	5.0	-13.532306218103368	2.551	2.0	stim	poldrack-single-stim	s593	False	0
299.972	1.5	299.221	n/a	-1.0	2.25	columbia_card_task_fmri	n/a	n/a	-1.0	n/a	n/a	n/a	n/a	n/a	n/a	n/a	n/a	ITI	poldrack-single-stim	s593	False	0
301.475	1.726	303.201	4.536470256595256	draw_card	1.726	columbia_card_task_fmri	15.0	0.8666666666666667	89.0	-75.0	0.1333333333333333	15.0	1.0	2.0	-2.288192786744492	1.726	1.0	stim	poldrack-single-stim	s593	False	0
303.956	1.5	303.205	n/a	-1.0	2.25	columbia_card_task_fmri	n/a	n/a	-1.0	n/a	n/a	n/a	n/a	n/a	n/a	n/a	n/a	ITI	poldrack-single-stim	s593	False	0
305.459	3.184	308.643	6.26980358992859	draw_card	3.184	columbia_card_task_fmri	17.0	0.8666666666666667	89.0	-75.0	0.1333333333333333	15.0	1.0	2.0	-1.6091606998779575	3.184	n/a	stim	poldrack-single-stim	s593	False	1
308.646	0.598	309.244	5.393613113738115	draw_card	0.598	columbia_card_task_fmri	17.0	0.8571428571428572	89.0	-75.0	0.1428571428571428	15.0	2.0	2.0	-0.6909291761901954	0.598	n/a	stim	poldrack-single-stim	s593	False	1
309.247	1.461	310.708	4.382624102749102	draw_card	1.461	columbia_card_task_fmri	17.0	0.8461538461538461	89.0	-75.0	0.1538461538461538	15.0	3.0	2.0	0.3083853794433508	1.461	n/a	stim	poldrack-single-stim	s593	False	1
310.711	1.213	311.924	3.203136923261924	end_round	1.213	columbia_card_task_fmri	17.0	0.8333333333333334	71.0	-75.0	0.1666666666666666	15.0	4.0	2.0	1.3999180090757122	1.213	3.0	stim	poldrack-single-stim	s593	False	1
312.678	1.5	311.927	n/a	-1.0	2.318	columbia_card_task_fmri	n/a	n/a	-1.0	n/a	n/a	n/a	n/a	n/a	n/a	n/a	n/a	ITI	poldrack-single-stim	s593	False	0
314.248	2.164	316.412	1.848970256595256	draw_card	2.164	columbia_card_task_fmri	2.0	0.9375	89.0	-25.0	0.0625	16.0	1.0	1.0	-26.20703187377278	2.164	n/a	stim	poldrack-single-stim	s593	False	1
316.416	0.754	317.17	1.736470256595256	draw_card	0.754	columbia_card_task_fmri	2.0	0.9333333333333332	89.0	-25.0	0.0666666666666666	16.0	2.0	1.0	-26.01284714768815	0.754	n/a	stim	poldrack-single-stim	s593	False	1
317.173	1.06	318.233	1.6078988280238276	draw_card	1.06	columbia_card_task_fmri	2.0	0.9285714285714286	89.0	-25.0	0.0714285714285714	16.0	3.0	1.0	-25.79957645565804	1.06	3.0	stim	poldrack-single-stim	s593	False	0
318.99	1.5	318.239	n/a	-1.0	2.726	columbia_card_task_fmri	n/a	n/a	-1.0	n/a	n/a	n/a	n/a	n/a	n/a	n/a	n/a	ITI	poldrack-single-stim	s593	False	0
320.969	2.219	323.188	4.036470256595256	draw_card	2.219	columbia_card_task_fmri	9.0	0.9375	89.0	-95.0	0.0625	16.0	1.0	1.0	-7.699631275550328	2.219	n/a	stim	poldrack-single-stim	s593	False	1
323.192	0.774	323.966	3.603136923261923	draw_card	0.774	columbia_card_task_fmri	9.0	0.9333333333333332	89.0	-95.0	0.0666666666666666	16.0	2.0	1.0	-6.933249049546113	0.774	n/a	stim	poldrack-single-stim	s593	False	1
323.969	0.876	324.845	3.107898828023828	draw_card	0.876	columbia_card_task_fmri	9.0	0.9285714285714286	89.0	-95.0	0.0714285714285714	16.0	3.0	1.0	-6.092738366556208	0.876	n/a	stim	poldrack-single-stim	s593	False	1
324.848	2.47	327.318	2.536470256595256	draw_card	2.47	columbia_card_task_fmri	9.0	0.9230769230769232	89.0	-95.0	0.0769230769230769	16.0	4.0	1.0	-5.165493997179926	2.47	n/a	stim	poldrack-single-stim	s593	False	1
327.321	1.59	328.911	1.8698035899285896	draw_card	1.59	columbia_card_task_fmri	9.0	0.9166666666666666	89.0	-95.0	0.0833333333333333	16.0	5.0	1.0	-4.135750144845876	1.59	n/a	stim	poldrack-single-stim	s593	False	1
328.914	1.582	330.496	1.081924802049801	end_round	1.582	columbia_card_task_fmri	9.0	0.9090909090909092	71.0	-95.0	0.0909090909090909	16.0	6.0	1.0	-2.983515292897742	1.582	5.0	stim	poldrack-single-stim	s593	False	1
331.254	1.5	330.503	n/a	-1.0	2.386	columbia_card_task_fmri	n/a	n/a	-1.0	n/a	n/a	n/a	n/a	n/a	n/a	n/a	n/a	ITI	poldrack-single-stim	s593	False	0
332.894	1.413	334.307	5.598970256595256	draw_card	1.413	columbia_card_task_fmri	11.0	0.9375	89.0	-100.0	0.0625	16.0	1.0	1.0	-6.008150217982195	1.413	n/a	stim	poldrack-single-stim	s593	False	1
334.31	0.713	335.023	5.136470256595256	draw_card	0.713	columbia_card_task_fmri	11.0	0.9333333333333332	89.0	-100.0	0.0666666666666666	16.0	2.0	1.0	-5.190004580399879	0.713	2.0	stim	poldrack-single-stim	s593	False	0
335.776	1.5	335.025	n/a	-1.0	2.318	columbia_card_task_fmri	n/a	n/a	-1.0	n/a	n/a	n/a	n/a	n/a	n/a	n/a	n/a	ITI	poldrack-single-stim	s593	False	0
337.348	1.492	338.84	6.161470256595256	draw_card	1.492	columbia_card_task_fmri	16.0	0.875	89.0	-75.0	0.125	16.0	1.0	2.0	-2.786250615504514	1.492	n/a	stim	poldrack-single-stim	s593	False	1
338.845	0.712	339.557	5.403136923261923	draw_card	0.712	columbia_card_task_fmri	16.0	0.8666666666666667	89.0	-75.0	0.1333333333333333	16.0	2.0	2.0	-1.9486813347176408	0.712	n/a	stim	poldrack-single-stim	s593	False	1
339.561	0.809	340.37	4.5364702565952575	draw_card	0.809	columbia_card_task_fmri	16.0	0.8571428571428572	89.0	-75.0	0.1428571428571428	16.0	3.0	2.0	-1.0404540636632549	0.809	n/a	stim	poldrack-single-stim	s593	False	1
340.373	1.212	341.585	3.536470256595256	draw_card	1.212	columbia_card_task_fmri	16.0	0.8461538461538461	89.0	-75.0	0.1538461538461538	16.0	4.0	2.0	-0.052025696666881	1.212	n/a	stim	poldrack-single-stim	s593	False	1
341.588	1.127	342.715	2.3698035899285896	end_round	1.127	columbia_card_task_fmri	16.0	0.8333333333333334	71.0	-75.0	0.1666666666666666	16.0	5.0	2.0	1.027617754271553	1.127	4.0	stim	poldrack-single-stim	s593	False	1
343.471	1.5	342.72	n/a	-1.0	2.25	columbia_card_task_fmri	n/a	n/a	-1.0	n/a	n/a	n/a	n/a	n/a	n/a	n/a	n/a	ITI	poldrack-single-stim	s593	False	0
344.974	2.622	347.596	6.411470256595256	draw_card	2.622	columbia_card_task_fmri	17.0	0.875	89.0	-80.0	0.125	16.0	1.0	2.0	-0.8043587230479332	2.622	n/a	stim	poldrack-single-stim	s593	False	1
347.599	0.482	348.081	5.603136923261924	draw_card	0.482	columbia_card_task_fmri	17.0	0.8666666666666667	89.0	-80.0	0.1333333333333333	16.0	2.0	2.0	0.0885702989547425	0.482	n/a	stim	poldrack-single-stim	s593	False	1
348.084	1.297	349.381	4.679327399452402	draw_card	1.297	columbia_card_task_fmri	17.0	0.8571428571428572	89.0	-80.0	0.1428571428571428	16.0	3.0	2.0	1.056819460246956	1.297	n/a	stim	poldrack-single-stim	s593	False	1
349.385	1.153	350.538	3.613393333518333	draw_card	1.153	columbia_card_task_fmri	17.0	0.8461538461538461	89.0	-80.0	0.1538461538461538	16.0	4.0	2.0	2.110561239592293	1.153	n/a	stim	poldrack-single-stim	s593	False	1
350.541	1.196	351.737	2.3698035899285914	end_round	1.196	columbia_card_task_fmri	17.0	0.8333333333333334	71.0	-80.0	0.1666666666666666	16.0	5.0	2.0	3.2615359460006914	1.196	4.0	stim	poldrack-single-stim	s593	False	1
352.495	1.5	351.744	n/a	-1.0	2.25	columbia_card_task_fmri	n/a	n/a	-1.0	n/a	n/a	n/a	n/a	n/a	n/a	n/a	n/a	ITI	poldrack-single-stim	s593	False	0
365.007	3.516	368.523	0.7031369232619238	draw_card	3.516	columbia_card_task_fmri	13.0	0.8333333333333334	89.0	-70.0	0.1666666666666666	6.0	1.0	1.0	-1.9504571724665207	3.516	n/a	stim	poldrack-single-stim	s593	False	1
368.527	0.759	369.286	-2.063529743404744	draw_card	0.759	columbia_card_task_fmri	13.0	0.8	89.0	-70.0	0.2	6.0	2.0	1.0	0.3146671236951448	0.759	n/a	stim	poldrack-single-stim	s593	False	1
369.289	2.241	371.53	-6.213529743404744	draw_card	2.241	columbia_card_task_fmri	13.0	0.75	89.0	-70.0	0.25	6.0	3.0	1.0	3.052014834364293	2.241	n/a	stim	poldrack-single-stim	s593	False	1
371.533	0.919	372.452	-13.130196410071408	end_round	0.919	columbia_card_task_fmri	13.0	0.6666666666666667	71.0	-70.0	0.3333333333333333	6.0	4.0	1.0	6.235864415859759	0.919	3.0	stim	poldrack-single-stim	s593	False	1
373.209	1.5	372.458	n/a	-1.0	2.454	columbia_card_task_fmri	n/a	n/a	-1.0	n/a	n/a	n/a	n/a	n/a	n/a	n/a	n/a	ITI	poldrack-single-stim	s593	False	0
374.916	1.563	376.479	0.7031369232619238	draw_card	1.563	columbia_card_task_fmri	15.0	0.8333333333333334	89.0	-80.0	0.1666666666666666	6.0	1.0	1.0	2.5168664192017545	1.563	n/a	stim	poldrack-single-stim	s593	False	1
376.482	0.623	377.105	-2.4635297434047443	draw_card	0.623	columbia_card_task_fmri	15.0	0.8	89.0	-80.0	0.2	6.0	2.0	1.0	5.110182508310864	0.623	n/a	stim	poldrack-single-stim	s593	False	1
377.108	0.896	378.004	-7.213529743404744	draw_card	0.896	columbia_card_task_fmri	15.0	0.75	89.0	-80.0	0.25	6.0	3.0	1.0	8.24402369022225	0.896	n/a	stim	poldrack-single-stim	s593	False	1
378.007	1.194	379.201	-15.130196410071408	end_round	1.194	columbia_card_task_fmri	15.0	0.6666666666666667	71.0	-80.0	0.3333333333333333	6.0	4.0	1.0	11.888911840536252	1.194	3.0	stim	poldrack-single-stim	s593	False	1
379.958	1.5	379.207	n/a	-1.0	2.454	columbia_card_task_fmri	n/a	n/a	-1.0	n/a	n/a	n/a	n/a	n/a	n/a	n/a	n/a	ITI	poldrack-single-stim	s593	False	0
381.666	0.874	382.54	2.3698035899285896	draw_card	0.874	columbia_card_task_fmri	16.0	0.8333333333333334	89.0	-75.0	0.1666666666666666	6.0	1.0	1.0	1.027617754271553	0.874	n/a	stim	poldrack-single-stim	s593	False	1
382.544	0.537	383.081	-0.6635297434047434	draw_card	0.537	columbia_card_task_fmri	16.0	0.8	89.0	-75.0	0.2	6.0	2.0	1.0	3.511546141297849	0.537	2.0	stim	poldrack-single-stim	s593	False	0
383.838	1.5	383.087	n/a	-1.0	2.522	columbia_card_task_fmri	n/a	n/a	-1.0	n/a	n/a	n/a	n/a	n/a	n/a	n/a	n/a	ITI	poldrack-single-stim	s593	False	0
385.613	1.283	386.896	3.536470256595256	draw_card	1.283	columbia_card_task_fmri	21.0	0.75	89.0	-55.0	0.25	8.0	1.0	2.0	0.0239463792777669	1.283	n/a	stim	poldrack-single-stim	s593	False	1
386.9	1.12	388.02	0.8221845423095424	draw_card	1.12	columbia_card_task_fmri	21.0	0.7142857142857143	89.0	-55.0	0.2857142857142857	8.0	2.0	2.0	1.446795682677248	1.12	2.0	stim	poldrack-single-stim	s593	False	0
388.777	1.5	388.026	n/a	-1.0	2.386	columbia_card_task_fmri	n/a	n/a	-1.0	n/a	n/a	n/a	n/a	n/a	n/a	n/a	n/a	ITI	poldrack-single-stim	s593	False	0
390.417	1.101	391.518	4.786470256595256	draw_card	1.101	columbia_card_task_fmri	26.0	0.75	89.0	-65.0	0.25	8.0	1.0	2.0	6.513232789163709	1.101	1.0	stim	poldrack-single-stim	s593	False	0
392.273	1.5	391.522	n/a	-1.0	2.454	columbia_card_task_fmri	n/a	n/a	-1.0	n/a	n/a	n/a	n/a	n/a	n/a	n/a	n/a	ITI	poldrack-single-stim	s593	False	0
393.981	1.058	395.039	-0.1301964100714101	draw_card	1.058	columbia_card_task_fmri	15.0	0.7777777777777778	89.0	-60.0	0.2222222222222222	9.0	1.0	2.0	-1.702555843567449	1.058	n/a	stim	poldrack-single-stim	s593	False	1
395.043	0.663	395.706	-2.2135297434047443	draw_card	0.663	columbia_card_task_fmri	15.0	0.75	89.0	-60.0	0.25	9.0	2.0	2.0	-0.4085888768613159	0.663	n/a	stim	poldrack-single-stim	s593	False	1
395.71	1.049	396.759	-4.892101171976171	end_round	1.049	columbia_card_task_fmri	15.0	0.7142857142857143	71.0	-60.0	0.2857142857142857	9.0	3.0	2.0	0.9954994313784482	1.049	2.0	stim	poldrack-single-stim	s593	False	1
397.515	1.5	396.764	n/a	-1.0	2.522	columbia_card_task_fmri	n/a	n/a	-1.0	n/a	n/a	n/a	n/a	n/a	n/a	n/a	n/a	ITI	poldrack-single-stim	s593	False	0
399.29	6.507	405.797	4.236470256595257	draw_card	6.507	columbia_card_task_fmri	13.0	0.9	89.0	-90.0	0.1	10.0	1.0	1.0	-1.9826910786271237	6.507	n/a	stim	poldrack-single-stim	s593	False	1
405.801	0.624	406.425	3.092025812150811	draw_card	0.624	columbia_card_task_fmri	13.0	0.8888888888888888	89.0	-90.0	0.1111111111111111	10.0	2.0	1.0	-0.5146454070470057	0.624	n/a	stim	poldrack-single-stim	s593	False	1
406.429	0.826	407.255	1.661470256595256	draw_card	0.826	columbia_card_task_fmri	13.0	0.875	89.0	-90.0	0.125	10.0	3.0	1.0	1.1778148391305692	0.826	n/a	stim	poldrack-single-stim	s593	False	1
407.259	2.303	409.562	-0.1778154576904558	draw_card	2.303	columbia_card_task_fmri	13.0	0.8571428571428572	89.0	-90.0	0.1428571428571428	10.0	4.0	1.0	3.1543592906397397	2.303	n/a	stim	poldrack-single-stim	s593	False	1
409.567	0.492	410.059	-2.6301964100714104	end_round	0.492	columbia_card_task_fmri	13.0	0.8333333333333334	71.0	-90.0	0.1666666666666666	10.0	5.0	1.0	5.4957042783223	0.492	4.0	stim	poldrack-single-stim	s593	False	1
410.814	1.5	410.063	n/a	-1.0	2.522	columbia_card_task_fmri	n/a	n/a	-1.0	n/a	n/a	n/a	n/a	n/a	n/a	n/a	n/a	ITI	poldrack-single-stim	s593	False	0
412.59	1.161	413.751	5.536470256595256	draw_card	1.161	columbia_card_task_fmri	15.0	0.9	89.0	-95.0	0.1	10.0	1.0	1.0	0.1148822507982174	1.161	n/a	stim	poldrack-single-stim	s593	False	1
413.755	0.67	414.425	4.3142480343730325	draw_card	0.67	columbia_card_task_fmri	15.0	0.8888888888888888	89.0	-95.0	0.1111111111111111	10.0	2.0	1.0	1.682925514310284	0.67	n/a	stim	poldrack-single-stim	s593	False	1
414.429	0.9	415.329	2.786470256595256	draw_card	0.9	columbia_card_task_fmri	15.0	0.875	89.0	-95.0	0.125	10.0	3.0	1.0	3.4906452908399075	0.9	n/a	stim	poldrack-single-stim	s593	False	1
415.333	1.12	416.453	0.8221845423095424	draw_card	1.12	columbia_card_task_fmri	15.0	0.8571428571428572	89.0	-95.0	0.1428571428571428	10.0	4.0	1.0	5.601767639676055	1.12	n/a	stim	poldrack-single-stim	s593	False	1
416.458	0.736	417.194	-1.7968630767380762	end_round	0.736	columbia_card_task_fmri	15.0	0.8333333333333334	71.0	-95.0	0.1666666666666666	10.0	5.0	1.0	8.102495626022552	0.736	4.0	stim	poldrack-single-stim	s593	False	1
417.952	1.5	417.201	n/a	-1.0	2.59	columbia_card_task_fmri	n/a	n/a	-1.0	n/a	n/a	n/a	n/a	n/a	n/a	n/a	n/a	ITI	poldrack-single-stim	s593	False	0
419.798	4.445	424.243	1.3364702565952566	draw_card	4.445	columbia_card_task_fmri	16.0	0.8	89.0	-65.0	0.2	10.0	1.0	2.0	-0.4844564589962132	4.445	n/a	stim	poldrack-single-stim	s593	False	1
424.247	0.662	424.909	-0.4635297434047423	draw_card	0.662	columbia_card_task_fmri	16.0	0.7777777777777778	89.0	-65.0	0.2222222222222222	10.0	2.0	2.0	0.7890829897410612	0.662	n/a	stim	poldrack-single-stim	s593	False	1
424.913	1.123	426.036	-2.7135297434047443	draw_card	1.123	columbia_card_task_fmri	16.0	0.75	89.0	-65.0	0.25	10.0	3.0	2.0	2.186799225355351	1.123	n/a	stim	poldrack-single-stim	s593	False	1
426.04	4.323	430.363	-5.606386886261885	end_round	4.323	columbia_card_task_fmri	16.0	0.7142857142857143	71.0	-65.0	0.2857142857142857	10.0	4.0	2.0	3.7034462230976857	4.323	3.0	stim	poldrack-single-stim	s593	False	1
431.121	1.5	430.37	n/a	-1.0	2.454	columbia_card_task_fmri	n/a	n/a	-1.0	n/a	n/a	n/a	n/a	n/a	n/a	n/a	n/a	ITI	poldrack-single-stim	s593	False	0
432.829	1.314	434.143	0.0364702565952559	draw_card	1.314	columbia_card_task_fmri	7.0	0.9166666666666666	89.0	-95.0	0.0833333333333333	12.0	1.0	1.0	-4.687717506045871	1.314	n/a	stim	poldrack-single-stim	s593	False	1
434.147	0.525	434.672	-0.7362570161320174	draw_card	0.525	columbia_card_task_fmri	7.0	0.9090909090909092	89.0	-95.0	0.0909090909090909	12.0	2.0	1.0	-3.5577023089887447	0.525	n/a	stim	poldrack-single-stim	s593	False	1
434.676	0.595	435.271	-1.6635297434047442	draw_card	0.595	columbia_card_task_fmri	7.0	0.9	89.0	-95.0	0.1	12.0	3.0	1.0	-2.2823172717040485	0.595	n/a	stim	poldrack-single-stim	s593	False	1
435.275	0.832	436.107	-2.796863076738078	draw_card	0.832	columbia_card_task_fmri	7.0	0.8888888888888888	89.0	-95.0	0.1111111111111111	12.0	4.0	1.0	-0.8285581944919826	0.832	n/a	stim	poldrack-single-stim	s593	False	1
436.111	2.24	438.351	-4.213529743404744	draw_card	2.24	columbia_card_task_fmri	7.0	0.875	89.0	-95.0	0.125	12.0	5.0	1.0	0.8474351232803343	2.24	n/a	stim	poldrack-single-stim	s593	False	1
438.355	0.514	438.869	-6.034958314833316	end_round	0.514	columbia_card_task_fmri	7.0	0.8571428571428572	71.0	-95.0	0.1428571428571428	12.0	6.0	1.0	2.8047528159608675	0.514	5.0	stim	poldrack-single-stim	s593	False	1
439.627	1.5	438.876	n/a	-1.0	2.318	columbia_card_task_fmri	n/a	n/a	-1.0	n/a	n/a	n/a	n/a	n/a	n/a	n/a	n/a	ITI	poldrack-single-stim	s593	False	0
441.199	1.258	442.457	0.7031369232619238	draw_card	1.258	columbia_card_task_fmri	14.0	0.8333333333333334	89.0	-75.0	0.1666666666666666	12.0	1.0	2.0	0.2830426702173909	1.258	n/a	stim	poldrack-single-stim	s593	False	1
442.461	0.616	443.077	-0.6453479252229275	draw_card	0.616	columbia_card_task_fmri	14.0	0.8181818181818181	89.0	-75.0	0.1818181818181818	12.0	2.0	2.0	1.4403219576162485	0.616	2.0	stim	poldrack-single-stim	s593	False	0
443.834	1.5	443.083	n/a	-1.0	2.25	columbia_card_task_fmri	n/a	n/a	-1.0	n/a	n/a	n/a	n/a	n/a	n/a	n/a	n/a	ITI	poldrack-single-stim	s593	False	0
445.338	2.009	447.347	2.3698035899285896	draw_card	2.009	columbia_card_task_fmri	15.0	0.8333333333333334	89.0	-70.0	0.1666666666666666	12.0	1.0	2.0	-1.205997438938514	2.009	1.0	stim	poldrack-single-stim	s593	False	0
448.101	1.5	447.35	n/a	-1.0	2.658	columbia_card_task_fmri	n/a	n/a	-1.0	n/a	n/a	n/a	n/a	n/a	n/a	n/a	n/a	ITI	poldrack-single-stim	s593	False	0
450.014	1.253	451.267	0.3364702565952566	draw_card	1.253	columbia_card_task_fmri	16.0	0.8	89.0	-70.0	0.2	15.0	1.0	3.0	1.513428811609387	1.253	n/a	stim	poldrack-single-stim	s593	False	1
451.271	0.614	451.885	-0.8921011719761729	draw_card	0.614	columbia_card_task_fmri	16.0	0.7857142857142857	89.0	-70.0	0.2142857142857142	15.0	2.0	3.0	2.400594261825198	0.614	2.0	stim	poldrack-single-stim	s593	False	0
452.64	1.5	451.889	n/a	-1.0	2.454	columbia_card_task_fmri	n/a	n/a	-1.0	n/a	n/a	n/a	n/a	n/a	n/a	n/a	n/a	ITI	poldrack-single-stim	s593	False	0
454.348	1.122	455.47	0.7239702565952559	draw_card	1.122	columbia_card_task_fmri	14.0	0.8125	89.0	-65.0	0.1875	16.0	1.0	3.0	-2.0479326866555176	1.122	n/a	stim	poldrack-single-stim	s593	False	1
455.474	1.003	456.477	-0.263529743404743	draw_card	1.003	columbia_card_task_fmri	14.0	0.8	89.0	-65.0	0.2	16.0	2.0	3.0	-1.2835357427374383	1.003	n/a	stim	poldrack-single-stim	s593	False	1
456.483	1.416	457.899	-1.3921011719761711	draw_card	1.416	columbia_card_task_fmri	14.0	0.7857142857142857	89.0	-65.0	0.2142857142857142	16.0	3.0	3.0	-0.468727763524555	1.416	n/a	stim	poldrack-single-stim	s593	False	1
457.904	3.107	461.011	-2.694298974173976	draw_card	3.107	columbia_card_task_fmri	14.0	0.7692307692307692	89.0	-65.0	0.2307692307692307	16.0	4.0	3.0	0.3992553128164502	3.107	n/a	stim	poldrack-single-stim	s593	False	1
461.015	0.849	461.864	-4.213529743404744	end_round	0.849	columbia_card_task_fmri	14.0	0.75	71.0	-65.0	0.25	16.0	5.0	3.0	1.3216245581907131	0.849	4.0	stim	poldrack-single-stim	s593	False	1
462.62	1.5	461.869	n/a	-1.0	2.386	columbia_card_task_fmri	n/a	n/a	-1.0	n/a	n/a	n/a	n/a	n/a	n/a	n/a	n/a	ITI	poldrack-single-stim	s593	False	0
464.26	1.471	465.731	0.4739702565952559	draw_card	1.471	columbia_card_task_fmri	16.0	0.8125	89.0	-75.0	0.1875	16.0	1.0	3.0	2.630776019357313	1.471	n/a	stim	poldrack-single-stim	s593	False	1
465.735	0.616	466.351	-0.6635297434047434	draw_card	0.616	columbia_card_task_fmri	16.0	0.8	89.0	-75.0	0.2	16.0	2.0	3.0	3.511546141297849	0.616	n/a	stim	poldrack-single-stim	s593	False	1
466.354	0.788	467.142	-1.9635297434047423	draw_card	0.788	columbia_card_task_fmri	16.0	0.7857142857142857	89.0	-75.0	0.2142857142857142	16.0	3.0	3.0	4.4503883568783	0.788	n/a	stim	poldrack-single-stim	s593	False	1
467.146	1.645	468.791	-3.463529743404748	draw_card	1.645	columbia_card_task_fmri	16.0	0.7692307692307692	89.0	-75.0	0.2307692307692307	16.0	4.0	3.0	5.450485941706589	1.645	n/a	stim	poldrack-single-stim	s593	False	1
468.795	0.731	469.526	-5.213529743404744	end_round	0.731	columbia_card_task_fmri	16.0	0.75	71.0	-75.0	0.25	16.0	5.0	3.0	6.513232789163709	0.731	4.0	stim	poldrack-single-stim	s593	False	1
470.283	1.5	469.532	n/a	-1.0	2.59	columbia_card_task_fmri	n/a	n/a	-1.0	n/a	n/a	n/a	n/a	n/a	n/a	n/a	n/a	ITI	poldrack-single-stim	s593	False	0
472.127	0.998	473.125	4.736470256595257	draw_card	0.998	columbia_card_task_fmri	16.0	0.8666666666666667	89.0	-80.0	0.1333333333333333	15.0	1.0	2.0	-0.2509920584318337	0.998	n/a	stim	poldrack-single-stim	s593	False	1
473.129	0.71	473.839	3.822184542309544	draw_card	0.71	columbia_card_task_fmri	16.0	0.8571428571428572	89.0	-80.0	0.1428571428571428	15.0	2.0	2.0	0.7072540337367386	0.71	n/a	stim	poldrack-single-stim	s593	False	1
473.843	0.517	474.36	2.7672394873644857	draw_card	0.517	columbia_card_task_fmri	16.0	0.8461538461538461	89.0	-80.0	0.1538461538461538	15.0	3.0	2.0	1.7501108386007758	0.517	n/a	stim	poldrack-single-stim	s593	False	1
474.364	2.612	476.976	1.5364702565952577	draw_card	2.612	columbia_card_task_fmri	16.0	0.8333333333333334	89.0	-80.0	0.1666666666666666	15.0	4.0	2.0	2.889197612196618	2.612	4.0	stim	poldrack-single-stim	s593	False	0
477.73	1.5	476.979	n/a	-1.0	2.318	columbia_card_task_fmri	n/a	n/a	-1.0	n/a	n/a	n/a	n/a	n/a	n/a	n/a	n/a	ITI	poldrack-single-stim	s593	False	0
479.302	0.954	480.256	5.603136923261924	draw_card	0.954	columbia_card_task_fmri	17.0	0.8666666666666667	89.0	-80.0	0.1333333333333333	15.0	1.0	2.0	0.0885702989547425	0.954	n/a	stim	poldrack-single-stim	s593	False	1
480.26	0.373	480.633	4.679327399452402	draw_card	0.373	columbia_card_task_fmri	17.0	0.8571428571428572	89.0	-80.0	0.1428571428571428	15.0	2.0	2.0	1.056819460246956	0.373	n/a	stim	poldrack-single-stim	s593	False	1
480.637	0.413	481.05	3.613393333518333	draw_card	0.413	columbia_card_task_fmri	17.0	0.8461538461538461	89.0	-80.0	0.1538461538461538	15.0	3.0	2.0	2.110561239592293	0.413	n/a	stim	poldrack-single-stim	s593	False	1
481.054	0.557	481.611	2.3698035899285914	draw_card	0.557	columbia_card_task_fmri	17.0	0.8333333333333334	89.0	-80.0	0.1666666666666666	15.0	4.0	2.0	3.2615359460006914	0.557	n/a	stim	poldrack-single-stim	s593	False	1
481.615	2.496	484.111	0.9001066202316175	end_round	2.496	columbia_card_task_fmri	17.0	0.8181818181818181	71.0	-80.0	0.1818181818181818	15.0	5.0	2.0	4.523046755578527	2.496	4.0	stim	poldrack-single-stim	s593	False	1
484.866	1.5	484.115	n/a	-1.0	2.59	columbia_card_task_fmri	n/a	n/a	-1.0	n/a	n/a	n/a	n/a	n/a	n/a	n/a	n/a	ITI	poldrack-single-stim	s593	False	0
486.71	1.76	488.47	1.536470256595256	draw_card	1.76	columbia_card_task_fmri	1.0	0.9375	89.0	-15.0	0.0625	16.0	1.0	1.0	-28.75424495095245	1.76	1.0	stim	poldrack-single-stim	s593	False	0
489.228	1.5	488.477	n/a	-1.0	2.386	columbia_card_task_fmri	n/a	n/a	-1.0	n/a	n/a	n/a	n/a	n/a	n/a	n/a	n/a	ITI	poldrack-single-stim	s593	False	0
490.868	2.292	493.16	4.661470256595256	draw_card	2.292	columbia_card_task_fmri	10.0	0.9375	89.0	-100.0	0.0625	16.0	1.0	1.0	-6.249813291363168	2.292	n/a	stim	poldrack-single-stim	s593	False	1
493.164	1.329	494.493	4.203136923261923	draw_card	1.329	columbia_card_task_fmri	10.0	0.9333333333333332	89.0	-100.0	0.0666666666666666	16.0	2.0	1.0	-5.439061755141776	1.329	n/a	stim	poldrack-single-stim	s593	False	1
494.497	2.234	496.731	3.6793273994524	draw_card	2.234	columbia_card_task_fmri	10.0	0.9285714285714286	89.0	-100.0	0.0714285714285714	16.0	3.0	1.0	-4.549900313881178	2.234	n/a	stim	poldrack-single-stim	s593	False	1
496.735	1.203	497.938	3.074931795056795	draw_card	1.203	columbia_card_task_fmri	10.0	0.9230769230769232	89.0	-100.0	0.0769230769230769	16.0	4.0	1.0	-3.568996061932264	1.203	n/a	stim	poldrack-single-stim	s593	False	1
497.942	1.007	498.949	2.3698035899285896	end_round	1.007	columbia_card_task_fmri	10.0	0.9166666666666666	71.0	-100.0	0.0833333333333333	16.0	5.0	1.0	-2.4796731160172847	1.007	4.0	stim	poldrack-single-stim	s593	False	1
499.705	1.5	498.954	n/a	-1.0	2.318	columbia_card_task_fmri	n/a	n/a	-1.0	n/a	n/a	n/a	n/a	n/a	n/a	n/a	n/a	ITI	poldrack-single-stim	s593	False	0
501.277	1.826	503.103	5.286470256595256	draw_card	1.826	columbia_card_task_fmri	15.0	0.875	89.0	-75.0	0.125	16.0	1.0	2.0	-3.1165346007739743	1.826	n/a	stim	poldrack-single-stim	s593	False	1
503.107	0.944	504.051	4.536470256595256	draw_card	0.944	columbia_card_task_fmri	15.0	0.8666666666666667	89.0	-75.0	0.1333333333333333	16.0	2.0	2.0	-2.288192786744492	0.944	n/a	stim	poldrack-single-stim	s593	False	1
504.055	0.954	505.009	3.6793273994524	draw_card	0.954	columbia_card_task_fmri	15.0	0.8571428571428572	89.0	-75.0	0.1428571428571428	16.0	3.0	2.0	-1.3899700286921757	0.954	n/a	stim	poldrack-single-stim	s593	False	1
505.013	0.891	505.904	2.690316410441409	draw_card	0.891	columbia_card_task_fmri	15.0	0.8461538461538461	89.0	-75.0	0.1538461538461538	16.0	4.0	2.0	-0.4124281174538922	0.891	n/a	stim	poldrack-single-stim	s593	False	1
505.908	1.169	507.077	1.536470256595256	draw_card	1.169	columbia_card_task_fmri	15.0	0.8333333333333334	89.0	-75.0	0.1666666666666666	16.0	5.0	2.0	0.655325880679527	1.169	n/a	stim	poldrack-single-stim	s593	False	1
507.081	0.935	508.016	0.1728338929588908	end_round	0.935	columbia_card_task_fmri	15.0	0.8181818181818181	71.0	-75.0	0.1818181818181818	16.0	6.0	2.0	1.825635062959428	0.935	5.0	stim	poldrack-single-stim	s593	False	1
508.774	1.5	508.023	n/a	-1.0	2.318	columbia_card_task_fmri	n/a	n/a	-1.0	n/a	n/a	n/a	n/a	n/a	n/a	n/a	n/a	ITI	poldrack-single-stim	s593	False	0
510.347	1.262	511.609	5.536470256595256	draw_card	1.262	columbia_card_task_fmri	16.0	0.875	89.0	-80.0	0.125	16.0	1.0	2.0	-1.1346950218205478	1.262	n/a	stim	poldrack-single-stim	s593	False	1
511.613	0.528	512.141	4.736470256595257	draw_card	0.528	columbia_card_task_fmri	16.0	0.8666666666666667	89.0	-80.0	0.1333333333333333	16.0	2.0	2.0	-0.2509920584318337	0.528	n/a	stim	poldrack-single-stim	s593	False	1
512.145	1.085	513.23	3.822184542309544	draw_card	1.085	columbia_card_task_fmri	16.0	0.8571428571428572	89.0	-80.0	0.1428571428571428	16.0	3.0	2.0	0.7072540337367386	1.085	n/a	stim	poldrack-single-stim	s593	False	1
513.236	1.862	515.098	2.7672394873644857	draw_card	1.862	columbia_card_task_fmri	16.0	0.8461538461538461	89.0	-80.0	0.1538461538461538	16.0	4.0	2.0	1.7501108386007758	1.862	4.0	stim	poldrack-single-stim	s593	False	0
515.856	1.5	515.105	n/a	-1.0	2.318	columbia_card_task_fmri	n/a	n/a	-1.0	n/a	n/a	n/a	n/a	n/a	n/a	n/a	n/a	ITI	poldrack-single-stim	s593	False	0
517.429	2.735	520.164	2.723970256595256	draw_card	2.735	columbia_card_task_fmri	4.0	0.6875	89.0	-5.0	0.3125	16.0	1.0	5.0	-28.47529808861715	2.735	1.0	stim	poldrack-single-stim	s593	False	0
520.921	1.5	520.17	n/a	-1.0	2.386	columbia_card_task_fmri	n/a	n/a	-1.0	n/a	n/a	n/a	n/a	n/a	n/a	n/a	n/a	ITI	poldrack-single-stim	s593	False	0
522.561	2.302	524.863	-0.1301964100714083	draw_card	2.302	columbia_card_task_fmri	14.0	0.8333333333333334	89.0	-80.0	0.1666666666666666	6.0	1.0	1.0	2.144542594483518	2.302	1.0	stim	poldrack-single-stim	s593	False	0
525.62	1.5	524.869	n/a	-1.0	2.25	columbia_card_task_fmri	n/a	n/a	-1.0	n/a	n/a	n/a	n/a	n/a	n/a	n/a	n/a	ITI	poldrack-single-stim	s593	False	0
527.124	3.948	531.072	1.536470256595256	draw_card	3.948	columbia_card_task_fmri	15.0	0.8333333333333334	89.0	-75.0	0.1666666666666666	6.0	1.0	1.0	0.655325880679527	3.948	n/a	stim	poldrack-single-stim	s593	False	1
531.076	1.13	532.206	-1.463529743404744	draw_card	1.13	columbia_card_task_fmri	15.0	0.8	89.0	-75.0	0.2	6.0	2.0	1.0	3.111905963607164	1.13	n/a	stim	poldrack-single-stim	s593	False	1
532.21	1.197	533.407	-5.963529743404744	end_round	1.197	columbia_card_task_fmri	15.0	0.75	71.0	-75.0	0.25	6.0	3.0	1.0	6.080552542660989	1.197	2.0	stim	poldrack-single-stim	s593	False	1
534.161	1.5	533.41	n/a	-1.0	2.386	columbia_card_task_fmri	n/a	n/a	-1.0	n/a	n/a	n/a	n/a	n/a	n/a	n/a	n/a	ITI	poldrack-single-stim	s593	False	0
535.801	1.538	537.339	3.203136923261924	draw_card	1.538	columbia_card_task_fmri	16.0	0.8333333333333334	89.0	-70.0	0.1666666666666666	6.0	1.0	1.0	-0.8337519670668314	1.538	n/a	stim	poldrack-single-stim	s593	False	1
537.343	0.576	537.919	0.3364702565952566	draw_card	0.576	columbia_card_task_fmri	16.0	0.8	89.0	-70.0	0.2	6.0	2.0	1.0	1.513428811609387	0.576	n/a	stim	poldrack-single-stim	s593	False	1
537.923	1.021	538.944	-3.963529743404744	draw_card	1.021	columbia_card_task_fmri	16.0	0.75	89.0	-70.0	0.25	6.0	3.0	1.0	4.34990877655688	1.021	n/a	stim	poldrack-single-stim	s593	False	1
538.948	0.716	539.664	-11.130196410071408	end_round	0.716	columbia_card_task_fmri	16.0	0.6666666666666667	71.0	-70.0	0.3333333333333333	6.0	4.0	1.0	7.649026779930132	0.716	3.0	stim	poldrack-single-stim	s593	False	1
540.421	1.5	539.67	n/a	-1.0	2.59	columbia_card_task_fmri	n/a	n/a	-1.0	n/a	n/a	n/a	n/a	n/a	n/a	n/a	n/a	ITI	poldrack-single-stim	s593	False	0
542.266	2.802	545.068	3.786470256595256	draw_card	2.802	columbia_card_task_fmri	23.0	0.75	89.0	-60.0	0.25	8.0	1.0	2.0	3.052014834364293	2.802	n/a	stim	poldrack-single-stim	s593	False	1
545.072	0.576	545.648	0.8221845423095442	draw_card	0.576	columbia_card_task_fmri	23.0	0.7142857142857143	89.0	-60.0	0.2857142857142857	8.0	2.0	2.0	4.60617783753014	0.576	n/a	stim	poldrack-single-stim	s593	False	1
545.652	0.713	546.365	-3.1301964100714086	draw_card	0.713	columbia_card_task_fmri	23.0	0.6666666666666667	89.0	-60.0	0.3333333333333333	8.0	3.0	2.0	6.235864415859766	0.713	n/a	stim	poldrack-single-stim	s593	False	1
546.369	2.736	549.105	-8.663529743404744	draw_card	2.736	columbia_card_task_fmri	23.0	0.6	89.0	-60.0	0.4	8.0	4.0	2.0	7.769681358487134	2.736	4.0	stim	poldrack-single-stim	s593	False	0
549.863	1.5	549.112	n/a	-1.0	2.658	columbia_card_task_fmri	n/a	n/a	-1.0	n/a	n/a	n/a	n/a	n/a	n/a	n/a	n/a	ITI	poldrack-single-stim	s593	False	0
551.775	1.861	553.636	4.286470256595256	draw_card	1.861	columbia_card_task_fmri	27.0	0.75	89.0	-70.0	0.25	8.0	1.0	2.0	9.10945806674252	1.861	n/a	stim	poldrack-single-stim	s593	False	1
553.641	1.07	554.711	0.8221845423095406	draw_card	1.07	columbia_card_task_fmri	27.0	0.7142857142857143	89.0	-70.0	0.2857142857142857	8.0	2.0	2.0	10.926194545478218	1.07	n/a	stim	poldrack-single-stim	s593	False	1
554.715	1.485	556.2	-3.796863076738073	draw_card	1.485	columbia_card_task_fmri	27.0	0.6666666666666667	89.0	-70.0	0.3333333333333333	8.0	3.0	2.0	12.831177902065562	1.485	3.0	stim	poldrack-single-stim	s593	False	0
556.955	1.5	556.204	n/a	-1.0	2.386	columbia_card_task_fmri	n/a	n/a	-1.0	n/a	n/a	n/a	n/a	n/a	n/a	n/a	n/a	ITI	poldrack-single-stim	s593	False	0
558.595	1.4	559.995	-0.4635297434047423	draw_card	1.4	columbia_card_task_fmri	16.0	0.7777777777777778	89.0	-65.0	0.2222222222222222	9.0	1.0	2.0	0.7890829897410612	1.4	n/a	stim	poldrack-single-stim	s593	False	1
559.999	0.607	560.606	-2.7135297434047443	draw_card	0.607	columbia_card_task_fmri	16.0	0.75	89.0	-65.0	0.25	9.0	2.0	2.0	2.186799225355351	0.607	n/a	stim	poldrack-single-stim	s593	False	1
560.61	1.135	561.745	-5.606386886261885	draw_card	1.135	columbia_card_task_fmri	16.0	0.7142857142857143	89.0	-65.0	0.2857142857142857	9.0	3.0	2.0	3.7034462230976857	1.135	n/a	stim	poldrack-single-stim	s593	False	1
561.749	1.064	562.813	-9.46352974340474	end_round	1.064	columbia_card_task_fmri	16.0	0.6666666666666667	71.0	-65.0	0.3333333333333333	9.0	4.0	2.0	5.293799381316148	1.064	3.0	stim	poldrack-single-stim	s593	False	1
563.569	1.5	562.818	n/a	-1.0	2.386	columbia_card_task_fmri	n/a	n/a	-1.0	n/a	n/a	n/a	n/a	n/a	n/a	n/a	n/a	ITI	poldrack-single-stim	s593	False	0
565.21	1.833	567.043	4.736470256595257	draw_card	1.833	columbia_card_task_fmri	13.0	0.9	89.0	-85.0	0.1	10.0	1.0	1.0	-3.4807459082139798	1.833	n/a	stim	poldrack-single-stim	s593	False	1
567.047	0.559	567.606	3.6475813677063664	draw_card	0.559	columbia_card_task_fmri	13.0	0.8888888888888888	89.0	-85.0	0.1111111111111111	10.0	2.0	1.0	-2.0841366406364656	0.559	n/a	stim	poldrack-single-stim	s593	False	1
567.61	0.75	568.36	2.286470256595256	draw_card	0.75	columbia_card_task_fmri	13.0	0.875	89.0	-85.0	0.125	10.0	3.0	1.0	-0.4740146290741336	0.75	3.0	stim	poldrack-single-stim	s593	False	0
569.119	1.5	568.368	n/a	-1.0	2.25	columbia_card_task_fmri	n/a	n/a	-1.0	n/a	n/a	n/a	n/a	n/a	n/a	n/a	n/a	ITI	poldrack-single-stim	s593	False	0
570.624	2.395	573.019	-0.263529743404743	draw_card	2.395	columbia_card_task_fmri	14.0	0.8	89.0	-65.0	0.2	10.0	1.0	2.0	-1.2835357427374383	2.395	n/a	stim	poldrack-single-stim	s593	False	1
573.023	0.832	573.855	-2.019085298960298	draw_card	0.832	columbia_card_task_fmri	14.0	0.7777777777777778	89.0	-65.0	0.2222222222222222	10.0	2.0	2.0	-0.0415104575663036	0.832	2.0	stim	poldrack-single-stim	s593	False	0
574.613	1.5	573.862	n/a	-1.0	2.318	columbia_card_task_fmri	n/a	n/a	-1.0	n/a	n/a	n/a	n/a	n/a	n/a	n/a	n/a	ITI	poldrack-single-stim	s593	False	0
576.186	0.669	576.855	1.1364702565952574	draw_card	0.669	columbia_card_task_fmri	17.0	0.8	89.0	-70.0	0.2	10.0	1.0	2.0	1.9130349906295407	0.669	n/a	stim	poldrack-single-stim	s593	False	1
576.86	3.743	580.603	-0.7968630767380762	draw_card	3.743	columbia_card_task_fmri	17.0	0.7777777777777778	89.0	-70.0	0.2222222222222222	10.0	2.0	2.0	3.2811073882311845	3.743	n/a	stim	poldrack-single-stim	s593	False	1
580.607	3.433	584.04	-3.2135297434047443	draw_card	3.433	columbia_card_task_fmri	17.0	0.75	89.0	-70.0	0.25	10.0	3.0	2.0	4.782557603415711	3.433	n/a	stim	poldrack-single-stim	s593	False	1
584.044	0.909	584.953	-6.320672600547602	end_round	0.909	columbia_card_task_fmri	17.0	0.7142857142857143	71.0	-70.0	0.2857142857142857	10.0	4.0	2.0	6.411748013122242	0.909	3.0	stim	poldrack-single-stim	s593	False	1
585.711	1.5	584.96	n/a	-1.0	2.25	columbia_card_task_fmri	n/a	n/a	-1.0	n/a	n/a	n/a	n/a	n/a	n/a	n/a	n/a	ITI	poldrack-single-stim	s593	False	0
587.215	1.802	589.017	-0.1301964100714101	draw_card	1.802	columbia_card_task_fmri	13.0	0.8333333333333334	89.0	-75.0	0.1666666666666666	12.0	1.0	2.0	-0.0892315824169784	1.802	n/a	stim	poldrack-single-stim	s593	False	1
589.021	0.662	589.683	-1.4635297434047458	draw_card	0.662	columbia_card_task_fmri	13.0	0.8181818181818181	89.0	-75.0	0.1818181818181818	12.0	2.0	2.0	1.0550175096331174	0.662	2.0	stim	poldrack-single-stim	s593	False	0
590.442	1.5	589.691	n/a	-1.0	2.25	columbia_card_task_fmri	n/a	n/a	-1.0	n/a	n/a	n/a	n/a	n/a	n/a	n/a	n/a	ITI	poldrack-single-stim	s593	False	0
591.946	0.918	592.864	1.5364702565952577	draw_card	0.918	columbia_card_task_fmri	14.0	0.8333333333333334	89.0	-70.0	0.1666666666666666	12.0	1.0	2.0	-1.5782326309592207	0.918	n/a	stim	poldrack-single-stim	s593	False	1
592.869	6.171	599.04	0.2637429838679808	draw_card	6.171	columbia_card_task_fmri	14.0	0.8181818181818181	89.0	-70.0	0.1818181818181818	12.0	2.0	2.0	-0.4861075381643189	6.171	n/a	stim	poldrack-single-stim	s593	False	1
599.044	2.292	601.336	-1.263529743404743	draw_card	2.292	columbia_card_task_fmri	14.0	0.8	89.0	-70.0	0.2	12.0	3.0	2.0	0.7142445404524835	2.292	n/a	stim	poldrack-single-stim	s593	False	1
601.341	1.103	602.444	-3.1301964100714104	end_round	1.103	columbia_card_task_fmri	14.0	0.7777777777777778	71.0	-70.0	0.2222222222222222	12.0	4.0	2.0	2.035052146876332	1.103	3.0	stim	poldrack-single-stim	s593	False	1
603.202	1.5	602.451	n/a	-1.0	2.386	columbia_card_task_fmri	n/a	n/a	-1.0	n/a	n/a	n/a	n/a	n/a	n/a	n/a	n/a	ITI	poldrack-single-stim	s593	False	0
604.842	1.686	606.528	1.5364702565952577	draw_card	1.686	columbia_card_task_fmri	16.0	0.8333333333333334	89.0	-80.0	0.1666666666666666	12.0	1.0	2.0	2.889197612196618	1.686	n/a	stim	poldrack-single-stim	s593	False	1
606.532	0.973	607.505	0.0819248020497991	draw_card	0.973	columbia_card_task_fmri	16.0	0.8181818181818181	89.0	-80.0	0.1818181818181818	12.0	2.0	2.0	4.137680376777851	0.973	n/a	stim	poldrack-single-stim	s593	False	1
607.51	1.297	608.807	-1.6635297434047434	draw_card	1.297	columbia_card_task_fmri	16.0	0.8	89.0	-80.0	0.2	12.0	3.0	2.0	5.509859333949649	1.297	n/a	stim	poldrack-single-stim	s593	False	1
608.811	0.98	609.791	-3.796863076738078	end_round	0.98	columbia_card_task_fmri	16.0	0.7777777777777778	71.0	-80.0	0.2222222222222222	12.0	4.0	2.0	7.019709045948865	0.98	3.0	stim	poldrack-single-stim	s593	False	1
610.547	1.5	609.796	n/a	-1.0	2.386	columbia_card_task_fmri	n/a	n/a	-1.0	n/a	n/a	n/a	n/a	n/a	n/a	n/a	n/a	ITI	poldrack-single-stim	s593	False	0
612.188	1.702	613.89	1.3364702565952566	draw_card	1.702	columbia_card_task_fmri	16.0	0.8	89.0	-65.0	0.2	15.0	1.0	3.0	-0.4844564589962132	1.702	n/a	stim	poldrack-single-stim	s593	False	1
613.895	0.603	614.498	0.1793273994524	draw_card	0.603	columbia_card_task_fmri	16.0	0.7857142857142857	89.0	-65.0	0.2142857142857142	15.0	2.0	3.0	0.3510264198083561	0.603	n/a	stim	poldrack-single-stim	s593	False	1
614.502	2.056	616.558	-1.1558374357124377	draw_card	2.056	columbia_card_task_fmri	16.0	0.7692307692307692	89.0	-65.0	0.2307692307692307	15.0	3.0	3.0	1.2410311374828922	2.056	n/a	stim	poldrack-single-stim	s593	False	1
616.563	1.994	618.557	-2.7135297434047443	end_round	1.994	columbia_card_task_fmri	16.0	0.75	71.0	-65.0	0.25	15.0	4.0	3.0	2.186799225355351	1.994	3.0	stim	poldrack-single-stim	s593	False	1
619.314	1.5	618.563	n/a	-1.0	2.726	columbia_card_task_fmri	n/a	n/a	-1.0	n/a	n/a	n/a	n/a	n/a	n/a	n/a	n/a	ITI	poldrack-single-stim	s593	False	0
621.294	1.409	622.703	-0.338529743404744	draw_card	1.409	columbia_card_task_fmri	15.0	0.8125	89.0	-75.0	0.1875	16.0	1.0	3.0	2.2408323726250217	1.409	n/a	stim	poldrack-single-stim	s593	False	1
622.708	0.558	623.266	-1.463529743404744	draw_card	0.558	columbia_card_task_fmri	15.0	0.8	89.0	-75.0	0.2	16.0	2.0	3.0	3.111905963607164	0.558	n/a	stim	poldrack-single-stim	s593	False	1
623.272	2.081	625.353	-2.749244029119029	draw_card	2.081	columbia_card_task_fmri	15.0	0.7857142857142857	89.0	-75.0	0.2142857142857142	16.0	3.0	3.0	4.040413244406835	2.081	n/a	stim	poldrack-single-stim	s593	False	1
625.357	1.988	627.345	-4.232760512635518	draw_card	1.988	columbia_card_task_fmri	15.0	0.7692307692307692	89.0	-75.0	0.2307692307692307	16.0	4.0	3.0	5.029502553125681	1.988	n/a	stim	poldrack-single-stim	s593	False	1
627.35	0.946	628.296	-5.963529743404744	end_round	0.946	columbia_card_task_fmri	15.0	0.75	71.0	-75.0	0.25	16.0	5.0	3.0	6.080552542660989	0.946	4.0	stim	poldrack-single-stim	s593	False	1
629.051	1.5	628.3	n/a	-1.0	2.454	columbia_card_task_fmri	n/a	n/a	-1.0	n/a	n/a	n/a	n/a	n/a	n/a	n/a	n/a	ITI	poldrack-single-stim	s593	False	0
630.76	2.704	633.464	0.2239702565952559	draw_card	2.704	columbia_card_task_fmri	14.0	0.6875	89.0	-35.0	0.3125	16.0	1.0	5.0	-10.156847668339156	2.704	n/a	stim	poldrack-single-stim	s593	False	1
633.469	3.352	636.821	-0.7968630767380762	end_round	3.352	columbia_card_task_fmri	14.0	0.6666666666666667	71.0	-35.0	0.3333333333333333	16.0	2.0	5.0	-9.771001173298828	3.352	1.0	stim	poldrack-single-stim	s593	False	1
637.581	1.5	636.83	n/a	-1.0	2.318	columbia_card_task_fmri	n/a	n/a	-1.0	n/a	n/a	n/a	n/a	n/a	n/a	n/a	n/a	ITI	poldrack-single-stim	s593	False	0
639.155	1.976	641.131	5.403136923261923	draw_card	1.976	columbia_card_task_fmri	16.0	0.8666666666666667	89.0	-75.0	0.1333333333333333	15.0	1.0	2.0	-1.9486813347176408	1.976	n/a	stim	poldrack-single-stim	s593	False	1
641.135	0.622	641.757	4.5364702565952575	draw_card	0.622	columbia_card_task_fmri	16.0	0.8571428571428572	89.0	-75.0	0.1428571428571428	15.0	2.0	2.0	-1.0404540636632549	0.622	n/a	stim	poldrack-single-stim	s593	False	1
641.762	1.775	643.537	3.536470256595256	draw_card	1.775	columbia_card_task_fmri	16.0	0.8461538461538461	89.0	-75.0	0.1538461538461538	15.0	3.0	2.0	-0.052025696666881	1.775	3.0	stim	poldrack-single-stim	s593	False	0
644.294	1.5	643.543	n/a	-1.0	2.318	columbia_card_task_fmri	n/a	n/a	-1.0	n/a	n/a	n/a	n/a	n/a	n/a	n/a	n/a	ITI	poldrack-single-stim	s593	False	0
645.868	1.356	647.224	6.069803589928589	draw_card	1.356	columbia_card_task_fmri	16.0	0.8666666666666667	89.0	-70.0	0.1333333333333333	15.0	1.0	2.0	-3.6461403770333543	1.356	n/a	stim	poldrack-single-stim	s593	False	1
647.229	0.552	647.781	5.250755970880971	draw_card	0.552	columbia_card_task_fmri	16.0	0.8571428571428572	89.0	-70.0	0.1428571428571428	15.0	2.0	2.0	-2.7879384549256585	0.552	2.0	stim	poldrack-single-stim	s593	False	0
648.539	1.5	647.788	n/a	-1.0	2.59	columbia_card_task_fmri	n/a	n/a	-1.0	n/a	n/a	n/a	n/a	n/a	n/a	n/a	n/a	ITI	poldrack-single-stim	s593	False	0
650.384	0.68	651.064	3.411470256595256	draw_card	0.68	columbia_card_task_fmri	8.0	0.9375	89.0	-90.0	0.0625	16.0	1.0	1.0	-9.149137845237057	0.68	n/a	stim	poldrack-single-stim	s593	False	1
651.069	3.221	654.29	3.0031369232619225	draw_card	3.221	columbia_card_task_fmri	8.0	0.9333333333333332	89.0	-90.0	0.0666666666666666	16.0	2.0	1.0	-8.427134047240912	3.221	n/a	stim	poldrack-single-stim	s593	False	1
654.295	1.207	655.502	2.5364702565952566	draw_card	1.207	columbia_card_task_fmri	8.0	0.9285714285714286	89.0	-90.0	0.0714285714285714	16.0	3.0	1.0	-7.635283529486173	1.207	n/a	stim	poldrack-single-stim	s593	False	1
655.508	2.009	657.517	1.9980087181337176	draw_card	2.009	columbia_card_task_fmri	8.0	0.9230769230769232	89.0	-90.0	0.0769230769230769	16.0	4.0	1.0	-6.761708765802954	2.009	n/a	stim	poldrack-single-stim	s593	False	1
657.522	0.799	658.321	1.369803589928589	end_round	0.799	columbia_card_task_fmri	8.0	0.9166666666666666	71.0	-90.0	0.0833333333333333	16.0	5.0	1.0	-5.791554077490741	0.799	4.0	stim	poldrack-single-stim	s593	False	1
659.08	1.5	658.329	n/a	-1.0	2.726	columbia_card_task_fmri	n/a	n/a	-1.0	n/a	n/a	n/a	n/a	n/a	n/a	n/a	n/a	ITI	poldrack-single-stim	s593	False	0
661.061	15.144	676.205	4.973970256595256	draw_card	15.144	columbia_card_task_fmri	10.0	0.9375	89.0	-95.0	0.0625	16.0	1.0	1.0	-7.458015134421661	15.144	n/a	stim	poldrack-single-stim	s593	False	1
676.211	3.46	679.671	4.536470256595257	draw_card	3.46	columbia_card_task_fmri	10.0	0.9333333333333332	89.0	-95.0	0.0666666666666666	16.0	2.0	1.0	-6.684237431959513	3.46	n/a	stim	poldrack-single-stim	s593	False	1
679.677	1.313	680.99	4.036470256595257	draw_card	1.313	columbia_card_task_fmri	10.0	0.9285714285714286	89.0	-95.0	0.0714285714285714	16.0	3.0	1.0	-5.835617679107109	1.313	n/a	stim	poldrack-single-stim	s593	False	1
680.996	1.155	682.151	3.459547179672179	draw_card	1.155	columbia_card_task_fmri	10.0	0.9230769230769232	89.0	-95.0	0.0769230769230769	16.0	4.0	1.0	-4.899429365340705	1.155	n/a	stim	poldrack-single-stim	s593	False	1
682.157	1.138	683.295	2.786470256595256	draw_card	1.138	columbia_card_task_fmri	10.0	0.9166666666666666	89.0	-95.0	0.0833333333333333	16.0	5.0	1.0	-3.8597550109518473	1.138	n/a	stim	poldrack-single-stim	s593	False	1
683.3	0.875	684.175	1.9910157111407087	end_round	0.875	columbia_card_task_fmri	10.0	0.9090909090909092	71.0	-95.0	0.0909090909090909	16.0	6.0	1.0	-2.6964107699753512	0.875	5.0	stim	poldrack-single-stim	s593	False	1
684.931	1.5	684.18	n/a	-1.0	2.522	columbia_card_task_fmri	n/a	n/a	-1.0	n/a	n/a	n/a	n/a	n/a	n/a	n/a	n/a	ITI	poldrack-single-stim	s593	False	0
