duration	onset	block_duration	movement_onset	planning	condition	exp_stage	experiment_exp_id	key_press	problem_id	response_time	trial_id	trial_type	worker_id	junk
3.392	3.013	3.392	6.405	1	UA_with_intermediate	practice	ward_and_allport	71	0.0	3.392	to_hand	poldrack-single-stim	s594	False
0.1	6.407	0.72	7.127	0	UA_with_intermediate	practice	ward_and_allport	82	0.0	0.72	to_board	poldrack-single-stim	s594	False
0.1	7.13	0.523	7.653	0	UA_with_intermediate	practice	ward_and_allport	71	0.0	0.523	to_hand	poldrack-single-stim	s594	False
0.1	7.654	0.346	8.0	0	UA_with_intermediate	practice	ward_and_allport	89	0.0	0.346	to_board	poldrack-single-stim	s594	False
0.1	8.002	0.523	8.525	0	UA_with_intermediate	practice	ward_and_allport	82	0.0	0.523	to_hand	poldrack-single-stim	s594	False
0.1	8.526	0.312	8.838	0	UA_with_intermediate	practice	ward_and_allport	89	0.0	0.312	to_board	poldrack-single-stim	s594	False
1.0	8.843	2.5	8.842	0	UA_with_intermediate	practice	ward_and_allport	-1	0.0	n/a	feedback	poldrack-single-stim	s594	False
2.569	11.346	2.569	13.915	1	UA_with_intermediate	practice	ward_and_allport	71	1.0	2.569	to_hand	poldrack-single-stim	s594	False
0.1	13.917	1.127	15.044	0	UA_with_intermediate	practice	ward_and_allport	71	1.0	1.127	to_board	poldrack-single-stim	s594	False
0.1	15.047	0.331	15.378	0	UA_with_intermediate	practice	ward_and_allport	89	1.0	0.331	to_hand	poldrack-single-stim	s594	False
0.1	15.378	0.403	15.781	0	UA_with_intermediate	practice	ward_and_allport	82	1.0	0.403	to_board	poldrack-single-stim	s594	False
0.1	15.783	0.473	16.256	0	UA_with_intermediate	practice	ward_and_allport	71	1.0	0.473	to_hand	poldrack-single-stim	s594	False
0.1	16.258	0.326	16.584	0	UA_with_intermediate	practice	ward_and_allport	89	1.0	0.326	to_board	poldrack-single-stim	s594	False
0.1	16.586	0.393	16.979	0	UA_with_intermediate	practice	ward_and_allport	82	1.0	0.393	to_hand	poldrack-single-stim	s594	False
0.1	16.98	0.254	17.234	0	UA_with_intermediate	practice	ward_and_allport	89	1.0	0.254	to_board	poldrack-single-stim	s594	False
1.0	17.238	2.1	17.237	0	UA_with_intermediate	practice	ward_and_allport	-1	1.0	n/a	feedback	poldrack-single-stim	s594	False
2.027	19.34	2.027	21.367	1	UA_without_intermediate	practice	ward_and_allport	82	2.0	2.027	to_hand	poldrack-single-stim	s594	False
0.1	21.369	0.396	21.765	0	UA_without_intermediate	practice	ward_and_allport	89	2.0	0.396	to_board	poldrack-single-stim	s594	False
0.1	21.768	0.349	22.117	0	UA_without_intermediate	practice	ward_and_allport	71	2.0	0.349	to_hand	poldrack-single-stim	s594	False
0.1	22.118	0.302	22.42	0	UA_without_intermediate	practice	ward_and_allport	89	2.0	0.302	to_board	poldrack-single-stim	s594	False
0.1	22.422	0.987	23.409	0	UA_without_intermediate	practice	ward_and_allport	71	2.0	0.987	to_hand	poldrack-single-stim	s594	False
0.1	23.411	0.268	23.679	0	UA_without_intermediate	practice	ward_and_allport	89	2.0	0.268	to_board	poldrack-single-stim	s594	False
1.0	23.683	2.2	23.682	0	UA_without_intermediate	practice	ward_and_allport	-1	2.0	n/a	feedback	poldrack-single-stim	s594	False
1.432	25.884	1.432	27.316	1	UA_without_intermediate	practice	ward_and_allport	71	3.0	1.432	to_hand	poldrack-single-stim	s594	False
0.1	27.317	0.529	27.846	0	UA_without_intermediate	practice	ward_and_allport	89	3.0	0.529	to_board	poldrack-single-stim	s594	False
0.1	27.849	0.496	28.345	0	UA_without_intermediate	practice	ward_and_allport	82	3.0	0.496	to_hand	poldrack-single-stim	s594	False
0.1	28.345	0.361	28.706	0	UA_without_intermediate	practice	ward_and_allport	89	3.0	0.361	to_board	poldrack-single-stim	s594	False
0.1	28.709	0.308	29.017	0	UA_without_intermediate	practice	ward_and_allport	71	3.0	0.308	to_hand	poldrack-single-stim	s594	False
0.1	29.017	0.271	29.288	0	UA_without_intermediate	practice	ward_and_allport	89	3.0	0.271	to_board	poldrack-single-stim	s594	False
1.0	29.291	2.0	29.29	0	UA_without_intermediate	practice	ward_and_allport	-1	3.0	n/a	feedback	poldrack-single-stim	s594	False
5.21	33.297	5.21	38.507	1	PA_with_intermediate	test	ward_and_allport	71	0.0	5.21	to_hand	poldrack-single-stim	s594	False
0.1	38.508	0.676	39.184	0	PA_with_intermediate	test	ward_and_allport	89	0.0	0.676	to_board	poldrack-single-stim	s594	False
0.1	39.187	0.337	39.524	0	PA_with_intermediate	test	ward_and_allport	71	0.0	0.337	to_hand	poldrack-single-stim	s594	False
0.1	39.524	0.589	40.113	0	PA_with_intermediate	test	ward_and_allport	82	0.0	0.589	to_board	poldrack-single-stim	s594	False
0.1	40.116	1.939	42.055	0	PA_with_intermediate	test	ward_and_allport	89	0.0	1.939	to_hand	poldrack-single-stim	s594	False
0.1	42.056	0.789	42.845	0	PA_with_intermediate	test	ward_and_allport	82	0.0	0.789	to_board	poldrack-single-stim	s594	False
0.1	42.849	0.611	43.46	0	PA_with_intermediate	test	ward_and_allport	71	0.0	0.611	to_hand	poldrack-single-stim	s594	False
0.1	43.461	0.346	43.807	0	PA_with_intermediate	test	ward_and_allport	89	0.0	0.346	to_board	poldrack-single-stim	s594	False
0.1	43.81	0.718	44.528	0	PA_with_intermediate	test	ward_and_allport	82	0.0	0.718	to_hand	poldrack-single-stim	s594	False
0.1	44.529	2.88	47.409	0	PA_with_intermediate	test	ward_and_allport	82	0.0	2.88	to_board	poldrack-single-stim	s594	False
0.1	47.412	0.464	47.876	0	PA_with_intermediate	test	ward_and_allport	89	0.0	0.464	to_hand	poldrack-single-stim	s594	False
0.1	47.877	0.305	48.182	0	PA_with_intermediate	test	ward_and_allport	71	0.0	0.305	to_board	poldrack-single-stim	s594	False
0.1	48.185	0.415	48.6	0	PA_with_intermediate	test	ward_and_allport	82	0.0	0.415	to_hand	poldrack-single-stim	s594	False
0.1	48.602	0.694	49.296	0	PA_with_intermediate	test	ward_and_allport	71	0.0	0.694	to_board	poldrack-single-stim	s594	False
1.0	49.299	2.408	49.298	0	PA_with_intermediate	test	ward_and_allport	-1	0.0	n/a	feedback	poldrack-single-stim	s594	False
1.947	51.709	1.947	53.656	1	PA_without_intermediate	test	ward_and_allport	82	1.0	1.947	to_hand	poldrack-single-stim	s594	False
0.1	53.657	0.378	54.035	0	PA_without_intermediate	test	ward_and_allport	89	1.0	0.378	to_board	poldrack-single-stim	s594	False
0.1	54.039	0.645	54.684	0	PA_without_intermediate	test	ward_and_allport	82	1.0	0.645	to_hand	poldrack-single-stim	s594	False
0.1	54.685	0.345	55.03	0	PA_without_intermediate	test	ward_and_allport	71	1.0	0.345	to_board	poldrack-single-stim	s594	False
0.1	55.032	0.298	55.33	0	PA_without_intermediate	test	ward_and_allport	82	1.0	0.298	to_hand	poldrack-single-stim	s594	False
0.1	55.331	0.268	55.599	0	PA_without_intermediate	test	ward_and_allport	89	1.0	0.268	to_board	poldrack-single-stim	s594	False
1.0	55.603	2.68	55.602	0	PA_without_intermediate	test	ward_and_allport	-1	1.0	n/a	feedback	poldrack-single-stim	s594	False
3.27	58.287	3.27	61.557	1	PA_with_intermediate	test	ward_and_allport	71	2.0	3.27	to_hand	poldrack-single-stim	s594	False
0.1	61.558	0.47	62.028	0	PA_with_intermediate	test	ward_and_allport	89	2.0	0.47	to_board	poldrack-single-stim	s594	False
0.1	62.031	0.404	62.435	0	PA_with_intermediate	test	ward_and_allport	71	2.0	0.404	to_hand	poldrack-single-stim	s594	False
0.1	62.436	0.352	62.788	0	PA_with_intermediate	test	ward_and_allport	82	2.0	0.352	to_board	poldrack-single-stim	s594	False
0.1	62.791	0.318	63.109	0	PA_with_intermediate	test	ward_and_allport	89	2.0	0.318	to_hand	poldrack-single-stim	s594	False
0.1	63.11	0.275	63.385	0	PA_with_intermediate	test	ward_and_allport	82	2.0	0.275	to_board	poldrack-single-stim	s594	False
1.0	63.39	4.72	63.389	0	PA_with_intermediate	test	ward_and_allport	-1	2.0	n/a	feedback	poldrack-single-stim	s594	False
1.812	68.113	1.812	69.925	1	PA_without_intermediate	test	ward_and_allport	71	3.0	1.812	to_hand	poldrack-single-stim	s594	False
0.1	69.927	0.34	70.267	0	PA_without_intermediate	test	ward_and_allport	89	3.0	0.34	to_board	poldrack-single-stim	s594	False
0.1	70.27	0.32	70.59	0	PA_without_intermediate	test	ward_and_allport	71	3.0	0.32	to_hand	poldrack-single-stim	s594	False
0.1	70.591	0.284	70.875	0	PA_without_intermediate	test	ward_and_allport	82	3.0	0.284	to_board	poldrack-single-stim	s594	False
0.1	70.878	0.332	71.21	0	PA_without_intermediate	test	ward_and_allport	71	3.0	0.332	to_hand	poldrack-single-stim	s594	False
0.1	71.211	0.253	71.464	0	PA_without_intermediate	test	ward_and_allport	89	3.0	0.253	to_board	poldrack-single-stim	s594	False
1.0	71.47	3.224	71.469	0	PA_without_intermediate	test	ward_and_allport	-1	3.0	n/a	feedback	poldrack-single-stim	s594	False
1.912	74.697	1.912	76.609	1	PA_without_intermediate	test	ward_and_allport	82	4.0	1.912	to_hand	poldrack-single-stim	s594	False
0.1	76.61	0.361	76.971	0	PA_without_intermediate	test	ward_and_allport	71	4.0	0.361	to_board	poldrack-single-stim	s594	False
0.1	76.975	0.468	77.443	0	PA_without_intermediate	test	ward_and_allport	82	4.0	0.468	to_hand	poldrack-single-stim	s594	False
0.1	77.445	0.355	77.8	0	PA_without_intermediate	test	ward_and_allport	71	4.0	0.355	to_board	poldrack-single-stim	s594	False
0.1	77.804	0.314	78.118	0	PA_without_intermediate	test	ward_and_allport	82	4.0	0.314	to_hand	poldrack-single-stim	s594	False
0.1	78.119	0.288	78.407	0	PA_without_intermediate	test	ward_and_allport	89	4.0	0.288	to_board	poldrack-single-stim	s594	False
1.0	78.414	2.272	78.413	0	PA_without_intermediate	test	ward_and_allport	-1	4.0	n/a	feedback	poldrack-single-stim	s594	False
2.992	80.689	2.992	83.681	1	PA_with_intermediate	test	ward_and_allport	89	5.0	2.992	to_hand	poldrack-single-stim	s594	False
0.1	83.682	0.529	84.211	0	PA_with_intermediate	test	ward_and_allport	82	5.0	0.529	to_board	poldrack-single-stim	s594	False
0.1	84.215	0.809	85.024	0	PA_with_intermediate	test	ward_and_allport	89	5.0	0.809	to_hand	poldrack-single-stim	s594	False
0.1	85.026	0.36	85.386	0	PA_with_intermediate	test	ward_and_allport	71	5.0	0.36	to_board	poldrack-single-stim	s594	False
0.1	85.388	0.405	85.793	0	PA_with_intermediate	test	ward_and_allport	82	5.0	0.405	to_hand	poldrack-single-stim	s594	False
0.1	85.795	0.383	86.178	0	PA_with_intermediate	test	ward_and_allport	89	5.0	0.383	to_board	poldrack-single-stim	s594	False
1.0	86.183	3.632	86.182	0	PA_with_intermediate	test	ward_and_allport	-1	5.0	n/a	feedback	poldrack-single-stim	s594	False
1.429	89.819	1.429	91.248	1	PA_without_intermediate	test	ward_and_allport	82	6.0	1.429	to_hand	poldrack-single-stim	s594	False
0.1	91.249	0.37	91.619	0	PA_without_intermediate	test	ward_and_allport	89	6.0	0.37	to_board	poldrack-single-stim	s594	False
0.1	91.624	0.356	91.98	0	PA_without_intermediate	test	ward_and_allport	82	6.0	0.356	to_hand	poldrack-single-stim	s594	False
0.1	91.981	0.299	92.28	0	PA_without_intermediate	test	ward_and_allport	89	6.0	0.299	to_board	poldrack-single-stim	s594	False
0.1	92.284	0.371	92.655	0	PA_without_intermediate	test	ward_and_allport	82	6.0	0.371	to_hand	poldrack-single-stim	s594	False
0.1	92.656	0.262	92.918	0	PA_without_intermediate	test	ward_and_allport	71	6.0	0.262	to_board	poldrack-single-stim	s594	False
1.0	92.922	2.408	92.921	0	PA_without_intermediate	test	ward_and_allport	-1	6.0	n/a	feedback	poldrack-single-stim	s594	False
1.416	95.335	1.416	96.751	1	PA_without_intermediate	test	ward_and_allport	71	7.0	1.416	to_hand	poldrack-single-stim	s594	False
0.1	96.753	0.508	97.261	0	PA_without_intermediate	test	ward_and_allport	82	7.0	0.508	to_board	poldrack-single-stim	s594	False
0.1	97.265	0.43	97.695	0	PA_without_intermediate	test	ward_and_allport	71	7.0	0.43	to_hand	poldrack-single-stim	s594	False
0.1	97.696	0.284	97.98	0	PA_without_intermediate	test	ward_and_allport	89	7.0	0.284	to_board	poldrack-single-stim	s594	False
0.1	97.985	0.318	98.303	0	PA_without_intermediate	test	ward_and_allport	71	7.0	0.318	to_hand	poldrack-single-stim	s594	False
0.1	98.304	0.256	98.56	0	PA_without_intermediate	test	ward_and_allport	82	7.0	0.256	to_board	poldrack-single-stim	s594	False
1.0	98.567	2.0	98.566	0	PA_without_intermediate	test	ward_and_allport	-1	7.0	n/a	feedback	poldrack-single-stim	s594	False
2.825	100.571	2.825	103.396	1	PA_with_intermediate	test	ward_and_allport	89	8.0	2.825	to_hand	poldrack-single-stim	s594	False
0.1	103.398	0.453	103.851	0	PA_with_intermediate	test	ward_and_allport	82	8.0	0.453	to_board	poldrack-single-stim	s594	False
0.1	103.856	0.414	104.27	0	PA_with_intermediate	test	ward_and_allport	89	8.0	0.414	to_hand	poldrack-single-stim	s594	False
0.1	104.272	0.805	105.077	0	PA_with_intermediate	test	ward_and_allport	71	8.0	0.805	to_board	poldrack-single-stim	s594	False
0.1	105.082	0.372	105.454	0	PA_with_intermediate	test	ward_and_allport	82	8.0	0.372	to_hand	poldrack-single-stim	s594	False
0.1	105.456	0.336	105.792	0	PA_with_intermediate	test	ward_and_allport	71	8.0	0.336	to_board	poldrack-single-stim	s594	False
1.0	105.8	2.0	105.799	0	PA_with_intermediate	test	ward_and_allport	-1	8.0	n/a	feedback	poldrack-single-stim	s594	False
2.835	107.804	2.835	110.639	1	PA_with_intermediate	test	ward_and_allport	71	9.0	2.835	to_hand	poldrack-single-stim	s594	False
0.1	110.639	0.314	110.953	0	PA_with_intermediate	test	ward_and_allport	89	9.0	0.314	to_board	poldrack-single-stim	s594	False
0.1	110.958	0.327	111.285	0	PA_with_intermediate	test	ward_and_allport	71	9.0	0.327	to_hand	poldrack-single-stim	s594	False
0.1	111.286	0.248	111.534	0	PA_with_intermediate	test	ward_and_allport	82	9.0	0.248	to_board	poldrack-single-stim	s594	False
0.1	111.538	0.294	111.832	0	PA_with_intermediate	test	ward_and_allport	89	9.0	0.294	to_hand	poldrack-single-stim	s594	False
0.1	111.834	0.414	112.248	0	PA_with_intermediate	test	ward_and_allport	71	9.0	0.414	to_board	poldrack-single-stim	s594	False
1.0	112.255	2.0	112.254	0	PA_with_intermediate	test	ward_and_allport	-1	9.0	n/a	feedback	poldrack-single-stim	s594	False
2.295	114.26	2.295	116.555	1	PA_with_intermediate	test	ward_and_allport	82	10.0	2.295	to_hand	poldrack-single-stim	s594	False
0.1	116.557	0.368	116.925	0	PA_with_intermediate	test	ward_and_allport	89	10.0	0.368	to_board	poldrack-single-stim	s594	False
0.1	116.929	0.301	117.23	0	PA_with_intermediate	test	ward_and_allport	82	10.0	0.301	to_hand	poldrack-single-stim	s594	False
0.1	117.23	0.293	117.523	0	PA_with_intermediate	test	ward_and_allport	71	10.0	0.293	to_board	poldrack-single-stim	s594	False
0.1	117.528	0.257	117.785	0	PA_with_intermediate	test	ward_and_allport	89	10.0	0.257	to_hand	poldrack-single-stim	s594	False
0.1	117.786	0.284	118.07	0	PA_with_intermediate	test	ward_and_allport	71	10.0	0.284	to_board	poldrack-single-stim	s594	False
1.0	118.08	2.408	118.079	0	PA_with_intermediate	test	ward_and_allport	-1	10.0	n/a	feedback	poldrack-single-stim	s594	False
1.263	120.494	1.263	121.757	1	PA_without_intermediate	test	ward_and_allport	82	11.0	1.263	to_hand	poldrack-single-stim	s594	False
0.1	121.758	0.351	122.109	0	PA_without_intermediate	test	ward_and_allport	89	11.0	0.351	to_board	poldrack-single-stim	s594	False
0.1	122.114	0.67	122.784	0	PA_without_intermediate	test	ward_and_allport	82	11.0	0.67	to_hand	poldrack-single-stim	s594	False
0.1	122.785	0.372	123.157	0	PA_without_intermediate	test	ward_and_allport	89	11.0	0.372	to_board	poldrack-single-stim	s594	False
0.1	123.162	0.412	123.574	0	PA_without_intermediate	test	ward_and_allport	82	11.0	0.412	to_hand	poldrack-single-stim	s594	False
0.1	123.575	0.313	123.888	0	PA_without_intermediate	test	ward_and_allport	71	11.0	0.313	to_board	poldrack-single-stim	s594	False
1.0	123.896	2.816	123.895	0	PA_without_intermediate	test	ward_and_allport	-1	11.0	n/a	feedback	poldrack-single-stim	s594	False
2.362	126.717	2.362	129.079	1	PA_with_intermediate	test	ward_and_allport	82	12.0	2.362	to_hand	poldrack-single-stim	s594	False
0.1	129.08	0.406	129.486	0	PA_with_intermediate	test	ward_and_allport	89	12.0	0.406	to_board	poldrack-single-stim	s594	False
0.1	129.492	0.415	129.907	0	PA_with_intermediate	test	ward_and_allport	82	12.0	0.415	to_hand	poldrack-single-stim	s594	False
0.1	129.909	0.35	130.259	0	PA_with_intermediate	test	ward_and_allport	71	12.0	0.35	to_board	poldrack-single-stim	s594	False
0.1	130.264	0.819	131.083	0	PA_with_intermediate	test	ward_and_allport	89	12.0	0.819	to_hand	poldrack-single-stim	s594	False
0.1	131.085	0.288	131.373	0	PA_with_intermediate	test	ward_and_allport	82	12.0	0.288	to_board	poldrack-single-stim	s594	False
1.0	131.379	4.176	131.378	0	PA_with_intermediate	test	ward_and_allport	-1	12.0	n/a	feedback	poldrack-single-stim	s594	False
1.901	135.56	1.901	137.461	1	PA_with_intermediate	test	ward_and_allport	82	13.0	1.901	to_hand	poldrack-single-stim	s594	False
0.1	137.462	0.435	137.897	0	PA_with_intermediate	test	ward_and_allport	89	13.0	0.435	to_board	poldrack-single-stim	s594	False
0.1	137.902	0.293	138.195	0	PA_with_intermediate	test	ward_and_allport	82	13.0	0.293	to_hand	poldrack-single-stim	s594	False
0.1	138.197	0.309	138.506	0	PA_with_intermediate	test	ward_and_allport	71	13.0	0.309	to_board	poldrack-single-stim	s594	False
0.1	138.511	0.341	138.852	0	PA_with_intermediate	test	ward_and_allport	89	13.0	0.341	to_hand	poldrack-single-stim	s594	False
0.1	138.854	0.257	139.111	0	PA_with_intermediate	test	ward_and_allport	82	13.0	0.257	to_board	poldrack-single-stim	s594	False
1.0	139.118	3.36	139.117	0	PA_with_intermediate	test	ward_and_allport	-1	13.0	n/a	feedback	poldrack-single-stim	s594	False
2.72	142.484	2.72	145.204	1	PA_with_intermediate	test	ward_and_allport	89	14.0	2.72	to_hand	poldrack-single-stim	s594	False
0.1	145.204	0.337	145.541	0	PA_with_intermediate	test	ward_and_allport	71	14.0	0.337	to_board	poldrack-single-stim	s594	False
0.1	145.546	0.296	145.842	0	PA_with_intermediate	test	ward_and_allport	89	14.0	0.296	to_hand	poldrack-single-stim	s594	False
0.1	145.843	0.301	146.144	0	PA_with_intermediate	test	ward_and_allport	82	14.0	0.301	to_board	poldrack-single-stim	s594	False
0.1	146.15	0.777	146.927	0	PA_with_intermediate	test	ward_and_allport	71	14.0	0.777	to_hand	poldrack-single-stim	s594	False
0.1	146.928	0.239	147.167	0	PA_with_intermediate	test	ward_and_allport	89	14.0	0.239	to_board	poldrack-single-stim	s594	False
1.0	147.172	2.0	147.171	0	PA_with_intermediate	test	ward_and_allport	-1	14.0	n/a	feedback	poldrack-single-stim	s594	False
2.325	154.18	2.325	156.505	1	PA_without_intermediate	test	ward_and_allport	82	15.0	2.325	to_hand	poldrack-single-stim	s594	False
0.1	156.507	0.369	156.876	0	PA_without_intermediate	test	ward_and_allport	71	15.0	0.369	to_board	poldrack-single-stim	s594	False
0.1	156.882	0.323	157.205	0	PA_without_intermediate	test	ward_and_allport	82	15.0	0.323	to_hand	poldrack-single-stim	s594	False
0.1	157.206	0.268	157.474	0	PA_without_intermediate	test	ward_and_allport	89	15.0	0.268	to_board	poldrack-single-stim	s594	False
0.1	157.479	0.314	157.793	0	PA_without_intermediate	test	ward_and_allport	82	15.0	0.314	to_hand	poldrack-single-stim	s594	False
0.1	157.794	0.259	158.053	0	PA_without_intermediate	test	ward_and_allport	71	15.0	0.259	to_board	poldrack-single-stim	s594	False
1.0	158.059	2.408	158.058	0	PA_without_intermediate	test	ward_and_allport	-1	15.0	n/a	feedback	poldrack-single-stim	s594	False
1.314	160.474	1.314	161.788	1	PA_with_intermediate	test	ward_and_allport	89	16.0	1.314	to_hand	poldrack-single-stim	s594	False
0.1	161.789	0.414	162.203	0	PA_with_intermediate	test	ward_and_allport	71	16.0	0.414	to_board	poldrack-single-stim	s594	False
0.1	162.208	0.45	162.658	0	PA_with_intermediate	test	ward_and_allport	89	16.0	0.45	to_hand	poldrack-single-stim	s594	False
0.1	162.66	0.257	162.917	0	PA_with_intermediate	test	ward_and_allport	82	16.0	0.257	to_board	poldrack-single-stim	s594	False
0.1	162.923	0.262	163.185	0	PA_with_intermediate	test	ward_and_allport	71	16.0	0.262	to_hand	poldrack-single-stim	s594	False
0.1	163.187	0.302	163.489	0	PA_with_intermediate	test	ward_and_allport	82	16.0	0.302	to_board	poldrack-single-stim	s594	False
1.0	163.498	2.816	163.497	0	PA_with_intermediate	test	ward_and_allport	-1	16.0	n/a	feedback	poldrack-single-stim	s594	False
1.074	166.32	1.074	167.394	1	PA_without_intermediate	test	ward_and_allport	71	17.0	1.074	to_hand	poldrack-single-stim	s594	False
0.1	167.395	0.393	167.788	0	PA_without_intermediate	test	ward_and_allport	89	17.0	0.393	to_board	poldrack-single-stim	s594	False
0.1	167.794	0.263	168.057	0	PA_without_intermediate	test	ward_and_allport	71	17.0	0.263	to_hand	poldrack-single-stim	s594	False
0.1	168.059	0.258	168.317	0	PA_without_intermediate	test	ward_and_allport	89	17.0	0.258	to_board	poldrack-single-stim	s594	False
0.1	168.322	0.238	168.56	0	PA_without_intermediate	test	ward_and_allport	71	17.0	0.238	to_hand	poldrack-single-stim	s594	False
0.1	168.561	0.264	168.825	0	PA_without_intermediate	test	ward_and_allport	82	17.0	0.264	to_board	poldrack-single-stim	s594	False
1.0	168.831	3.088	168.83	0	PA_without_intermediate	test	ward_and_allport	-1	17.0	n/a	feedback	poldrack-single-stim	s594	False
1.122	171.924	1.122	173.046	1	PA_without_intermediate	test	ward_and_allport	71	18.0	1.122	to_hand	poldrack-single-stim	s594	False
0.1	173.048	0.354	173.402	0	PA_without_intermediate	test	ward_and_allport	82	18.0	0.354	to_board	poldrack-single-stim	s594	False
0.1	173.406	0.276	173.682	0	PA_without_intermediate	test	ward_and_allport	71	18.0	0.276	to_hand	poldrack-single-stim	s594	False
0.1	173.684	0.274	173.958	0	PA_without_intermediate	test	ward_and_allport	82	18.0	0.274	to_board	poldrack-single-stim	s594	False
0.1	173.964	0.255	174.219	0	PA_without_intermediate	test	ward_and_allport	71	18.0	0.255	to_hand	poldrack-single-stim	s594	False
0.1	174.219	0.276	174.495	0	PA_without_intermediate	test	ward_and_allport	89	18.0	0.276	to_board	poldrack-single-stim	s594	False
1.0	174.503	2.136	174.502	0	PA_without_intermediate	test	ward_and_allport	-1	18.0	n/a	feedback	poldrack-single-stim	s594	False
0.938	176.645	0.938	177.583	1	PA_without_intermediate	test	ward_and_allport	89	19.0	0.938	to_hand	poldrack-single-stim	s594	False
0.1	177.584	0.338	177.922	0	PA_without_intermediate	test	ward_and_allport	82	19.0	0.338	to_board	poldrack-single-stim	s594	False
0.1	177.927	0.341	178.268	0	PA_without_intermediate	test	ward_and_allport	89	19.0	0.341	to_hand	poldrack-single-stim	s594	False
0.1	178.269	0.953	179.222	0	PA_without_intermediate	test	ward_and_allport	82	19.0	0.953	to_board	poldrack-single-stim	s594	False
0.1	179.228	0.599	179.827	0	PA_without_intermediate	test	ward_and_allport	89	19.0	0.599	to_hand	poldrack-single-stim	s594	False
0.1	179.828	0.278	180.106	0	PA_without_intermediate	test	ward_and_allport	71	19.0	0.278	to_board	poldrack-single-stim	s594	False
1.0	180.113	7.168	180.112	0	PA_without_intermediate	test	ward_and_allport	-1	19.0	n/a	feedback	poldrack-single-stim	s594	False
1.203	187.287	1.203	188.49	1	PA_without_intermediate	test	ward_and_allport	89	20.0	1.203	to_hand	poldrack-single-stim	s594	False
0.1	188.492	0.308	188.8	0	PA_without_intermediate	test	ward_and_allport	71	20.0	0.308	to_board	poldrack-single-stim	s594	False
0.1	188.806	0.381	189.187	0	PA_without_intermediate	test	ward_and_allport	89	20.0	0.381	to_hand	poldrack-single-stim	s594	False
0.1	189.189	0.271	189.46	0	PA_without_intermediate	test	ward_and_allport	82	20.0	0.271	to_board	poldrack-single-stim	s594	False
0.1	189.466	0.314	189.78	0	PA_without_intermediate	test	ward_and_allport	89	20.0	0.314	to_hand	poldrack-single-stim	s594	False
0.1	189.782	0.226	190.008	0	PA_without_intermediate	test	ward_and_allport	71	20.0	0.226	to_board	poldrack-single-stim	s594	False
1.0	190.016	2.816	190.015	0	PA_without_intermediate	test	ward_and_allport	-1	20.0	n/a	feedback	poldrack-single-stim	s594	False
1.765	192.838	1.765	194.603	1	PA_with_intermediate	test	ward_and_allport	82	21.0	1.765	to_hand	poldrack-single-stim	s594	False
0.1	194.605	0.395	195.0	0	PA_with_intermediate	test	ward_and_allport	71	21.0	0.395	to_board	poldrack-single-stim	s594	False
0.1	195.006	0.771	195.777	0	PA_with_intermediate	test	ward_and_allport	82	21.0	0.771	to_hand	poldrack-single-stim	s594	False
0.1	195.778	0.323	196.101	0	PA_with_intermediate	test	ward_and_allport	89	21.0	0.323	to_board	poldrack-single-stim	s594	False
0.1	196.108	0.434	196.542	0	PA_with_intermediate	test	ward_and_allport	71	21.0	0.434	to_hand	poldrack-single-stim	s594	False
0.1	196.543	0.295	196.838	0	PA_with_intermediate	test	ward_and_allport	89	21.0	0.295	to_board	poldrack-single-stim	s594	False
1.0	196.851	2.952	196.85	0	PA_with_intermediate	test	ward_and_allport	-1	21.0	n/a	feedback	poldrack-single-stim	s594	False
1.837	199.81	1.837	201.647	1	PA_with_intermediate	test	ward_and_allport	71	22.0	1.837	to_hand	poldrack-single-stim	s594	False
0.1	201.648	0.589	202.237	0	PA_with_intermediate	test	ward_and_allport	82	22.0	0.589	to_board	poldrack-single-stim	s594	False
0.1	202.244	0.357	202.601	0	PA_with_intermediate	test	ward_and_allport	71	22.0	0.357	to_hand	poldrack-single-stim	s594	False
0.1	202.603	0.331	202.934	0	PA_with_intermediate	test	ward_and_allport	89	22.0	0.331	to_board	poldrack-single-stim	s594	False
0.1	202.94	0.384	203.324	0	PA_with_intermediate	test	ward_and_allport	82	22.0	0.384	to_hand	poldrack-single-stim	s594	False
0.1	203.325	0.333	203.658	0	PA_with_intermediate	test	ward_and_allport	71	22.0	0.333	to_board	poldrack-single-stim	s594	False
1.0	203.669	2.136	203.668	0	PA_with_intermediate	test	ward_and_allport	-1	22.0	n/a	feedback	poldrack-single-stim	s594	False
0.865	205.813	0.865	206.678	1	PA_without_intermediate	test	ward_and_allport	82	23.0	0.865	to_hand	poldrack-single-stim	s594	False
0.1	206.679	0.322	207.001	0	PA_without_intermediate	test	ward_and_allport	89	23.0	0.322	to_board	poldrack-single-stim	s594	False
0.1	207.008	0.478	207.486	0	PA_without_intermediate	test	ward_and_allport	82	23.0	0.478	to_hand	poldrack-single-stim	s594	False
0.1	207.488	0.289	207.777	0	PA_without_intermediate	test	ward_and_allport	71	23.0	0.289	to_board	poldrack-single-stim	s594	False
0.1	207.784	0.292	208.076	0	PA_without_intermediate	test	ward_and_allport	82	23.0	0.292	to_hand	poldrack-single-stim	s594	False
0.1	208.077	0.239	208.316	0	PA_without_intermediate	test	ward_and_allport	89	23.0	0.239	to_board	poldrack-single-stim	s594	False
1.0	208.326	2.68	208.325	0	PA_without_intermediate	test	ward_and_allport	-1	23.0	n/a	feedback	poldrack-single-stim	s594	False
0.919	211.011	0.919	211.93	1	PA_without_intermediate	test	ward_and_allport	89	24.0	0.919	to_hand	poldrack-single-stim	s594	False
0.1	211.931	0.245	212.176	0	PA_without_intermediate	test	ward_and_allport	71	24.0	0.245	to_board	poldrack-single-stim	s594	False
0.1	212.183	0.447	212.63	0	PA_without_intermediate	test	ward_and_allport	89	24.0	0.447	to_hand	poldrack-single-stim	s594	False
0.1	212.631	0.268	212.899	0	PA_without_intermediate	test	ward_and_allport	71	24.0	0.268	to_board	poldrack-single-stim	s594	False
0.1	212.906	0.267	213.173	0	PA_without_intermediate	test	ward_and_allport	89	24.0	0.267	to_hand	poldrack-single-stim	s594	False
0.1	213.174	0.231	213.405	0	PA_without_intermediate	test	ward_and_allport	82	24.0	0.231	to_board	poldrack-single-stim	s594	False
1.0	213.417	3.088	213.416	0	PA_without_intermediate	test	ward_and_allport	-1	24.0	n/a	feedback	poldrack-single-stim	s594	False
1.595	216.514	1.595	218.109	1	PA_with_intermediate	test	ward_and_allport	71	25.0	1.595	to_hand	poldrack-single-stim	s594	False
0.1	218.111	0.674	218.785	0	PA_with_intermediate	test	ward_and_allport	82	25.0	0.674	to_board	poldrack-single-stim	s594	False
0.1	218.794	0.441	219.235	0	PA_with_intermediate	test	ward_and_allport	71	25.0	0.441	to_hand	poldrack-single-stim	s594	False
0.1	219.236	0.268	219.504	0	PA_with_intermediate	test	ward_and_allport	89	25.0	0.268	to_board	poldrack-single-stim	s594	False
0.1	219.513	0.3	219.813	0	PA_with_intermediate	test	ward_and_allport	82	25.0	0.3	to_hand	poldrack-single-stim	s594	False
0.1	219.814	0.304	220.118	0	PA_with_intermediate	test	ward_and_allport	89	25.0	0.304	to_board	poldrack-single-stim	s594	False
1.0	220.129	2.0	220.128	0	PA_with_intermediate	test	ward_and_allport	-1	25.0	n/a	feedback	poldrack-single-stim	s594	False
0.868	222.136	0.868	223.004	1	PA_without_intermediate	test	ward_and_allport	71	26.0	0.868	to_hand	poldrack-single-stim	s594	False
0.1	223.006	0.464	223.47	0	PA_without_intermediate	test	ward_and_allport	82	26.0	0.464	to_board	poldrack-single-stim	s594	False
0.1	223.479	0.356	223.835	0	PA_without_intermediate	test	ward_and_allport	71	26.0	0.356	to_hand	poldrack-single-stim	s594	False
0.1	223.837	0.262	224.099	0	PA_without_intermediate	test	ward_and_allport	89	26.0	0.262	to_board	poldrack-single-stim	s594	False
0.1	224.108	0.265	224.373	0	PA_without_intermediate	test	ward_and_allport	71	26.0	0.265	to_hand	poldrack-single-stim	s594	False
0.1	224.375	0.26	224.635	0	PA_without_intermediate	test	ward_and_allport	82	26.0	0.26	to_board	poldrack-single-stim	s594	False
1.0	224.642	2.0	224.641	0	PA_without_intermediate	test	ward_and_allport	-1	26.0	n/a	feedback	poldrack-single-stim	s594	False
0.938	226.648	0.938	227.586	1	PA_without_intermediate	test	ward_and_allport	89	27.0	0.938	to_hand	poldrack-single-stim	s594	False
0.1	227.587	0.347	227.934	0	PA_without_intermediate	test	ward_and_allport	82	27.0	0.347	to_board	poldrack-single-stim	s594	False
0.1	227.941	0.431	228.372	0	PA_without_intermediate	test	ward_and_allport	89	27.0	0.431	to_hand	poldrack-single-stim	s594	False
0.1	228.373	0.29	228.663	0	PA_without_intermediate	test	ward_and_allport	71	27.0	0.29	to_board	poldrack-single-stim	s594	False
0.1	228.67	0.243	228.913	0	PA_without_intermediate	test	ward_and_allport	89	27.0	0.243	to_hand	poldrack-single-stim	s594	False
0.1	228.914	0.226	229.14	0	PA_without_intermediate	test	ward_and_allport	82	27.0	0.226	to_board	poldrack-single-stim	s594	False
1.0	229.148	2.0	229.147	0	PA_without_intermediate	test	ward_and_allport	-1	27.0	n/a	feedback	poldrack-single-stim	s594	False
0.913	231.154	0.913	232.067	1	PA_with_intermediate	test	ward_and_allport	89	28.0	0.913	to_hand	poldrack-single-stim	s594	False
0.1	232.068	0.546	232.614	0	PA_with_intermediate	test	ward_and_allport	71	28.0	0.546	to_board	poldrack-single-stim	s594	False
0.1	232.621	0.402	233.023	0	PA_with_intermediate	test	ward_and_allport	89	28.0	0.402	to_hand	poldrack-single-stim	s594	False
0.1	233.024	0.307	233.331	0	PA_with_intermediate	test	ward_and_allport	82	28.0	0.307	to_board	poldrack-single-stim	s594	False
0.1	233.339	0.274	233.613	0	PA_with_intermediate	test	ward_and_allport	71	28.0	0.274	to_hand	poldrack-single-stim	s594	False
0.1	233.614	0.27	233.884	0	PA_with_intermediate	test	ward_and_allport	82	28.0	0.27	to_board	poldrack-single-stim	s594	False
1.0	233.895	2.544	233.894	0	PA_with_intermediate	test	ward_and_allport	-1	28.0	n/a	feedback	poldrack-single-stim	s594	False
0.894	236.446	0.894	237.34	1	PA_without_intermediate	test	ward_and_allport	82	29.0	0.894	to_hand	poldrack-single-stim	s594	False
0.1	237.341	0.286	237.627	0	PA_without_intermediate	test	ward_and_allport	71	29.0	0.286	to_board	poldrack-single-stim	s594	False
0.1	237.633	0.275	237.908	0	PA_without_intermediate	test	ward_and_allport	82	29.0	0.275	to_hand	poldrack-single-stim	s594	False
0.1	237.909	0.216	238.125	0	PA_without_intermediate	test	ward_and_allport	71	29.0	0.216	to_board	poldrack-single-stim	s594	False
0.1	238.131	0.429	238.56	0	PA_without_intermediate	test	ward_and_allport	82	29.0	0.429	to_hand	poldrack-single-stim	s594	False
0.1	238.56	0.256	238.816	0	PA_without_intermediate	test	ward_and_allport	89	29.0	0.256	to_board	poldrack-single-stim	s594	False
1.0	238.828	2.272	238.827	0	PA_without_intermediate	test	ward_and_allport	-1	29.0	n/a	feedback	poldrack-single-stim	s594	False
1.039	246.11	1.039	247.149	1	PA_with_intermediate	test	ward_and_allport	82	30.0	1.039	to_hand	poldrack-single-stim	s594	False
0.1	247.15	1.159	248.309	0	PA_with_intermediate	test	ward_and_allport	89	30.0	1.159	to_board	poldrack-single-stim	s594	False
0.1	248.318	0.43	248.748	0	PA_with_intermediate	test	ward_and_allport	82	30.0	0.43	to_hand	poldrack-single-stim	s594	False
0.1	248.75	0.289	249.039	0	PA_with_intermediate	test	ward_and_allport	71	30.0	0.289	to_board	poldrack-single-stim	s594	False
0.1	249.049	0.242	249.291	0	PA_with_intermediate	test	ward_and_allport	89	30.0	0.242	to_hand	poldrack-single-stim	s594	False
0.1	249.293	0.228	249.521	0	PA_with_intermediate	test	ward_and_allport	71	30.0	0.228	to_board	poldrack-single-stim	s594	False
1.0	249.535	4.04	249.534	0	PA_with_intermediate	test	ward_and_allport	-1	30.0	n/a	feedback	poldrack-single-stim	s594	False
1.826	253.586	1.826	255.412	1	PA_with_intermediate	test	ward_and_allport	71	31.0	1.826	to_hand	poldrack-single-stim	s594	False
0.1	255.413	0.811	256.224	0	PA_with_intermediate	test	ward_and_allport	82	31.0	0.811	to_board	poldrack-single-stim	s594	False
0.1	256.231	0.256	256.487	0	PA_with_intermediate	test	ward_and_allport	71	31.0	0.256	to_hand	poldrack-single-stim	s594	False
0.1	256.489	0.248	256.737	0	PA_with_intermediate	test	ward_and_allport	89	31.0	0.248	to_board	poldrack-single-stim	s594	False
0.1	256.745	0.248	256.993	0	PA_with_intermediate	test	ward_and_allport	82	31.0	0.248	to_hand	poldrack-single-stim	s594	False
0.1	256.994	0.503	257.497	0	PA_with_intermediate	test	ward_and_allport	89	31.0	0.503	to_board	poldrack-single-stim	s594	False
1.0	257.509	2.272	257.508	0	PA_with_intermediate	test	ward_and_allport	-1	31.0	n/a	feedback	poldrack-single-stim	s594	False
1.877	259.791	1.877	261.668	1	PA_with_intermediate	test	ward_and_allport	82	32.0	1.877	to_hand	poldrack-single-stim	s594	False
0.1	261.669	0.62	262.289	0	PA_with_intermediate	test	ward_and_allport	71	32.0	0.62	to_board	poldrack-single-stim	s594	False
0.1	262.296	0.275	262.571	0	PA_with_intermediate	test	ward_and_allport	82	32.0	0.275	to_hand	poldrack-single-stim	s594	False
0.1	262.572	0.332	262.904	0	PA_with_intermediate	test	ward_and_allport	89	32.0	0.332	to_board	poldrack-single-stim	s594	False
0.1	262.912	0.371	263.283	0	PA_with_intermediate	test	ward_and_allport	71	32.0	0.371	to_hand	poldrack-single-stim	s594	False
0.1	263.284	0.244	263.528	0	PA_with_intermediate	test	ward_and_allport	82	32.0	0.244	to_board	poldrack-single-stim	s594	False
1.0	263.536	2.136	263.535	0	PA_with_intermediate	test	ward_and_allport	-1	32.0	n/a	feedback	poldrack-single-stim	s594	False
1.38	265.678	1.38	267.058	1	PA_with_intermediate	test	ward_and_allport	71	33.0	1.38	to_hand	poldrack-single-stim	s594	False
0.1	267.059	0.47	267.529	0	PA_with_intermediate	test	ward_and_allport	89	33.0	0.47	to_board	poldrack-single-stim	s594	False
0.1	267.536	0.334	267.87	0	PA_with_intermediate	test	ward_and_allport	71	33.0	0.334	to_hand	poldrack-single-stim	s594	False
0.1	267.871	0.256	268.127	0	PA_with_intermediate	test	ward_and_allport	82	33.0	0.256	to_board	poldrack-single-stim	s594	False
0.1	268.134	0.255	268.389	0	PA_with_intermediate	test	ward_and_allport	89	33.0	0.255	to_hand	poldrack-single-stim	s594	False
0.1	268.39	0.23	268.62	0	PA_with_intermediate	test	ward_and_allport	82	33.0	0.23	to_board	poldrack-single-stim	s594	False
1.0	268.626	2.0	268.625	0	PA_with_intermediate	test	ward_and_allport	-1	33.0	n/a	feedback	poldrack-single-stim	s594	False
1.552	270.633	1.552	272.185	1	PA_with_intermediate	test	ward_and_allport	89	34.0	1.552	to_hand	poldrack-single-stim	s594	False
0.1	272.186	0.937	273.123	0	PA_with_intermediate	test	ward_and_allport	82	34.0	0.937	to_board	poldrack-single-stim	s594	False
0.1	273.13	0.242	273.372	0	PA_with_intermediate	test	ward_and_allport	89	34.0	0.242	to_hand	poldrack-single-stim	s594	False
0.1	273.373	0.28	273.653	0	PA_with_intermediate	test	ward_and_allport	71	34.0	0.28	to_board	poldrack-single-stim	s594	False
0.1	273.66	0.294	273.954	0	PA_with_intermediate	test	ward_and_allport	82	34.0	0.294	to_hand	poldrack-single-stim	s594	False
0.1	273.955	0.234	274.189	0	PA_with_intermediate	test	ward_and_allport	89	34.0	0.234	to_board	poldrack-single-stim	s594	False
1.0	274.2	2.0	274.199	0	PA_with_intermediate	test	ward_and_allport	-1	34.0	n/a	feedback	poldrack-single-stim	s594	False
1.11	276.209	1.11	277.319	1	PA_without_intermediate	test	ward_and_allport	71	35.0	1.11	to_hand	poldrack-single-stim	s594	False
0.1	277.32	0.275	277.595	0	PA_without_intermediate	test	ward_and_allport	82	35.0	0.275	to_board	poldrack-single-stim	s594	False
0.1	277.603	0.291	277.894	0	PA_without_intermediate	test	ward_and_allport	71	35.0	0.291	to_hand	poldrack-single-stim	s594	False
0.1	277.895	0.257	278.152	0	PA_without_intermediate	test	ward_and_allport	82	35.0	0.257	to_board	poldrack-single-stim	s594	False
0.1	278.16	0.266	278.426	0	PA_without_intermediate	test	ward_and_allport	71	35.0	0.266	to_hand	poldrack-single-stim	s594	False
0.1	278.427	0.253	278.68	0	PA_without_intermediate	test	ward_and_allport	89	35.0	0.253	to_board	poldrack-single-stim	s594	False
1.0	278.69	2.408	278.689	0	PA_without_intermediate	test	ward_and_allport	-1	35.0	n/a	feedback	poldrack-single-stim	s594	False
1.112	281.105	1.112	282.217	1	PA_with_intermediate	test	ward_and_allport	89	36.0	1.112	to_hand	poldrack-single-stim	s594	False
0.1	282.218	0.808	283.026	0	PA_with_intermediate	test	ward_and_allport	71	36.0	0.808	to_board	poldrack-single-stim	s594	False
0.1	283.034	0.263	283.297	0	PA_with_intermediate	test	ward_and_allport	89	36.0	0.263	to_hand	poldrack-single-stim	s594	False
0.1	283.298	0.737	284.035	0	PA_with_intermediate	test	ward_and_allport	82	36.0	0.737	to_board	poldrack-single-stim	s594	False
0.1	284.042	0.389	284.431	0	PA_with_intermediate	test	ward_and_allport	71	36.0	0.389	to_hand	poldrack-single-stim	s594	False
0.1	284.432	1.083	285.515	0	PA_with_intermediate	test	ward_and_allport	89	36.0	1.083	to_board	poldrack-single-stim	s594	False
1.0	285.531	3.768	285.53	0	PA_with_intermediate	test	ward_and_allport	-1	36.0	n/a	feedback	poldrack-single-stim	s594	False
1.336	289.311	1.336	290.647	1	PA_with_intermediate	test	ward_and_allport	89	37.0	1.336	to_hand	poldrack-single-stim	s594	False
0.1	290.648	0.537	291.185	0	PA_with_intermediate	test	ward_and_allport	82	37.0	0.537	to_board	poldrack-single-stim	s594	False
0.1	291.198	0.855	292.053	0	PA_with_intermediate	test	ward_and_allport	89	37.0	0.855	to_hand	poldrack-single-stim	s594	False
0.1	292.054	0.363	292.417	0	PA_with_intermediate	test	ward_and_allport	71	37.0	0.363	to_board	poldrack-single-stim	s594	False
0.1	292.425	0.321	292.746	0	PA_with_intermediate	test	ward_and_allport	82	37.0	0.321	to_hand	poldrack-single-stim	s594	False
0.1	292.748	0.233	292.981	0	PA_with_intermediate	test	ward_and_allport	71	37.0	0.233	to_board	poldrack-single-stim	s594	False
1.0	292.993	2.68	292.992	0	PA_with_intermediate	test	ward_and_allport	-1	37.0	n/a	feedback	poldrack-single-stim	s594	False
0.933	295.681	0.933	296.614	1	PA_without_intermediate	test	ward_and_allport	71	38.0	0.933	to_hand	poldrack-single-stim	s594	False
0.1	296.615	0.241	296.856	0	PA_without_intermediate	test	ward_and_allport	89	38.0	0.241	to_board	poldrack-single-stim	s594	False
0.1	296.864	0.24	297.104	0	PA_without_intermediate	test	ward_and_allport	71	38.0	0.24	to_hand	poldrack-single-stim	s594	False
0.1	297.105	0.222	297.327	0	PA_without_intermediate	test	ward_and_allport	89	38.0	0.222	to_board	poldrack-single-stim	s594	False
0.1	297.335	0.436	297.771	0	PA_without_intermediate	test	ward_and_allport	71	38.0	0.436	to_hand	poldrack-single-stim	s594	False
0.1	297.772	0.246	298.018	0	PA_without_intermediate	test	ward_and_allport	82	38.0	0.246	to_board	poldrack-single-stim	s594	False
1.0	298.026	3.224	298.025	0	PA_without_intermediate	test	ward_and_allport	-1	38.0	n/a	feedback	poldrack-single-stim	s594	False
1.143	301.259	1.143	302.402	1	PA_without_intermediate	test	ward_and_allport	89	39.0	1.143	to_hand	poldrack-single-stim	s594	False
0.1	302.403	0.351	302.754	0	PA_without_intermediate	test	ward_and_allport	82	39.0	0.351	to_board	poldrack-single-stim	s594	False
0.1	302.762	0.557	303.319	0	PA_without_intermediate	test	ward_and_allport	89	39.0	0.557	to_hand	poldrack-single-stim	s594	False
0.1	303.32	0.254	303.574	0	PA_without_intermediate	test	ward_and_allport	82	39.0	0.254	to_board	poldrack-single-stim	s594	False
0.1	303.587	0.342	303.929	0	PA_without_intermediate	test	ward_and_allport	89	39.0	0.342	to_hand	poldrack-single-stim	s594	False
0.1	303.93	0.193	304.123	0	PA_without_intermediate	test	ward_and_allport	71	39.0	0.193	to_board	poldrack-single-stim	s594	False
1.0	304.137	3.36	304.136	0	PA_without_intermediate	test	ward_and_allport	-1	39.0	n/a	feedback	poldrack-single-stim	s594	False
0.832	307.506	0.832	308.338	1	PA_without_intermediate	test	ward_and_allport	82	40.0	0.832	to_hand	poldrack-single-stim	s594	False
0.1	308.339	0.303	308.642	0	PA_without_intermediate	test	ward_and_allport	71	40.0	0.303	to_board	poldrack-single-stim	s594	False
0.1	308.652	0.304	308.956	0	PA_without_intermediate	test	ward_and_allport	82	40.0	0.304	to_hand	poldrack-single-stim	s594	False
0.1	308.957	0.261	309.218	0	PA_without_intermediate	test	ward_and_allport	89	40.0	0.261	to_board	poldrack-single-stim	s594	False
0.1	309.226	0.536	309.762	0	PA_without_intermediate	test	ward_and_allport	82	40.0	0.536	to_hand	poldrack-single-stim	s594	False
0.1	309.763	0.329	310.092	0	PA_without_intermediate	test	ward_and_allport	71	40.0	0.329	to_board	poldrack-single-stim	s594	False
1.0	310.103	2.0	310.102	0	PA_without_intermediate	test	ward_and_allport	-1	40.0	n/a	feedback	poldrack-single-stim	s594	False
1.084	312.11	1.084	313.194	1	PA_without_intermediate	test	ward_and_allport	71	41.0	1.084	to_hand	poldrack-single-stim	s594	False
0.1	313.195	0.308	313.503	0	PA_without_intermediate	test	ward_and_allport	89	41.0	0.308	to_board	poldrack-single-stim	s594	False
0.1	313.511	0.33	313.841	0	PA_without_intermediate	test	ward_and_allport	71	41.0	0.33	to_hand	poldrack-single-stim	s594	False
0.1	313.842	0.25	314.092	0	PA_without_intermediate	test	ward_and_allport	82	41.0	0.25	to_board	poldrack-single-stim	s594	False
0.1	314.101	0.269	314.37	0	PA_without_intermediate	test	ward_and_allport	71	41.0	0.269	to_hand	poldrack-single-stim	s594	False
0.1	314.371	0.342	314.713	0	PA_without_intermediate	test	ward_and_allport	89	41.0	0.342	to_board	poldrack-single-stim	s594	False
1.0	314.727	2.408	314.726	0	PA_without_intermediate	test	ward_and_allport	-1	41.0	n/a	feedback	poldrack-single-stim	s594	False
0.744	317.142	0.744	317.886	1	PA_with_intermediate	test	ward_and_allport	82	42.0	0.744	to_hand	poldrack-single-stim	s594	False
0.1	317.887	0.582	318.469	0	PA_with_intermediate	test	ward_and_allport	71	42.0	0.582	to_board	poldrack-single-stim	s594	False
0.1	318.478	0.706	319.184	0	PA_with_intermediate	test	ward_and_allport	82	42.0	0.706	to_hand	poldrack-single-stim	s594	False
0.1	319.185	0.451	319.636	0	PA_with_intermediate	test	ward_and_allport	89	42.0	0.451	to_board	poldrack-single-stim	s594	False
0.1	319.643	0.305	319.948	0	PA_with_intermediate	test	ward_and_allport	71	42.0	0.305	to_hand	poldrack-single-stim	s594	False
0.1	319.949	0.308	320.257	0	PA_with_intermediate	test	ward_and_allport	89	42.0	0.308	to_board	poldrack-single-stim	s594	False
1.0	320.268	2.136	320.267	0	PA_with_intermediate	test	ward_and_allport	-1	42.0	n/a	feedback	poldrack-single-stim	s594	False
0.963	322.413	0.963	323.376	1	PA_without_intermediate	test	ward_and_allport	89	43.0	0.963	to_hand	poldrack-single-stim	s594	False
0.1	323.377	0.521	323.898	0	PA_without_intermediate	test	ward_and_allport	82	43.0	0.521	to_board	poldrack-single-stim	s594	False
0.1	323.907	0.485	324.392	0	PA_without_intermediate	test	ward_and_allport	89	43.0	0.485	to_hand	poldrack-single-stim	s594	False
0.1	324.394	0.269	324.663	0	PA_without_intermediate	test	ward_and_allport	71	43.0	0.269	to_board	poldrack-single-stim	s594	False
0.1	324.671	0.264	324.935	0	PA_without_intermediate	test	ward_and_allport	89	43.0	0.264	to_hand	poldrack-single-stim	s594	False
0.1	324.936	0.317	325.253	0	PA_without_intermediate	test	ward_and_allport	82	43.0	0.317	to_board	poldrack-single-stim	s594	False
1.0	325.265	5.128	325.264	0	PA_without_intermediate	test	ward_and_allport	-1	43.0	n/a	feedback	poldrack-single-stim	s594	False
1.129	330.403	1.129	331.532	1	PA_without_intermediate	test	ward_and_allport	89	44.0	1.129	to_hand	poldrack-single-stim	s594	False
0.1	331.533	0.327	331.86	0	PA_without_intermediate	test	ward_and_allport	71	44.0	0.327	to_board	poldrack-single-stim	s594	False
0.1	331.872	0.297	332.169	0	PA_without_intermediate	test	ward_and_allport	89	44.0	0.297	to_hand	poldrack-single-stim	s594	False
0.1	332.17	0.285	332.455	0	PA_without_intermediate	test	ward_and_allport	82	44.0	0.285	to_board	poldrack-single-stim	s594	False
0.1	332.469	0.317	332.786	0	PA_without_intermediate	test	ward_and_allport	89	44.0	0.317	to_hand	poldrack-single-stim	s594	False
0.1	332.787	0.26	333.047	0	PA_without_intermediate	test	ward_and_allport	71	44.0	0.26	to_board	poldrack-single-stim	s594	False
1.0	333.063	2.136	333.062	0	PA_without_intermediate	test	ward_and_allport	-1	44.0	n/a	feedback	poldrack-single-stim	s594	False
0.944	340.214	0.944	341.158	1	PA_without_intermediate	test	ward_and_allport	89	45.0	0.944	to_hand	poldrack-single-stim	s594	False
0.1	341.16	0.272	341.432	0	PA_without_intermediate	test	ward_and_allport	71	45.0	0.272	to_board	poldrack-single-stim	s594	False
0.1	341.444	0.257	341.701	0	PA_without_intermediate	test	ward_and_allport	89	45.0	0.257	to_hand	poldrack-single-stim	s594	False
0.1	341.703	0.226	341.929	0	PA_without_intermediate	test	ward_and_allport	71	45.0	0.226	to_board	poldrack-single-stim	s594	False
0.1	341.943	0.213	342.156	0	PA_without_intermediate	test	ward_and_allport	89	45.0	0.213	to_hand	poldrack-single-stim	s594	False
0.1	342.158	0.236	342.394	0	PA_without_intermediate	test	ward_and_allport	82	45.0	0.236	to_board	poldrack-single-stim	s594	False
1.0	342.411	5.264	342.41	0	PA_without_intermediate	test	ward_and_allport	-1	45.0	n/a	feedback	poldrack-single-stim	s594	False
1.465	347.687	1.465	349.152	1	PA_with_intermediate	test	ward_and_allport	71	46.0	1.465	to_hand	poldrack-single-stim	s594	False
0.1	349.153	0.328	349.481	0	PA_with_intermediate	test	ward_and_allport	82	46.0	0.328	to_board	poldrack-single-stim	s594	False
0.1	349.494	0.461	349.955	0	PA_with_intermediate	test	ward_and_allport	71	46.0	0.461	to_hand	poldrack-single-stim	s594	False
0.1	349.957	0.261	350.218	0	PA_with_intermediate	test	ward_and_allport	89	46.0	0.261	to_board	poldrack-single-stim	s594	False
0.1	350.232	0.619	350.851	0	PA_with_intermediate	test	ward_and_allport	82	46.0	0.619	to_hand	poldrack-single-stim	s594	False
0.1	350.852	0.313	351.165	0	PA_with_intermediate	test	ward_and_allport	71	46.0	0.313	to_board	poldrack-single-stim	s594	False
1.0	351.176	4.04	351.175	0	PA_with_intermediate	test	ward_and_allport	-1	46.0	n/a	feedback	poldrack-single-stim	s594	False
1.406	355.227	1.406	356.633	1	PA_with_intermediate	test	ward_and_allport	82	47.0	1.406	to_hand	poldrack-single-stim	s594	False
0.1	356.634	0.357	356.991	0	PA_with_intermediate	test	ward_and_allport	71	47.0	0.357	to_board	poldrack-single-stim	s594	False
0.1	357.004	0.235	357.239	0	PA_with_intermediate	test	ward_and_allport	82	47.0	0.235	to_hand	poldrack-single-stim	s594	False
0.1	357.24	0.221	357.461	0	PA_with_intermediate	test	ward_and_allport	89	47.0	0.221	to_board	poldrack-single-stim	s594	False
0.1	357.475	0.254	357.729	0	PA_with_intermediate	test	ward_and_allport	71	47.0	0.254	to_hand	poldrack-single-stim	s594	False
0.1	357.73	0.255	357.985	0	PA_with_intermediate	test	ward_and_allport	82	47.0	0.255	to_board	poldrack-single-stim	s594	False
1.0	357.998	2.136	357.997	0	PA_with_intermediate	test	ward_and_allport	-1	47.0	n/a	feedback	poldrack-single-stim	s594	False
