onset	duration	movement_onset	EV	action	block_duration	experiment_exp_id	gain_amount	gain_probability	key_press	loss_amount	loss_probability	num_cards	num_click_in_round	num_loss_cards	risk	response_time	total_cards	trial_id	trial_type	worker_id	junk	feedback
3.014	2.295	5.309	-0.6669777068505882	draw_card	2.295	columbia_card_task_fmri	12.0	0.8333333333333334	89.0	-70.0	0.1666666666666666	6.0	1.0	1.0	-1.087933313213764	2.295	1.0	stim	poldrack-single-stim	s594	False	0
6.064	1.5	5.313	n/a	-1.0	2.25	columbia_card_task_fmri	n/a	n/a	-1.0	n/a	n/a	n/a	n/a	n/a	n/a	n/a	n/a	ITI	poldrack-single-stim	s594	False	0
7.566	2.662	10.228	0.1663556264827457	draw_card	2.662	columbia_card_task_fmri	14.0	0.8333333333333334	89.0	-75.0	0.1666666666666666	6.0	1.0	1.0	1.5195275558539194	2.662	n/a	stim	poldrack-single-stim	s594	False	1
10.23	1.531	11.761	-2.800311040183921	draw_card	1.531	columbia_card_task_fmri	14.0	0.8	89.0	-75.0	0.2	6.0	2.0	1.0	3.950157512114828	1.531	n/a	stim	poldrack-single-stim	s594	False	1
11.762	0.903	12.665	-7.250311040183922	end_round	0.903	columbia_card_task_fmri	14.0	0.75	71.0	-75.0	0.25	6.0	3.0	1.0	6.887218451561303	0.903	2.0	stim	poldrack-single-stim	s594	False	1
13.42	1.5	12.669	n/a	-1.0	2.386	columbia_card_task_fmri	n/a	n/a	-1.0	n/a	n/a	n/a	n/a	n/a	n/a	n/a	n/a	ITI	poldrack-single-stim	s594	False	0
15.058	2.424	17.482	1.833022293149412	draw_card	2.424	columbia_card_task_fmri	15.0	0.8333333333333334	89.0	-70.0	0.1666666666666666	6.0	1.0	1.0	0.0295240175967954	2.424	n/a	stim	poldrack-single-stim	s594	False	1
17.484	0.953	18.437	-1.000311040183922	draw_card	0.953	columbia_card_task_fmri	15.0	0.8	89.0	-70.0	0.2	6.0	2.0	1.0	2.3508176305200905	0.953	n/a	stim	poldrack-single-stim	s594	False	1
18.439	2.808	21.247	-5.250311040183922	draw_card	2.808	columbia_card_task_fmri	15.0	0.75	89.0	-70.0	0.25	6.0	3.0	1.0	5.155777490640212	2.808	n/a	stim	poldrack-single-stim	s594	False	1
21.25	0.997	22.247	-12.333644373517252	end_round	0.997	columbia_card_task_fmri	15.0	0.6666666666666667	71.0	-70.0	0.3333333333333333	6.0	4.0	1.0	8.417976990886658	0.997	3.0	stim	poldrack-single-stim	s594	False	1
23.003	1.5	22.252	n/a	-1.0	2.59	columbia_card_task_fmri	n/a	n/a	-1.0	n/a	n/a	n/a	n/a	n/a	n/a	n/a	n/a	ITI	poldrack-single-stim	s594	False	0
24.845	1.753	26.598	2.666355626482746	draw_card	1.753	columbia_card_task_fmri	17.0	0.8333333333333334	89.0	-75.0	0.1666666666666666	6.0	1.0	1.0	2.6370706104621107	1.753	n/a	stim	poldrack-single-stim	s594	False	1
26.6	0.969	27.569	-0.4003110401839207	draw_card	0.969	columbia_card_task_fmri	17.0	0.8	89.0	-75.0	0.2	6.0	2.0	1.0	5.14970007147074	0.969	2.0	stim	poldrack-single-stim	s594	False	0
28.322	1.5	27.571	n/a	-1.0	2.658	columbia_card_task_fmri	n/a	n/a	-1.0	n/a	n/a	n/a	n/a	n/a	n/a	n/a	n/a	ITI	poldrack-single-stim	s594	False	0
30.232	1.852	32.084	3.999688959816078	draw_card	1.852	columbia_card_task_fmri	24.0	0.75	89.0	-60.0	0.25	8.0	1.0	2.0	4.722926320487282	1.852	n/a	stim	poldrack-single-stim	s594	False	1
32.085	1.355	33.44	0.999688959816078	draw_card	1.355	columbia_card_task_fmri	24.0	0.7142857142857143	89.0	-60.0	0.2857142857142857	8.0	2.0	2.0	6.29662166968977	1.355	2.0	stim	poldrack-single-stim	s594	False	0
34.194	1.5	33.443	n/a	-1.0	2.386	columbia_card_task_fmri	n/a	n/a	-1.0	n/a	n/a	n/a	n/a	n/a	n/a	n/a	n/a	ITI	poldrack-single-stim	s594	False	0
35.831	2.071	37.902	3.999688959816078	draw_card	2.071	columbia_card_task_fmri	29.0	0.75	89.0	-75.0	0.25	8.0	1.0	2.0	13.380539684102402	2.071	n/a	stim	poldrack-single-stim	s594	False	1
37.903	1.534	39.437	0.2854032455303661	draw_card	1.534	columbia_card_task_fmri	29.0	0.7142857142857143	89.0	-75.0	0.2857142857142857	8.0	2.0	2.0	15.329169478778148	1.534	n/a	stim	poldrack-single-stim	s594	False	1
39.439	1.018	40.457	-4.666977706850586	end_round	1.018	columbia_card_task_fmri	29.0	0.6666666666666667	71.0	-75.0	0.3333333333333333	8.0	3.0	2.0	17.372385485115174	1.018	2.0	stim	poldrack-single-stim	s594	False	1
41.209	1.5	40.458	n/a	-1.0	2.386	columbia_card_task_fmri	n/a	n/a	-1.0	n/a	n/a	n/a	n/a	n/a	n/a	n/a	n/a	ITI	poldrack-single-stim	s594	False	0
42.847	1.988	44.835	-0.2225332624061418	draw_card	1.988	columbia_card_task_fmri	17.0	0.7777777777777778	89.0	-65.0	0.2222222222222222	9.0	1.0	2.0	2.441434763823892	1.988	n/a	stim	poldrack-single-stim	s594	False	1
44.837	1.055	45.892	-2.500311040183922	draw_card	1.055	columbia_card_task_fmri	17.0	0.75	89.0	-65.0	0.25	9.0	2.0	2.0	3.857235792693501	1.055	n/a	stim	poldrack-single-stim	s594	False	1
45.894	1.734	47.628	-5.428882468755349	draw_card	1.734	columbia_card_task_fmri	17.0	0.7142857142857143	89.0	-65.0	0.2857142857142857	9.0	3.0	2.0	5.393434765397799	1.734	n/a	stim	poldrack-single-stim	s594	False	1
47.63	1.159	48.789	-9.333644373517252	end_round	1.159	columbia_card_task_fmri	17.0	0.6666666666666667	71.0	-65.0	0.3333333333333333	9.0	4.0	2.0	7.004219448984841	1.159	3.0	stim	poldrack-single-stim	s594	False	1
49.541	1.5	48.79	n/a	-1.0	2.25	columbia_card_task_fmri	n/a	n/a	-1.0	n/a	n/a	n/a	n/a	n/a	n/a	n/a	n/a	ITI	poldrack-single-stim	s594	False	0
51.043	2.411	53.454	4.099688959816078	draw_card	2.411	columbia_card_task_fmri	14.0	0.9	89.0	-95.0	0.1	10.0	1.0	1.0	1.0514015106101835	2.411	1.0	stim	poldrack-single-stim	s594	False	0
54.206	1.5	53.455	n/a	-1.0	2.318	columbia_card_task_fmri	n/a	n/a	-1.0	n/a	n/a	n/a	n/a	n/a	n/a	n/a	n/a	ITI	poldrack-single-stim	s594	False	0
55.777	2.372	58.149	-0.0003110401839221	draw_card	2.372	columbia_card_task_fmri	15.0	0.8	89.0	-65.0	0.2	10.0	1.0	2.0	0.3517355434062779	2.372	n/a	stim	poldrack-single-stim	s594	False	1
58.151	1.322	59.473	-1.778088817961699	draw_card	1.322	columbia_card_task_fmri	15.0	0.7777777777777778	89.0	-65.0	0.2222222222222222	10.0	2.0	2.0	1.6103215437523275	1.322	n/a	stim	poldrack-single-stim	s594	False	1
59.474	0.957	60.431	-4.000311040183922	end_round	0.957	columbia_card_task_fmri	15.0	0.75	71.0	-65.0	0.25	10.0	3.0	2.0	2.991561998499492	0.957	2.0	stim	poldrack-single-stim	s594	False	1
61.184	1.5	60.433	n/a	-1.0	2.25	columbia_card_task_fmri	n/a	n/a	-1.0	n/a	n/a	n/a	n/a	n/a	n/a	n/a	n/a	ITI	poldrack-single-stim	s594	False	0
62.686	2.009	64.695	1.5996889598160793	draw_card	2.009	columbia_card_task_fmri	17.0	0.8	89.0	-65.0	0.2	10.0	1.0	2.0	1.1513549546989026	2.009	n/a	stim	poldrack-single-stim	s594	False	1
64.697	0.803	65.5	-0.2225332624061418	draw_card	0.803	columbia_card_task_fmri	17.0	0.7777777777777778	89.0	-65.0	0.2222222222222222	10.0	2.0	2.0	2.441434763823892	0.803	n/a	stim	poldrack-single-stim	s594	False	1
65.502	1.007	66.509	-2.500311040183922	end_round	1.007	columbia_card_task_fmri	17.0	0.75	71.0	-65.0	0.25	10.0	3.0	2.0	3.857235792693501	1.007	2.0	stim	poldrack-single-stim	s594	False	1
67.265	1.5	66.514	n/a	-1.0	2.25	columbia_card_task_fmri	n/a	n/a	-1.0	n/a	n/a	n/a	n/a	n/a	n/a	n/a	n/a	ITI	poldrack-single-stim	s594	False	0
68.767	2.525	71.292	0.1663556264827457	draw_card	2.525	columbia_card_task_fmri	13.0	0.8333333333333334	89.0	-70.0	0.1666666666666666	12.0	1.0	2.0	-0.7154521644563303	2.525	n/a	stim	poldrack-single-stim	s594	False	1
71.294	0.953	72.247	-1.0912201310930156	draw_card	0.953	columbia_card_task_fmri	13.0	0.8181818181818181	89.0	-70.0	0.1818181818181818	12.0	2.0	2.0	0.3643818335979958	0.953	n/a	stim	poldrack-single-stim	s594	False	1
72.249	0.766	73.015	-2.6003110401839216	end_round	0.766	columbia_card_task_fmri	13.0	0.8	71.0	-70.0	0.2	12.0	3.0	2.0	1.5511715337037586	0.766	2.0	stim	poldrack-single-stim	s594	False	1
73.769	1.5	73.018	n/a	-1.0	2.386	columbia_card_task_fmri	n/a	n/a	-1.0	n/a	n/a	n/a	n/a	n/a	n/a	n/a	n/a	ITI	poldrack-single-stim	s594	False	0
75.407	2.625	78.032	0.1663556264827457	end_round	2.625	columbia_card_task_fmri	15.0	0.8333333333333334	71.0	-80.0	0.1666666666666666	12.0	1.0	2.0	3.754644652292768	2.625	0.0	stim	poldrack-single-stim	s594	False	1
78.788	1.5	78.037	n/a	-1.0	2.386	columbia_card_task_fmri	n/a	n/a	-1.0	n/a	n/a	n/a	n/a	n/a	n/a	n/a	n/a	ITI	poldrack-single-stim	s594	False	0
80.427	1.818	82.245	-0.8003110401839211	draw_card	1.818	columbia_card_task_fmri	14.0	0.8	89.0	-65.0	0.2	15.0	1.0	3.0	-0.048066941202844	1.818	n/a	stim	poldrack-single-stim	s594	False	1
82.247	0.716	82.963	-1.9288824687553487	draw_card	0.716	columbia_card_task_fmri	14.0	0.7857142857142857	89.0	-65.0	0.2142857142857142	15.0	2.0	3.0	0.7672817776890355	0.716	n/a	stim	poldrack-single-stim	s594	False	1
82.965	0.481	83.446	-3.2310802709531536	draw_card	0.481	columbia_card_task_fmri	14.0	0.7692307692307692	89.0	-65.0	0.2307692307692307	15.0	3.0	3.0	1.635811763750219	0.481	n/a	stim	poldrack-single-stim	s594	False	1
83.448	0.695	84.143	-4.750311040183922	draw_card	0.695	columbia_card_task_fmri	14.0	0.75	89.0	-65.0	0.25	15.0	4.0	3.0	2.558731773330919	0.695	n/a	stim	poldrack-single-stim	s594	False	1
84.145	0.7	84.845	-6.545765585638467	draw_card	0.7	columbia_card_task_fmri	14.0	0.7272727272727273	89.0	-65.0	0.2727272727272727	15.0	5.0	3.0	3.5339034820131587	0.7	5.0	stim	poldrack-single-stim	s594	False	0
85.6	1.5	84.849	n/a	-1.0	2.726	columbia_card_task_fmri	n/a	n/a	-1.0	n/a	n/a	n/a	n/a	n/a	n/a	n/a	n/a	ITI	poldrack-single-stim	s594	False	0
87.578	2.401	89.979	-0.8753110401839221	draw_card	2.401	columbia_card_task_fmri	1.0	0.9375	89.0	-45.0	0.0625	16.0	1.0	1.0	-20.48426265331273	2.401	n/a	stim	poldrack-single-stim	s594	False	1
89.982	0.854	90.836	-1.0669777068505886	draw_card	0.854	columbia_card_task_fmri	1.0	0.9333333333333332	89.0	-45.0	0.0666666666666666	16.0	2.0	1.0	-20.145994169949603	0.854	n/a	stim	poldrack-single-stim	s594	False	1
90.838	1.077	91.915	-1.2860253258982075	draw_card	1.077	columbia_card_task_fmri	1.0	0.9285714285714286	89.0	-45.0	0.0714285714285714	16.0	3.0	1.0	-19.774960218641525	1.077	3.0	stim	poldrack-single-stim	s594	False	0
92.672	1.5	91.921	n/a	-1.0	2.454	columbia_card_task_fmri	n/a	n/a	-1.0	n/a	n/a	n/a	n/a	n/a	n/a	n/a	n/a	ITI	poldrack-single-stim	s594	False	0
94.378	2.045	96.423	0.0621889598160778	draw_card	2.045	columbia_card_task_fmri	15.0	0.8125	89.0	-70.0	0.1875	16.0	1.0	3.0	1.5277340304417135	2.045	n/a	stim	poldrack-single-stim	s594	False	1
96.425	0.671	97.096	-1.000311040183922	draw_card	0.671	columbia_card_task_fmri	15.0	0.8	89.0	-70.0	0.2	16.0	2.0	3.0	2.3508176305200905	0.671	2.0	stim	poldrack-single-stim	s594	False	0
97.849	1.5	97.098	n/a	-1.0	2.318	columbia_card_task_fmri	n/a	n/a	-1.0	n/a	n/a	n/a	n/a	n/a	n/a	n/a	n/a	ITI	poldrack-single-stim	s594	False	0
99.419	1.711	101.13	6.999688959816078	draw_card	1.711	columbia_card_task_fmri	30.0	0.7	89.0	-50.0	0.3	10.0	1.0	3.0	5.01035723193624	1.711	n/a	stim	poldrack-single-stim	s594	False	1
101.132	1.706	102.838	4.333022293149417	draw_card	1.706	columbia_card_task_fmri	30.0	0.6666666666666667	89.0	-50.0	0.3333333333333333	10.0	2.0	3.0	6.061733412173346	1.706	n/a	stim	poldrack-single-stim	s594	False	1
102.841	0.681	103.522	0.999688959816078	end_round	0.681	columbia_card_task_fmri	30.0	0.625	71.0	-50.0	0.375	10.0	3.0	3.0	7.078857298517136	0.681	2.0	stim	poldrack-single-stim	s594	False	1
104.278	1.5	103.527	n/a	-1.0	2.318	columbia_card_task_fmri	n/a	n/a	-1.0	n/a	n/a	n/a	n/a	n/a	n/a	n/a	n/a	ITI	poldrack-single-stim	s594	False	0
105.85	1.733	107.583	6.399688959816078	draw_card	1.733	columbia_card_task_fmri	17.0	0.8666666666666667	89.0	-70.0	0.1333333333333333	15.0	1.0	2.0	-2.0726715270676266	1.733	n/a	stim	poldrack-single-stim	s594	False	1
107.584	0.649	108.233	5.571117531244651	draw_card	0.649	columbia_card_task_fmri	17.0	0.8571428571428572	89.0	-70.0	0.1428571428571428	15.0	2.0	2.0	-1.2038085540612329	0.649	n/a	stim	poldrack-single-stim	s594	False	1
108.237	0.617	108.854	4.615073575200693	draw_card	0.617	columbia_card_task_fmri	17.0	0.8461538461538461	89.0	-70.0	0.1538461538461538	15.0	3.0	2.0	-0.2582556131910287	0.617	n/a	stim	poldrack-single-stim	s594	False	1
108.856	2.566	111.422	3.49968895981608	draw_card	2.566	columbia_card_task_fmri	17.0	0.8333333333333334	89.0	-70.0	0.1666666666666666	15.0	4.0	2.0	0.7745176494622825	2.566	n/a	stim	poldrack-single-stim	s594	False	1
111.425	1.377	112.802	2.181507141634258	end_round	1.377	columbia_card_task_fmri	17.0	0.8181818181818181	71.0	-70.0	0.1818181818181818	15.0	5.0	2.0	1.90644310579188	1.377	4.0	stim	poldrack-single-stim	s594	False	1
113.556	1.5	112.805	n/a	-1.0	2.59	columbia_card_task_fmri	n/a	n/a	-1.0	n/a	n/a	n/a	n/a	n/a	n/a	n/a	n/a	ITI	poldrack-single-stim	s594	False	0
115.399	2.109	117.508	1.624688959816078	end_round	2.109	columbia_card_task_fmri	7.0	0.9375	71.0	-95.0	0.0625	16.0	1.0	1.0	-6.953377088087354	2.109	0.0	stim	poldrack-single-stim	s594	False	1
118.263	1.5	117.512	n/a	-1.0	2.726	columbia_card_task_fmri	n/a	n/a	-1.0	n/a	n/a	n/a	n/a	n/a	n/a	n/a	n/a	ITI	poldrack-single-stim	s594	False	0
120.241	1.988	122.229	3.187188959816078	draw_card	1.988	columbia_card_task_fmri	9.0	0.9375	89.0	-100.0	0.0625	16.0	1.0	1.0	-5.26024508562271	1.988	1.0	stim	poldrack-single-stim	s594	False	0
122.984	1.5	122.233	n/a	-1.0	2.522	columbia_card_task_fmri	n/a	n/a	-1.0	n/a	n/a	n/a	n/a	n/a	n/a	n/a	n/a	ITI	poldrack-single-stim	s594	False	0
124.759	1.526	126.285	4.124688959816078	draw_card	1.526	columbia_card_task_fmri	15.0	0.875	89.0	-80.0	0.125	16.0	1.0	2.0	-0.2296787394225283	1.526	n/a	stim	poldrack-single-stim	s594	False	1
126.288	0.461	126.749	3.333022293149412	draw_card	0.461	columbia_card_task_fmri	15.0	0.8666666666666667	89.0	-80.0	0.1333333333333333	16.0	2.0	2.0	0.6453838403040848	0.461	n/a	stim	poldrack-single-stim	s594	False	1
126.751	0.394	127.145	2.4282603883875087	draw_card	0.394	columbia_card_task_fmri	15.0	0.8571428571428572	89.0	-80.0	0.1428571428571428	16.0	3.0	2.0	1.5942271252318108	0.394	n/a	stim	poldrack-single-stim	s594	False	1
127.147	0.448	127.595	1.384304344431461	draw_card	0.448	columbia_card_task_fmri	15.0	0.8461538461538461	89.0	-80.0	0.1538461538461538	16.0	4.0	2.0	2.6268144833177374	0.448	4.0	stim	poldrack-single-stim	s594	False	0
128.351	1.5	127.6	n/a	-1.0	3.134	columbia_card_task_fmri	n/a	n/a	-1.0	n/a	n/a	n/a	n/a	n/a	n/a	n/a	n/a	ITI	poldrack-single-stim	s594	False	0
130.738	1.897	132.635	6.249688959816078	draw_card	1.897	columbia_card_task_fmri	16.0	0.875	89.0	-70.0	0.125	16.0	1.0	2.0	-3.2044859503090386	1.897	n/a	stim	poldrack-single-stim	s594	False	1
132.638	0.737	133.375	5.533022293149411	draw_card	0.737	columbia_card_task_fmri	16.0	0.8666666666666667	89.0	-70.0	0.1333333333333333	16.0	2.0	2.0	-2.4124098658004804	0.737	2.0	stim	poldrack-single-stim	s594	False	0
134.129	1.5	133.378	n/a	-1.0	2.386	columbia_card_task_fmri	n/a	n/a	-1.0	n/a	n/a	n/a	n/a	n/a	n/a	n/a	n/a	ITI	poldrack-single-stim	s594	False	0
135.767	2.149	137.916	7.562188959816078	draw_card	2.149	columbia_card_task_fmri	30.0	0.6875	89.0	-45.0	0.3125	16.0	1.0	5.0	3.113925492259	2.149	1.0	stim	poldrack-single-stim	s594	False	0
138.673	1.5	137.922	n/a	-1.0	2.386	columbia_card_task_fmri	n/a	n/a	-1.0	n/a	n/a	n/a	n/a	n/a	n/a	n/a	n/a	ITI	poldrack-single-stim	s594	False	0
140.311	1.685	141.996	-0.6669777068505882	draw_card	1.685	columbia_card_task_fmri	13.0	0.8333333333333334	89.0	-75.0	0.1666666666666666	6.0	1.0	1.0	1.1470206376290548	1.685	n/a	stim	poldrack-single-stim	s594	False	1
141.998	1.573	143.571	-3.6003110401839216	end_round	1.573	columbia_card_task_fmri	13.0	0.8	71.0	-75.0	0.2	6.0	2.0	1.0	3.550316919135078	1.573	1.0	stim	poldrack-single-stim	s594	False	1
144.325	1.5	143.574	n/a	-1.0	2.318	columbia_card_task_fmri	n/a	n/a	-1.0	n/a	n/a	n/a	n/a	n/a	n/a	n/a	n/a	ITI	poldrack-single-stim	s594	False	0
145.895	1.29	147.185	0.9996889598160796	draw_card	1.29	columbia_card_task_fmri	14.0	0.8333333333333334	89.0	-70.0	0.1666666666666666	6.0	1.0	1.0	-0.3429663324785785	1.29	1.0	stim	poldrack-single-stim	s594	False	0
147.941	1.5	147.19	n/a	-1.0	2.318	columbia_card_task_fmri	n/a	n/a	-1.0	n/a	n/a	n/a	n/a	n/a	n/a	n/a	n/a	ITI	poldrack-single-stim	s594	False	0
149.512	1.583	151.095	0.9996889598160796	draw_card	1.583	columbia_card_task_fmri	16.0	0.8333333333333334	89.0	-80.0	0.1666666666666666	6.0	1.0	1.0	4.127175717249358	1.583	n/a	stim	poldrack-single-stim	s594	False	1
151.097	0.791	151.888	-2.200311040183921	end_round	0.791	columbia_card_task_fmri	16.0	0.8	71.0	-80.0	0.2	6.0	2.0	1.0	6.7491346004966815	0.791	1.0	stim	poldrack-single-stim	s594	False	1
152.641	1.5	151.89	n/a	-1.0	2.862	columbia_card_task_fmri	n/a	n/a	-1.0	n/a	n/a	n/a	n/a	n/a	n/a	n/a	n/a	ITI	poldrack-single-stim	s594	False	0
154.755	1.429	156.184	3.49968895981608	draw_card	1.429	columbia_card_task_fmri	17.0	0.8333333333333334	89.0	-70.0	0.1666666666666666	6.0	1.0	1.0	0.7745176494622825	1.429	n/a	stim	poldrack-single-stim	s594	False	1
156.186	0.893	157.079	0.5996889598160793	draw_card	0.893	columbia_card_task_fmri	17.0	0.8	89.0	-70.0	0.2	6.0	2.0	1.0	3.150479988443756	0.893	2.0	stim	poldrack-single-stim	s594	False	0
157.833	1.5	157.082	n/a	-1.0	2.726	columbia_card_task_fmri	n/a	n/a	-1.0	n/a	n/a	n/a	n/a	n/a	n/a	n/a	n/a	ITI	poldrack-single-stim	s594	False	0
159.811	1.865	161.676	3.499688959816078	draw_card	1.865	columbia_card_task_fmri	25.0	0.75	89.0	-65.0	0.25	8.0	1.0	2.0	7.320087157608782	1.865	n/a	stim	poldrack-single-stim	s594	False	1
161.679	1.188	162.867	0.2854032455303661	draw_card	1.188	columbia_card_task_fmri	25.0	0.7142857142857143	89.0	-65.0	0.2857142857142857	8.0	2.0	2.0	9.006267941221125	1.188	n/a	stim	poldrack-single-stim	s594	False	1
162.869	2.785	165.654	-4.000311040183918	draw_card	2.785	columbia_card_task_fmri	25.0	0.6666666666666667	89.0	-65.0	0.3333333333333333	8.0	3.0	2.0	10.774307089728993	2.785	n/a	stim	poldrack-single-stim	s594	False	1
165.658	0.906	166.564	-10.000311040183922	end_round	0.906	columbia_card_task_fmri	25.0	0.6	71.0	-65.0	0.4	8.0	4.0	2.0	12.438271160770988	0.906	3.0	stim	poldrack-single-stim	s594	False	1
167.317	1.5	166.566	n/a	-1.0	2.25	columbia_card_task_fmri	n/a	n/a	-1.0	n/a	n/a	n/a	n/a	n/a	n/a	n/a	n/a	ITI	poldrack-single-stim	s594	False	0
168.819	1.475	170.294	3.499688959816078	draw_card	1.475	columbia_card_task_fmri	30.0	0.75	89.0	-80.0	0.25	8.0	1.0	2.0	15.978010871594767	1.475	n/a	stim	poldrack-single-stim	s594	False	1
170.296	1.288	171.584	-0.4288824687553456	draw_card	1.288	columbia_card_task_fmri	30.0	0.7142857142857143	89.0	-80.0	0.2857142857142857	8.0	2.0	2.0	18.03911324688948	1.288	n/a	stim	poldrack-single-stim	s594	False	1
171.586	3.202	174.788	-5.666977706850583	draw_card	3.202	columbia_card_task_fmri	30.0	0.6666666666666667	89.0	-80.0	0.3333333333333333	8.0	3.0	2.0	20.200256829594288	3.202	3.0	stim	poldrack-single-stim	s594	False	0
175.542	1.5	174.791	n/a	-1.0	2.318	columbia_card_task_fmri	n/a	n/a	-1.0	n/a	n/a	n/a	n/a	n/a	n/a	n/a	n/a	ITI	poldrack-single-stim	s594	False	0
177.113	2.605	179.718	3.199688959816079	draw_card	2.605	columbia_card_task_fmri	13.0	0.9	89.0	-95.0	0.1	10.0	1.0	1.0	0.7515429014157107	2.605	n/a	stim	poldrack-single-stim	s594	False	1
179.721	1.664	181.385	1.9996889598160776	draw_card	1.664	columbia_card_task_fmri	13.0	0.8888888888888888	89.0	-95.0	0.1111111111111111	10.0	2.0	1.0	2.291968603983939	1.664	n/a	stim	poldrack-single-stim	s594	False	1
181.388	0.951	182.339	0.4996889598160778	draw_card	0.951	columbia_card_task_fmri	13.0	0.875	89.0	-95.0	0.125	10.0	3.0	1.0	4.067754007858589	0.951	n/a	stim	poldrack-single-stim	s594	False	1
182.342	1.109	183.451	-1.4288824687553492	end_round	1.109	columbia_card_task_fmri	13.0	0.8571428571428572	71.0	-95.0	0.1428571428571428	10.0	4.0	1.0	6.14147125760347	1.109	3.0	stim	poldrack-single-stim	s594	False	1
184.207	1.5	183.456	n/a	-1.0	2.454	columbia_card_task_fmri	n/a	n/a	-1.0	n/a	n/a	n/a	n/a	n/a	n/a	n/a	n/a	ITI	poldrack-single-stim	s594	False	0
185.915	1.711	187.626	4.599688959816078	draw_card	1.711	columbia_card_task_fmri	14.0	0.9	89.0	-90.0	0.1	10.0	1.0	1.0	-0.447864365161827	1.711	n/a	stim	poldrack-single-stim	s594	False	1
187.629	0.694	188.323	3.444133404260521	draw_card	0.694	columbia_card_task_fmri	14.0	0.8888888888888888	89.0	-90.0	0.1111111111111111	10.0	2.0	1.0	1.0354557389553278	0.694	n/a	stim	poldrack-single-stim	s594	False	1
188.326	1.54	189.866	1.9996889598160776	draw_card	1.54	columbia_card_task_fmri	14.0	0.875	89.0	-90.0	0.125	10.0	3.0	1.0	2.7454161001491144	1.54	n/a	stim	poldrack-single-stim	s594	False	1
189.869	0.737	190.606	0.1425461026732219	end_round	0.737	columbia_card_task_fmri	14.0	0.8571428571428572	71.0	-90.0	0.1428571428571428	10.0	4.0	1.0	4.742271096036305	0.737	3.0	stim	poldrack-single-stim	s594	False	1
191.362	1.5	190.611	n/a	-1.0	2.522	columbia_card_task_fmri	n/a	n/a	-1.0	n/a	n/a	n/a	n/a	n/a	n/a	n/a	n/a	ITI	poldrack-single-stim	s594	False	0
193.138	3.36	196.498	-0.2003110401839214	end_round	3.36	columbia_card_task_fmri	16.0	0.8	71.0	-70.0	0.2	10.0	1.0	2.0	2.7506468476891186	3.36	0.0	stim	poldrack-single-stim	s594	False	1
197.254	1.5	196.503	n/a	-1.0	2.318	columbia_card_task_fmri	n/a	n/a	-1.0	n/a	n/a	n/a	n/a	n/a	n/a	n/a	n/a	ITI	poldrack-single-stim	s594	False	0
198.825	1.355	200.18	-0.9169777068505882	draw_card	1.355	columbia_card_task_fmri	7.0	0.9166666666666666	89.0	-100.0	0.0833333333333333	12.0	1.0	1.0	-2.0737463779853087	1.355	n/a	stim	poldrack-single-stim	s594	False	1
200.182	1.763	201.945	-1.7275837674566503	draw_card	1.763	columbia_card_task_fmri	7.0	0.9090909090909092	89.0	-100.0	0.0909090909090909	12.0	2.0	1.0	-0.8872983892214883	1.763	n/a	stim	poldrack-single-stim	s594	False	1
201.948	1.508	203.456	-2.700311040183922	end_round	1.508	columbia_card_task_fmri	7.0	0.9	71.0	-100.0	0.1	12.0	3.0	1.0	0.4516869331369761	1.508	2.0	stim	poldrack-single-stim	s594	False	1
204.214	1.5	203.463	n/a	-1.0	2.522	columbia_card_task_fmri	n/a	n/a	-1.0	n/a	n/a	n/a	n/a	n/a	n/a	n/a	n/a	ITI	poldrack-single-stim	s594	False	0
205.988	2.358	208.346	-0.6669777068505864	draw_card	2.358	columbia_card_task_fmri	14.0	0.8333333333333334	89.0	-80.0	0.1666666666666666	12.0	1.0	2.0	3.3821167116459208	2.358	n/a	stim	poldrack-single-stim	s594	False	1
208.349	0.76	209.109	-2.0912201310930154	end_round	0.76	columbia_card_task_fmri	14.0	0.8181818181818181	71.0	-80.0	0.1818181818181818	12.0	2.0	2.0	4.60519710761433	0.76	1.0	stim	poldrack-single-stim	s594	False	1
209.866	1.5	209.115	n/a	-1.0	2.998	columbia_card_task_fmri	n/a	n/a	-1.0	n/a	n/a	n/a	n/a	n/a	n/a	n/a	n/a	ITI	poldrack-single-stim	s594	False	0
212.117	2.508	214.625	0.999688959816078	draw_card	2.508	columbia_card_task_fmri	15.0	0.8333333333333334	89.0	-75.0	0.1666666666666666	12.0	1.0	2.0	1.8920382732532064	2.508	n/a	stim	poldrack-single-stim	s594	False	1
214.628	0.567	215.195	-0.3639474038202872	draw_card	0.567	columbia_card_task_fmri	15.0	0.8181818181818181	89.0	-75.0	0.1818181818181818	12.0	2.0	2.0	3.063030867208859	0.567	n/a	stim	poldrack-single-stim	s594	False	1
215.198	1.365	216.563	-2.000311040183922	draw_card	1.365	columbia_card_task_fmri	15.0	0.8	89.0	-75.0	0.2	12.0	3.0	2.0	4.350001645402365	1.365	n/a	stim	poldrack-single-stim	s594	False	1
216.566	1.293	217.859	-4.00031104018392	draw_card	1.293	columbia_card_task_fmri	15.0	0.7777777777777778	89.0	-75.0	0.2222222222222222	12.0	4.0	2.0	5.766050305781675	1.293	n/a	stim	poldrack-single-stim	s594	False	1
217.863	1.079	218.942	-6.500311040183922	end_round	1.079	columbia_card_task_fmri	15.0	0.75	71.0	-75.0	0.25	12.0	5.0	2.0	7.320087157608782	1.079	4.0	stim	poldrack-single-stim	s594	False	1
219.698	1.5	218.947	n/a	-1.0	2.318	columbia_card_task_fmri	n/a	n/a	-1.0	n/a	n/a	n/a	n/a	n/a	n/a	n/a	n/a	ITI	poldrack-single-stim	s594	False	0
221.268	1.916	223.184	-0.0003110401839221	draw_card	1.916	columbia_card_task_fmri	15.0	0.8	89.0	-65.0	0.2	15.0	1.0	3.0	0.3517355434062779	1.916	n/a	stim	poldrack-single-stim	s594	False	1
223.188	1.509	224.697	-1.1431681830410645	draw_card	1.509	columbia_card_task_fmri	15.0	0.7857142857142857	89.0	-65.0	0.2142857142857142	15.0	2.0	3.0	1.1774151290351185	1.509	n/a	stim	poldrack-single-stim	s594	False	1
224.7	1.534	226.234	-2.4618495017223854	end_round	1.534	columbia_card_task_fmri	15.0	0.7692307692307692	71.0	-65.0	0.2307692307692307	15.0	3.0	3.0	2.056949275980678	1.534	2.0	stim	poldrack-single-stim	s594	False	1
226.988	1.5	226.237	n/a	-1.0	2.25	columbia_card_task_fmri	n/a	n/a	-1.0	n/a	n/a	n/a	n/a	n/a	n/a	n/a	n/a	ITI	poldrack-single-stim	s594	False	0
228.492	1.541	230.033	-0.7503110401839221	draw_card	1.541	columbia_card_task_fmri	14.0	0.8125	89.0	-70.0	0.1875	16.0	1.0	3.0	1.1376008357813987	1.541	1.0	stim	poldrack-single-stim	s594	False	0
230.787	1.5	230.036	n/a	-1.0	2.454	columbia_card_task_fmri	n/a	n/a	-1.0	n/a	n/a	n/a	n/a	n/a	n/a	n/a	n/a	ITI	poldrack-single-stim	s594	False	0
232.495	3.326	235.821	-0.8128110401839221	draw_card	3.326	columbia_card_task_fmri	11.0	0.6875	89.0	-30.0	0.3125	16.0	1.0	5.0	-12.633591597751703	3.326	n/a	stim	poldrack-single-stim	s594	False	1
235.824	0.907	236.731	-1.6669777068505882	end_round	0.907	columbia_card_task_fmri	11.0	0.6666666666666667	71.0	-30.0	0.3333333333333333	16.0	2.0	5.0	-12.310454176424544	0.907	1.0	stim	poldrack-single-stim	s594	False	1
237.486	1.5	236.735	n/a	-1.0	2.318	columbia_card_task_fmri	n/a	n/a	-1.0	n/a	n/a	n/a	n/a	n/a	n/a	n/a	n/a	ITI	poldrack-single-stim	s594	False	0
239.057	1.478	240.535	3.999688959816078	draw_card	1.478	columbia_card_task_fmri	15.0	0.8666666666666667	89.0	-75.0	0.1333333333333333	15.0	1.0	2.0	-1.0534303596376515	1.478	n/a	stim	poldrack-single-stim	s594	False	1
240.539	1.686	242.225	3.142546102673222	draw_card	1.686	columbia_card_task_fmri	15.0	0.8571428571428572	89.0	-75.0	0.1428571428571428	15.0	2.0	2.0	-0.1545739270995625	1.686	n/a	stim	poldrack-single-stim	s594	False	1
242.229	1.068	243.297	2.1535351136622314	draw_card	1.068	columbia_card_task_fmri	15.0	0.8461538461538461	89.0	-75.0	0.1538461538461538	15.0	3.0	2.0	0.8236177843292865	1.068	n/a	stim	poldrack-single-stim	s594	False	1
243.301	0.844	244.145	0.999688959816078	end_round	0.844	columbia_card_task_fmri	15.0	0.8333333333333334	71.0	-75.0	0.1666666666666666	15.0	4.0	2.0	1.8920382732532064	0.844	3.0	stim	poldrack-single-stim	s594	False	1
244.899	1.5	244.148	n/a	-1.0	2.318	columbia_card_task_fmri	n/a	n/a	-1.0	n/a	n/a	n/a	n/a	n/a	n/a	n/a	n/a	ITI	poldrack-single-stim	s594	False	0
246.47	3.192	249.662	5.733022293149412	draw_card	3.192	columbia_card_task_fmri	17.0	0.8666666666666667	89.0	-75.0	0.1333333333333333	15.0	1.0	2.0	-0.3739158750825133	3.192	n/a	stim	poldrack-single-stim	s594	False	1
249.665	1.356	251.021	4.8568318169589375	draw_card	1.356	columbia_card_task_fmri	17.0	0.8571428571428572	89.0	-75.0	0.1428571428571428	15.0	2.0	2.0	0.5449356171746018	1.356	n/a	stim	poldrack-single-stim	s594	False	1
251.024	0.668	251.692	3.845842805969925	draw_card	0.668	columbia_card_task_fmri	17.0	0.8461538461538461	89.0	-75.0	0.1538461538461538	15.0	3.0	2.0	1.5448859141759144	0.668	n/a	stim	poldrack-single-stim	s594	False	1
251.695	0.876	252.571	2.666355626482746	draw_card	0.876	columbia_card_task_fmri	17.0	0.8333333333333334	89.0	-75.0	0.1666666666666666	15.0	4.0	2.0	2.6370706104621107	0.876	n/a	stim	poldrack-single-stim	s594	False	1
252.574	1.049	253.623	1.2724162325433497	end_round	1.049	columbia_card_task_fmri	17.0	0.8181818181818181	71.0	-75.0	0.1818181818181818	15.0	5.0	2.0	3.834107337118184	1.049	4.0	stim	poldrack-single-stim	s594	False	1
254.38	1.5	253.629	n/a	-1.0	2.59	columbia_card_task_fmri	n/a	n/a	-1.0	n/a	n/a	n/a	n/a	n/a	n/a	n/a	n/a	ITI	poldrack-single-stim	s594	False	0
256.224	2.822	259.046	1.312188959816078	draw_card	2.822	columbia_card_task_fmri	2.0	0.9375	89.0	-25.0	0.0625	16.0	1.0	1.0	-25.05220278575569	2.822	n/a	stim	poldrack-single-stim	s594	False	1
259.05	1.13	260.18	1.1996889598160778	draw_card	1.13	columbia_card_task_fmri	2.0	0.9333333333333332	89.0	-25.0	0.0666666666666666	16.0	2.0	1.0	-24.85510379279936	1.13	n/a	stim	poldrack-single-stim	s594	False	1
260.189	0.542	260.731	1.0711175312446497	draw_card	0.542	columbia_card_task_fmri	2.0	0.9285714285714286	89.0	-25.0	0.0714285714285714	16.0	3.0	1.0	-24.63881942968312	0.542	n/a	stim	poldrack-single-stim	s594	False	1
260.738	0.455	261.193	0.922765882893001	draw_card	0.455	columbia_card_task_fmri	2.0	0.9230769230769232	89.0	-25.0	0.0769230769230769	16.0	4.0	1.0	-24.400082731829823	0.455	n/a	stim	poldrack-single-stim	s594	False	1
261.202	0.471	261.673	0.7496889598160781	draw_card	0.471	columbia_card_task_fmri	2.0	0.9166666666666666	89.0	-25.0	0.0833333333333333	16.0	5.0	1.0	-24.13480706218417	0.471	n/a	stim	poldrack-single-stim	s594	False	1
261.68	0.541	262.221	0.545143505270623	draw_card	0.541	columbia_card_task_fmri	2.0	0.9090909090909092	89.0	-25.0	0.0909090909090909	16.0	6.0	1.0	-23.8378097470056	0.541	n/a	stim	poldrack-single-stim	s594	False	1
262.228	0.54	262.768	0.2996889598160779	draw_card	0.54	columbia_card_task_fmri	2.0	0.9	89.0	-25.0	0.1	16.0	7.0	1.0	-23.502419073757476	0.54	n/a	stim	poldrack-single-stim	s594	False	1
262.776	0.445	263.221	-0.0003110401839221	draw_card	0.445	columbia_card_task_fmri	2.0	0.8888888888888888	89.0	-25.0	0.1111111111111111	16.0	8.0	1.0	-23.11990858360261	0.445	8.0	stim	poldrack-single-stim	s594	False	0
263.98	1.5	263.229	n/a	-1.0	2.25	columbia_card_task_fmri	n/a	n/a	-1.0	n/a	n/a	n/a	n/a	n/a	n/a	n/a	n/a	ITI	poldrack-single-stim	s594	False	0
265.484	1.822	267.306	3.499688959816078	draw_card	1.822	columbia_card_task_fmri	9.0	0.9375	89.0	-95.0	0.0625	16.0	1.0	1.0	-6.469642899082743	1.822	n/a	stim	poldrack-single-stim	s594	False	1
267.31	0.475	267.785	3.0663556264827454	draw_card	0.475	columbia_card_task_fmri	9.0	0.9333333333333332	89.0	-95.0	0.0666666666666666	16.0	2.0	1.0	-5.702463534452043	0.475	2.0	stim	poldrack-single-stim	s594	False	0
268.539	1.5	267.788	n/a	-1.0	2.25	columbia_card_task_fmri	n/a	n/a	-1.0	n/a	n/a	n/a	n/a	n/a	n/a	n/a	n/a	ITI	poldrack-single-stim	s594	False	0
270.043	1.806	271.849	5.062188959816078	draw_card	1.806	columbia_card_task_fmri	11.0	0.9375	89.0	-100.0	0.0625	16.0	1.0	1.0	-4.7764630428115495	1.806	n/a	stim	poldrack-single-stim	s594	False	1
271.853	0.879	272.732	4.599688959816079	draw_card	0.879	columbia_card_task_fmri	11.0	0.9333333333333332	89.0	-100.0	0.0666666666666666	16.0	2.0	1.0	-3.957570185347926	0.879	n/a	stim	poldrack-single-stim	s594	False	1
272.735	0.616	273.351	4.071117531244651	draw_card	0.616	columbia_card_task_fmri	11.0	0.9285714285714286	89.0	-100.0	0.0714285714285714	16.0	3.0	1.0	-3.059530775992325	0.616	n/a	stim	poldrack-single-stim	s594	False	1
273.355	0.792	274.147	3.4612274213545406	draw_card	0.792	columbia_card_task_fmri	11.0	0.9230769230769232	89.0	-100.0	0.0769230769230769	16.0	4.0	1.0	-2.06888846013328	0.792	n/a	stim	poldrack-single-stim	s594	False	1
274.15	1.135	275.285	2.749688959816078	draw_card	1.135	columbia_card_task_fmri	11.0	0.9166666666666666	89.0	-100.0	0.0833333333333333	16.0	5.0	1.0	-0.9688131671367372	1.135	n/a	stim	poldrack-single-stim	s594	False	1
275.289	0.734	276.023	1.908779868906986	draw_card	0.734	columbia_card_task_fmri	11.0	0.9090909090909092	89.0	-100.0	0.0909090909090909	16.0	6.0	1.0	0.2620358161979759	0.734	n/a	stim	poldrack-single-stim	s594	False	1
276.031	1.345	277.376	0.8996889598160782	draw_card	1.345	columbia_card_task_fmri	11.0	0.9	89.0	-100.0	0.1	16.0	7.0	1.0	1.6511263665043856	1.345	n/a	stim	poldrack-single-stim	s594	False	1
277.385	0.893	278.278	-0.333644373517256	draw_card	0.893	columbia_card_task_fmri	11.0	0.8888888888888888	89.0	-100.0	0.1111111111111111	16.0	8.0	1.0	3.2343799992719866	0.893	n/a	stim	poldrack-single-stim	s594	False	1
278.289	1.656	279.945	-1.875311040183922	draw_card	1.656	columbia_card_task_fmri	11.0	0.875	89.0	-100.0	0.125	16.0	9.0	1.0	5.059532858074988	1.656	n/a	stim	poldrack-single-stim	s594	False	1
279.954	2.676	282.63	-3.857453897326778	end_round	2.676	columbia_card_task_fmri	11.0	0.8571428571428572	71.0	-100.0	0.1428571428571428	16.0	10.0	1.0	7.190895405925595	2.676	9.0	stim	poldrack-single-stim	s594	False	1
283.39	1.5	282.639	n/a	-1.0	2.522	columbia_card_task_fmri	n/a	n/a	-1.0	n/a	n/a	n/a	n/a	n/a	n/a	n/a	n/a	ITI	poldrack-single-stim	s594	False	0
285.166	1.682	286.848	5.624688959816078	draw_card	1.682	columbia_card_task_fmri	16.0	0.875	89.0	-75.0	0.125	16.0	1.0	2.0	-1.5518558546858898	1.682	1.0	stim	poldrack-single-stim	s594	False	0
287.602	1.5	286.851	n/a	-1.0	2.454	columbia_card_task_fmri	n/a	n/a	-1.0	n/a	n/a	n/a	n/a	n/a	n/a	n/a	n/a	ITI	poldrack-single-stim	s594	False	0
289.309	1.24	290.549	5.874688959816078	draw_card	1.24	columbia_card_task_fmri	17.0	0.875	89.0	-80.0	0.125	16.0	1.0	2.0	0.4314314063708906	1.24	n/a	stim	poldrack-single-stim	s594	False	1
290.553	0.549	291.102	5.066355626482746	draw_card	0.549	columbia_card_task_fmri	17.0	0.8666666666666667	89.0	-80.0	0.1333333333333333	16.0	2.0	2.0	1.3249342976865606	0.549	n/a	stim	poldrack-single-stim	s594	False	1
291.106	0.432	291.538	4.142546102673224	draw_card	0.432	columbia_card_task_fmri	17.0	0.8571428571428572	89.0	-80.0	0.1428571428571428	16.0	3.0	2.0	2.293771618021914	0.432	n/a	stim	poldrack-single-stim	s594	False	1
291.543	0.695	292.238	3.0766120367391547	draw_card	0.695	columbia_card_task_fmri	17.0	0.8461538461538461	89.0	-80.0	0.1538461538461538	16.0	4.0	2.0	3.3481165111974605	0.695	n/a	stim	poldrack-single-stim	s594	False	1
292.248	1.603	293.851	1.8330222931494136	draw_card	1.603	columbia_card_task_fmri	17.0	0.8333333333333334	89.0	-80.0	0.1666666666666666	16.0	5.0	2.0	4.49970980996256	1.603	n/a	stim	poldrack-single-stim	s594	False	1
293.862	0.669	294.531	0.3633253234524394	end_round	0.669	columbia_card_task_fmri	17.0	0.8181818181818181	71.0	-80.0	0.1818181818181818	16.0	6.0	2.0	5.761854903602711	0.669	5.0	stim	poldrack-single-stim	s594	False	1
295.296	1.5	294.545	n/a	-1.0	2.25	columbia_card_task_fmri	n/a	n/a	-1.0	n/a	n/a	n/a	n/a	n/a	n/a	n/a	n/a	ITI	poldrack-single-stim	s594	False	0
307.808	2.183	309.991	0.1663556264827457	draw_card	2.183	columbia_card_task_fmri	13.0	0.8333333333333334	89.0	-70.0	0.1666666666666666	6.0	1.0	1.0	-0.7154521644563303	2.183	n/a	stim	poldrack-single-stim	s594	False	1
309.999	0.853	310.852	-2.6003110401839216	draw_card	0.853	columbia_card_task_fmri	13.0	0.8	89.0	-70.0	0.2	6.0	2.0	1.0	1.5511715337037586	0.853	n/a	stim	poldrack-single-stim	s594	False	1
310.859	0.758	311.617	-6.750311040183922	draw_card	0.758	columbia_card_task_fmri	13.0	0.75	89.0	-70.0	0.25	6.0	3.0	1.0	4.290079040435032	0.758	n/a	stim	poldrack-single-stim	s594	False	1
311.627	0.633	312.26	-13.666977706850586	end_round	0.633	columbia_card_task_fmri	13.0	0.6666666666666667	71.0	-70.0	0.3333333333333333	6.0	4.0	1.0	7.475468301922575	0.633	3.0	stim	poldrack-single-stim	s594	False	1
313.018	1.5	312.267	n/a	-1.0	2.454	columbia_card_task_fmri	n/a	n/a	-1.0	n/a	n/a	n/a	n/a	n/a	n/a	n/a	n/a	ITI	poldrack-single-stim	s594	False	0
314.732	1.411	316.143	0.1663556264827457	draw_card	1.411	columbia_card_task_fmri	15.0	0.8333333333333334	89.0	-80.0	0.1666666666666666	6.0	1.0	1.0	3.754644652292768	1.411	n/a	stim	poldrack-single-stim	s594	False	1
316.151	1.21	317.361	-3.000311040183922	draw_card	1.21	columbia_card_task_fmri	15.0	0.8	89.0	-80.0	0.2	6.0	2.0	1.0	6.349271506328556	1.21	n/a	stim	poldrack-single-stim	s594	False	1
317.37	0.578	317.948	-7.750311040183922	end_round	0.578	columbia_card_task_fmri	15.0	0.75	71.0	-80.0	0.25	6.0	3.0	1.0	9.48447613926306	0.578	2.0	stim	poldrack-single-stim	s594	False	1
318.708	1.5	317.957	n/a	-1.0	2.454	columbia_card_task_fmri	n/a	n/a	-1.0	n/a	n/a	n/a	n/a	n/a	n/a	n/a	n/a	ITI	poldrack-single-stim	s594	False	0
320.42	1.186	321.606	1.833022293149412	draw_card	1.186	columbia_card_task_fmri	16.0	0.8333333333333334	89.0	-75.0	0.1666666666666666	6.0	1.0	1.0	2.2645526646899654	1.186	n/a	stim	poldrack-single-stim	s594	False	1
321.614	0.67	322.284	-1.2003110401839214	draw_card	0.67	columbia_card_task_fmri	16.0	0.8	89.0	-75.0	0.2	6.0	2.0	1.0	4.749849202373724	0.67	n/a	stim	poldrack-single-stim	s594	False	1
322.291	0.539	322.83	-5.750311040183922	draw_card	0.539	columbia_card_task_fmri	16.0	0.75	89.0	-75.0	0.25	6.0	3.0	1.0	7.752959026856196	0.539	n/a	stim	poldrack-single-stim	s594	False	1
322.839	2.079	324.918	-13.333644373517254	end_round	2.079	columbia_card_task_fmri	16.0	0.6666666666666667	71.0	-75.0	0.3333333333333333	6.0	4.0	1.0	11.245582237614194	2.079	3.0	stim	poldrack-single-stim	s594	False	1
325.679	1.5	324.928	n/a	-1.0	2.522	columbia_card_task_fmri	n/a	n/a	-1.0	n/a	n/a	n/a	n/a	n/a	n/a	n/a	n/a	ITI	poldrack-single-stim	s594	False	0
327.455	2.092	329.547	2.999688959816078	draw_card	2.092	columbia_card_task_fmri	21.0	0.75	89.0	-55.0	0.25	8.0	1.0	2.0	1.2602698905994458	2.092	n/a	stim	poldrack-single-stim	s594	False	1
329.551	0.726	330.277	0.2854032455303643	draw_card	0.726	columbia_card_task_fmri	21.0	0.7142857142857143	89.0	-55.0	0.2857142857142857	8.0	2.0	2.0	2.6839753597119227	0.726	n/a	stim	poldrack-single-stim	s594	False	1
330.287	0.807	331.094	-3.3336443735172523	draw_card	0.807	columbia_card_task_fmri	21.0	0.6666666666666667	89.0	-55.0	0.3333333333333333	8.0	3.0	2.0	4.176812310763829	0.807	n/a	stim	poldrack-single-stim	s594	False	1
331.1	1.101	332.201	-8.400311040183922	end_round	1.101	columbia_card_task_fmri	21.0	0.6	71.0	-55.0	0.4	8.0	4.0	2.0	5.581786609630825	1.101	3.0	stim	poldrack-single-stim	s594	False	1
332.964	1.5	332.213	n/a	-1.0	2.454	columbia_card_task_fmri	n/a	n/a	-1.0	n/a	n/a	n/a	n/a	n/a	n/a	n/a	n/a	ITI	poldrack-single-stim	s594	False	0
334.676	1.651	336.327	4.249688959816078	draw_card	1.651	columbia_card_task_fmri	26.0	0.75	89.0	-65.0	0.25	8.0	1.0	2.0	7.752959026856196	1.651	n/a	stim	poldrack-single-stim	s594	False	1
336.335	1.017	337.352	0.9996889598160814	draw_card	1.017	columbia_card_task_fmri	26.0	0.7142857142857143	89.0	-65.0	0.2857142857142857	8.0	2.0	2.0	9.457886897194385	1.017	n/a	stim	poldrack-single-stim	s594	False	1
337.36	2.56	339.92	-3.3336443735172505	end_round	2.56	columbia_card_task_fmri	26.0	0.6666666666666667	71.0	-65.0	0.3333333333333333	8.0	3.0	2.0	11.245582237614194	2.56	2.0	stim	poldrack-single-stim	s594	False	1
340.681	1.5	339.93	n/a	-1.0	2.658	columbia_card_task_fmri	n/a	n/a	-1.0	n/a	n/a	n/a	n/a	n/a	n/a	n/a	n/a	ITI	poldrack-single-stim	s594	False	0
342.599	1.638	344.237	-0.6669777068505882	draw_card	1.638	columbia_card_task_fmri	15.0	0.7777777777777778	89.0	-60.0	0.2222222222222222	9.0	1.0	2.0	-0.4673761225162636	1.638	n/a	stim	poldrack-single-stim	s594	False	1
344.246	1.407	345.653	-2.750311040183922	draw_card	1.407	columbia_card_task_fmri	15.0	0.75	89.0	-60.0	0.25	9.0	2.0	2.0	0.8274594998665208	1.407	2.0	stim	poldrack-single-stim	s594	False	0
346.414	1.5	345.663	n/a	-1.0	2.386	columbia_card_task_fmri	n/a	n/a	-1.0	n/a	n/a	n/a	n/a	n/a	n/a	n/a	n/a	ITI	poldrack-single-stim	s594	False	0
348.058	1.755	349.813	3.699688959816079	draw_card	1.755	columbia_card_task_fmri	13.0	0.9	89.0	-90.0	0.1	10.0	1.0	1.0	-0.747708993975845	1.755	n/a	stim	poldrack-single-stim	s594	False	1
349.821	0.817	350.638	2.555244515371633	draw_card	0.817	columbia_card_task_fmri	13.0	0.8888888888888888	89.0	-90.0	0.1111111111111111	10.0	2.0	1.0	0.7213343850790608	0.817	n/a	stim	poldrack-single-stim	s594	False	1
350.647	0.443	351.09	1.124688959816078	draw_card	0.443	columbia_card_task_fmri	13.0	0.875	89.0	-90.0	0.125	10.0	3.0	1.0	2.414838145153801	0.443	n/a	stim	poldrack-single-stim	s594	False	1
351.098	0.407	351.505	-0.7145967544696339	draw_card	0.407	columbia_card_task_fmri	13.0	0.8571428571428572	89.0	-90.0	0.1428571428571428	10.0	4.0	1.0	4.392477220393133	0.407	n/a	stim	poldrack-single-stim	s594	False	1
351.512	0.433	351.945	-3.166977706850588	draw_card	0.433	columbia_card_task_fmri	13.0	0.8333333333333334	89.0	-90.0	0.1666666666666666	10.0	5.0	1.0	6.734973014184135	0.433	5.0	stim	poldrack-single-stim	s594	False	0
352.704	1.5	351.953	n/a	-1.0	2.522	columbia_card_task_fmri	n/a	n/a	-1.0	n/a	n/a	n/a	n/a	n/a	n/a	n/a	n/a	ITI	poldrack-single-stim	s594	False	0
354.484	1.595	356.079	4.999688959816078	draw_card	1.595	columbia_card_task_fmri	15.0	0.9	89.0	-95.0	0.1	10.0	1.0	1.0	1.351262688762375	1.595	n/a	stim	poldrack-single-stim	s594	False	1
356.087	0.938	357.025	3.777466737593855	draw_card	0.938	columbia_card_task_fmri	15.0	0.8888888888888888	89.0	-95.0	0.1111111111111111	10.0	2.0	1.0	2.920240459046916	0.938	n/a	stim	poldrack-single-stim	s594	False	1
357.034	0.679	357.713	2.249688959816078	draw_card	0.679	columbia_card_task_fmri	15.0	0.875	89.0	-95.0	0.125	10.0	3.0	1.0	4.728937619052047	0.679	n/a	stim	poldrack-single-stim	s594	False	1
357.721	0.839	358.56	0.2854032455303643	draw_card	0.839	columbia_card_task_fmri	15.0	0.8571428571428572	89.0	-95.0	0.1428571428571428	10.0	4.0	1.0	6.8410851929159975	0.839	n/a	stim	poldrack-single-stim	s594	False	1
358.571	0.66	359.231	-2.333644373517254	end_round	0.66	columbia_card_task_fmri	15.0	0.8333333333333334	71.0	-95.0	0.1666666666666666	10.0	5.0	1.0	9.342890994150238	0.66	4.0	stim	poldrack-single-stim	s594	False	1
359.992	1.5	359.241	n/a	-1.0	2.59	columbia_card_task_fmri	n/a	n/a	-1.0	n/a	n/a	n/a	n/a	n/a	n/a	n/a	n/a	ITI	poldrack-single-stim	s594	False	0
361.841	1.512	363.353	0.7996889598160786	draw_card	1.512	columbia_card_task_fmri	16.0	0.8	89.0	-65.0	0.2	10.0	1.0	2.0	0.7515429014157107	1.512	n/a	stim	poldrack-single-stim	s594	False	1
363.361	0.921	364.282	-1.0003110401839204	draw_card	0.921	columbia_card_task_fmri	16.0	0.7777777777777778	89.0	-65.0	0.2222222222222222	10.0	2.0	2.0	2.0258758947922004	0.921	n/a	stim	poldrack-single-stim	s594	False	1
364.294	0.953	365.247	-3.250311040183922	draw_card	0.953	columbia_card_task_fmri	16.0	0.75	89.0	-65.0	0.25	10.0	3.0	2.0	3.4243967264884816	0.953	n/a	stim	poldrack-single-stim	s594	False	1
365.255	0.925	366.18	-6.143168183041063	end_round	0.925	columbia_card_task_fmri	16.0	0.7142857142857143	71.0	-65.0	0.2857142857142857	10.0	4.0	2.0	4.941847254398354	0.925	3.0	stim	poldrack-single-stim	s594	False	1
366.943	1.5	366.192	n/a	-1.0	2.386	columbia_card_task_fmri	n/a	n/a	-1.0	n/a	n/a	n/a	n/a	n/a	n/a	n/a	n/a	ITI	poldrack-single-stim	s594	False	0
368.589	1.791	370.38	-0.5003110401839221	draw_card	1.791	columbia_card_task_fmri	7.0	0.9166666666666666	89.0	-95.0	0.0833333333333333	12.0	1.0	1.0	-3.4548458506772377	1.791	n/a	stim	poldrack-single-stim	s594	False	1
370.39	1.301	371.691	-1.2730383129111955	draw_card	1.301	columbia_card_task_fmri	7.0	0.9090909090909092	89.0	-95.0	0.0909090909090909	12.0	2.0	1.0	-2.323901683932089	1.301	n/a	stim	poldrack-single-stim	s594	False	1
371.702	0.455	372.157	-2.200311040183922	draw_card	0.455	columbia_card_task_fmri	7.0	0.9	89.0	-95.0	0.1	12.0	3.0	1.0	-1.0475505787088082	0.455	n/a	stim	poldrack-single-stim	s594	False	1
372.166	0.737	372.903	-3.333644373517256	draw_card	0.737	columbia_card_task_fmri	7.0	0.8888888888888888	89.0	-95.0	0.1111111111111111	12.0	4.0	1.0	0.4072159374693456	0.737	n/a	stim	poldrack-single-stim	s594	False	1
372.911	0.608	373.519	-4.750311040183922	end_round	0.608	columbia_card_task_fmri	7.0	0.875	71.0	-95.0	0.125	12.0	5.0	1.0	2.0842629522567364	0.608	4.0	stim	poldrack-single-stim	s594	False	1
374.281	1.5	373.53	n/a	-1.0	2.59	columbia_card_task_fmri	n/a	n/a	-1.0	n/a	n/a	n/a	n/a	n/a	n/a	n/a	n/a	ITI	poldrack-single-stim	s594	False	0
376.131	1.091	377.222	0.1663556264827457	draw_card	1.091	columbia_card_task_fmri	14.0	0.8333333333333334	89.0	-75.0	0.1666666666666666	12.0	1.0	2.0	1.5195275558539194	1.091	n/a	stim	poldrack-single-stim	s594	False	1
377.232	0.65	377.882	-1.1821292220021056	draw_card	0.65	columbia_card_task_fmri	14.0	0.8181818181818181	89.0	-75.0	0.1818181818181818	12.0	2.0	2.0	2.67749789995154	0.65	n/a	stim	poldrack-single-stim	s594	False	1
377.892	0.761	378.653	-2.800311040183921	draw_card	0.761	columbia_card_task_fmri	14.0	0.8	89.0	-75.0	0.2	12.0	3.0	2.0	3.950157512114828	0.761	n/a	stim	poldrack-single-stim	s594	False	1
378.664	0.793	379.457	-4.778088817961697	draw_card	0.793	columbia_card_task_fmri	14.0	0.7777777777777778	89.0	-75.0	0.2222222222222222	12.0	4.0	2.0	5.350460568323484	0.793	n/a	stim	poldrack-single-stim	s594	False	1
379.468	1.046	380.514	-7.250311040183922	draw_card	1.046	columbia_card_task_fmri	14.0	0.75	89.0	-75.0	0.25	12.0	5.0	2.0	6.887218451561303	1.046	n/a	stim	poldrack-single-stim	s594	False	1
380.524	1.068	381.592	-10.428882468755347	end_round	1.068	columbia_card_task_fmri	14.0	0.7142857142857143	71.0	-75.0	0.2857142857142857	12.0	6.0	2.0	8.554652017463859	1.068	5.0	stim	poldrack-single-stim	s594	False	1
382.356	1.5	381.605	n/a	-1.0	2.318	columbia_card_task_fmri	n/a	n/a	-1.0	n/a	n/a	n/a	n/a	n/a	n/a	n/a	n/a	ITI	poldrack-single-stim	s594	False	0
383.935	2.286	386.221	1.833022293149412	draw_card	2.286	columbia_card_task_fmri	15.0	0.8333333333333334	89.0	-70.0	0.1666666666666666	12.0	1.0	2.0	0.0295240175967954	2.286	n/a	stim	poldrack-single-stim	s594	False	1
386.234	1.231	387.465	0.545143505270621	draw_card	1.231	columbia_card_task_fmri	15.0	0.8181818181818181	89.0	-70.0	0.1818181818181818	12.0	2.0	2.0	1.1354040384055324	1.231	n/a	stim	poldrack-single-stim	s594	False	1
387.478	0.492	387.97	-1.000311040183922	draw_card	0.492	columbia_card_task_fmri	15.0	0.8	89.0	-70.0	0.2	12.0	3.0	2.0	2.3508176305200905	0.492	n/a	stim	poldrack-single-stim	s594	False	1
387.98	0.494	388.474	-2.889199929072811	draw_card	0.494	columbia_card_task_fmri	15.0	0.7777777777777778	89.0	-70.0	0.2222222222222222	12.0	4.0	2.0	3.68813688560698	0.494	n/a	stim	poldrack-single-stim	s594	False	1
388.485	0.823	389.308	-5.250311040183922	draw_card	0.823	columbia_card_task_fmri	15.0	0.75	89.0	-70.0	0.25	12.0	5.0	2.0	5.155777490640212	0.823	n/a	stim	poldrack-single-stim	s594	False	1
389.319	0.7	390.019	-8.286025325898207	draw_card	0.7	columbia_card_task_fmri	15.0	0.7142857142857143	89.0	-70.0	0.2857142857142857	12.0	6.0	2.0	6.74822078359292	0.7	n/a	stim	poldrack-single-stim	s594	False	1
390.03	0.869	390.899	-12.333644373517252	end_round	0.869	columbia_card_task_fmri	15.0	0.6666666666666667	71.0	-70.0	0.3333333333333333	12.0	7.0	2.0	8.417976990886658	0.869	6.0	stim	poldrack-single-stim	s594	False	1
391.662	1.5	390.911	n/a	-1.0	2.25	columbia_card_task_fmri	n/a	n/a	-1.0	n/a	n/a	n/a	n/a	n/a	n/a	n/a	n/a	ITI	poldrack-single-stim	s594	False	0
393.173	2.022	395.195	-0.2003110401839214	draw_card	2.022	columbia_card_task_fmri	16.0	0.8	89.0	-70.0	0.2	15.0	1.0	3.0	2.7506468476891186	2.022	n/a	stim	poldrack-single-stim	s594	False	1
395.208	1.05	396.258	-1.428882468755351	draw_card	1.05	columbia_card_task_fmri	16.0	0.7857142857142857	89.0	-70.0	0.2142857142857142	15.0	2.0	3.0	3.6383092144816302	1.05	2.0	stim	poldrack-single-stim	s594	False	0
397.021	1.5	396.27	n/a	-1.0	2.454	columbia_card_task_fmri	n/a	n/a	-1.0	n/a	n/a	n/a	n/a	n/a	n/a	n/a	n/a	ITI	poldrack-single-stim	s594	False	0
398.736	2.208	400.944	0.1871889598160778	draw_card	2.208	columbia_card_task_fmri	14.0	0.8125	89.0	-65.0	0.1875	16.0	1.0	3.0	-0.8129971456588052	2.208	1.0	stim	poldrack-single-stim	s594	False	0
401.706	1.5	400.955	n/a	-1.0	3.27	columbia_card_task_fmri	n/a	n/a	-1.0	n/a	n/a	n/a	n/a	n/a	n/a	n/a	n/a	ITI	poldrack-single-stim	s594	False	0
404.237	3.201	407.438	-0.0628110401839221	draw_card	3.201	columbia_card_task_fmri	16.0	0.8125	89.0	-75.0	0.1875	16.0	1.0	3.0	3.868615845360665	3.201	n/a	stim	poldrack-single-stim	s594	False	1
407.45	0.681	408.131	-1.2003110401839214	end_round	0.681	columbia_card_task_fmri	16.0	0.8	71.0	-75.0	0.2	16.0	2.0	3.0	4.749849202373724	0.681	1.0	stim	poldrack-single-stim	s594	False	1
408.895	1.5	408.144	n/a	-1.0	2.25	columbia_card_task_fmri	n/a	n/a	-1.0	n/a	n/a	n/a	n/a	n/a	n/a	n/a	n/a	ITI	poldrack-single-stim	s594	False	0
410.406	1.353	411.759	4.199688959816079	draw_card	1.353	columbia_card_task_fmri	16.0	0.8666666666666667	89.0	-80.0	0.1333333333333333	15.0	1.0	2.0	0.985157409688604	1.353	n/a	stim	poldrack-single-stim	s594	False	1
411.771	0.571	412.342	3.2854032455303663	draw_card	0.571	columbia_card_task_fmri	16.0	0.8571428571428572	89.0	-80.0	0.1428571428571428	15.0	2.0	2.0	1.9439977595754383	0.571	n/a	stim	poldrack-single-stim	s594	False	1
412.352	0.878	413.23	2.230458190585308	draw_card	0.878	columbia_card_task_fmri	16.0	0.8461538461538461	89.0	-80.0	0.1538461538461538	15.0	3.0	2.0	2.9874639336682165	0.878	n/a	stim	poldrack-single-stim	s594	False	1
413.241	0.841	414.082	0.9996889598160796	end_round	0.841	columbia_card_task_fmri	16.0	0.8333333333333334	71.0	-80.0	0.1666666666666666	15.0	4.0	2.0	4.127175717249358	0.841	3.0	stim	poldrack-single-stim	s594	False	1
414.847	1.5	414.096	n/a	-1.0	2.25	columbia_card_task_fmri	n/a	n/a	-1.0	n/a	n/a	n/a	n/a	n/a	n/a	n/a	n/a	ITI	poldrack-single-stim	s594	False	0
416.358	1.6	417.958	5.066355626482746	draw_card	1.6	columbia_card_task_fmri	17.0	0.8666666666666667	89.0	-80.0	0.1333333333333333	15.0	1.0	2.0	1.3249342976865606	1.6	n/a	stim	poldrack-single-stim	s594	False	1
417.968	0.568	418.536	4.142546102673224	draw_card	0.568	columbia_card_task_fmri	17.0	0.8571428571428572	89.0	-80.0	0.1428571428571428	15.0	2.0	2.0	2.293771618021914	0.568	n/a	stim	poldrack-single-stim	s594	False	1
418.548	0.483	419.031	3.0766120367391547	draw_card	0.483	columbia_card_task_fmri	17.0	0.8461538461538461	89.0	-80.0	0.1538461538461538	15.0	3.0	2.0	3.3481165111974605	0.483	n/a	stim	poldrack-single-stim	s594	False	1
419.043	0.575	419.618	1.8330222931494136	draw_card	0.575	columbia_card_task_fmri	17.0	0.8333333333333334	89.0	-80.0	0.1666666666666666	15.0	4.0	2.0	4.49970980996256	0.575	n/a	stim	poldrack-single-stim	s594	False	1
419.63	0.686	420.316	0.3633253234524394	draw_card	0.686	columbia_card_task_fmri	17.0	0.8181818181818181	89.0	-80.0	0.1818181818181818	15.0	5.0	2.0	5.761854903602711	0.686	n/a	stim	poldrack-single-stim	s594	False	1
420.327	0.793	421.12	-1.4003110401839207	draw_card	0.793	columbia_card_task_fmri	17.0	0.8	89.0	-80.0	0.2	15.0	6.0	2.0	7.149000516046172	0.793	6.0	stim	poldrack-single-stim	s594	False	0
421.883	1.5	421.132	n/a	-1.0	2.318	columbia_card_task_fmri	n/a	n/a	-1.0	n/a	n/a	n/a	n/a	n/a	n/a	n/a	n/a	ITI	poldrack-single-stim	s594	False	0
423.46	2.329	425.789	0.999688959816078	draw_card	2.329	columbia_card_task_fmri	1.0	0.9375	89.0	-15.0	0.0625	16.0	1.0	1.0	-27.663953678712627	2.329	n/a	stim	poldrack-single-stim	s594	False	1
425.802	1.275	427.077	0.9330222931494112	draw_card	1.275	columbia_card_task_fmri	1.0	0.9333333333333332	89.0	-15.0	0.0666666666666666	16.0	2.0	1.0	-27.54947841575423	1.275	n/a	stim	poldrack-single-stim	s594	False	1
427.088	0.706	427.794	0.8568318169589351	draw_card	0.706	columbia_card_task_fmri	1.0	0.9285714285714286	89.0	-15.0	0.0714285714285714	16.0	3.0	1.0	-27.42371439379923	0.706	n/a	stim	poldrack-single-stim	s594	False	1
427.803	0.454	428.257	0.768919729046847	draw_card	0.454	columbia_card_task_fmri	1.0	0.9230769230769232	89.0	-15.0	0.0769230769230769	16.0	4.0	1.0	-27.284732999101305	0.454	n/a	stim	poldrack-single-stim	s594	False	1
428.268	0.574	428.842	0.6663556264827445	draw_card	0.574	columbia_card_task_fmri	1.0	0.9166666666666666	89.0	-15.0	0.0833333333333333	16.0	5.0	1.0	-27.130121021329398	0.574	n/a	stim	poldrack-single-stim	s594	False	1
428.854	0.44	429.294	0.5451435052706232	draw_card	0.44	columbia_card_task_fmri	1.0	0.9090909090909092	89.0	-15.0	0.0909090909090909	16.0	6.0	1.0	-26.95681710205593	0.44	n/a	stim	poldrack-single-stim	s594	False	1
429.304	0.417	429.721	0.3996889598160779	draw_card	0.417	columbia_card_task_fmri	1.0	0.9	89.0	-15.0	0.1	16.0	7.0	1.0	-26.760879089664886	0.417	n/a	stim	poldrack-single-stim	s594	False	1
429.732	0.424	430.156	0.2219111820383001	draw_card	0.424	columbia_card_task_fmri	1.0	0.8888888888888888	89.0	-15.0	0.1111111111111111	16.0	8.0	1.0	-26.5371490371747	0.424	n/a	stim	poldrack-single-stim	s594	False	1
430.168	0.554	430.722	-0.0003110401839221	draw_card	0.554	columbia_card_task_fmri	1.0	0.875	89.0	-15.0	0.125	16.0	9.0	1.0	-26.278768872908937	0.554	n/a	stim	poldrack-single-stim	s594	False	1
430.734	0.811	431.545	-0.2860253258982077	draw_card	0.811	columbia_card_task_fmri	1.0	0.8571428571428572	89.0	-15.0	0.1428571428571428	16.0	10.0	1.0	-25.97649368578258	0.811	n/a	stim	poldrack-single-stim	s594	False	1
431.555	1.952	433.507	-0.6669777068505887	draw_card	1.952	columbia_card_task_fmri	1.0	0.8333333333333334	89.0	-15.0	0.1666666666666666	16.0	11.0	1.0	-25.61780831775137	1.952	n/a	stim	poldrack-single-stim	s594	False	1
433.519	0.816	434.335	-1.2003110401839223	draw_card	0.816	columbia_card_task_fmri	1.0	0.8	89.0	-15.0	0.2	16.0	12.0	1.0	-25.18627004384711	0.816	n/a	stim	poldrack-single-stim	s594	False	1
434.346	0.764	435.11	-2.000311040183922	end_round	0.764	columbia_card_task_fmri	1.0	0.75	71.0	-15.0	0.25	16.0	13.0	1.0	-24.66392035754684	0.764	12.0	stim	poldrack-single-stim	s594	False	1
435.87	1.5	435.119	n/a	-1.0	2.726	columbia_card_task_fmri	n/a	n/a	-1.0	n/a	n/a	n/a	n/a	n/a	n/a	n/a	n/a	ITI	poldrack-single-stim	s594	False	0
437.856	1.986	439.842	4.124688959816078	draw_card	1.986	columbia_card_task_fmri	10.0	0.9375	89.0	-100.0	0.0625	16.0	1.0	1.0	-5.018355612015032	1.986	n/a	stim	poldrack-single-stim	s594	False	1
439.854	0.612	440.466	3.666355626482745	draw_card	0.612	columbia_card_task_fmri	10.0	0.9333333333333332	89.0	-100.0	0.0666666666666666	16.0	2.0	1.0	-4.206850109546842	0.612	n/a	stim	poldrack-single-stim	s594	False	1
440.477	0.569	441.046	3.142546102673222	draw_card	0.569	columbia_card_task_fmri	10.0	0.9285714285714286	89.0	-100.0	0.0714285714285714	16.0	3.0	1.0	-3.316911393663869	0.569	n/a	stim	poldrack-single-stim	s594	False	1
441.056	0.652	441.708	2.5381504982776173	draw_card	0.652	columbia_card_task_fmri	10.0	0.9230769230769232	89.0	-100.0	0.0769230769230769	16.0	4.0	1.0	-2.3352043670181075	0.652	n/a	stim	poldrack-single-stim	s594	False	1
441.719	0.585	442.304	1.833022293149412	draw_card	0.585	columbia_card_task_fmri	10.0	0.9166666666666666	89.0	-100.0	0.0833333333333333	16.0	5.0	1.0	-1.2450506145531044	0.585	n/a	stim	poldrack-single-stim	s594	False	1
442.316	0.635	442.951	0.999688959816076	draw_card	0.635	columbia_card_task_fmri	10.0	0.9090909090909092	89.0	-100.0	0.0909090909090909	16.0	6.0	1.0	-0.0253017204041015	0.635	n/a	stim	poldrack-single-stim	s594	False	1
442.962	1.131	444.093	-0.0003110401839221	draw_card	1.131	columbia_card_task_fmri	10.0	0.9	89.0	-100.0	0.1	16.0	7.0	1.0	1.351262688762375	1.131	n/a	stim	poldrack-single-stim	s594	False	1
444.104	0.817	444.921	-1.2225332624061436	draw_card	0.817	columbia_card_task_fmri	10.0	0.8888888888888888	89.0	-100.0	0.1111111111111111	16.0	8.0	1.0	2.9202404590469087	0.817	n/a	stim	poldrack-single-stim	s594	False	1
444.933	0.76	445.693	-2.750311040183922	draw_card	0.76	columbia_card_task_fmri	10.0	0.875	89.0	-100.0	0.125	16.0	9.0	1.0	4.728937619052047	0.76	n/a	stim	poldrack-single-stim	s594	False	1
445.704	0.624	446.328	-4.714596754469634	draw_card	0.624	columbia_card_task_fmri	10.0	0.8571428571428572	89.0	-100.0	0.1428571428571428	16.0	10.0	1.0	6.8410851929159975	0.624	10.0	stim	poldrack-single-stim	s594	False	0
447.091	1.5	446.34	n/a	-1.0	2.386	columbia_card_task_fmri	n/a	n/a	-1.0	n/a	n/a	n/a	n/a	n/a	n/a	n/a	n/a	ITI	poldrack-single-stim	s594	False	0
448.738	1.727	450.465	4.749688959816078	draw_card	1.727	columbia_card_task_fmri	15.0	0.875	89.0	-75.0	0.125	16.0	1.0	2.0	-1.8823904395795663	1.727	n/a	stim	poldrack-single-stim	s594	False	1
450.475	0.398	450.873	3.999688959816078	draw_card	0.398	columbia_card_task_fmri	15.0	0.8666666666666667	89.0	-75.0	0.1333333333333333	16.0	2.0	2.0	-1.0534303596376515	0.398	2.0	stim	poldrack-single-stim	s594	False	0
451.639	1.5	450.888	n/a	-1.0	2.318	columbia_card_task_fmri	n/a	n/a	-1.0	n/a	n/a	n/a	n/a	n/a	n/a	n/a	n/a	ITI	poldrack-single-stim	s594	False	0
453.219	0.906	454.125	4.999688959816078	draw_card	0.906	columbia_card_task_fmri	16.0	0.875	89.0	-80.0	0.125	16.0	1.0	2.0	0.1008746280652381	0.906	n/a	stim	poldrack-single-stim	s594	False	1
454.136	0.602	454.738	4.199688959816079	draw_card	0.602	columbia_card_task_fmri	16.0	0.8666666666666667	89.0	-80.0	0.1333333333333333	16.0	2.0	2.0	0.985157409688604	0.602	2.0	stim	poldrack-single-stim	s594	False	0
455.5	1.5	454.749	n/a	-1.0	2.25	columbia_card_task_fmri	n/a	n/a	-1.0	n/a	n/a	n/a	n/a	n/a	n/a	n/a	n/a	ITI	poldrack-single-stim	s594	False	0
457.011	0.512	457.523	2.187188959816078	draw_card	0.512	columbia_card_task_fmri	4.0	0.6875	89.0	-5.0	0.3125	16.0	1.0	5.0	-27.374153122365296	0.512	n/a	stim	poldrack-single-stim	s594	False	1
457.534	0.894	458.428	1.9996889598160783	draw_card	0.894	columbia_card_task_fmri	4.0	0.6666666666666667	89.0	-5.0	0.3333333333333333	16.0	2.0	5.0	-27.305048333462054	0.894	n/a	stim	poldrack-single-stim	s594	False	1
458.439	0.427	458.866	1.7854032455303632	draw_card	0.427	columbia_card_task_fmri	4.0	0.6428571428571428	89.0	-5.0	0.3571428571428571	16.0	3.0	5.0	-27.23710320126743	0.427	3.0	stim	poldrack-single-stim	s594	False	0
459.631	1.5	458.88	n/a	-1.0	2.25	columbia_card_task_fmri	n/a	n/a	-1.0	n/a	n/a	n/a	n/a	n/a	n/a	n/a	n/a	ITI	poldrack-single-stim	s594	False	0
461.143	0.583	461.726	-0.6669777068505864	draw_card	0.583	columbia_card_task_fmri	14.0	0.8333333333333334	89.0	-80.0	0.1666666666666666	6.0	1.0	1.0	3.3821167116459208	0.583	n/a	stim	poldrack-single-stim	s594	False	1
461.737	1.818	463.555	-3.800311040183921	draw_card	1.818	columbia_card_task_fmri	14.0	0.8	89.0	-80.0	0.2	6.0	2.0	1.0	5.949411323523272	1.818	n/a	stim	poldrack-single-stim	s594	False	1
463.567	0.624	464.191	-8.500311040183922	end_round	0.624	columbia_card_task_fmri	14.0	0.75	71.0	-80.0	0.25	6.0	3.0	1.0	9.051592604895056	0.624	2.0	stim	poldrack-single-stim	s594	False	1
464.953	1.5	464.202	n/a	-1.0	2.454	columbia_card_task_fmri	n/a	n/a	-1.0	n/a	n/a	n/a	n/a	n/a	n/a	n/a	n/a	ITI	poldrack-single-stim	s594	False	0
466.672	1.024	467.696	0.999688959816078	draw_card	1.024	columbia_card_task_fmri	15.0	0.8333333333333334	89.0	-75.0	0.1666666666666666	6.0	1.0	1.0	1.8920382732532064	1.024	n/a	stim	poldrack-single-stim	s594	False	1
467.706	0.988	468.694	-2.000311040183922	draw_card	0.988	columbia_card_task_fmri	15.0	0.8	89.0	-75.0	0.2	6.0	2.0	1.0	4.350001645402365	0.988	n/a	stim	poldrack-single-stim	s594	False	1
468.707	0.533	469.24	-6.500311040183922	draw_card	0.533	columbia_card_task_fmri	15.0	0.75	89.0	-75.0	0.25	6.0	3.0	1.0	7.320087157608782	0.533	3.0	stim	poldrack-single-stim	s594	False	0
470.004	1.5	469.253	n/a	-1.0	2.454	columbia_card_task_fmri	n/a	n/a	-1.0	n/a	n/a	n/a	n/a	n/a	n/a	n/a	n/a	ITI	poldrack-single-stim	s594	False	0
471.72	0.813	472.533	2.666355626482746	draw_card	0.813	columbia_card_task_fmri	16.0	0.8333333333333334	89.0	-70.0	0.1666666666666666	6.0	1.0	1.0	0.4020187283176639	0.813	1.0	stim	poldrack-single-stim	s594	False	0
473.298	1.5	472.547	n/a	-1.0	2.522	columbia_card_task_fmri	n/a	n/a	-1.0	n/a	n/a	n/a	n/a	n/a	n/a	n/a	n/a	ITI	poldrack-single-stim	s594	False	0
475.081	1.153	476.234	3.249688959816078	draw_card	1.153	columbia_card_task_fmri	23.0	0.75	89.0	-60.0	0.25	8.0	1.0	2.0	4.290079040435032	1.153	1.0	stim	poldrack-single-stim	s594	False	0
477.001	1.5	476.25	n/a	-1.0	2.386	columbia_card_task_fmri	n/a	n/a	-1.0	n/a	n/a	n/a	n/a	n/a	n/a	n/a	n/a	ITI	poldrack-single-stim	s594	False	0
478.649	1.311	479.96	3.749688959816078	draw_card	1.311	columbia_card_task_fmri	27.0	0.75	89.0	-70.0	0.25	8.0	1.0	2.0	10.350251194290207	1.311	n/a	stim	poldrack-single-stim	s594	False	1
479.972	0.565	480.537	0.2854032455303625	draw_card	0.565	columbia_card_task_fmri	27.0	0.7142857142857143	89.0	-70.0	0.2857142857142857	8.0	2.0	2.0	12.167659060787798	0.565	n/a	stim	poldrack-single-stim	s594	False	1
480.549	0.729	481.278	-4.3336443735172505	draw_card	0.729	columbia_card_task_fmri	27.0	0.6666666666666667	89.0	-70.0	0.3333333333333333	8.0	3.0	2.0	14.073289121026882	0.729	3.0	stim	poldrack-single-stim	s594	False	0
482.042	1.5	481.291	n/a	-1.0	2.454	columbia_card_task_fmri	n/a	n/a	-1.0	n/a	n/a	n/a	n/a	n/a	n/a	n/a	n/a	ITI	poldrack-single-stim	s594	False	0
483.759	1.115	484.874	-1.0003110401839204	draw_card	1.115	columbia_card_task_fmri	16.0	0.7777777777777778	89.0	-65.0	0.2222222222222222	9.0	1.0	2.0	2.0258758947922004	1.115	1.0	stim	poldrack-single-stim	s594	False	0
485.637	1.5	484.886	n/a	-1.0	2.522	columbia_card_task_fmri	n/a	n/a	-1.0	n/a	n/a	n/a	n/a	n/a	n/a	n/a	n/a	ITI	poldrack-single-stim	s594	False	0
487.42	1.343	488.763	4.199688959816079	end_round	1.343	columbia_card_task_fmri	13.0	0.9	71.0	-85.0	0.1	10.0	1.0	1.0	-2.2468846151811768	1.343	0.0	stim	poldrack-single-stim	s594	False	1
489.525	1.5	488.774	n/a	-1.0	2.522	columbia_card_task_fmri	n/a	n/a	-1.0	n/a	n/a	n/a	n/a	n/a	n/a	n/a	n/a	ITI	poldrack-single-stim	s594	False	0
491.307	1.123	492.43	-0.8003110401839211	draw_card	1.123	columbia_card_task_fmri	14.0	0.8	89.0	-65.0	0.2	10.0	1.0	2.0	-0.048066941202844	1.123	1.0	stim	poldrack-single-stim	s594	False	0
493.192	1.5	492.441	n/a	-1.0	2.59	columbia_card_task_fmri	n/a	n/a	-1.0	n/a	n/a	n/a	n/a	n/a	n/a	n/a	n/a	ITI	poldrack-single-stim	s594	False	0
495.045	1.22	496.265	0.5996889598160793	draw_card	1.22	columbia_card_task_fmri	17.0	0.8	89.0	-70.0	0.2	10.0	1.0	2.0	3.150479988443756	1.22	n/a	stim	poldrack-single-stim	s594	False	1
496.276	1.047	497.323	-1.3336443735172543	end_round	1.047	columbia_card_task_fmri	17.0	0.7777777777777778	71.0	-70.0	0.2222222222222222	10.0	2.0	2.0	4.519291430504666	1.047	1.0	stim	poldrack-single-stim	s594	False	1
498.089	1.5	497.338	n/a	-1.0	2.454	columbia_card_task_fmri	n/a	n/a	-1.0	n/a	n/a	n/a	n/a	n/a	n/a	n/a	n/a	ITI	poldrack-single-stim	s594	False	0
499.806	1.329	501.135	-0.6669777068505882	draw_card	1.329	columbia_card_task_fmri	13.0	0.8333333333333334	89.0	-75.0	0.1666666666666666	12.0	1.0	2.0	1.1470206376290548	1.329	n/a	stim	poldrack-single-stim	s594	False	1
501.148	0.592	501.74	-2.000311040183924	draw_card	0.592	columbia_card_task_fmri	13.0	0.8181818181818181	89.0	-75.0	0.1818181818181818	12.0	2.0	2.0	2.291968603983939	0.592	2.0	stim	poldrack-single-stim	s594	False	0
502.504	1.5	501.753	n/a	-1.0	2.318	columbia_card_task_fmri	n/a	n/a	-1.0	n/a	n/a	n/a	n/a	n/a	n/a	n/a	n/a	ITI	poldrack-single-stim	s594	False	0
504.087	1.746	505.833	0.9996889598160796	draw_card	1.746	columbia_card_task_fmri	14.0	0.8333333333333334	89.0	-70.0	0.1666666666666666	12.0	1.0	2.0	-0.3429663324785785	1.746	1.0	stim	poldrack-single-stim	s594	False	0
506.598	1.5	505.847	n/a	-1.0	2.25	columbia_card_task_fmri	n/a	n/a	-1.0	n/a	n/a	n/a	n/a	n/a	n/a	n/a	n/a	ITI	poldrack-single-stim	s594	False	0
508.11	1.606	509.716	0.9996889598160796	end_round	1.606	columbia_card_task_fmri	16.0	0.8333333333333334	71.0	-80.0	0.1666666666666666	12.0	1.0	2.0	4.127175717249358	1.606	0.0	stim	poldrack-single-stim	s594	False	1
510.477	1.5	509.726	n/a	-1.0	2.658	columbia_card_task_fmri	n/a	n/a	-1.0	n/a	n/a	n/a	n/a	n/a	n/a	n/a	n/a	ITI	poldrack-single-stim	s594	False	0
512.398	1.469	513.867	0.7996889598160786	draw_card	1.469	columbia_card_task_fmri	16.0	0.8	89.0	-65.0	0.2	15.0	1.0	3.0	0.7515429014157107	1.469	n/a	stim	poldrack-single-stim	s594	False	1
513.879	0.647	514.526	-0.357453897326778	draw_card	0.647	columbia_card_task_fmri	16.0	0.7857142857142857	89.0	-65.0	0.2142857142857142	15.0	2.0	3.0	1.5875532314871634	0.647	n/a	stim	poldrack-single-stim	s594	False	1
514.539	0.684	515.223	-1.6926187324916155	draw_card	0.684	columbia_card_task_fmri	16.0	0.7692307692307692	89.0	-65.0	0.2307692307692307	15.0	3.0	3.0	2.478091415615907	0.684	n/a	stim	poldrack-single-stim	s594	False	1
515.235	1.097	516.332	-3.250311040183922	end_round	1.097	columbia_card_task_fmri	16.0	0.75	71.0	-65.0	0.25	15.0	4.0	3.0	3.4243967264884816	1.097	3.0	stim	poldrack-single-stim	s594	False	1
517.096	1.5	516.345	n/a	-1.0	2.454	columbia_card_task_fmri	n/a	n/a	-1.0	n/a	n/a	n/a	n/a	n/a	n/a	n/a	n/a	ITI	poldrack-single-stim	s594	False	0
518.811	1.017	519.828	-0.8753110401839221	draw_card	1.017	columbia_card_task_fmri	15.0	0.8125	89.0	-75.0	0.1875	16.0	1.0	3.0	3.4784596926656803	1.017	n/a	stim	poldrack-single-stim	s594	False	1
519.841	0.564	520.405	-2.000311040183922	draw_card	0.564	columbia_card_task_fmri	15.0	0.8	89.0	-75.0	0.2	16.0	2.0	3.0	4.350001645402365	0.564	n/a	stim	poldrack-single-stim	s594	False	1
520.418	0.47	520.888	-3.2860253258982066	draw_card	0.47	columbia_card_task_fmri	15.0	0.7857142857142857	89.0	-75.0	0.2142857142857142	16.0	3.0	3.0	5.278983843170551	0.47	n/a	stim	poldrack-single-stim	s594	False	1
520.901	0.687	521.588	-4.769541809414696	draw_card	0.687	columbia_card_task_fmri	15.0	0.7692307692307692	89.0	-75.0	0.2307692307692307	16.0	4.0	3.0	6.268553474155759	0.687	n/a	stim	poldrack-single-stim	s594	False	1
521.6	0.874	522.474	-6.500311040183922	end_round	0.874	columbia_card_task_fmri	15.0	0.75	71.0	-75.0	0.25	16.0	5.0	3.0	7.320087157608782	0.874	4.0	stim	poldrack-single-stim	s594	False	1
523.239	1.5	522.488	n/a	-1.0	2.386	columbia_card_task_fmri	n/a	n/a	-1.0	n/a	n/a	n/a	n/a	n/a	n/a	n/a	n/a	ITI	poldrack-single-stim	s594	False	0
524.888	2.006	526.894	-0.3128110401839221	draw_card	2.006	columbia_card_task_fmri	14.0	0.6875	89.0	-35.0	0.3125	16.0	1.0	5.0	-8.9297777124286	2.006	n/a	stim	poldrack-single-stim	s594	False	1
526.907	0.565	527.472	-1.3336443735172543	end_round	0.565	columbia_card_task_fmri	14.0	0.6666666666666667	71.0	-35.0	0.3333333333333333	16.0	2.0	5.0	-8.543431869131805	0.565	1.0	stim	poldrack-single-stim	s594	False	1
528.239	1.5	527.488	n/a	-1.0	2.59	columbia_card_task_fmri	n/a	n/a	-1.0	n/a	n/a	n/a	n/a	n/a	n/a	n/a	n/a	ITI	poldrack-single-stim	s594	False	0
530.091	1.077	531.168	4.866355626482745	draw_card	1.077	columbia_card_task_fmri	16.0	0.8666666666666667	89.0	-75.0	0.1333333333333333	15.0	1.0	2.0	-0.7136750651967461	1.077	n/a	stim	poldrack-single-stim	s594	False	1
531.179	0.583	531.762	3.99968895981608	draw_card	0.583	columbia_card_task_fmri	16.0	0.8571428571428572	89.0	-75.0	0.1428571428571428	15.0	2.0	2.0	0.1951789526562812	0.583	n/a	stim	poldrack-single-stim	s594	False	1
531.775	0.403	532.178	2.999688959816078	draw_card	0.403	columbia_card_task_fmri	16.0	0.8461538461538461	89.0	-75.0	0.1538461538461538	15.0	3.0	2.0	1.184250013744439	0.403	n/a	stim	poldrack-single-stim	s594	False	1
532.191	0.479	532.67	1.833022293149412	draw_card	0.479	columbia_card_task_fmri	16.0	0.8333333333333334	89.0	-75.0	0.1666666666666666	15.0	4.0	2.0	2.2645526646899654	0.479	n/a	stim	poldrack-single-stim	s594	False	1
532.684	0.692	533.376	0.4542344143615311	draw_card	0.692	columbia_card_task_fmri	16.0	0.8181818181818181	89.0	-75.0	0.1818181818181818	15.0	5.0	2.0	3.4485673848241376	0.692	n/a	stim	poldrack-single-stim	s594	False	1
533.389	0.563	533.952	-1.2003110401839214	end_round	0.563	columbia_card_task_fmri	16.0	0.8	71.0	-75.0	0.2	15.0	6.0	2.0	4.749849202373724	0.563	5.0	stim	poldrack-single-stim	s594	False	1
534.714	1.5	533.963	n/a	-1.0	2.318	columbia_card_task_fmri	n/a	n/a	-1.0	n/a	n/a	n/a	n/a	n/a	n/a	n/a	n/a	ITI	poldrack-single-stim	s594	False	0
536.294	1.723	538.017	5.533022293149411	draw_card	1.723	columbia_card_task_fmri	16.0	0.8666666666666667	89.0	-70.0	0.1333333333333333	15.0	1.0	2.0	-2.4124098658004804	1.723	n/a	stim	poldrack-single-stim	s594	False	1
538.028	0.468	538.496	4.713974674101793	draw_card	0.468	columbia_card_task_fmri	16.0	0.8571428571428572	89.0	-70.0	0.1428571428571428	15.0	2.0	2.0	-1.5535449607571614	0.468	n/a	stim	poldrack-single-stim	s594	False	1
538.51	0.424	538.934	3.7689197290468464	draw_card	0.424	columbia_card_task_fmri	16.0	0.8461538461538461	89.0	-70.0	0.1538461538461538	15.0	3.0	2.0	-0.618871864540516	0.424	n/a	stim	poldrack-single-stim	s594	False	1
538.947	0.418	539.365	2.666355626482746	draw_card	0.418	columbia_card_task_fmri	16.0	0.8333333333333334	89.0	-70.0	0.1666666666666666	15.0	4.0	2.0	0.4020187283176639	0.418	n/a	stim	poldrack-single-stim	s594	False	1
539.377	0.408	539.785	1.3633253234524394	draw_card	0.408	columbia_card_task_fmri	16.0	0.8181818181818181	89.0	-70.0	0.1818181818181818	15.0	5.0	2.0	1.5209215377377134	0.408	n/a	stim	poldrack-single-stim	s594	False	1
539.798	1.17	540.968	-0.2003110401839214	end_round	1.17	columbia_card_task_fmri	16.0	0.8	71.0	-70.0	0.2	15.0	6.0	2.0	2.7506468476891186	1.17	5.0	stim	poldrack-single-stim	s594	False	1
541.733	1.5	540.982	n/a	-1.0	2.59	columbia_card_task_fmri	n/a	n/a	-1.0	n/a	n/a	n/a	n/a	n/a	n/a	n/a	n/a	ITI	poldrack-single-stim	s594	False	0
543.584	2.727	546.311	2.874688959816078	draw_card	2.727	columbia_card_task_fmri	8.0	0.9375	89.0	-90.0	0.0625	16.0	1.0	1.0	-7.920797927850099	2.727	n/a	stim	poldrack-single-stim	s594	False	1
546.323	0.499	546.822	2.466355626482745	draw_card	0.499	columbia_card_task_fmri	8.0	0.9333333333333332	89.0	-90.0	0.0666666666666666	16.0	2.0	1.0	-7.197948597515943	0.499	2.0	stim	poldrack-single-stim	s594	False	0
547.59	1.5	546.839	n/a	-1.0	2.386	columbia_card_task_fmri	n/a	n/a	-1.0	n/a	n/a	n/a	n/a	n/a	n/a	n/a	n/a	ITI	poldrack-single-stim	s594	False	0
549.239	1.466	550.705	4.437188959816078	draw_card	1.466	columbia_card_task_fmri	10.0	0.9375	89.0	-95.0	0.0625	16.0	1.0	1.0	-6.227770257822897	1.466	n/a	stim	poldrack-single-stim	s594	False	1
550.719	0.425	551.144	3.999688959816079	draw_card	0.425	columbia_card_task_fmri	10.0	0.9333333333333332	89.0	-95.0	0.0666666666666666	16.0	2.0	1.0	-5.453202950922311	0.425	n/a	stim	poldrack-single-stim	s594	False	1
551.158	0.364	551.522	3.499688959816079	draw_card	0.364	columbia_card_task_fmri	10.0	0.9285714285714286	89.0	-95.0	0.0714285714285714	16.0	3.0	1.0	-4.603769167162824	0.364	n/a	stim	poldrack-single-stim	s594	False	1
551.535	0.386	551.921	2.922765882893001	draw_card	0.386	columbia_card_task_fmri	10.0	0.9230769230769232	89.0	-95.0	0.0769230769230769	16.0	4.0	1.0	-3.666740099659627	0.386	n/a	stim	poldrack-single-stim	s594	False	1
551.935	0.473	552.408	2.249688959816078	draw_card	0.473	columbia_card_task_fmri	10.0	0.9166666666666666	89.0	-95.0	0.0833333333333333	16.0	5.0	1.0	-2.6261956160333	0.473	n/a	stim	poldrack-single-stim	s594	False	1
552.422	0.391	552.813	1.4542344143615311	draw_card	0.391	columbia_card_task_fmri	10.0	0.9090909090909092	89.0	-95.0	0.0909090909090909	16.0	6.0	1.0	-1.4619487926548125	0.391	n/a	stim	poldrack-single-stim	s594	False	1
552.827	0.431	553.258	0.4996889598160778	draw_card	0.431	columbia_card_task_fmri	10.0	0.9	89.0	-95.0	0.1	16.0	7.0	1.0	-0.1480167791517068	0.431	n/a	stim	poldrack-single-stim	s594	False	1
553.272	1.062	554.334	-0.6669777068505882	draw_card	1.062	columbia_card_task_fmri	10.0	0.8888888888888888	89.0	-95.0	0.1111111111111111	16.0	8.0	1.0	1.34957991613922	1.062	n/a	stim	poldrack-single-stim	s594	False	1
554.346	0.38	554.726	-2.125311040183922	draw_card	0.38	columbia_card_task_fmri	10.0	0.875	89.0	-95.0	0.125	16.0	9.0	1.0	3.075996738391865	0.38	n/a	stim	poldrack-single-stim	s594	False	1
554.738	0.601	555.339	-4.00031104018392	draw_card	0.601	columbia_card_task_fmri	10.0	0.8571428571428572	89.0	-95.0	0.1428571428571428	16.0	10.0	1.0	5.092067507981064	0.601	n/a	stim	poldrack-single-stim	s594	False	1
555.353	0.659	556.012	-6.50031104018392	draw_card	0.659	columbia_card_task_fmri	10.0	0.8333333333333334	89.0	-95.0	0.1666666666666666	16.0	11.0	1.0	7.480081177273178	0.659	n/a	stim	poldrack-single-stim	s594	False	1
556.026	0.752	556.778	-10.000311040183922	draw_card	0.752	columbia_card_task_fmri	10.0	0.8	89.0	-95.0	0.2	16.0	12.0	1.0	10.34801974272606	0.752	n/a	stim	poldrack-single-stim	s594	False	1
556.79	0.654	557.444	-15.250311040183922	end_round	0.654	columbia_card_task_fmri	10.0	0.75	71.0	-95.0	0.25	16.0	13.0	1.0	13.813446748627292	0.654	12.0	stim	poldrack-single-stim	s594	False	1
558.208	1.5	557.457	n/a	-1.0	2.318	columbia_card_task_fmri	n/a	n/a	-1.0	n/a	n/a	n/a	n/a	n/a	n/a	n/a	n/a	ITI	poldrack-single-stim	s594	False	0
559.79	1.2	560.99	5.374688959816078	draw_card	1.2	columbia_card_task_fmri	15.0	0.875	89.0	-70.0	0.125	16.0	1.0	2.0	-3.5349983658998454	1.2	n/a	stim	poldrack-single-stim	s594	False	1
561.001	0.395	561.396	4.666355626482744	draw_card	0.395	columbia_card_task_fmri	15.0	0.8666666666666667	89.0	-70.0	0.1333333333333333	16.0	2.0	2.0	-2.7521435899097746	0.395	n/a	stim	poldrack-single-stim	s594	False	1
561.409	0.363	561.772	3.856831816958936	draw_card	0.363	columbia_card_task_fmri	15.0	0.8571428571428572	89.0	-70.0	0.1428571428571428	16.0	3.0	2.0	-1.9032768841618408	0.363	n/a	stim	poldrack-single-stim	s594	False	1
561.786	0.418	562.204	2.922765882893	draw_card	0.418	columbia_card_task_fmri	15.0	0.8461538461538461	89.0	-70.0	0.1538461538461538	16.0	4.0	2.0	-0.9794837672926952	0.418	4.0	stim	poldrack-single-stim	s594	False	0
562.971	1.5	562.22	n/a	-1.0	2.318	columbia_card_task_fmri	n/a	n/a	-1.0	n/a	n/a	n/a	n/a	n/a	n/a	n/a	n/a	ITI	poldrack-single-stim	s594	False	0
564.55	1.034	565.584	4.374688959816078	draw_card	1.034	columbia_card_task_fmri	16.0	0.875	89.0	-85.0	0.125	16.0	1.0	2.0	1.753690603428069	1.034	n/a	stim	poldrack-single-stim	s594	False	1
565.597	0.497	566.094	3.5330222931494117	draw_card	0.497	columbia_card_task_fmri	16.0	0.8666666666666667	89.0	-85.0	0.1333333333333333	16.0	2.0	2.0	2.6840730660944487	0.497	n/a	stim	poldrack-single-stim	s594	False	1
566.106	0.454	566.56	2.571117531244651	draw_card	0.454	columbia_card_task_fmri	16.0	0.8571428571428572	89.0	-85.0	0.1428571428571428	16.0	3.0	2.0	3.692897379118605	0.454	n/a	stim	poldrack-single-stim	s594	False	1
566.571	0.822	567.393	1.4612274213545378	end_round	0.822	columbia_card_task_fmri	16.0	0.8461538461538461	71.0	-85.0	0.1538461538461538	16.0	4.0	2.0	4.79075623682391	0.822	3.0	stim	poldrack-single-stim	s594	False	1
568.158	1.5	567.407	n/a	-1.0	2.318	columbia_card_task_fmri	n/a	n/a	-1.0	n/a	n/a	n/a	n/a	n/a	n/a	n/a	n/a	ITI	poldrack-single-stim	s594	False	0
