onset	duration	movement_onset	EV	action	block_duration	experiment_exp_id	gain_amount	gain_probability	key_press	loss_amount	loss_probability	num_cards	num_click_in_round	num_loss_cards	risk	response_time	total_cards	trial_id	trial_type	worker_id	junk	feedback
3.011	5.331	8.342	-2.1107543329686185	end_round	5.331	columbia_card_task_fmri	12.0	0.8333333333333334	71.0	-70.0	0.1666666666666666	6.0	1.0	1.0	0.1984855604605968	5.331	0.0	stim	poldrack-single-stim	s595	False	1
9.095	1.5	8.344	n/a	-1.0	2.454	columbia_card_task_fmri	n/a	n/a	-1.0	n/a	n/a	n/a	n/a	n/a	n/a	n/a	n/a	ITI	poldrack-single-stim	s595	False	0
10.802	4.587	15.389	-1.2774209996352843	end_round	4.587	columbia_card_task_fmri	14.0	0.8333333333333334	71.0	-75.0	0.1666666666666666	6.0	1.0	1.0	2.8069777852061613	4.587	0.0	stim	poldrack-single-stim	s595	False	1
16.145	1.5	15.394	n/a	-1.0	2.454	columbia_card_task_fmri	n/a	n/a	-1.0	n/a	n/a	n/a	n/a	n/a	n/a	n/a	n/a	ITI	poldrack-single-stim	s595	False	0
17.85	2.757	20.607	0.3892456670313814	draw_card	2.757	columbia_card_task_fmri	15.0	0.8333333333333334	89.0	-70.0	0.1666666666666666	6.0	1.0	1.0	1.3164056827623831	2.757	n/a	stim	poldrack-single-stim	s595	False	1
20.608	3.672	24.28	-2.4440876663019524	end_round	3.672	columbia_card_task_fmri	15.0	0.8	71.0	-70.0	0.2	6.0	2.0	1.0	3.6385634091965455	3.672	1.0	stim	poldrack-single-stim	s595	False	1
25.035	1.5	24.284	n/a	-1.0	2.522	columbia_card_task_fmri	n/a	n/a	-1.0	n/a	n/a	n/a	n/a	n/a	n/a	n/a	n/a	ITI	poldrack-single-stim	s595	False	0
26.808	2.955	29.763	1.2225790003647157	draw_card	2.955	columbia_card_task_fmri	17.0	0.8333333333333334	89.0	-75.0	0.1666666666666666	6.0	1.0	1.0	3.924914843424414	2.955	n/a	stim	poldrack-single-stim	s595	False	1
29.766	3.207	32.973	-1.844087666301951	end_round	3.207	columbia_card_task_fmri	17.0	0.8	71.0	-75.0	0.2	6.0	2.0	1.0	6.438342767656746	3.207	1.0	stim	poldrack-single-stim	s595	False	1
33.725	1.5	32.974	n/a	-1.0	2.386	columbia_card_task_fmri	n/a	n/a	-1.0	n/a	n/a	n/a	n/a	n/a	n/a	n/a	n/a	ITI	poldrack-single-stim	s595	False	0
35.363	3.681	39.044	2.555912333698048	draw_card	3.681	columbia_card_task_fmri	24.0	0.75	89.0	-60.0	0.25	8.0	1.0	2.0	6.011441174489729	3.681	n/a	stim	poldrack-single-stim	s595	False	1
39.046	1.994	41.04	-0.4440876663019524	draw_card	1.994	columbia_card_task_fmri	24.0	0.7142857142857143	89.0	-60.0	0.2857142857142857	8.0	2.0	2.0	7.585593682886202	1.994	n/a	stim	poldrack-single-stim	s595	False	1
41.042	1.088	42.13	-4.444087666301953	end_round	1.088	columbia_card_task_fmri	24.0	0.6666666666666667	71.0	-60.0	0.3333333333333333	8.0	3.0	2.0	9.236133198248073	1.088	2.0	stim	poldrack-single-stim	s595	False	1
42.885	1.5	42.134	n/a	-1.0	2.454	columbia_card_task_fmri	n/a	n/a	-1.0	n/a	n/a	n/a	n/a	n/a	n/a	n/a	n/a	ITI	poldrack-single-stim	s595	False	0
44.591	2.433	47.024	2.555912333698048	draw_card	2.433	columbia_card_task_fmri	29.0	0.75	89.0	-75.0	0.25	8.0	1.0	2.0	14.67117391638624	2.433	1.0	stim	poldrack-single-stim	s595	False	0
47.778	1.5	47.027	n/a	-1.0	2.522	columbia_card_task_fmri	n/a	n/a	-1.0	n/a	n/a	n/a	n/a	n/a	n/a	n/a	n/a	ITI	poldrack-single-stim	s595	False	0
49.551	2.156	51.707	-1.666309888524172	draw_card	2.156	columbia_card_task_fmri	17.0	0.7777777777777778	89.0	-65.0	0.2222222222222222	9.0	1.0	2.0	3.7292118883686136	2.156	n/a	stim	poldrack-single-stim	s595	False	1
51.709	1.656	53.365	-3.944087666301952	draw_card	1.656	columbia_card_task_fmri	17.0	0.75	89.0	-65.0	0.25	9.0	2.0	2.0	5.145481884777016	1.656	n/a	stim	poldrack-single-stim	s595	False	1
53.367	1.352	54.719	-6.87265909487338	end_round	1.352	columbia_card_task_fmri	17.0	0.7142857142857143	71.0	-65.0	0.2857142857142857	9.0	3.0	2.0	6.68214915186547	1.352	2.0	stim	poldrack-single-stim	s595	False	1
55.473	1.5	54.722	n/a	-1.0	2.522	columbia_card_task_fmri	n/a	n/a	-1.0	n/a	n/a	n/a	n/a	n/a	n/a	n/a	n/a	ITI	poldrack-single-stim	s595	False	0
57.248	2.747	59.995	2.6559123336980472	draw_card	2.747	columbia_card_task_fmri	14.0	0.9	89.0	-95.0	0.1	10.0	1.0	1.0	2.338678692472317	2.747	n/a	stim	poldrack-single-stim	s595	False	1
59.997	2.799	62.796	1.444801222586935	draw_card	2.799	columbia_card_task_fmri	14.0	0.8888888888888888	89.0	-95.0	0.1111111111111111	10.0	2.0	1.0	3.8939369666094334	2.799	2.0	stim	poldrack-single-stim	s595	False	0
63.55	1.5	62.799	n/a	-1.0	2.59	columbia_card_task_fmri	n/a	n/a	-1.0	n/a	n/a	n/a	n/a	n/a	n/a	n/a	n/a	ITI	poldrack-single-stim	s595	False	0
65.392	2.731	68.123	-1.4440876663019524	draw_card	2.731	columbia_card_task_fmri	15.0	0.8	89.0	-65.0	0.2	10.0	1.0	2.0	1.6387446472626517	2.731	1.0	stim	poldrack-single-stim	s595	False	0
68.876	1.5	68.125	n/a	-1.0	2.454	columbia_card_task_fmri	n/a	n/a	-1.0	n/a	n/a	n/a	n/a	n/a	n/a	n/a	n/a	ITI	poldrack-single-stim	s595	False	0
70.582	4.887	75.469	0.1559123336980489	end_round	4.887	columbia_card_task_fmri	17.0	0.8	71.0	-65.0	0.2	10.0	1.0	2.0	2.438669500135159	4.887	0.0	stim	poldrack-single-stim	s595	False	1
76.223	1.5	75.472	n/a	-1.0	2.318	columbia_card_task_fmri	n/a	n/a	-1.0	n/a	n/a	n/a	n/a	n/a	n/a	n/a	n/a	ITI	poldrack-single-stim	s595	False	0
77.793	3.056	80.849	-1.2774209996352843	draw_card	3.056	columbia_card_task_fmri	13.0	0.8333333333333334	89.0	-70.0	0.1666666666666666	12.0	1.0	2.0	0.5711246867787416	3.056	n/a	stim	poldrack-single-stim	s595	False	1
80.852	1.167	82.019	-2.534996757211046	end_round	1.167	columbia_card_task_fmri	13.0	0.8181818181818181	71.0	-70.0	0.1818181818181818	12.0	2.0	2.0	1.6513958868957666	1.167	1.0	stim	poldrack-single-stim	s595	False	1
82.772	1.5	82.021	n/a	-1.0	2.25	columbia_card_task_fmri	n/a	n/a	-1.0	n/a	n/a	n/a	n/a	n/a	n/a	n/a	n/a	ITI	poldrack-single-stim	s595	False	0
84.274	2.175	86.449	-1.2774209996352843	draw_card	2.175	columbia_card_task_fmri	15.0	0.8333333333333334	89.0	-80.0	0.1666666666666666	12.0	1.0	2.0	5.042858022824621	2.175	n/a	stim	poldrack-single-stim	s595	False	1
86.451	1.08	87.531	-2.7168149390292275	draw_card	1.08	columbia_card_task_fmri	15.0	0.8181818181818181	89.0	-80.0	0.1818181818181818	12.0	2.0	2.0	6.279342147256802	1.08	n/a	stim	poldrack-single-stim	s595	False	1
87.534	1.249	88.783	-4.444087666301953	end_round	1.249	columbia_card_task_fmri	15.0	0.8	71.0	-80.0	0.2	12.0	3.0	2.0	7.638258159680003	1.249	2.0	stim	poldrack-single-stim	s595	False	1
89.537	1.5	88.786	n/a	-1.0	2.658	columbia_card_task_fmri	n/a	n/a	-1.0	n/a	n/a	n/a	n/a	n/a	n/a	n/a	n/a	ITI	poldrack-single-stim	s595	False	0
91.446	3.895	95.341	-2.2440876663019518	draw_card	3.895	columbia_card_task_fmri	14.0	0.8	89.0	-65.0	0.2	15.0	1.0	3.0	1.2387836474627427	3.895	n/a	stim	poldrack-single-stim	s595	False	1
95.343	2.339	97.682	-3.3726590948733794	draw_card	2.339	columbia_card_task_fmri	14.0	0.7857142857142857	89.0	-65.0	0.2142857142857142	15.0	2.0	3.0	2.054451494326809	2.339	n/a	stim	poldrack-single-stim	s595	False	1
97.685	1.425	99.11	-4.674856897071185	draw_card	1.425	columbia_card_task_fmri	14.0	0.7692307692307692	89.0	-65.0	0.2307692307692307	15.0	3.0	3.0	2.923304223915625	1.425	n/a	stim	poldrack-single-stim	s595	False	1
99.111	1.431	100.542	-6.194087666301953	draw_card	1.431	columbia_card_task_fmri	14.0	0.75	89.0	-65.0	0.25	15.0	4.0	3.0	3.846549226092496	1.431	n/a	stim	poldrack-single-stim	s595	False	1
100.545	0.744	101.289	-7.989542211756498	end_round	0.744	columbia_card_task_fmri	14.0	0.7272727272727273	71.0	-65.0	0.2727272727272727	15.0	5.0	3.0	4.82204579984781	0.744	4.0	stim	poldrack-single-stim	s595	False	1
102.043	1.5	101.292	n/a	-1.0	2.454	columbia_card_task_fmri	n/a	n/a	-1.0	n/a	n/a	n/a	n/a	n/a	n/a	n/a	n/a	ITI	poldrack-single-stim	s595	False	0
103.749	2.903	106.652	-2.3190876663019524	draw_card	2.903	columbia_card_task_fmri	1.0	0.9375	89.0	-45.0	0.0625	16.0	1.0	1.0	-19.220657347808	2.903	n/a	stim	poldrack-single-stim	s595	False	1
106.654	3.489	110.143	-2.510754332968619	draw_card	3.489	columbia_card_task_fmri	1.0	0.9333333333333332	89.0	-45.0	0.0666666666666666	16.0	2.0	1.0	-18.881330266732704	3.489	n/a	stim	poldrack-single-stim	s595	False	1
110.146	1.187	111.333	-2.729801952016238	end_round	1.187	columbia_card_task_fmri	1.0	0.9285714285714286	71.0	-45.0	0.0714285714285714	16.0	3.0	1.0	-18.509204759721055	1.187	2.0	stim	poldrack-single-stim	s595	False	1
112.087	1.5	111.336	n/a	-1.0	2.386	columbia_card_task_fmri	n/a	n/a	-1.0	n/a	n/a	n/a	n/a	n/a	n/a	n/a	n/a	ITI	poldrack-single-stim	s595	False	0
113.725	2.711	116.436	-1.3815876663019524	end_round	2.711	columbia_card_task_fmri	15.0	0.8125	71.0	-70.0	0.1875	16.0	1.0	3.0	2.815187249840473	2.711	0.0	stim	poldrack-single-stim	s595	False	1
117.191	1.5	116.44	n/a	-1.0	2.59	columbia_card_task_fmri	n/a	n/a	-1.0	n/a	n/a	n/a	n/a	n/a	n/a	n/a	n/a	ITI	poldrack-single-stim	s595	False	0
119.032	1.961	120.993	5.555912333698047	end_round	1.961	columbia_card_task_fmri	30.0	0.7	71.0	-50.0	0.3	10.0	1.0	3.0	6.298958514573446	1.961	0.0	stim	poldrack-single-stim	s595	False	1
121.75	1.5	120.999	n/a	-1.0	2.318	columbia_card_task_fmri	n/a	n/a	-1.0	n/a	n/a	n/a	n/a	n/a	n/a	n/a	n/a	ITI	poldrack-single-stim	s595	False	0
123.321	2.192	125.513	4.955912333698048	draw_card	2.192	columbia_card_task_fmri	17.0	0.8666666666666667	89.0	-70.0	0.1333333333333333	15.0	1.0	2.0	-0.786689471421596	2.192	n/a	stim	poldrack-single-stim	s595	False	1
125.515	0.93	126.445	4.12734090512662	draw_card	0.93	columbia_card_task_fmri	17.0	0.8571428571428572	89.0	-70.0	0.1428571428571428	15.0	2.0	2.0	0.0825603859014947	0.93	n/a	stim	poldrack-single-stim	s595	False	1
126.447	2.192	128.639	3.1712969490826626	draw_card	2.192	columbia_card_task_fmri	17.0	0.8461538461538461	89.0	-70.0	0.1538461538461538	15.0	3.0	2.0	1.0285100194585723	2.192	n/a	stim	poldrack-single-stim	s595	False	1
128.641	0.518	129.159	2.0559123336980494	end_round	0.518	columbia_card_task_fmri	17.0	0.8333333333333334	71.0	-70.0	0.1666666666666666	15.0	4.0	2.0	2.061690126365061	0.518	3.0	stim	poldrack-single-stim	s595	False	1
129.916	1.5	129.165	n/a	-1.0	2.59	columbia_card_task_fmri	n/a	n/a	-1.0	n/a	n/a	n/a	n/a	n/a	n/a	n/a	n/a	ITI	poldrack-single-stim	s595	False	0
131.759	4.66	136.419	0.1809123336980475	draw_card	4.66	columbia_card_task_fmri	7.0	0.9375	89.0	-95.0	0.0625	16.0	1.0	1.0	-5.670074405009711	4.66	n/a	stim	poldrack-single-stim	s595	False	1
136.422	0.647	137.069	-0.2440876663019522	draw_card	0.647	columbia_card_task_fmri	7.0	0.9333333333333332	89.0	-95.0	0.0666666666666666	16.0	2.0	1.0	-4.917191175646316	0.647	n/a	stim	poldrack-single-stim	s595	False	1
137.071	1.331	138.402	-0.729801952016238	draw_card	1.331	columbia_card_task_fmri	7.0	0.9285714285714286	89.0	-95.0	0.0714285714285714	16.0	3.0	1.0	-4.091566768462108	1.331	n/a	stim	poldrack-single-stim	s595	False	1
138.404	0.86	139.264	-1.290241512455799	draw_card	0.86	columbia_card_task_fmri	7.0	0.9230769230769232	89.0	-95.0	0.0769230769230769	16.0	4.0	1.0	-3.1808347628147797	0.86	n/a	stim	poldrack-single-stim	s595	False	1
139.267	0.61	139.877	-1.9440876663019524	end_round	0.61	columbia_card_task_fmri	7.0	0.9166666666666666	71.0	-95.0	0.0833333333333333	16.0	5.0	1.0	-2.1695283924820608	0.61	4.0	stim	poldrack-single-stim	s595	False	1
140.633	1.5	139.882	n/a	-1.0	2.386	columbia_card_task_fmri	n/a	n/a	-1.0	n/a	n/a	n/a	n/a	n/a	n/a	n/a	n/a	ITI	poldrack-single-stim	s595	False	0
142.271	2.885	145.156	1.7434123336980476	end_round	2.885	columbia_card_task_fmri	9.0	0.9375	71.0	-100.0	0.0625	16.0	1.0	1.0	-3.975900612530491	2.885	0.0	stim	poldrack-single-stim	s595	False	1
145.911	1.5	145.16	n/a	-1.0	2.318	columbia_card_task_fmri	n/a	n/a	-1.0	n/a	n/a	n/a	n/a	n/a	n/a	n/a	n/a	ITI	poldrack-single-stim	s595	False	0
147.482	3.196	150.678	2.680912333698048	draw_card	3.196	columbia_card_task_fmri	15.0	0.875	89.0	-80.0	0.125	16.0	1.0	2.0	1.0570985104678776	3.196	n/a	stim	poldrack-single-stim	s595	False	1
150.681	0.844	151.525	1.8892456670313813	end_round	0.844	columbia_card_task_fmri	15.0	0.8666666666666667	71.0	-80.0	0.1333333333333333	16.0	2.0	2.0	1.932506870626387	0.844	1.0	stim	poldrack-single-stim	s595	False	1
152.28	1.5	151.529	n/a	-1.0	2.318	columbia_card_task_fmri	n/a	n/a	-1.0	n/a	n/a	n/a	n/a	n/a	n/a	n/a	n/a	ITI	poldrack-single-stim	s595	False	0
153.85	2.024	155.874	4.805912333698047	draw_card	2.024	columbia_card_task_fmri	16.0	0.875	89.0	-70.0	0.125	16.0	1.0	2.0	-1.919043319332029	2.024	n/a	stim	poldrack-single-stim	s595	False	1
155.877	1.918	157.795	4.08924566703138	draw_card	1.918	columbia_card_task_fmri	16.0	0.8666666666666667	89.0	-70.0	0.1333333333333333	16.0	2.0	2.0	-1.1265853424259724	1.918	n/a	stim	poldrack-single-stim	s595	False	1
157.798	0.559	158.357	3.270198047983763	end_round	0.559	columbia_card_task_fmri	16.0	0.8571428571428572	71.0	-70.0	0.1428571428571428	16.0	3.0	2.0	-0.2673290635304148	0.559	2.0	stim	poldrack-single-stim	s595	False	1
159.112	1.5	158.361	n/a	-1.0	2.318	columbia_card_task_fmri	n/a	n/a	-1.0	n/a	n/a	n/a	n/a	n/a	n/a	n/a	n/a	ITI	poldrack-single-stim	s595	False	0
160.682	4.561	165.243	6.118412333698047	end_round	4.561	columbia_card_task_fmri	30.0	0.6875	71.0	-45.0	0.3125	16.0	1.0	5.0	4.401930134828039	4.561	0.0	stim	poldrack-single-stim	s595	False	1
165.997	1.5	165.246	n/a	-1.0	2.386	columbia_card_task_fmri	n/a	n/a	-1.0	n/a	n/a	n/a	n/a	n/a	n/a	n/a	n/a	ITI	poldrack-single-stim	s595	False	0
167.636	3.975	171.611	-2.1107543329686185	draw_card	3.975	columbia_card_task_fmri	13.0	0.8333333333333334	89.0	-75.0	0.1666666666666666	6.0	1.0	1.0	2.434333567579575	3.975	n/a	stim	poldrack-single-stim	s595	False	1
171.614	0.528	172.142	-5.0440876663019525	end_round	0.528	columbia_card_task_fmri	13.0	0.8	71.0	-75.0	0.2	6.0	2.0	1.0	4.838464550836445	0.528	1.0	stim	poldrack-single-stim	s595	False	1
172.898	1.5	172.147	n/a	-1.0	2.25	columbia_card_task_fmri	n/a	n/a	-1.0	n/a	n/a	n/a	n/a	n/a	n/a	n/a	n/a	ITI	poldrack-single-stim	s595	False	0
174.4	3.24	177.64	-0.4440876663019507	draw_card	3.24	columbia_card_task_fmri	14.0	0.8333333333333334	89.0	-70.0	0.1666666666666666	6.0	1.0	1.0	0.9437647384301008	3.24	n/a	stim	poldrack-single-stim	s595	False	1
177.642	0.507	178.149	-3.2440876663019518	end_round	0.507	columbia_card_task_fmri	14.0	0.8	71.0	-70.0	0.2	6.0	2.0	1.0	3.2385979309619337	0.507	1.0	stim	poldrack-single-stim	s595	False	1
178.906	1.5	178.155	n/a	-1.0	2.386	columbia_card_task_fmri	n/a	n/a	-1.0	n/a	n/a	n/a	n/a	n/a	n/a	n/a	n/a	ITI	poldrack-single-stim	s595	False	0
180.545	2.548	183.093	-0.4440876663019507	draw_card	2.548	columbia_card_task_fmri	16.0	0.8333333333333334	89.0	-80.0	0.1666666666666666	6.0	1.0	1.0	5.415507010383973	2.548	n/a	stim	poldrack-single-stim	s595	False	1
183.095	0.533	183.628	-3.644087666301952	end_round	0.533	columbia_card_task_fmri	16.0	0.8	71.0	-80.0	0.2	6.0	2.0	1.0	8.038231132011898	0.533	1.0	stim	poldrack-single-stim	s595	False	1
184.382	1.5	183.631	n/a	-1.0	2.59	columbia_card_task_fmri	n/a	n/a	-1.0	n/a	n/a	n/a	n/a	n/a	n/a	n/a	n/a	ITI	poldrack-single-stim	s595	False	0
186.225	1.813	188.038	2.0559123336980494	draw_card	1.813	columbia_card_task_fmri	17.0	0.8333333333333334	89.0	-70.0	0.1666666666666666	6.0	1.0	1.0	2.061690126365061	1.813	n/a	stim	poldrack-single-stim	s595	False	1
188.04	0.442	188.482	-0.844087666301951	end_round	0.442	columbia_card_task_fmri	17.0	0.8	71.0	-70.0	0.2	6.0	2.0	1.0	4.4384967461807	0.442	1.0	stim	poldrack-single-stim	s595	False	1
189.237	1.5	188.486	n/a	-1.0	2.658	columbia_card_task_fmri	n/a	n/a	-1.0	n/a	n/a	n/a	n/a	n/a	n/a	n/a	n/a	ITI	poldrack-single-stim	s595	False	0
191.148	2.062	193.21	2.055912333698048	draw_card	2.062	columbia_card_task_fmri	25.0	0.75	89.0	-65.0	0.25	8.0	1.0	2.0	8.609336672233486	2.062	1.0	stim	poldrack-single-stim	s595	False	0
193.963	1.5	193.212	n/a	-1.0	2.386	columbia_card_task_fmri	n/a	n/a	-1.0	n/a	n/a	n/a	n/a	n/a	n/a	n/a	n/a	ITI	poldrack-single-stim	s595	False	0
195.601	2.406	198.007	2.055912333698048	end_round	2.406	columbia_card_task_fmri	30.0	0.75	71.0	-80.0	0.25	8.0	1.0	2.0	17.26913070087232	2.406	0.0	stim	poldrack-single-stim	s595	False	1
198.763	1.5	198.012	n/a	-1.0	2.386	columbia_card_task_fmri	n/a	n/a	-1.0	n/a	n/a	n/a	n/a	n/a	n/a	n/a	n/a	ITI	poldrack-single-stim	s595	False	0
200.402	2.151	202.553	1.7559123336980489	draw_card	2.151	columbia_card_task_fmri	13.0	0.9	89.0	-95.0	0.1	10.0	1.0	1.0	2.038706609893101	2.151	1.0	stim	poldrack-single-stim	s595	False	0
203.31	1.5	202.559	n/a	-1.0	2.25	columbia_card_task_fmri	n/a	n/a	-1.0	n/a	n/a	n/a	n/a	n/a	n/a	n/a	n/a	ITI	poldrack-single-stim	s595	False	0
204.813	3.118	207.931	3.1559123336980472	draw_card	3.118	columbia_card_task_fmri	14.0	0.9	89.0	-90.0	0.1	10.0	1.0	1.0	0.8388236475179411	3.118	n/a	stim	poldrack-single-stim	s595	False	1
207.934	0.538	208.472	2.0003567781424905	end_round	0.538	columbia_card_task_fmri	14.0	0.8888888888888888	71.0	-90.0	0.1111111111111111	10.0	2.0	1.0	2.3227269389933163	0.538	1.0	stim	poldrack-single-stim	s595	False	1
209.228	1.5	208.477	n/a	-1.0	2.318	columbia_card_task_fmri	n/a	n/a	-1.0	n/a	n/a	n/a	n/a	n/a	n/a	n/a	n/a	ITI	poldrack-single-stim	s595	False	0
210.798	2.275	213.073	-1.6440876663019517	end_round	2.275	columbia_card_task_fmri	16.0	0.8	71.0	-70.0	0.2	10.0	1.0	2.0	4.038529690161386	2.275	0.0	stim	poldrack-single-stim	s595	False	1
213.827	1.5	213.076	n/a	-1.0	2.25	columbia_card_task_fmri	n/a	n/a	-1.0	n/a	n/a	n/a	n/a	n/a	n/a	n/a	n/a	ITI	poldrack-single-stim	s595	False	0
215.33	1.907	217.237	-2.3607543329686185	end_round	1.907	columbia_card_task_fmri	7.0	0.9166666666666666	71.0	-100.0	0.0833333333333333	12.0	1.0	1.0	-0.7877648150256071	1.907	0.0	stim	poldrack-single-stim	s595	False	1
217.993	1.5	217.242	n/a	-1.0	2.25	columbia_card_task_fmri	n/a	n/a	-1.0	n/a	n/a	n/a	n/a	n/a	n/a	n/a	n/a	ITI	poldrack-single-stim	s595	False	0
219.497	4.564	224.061	-2.1107543329686167	end_round	4.564	columbia_card_task_fmri	14.0	0.8333333333333334	71.0	-80.0	0.1666666666666666	12.0	1.0	2.0	4.670209652397848	4.564	0.0	stim	poldrack-single-stim	s595	False	1
224.814	1.5	224.063	n/a	-1.0	2.386	columbia_card_task_fmri	n/a	n/a	-1.0	n/a	n/a	n/a	n/a	n/a	n/a	n/a	n/a	ITI	poldrack-single-stim	s595	False	0
226.452	2.231	228.683	-0.4440876663019524	draw_card	2.231	columbia_card_task_fmri	15.0	0.8333333333333334	89.0	-75.0	0.1666666666666666	12.0	1.0	2.0	3.179622753369028	2.231	1.0	stim	poldrack-single-stim	s595	False	0
229.437	1.5	228.686	n/a	-1.0	2.386	columbia_card_task_fmri	n/a	n/a	-1.0	n/a	n/a	n/a	n/a	n/a	n/a	n/a	n/a	ITI	poldrack-single-stim	s595	False	0
231.075	2.623	233.698	-1.4440876663019524	draw_card	2.623	columbia_card_task_fmri	15.0	0.8	89.0	-65.0	0.2	15.0	1.0	3.0	1.6387446472626517	2.623	n/a	stim	poldrack-single-stim	s595	False	1
233.702	1.557	235.259	-2.5869448091590947	draw_card	1.557	columbia_card_task_fmri	15.0	0.7857142857142857	89.0	-65.0	0.2142857142857142	15.0	2.0	3.0	2.464739378619509	1.557	2.0	stim	poldrack-single-stim	s595	False	0
236.014	1.5	235.263	n/a	-1.0	2.726	columbia_card_task_fmri	n/a	n/a	-1.0	n/a	n/a	n/a	n/a	n/a	n/a	n/a	n/a	ITI	poldrack-single-stim	s595	False	0
237.993	6.723	244.716	-2.1940876663019524	draw_card	6.723	columbia_card_task_fmri	14.0	0.8125	89.0	-70.0	0.1875	16.0	1.0	3.0	2.424910253312365	6.723	n/a	stim	poldrack-single-stim	s595	False	1
244.72	0.605	245.325	-3.2440876663019518	end_round	0.605	columbia_card_task_fmri	14.0	0.8	71.0	-70.0	0.2	16.0	2.0	3.0	3.2385979309619337	0.605	1.0	stim	poldrack-single-stim	s595	False	1
246.082	1.5	245.331	n/a	-1.0	2.454	columbia_card_task_fmri	n/a	n/a	-1.0	n/a	n/a	n/a	n/a	n/a	n/a	n/a	n/a	ITI	poldrack-single-stim	s595	False	0
247.789	4.211	252.0	-2.2565876663019524	end_round	4.211	columbia_card_task_fmri	11.0	0.6875	71.0	-30.0	0.3125	16.0	1.0	5.0	-11.355140012274628	4.211	0.0	stim	poldrack-single-stim	s595	False	1
252.753	1.5	252.002	n/a	-1.0	2.318	columbia_card_task_fmri	n/a	n/a	-1.0	n/a	n/a	n/a	n/a	n/a	n/a	n/a	n/a	ITI	poldrack-single-stim	s595	False	0
254.324	2.692	257.016	2.555912333698048	end_round	2.692	columbia_card_task_fmri	15.0	0.8666666666666667	71.0	-75.0	0.1333333333333333	15.0	1.0	2.0	0.2330033091842551	2.692	0.0	stim	poldrack-single-stim	s595	False	1
257.773	1.5	257.022	n/a	-1.0	2.318	columbia_card_task_fmri	n/a	n/a	-1.0	n/a	n/a	n/a	n/a	n/a	n/a	n/a	n/a	ITI	poldrack-single-stim	s595	False	0
259.347	2.016	261.363	4.289245667031381	draw_card	2.016	columbia_card_task_fmri	17.0	0.8666666666666667	89.0	-75.0	0.1333333333333333	15.0	1.0	2.0	0.9128025217934096	2.016	1.0	stim	poldrack-single-stim	s595	False	0
262.119	1.5	261.368	n/a	-1.0	2.59	columbia_card_task_fmri	n/a	n/a	-1.0	n/a	n/a	n/a	n/a	n/a	n/a	n/a	n/a	ITI	poldrack-single-stim	s595	False	0
263.962	2.398	266.36	-0.1315876663019524	draw_card	2.398	columbia_card_task_fmri	2.0	0.9375	89.0	-25.0	0.0625	16.0	1.0	1.0	-23.81360712330892	2.398	n/a	stim	poldrack-single-stim	s595	False	1
266.363	1.683	268.046	-0.2440876663019525	draw_card	1.683	columbia_card_task_fmri	2.0	0.9333333333333332	89.0	-25.0	0.0666666666666666	16.0	2.0	1.0	-23.614728248502992	1.683	n/a	stim	poldrack-single-stim	s595	False	1
268.049	0.717	268.766	-0.3726590948733808	draw_card	0.717	columbia_card_task_fmri	2.0	0.9285714285714286	89.0	-25.0	0.0714285714285714	16.0	3.0	1.0	-23.39660715031513	0.717	n/a	stim	poldrack-single-stim	s595	False	1
268.769	0.771	269.54	-0.5210107432250293	draw_card	0.771	columbia_card_task_fmri	2.0	0.9230769230769232	89.0	-25.0	0.0769230769230769	16.0	4.0	1.0	-23.155971567412067	0.771	n/a	stim	poldrack-single-stim	s595	False	1
269.543	1.455	270.998	-0.6940876663019522	draw_card	1.455	columbia_card_task_fmri	2.0	0.9166666666666666	89.0	-25.0	0.0833333333333333	16.0	5.0	1.0	-22.88872874540469	1.455	n/a	stim	poldrack-single-stim	s595	False	1
271.001	3.572	274.573	-0.8986331208474072	draw_card	3.572	columbia_card_task_fmri	2.0	0.9090909090909092	89.0	-25.0	0.0909090909090909	16.0	6.0	1.0	-22.58968891424629	3.572	n/a	stim	poldrack-single-stim	s595	False	1
274.576	3.585	278.161	-1.1440876663019524	draw_card	3.585	columbia_card_task_fmri	2.0	0.9	89.0	-25.0	0.1	16.0	7.0	1.0	-22.252172110453788	3.585	n/a	stim	poldrack-single-stim	s595	False	1
278.165	0.727	278.892	-1.4440876663019524	end_round	0.727	columbia_card_task_fmri	2.0	0.8888888888888888	71.0	-25.0	0.1111111111111111	16.0	8.0	1.0	-21.867442305558136	0.727	7.0	stim	poldrack-single-stim	s595	False	1
279.647	1.5	278.896	n/a	-1.0	2.726	columbia_card_task_fmri	n/a	n/a	-1.0	n/a	n/a	n/a	n/a	n/a	n/a	n/a	n/a	ITI	poldrack-single-stim	s595	False	0
281.625	1.919	283.544	2.055912333698048	draw_card	1.919	columbia_card_task_fmri	9.0	0.9375	89.0	-95.0	0.0625	16.0	1.0	1.0	-5.186028271474182	1.919	n/a	stim	poldrack-single-stim	s595	False	1
283.547	0.621	284.168	1.622579000364715	draw_card	0.621	columbia_card_task_fmri	9.0	0.9333333333333332	89.0	-95.0	0.0666666666666666	16.0	2.0	1.0	-4.41837803738272	0.621	n/a	stim	poldrack-single-stim	s595	False	1
284.17	1.178	285.348	1.1273409051266197	draw_card	1.178	columbia_card_task_fmri	9.0	0.9285714285714286	89.0	-95.0	0.0714285714285714	16.0	3.0	1.0	-3.5765601868631727	1.178	n/a	stim	poldrack-single-stim	s595	False	1
285.352	2.254	287.606	0.5559123336980476	draw_card	2.254	columbia_card_task_fmri	9.0	0.9230769230769232	89.0	-95.0	0.0769230769230769	16.0	4.0	1.0	-2.6479658071537635	2.254	n/a	stim	poldrack-single-stim	s595	False	1
287.609	1.984	289.593	-0.1107543329686185	draw_card	1.984	columbia_card_task_fmri	9.0	0.9166666666666666	89.0	-95.0	0.0833333333333333	16.0	5.0	1.0	-1.6168248467613076	1.984	n/a	stim	poldrack-single-stim	s595	False	1
289.597	0.556	290.153	-0.8986331208474074	end_round	0.556	columbia_card_task_fmri	9.0	0.9090909090909092	71.0	-95.0	0.0909090909090909	16.0	6.0	1.0	-0.463140852379805	0.556	5.0	stim	poldrack-single-stim	s595	False	1
290.91	1.5	290.159	n/a	-1.0	2.522	columbia_card_task_fmri	n/a	n/a	-1.0	n/a	n/a	n/a	n/a	n/a	n/a	n/a	n/a	ITI	poldrack-single-stim	s595	False	0
292.685	2.027	294.712	3.618412333698048	draw_card	2.027	columbia_card_task_fmri	11.0	0.9375	89.0	-100.0	0.0625	16.0	1.0	1.0	-3.491845018530288	2.027	n/a	stim	poldrack-single-stim	s595	False	1
294.715	0.633	295.348	3.155912333698048	draw_card	0.633	columbia_card_task_fmri	11.0	0.9333333333333332	89.0	-100.0	0.0666666666666666	16.0	2.0	1.0	-2.672510912082288	0.633	n/a	stim	poldrack-single-stim	s595	False	1
295.351	1.7	297.051	2.627340905126621	draw_card	1.7	columbia_card_task_fmri	11.0	0.9285714285714286	89.0	-100.0	0.0714285714285714	16.0	3.0	1.0	-1.7740166739109249	1.7	n/a	stim	poldrack-single-stim	s595	False	1
297.055	0.639	297.694	2.01745079523651	draw_card	0.639	columbia_card_task_fmri	11.0	0.9230769230769232	89.0	-100.0	0.0769230769230769	16.0	4.0	1.0	-0.7829046707033811	0.639	n/a	stim	poldrack-single-stim	s595	False	1
297.698	1.287	298.985	1.3059123336980476	draw_card	1.287	columbia_card_task_fmri	11.0	0.9166666666666666	89.0	-100.0	0.0833333333333333	16.0	5.0	1.0	0.3176566453248561	1.287	n/a	stim	poldrack-single-stim	s595	False	1
298.989	0.495	299.484	0.4650032427889558	end_round	0.495	columbia_card_task_fmri	11.0	0.9090909090909092	71.0	-100.0	0.0909090909090909	16.0	6.0	1.0	1.549009701219056	0.495	5.0	stim	poldrack-single-stim	s595	False	1
300.238	1.5	299.487	n/a	-1.0	3.134	columbia_card_task_fmri	n/a	n/a	-1.0	n/a	n/a	n/a	n/a	n/a	n/a	n/a	n/a	ITI	poldrack-single-stim	s595	False	0
302.625	1.916	304.541	4.180912333698047	draw_card	1.916	columbia_card_task_fmri	16.0	0.875	89.0	-75.0	0.125	16.0	1.0	2.0	-0.2656392097666007	1.916	n/a	stim	poldrack-single-stim	s595	False	1
304.543	0.565	305.108	3.4225790003647147	end_round	0.565	columbia_card_task_fmri	16.0	0.8666666666666667	71.0	-75.0	0.1333333333333333	16.0	2.0	2.0	0.5729025306259636	0.565	1.0	stim	poldrack-single-stim	s595	False	1
305.866	1.5	305.115	n/a	-1.0	2.386	columbia_card_task_fmri	n/a	n/a	-1.0	n/a	n/a	n/a	n/a	n/a	n/a	n/a	n/a	ITI	poldrack-single-stim	s595	False	0
307.505	2.509	310.014	4.430912333698047	draw_card	2.509	columbia_card_task_fmri	17.0	0.875	89.0	-80.0	0.125	16.0	1.0	2.0	1.718471635994451	2.509	n/a	stim	poldrack-single-stim	s595	False	1
310.017	0.622	310.639	3.622579000364716	end_round	0.622	columbia_card_task_fmri	17.0	0.8666666666666667	71.0	-80.0	0.1333333333333333	16.0	2.0	2.0	2.6123131904670807	0.622	1.0	stim	poldrack-single-stim	s595	False	1
311.392	1.5	310.641	n/a	-1.0	2.386	columbia_card_task_fmri	n/a	n/a	-1.0	n/a	n/a	n/a	n/a	n/a	n/a	n/a	n/a	ITI	poldrack-single-stim	s595	False	0
324.033	2.871	326.904	-1.2774209996352843	draw_card	2.871	columbia_card_task_fmri	13.0	0.8333333333333334	89.0	-70.0	0.1666666666666666	6.0	1.0	1.0	0.5711246867787416	2.871	n/a	stim	poldrack-single-stim	s595	False	1
326.908	0.89	327.798	-4.0440876663019525	end_round	0.89	columbia_card_task_fmri	13.0	0.8	71.0	-70.0	0.2	6.0	2.0	1.0	2.8386332844668054	0.89	1.0	stim	poldrack-single-stim	s595	False	1
328.553	1.5	327.802	n/a	-1.0	2.318	columbia_card_task_fmri	n/a	n/a	-1.0	n/a	n/a	n/a	n/a	n/a	n/a	n/a	n/a	ITI	poldrack-single-stim	s595	False	0
330.125	2.174	332.299	-1.2774209996352843	draw_card	2.174	columbia_card_task_fmri	15.0	0.8333333333333334	89.0	-80.0	0.1666666666666666	6.0	1.0	1.0	5.042858022824621	2.174	n/a	stim	poldrack-single-stim	s595	False	1
332.302	0.541	332.843	-4.444087666301953	end_round	0.541	columbia_card_task_fmri	15.0	0.8	71.0	-80.0	0.2	6.0	2.0	1.0	7.638258159680003	0.541	1.0	stim	poldrack-single-stim	s595	False	1
333.6	1.5	332.849	n/a	-1.0	2.318	columbia_card_task_fmri	n/a	n/a	-1.0	n/a	n/a	n/a	n/a	n/a	n/a	n/a	n/a	ITI	poldrack-single-stim	s595	False	0
335.171	3.865	339.036	0.3892456670313814	draw_card	3.865	columbia_card_task_fmri	16.0	0.8333333333333334	89.0	-75.0	0.1666666666666666	6.0	1.0	1.0	3.552268447329535	3.865	n/a	stim	poldrack-single-stim	s595	False	1
339.04	0.561	339.601	-2.644087666301952	end_round	0.561	columbia_card_task_fmri	16.0	0.8	71.0	-75.0	0.2	6.0	2.0	1.0	6.038372209857041	0.561	1.0	stim	poldrack-single-stim	s595	False	1
340.356	1.5	339.605	n/a	-1.0	2.862	columbia_card_task_fmri	n/a	n/a	-1.0	n/a	n/a	n/a	n/a	n/a	n/a	n/a	n/a	ITI	poldrack-single-stim	s595	False	0
342.472	2.773	345.245	1.5559123336980476	draw_card	2.773	columbia_card_task_fmri	21.0	0.75	89.0	-55.0	0.25	8.0	1.0	2.0	2.547624891075852	2.773	n/a	stim	poldrack-single-stim	s595	False	1
345.248	0.692	345.94	-1.158373380587666	end_round	0.692	columbia_card_task_fmri	21.0	0.7142857142857143	71.0	-55.0	0.2857142857142857	8.0	2.0	2.0	3.971835568607528	0.692	1.0	stim	poldrack-single-stim	s595	False	1
346.696	1.5	345.945	n/a	-1.0	2.726	columbia_card_task_fmri	n/a	n/a	-1.0	n/a	n/a	n/a	n/a	n/a	n/a	n/a	n/a	ITI	poldrack-single-stim	s595	False	0
348.674	1.824	350.498	2.805912333698048	draw_card	1.824	columbia_card_task_fmri	26.0	0.75	89.0	-65.0	0.25	8.0	1.0	2.0	9.042321571804298	1.824	n/a	stim	poldrack-single-stim	s595	False	1
350.501	0.545	351.046	-0.4440876663019489	end_round	0.545	columbia_card_task_fmri	26.0	0.7142857142857143	71.0	-65.0	0.2857142857142857	8.0	2.0	2.0	10.747671475837112	0.545	1.0	stim	poldrack-single-stim	s595	False	1
351.8	1.5	351.049	n/a	-1.0	2.25	columbia_card_task_fmri	n/a	n/a	-1.0	n/a	n/a	n/a	n/a	n/a	n/a	n/a	n/a	ITI	poldrack-single-stim	s595	False	0
353.303	2.47	355.773	-2.1107543329686185	draw_card	2.47	columbia_card_task_fmri	15.0	0.7777777777777778	89.0	-60.0	0.2222222222222222	9.0	1.0	2.0	0.8193038490763911	2.47	n/a	stim	poldrack-single-stim	s595	False	1
355.777	0.469	356.246	-4.194087666301953	end_round	0.469	columbia_card_task_fmri	15.0	0.75	71.0	-60.0	0.25	9.0	2.0	2.0	2.1146521350489174	0.469	1.0	stim	poldrack-single-stim	s595	False	1
357.001	1.5	356.25	n/a	-1.0	2.318	columbia_card_task_fmri	n/a	n/a	-1.0	n/a	n/a	n/a	n/a	n/a	n/a	n/a	n/a	ITI	poldrack-single-stim	s595	False	0
358.573	4.154	362.727	2.2559123336980487	end_round	4.154	columbia_card_task_fmri	13.0	0.9	71.0	-90.0	0.1	10.0	1.0	1.0	0.5388543270677921	4.154	0.0	stim	poldrack-single-stim	s595	False	1
363.481	1.5	362.73	n/a	-1.0	2.454	columbia_card_task_fmri	n/a	n/a	-1.0	n/a	n/a	n/a	n/a	n/a	n/a	n/a	n/a	ITI	poldrack-single-stim	s595	False	0
365.188	2.442	367.63	3.555912333698048	end_round	2.442	columbia_card_task_fmri	15.0	0.9	71.0	-95.0	0.1	10.0	1.0	1.0	2.638651282571434	2.442	0.0	stim	poldrack-single-stim	s595	False	1
368.384	1.5	367.633	n/a	-1.0	2.522	columbia_card_task_fmri	n/a	n/a	-1.0	n/a	n/a	n/a	n/a	n/a	n/a	n/a	n/a	ITI	poldrack-single-stim	s595	False	0
370.159	3.023	373.182	-0.6440876663019517	draw_card	3.023	columbia_card_task_fmri	16.0	0.8	89.0	-65.0	0.2	10.0	1.0	2.0	2.038706609893101	3.023	1.0	stim	poldrack-single-stim	s595	False	0
373.937	1.5	373.186	n/a	-1.0	2.318	columbia_card_task_fmri	n/a	n/a	-1.0	n/a	n/a	n/a	n/a	n/a	n/a	n/a	n/a	ITI	poldrack-single-stim	s595	False	0
375.508	2.004	377.512	-1.9440876663019524	end_round	2.004	columbia_card_task_fmri	7.0	0.9166666666666666	71.0	-95.0	0.0833333333333333	12.0	1.0	1.0	-2.1695283924820608	2.004	0.0	stim	poldrack-single-stim	s595	False	1
378.27	1.5	377.519	n/a	-1.0	2.522	columbia_card_task_fmri	n/a	n/a	-1.0	n/a	n/a	n/a	n/a	n/a	n/a	n/a	n/a	ITI	poldrack-single-stim	s595	False	0
380.046	1.906	381.952	-1.2774209996352843	end_round	1.906	columbia_card_task_fmri	14.0	0.8333333333333334	71.0	-75.0	0.1666666666666666	12.0	1.0	2.0	2.8069777852061613	1.906	0.0	stim	poldrack-single-stim	s595	False	1
382.708	1.5	381.957	n/a	-1.0	2.998	columbia_card_task_fmri	n/a	n/a	-1.0	n/a	n/a	n/a	n/a	n/a	n/a	n/a	n/a	ITI	poldrack-single-stim	s595	False	0
384.96	1.349	386.309	0.3892456670313814	end_round	1.349	columbia_card_task_fmri	15.0	0.8333333333333334	71.0	-70.0	0.1666666666666666	12.0	1.0	2.0	1.3164056827623831	1.349	0.0	stim	poldrack-single-stim	s595	False	1
387.064	1.5	386.313	n/a	-1.0	2.318	columbia_card_task_fmri	n/a	n/a	-1.0	n/a	n/a	n/a	n/a	n/a	n/a	n/a	n/a	ITI	poldrack-single-stim	s595	False	0
388.636	2.74	391.376	-1.6440876663019517	end_round	2.74	columbia_card_task_fmri	16.0	0.8	71.0	-70.0	0.2	15.0	1.0	3.0	4.038529690161386	2.74	0.0	stim	poldrack-single-stim	s595	False	1
392.139	1.5	391.388	n/a	-1.0	2.25	columbia_card_task_fmri	n/a	n/a	-1.0	n/a	n/a	n/a	n/a	n/a	n/a	n/a	n/a	ITI	poldrack-single-stim	s595	False	0
393.642	2.053	395.695	-1.2565876663019524	end_round	2.053	columbia_card_task_fmri	14.0	0.8125	71.0	-65.0	0.1875	16.0	1.0	3.0	0.4735387034975424	2.053	0.0	stim	poldrack-single-stim	s595	False	1
396.453	1.5	395.702	n/a	-1.0	2.454	columbia_card_task_fmri	n/a	n/a	-1.0	n/a	n/a	n/a	n/a	n/a	n/a	n/a	n/a	ITI	poldrack-single-stim	s595	False	0
398.16	1.57	399.73	-1.5065876663019524	end_round	1.57	columbia_card_task_fmri	16.0	0.8125	71.0	-75.0	0.1875	16.0	1.0	3.0	5.15686555547607	1.57	0.0	stim	poldrack-single-stim	s595	False	1
400.488	1.5	399.737	n/a	-1.0	2.318	columbia_card_task_fmri	n/a	n/a	-1.0	n/a	n/a	n/a	n/a	n/a	n/a	n/a	n/a	ITI	poldrack-single-stim	s595	False	0
402.06	7.699	409.759	2.7559123336980487	end_round	7.699	columbia_card_task_fmri	16.0	0.8666666666666667	71.0	-80.0	0.1333333333333333	15.0	1.0	2.0	2.272409702734773	7.699	0.0	stim	poldrack-single-stim	s595	False	1
410.515	1.5	409.764	n/a	-1.0	2.318	columbia_card_task_fmri	n/a	n/a	-1.0	n/a	n/a	n/a	n/a	n/a	n/a	n/a	n/a	ITI	poldrack-single-stim	s595	False	0
412.087	3.062	415.149	3.622579000364716	draw_card	3.062	columbia_card_task_fmri	17.0	0.8666666666666667	89.0	-80.0	0.1333333333333333	15.0	1.0	2.0	2.6123131904670807	3.062	n/a	stim	poldrack-single-stim	s595	False	1
415.153	0.794	415.947	2.698769476555193	end_round	0.794	columbia_card_task_fmri	17.0	0.8571428571428572	71.0	-80.0	0.1428571428571428	15.0	2.0	2.0	3.5814975777470472	0.794	1.0	stim	poldrack-single-stim	s595	False	1
416.702	1.5	415.951	n/a	-1.0	2.59	columbia_card_task_fmri	n/a	n/a	-1.0	n/a	n/a	n/a	n/a	n/a	n/a	n/a	n/a	ITI	poldrack-single-stim	s595	False	0
418.547	2.781	421.328	-0.4440876663019524	draw_card	2.781	columbia_card_task_fmri	1.0	0.9375	89.0	-15.0	0.0625	16.0	1.0	1.0	-26.465976264837888	2.781	n/a	stim	poldrack-single-stim	s595	False	1
421.33	0.606	421.936	-0.510754332968619	end_round	0.606	columbia_card_task_fmri	1.0	0.9333333333333332	71.0	-15.0	0.0666666666666666	16.0	2.0	1.0	-26.348604764454127	0.606	1.0	stim	poldrack-single-stim	s595	False	1
422.691	1.5	421.94	n/a	-1.0	2.25	columbia_card_task_fmri	n/a	n/a	-1.0	n/a	n/a	n/a	n/a	n/a	n/a	n/a	n/a	ITI	poldrack-single-stim	s595	False	0
424.194	2.769	426.963	2.680912333698048	draw_card	2.769	columbia_card_task_fmri	10.0	0.9375	89.0	-100.0	0.0625	16.0	1.0	1.0	-3.733873121485996	2.769	n/a	stim	poldrack-single-stim	s595	False	1
426.967	0.702	427.669	2.2225790003647146	draw_card	0.702	columbia_card_task_fmri	10.0	0.9333333333333332	89.0	-100.0	0.0666666666666666	16.0	2.0	1.0	-2.9219223684812583	0.702	n/a	stim	poldrack-single-stim	s595	False	1
427.672	0.678	428.35	1.6987694765551915	draw_card	0.678	columbia_card_task_fmri	10.0	0.9285714285714286	89.0	-100.0	0.0714285714285714	16.0	3.0	1.0	-2.03152469847279	0.678	n/a	stim	poldrack-single-stim	s595	False	1
428.354	1.463	429.817	1.0943738721595868	draw_card	1.463	columbia_card_task_fmri	10.0	0.9230769230769232	89.0	-100.0	0.0769230769230769	16.0	4.0	1.0	-1.049343723775895	1.463	n/a	stim	poldrack-single-stim	s595	False	1
429.82	1.07	430.89	0.3892456670313814	draw_card	1.07	columbia_card_task_fmri	10.0	0.9166666666666666	89.0	-100.0	0.0833333333333333	16.0	5.0	1.0	0.0413004612570659	1.07	n/a	stim	poldrack-single-stim	s595	False	1
430.894	1.216	432.11	-0.4440876663019542	draw_card	1.216	columbia_card_task_fmri	10.0	0.9090909090909092	89.0	-100.0	0.0909090909090909	16.0	6.0	1.0	1.2615580019296218	1.216	n/a	stim	poldrack-single-stim	s595	False	1
432.114	0.509	432.623	-1.4440876663019524	end_round	0.509	columbia_card_task_fmri	10.0	0.9	71.0	-100.0	0.1	16.0	7.0	1.0	2.638651282571434	0.509	6.0	stim	poldrack-single-stim	s595	False	1
433.378	1.5	432.627	n/a	-1.0	2.25	columbia_card_task_fmri	n/a	n/a	-1.0	n/a	n/a	n/a	n/a	n/a	n/a	n/a	n/a	ITI	poldrack-single-stim	s595	False	0
434.882	2.656	437.538	3.305912333698048	draw_card	2.656	columbia_card_task_fmri	15.0	0.875	89.0	-75.0	0.125	16.0	1.0	2.0	-0.5963217243701955	2.656	1.0	stim	poldrack-single-stim	s595	False	0
438.296	1.5	437.545	n/a	-1.0	2.522	columbia_card_task_fmri	n/a	n/a	-1.0	n/a	n/a	n/a	n/a	n/a	n/a	n/a	n/a	ITI	poldrack-single-stim	s595	False	0
440.073	2.34	442.413	3.555912333698048	draw_card	2.34	columbia_card_task_fmri	16.0	0.875	89.0	-80.0	0.125	16.0	1.0	2.0	1.3877847362897775	2.34	n/a	stim	poldrack-single-stim	s595	False	1
442.417	0.849	443.266	2.7559123336980487	draw_card	0.849	columbia_card_task_fmri	16.0	0.8666666666666667	89.0	-80.0	0.1333333333333333	16.0	2.0	2.0	2.272409702734773	0.849	2.0	stim	poldrack-single-stim	s595	False	0
444.022	1.5	443.271	n/a	-1.0	2.454	columbia_card_task_fmri	n/a	n/a	-1.0	n/a	n/a	n/a	n/a	n/a	n/a	n/a	n/a	ITI	poldrack-single-stim	s595	False	0
445.73	4.17	449.9	0.7434123336980476	draw_card	4.17	columbia_card_task_fmri	4.0	0.6875	89.0	-5.0	0.3125	16.0	1.0	5.0	-26.169154004368384	4.17	1.0	stim	poldrack-single-stim	s595	False	0
450.659	1.5	449.908	n/a	-1.0	2.25	columbia_card_task_fmri	n/a	n/a	-1.0	n/a	n/a	n/a	n/a	n/a	n/a	n/a	n/a	ITI	poldrack-single-stim	s595	False	0
452.163	3.701	455.864	-2.1107543329686167	draw_card	3.701	columbia_card_task_fmri	14.0	0.8333333333333334	89.0	-80.0	0.1666666666666666	6.0	1.0	1.0	4.670209652397848	3.701	n/a	stim	poldrack-single-stim	s595	False	1
455.867	0.652	456.519	-5.244087666301952	end_round	0.652	columbia_card_task_fmri	14.0	0.8	71.0	-80.0	0.2	6.0	2.0	1.0	7.238285762345345	0.652	1.0	stim	poldrack-single-stim	s595	False	1
457.275	1.5	456.524	n/a	-1.0	2.454	columbia_card_task_fmri	n/a	n/a	-1.0	n/a	n/a	n/a	n/a	n/a	n/a	n/a	n/a	ITI	poldrack-single-stim	s595	False	0
458.983	1.653	460.636	-0.4440876663019524	draw_card	1.653	columbia_card_task_fmri	15.0	0.8333333333333334	89.0	-75.0	0.1666666666666666	6.0	1.0	1.0	3.179622753369028	1.653	n/a	stim	poldrack-single-stim	s595	False	1
460.64	0.525	461.165	-3.4440876663019524	end_round	0.525	columbia_card_task_fmri	15.0	0.8	71.0	-75.0	0.2	6.0	2.0	1.0	5.6384023062546085	0.525	1.0	stim	poldrack-single-stim	s595	False	1
461.921	1.5	461.17	n/a	-1.0	2.454	columbia_card_task_fmri	n/a	n/a	-1.0	n/a	n/a	n/a	n/a	n/a	n/a	n/a	n/a	ITI	poldrack-single-stim	s595	False	0
463.628	1.667	465.295	1.2225790003647157	draw_card	1.667	columbia_card_task_fmri	16.0	0.8333333333333334	89.0	-70.0	0.1666666666666666	6.0	1.0	1.0	1.689047488641659	1.667	n/a	stim	poldrack-single-stim	s595	False	1
465.3	0.393	465.693	-1.6440876663019517	end_round	0.393	columbia_card_task_fmri	16.0	0.8	71.0	-70.0	0.2	6.0	2.0	1.0	4.038529690161386	0.393	1.0	stim	poldrack-single-stim	s595	False	1
466.45	1.5	465.699	n/a	-1.0	2.522	columbia_card_task_fmri	n/a	n/a	-1.0	n/a	n/a	n/a	n/a	n/a	n/a	n/a	n/a	ITI	poldrack-single-stim	s595	False	0
468.227	2.3	470.527	1.805912333698048	draw_card	2.3	columbia_card_task_fmri	23.0	0.75	89.0	-60.0	0.25	8.0	1.0	2.0	5.578461131401436	2.3	n/a	stim	poldrack-single-stim	s595	False	1
470.53	0.66	471.19	-1.158373380587664	end_round	0.66	columbia_card_task_fmri	23.0	0.7142857142857143	71.0	-60.0	0.2857142857142857	8.0	2.0	2.0	7.133871035657652	0.66	1.0	stim	poldrack-single-stim	s595	False	1
471.948	1.5	471.197	n/a	-1.0	2.454	columbia_card_task_fmri	n/a	n/a	-1.0	n/a	n/a	n/a	n/a	n/a	n/a	n/a	n/a	ITI	poldrack-single-stim	s595	False	0
473.656	4.044	477.7	2.305912333698048	draw_card	4.044	columbia_card_task_fmri	27.0	0.75	89.0	-70.0	0.25	8.0	1.0	2.0	11.640243006290223	4.044	n/a	stim	poldrack-single-stim	s595	False	1
477.704	0.724	478.428	-1.1583733805876677	end_round	0.724	columbia_card_task_fmri	27.0	0.7142857142857143	71.0	-70.0	0.2857142857142857	8.0	2.0	2.0	13.458046827606385	0.724	1.0	stim	poldrack-single-stim	s595	False	1
479.185	1.5	478.434	n/a	-1.0	2.658	columbia_card_task_fmri	n/a	n/a	-1.0	n/a	n/a	n/a	n/a	n/a	n/a	n/a	n/a	ITI	poldrack-single-stim	s595	False	0
481.098	1.521	482.619	-2.44408766630195	draw_card	1.521	columbia_card_task_fmri	16.0	0.7777777777777778	89.0	-65.0	0.2222222222222222	9.0	1.0	2.0	3.313507883896168	1.521	n/a	stim	poldrack-single-stim	s595	False	1
482.623	0.719	483.342	-4.694087666301953	end_round	0.719	columbia_card_task_fmri	16.0	0.75	71.0	-65.0	0.25	9.0	2.0	2.0	4.712503464110487	0.719	1.0	stim	poldrack-single-stim	s595	False	1
484.096	1.5	483.345	n/a	-1.0	2.386	columbia_card_task_fmri	n/a	n/a	-1.0	n/a	n/a	n/a	n/a	n/a	n/a	n/a	n/a	ITI	poldrack-single-stim	s595	False	0
485.736	6.722	492.458	2.7559123336980487	draw_card	6.722	columbia_card_task_fmri	13.0	0.9	89.0	-85.0	0.1	10.0	1.0	1.0	-0.960982885033939	6.722	n/a	stim	poldrack-single-stim	s595	False	1
492.461	3.301	495.762	1.6670234448091583	end_round	3.301	columbia_card_task_fmri	13.0	0.8888888888888888	71.0	-85.0	0.1111111111111111	10.0	2.0	1.0	0.4372935413698648	3.301	1.0	stim	poldrack-single-stim	s595	False	1
496.517	1.5	495.766	n/a	-1.0	2.522	columbia_card_task_fmri	n/a	n/a	-1.0	n/a	n/a	n/a	n/a	n/a	n/a	n/a	n/a	ITI	poldrack-single-stim	s595	False	0
498.292	2.246	500.538	-2.2440876663019518	end_round	2.246	columbia_card_task_fmri	14.0	0.8	71.0	-65.0	0.2	10.0	1.0	2.0	1.2387836474627427	2.246	0.0	stim	poldrack-single-stim	s595	False	1
501.297	1.5	500.546	n/a	-1.0	2.59	columbia_card_task_fmri	n/a	n/a	-1.0	n/a	n/a	n/a	n/a	n/a	n/a	n/a	n/a	ITI	poldrack-single-stim	s595	False	0
503.142	2.382	505.524	-0.844087666301951	end_round	2.382	columbia_card_task_fmri	17.0	0.8	71.0	-70.0	0.2	10.0	1.0	2.0	4.4384967461807	2.382	0.0	stim	poldrack-single-stim	s595	False	1
506.28	1.5	505.529	n/a	-1.0	2.386	columbia_card_task_fmri	n/a	n/a	-1.0	n/a	n/a	n/a	n/a	n/a	n/a	n/a	n/a	ITI	poldrack-single-stim	s595	False	0
507.92	4.953	512.873	-2.1107543329686185	end_round	4.953	columbia_card_task_fmri	13.0	0.8333333333333334	71.0	-75.0	0.1666666666666666	12.0	1.0	2.0	2.434333567579575	4.953	0.0	stim	poldrack-single-stim	s595	False	1
513.628	1.5	512.877	n/a	-1.0	2.59	columbia_card_task_fmri	n/a	n/a	-1.0	n/a	n/a	n/a	n/a	n/a	n/a	n/a	n/a	ITI	poldrack-single-stim	s595	False	0
515.472	1.467	516.939	-0.4440876663019507	end_round	1.467	columbia_card_task_fmri	14.0	0.8333333333333334	71.0	-70.0	0.1666666666666666	12.0	1.0	2.0	0.9437647384301008	1.467	0.0	stim	poldrack-single-stim	s595	False	1
517.698	1.5	516.947	n/a	-1.0	2.318	columbia_card_task_fmri	n/a	n/a	-1.0	n/a	n/a	n/a	n/a	n/a	n/a	n/a	n/a	ITI	poldrack-single-stim	s595	False	0
519.269	2.625	521.894	-0.4440876663019507	end_round	2.625	columbia_card_task_fmri	16.0	0.8333333333333334	71.0	-80.0	0.1666666666666666	12.0	1.0	2.0	5.415507010383973	2.625	0.0	stim	poldrack-single-stim	s595	False	1
522.651	1.5	521.9	n/a	-1.0	2.25	columbia_card_task_fmri	n/a	n/a	-1.0	n/a	n/a	n/a	n/a	n/a	n/a	n/a	n/a	ITI	poldrack-single-stim	s595	False	0
524.156	1.869	526.025	-0.6440876663019517	draw_card	1.869	columbia_card_task_fmri	16.0	0.8	89.0	-65.0	0.2	15.0	1.0	3.0	2.038706609893101	1.869	n/a	stim	poldrack-single-stim	s595	False	1
526.03	1.71	527.74	-1.8012305234448085	draw_card	1.71	columbia_card_task_fmri	16.0	0.7857142857142857	89.0	-65.0	0.2142857142857142	15.0	2.0	3.0	2.875028201526465	1.71	n/a	stim	poldrack-single-stim	s595	False	1
527.744	0.789	528.533	-3.136395358609646	end_round	0.789	columbia_card_task_fmri	16.0	0.7692307692307692	71.0	-65.0	0.2307692307692307	15.0	3.0	3.0	3.765881172970463	0.789	2.0	stim	poldrack-single-stim	s595	False	1
529.29	1.5	528.539	n/a	-1.0	2.454	columbia_card_task_fmri	n/a	n/a	-1.0	n/a	n/a	n/a	n/a	n/a	n/a	n/a	n/a	ITI	poldrack-single-stim	s595	False	0
531.0	1.68	532.68	-2.3190876663019524	draw_card	1.68	columbia_card_task_fmri	15.0	0.8125	89.0	-75.0	0.1875	16.0	1.0	3.0	4.766584023796927	1.68	n/a	stim	poldrack-single-stim	s595	False	1
532.686	0.663	533.349	-3.4440876663019524	draw_card	0.663	columbia_card_task_fmri	15.0	0.8	89.0	-75.0	0.2	16.0	2.0	3.0	5.6384023062546085	0.663	n/a	stim	poldrack-single-stim	s595	False	1
533.353	0.504	533.857	-4.7298019520162375	end_round	0.504	columbia_card_task_fmri	15.0	0.7857142857142857	71.0	-75.0	0.2142857142857142	16.0	3.0	3.0	6.567664683768765	0.504	2.0	stim	poldrack-single-stim	s595	False	1
534.612	1.5	533.861	n/a	-1.0	3.27	columbia_card_task_fmri	n/a	n/a	-1.0	n/a	n/a	n/a	n/a	n/a	n/a	n/a	n/a	ITI	poldrack-single-stim	s595	False	0
537.137	4.208	541.345	-1.7565876663019524	end_round	4.208	columbia_card_task_fmri	14.0	0.6875	71.0	-35.0	0.3125	16.0	1.0	5.0	-7.647887617263208	4.208	0.0	stim	poldrack-single-stim	s595	False	1
542.099	1.5	541.348	n/a	-1.0	2.25	columbia_card_task_fmri	n/a	n/a	-1.0	n/a	n/a	n/a	n/a	n/a	n/a	n/a	n/a	ITI	poldrack-single-stim	s595	False	0
543.603	1.755	545.358	3.4225790003647147	draw_card	1.755	columbia_card_task_fmri	16.0	0.8666666666666667	89.0	-75.0	0.1333333333333333	15.0	1.0	2.0	0.5729025306259636	1.755	n/a	stim	poldrack-single-stim	s595	False	1
545.361	0.524	545.885	2.5559123336980494	end_round	0.524	columbia_card_task_fmri	16.0	0.8571428571428572	71.0	-75.0	0.1428571428571428	15.0	2.0	2.0	1.4821264585736351	0.524	1.0	stim	poldrack-single-stim	s595	False	1
546.642	1.5	545.891	n/a	-1.0	2.25	columbia_card_task_fmri	n/a	n/a	-1.0	n/a	n/a	n/a	n/a	n/a	n/a	n/a	n/a	ITI	poldrack-single-stim	s595	False	0
548.147	1.204	549.351	4.08924566703138	draw_card	1.204	columbia_card_task_fmri	16.0	0.8666666666666667	89.0	-70.0	0.1333333333333333	15.0	1.0	2.0	-1.1265853424259724	1.204	n/a	stim	poldrack-single-stim	s595	False	1
549.356	0.334	549.69	3.270198047983763	end_round	0.334	columbia_card_task_fmri	16.0	0.8571428571428572	71.0	-70.0	0.1428571428571428	15.0	2.0	2.0	-0.2673290635304148	0.334	1.0	stim	poldrack-single-stim	s595	False	1
550.449	1.5	549.698	n/a	-1.0	2.318	columbia_card_task_fmri	n/a	n/a	-1.0	n/a	n/a	n/a	n/a	n/a	n/a	n/a	n/a	ITI	poldrack-single-stim	s595	False	0
552.021	1.341	553.362	1.4309123336980476	draw_card	1.341	columbia_card_task_fmri	8.0	0.9375	89.0	-90.0	0.0625	16.0	1.0	1.0	-6.638157272258393	1.341	n/a	stim	poldrack-single-stim	s595	False	1
553.367	1.77	555.137	1.0225790003647144	draw_card	1.77	columbia_card_task_fmri	8.0	0.9333333333333332	89.0	-90.0	0.0666666666666666	16.0	2.0	1.0	-5.914808330279946	1.77	2.0	stim	poldrack-single-stim	s595	False	0
555.896	1.5	555.145	n/a	-1.0	2.726	columbia_card_task_fmri	n/a	n/a	-1.0	n/a	n/a	n/a	n/a	n/a	n/a	n/a	n/a	ITI	poldrack-single-stim	s595	False	0
557.876	3.72	561.596	2.993412333698048	draw_card	3.72	columbia_card_task_fmri	10.0	0.9375	89.0	-95.0	0.0625	16.0	1.0	1.0	-4.944004108035905	3.72	n/a	stim	poldrack-single-stim	s595	False	1
561.601	0.348	561.949	2.5559123336980485	draw_card	0.348	columbia_card_task_fmri	10.0	0.9333333333333332	89.0	-95.0	0.0666666666666666	16.0	2.0	1.0	-4.168970404007556	0.348	n/a	stim	poldrack-single-stim	s595	False	1
561.955	0.431	562.386	2.0559123336980485	draw_card	0.431	columbia_card_task_fmri	10.0	0.9285714285714286	89.0	-95.0	0.0714285714285714	16.0	3.0	1.0	-3.319055865245783	0.431	n/a	stim	poldrack-single-stim	s595	False	1
562.391	0.353	562.744	1.478989256774971	draw_card	0.353	columbia_card_task_fmri	10.0	0.9230769230769232	89.0	-95.0	0.0769230769230769	16.0	4.0	1.0	-2.381530333023079	0.353	n/a	stim	poldrack-single-stim	s595	False	1
562.749	0.442	563.191	0.8059123336980476	draw_card	0.442	columbia_card_task_fmri	10.0	0.9166666666666666	89.0	-95.0	0.0833333333333333	16.0	5.0	1.0	-1.3404721133193649	0.442	n/a	stim	poldrack-single-stim	s595	False	1
563.195	0.381	563.576	0.0104577882435007	end_round	0.381	columbia_card_task_fmri	10.0	0.9090909090909092	71.0	-95.0	0.0909090909090909	16.0	6.0	1.0	-0.1756924706343809	0.381	5.0	stim	poldrack-single-stim	s595	False	1
564.331	1.5	563.58	n/a	-1.0	2.386	columbia_card_task_fmri	n/a	n/a	-1.0	n/a	n/a	n/a	n/a	n/a	n/a	n/a	n/a	ITI	poldrack-single-stim	s595	False	0
565.97	2.4	568.37	3.930912333698048	draw_card	2.4	columbia_card_task_fmri	15.0	0.875	89.0	-70.0	0.125	16.0	1.0	2.0	-2.249721452890334	2.4	n/a	stim	poldrack-single-stim	s595	False	1
568.375	0.401	568.776	3.2225790003647137	end_round	0.401	columbia_card_task_fmri	15.0	0.8666666666666667	71.0	-70.0	0.1333333333333333	16.0	2.0	2.0	-1.4664803015139114	0.401	1.0	stim	poldrack-single-stim	s595	False	1
569.534	1.5	568.783	n/a	-1.0	2.318	columbia_card_task_fmri	n/a	n/a	-1.0	n/a	n/a	n/a	n/a	n/a	n/a	n/a	n/a	ITI	poldrack-single-stim	s595	False	0
571.108	1.591	572.699	2.930912333698048	draw_card	1.591	columbia_card_task_fmri	16.0	0.875	89.0	-85.0	0.125	16.0	1.0	2.0	3.041225573388008	1.591	n/a	stim	poldrack-single-stim	s595	False	1
572.702	0.346	573.048	2.089245667031381	end_round	0.346	columbia_card_task_fmri	16.0	0.8666666666666667	71.0	-85.0	0.1333333333333333	16.0	2.0	2.0	3.971933308223651	0.346	1.0	stim	poldrack-single-stim	s595	False	1
573.805	1.5	573.054	n/a	-1.0	2.25	columbia_card_task_fmri	n/a	n/a	-1.0	n/a	n/a	n/a	n/a	n/a	n/a	n/a	n/a	ITI	poldrack-single-stim	s595	False	0
