duration	onset	block_duration	movement_onset	planning	condition	exp_stage	experiment_exp_id	key_press	problem_id	response_time	trial_id	trial_type	worker_id	junk
5.112	3.013	5.112	8.125	1	UA_with_intermediate	practice	ward_and_allport	71	0.0	5.112	to_hand	poldrack-single-stim	s595	False
0.1	8.127	0.604	8.731	0	UA_with_intermediate	practice	ward_and_allport	82	0.0	0.604	to_board	poldrack-single-stim	s595	False
0.1	8.734	0.902	9.636	0	UA_with_intermediate	practice	ward_and_allport	71	0.0	0.902	to_hand	poldrack-single-stim	s595	False
0.1	9.638	0.447	10.085	0	UA_with_intermediate	practice	ward_and_allport	89	0.0	0.447	to_board	poldrack-single-stim	s595	False
0.1	10.087	0.437	10.524	0	UA_with_intermediate	practice	ward_and_allport	82	0.0	0.437	to_hand	poldrack-single-stim	s595	False
0.1	10.525	0.454	10.979	0	UA_with_intermediate	practice	ward_and_allport	89	0.0	0.454	to_board	poldrack-single-stim	s595	False
1.0	10.986	2.5	10.985	0	UA_with_intermediate	practice	ward_and_allport	-1	0.0	n/a	feedback	poldrack-single-stim	s595	False
3.823	13.489	3.823	17.312	1	UA_with_intermediate	practice	ward_and_allport	89	1.0	3.823	to_hand	poldrack-single-stim	s595	False
0.1	17.312	0.435	17.747	0	UA_with_intermediate	practice	ward_and_allport	82	1.0	0.435	to_board	poldrack-single-stim	s595	False
0.1	17.749	0.406	18.155	0	UA_with_intermediate	practice	ward_and_allport	71	1.0	0.406	to_hand	poldrack-single-stim	s595	False
0.1	18.156	0.347	18.503	0	UA_with_intermediate	practice	ward_and_allport	89	1.0	0.347	to_board	poldrack-single-stim	s595	False
0.1	18.505	0.437	18.942	0	UA_with_intermediate	practice	ward_and_allport	82	1.0	0.437	to_hand	poldrack-single-stim	s595	False
0.1	18.943	0.331	19.274	0	UA_with_intermediate	practice	ward_and_allport	89	1.0	0.331	to_board	poldrack-single-stim	s595	False
1.0	19.28	2.1	19.279	0	UA_with_intermediate	practice	ward_and_allport	-1	1.0	n/a	feedback	poldrack-single-stim	s595	False
2.685	21.382	2.685	24.067	1	UA_without_intermediate	practice	ward_and_allport	82	2.0	2.685	to_hand	poldrack-single-stim	s595	False
0.1	24.068	0.362	24.43	0	UA_without_intermediate	practice	ward_and_allport	89	2.0	0.362	to_board	poldrack-single-stim	s595	False
0.1	24.432	0.888	25.32	0	UA_without_intermediate	practice	ward_and_allport	71	2.0	0.888	to_hand	poldrack-single-stim	s595	False
0.1	25.321	0.31	25.631	0	UA_without_intermediate	practice	ward_and_allport	89	2.0	0.31	to_board	poldrack-single-stim	s595	False
0.1	25.634	0.488	26.122	0	UA_without_intermediate	practice	ward_and_allport	71	2.0	0.488	to_hand	poldrack-single-stim	s595	False
0.1	26.124	0.297	26.421	0	UA_without_intermediate	practice	ward_and_allport	89	2.0	0.297	to_board	poldrack-single-stim	s595	False
1.0	26.428	2.2	26.427	0	UA_without_intermediate	practice	ward_and_allport	-1	2.0	n/a	feedback	poldrack-single-stim	s595	False
4.126	28.63	4.126	32.756	1	UA_without_intermediate	practice	ward_and_allport	71	3.0	4.126	to_hand	poldrack-single-stim	s595	False
0.1	32.758	0.311	33.069	0	UA_without_intermediate	practice	ward_and_allport	89	3.0	0.311	to_board	poldrack-single-stim	s595	False
0.1	33.071	0.492	33.563	0	UA_without_intermediate	practice	ward_and_allport	82	3.0	0.492	to_hand	poldrack-single-stim	s595	False
0.1	33.564	0.482	34.046	0	UA_without_intermediate	practice	ward_and_allport	89	3.0	0.482	to_board	poldrack-single-stim	s595	False
0.1	34.048	0.38	34.428	0	UA_without_intermediate	practice	ward_and_allport	71	3.0	0.38	to_hand	poldrack-single-stim	s595	False
0.1	34.429	0.368	34.797	0	UA_without_intermediate	practice	ward_and_allport	89	3.0	0.368	to_board	poldrack-single-stim	s595	False
1.0	34.804	2.0	34.803	0	UA_without_intermediate	practice	ward_and_allport	-1	3.0	n/a	feedback	poldrack-single-stim	s595	False
5.155	38.81	5.155	43.965	1	PA_with_intermediate	test	ward_and_allport	71	0.0	5.155	to_hand	poldrack-single-stim	s595	False
0.1	43.966	0.298	44.264	0	PA_with_intermediate	test	ward_and_allport	89	0.0	0.298	to_board	poldrack-single-stim	s595	False
0.1	44.266	0.619	44.885	0	PA_with_intermediate	test	ward_and_allport	71	0.0	0.619	to_hand	poldrack-single-stim	s595	False
0.1	44.887	0.287	45.174	0	PA_with_intermediate	test	ward_and_allport	82	0.0	0.287	to_board	poldrack-single-stim	s595	False
0.1	45.176	0.401	45.577	0	PA_with_intermediate	test	ward_and_allport	89	0.0	0.401	to_hand	poldrack-single-stim	s595	False
0.1	45.578	0.401	45.979	0	PA_with_intermediate	test	ward_and_allport	82	0.0	0.401	to_board	poldrack-single-stim	s595	False
1.0	45.986	3.768	45.985	0	PA_with_intermediate	test	ward_and_allport	-1	0.0	n/a	feedback	poldrack-single-stim	s595	False
4.274	49.757	4.274	54.031	1	PA_with_intermediate	test	ward_and_allport	71	1.0	4.274	to_hand	poldrack-single-stim	s595	False
0.1	54.033	0.357	54.39	0	PA_with_intermediate	test	ward_and_allport	82	1.0	0.357	to_board	poldrack-single-stim	s595	False
0.1	54.393	0.382	54.775	0	PA_with_intermediate	test	ward_and_allport	71	1.0	0.382	to_hand	poldrack-single-stim	s595	False
0.1	54.776	0.331	55.107	0	PA_with_intermediate	test	ward_and_allport	89	1.0	0.331	to_board	poldrack-single-stim	s595	False
0.1	55.11	0.425	55.535	0	PA_with_intermediate	test	ward_and_allport	82	1.0	0.425	to_hand	poldrack-single-stim	s595	False
0.1	55.537	0.395	55.932	0	PA_with_intermediate	test	ward_and_allport	71	1.0	0.395	to_board	poldrack-single-stim	s595	False
1.0	55.938	2.68	55.937	0	PA_with_intermediate	test	ward_and_allport	-1	1.0	n/a	feedback	poldrack-single-stim	s595	False
4.084	58.621	4.084	62.705	1	PA_without_intermediate	test	ward_and_allport	71	2.0	4.084	to_hand	poldrack-single-stim	s595	False
0.1	62.707	0.318	63.025	0	PA_without_intermediate	test	ward_and_allport	82	2.0	0.318	to_board	poldrack-single-stim	s595	False
0.1	63.029	0.356	63.385	0	PA_without_intermediate	test	ward_and_allport	71	2.0	0.356	to_hand	poldrack-single-stim	s595	False
0.1	63.385	0.325	63.71	0	PA_without_intermediate	test	ward_and_allport	89	2.0	0.325	to_board	poldrack-single-stim	s595	False
0.1	63.714	0.411	64.125	0	PA_without_intermediate	test	ward_and_allport	71	2.0	0.411	to_hand	poldrack-single-stim	s595	False
0.1	64.126	0.392	64.518	0	PA_without_intermediate	test	ward_and_allport	82	2.0	0.392	to_board	poldrack-single-stim	s595	False
1.0	64.526	3.224	64.525	0	PA_without_intermediate	test	ward_and_allport	-1	2.0	n/a	feedback	poldrack-single-stim	s595	False
5.284	67.752	5.284	73.036	1	PA_without_intermediate	test	ward_and_allport	89	3.0	5.284	to_hand	poldrack-single-stim	s595	False
0.1	73.036	0.337	73.373	0	PA_without_intermediate	test	ward_and_allport	71	3.0	0.337	to_board	poldrack-single-stim	s595	False
0.1	73.376	1.215	74.591	0	PA_without_intermediate	test	ward_and_allport	89	3.0	1.215	to_hand	poldrack-single-stim	s595	False
0.1	74.592	0.388	74.98	0	PA_without_intermediate	test	ward_and_allport	82	3.0	0.388	to_board	poldrack-single-stim	s595	False
0.1	74.983	0.755	75.738	0	PA_without_intermediate	test	ward_and_allport	89	3.0	0.755	to_hand	poldrack-single-stim	s595	False
0.1	75.739	0.391	76.13	0	PA_without_intermediate	test	ward_and_allport	71	3.0	0.391	to_board	poldrack-single-stim	s595	False
1.0	76.134	3.36	76.133	0	PA_without_intermediate	test	ward_and_allport	-1	3.0	n/a	feedback	poldrack-single-stim	s595	False
3.905	79.497	3.905	83.402	1	PA_without_intermediate	test	ward_and_allport	89	4.0	3.905	to_hand	poldrack-single-stim	s595	False
0.1	83.404	0.334	83.738	0	PA_without_intermediate	test	ward_and_allport	82	4.0	0.334	to_board	poldrack-single-stim	s595	False
0.1	83.741	0.563	84.304	0	PA_without_intermediate	test	ward_and_allport	89	4.0	0.563	to_hand	poldrack-single-stim	s595	False
0.1	84.306	0.71	85.016	0	PA_without_intermediate	test	ward_and_allport	82	4.0	0.71	to_board	poldrack-single-stim	s595	False
0.1	85.019	0.786	85.805	0	PA_without_intermediate	test	ward_and_allport	89	4.0	0.786	to_hand	poldrack-single-stim	s595	False
0.1	85.807	0.435	86.242	0	PA_without_intermediate	test	ward_and_allport	71	4.0	0.435	to_board	poldrack-single-stim	s595	False
1.0	86.246	2.0	86.245	0	PA_without_intermediate	test	ward_and_allport	-1	4.0	n/a	feedback	poldrack-single-stim	s595	False
2.16	88.25	2.16	90.41	1	PA_without_intermediate	test	ward_and_allport	82	5.0	2.16	to_hand	poldrack-single-stim	s595	False
0.1	90.411	0.365	90.776	0	PA_without_intermediate	test	ward_and_allport	89	5.0	0.365	to_board	poldrack-single-stim	s595	False
0.1	90.78	0.958	91.738	0	PA_without_intermediate	test	ward_and_allport	82	5.0	0.958	to_hand	poldrack-single-stim	s595	False
0.1	91.739	0.417	92.156	0	PA_without_intermediate	test	ward_and_allport	89	5.0	0.417	to_board	poldrack-single-stim	s595	False
0.1	92.159	0.805	92.964	0	PA_without_intermediate	test	ward_and_allport	82	5.0	0.805	to_hand	poldrack-single-stim	s595	False
0.1	92.965	0.347	93.312	0	PA_without_intermediate	test	ward_and_allport	71	5.0	0.347	to_board	poldrack-single-stim	s595	False
1.0	93.317	2.408	93.316	0	PA_without_intermediate	test	ward_and_allport	-1	5.0	n/a	feedback	poldrack-single-stim	s595	False
3.679	95.728	3.679	99.407	1	PA_with_intermediate	test	ward_and_allport	71	6.0	3.679	to_hand	poldrack-single-stim	s595	False
0.1	99.408	0.405	99.813	0	PA_with_intermediate	test	ward_and_allport	89	6.0	0.405	to_board	poldrack-single-stim	s595	False
0.1	99.817	0.677	100.494	0	PA_with_intermediate	test	ward_and_allport	71	6.0	0.677	to_hand	poldrack-single-stim	s595	False
0.1	100.495	0.322	100.817	0	PA_with_intermediate	test	ward_and_allport	82	6.0	0.322	to_board	poldrack-single-stim	s595	False
0.1	100.82	2.191	103.011	0	PA_with_intermediate	test	ward_and_allport	89	6.0	2.191	to_hand	poldrack-single-stim	s595	False
0.1	103.013	0.431	103.444	0	PA_with_intermediate	test	ward_and_allport	71	6.0	0.431	to_board	poldrack-single-stim	s595	False
1.0	103.449	2.136	103.448	0	PA_with_intermediate	test	ward_and_allport	-1	6.0	n/a	feedback	poldrack-single-stim	s595	False
4.694	105.589	4.694	110.283	1	PA_without_intermediate	test	ward_and_allport	82	7.0	4.694	to_hand	poldrack-single-stim	s595	False
0.1	110.285	0.584	110.869	0	PA_without_intermediate	test	ward_and_allport	71	7.0	0.584	to_board	poldrack-single-stim	s595	False
0.1	110.873	1.511	112.384	0	PA_without_intermediate	test	ward_and_allport	82	7.0	1.511	to_hand	poldrack-single-stim	s595	False
0.1	112.386	0.426	112.812	0	PA_without_intermediate	test	ward_and_allport	89	7.0	0.426	to_board	poldrack-single-stim	s595	False
0.1	112.816	1.232	114.048	0	PA_without_intermediate	test	ward_and_allport	82	7.0	1.232	to_hand	poldrack-single-stim	s595	False
0.1	114.049	0.419	114.468	0	PA_without_intermediate	test	ward_and_allport	71	7.0	0.419	to_board	poldrack-single-stim	s595	False
1.0	114.474	5.128	114.473	0	PA_without_intermediate	test	ward_and_allport	-1	7.0	n/a	feedback	poldrack-single-stim	s595	False
3.699	119.606	3.699	123.305	1	PA_without_intermediate	test	ward_and_allport	89	8.0	3.699	to_hand	poldrack-single-stim	s595	False
0.1	123.306	0.438	123.744	0	PA_without_intermediate	test	ward_and_allport	82	8.0	0.438	to_board	poldrack-single-stim	s595	False
0.1	123.748	1.077	124.825	0	PA_without_intermediate	test	ward_and_allport	89	8.0	1.077	to_hand	poldrack-single-stim	s595	False
0.1	124.826	0.314	125.14	0	PA_without_intermediate	test	ward_and_allport	71	8.0	0.314	to_board	poldrack-single-stim	s595	False
0.1	125.144	0.612	125.756	0	PA_without_intermediate	test	ward_and_allport	89	8.0	0.612	to_hand	poldrack-single-stim	s595	False
0.1	125.758	0.392	126.15	0	PA_without_intermediate	test	ward_and_allport	82	8.0	0.392	to_board	poldrack-single-stim	s595	False
1.0	126.155	2.136	126.154	0	PA_without_intermediate	test	ward_and_allport	-1	8.0	n/a	feedback	poldrack-single-stim	s595	False
2.133	128.295	2.133	130.428	1	PA_without_intermediate	test	ward_and_allport	71	9.0	2.133	to_hand	poldrack-single-stim	s595	False
0.1	130.43	0.335	130.765	0	PA_without_intermediate	test	ward_and_allport	82	9.0	0.335	to_board	poldrack-single-stim	s595	False
0.1	130.769	0.96	131.729	0	PA_without_intermediate	test	ward_and_allport	71	9.0	0.96	to_hand	poldrack-single-stim	s595	False
0.1	131.73	0.354	132.084	0	PA_without_intermediate	test	ward_and_allport	82	9.0	0.354	to_board	poldrack-single-stim	s595	False
0.1	132.088	0.836	132.924	0	PA_without_intermediate	test	ward_and_allport	71	9.0	0.836	to_hand	poldrack-single-stim	s595	False
0.1	132.925	0.289	133.214	0	PA_without_intermediate	test	ward_and_allport	89	9.0	0.289	to_board	poldrack-single-stim	s595	False
1.0	133.219	5.264	133.218	0	PA_without_intermediate	test	ward_and_allport	-1	9.0	n/a	feedback	poldrack-single-stim	s595	False
3.547	138.486	3.547	142.033	1	PA_with_intermediate	test	ward_and_allport	82	10.0	3.547	to_hand	poldrack-single-stim	s595	False
0.1	142.034	0.366	142.4	0	PA_with_intermediate	test	ward_and_allport	71	10.0	0.366	to_board	poldrack-single-stim	s595	False
0.1	142.405	0.658	143.063	0	PA_with_intermediate	test	ward_and_allport	82	10.0	0.658	to_hand	poldrack-single-stim	s595	False
0.1	143.065	0.36	143.425	0	PA_with_intermediate	test	ward_and_allport	89	10.0	0.36	to_board	poldrack-single-stim	s595	False
0.1	143.429	0.972	144.401	0	PA_with_intermediate	test	ward_and_allport	71	10.0	0.972	to_hand	poldrack-single-stim	s595	False
0.1	144.402	0.328	144.73	0	PA_with_intermediate	test	ward_and_allport	82	10.0	0.328	to_board	poldrack-single-stim	s595	False
1.0	144.737	4.04	144.736	0	PA_with_intermediate	test	ward_and_allport	-1	10.0	n/a	feedback	poldrack-single-stim	s595	False
4.202	148.781	4.202	152.983	1	PA_with_intermediate	test	ward_and_allport	82	11.0	4.202	to_hand	poldrack-single-stim	s595	False
0.1	152.986	0.423	153.409	0	PA_with_intermediate	test	ward_and_allport	89	11.0	0.423	to_board	poldrack-single-stim	s595	False
0.1	153.416	0.861	154.277	0	PA_with_intermediate	test	ward_and_allport	82	11.0	0.861	to_hand	poldrack-single-stim	s595	False
0.1	154.278	0.386	154.664	0	PA_with_intermediate	test	ward_and_allport	71	11.0	0.386	to_board	poldrack-single-stim	s595	False
0.1	154.669	0.478	155.147	0	PA_with_intermediate	test	ward_and_allport	89	11.0	0.478	to_hand	poldrack-single-stim	s595	False
0.1	155.148	0.336	155.484	0	PA_with_intermediate	test	ward_and_allport	71	11.0	0.336	to_board	poldrack-single-stim	s595	False
1.0	155.49	2.136	155.489	0	PA_with_intermediate	test	ward_and_allport	-1	11.0	n/a	feedback	poldrack-single-stim	s595	False
2.901	157.631	2.901	160.532	1	PA_with_intermediate	test	ward_and_allport	82	12.0	2.901	to_hand	poldrack-single-stim	s595	False
0.1	160.533	0.289	160.822	0	PA_with_intermediate	test	ward_and_allport	89	12.0	0.289	to_board	poldrack-single-stim	s595	False
0.1	160.827	0.6	161.427	0	PA_with_intermediate	test	ward_and_allport	82	12.0	0.6	to_hand	poldrack-single-stim	s595	False
0.1	161.429	0.379	161.808	0	PA_with_intermediate	test	ward_and_allport	71	12.0	0.379	to_board	poldrack-single-stim	s595	False
0.1	161.814	0.37	162.184	0	PA_with_intermediate	test	ward_and_allport	89	12.0	0.37	to_hand	poldrack-single-stim	s595	False
0.1	162.186	0.403	162.589	0	PA_with_intermediate	test	ward_and_allport	71	12.0	0.403	to_board	poldrack-single-stim	s595	False
1.0	162.599	2.408	162.598	0	PA_with_intermediate	test	ward_and_allport	-1	12.0	n/a	feedback	poldrack-single-stim	s595	False
2.954	165.012	2.954	167.966	1	PA_without_intermediate	test	ward_and_allport	89	13.0	2.954	to_hand	poldrack-single-stim	s595	False
0.1	167.967	0.349	168.316	0	PA_without_intermediate	test	ward_and_allport	82	13.0	0.349	to_board	poldrack-single-stim	s595	False
0.1	168.321	0.99	169.311	0	PA_without_intermediate	test	ward_and_allport	89	13.0	0.99	to_hand	poldrack-single-stim	s595	False
0.1	169.313	0.654	169.967	0	PA_without_intermediate	test	ward_and_allport	82	13.0	0.654	to_board	poldrack-single-stim	s595	False
0.1	169.971	0.548	170.519	0	PA_without_intermediate	test	ward_and_allport	89	13.0	0.548	to_hand	poldrack-single-stim	s595	False
0.1	170.522	0.304	170.826	0	PA_without_intermediate	test	ward_and_allport	71	13.0	0.304	to_board	poldrack-single-stim	s595	False
1.0	170.834	2.68	170.833	0	PA_without_intermediate	test	ward_and_allport	-1	13.0	n/a	feedback	poldrack-single-stim	s595	False
3.811	173.519	3.811	177.33	1	PA_with_intermediate	test	ward_and_allport	71	14.0	3.811	to_hand	poldrack-single-stim	s595	False
0.1	177.332	0.297	177.629	0	PA_with_intermediate	test	ward_and_allport	82	14.0	0.297	to_board	poldrack-single-stim	s595	False
0.1	177.634	0.518	178.152	0	PA_with_intermediate	test	ward_and_allport	71	14.0	0.518	to_hand	poldrack-single-stim	s595	False
0.1	178.153	0.497	178.65	0	PA_with_intermediate	test	ward_and_allport	89	14.0	0.497	to_board	poldrack-single-stim	s595	False
0.1	178.655	0.554	179.209	0	PA_with_intermediate	test	ward_and_allport	82	14.0	0.554	to_hand	poldrack-single-stim	s595	False
0.1	179.21	0.404	179.614	0	PA_with_intermediate	test	ward_and_allport	89	14.0	0.404	to_board	poldrack-single-stim	s595	False
1.0	179.621	4.72	179.62	0	PA_with_intermediate	test	ward_and_allport	-1	14.0	n/a	feedback	poldrack-single-stim	s595	False
6.22	189.35	6.22	195.57	1	PA_without_intermediate	test	ward_and_allport	82	15.0	6.22	to_hand	poldrack-single-stim	s595	False
0.1	195.57	0.326	195.896	0	PA_without_intermediate	test	ward_and_allport	71	15.0	0.326	to_board	poldrack-single-stim	s595	False
0.1	195.902	0.364	196.266	0	PA_without_intermediate	test	ward_and_allport	82	15.0	0.364	to_hand	poldrack-single-stim	s595	False
0.1	196.268	0.415	196.683	0	PA_without_intermediate	test	ward_and_allport	89	15.0	0.415	to_board	poldrack-single-stim	s595	False
0.1	196.688	0.501	197.189	0	PA_without_intermediate	test	ward_and_allport	82	15.0	0.501	to_hand	poldrack-single-stim	s595	False
0.1	197.19	0.371	197.561	0	PA_without_intermediate	test	ward_and_allport	71	15.0	0.371	to_board	poldrack-single-stim	s595	False
1.0	197.568	3.224	197.567	0	PA_without_intermediate	test	ward_and_allport	-1	15.0	n/a	feedback	poldrack-single-stim	s595	False
4.049	200.798	4.049	204.847	1	PA_without_intermediate	test	ward_and_allport	82	16.0	4.049	to_hand	poldrack-single-stim	s595	False
0.1	204.848	0.313	205.161	0	PA_without_intermediate	test	ward_and_allport	71	16.0	0.313	to_board	poldrack-single-stim	s595	False
0.1	205.167	0.371	205.538	0	PA_without_intermediate	test	ward_and_allport	82	16.0	0.371	to_hand	poldrack-single-stim	s595	False
0.1	205.539	0.409	205.948	0	PA_without_intermediate	test	ward_and_allport	71	16.0	0.409	to_board	poldrack-single-stim	s595	False
0.1	205.953	0.612	206.565	0	PA_without_intermediate	test	ward_and_allport	82	16.0	0.612	to_hand	poldrack-single-stim	s595	False
0.1	206.567	0.28	206.847	0	PA_without_intermediate	test	ward_and_allport	89	16.0	0.28	to_board	poldrack-single-stim	s595	False
1.0	206.853	2.272	206.852	0	PA_without_intermediate	test	ward_and_allport	-1	16.0	n/a	feedback	poldrack-single-stim	s595	False
4.767	209.13	4.767	213.897	1	PA_with_intermediate	test	ward_and_allport	82	17.0	4.767	to_hand	poldrack-single-stim	s595	False
0.1	213.898	0.345	214.243	0	PA_with_intermediate	test	ward_and_allport	71	17.0	0.345	to_board	poldrack-single-stim	s595	False
0.1	214.249	0.342	214.591	0	PA_with_intermediate	test	ward_and_allport	82	17.0	0.342	to_hand	poldrack-single-stim	s595	False
0.1	214.593	0.36	214.953	0	PA_with_intermediate	test	ward_and_allport	89	17.0	0.36	to_board	poldrack-single-stim	s595	False
0.1	214.959	0.835	215.794	0	PA_with_intermediate	test	ward_and_allport	71	17.0	0.835	to_hand	poldrack-single-stim	s595	False
0.1	215.795	0.257	216.052	0	PA_with_intermediate	test	ward_and_allport	89	17.0	0.257	to_board	poldrack-single-stim	s595	False
1.0	216.06	3.632	216.059	0	PA_with_intermediate	test	ward_and_allport	-1	17.0	n/a	feedback	poldrack-single-stim	s595	False
3.942	219.697	3.942	223.639	1	PA_without_intermediate	test	ward_and_allport	71	18.0	3.942	to_hand	poldrack-single-stim	s595	False
0.1	223.64	0.299	223.939	0	PA_without_intermediate	test	ward_and_allport	89	18.0	0.299	to_board	poldrack-single-stim	s595	False
0.1	223.945	0.352	224.297	0	PA_without_intermediate	test	ward_and_allport	71	18.0	0.352	to_hand	poldrack-single-stim	s595	False
0.1	224.298	0.388	224.686	0	PA_without_intermediate	test	ward_and_allport	89	18.0	0.388	to_board	poldrack-single-stim	s595	False
0.1	224.691	0.574	225.265	0	PA_without_intermediate	test	ward_and_allport	71	18.0	0.574	to_hand	poldrack-single-stim	s595	False
0.1	225.266	0.297	225.563	0	PA_without_intermediate	test	ward_and_allport	82	18.0	0.297	to_board	poldrack-single-stim	s595	False
1.0	225.569	2.408	225.568	0	PA_without_intermediate	test	ward_and_allport	-1	18.0	n/a	feedback	poldrack-single-stim	s595	False
3.546	227.983	3.546	231.529	1	PA_without_intermediate	test	ward_and_allport	82	19.0	3.546	to_hand	poldrack-single-stim	s595	False
0.1	231.531	0.32	231.851	0	PA_without_intermediate	test	ward_and_allport	89	19.0	0.32	to_board	poldrack-single-stim	s595	False
0.1	231.858	0.443	232.301	0	PA_without_intermediate	test	ward_and_allport	82	19.0	0.443	to_hand	poldrack-single-stim	s595	False
0.1	232.303	0.291	232.594	0	PA_without_intermediate	test	ward_and_allport	71	19.0	0.291	to_board	poldrack-single-stim	s595	False
0.1	232.6	0.387	232.987	0	PA_without_intermediate	test	ward_and_allport	82	19.0	0.387	to_hand	poldrack-single-stim	s595	False
0.1	232.989	0.377	233.366	0	PA_without_intermediate	test	ward_and_allport	89	19.0	0.377	to_board	poldrack-single-stim	s595	False
1.0	233.373	2.0	233.372	0	PA_without_intermediate	test	ward_and_allport	-1	19.0	n/a	feedback	poldrack-single-stim	s595	False
3.1	235.378	3.1	238.478	1	PA_with_intermediate	test	ward_and_allport	89	20.0	3.1	to_hand	poldrack-single-stim	s595	False
0.1	238.479	0.354	238.833	0	PA_with_intermediate	test	ward_and_allport	82	20.0	0.354	to_board	poldrack-single-stim	s595	False
0.1	238.839	0.874	239.713	0	PA_with_intermediate	test	ward_and_allport	89	20.0	0.874	to_hand	poldrack-single-stim	s595	False
0.1	239.714	0.366	240.08	0	PA_with_intermediate	test	ward_and_allport	71	20.0	0.366	to_board	poldrack-single-stim	s595	False
0.1	240.086	1.295	241.381	0	PA_with_intermediate	test	ward_and_allport	82	20.0	1.295	to_hand	poldrack-single-stim	s595	False
0.1	241.382	0.359	241.741	0	PA_with_intermediate	test	ward_and_allport	71	20.0	0.359	to_board	poldrack-single-stim	s595	False
1.0	241.751	2.0	241.75	0	PA_with_intermediate	test	ward_and_allport	-1	20.0	n/a	feedback	poldrack-single-stim	s595	False
4.633	243.758	4.633	248.391	1	PA_with_intermediate	test	ward_and_allport	89	21.0	4.633	to_hand	poldrack-single-stim	s595	False
0.1	248.392	0.327	248.719	0	PA_with_intermediate	test	ward_and_allport	71	21.0	0.327	to_board	poldrack-single-stim	s595	False
0.1	248.725	0.406	249.131	0	PA_with_intermediate	test	ward_and_allport	89	21.0	0.406	to_hand	poldrack-single-stim	s595	False
0.1	249.132	0.4	249.532	0	PA_with_intermediate	test	ward_and_allport	82	21.0	0.4	to_board	poldrack-single-stim	s595	False
0.1	249.538	0.465	250.003	0	PA_with_intermediate	test	ward_and_allport	71	21.0	0.465	to_hand	poldrack-single-stim	s595	False
0.1	250.005	0.362	250.367	0	PA_with_intermediate	test	ward_and_allport	82	21.0	0.362	to_board	poldrack-single-stim	s595	False
1.0	250.375	2.0	250.374	0	PA_with_intermediate	test	ward_and_allport	-1	21.0	n/a	feedback	poldrack-single-stim	s595	False
3.669	252.382	3.669	256.051	1	PA_with_intermediate	test	ward_and_allport	82	22.0	3.669	to_hand	poldrack-single-stim	s595	False
0.1	256.053	0.326	256.379	0	PA_with_intermediate	test	ward_and_allport	71	22.0	0.326	to_board	poldrack-single-stim	s595	False
0.1	256.385	0.62	257.005	0	PA_with_intermediate	test	ward_and_allport	82	22.0	0.62	to_hand	poldrack-single-stim	s595	False
0.1	257.007	0.263	257.27	0	PA_with_intermediate	test	ward_and_allport	89	22.0	0.263	to_board	poldrack-single-stim	s595	False
0.1	257.278	0.483	257.761	0	PA_with_intermediate	test	ward_and_allport	71	22.0	0.483	to_hand	poldrack-single-stim	s595	False
0.1	257.762	0.263	258.025	0	PA_with_intermediate	test	ward_and_allport	82	22.0	0.263	to_board	poldrack-single-stim	s595	False
1.0	258.034	2.408	258.033	0	PA_with_intermediate	test	ward_and_allport	-1	22.0	n/a	feedback	poldrack-single-stim	s595	False
5.167	260.447	5.167	265.614	1	PA_without_intermediate	test	ward_and_allport	71	23.0	5.167	to_hand	poldrack-single-stim	s595	False
0.1	265.615	0.303	265.918	0	PA_without_intermediate	test	ward_and_allport	89	23.0	0.303	to_board	poldrack-single-stim	s595	False
0.1	265.925	0.463	266.388	0	PA_without_intermediate	test	ward_and_allport	71	23.0	0.463	to_hand	poldrack-single-stim	s595	False
0.1	266.389	0.308	266.697	0	PA_without_intermediate	test	ward_and_allport	82	23.0	0.308	to_board	poldrack-single-stim	s595	False
0.1	266.704	0.427	267.131	0	PA_without_intermediate	test	ward_and_allport	71	23.0	0.427	to_hand	poldrack-single-stim	s595	False
0.1	267.132	0.253	267.385	0	PA_without_intermediate	test	ward_and_allport	89	23.0	0.253	to_board	poldrack-single-stim	s595	False
1.0	267.393	2.816	267.392	0	PA_without_intermediate	test	ward_and_allport	-1	23.0	n/a	feedback	poldrack-single-stim	s595	False
4.599	270.217	4.599	274.816	1	PA_with_intermediate	test	ward_and_allport	89	24.0	4.599	to_hand	poldrack-single-stim	s595	False
0.1	274.817	0.254	275.071	0	PA_with_intermediate	test	ward_and_allport	71	24.0	0.254	to_board	poldrack-single-stim	s595	False
0.1	275.08	0.358	275.438	0	PA_with_intermediate	test	ward_and_allport	89	24.0	0.358	to_hand	poldrack-single-stim	s595	False
0.1	275.439	0.385	275.824	0	PA_with_intermediate	test	ward_and_allport	82	24.0	0.385	to_board	poldrack-single-stim	s595	False
0.1	275.832	0.621	276.453	0	PA_with_intermediate	test	ward_and_allport	71	24.0	0.621	to_hand	poldrack-single-stim	s595	False
0.1	276.454	0.315	276.769	0	PA_with_intermediate	test	ward_and_allport	89	24.0	0.315	to_board	poldrack-single-stim	s595	False
1.0	276.778	4.176	276.777	0	PA_with_intermediate	test	ward_and_allport	-1	24.0	n/a	feedback	poldrack-single-stim	s595	False
4.082	280.962	4.082	285.044	1	PA_with_intermediate	test	ward_and_allport	71	25.0	4.082	to_hand	poldrack-single-stim	s595	False
0.1	285.046	0.225	285.271	0	PA_with_intermediate	test	ward_and_allport	89	25.0	0.225	to_board	poldrack-single-stim	s595	False
0.1	285.28	0.302	285.582	0	PA_with_intermediate	test	ward_and_allport	71	25.0	0.302	to_hand	poldrack-single-stim	s595	False
0.1	285.583	0.263	285.846	0	PA_with_intermediate	test	ward_and_allport	82	25.0	0.263	to_board	poldrack-single-stim	s595	False
0.1	285.854	0.351	286.205	0	PA_with_intermediate	test	ward_and_allport	89	25.0	0.351	to_hand	poldrack-single-stim	s595	False
0.1	286.207	0.287	286.494	0	PA_with_intermediate	test	ward_and_allport	82	25.0	0.287	to_board	poldrack-single-stim	s595	False
1.0	286.505	3.36	286.504	0	PA_with_intermediate	test	ward_and_allport	-1	25.0	n/a	feedback	poldrack-single-stim	s595	False
2.929	289.875	2.929	292.804	1	PA_with_intermediate	test	ward_and_allport	71	26.0	2.929	to_hand	poldrack-single-stim	s595	False
0.1	292.805	0.277	293.082	0	PA_with_intermediate	test	ward_and_allport	82	26.0	0.277	to_board	poldrack-single-stim	s595	False
0.1	293.089	0.268	293.357	0	PA_with_intermediate	test	ward_and_allport	71	26.0	0.268	to_hand	poldrack-single-stim	s595	False
0.1	293.359	0.438	293.797	0	PA_with_intermediate	test	ward_and_allport	89	26.0	0.438	to_board	poldrack-single-stim	s595	False
0.1	293.805	0.55	294.355	0	PA_with_intermediate	test	ward_and_allport	82	26.0	0.55	to_hand	poldrack-single-stim	s595	False
0.1	294.355	0.302	294.657	0	PA_with_intermediate	test	ward_and_allport	89	26.0	0.302	to_board	poldrack-single-stim	s595	False
1.0	294.665	2.0	294.664	0	PA_with_intermediate	test	ward_and_allport	-1	26.0	n/a	feedback	poldrack-single-stim	s595	False
2.212	296.674	2.212	298.886	1	PA_without_intermediate	test	ward_and_allport	82	27.0	2.212	to_hand	poldrack-single-stim	s595	False
0.1	298.887	0.252	299.139	0	PA_without_intermediate	test	ward_and_allport	89	27.0	0.252	to_board	poldrack-single-stim	s595	False
0.1	299.147	1.139	300.286	0	PA_without_intermediate	test	ward_and_allport	82	27.0	1.139	to_hand	poldrack-single-stim	s595	False
0.1	300.287	0.296	300.583	0	PA_without_intermediate	test	ward_and_allport	89	27.0	0.296	to_board	poldrack-single-stim	s595	False
0.1	300.592	1.506	302.098	0	PA_without_intermediate	test	ward_and_allport	82	27.0	1.506	to_hand	poldrack-single-stim	s595	False
0.1	302.099	0.219	302.318	0	PA_without_intermediate	test	ward_and_allport	71	27.0	0.219	to_board	poldrack-single-stim	s595	False
1.0	302.327	2.408	302.326	0	PA_without_intermediate	test	ward_and_allport	-1	27.0	n/a	feedback	poldrack-single-stim	s595	False
5.446	304.744	5.446	310.19	1	PA_with_intermediate	test	ward_and_allport	82	28.0	5.446	to_hand	poldrack-single-stim	s595	False
0.1	310.191	0.294	310.485	0	PA_with_intermediate	test	ward_and_allport	71	28.0	0.294	to_board	poldrack-single-stim	s595	False
0.1	310.493	0.419	310.912	0	PA_with_intermediate	test	ward_and_allport	82	28.0	0.419	to_hand	poldrack-single-stim	s595	False
0.1	310.914	0.293	311.207	0	PA_with_intermediate	test	ward_and_allport	89	28.0	0.293	to_board	poldrack-single-stim	s595	False
0.1	311.215	0.664	311.879	0	PA_with_intermediate	test	ward_and_allport	71	28.0	0.664	to_hand	poldrack-single-stim	s595	False
0.1	311.881	0.278	312.159	0	PA_with_intermediate	test	ward_and_allport	89	28.0	0.278	to_board	poldrack-single-stim	s595	False
1.0	312.17	2.816	312.169	0	PA_with_intermediate	test	ward_and_allport	-1	28.0	n/a	feedback	poldrack-single-stim	s595	False
3.731	314.994	3.731	318.725	1	PA_without_intermediate	test	ward_and_allport	89	29.0	3.731	to_hand	poldrack-single-stim	s595	False
0.1	318.726	0.238	318.964	0	PA_without_intermediate	test	ward_and_allport	71	29.0	0.238	to_board	poldrack-single-stim	s595	False
0.1	318.974	0.611	319.585	0	PA_without_intermediate	test	ward_and_allport	89	29.0	0.611	to_hand	poldrack-single-stim	s595	False
0.1	319.586	0.329	319.915	0	PA_without_intermediate	test	ward_and_allport	82	29.0	0.329	to_board	poldrack-single-stim	s595	False
0.1	319.923	0.684	320.607	0	PA_without_intermediate	test	ward_and_allport	89	29.0	0.684	to_hand	poldrack-single-stim	s595	False
0.1	320.607	0.269	320.876	0	PA_without_intermediate	test	ward_and_allport	71	29.0	0.269	to_board	poldrack-single-stim	s595	False
1.0	320.885	3.088	320.884	0	PA_without_intermediate	test	ward_and_allport	-1	29.0	n/a	feedback	poldrack-single-stim	s595	False
2.518	328.985	2.518	331.503	1	PA_without_intermediate	test	ward_and_allport	89	30.0	2.518	to_hand	poldrack-single-stim	s595	False
0.1	331.505	0.233	331.738	0	PA_without_intermediate	test	ward_and_allport	71	30.0	0.233	to_board	poldrack-single-stim	s595	False
0.1	331.747	0.303	332.05	0	PA_without_intermediate	test	ward_and_allport	89	30.0	0.303	to_hand	poldrack-single-stim	s595	False
0.1	332.052	0.316	332.368	0	PA_without_intermediate	test	ward_and_allport	71	30.0	0.316	to_board	poldrack-single-stim	s595	False
0.1	332.377	0.311	332.688	0	PA_without_intermediate	test	ward_and_allport	89	30.0	0.311	to_hand	poldrack-single-stim	s595	False
0.1	332.69	0.235	332.925	0	PA_without_intermediate	test	ward_and_allport	82	30.0	0.235	to_board	poldrack-single-stim	s595	False
1.0	332.936	2.136	332.935	0	PA_without_intermediate	test	ward_and_allport	-1	30.0	n/a	feedback	poldrack-single-stim	s595	False
2.802	335.082	2.802	337.884	1	PA_without_intermediate	test	ward_and_allport	71	31.0	2.802	to_hand	poldrack-single-stim	s595	False
0.1	337.884	0.211	338.095	0	PA_without_intermediate	test	ward_and_allport	89	31.0	0.211	to_board	poldrack-single-stim	s595	False
0.1	338.104	0.258	338.362	0	PA_without_intermediate	test	ward_and_allport	71	31.0	0.258	to_hand	poldrack-single-stim	s595	False
0.1	338.363	0.235	338.598	0	PA_without_intermediate	test	ward_and_allport	82	31.0	0.235	to_board	poldrack-single-stim	s595	False
0.1	338.607	0.27	338.877	0	PA_without_intermediate	test	ward_and_allport	71	31.0	0.27	to_hand	poldrack-single-stim	s595	False
0.1	338.878	0.247	339.125	0	PA_without_intermediate	test	ward_and_allport	89	31.0	0.247	to_board	poldrack-single-stim	s595	False
1.0	339.136	7.168	339.135	0	PA_without_intermediate	test	ward_and_allport	-1	31.0	n/a	feedback	poldrack-single-stim	s595	False
4.543	346.313	4.543	350.856	1	PA_without_intermediate	test	ward_and_allport	89	32.0	4.543	to_hand	poldrack-single-stim	s595	False
0.1	350.857	0.319	351.176	0	PA_without_intermediate	test	ward_and_allport	82	32.0	0.319	to_board	poldrack-single-stim	s595	False
0.1	351.186	0.335	351.521	0	PA_without_intermediate	test	ward_and_allport	89	32.0	0.335	to_hand	poldrack-single-stim	s595	False
0.1	351.523	0.327	351.85	0	PA_without_intermediate	test	ward_and_allport	71	32.0	0.327	to_board	poldrack-single-stim	s595	False
0.1	351.861	0.327	352.188	0	PA_without_intermediate	test	ward_and_allport	89	32.0	0.327	to_hand	poldrack-single-stim	s595	False
0.1	352.189	0.287	352.476	0	PA_without_intermediate	test	ward_and_allport	82	32.0	0.287	to_board	poldrack-single-stim	s595	False
1.0	352.487	2.816	352.486	0	PA_without_intermediate	test	ward_and_allport	-1	32.0	n/a	feedback	poldrack-single-stim	s595	False
6.131	355.314	6.131	361.445	1	PA_with_intermediate	test	ward_and_allport	71	33.0	6.131	to_hand	poldrack-single-stim	s595	False
0.1	361.446	0.23	361.676	0	PA_with_intermediate	test	ward_and_allport	82	33.0	0.23	to_board	poldrack-single-stim	s595	False
0.1	361.687	0.549	362.236	0	PA_with_intermediate	test	ward_and_allport	71	33.0	0.549	to_hand	poldrack-single-stim	s595	False
0.1	362.238	0.299	362.537	0	PA_with_intermediate	test	ward_and_allport	89	33.0	0.299	to_board	poldrack-single-stim	s595	False
0.1	362.547	1.033	363.58	0	PA_with_intermediate	test	ward_and_allport	82	33.0	1.033	to_hand	poldrack-single-stim	s595	False
0.1	363.581	0.164	363.745	0	PA_with_intermediate	test	ward_and_allport	71	33.0	0.164	to_board	poldrack-single-stim	s595	False
1.0	363.759	2.952	363.758	0	PA_with_intermediate	test	ward_and_allport	-1	33.0	n/a	feedback	poldrack-single-stim	s595	False
3.983	366.722	3.983	370.705	1	PA_with_intermediate	test	ward_and_allport	82	34.0	3.983	to_hand	poldrack-single-stim	s595	False
0.1	370.706	0.273	370.979	0	PA_with_intermediate	test	ward_and_allport	89	34.0	0.273	to_board	poldrack-single-stim	s595	False
0.1	370.987	1.12	372.107	0	PA_with_intermediate	test	ward_and_allport	82	34.0	1.12	to_hand	poldrack-single-stim	s595	False
0.1	372.108	0.361	372.469	0	PA_with_intermediate	test	ward_and_allport	71	34.0	0.361	to_board	poldrack-single-stim	s595	False
0.1	372.478	0.539	373.017	0	PA_with_intermediate	test	ward_and_allport	89	34.0	0.539	to_hand	poldrack-single-stim	s595	False
0.1	373.018	0.296	373.314	0	PA_with_intermediate	test	ward_and_allport	82	34.0	0.296	to_board	poldrack-single-stim	s595	False
1.0	373.327	2.136	373.326	0	PA_with_intermediate	test	ward_and_allport	-1	34.0	n/a	feedback	poldrack-single-stim	s595	False
3.423	375.475	3.423	378.898	1	PA_without_intermediate	test	ward_and_allport	82	35.0	3.423	to_hand	poldrack-single-stim	s595	False
0.1	378.9	0.395	379.295	0	PA_without_intermediate	test	ward_and_allport	89	35.0	0.395	to_board	poldrack-single-stim	s595	False
0.1	379.304	1.17	380.474	0	PA_without_intermediate	test	ward_and_allport	82	35.0	1.17	to_hand	poldrack-single-stim	s595	False
0.1	380.476	0.276	380.752	0	PA_without_intermediate	test	ward_and_allport	71	35.0	0.276	to_board	poldrack-single-stim	s595	False
0.1	380.764	0.701	381.465	0	PA_without_intermediate	test	ward_and_allport	82	35.0	0.701	to_hand	poldrack-single-stim	s595	False
0.1	381.467	0.319	381.786	0	PA_without_intermediate	test	ward_and_allport	89	35.0	0.319	to_board	poldrack-single-stim	s595	False
1.0	381.798	2.68	381.797	0	PA_without_intermediate	test	ward_and_allport	-1	35.0	n/a	feedback	poldrack-single-stim	s595	False
5.183	384.489	5.183	389.672	1	PA_without_intermediate	test	ward_and_allport	82	36.0	5.183	to_hand	poldrack-single-stim	s595	False
0.1	389.674	0.249	389.923	0	PA_without_intermediate	test	ward_and_allport	71	36.0	0.249	to_board	poldrack-single-stim	s595	False
0.1	389.931	0.666	390.597	0	PA_without_intermediate	test	ward_and_allport	82	36.0	0.666	to_hand	poldrack-single-stim	s595	False
0.1	390.599	0.248	390.847	0	PA_without_intermediate	test	ward_and_allport	71	36.0	0.248	to_board	poldrack-single-stim	s595	False
0.1	390.859	0.529	391.388	0	PA_without_intermediate	test	ward_and_allport	82	36.0	0.529	to_hand	poldrack-single-stim	s595	False
0.1	391.388	0.265	391.653	0	PA_without_intermediate	test	ward_and_allport	89	36.0	0.265	to_board	poldrack-single-stim	s595	False
1.0	391.667	3.088	391.666	0	PA_without_intermediate	test	ward_and_allport	-1	36.0	n/a	feedback	poldrack-single-stim	s595	False
4.008	394.767	4.008	398.775	1	PA_with_intermediate	test	ward_and_allport	89	37.0	4.008	to_hand	poldrack-single-stim	s595	False
0.1	398.776	0.233	399.009	0	PA_with_intermediate	test	ward_and_allport	71	37.0	0.233	to_board	poldrack-single-stim	s595	False
0.1	399.021	0.385	399.406	0	PA_with_intermediate	test	ward_and_allport	89	37.0	0.385	to_hand	poldrack-single-stim	s595	False
0.1	399.408	0.252	399.66	0	PA_with_intermediate	test	ward_and_allport	82	37.0	0.252	to_board	poldrack-single-stim	s595	False
0.1	399.671	0.384	400.055	0	PA_with_intermediate	test	ward_and_allport	71	37.0	0.384	to_hand	poldrack-single-stim	s595	False
0.1	400.056	0.243	400.299	0	PA_with_intermediate	test	ward_and_allport	89	37.0	0.243	to_board	poldrack-single-stim	s595	False
1.0	400.312	2.0	400.311	0	PA_with_intermediate	test	ward_and_allport	-1	37.0	n/a	feedback	poldrack-single-stim	s595	False
6.422	402.321	6.422	408.743	1	PA_without_intermediate	test	ward_and_allport	71	38.0	6.422	to_hand	poldrack-single-stim	s595	False
0.1	408.744	0.294	409.038	0	PA_without_intermediate	test	ward_and_allport	82	38.0	0.294	to_board	poldrack-single-stim	s595	False
0.1	409.046	0.283	409.329	0	PA_without_intermediate	test	ward_and_allport	71	38.0	0.283	to_hand	poldrack-single-stim	s595	False
0.1	409.332	0.278	409.61	0	PA_without_intermediate	test	ward_and_allport	82	38.0	0.278	to_board	poldrack-single-stim	s595	False
0.1	409.621	0.279	409.9	0	PA_without_intermediate	test	ward_and_allport	71	38.0	0.279	to_hand	poldrack-single-stim	s595	False
0.1	409.901	0.263	410.164	0	PA_without_intermediate	test	ward_and_allport	89	38.0	0.263	to_board	poldrack-single-stim	s595	False
1.0	410.179	2.0	410.178	0	PA_without_intermediate	test	ward_and_allport	-1	38.0	n/a	feedback	poldrack-single-stim	s595	False
4.116	412.192	4.116	416.308	1	PA_without_intermediate	test	ward_and_allport	71	39.0	4.116	to_hand	poldrack-single-stim	s595	False
0.1	416.309	0.242	416.551	0	PA_without_intermediate	test	ward_and_allport	89	39.0	0.242	to_board	poldrack-single-stim	s595	False
0.1	416.563	0.294	416.857	0	PA_without_intermediate	test	ward_and_allport	71	39.0	0.294	to_hand	poldrack-single-stim	s595	False
0.1	416.857	0.308	417.165	0	PA_without_intermediate	test	ward_and_allport	89	39.0	0.308	to_board	poldrack-single-stim	s595	False
0.1	417.18	0.374	417.554	0	PA_without_intermediate	test	ward_and_allport	71	39.0	0.374	to_hand	poldrack-single-stim	s595	False
0.1	417.554	0.232	417.786	0	PA_without_intermediate	test	ward_and_allport	82	39.0	0.232	to_board	poldrack-single-stim	s595	False
1.0	417.796	2.0	417.795	0	PA_without_intermediate	test	ward_and_allport	-1	39.0	n/a	feedback	poldrack-single-stim	s595	False
3.983	419.804	3.983	423.787	1	PA_with_intermediate	test	ward_and_allport	82	40.0	3.983	to_hand	poldrack-single-stim	s595	False
0.1	423.788	0.281	424.069	0	PA_with_intermediate	test	ward_and_allport	89	40.0	0.281	to_board	poldrack-single-stim	s595	False
0.1	424.077	0.516	424.593	0	PA_with_intermediate	test	ward_and_allport	82	40.0	0.516	to_hand	poldrack-single-stim	s595	False
0.1	424.594	0.23	424.824	0	PA_with_intermediate	test	ward_and_allport	71	40.0	0.23	to_board	poldrack-single-stim	s595	False
0.1	424.835	0.472	425.307	0	PA_with_intermediate	test	ward_and_allport	89	40.0	0.472	to_hand	poldrack-single-stim	s595	False
0.1	425.308	0.247	425.555	0	PA_with_intermediate	test	ward_and_allport	82	40.0	0.247	to_board	poldrack-single-stim	s595	False
1.0	425.567	2.544	425.566	0	PA_with_intermediate	test	ward_and_allport	-1	40.0	n/a	feedback	poldrack-single-stim	s595	False
3.028	428.122	3.028	431.15	1	PA_without_intermediate	test	ward_and_allport	89	41.0	3.028	to_hand	poldrack-single-stim	s595	False
0.1	431.152	0.19	431.342	0	PA_without_intermediate	test	ward_and_allport	71	41.0	0.19	to_board	poldrack-single-stim	s595	False
0.1	431.354	0.258	431.612	0	PA_without_intermediate	test	ward_and_allport	89	41.0	0.258	to_hand	poldrack-single-stim	s595	False
0.1	431.614	0.263	431.877	0	PA_without_intermediate	test	ward_and_allport	71	41.0	0.263	to_board	poldrack-single-stim	s595	False
0.1	431.89	0.435	432.325	0	PA_without_intermediate	test	ward_and_allport	89	41.0	0.435	to_hand	poldrack-single-stim	s595	False
0.1	432.327	0.189	432.516	0	PA_without_intermediate	test	ward_and_allport	82	41.0	0.189	to_board	poldrack-single-stim	s595	False
1.0	432.527	2.272	432.526	0	PA_without_intermediate	test	ward_and_allport	-1	41.0	n/a	feedback	poldrack-single-stim	s595	False
3.507	434.807	3.507	438.314	1	PA_with_intermediate	test	ward_and_allport	89	42.0	3.507	to_hand	poldrack-single-stim	s595	False
0.1	438.315	0.215	438.53	0	PA_with_intermediate	test	ward_and_allport	71	42.0	0.215	to_board	poldrack-single-stim	s595	False
0.1	438.538	0.323	438.861	0	PA_with_intermediate	test	ward_and_allport	89	42.0	0.323	to_hand	poldrack-single-stim	s595	False
0.1	438.862	0.338	439.2	0	PA_with_intermediate	test	ward_and_allport	82	42.0	0.338	to_board	poldrack-single-stim	s595	False
0.1	439.211	0.544	439.755	0	PA_with_intermediate	test	ward_and_allport	71	42.0	0.544	to_hand	poldrack-single-stim	s595	False
0.1	439.757	0.216	439.973	0	PA_with_intermediate	test	ward_and_allport	82	42.0	0.216	to_board	poldrack-single-stim	s595	False
1.0	439.986	4.04	439.985	0	PA_with_intermediate	test	ward_and_allport	-1	42.0	n/a	feedback	poldrack-single-stim	s595	False
4.22	444.035	4.22	448.255	1	PA_with_intermediate	test	ward_and_allport	89	43.0	4.22	to_hand	poldrack-single-stim	s595	False
0.1	448.256	0.232	448.488	0	PA_with_intermediate	test	ward_and_allport	82	43.0	0.232	to_board	poldrack-single-stim	s595	False
0.1	448.497	0.327	448.824	0	PA_with_intermediate	test	ward_and_allport	89	43.0	0.327	to_hand	poldrack-single-stim	s595	False
0.1	448.825	0.26	449.085	0	PA_with_intermediate	test	ward_and_allport	71	43.0	0.26	to_board	poldrack-single-stim	s595	False
0.1	449.096	0.539	449.635	0	PA_with_intermediate	test	ward_and_allport	82	43.0	0.539	to_hand	poldrack-single-stim	s595	False
0.1	449.635	0.2	449.835	0	PA_with_intermediate	test	ward_and_allport	89	43.0	0.2	to_board	poldrack-single-stim	s595	False
1.0	449.856	2.272	449.855	0	PA_with_intermediate	test	ward_and_allport	-1	43.0	n/a	feedback	poldrack-single-stim	s595	False
3.72	452.137	3.72	455.857	1	PA_with_intermediate	test	ward_and_allport	89	44.0	3.72	to_hand	poldrack-single-stim	s595	False
0.1	455.859	0.205	456.064	0	PA_with_intermediate	test	ward_and_allport	82	44.0	0.205	to_board	poldrack-single-stim	s595	False
0.1	456.073	0.669	456.742	0	PA_with_intermediate	test	ward_and_allport	89	44.0	0.669	to_hand	poldrack-single-stim	s595	False
0.1	456.744	0.223	456.967	0	PA_with_intermediate	test	ward_and_allport	71	44.0	0.223	to_board	poldrack-single-stim	s595	False
0.1	456.977	0.597	457.574	0	PA_with_intermediate	test	ward_and_allport	82	44.0	0.597	to_hand	poldrack-single-stim	s595	False
0.1	457.576	0.192	457.768	0	PA_with_intermediate	test	ward_and_allport	89	44.0	0.192	to_board	poldrack-single-stim	s595	False
1.0	457.784	2.136	457.783	0	PA_with_intermediate	test	ward_and_allport	-1	44.0	n/a	feedback	poldrack-single-stim	s595	False
8.375	464.936	8.375	473.311	1	PA_with_intermediate	test	ward_and_allport	89	45.0	8.375	to_hand	poldrack-single-stim	s595	False
0.1	473.312	0.242	473.554	0	PA_with_intermediate	test	ward_and_allport	82	45.0	0.242	to_board	poldrack-single-stim	s595	False
0.1	473.567	0.287	473.854	0	PA_with_intermediate	test	ward_and_allport	89	45.0	0.287	to_hand	poldrack-single-stim	s595	False
0.1	473.855	0.284	474.139	0	PA_with_intermediate	test	ward_and_allport	71	45.0	0.284	to_board	poldrack-single-stim	s595	False
0.1	474.152	0.273	474.425	0	PA_with_intermediate	test	ward_and_allport	82	45.0	0.273	to_hand	poldrack-single-stim	s595	False
0.1	474.426	0.21	474.636	0	PA_with_intermediate	test	ward_and_allport	71	45.0	0.21	to_board	poldrack-single-stim	s595	False
1.0	474.651	2.0	474.65	0	PA_with_intermediate	test	ward_and_allport	-1	45.0	n/a	feedback	poldrack-single-stim	s595	False
4.802	476.664	4.802	481.466	1	PA_with_intermediate	test	ward_and_allport	71	46.0	4.802	to_hand	poldrack-single-stim	s595	False
0.1	481.468	0.264	481.732	0	PA_with_intermediate	test	ward_and_allport	89	46.0	0.264	to_board	poldrack-single-stim	s595	False
0.1	481.746	0.238	481.984	0	PA_with_intermediate	test	ward_and_allport	71	46.0	0.238	to_hand	poldrack-single-stim	s595	False
0.1	481.986	0.248	482.234	0	PA_with_intermediate	test	ward_and_allport	82	46.0	0.248	to_board	poldrack-single-stim	s595	False
0.1	482.248	0.331	482.579	0	PA_with_intermediate	test	ward_and_allport	89	46.0	0.331	to_hand	poldrack-single-stim	s595	False
0.1	482.581	0.185	482.766	0	PA_with_intermediate	test	ward_and_allport	71	46.0	0.185	to_board	poldrack-single-stim	s595	False
1.0	482.78	2.0	482.779	0	PA_with_intermediate	test	ward_and_allport	-1	46.0	n/a	feedback	poldrack-single-stim	s595	False
3.142	484.788	3.142	487.93	1	PA_without_intermediate	test	ward_and_allport	71	47.0	3.142	to_hand	poldrack-single-stim	s595	False
0.1	487.932	0.235	488.167	0	PA_without_intermediate	test	ward_and_allport	82	47.0	0.235	to_board	poldrack-single-stim	s595	False
0.1	488.176	0.285	488.461	0	PA_without_intermediate	test	ward_and_allport	71	47.0	0.285	to_hand	poldrack-single-stim	s595	False
0.1	488.463	0.276	488.739	0	PA_without_intermediate	test	ward_and_allport	89	47.0	0.276	to_board	poldrack-single-stim	s595	False
0.1	488.75	0.335	489.085	0	PA_without_intermediate	test	ward_and_allport	71	47.0	0.335	to_hand	poldrack-single-stim	s595	False
0.1	489.086	0.248	489.334	0	PA_without_intermediate	test	ward_and_allport	82	47.0	0.248	to_board	poldrack-single-stim	s595	False
1.0	489.348	2.408	489.347	0	PA_without_intermediate	test	ward_and_allport	-1	47.0	n/a	feedback	poldrack-single-stim	s595	False
