onset	duration	movement_onset	EV	action	block_duration	experiment_exp_id	gain_amount	gain_probability	key_press	loss_amount	loss_probability	num_cards	num_click_in_round	num_loss_cards	risk	response_time	total_cards	trial_id	trial_type	worker_id	junk	feedback
3.014	5.809	8.823	0.7428381216925883	draw_card	5.809	columbia_card_task_fmri	12.0	0.8333333333333334	89.0	-70.0	0.1666666666666666	6.0	1.0	1.0	-2.259461736039245	5.809	n/a	stim	poldrack-single-stim	s596	False	1
8.825	2.598	11.423	-1.990495211640744	draw_card	2.598	columbia_card_task_fmri	12.0	0.8	89.0	-70.0	0.2	6.0	2.0	1.0	-0.0255176263418093	2.598	n/a	stim	poldrack-single-stim	s596	False	1
11.425	2.202	13.627	-6.090495211640746	draw_card	2.202	columbia_card_task_fmri	12.0	0.75	89.0	-70.0	0.25	6.0	3.0	1.0	2.674801769861745	2.202	n/a	stim	poldrack-single-stim	s596	False	1
13.629	2.126	15.755	-12.92382854497408	draw_card	2.126	columbia_card_task_fmri	12.0	0.6666666666666667	89.0	-70.0	0.3333333333333333	6.0	4.0	1.0	5.816293830535713	2.126	n/a	stim	poldrack-single-stim	s596	False	1
15.756	3.769	19.525	-26.590495211640743	end_round	3.769	columbia_card_task_fmri	12.0	0.5	71.0	-70.0	0.5	6.0	5.0	1.0	8.156840078985802	3.769	4.0	stim	poldrack-single-stim	s596	False	1
20.282	1.5	19.531	n/a	-1.0	2.454	columbia_card_task_fmri	n/a	n/a	-1.0	n/a	n/a	n/a	n/a	n/a	n/a	n/a	n/a	ITI	poldrack-single-stim	s596	False	0
21.988	2.897	24.885	1.5761714550259225	draw_card	2.897	columbia_card_task_fmri	14.0	0.8333333333333334	89.0	-75.0	0.1666666666666666	6.0	1.0	1.0	0.3418451253447401	2.897	n/a	stim	poldrack-single-stim	s596	False	1
24.886	1.155	26.041	-1.3904952116407443	draw_card	1.155	columbia_card_task_fmri	14.0	0.8	89.0	-75.0	0.2	6.0	2.0	1.0	2.76754747082051	1.155	2.0	stim	poldrack-single-stim	s596	False	0
26.797	1.5	26.046	n/a	-1.0	2.454	columbia_card_task_fmri	n/a	n/a	-1.0	n/a	n/a	n/a	n/a	n/a	n/a	n/a	n/a	ITI	poldrack-single-stim	s596	False	0
28.502	0.8	29.302	3.2428381216925883	draw_card	0.8	columbia_card_task_fmri	15.0	0.8333333333333334	89.0	-70.0	0.1666666666666666	6.0	1.0	1.0	-1.1447653250281142	0.8	n/a	stim	poldrack-single-stim	s596	False	1
29.303	1.839	31.142	0.4095047883592544	draw_card	1.839	columbia_card_task_fmri	15.0	0.8	89.0	-70.0	0.2	6.0	2.0	1.0	1.1713709318076369	1.839	n/a	stim	poldrack-single-stim	s596	False	1
31.143	1.248	32.391	-3.8404952116407456	draw_card	1.248	columbia_card_task_fmri	15.0	0.75	89.0	-70.0	0.25	6.0	3.0	1.0	3.9709640088057863	1.248	3.0	stim	poldrack-single-stim	s596	False	0
33.145	1.5	32.394	n/a	-1.0	2.522	columbia_card_task_fmri	n/a	n/a	-1.0	n/a	n/a	n/a	n/a	n/a	n/a	n/a	n/a	ITI	poldrack-single-stim	s596	False	0
34.917	1.007	35.924	4.076171455025922	draw_card	1.007	columbia_card_task_fmri	17.0	0.8333333333333334	89.0	-75.0	0.1666666666666666	6.0	1.0	1.0	1.4570361218525818	1.007	n/a	stim	poldrack-single-stim	s596	False	1
35.926	2.04	37.966	1.0095047883592558	draw_card	2.04	columbia_card_task_fmri	17.0	0.8	89.0	-75.0	0.2	6.0	2.0	1.0	3.964897336022872	2.04	n/a	stim	poldrack-single-stim	s596	False	1
37.969	1.613	39.582	-3.5904952116407456	draw_card	1.613	columbia_card_task_fmri	17.0	0.75	89.0	-75.0	0.25	6.0	3.0	1.0	6.9960698230514495	1.613	n/a	stim	poldrack-single-stim	s596	False	1
39.584	2.05	41.634	-11.25716187830741	draw_card	2.05	columbia_card_task_fmri	17.0	0.6666666666666667	89.0	-75.0	0.3333333333333333	6.0	4.0	1.0	10.52219764030096	2.05	n/a	stim	poldrack-single-stim	s596	False	1
41.635	1.064	42.699	-26.590495211640743	end_round	1.064	columbia_card_task_fmri	17.0	0.5	71.0	-75.0	0.5	6.0	5.0	1.0	13.14916207665317	1.064	4.0	stim	poldrack-single-stim	s596	False	1
43.453	1.5	42.702	n/a	-1.0	2.454	columbia_card_task_fmri	n/a	n/a	-1.0	n/a	n/a	n/a	n/a	n/a	n/a	n/a	n/a	ITI	poldrack-single-stim	s596	False	0
45.158	1.549	46.707	5.409504788359254	draw_card	1.549	columbia_card_task_fmri	24.0	0.75	89.0	-60.0	0.25	8.0	1.0	2.0	3.5388871799509545	1.549	n/a	stim	poldrack-single-stim	s596	False	1
46.709	1.675	48.384	2.4095047883592544	draw_card	1.675	columbia_card_task_fmri	24.0	0.7142857142857143	89.0	-60.0	0.2857142857142857	8.0	2.0	2.0	5.109851686530327	1.675	n/a	stim	poldrack-single-stim	s596	False	1
48.385	1.905	50.29	-1.5904952116407456	draw_card	1.905	columbia_card_task_fmri	24.0	0.6666666666666667	89.0	-60.0	0.3333333333333333	8.0	3.0	2.0	6.75731993849918	1.905	n/a	stim	poldrack-single-stim	s596	False	1
50.291	1.657	51.948	-7.190495211640747	draw_card	1.657	columbia_card_task_fmri	24.0	0.6	89.0	-60.0	0.4	8.0	4.0	2.0	8.308007895585064	1.657	n/a	stim	poldrack-single-stim	s596	False	1
51.95	1.475	53.425	-15.590495211640746	end_round	1.475	columbia_card_task_fmri	24.0	0.5	71.0	-60.0	0.5	8.0	5.0	2.0	9.155158583287664	1.475	4.0	stim	poldrack-single-stim	s596	False	1
54.177	1.5	53.426	n/a	-1.0	2.658	columbia_card_task_fmri	n/a	n/a	-1.0	n/a	n/a	n/a	n/a	n/a	n/a	n/a	n/a	ITI	poldrack-single-stim	s596	False	0
56.086	0.989	57.075	5.409504788359254	draw_card	0.989	columbia_card_task_fmri	29.0	0.75	89.0	-75.0	0.25	8.0	1.0	2.0	12.1838348478934	0.989	n/a	stim	poldrack-single-stim	s596	False	1
57.076	1.415	58.491	1.6952190740735429	draw_card	1.415	columbia_card_task_fmri	29.0	0.7142857142857143	89.0	-75.0	0.2857142857142857	8.0	2.0	2.0	14.130256131352908	1.415	2.0	stim	poldrack-single-stim	s596	False	0
59.245	1.5	58.494	n/a	-1.0	2.386	columbia_card_task_fmri	n/a	n/a	-1.0	n/a	n/a	n/a	n/a	n/a	n/a	n/a	n/a	ITI	poldrack-single-stim	s596	False	0
60.882	0.809	61.691	1.1872825661370348	draw_card	0.809	columbia_card_task_fmri	17.0	0.7777777777777778	89.0	-65.0	0.2222222222222222	9.0	1.0	2.0	1.2618009284512723	0.809	n/a	stim	poldrack-single-stim	s596	False	1
61.693	1.233	62.926	-1.0904952116407456	draw_card	1.233	columbia_card_task_fmri	17.0	0.75	89.0	-65.0	0.25	9.0	2.0	2.0	2.674801769861745	1.233	n/a	stim	poldrack-single-stim	s596	False	1
62.926	1.015	63.941	-4.019066640212173	draw_card	1.015	columbia_card_task_fmri	17.0	0.7142857142857143	89.0	-65.0	0.2857142857142857	9.0	3.0	2.0	4.208203803208896	1.015	n/a	stim	poldrack-single-stim	s596	False	1
63.943	1.166	65.109	-7.923828544974076	draw_card	1.166	columbia_card_task_fmri	17.0	0.6666666666666667	89.0	-65.0	0.3333333333333333	9.0	4.0	2.0	5.816293830535713	1.166	n/a	stim	poldrack-single-stim	s596	False	1
65.111	1.778	66.889	-13.390495211640747	draw_card	1.778	columbia_card_task_fmri	17.0	0.6	89.0	-65.0	0.4	9.0	5.0	2.0	7.32992798756149	1.778	n/a	stim	poldrack-single-stim	s596	False	1
66.891	1.028	67.919	-21.590495211640743	end_round	1.028	columbia_card_task_fmri	17.0	0.5	71.0	-65.0	0.5	9.0	6.0	2.0	8.156840078985802	1.028	5.0	stim	poldrack-single-stim	s596	False	1
68.672	1.5	67.921	n/a	-1.0	2.522	columbia_card_task_fmri	n/a	n/a	-1.0	n/a	n/a	n/a	n/a	n/a	n/a	n/a	n/a	ITI	poldrack-single-stim	s596	False	0
70.445	0.966	71.411	5.509504788359254	draw_card	0.966	columbia_card_task_fmri	14.0	0.9	89.0	-95.0	0.1	10.0	1.0	1.0	-0.1252480726784526	0.966	n/a	stim	poldrack-single-stim	s596	False	1
71.412	1.025	72.437	4.298393677248142	draw_card	1.025	columbia_card_task_fmri	14.0	0.8888888888888888	89.0	-95.0	0.1111111111111111	10.0	2.0	1.0	1.4261319324170074	1.025	n/a	stim	poldrack-single-stim	s596	False	1
72.439	1.359	73.798	2.7845047883592544	draw_card	1.359	columbia_card_task_fmri	14.0	0.875	89.0	-95.0	0.125	10.0	3.0	1.0	3.214898324408523	1.359	n/a	stim	poldrack-single-stim	s596	False	1
73.8	1.233	75.033	0.8380762169306832	draw_card	1.233	columbia_card_task_fmri	14.0	0.8571428571428572	89.0	-95.0	0.1428571428571428	10.0	4.0	1.0	5.304184969581755	1.233	n/a	stim	poldrack-single-stim	s596	False	1
75.034	1.258	76.292	-1.75716187830741	draw_card	1.258	columbia_card_task_fmri	14.0	0.8333333333333334	89.0	-95.0	0.1666666666666666	10.0	5.0	1.0	7.779398953673152	1.258	n/a	stim	poldrack-single-stim	s596	False	1
76.295	1.259	77.554	-5.3904952116407445	draw_card	1.259	columbia_card_task_fmri	14.0	0.8	89.0	-95.0	0.2	10.0	6.0	1.0	10.75262824763572	1.259	n/a	stim	poldrack-single-stim	s596	False	1
77.555	1.401	78.956	-10.840495211640746	draw_card	1.401	columbia_card_task_fmri	14.0	0.75	89.0	-95.0	0.25	10.0	7.0	1.0	14.345947515797596	1.401	n/a	stim	poldrack-single-stim	s596	False	1
78.959	1.027	79.986	-19.923828544974075	end_round	1.027	columbia_card_task_fmri	14.0	0.6666666666666667	71.0	-95.0	0.3333333333333333	10.0	8.0	1.0	18.5256558605397	1.027	7.0	stim	poldrack-single-stim	s596	False	1
80.742	1.5	79.991	n/a	-1.0	2.59	columbia_card_task_fmri	n/a	n/a	-1.0	n/a	n/a	n/a	n/a	n/a	n/a	n/a	n/a	ITI	poldrack-single-stim	s596	False	0
82.583	0.766	83.349	1.4095047883592544	draw_card	0.766	columbia_card_task_fmri	15.0	0.8	89.0	-65.0	0.2	10.0	1.0	2.0	-0.823314221664738	0.766	n/a	stim	poldrack-single-stim	s596	False	1
83.351	0.746	84.097	-0.3682729894185224	draw_card	0.746	columbia_card_task_fmri	15.0	0.7777777777777778	89.0	-65.0	0.2222222222222222	10.0	2.0	2.0	0.4324421443660569	0.746	n/a	stim	poldrack-single-stim	s596	False	1
84.098	1.05	85.148	-2.5904952116407456	draw_card	1.05	columbia_card_task_fmri	15.0	0.75	89.0	-65.0	0.25	10.0	3.0	2.0	1.8108130174098207	1.05	n/a	stim	poldrack-single-stim	s596	False	1
85.15	0.88	86.03	-5.4476380687836	draw_card	0.88	columbia_card_task_fmri	15.0	0.7142857142857143	89.0	-65.0	0.2857142857142857	10.0	4.0	2.0	3.306648619460318	0.88	n/a	stim	poldrack-single-stim	s596	False	1
86.032	1.626	87.658	-9.257161878307407	draw_card	1.626	columbia_card_task_fmri	15.0	0.6666666666666667	89.0	-65.0	0.3333333333333333	10.0	5.0	2.0	4.875356603837645	1.626	n/a	stim	poldrack-single-stim	s596	False	1
87.66	0.88	88.54	-14.590495211640746	end_round	0.88	columbia_card_task_fmri	15.0	0.6	71.0	-65.0	0.4	10.0	6.0	2.0	6.3519336424012565	0.88	5.0	stim	poldrack-single-stim	s596	False	1
89.293	1.5	88.542	n/a	-1.0	2.386	columbia_card_task_fmri	n/a	n/a	-1.0	n/a	n/a	n/a	n/a	n/a	n/a	n/a	n/a	ITI	poldrack-single-stim	s596	False	0
90.931	0.775	91.706	3.009504788359256	draw_card	0.775	columbia_card_task_fmri	17.0	0.8	89.0	-65.0	0.2	10.0	1.0	2.0	-0.0255176263418093	0.775	n/a	stim	poldrack-single-stim	s596	False	1
91.709	0.775	92.484	1.1872825661370348	draw_card	0.775	columbia_card_task_fmri	17.0	0.7777777777777778	89.0	-65.0	0.2222222222222222	10.0	2.0	2.0	1.2618009284512723	0.775	n/a	stim	poldrack-single-stim	s596	False	1
92.486	0.869	93.355	-1.0904952116407456	draw_card	0.869	columbia_card_task_fmri	17.0	0.75	89.0	-65.0	0.25	10.0	3.0	2.0	2.674801769861745	0.869	n/a	stim	poldrack-single-stim	s596	False	1
93.357	0.803	94.16	-4.019066640212173	draw_card	0.803	columbia_card_task_fmri	17.0	0.7142857142857143	89.0	-65.0	0.2857142857142857	10.0	4.0	2.0	4.208203803208896	0.803	n/a	stim	poldrack-single-stim	s596	False	1
94.162	0.87	95.032	-7.923828544974076	draw_card	0.87	columbia_card_task_fmri	17.0	0.6666666666666667	89.0	-65.0	0.3333333333333333	10.0	5.0	2.0	5.816293830535713	0.87	5.0	stim	poldrack-single-stim	s596	False	0
95.788	1.5	95.037	n/a	-1.0	2.59	columbia_card_task_fmri	n/a	n/a	-1.0	n/a	n/a	n/a	n/a	n/a	n/a	n/a	n/a	ITI	poldrack-single-stim	s596	False	0
97.63	1.269	98.899	1.5761714550259225	draw_card	1.269	columbia_card_task_fmri	13.0	0.8333333333333334	89.0	-70.0	0.1666666666666666	12.0	1.0	2.0	-1.887922952687024	1.269	n/a	stim	poldrack-single-stim	s596	False	1
98.9	0.916	99.816	0.3185956974501609	draw_card	0.916	columbia_card_task_fmri	13.0	0.8181818181818181	89.0	-70.0	0.1818181818181818	12.0	2.0	2.0	-0.8106974659054416	0.916	n/a	stim	poldrack-single-stim	s596	False	1
99.818	0.732	100.55	-1.1904952116407452	draw_card	0.732	columbia_card_task_fmri	13.0	0.8	89.0	-70.0	0.2	12.0	3.0	2.0	0.3734203327567016	0.732	n/a	stim	poldrack-single-stim	s596	False	1
100.553	0.806	101.359	-3.0349396560851902	draw_card	0.806	columbia_card_task_fmri	13.0	0.7777777777777778	89.0	-70.0	0.2222222222222222	12.0	4.0	2.0	1.67651850339994	0.806	n/a	stim	poldrack-single-stim	s596	False	1
101.36	0.898	102.258	-5.340495211640746	draw_card	0.898	columbia_card_task_fmri	13.0	0.75	89.0	-70.0	0.25	12.0	5.0	2.0	3.10683282743544	0.898	5.0	stim	poldrack-single-stim	s596	False	0
103.012	1.5	102.261	n/a	-1.0	2.318	columbia_card_task_fmri	n/a	n/a	-1.0	n/a	n/a	n/a	n/a	n/a	n/a	n/a	n/a	ITI	poldrack-single-stim	s596	False	0
104.581	3.389	107.97	1.5761714550259225	draw_card	3.389	columbia_card_task_fmri	15.0	0.8333333333333334	89.0	-80.0	0.1666666666666666	12.0	1.0	2.0	2.572406034059832	3.389	n/a	stim	poldrack-single-stim	s596	False	1
107.973	0.865	108.838	0.1367775156319792	draw_card	0.865	columbia_card_task_fmri	15.0	0.8181818181818181	89.0	-80.0	0.1818181818181818	12.0	2.0	2.0	3.806226313919183	0.865	n/a	stim	poldrack-single-stim	s596	False	1
108.84	1.82	110.66	-1.5904952116407456	draw_card	1.82	columbia_card_task_fmri	15.0	0.8	89.0	-80.0	0.2	12.0	3.0	2.0	5.16241405860972	1.82	n/a	stim	poldrack-single-stim	s596	False	1
110.661	1.407	112.068	-3.701606322751858	draw_card	1.407	columbia_card_task_fmri	15.0	0.7777777777777778	89.0	-80.0	0.2222222222222222	12.0	4.0	2.0	6.6548027166078185	1.407	n/a	stim	poldrack-single-stim	s596	False	1
112.071	0.645	112.716	-6.340495211640746	end_round	0.645	columbia_card_task_fmri	15.0	0.75	71.0	-80.0	0.25	12.0	5.0	2.0	8.292812930789474	0.645	4.0	stim	poldrack-single-stim	s596	False	1
113.473	1.5	112.722	n/a	-1.0	2.25	columbia_card_task_fmri	n/a	n/a	-1.0	n/a	n/a	n/a	n/a	n/a	n/a	n/a	n/a	ITI	poldrack-single-stim	s596	False	0
114.975	0.981	115.956	0.6095047883592555	draw_card	0.981	columbia_card_task_fmri	14.0	0.8	89.0	-65.0	0.2	15.0	1.0	3.0	-1.2221708610425956	0.981	n/a	stim	poldrack-single-stim	s596	False	1
115.958	0.656	116.614	-0.5190666402121726	draw_card	0.656	columbia_card_task_fmri	14.0	0.7857142857142857	89.0	-65.0	0.2142857142857142	15.0	2.0	3.0	-0.4087264485089648	0.656	n/a	stim	poldrack-single-stim	s596	False	1
116.616	1.228	117.844	-1.821264442409977	draw_card	1.228	columbia_card_task_fmri	14.0	0.7692307692307692	89.0	-65.0	0.2307692307692307	15.0	3.0	3.0	0.4578772582478265	1.228	n/a	stim	poldrack-single-stim	s596	False	1
117.846	1.066	118.912	-3.3404952116407456	draw_card	1.066	columbia_card_task_fmri	14.0	0.75	89.0	-65.0	0.25	15.0	4.0	3.0	1.3788571708677964	1.066	4.0	stim	poldrack-single-stim	s596	False	0
119.669	1.5	118.918	n/a	-1.0	2.454	columbia_card_task_fmri	n/a	n/a	-1.0	n/a	n/a	n/a	n/a	n/a	n/a	n/a	n/a	ITI	poldrack-single-stim	s596	False	0
121.376	0.786	122.162	0.5345047883592544	draw_card	0.786	columbia_card_task_fmri	1.0	0.9375	89.0	-45.0	0.0625	16.0	1.0	1.0	-21.5213549800618	0.786	n/a	stim	poldrack-single-stim	s596	False	1
122.165	1.179	123.344	0.342838121692588	draw_card	1.179	columbia_card_task_fmri	1.0	0.9333333333333332	89.0	-45.0	0.0666666666666666	16.0	2.0	1.0	-21.189228189238836	1.179	n/a	stim	poldrack-single-stim	s596	False	1
123.347	0.594	123.941	0.1237905026449688	draw_card	0.594	columbia_card_task_fmri	1.0	0.9285714285714286	89.0	-45.0	0.0714285714285714	16.0	3.0	1.0	-20.82453916404705	0.594	n/a	stim	poldrack-single-stim	s596	False	1
123.943	0.882	124.825	-0.1289567501022839	draw_card	0.882	columbia_card_task_fmri	1.0	0.9230769230769232	89.0	-45.0	0.0769230769230769	16.0	4.0	1.0	-20.421733369111173	0.882	n/a	stim	poldrack-single-stim	s596	False	1
124.828	1.01	125.838	-0.423828544974079	draw_card	1.01	columbia_card_task_fmri	1.0	0.9166666666666666	89.0	-45.0	0.0833333333333333	16.0	5.0	1.0	-19.973861550857148	1.01	n/a	stim	poldrack-single-stim	s596	False	1
125.84	0.863	126.703	-0.7723133934589272	draw_card	0.863	columbia_card_task_fmri	1.0	0.9090909090909092	89.0	-45.0	0.0909090909090909	16.0	6.0	1.0	-19.47210923548262	0.863	n/a	stim	poldrack-single-stim	s596	False	1
126.705	0.999	127.704	-1.1904952116407457	draw_card	0.999	columbia_card_task_fmri	1.0	0.9	89.0	-45.0	0.1	16.0	7.0	1.0	-18.905127548925467	0.999	n/a	stim	poldrack-single-stim	s596	False	1
127.705	1.37	129.075	-1.7016063227518563	draw_card	1.37	columbia_card_task_fmri	1.0	0.8888888888888888	89.0	-45.0	0.1111111111111111	16.0	8.0	1.0	-18.25806977617762	1.37	n/a	stim	poldrack-single-stim	s596	False	1
129.078	0.699	129.777	-2.3404952116407456	draw_card	0.699	columbia_card_task_fmri	1.0	0.875	89.0	-45.0	0.125	16.0	9.0	1.0	-17.511198781839944	0.699	n/a	stim	poldrack-single-stim	s596	False	1
129.78	0.839	130.619	-3.1619237830693168	draw_card	0.839	columbia_card_task_fmri	1.0	0.8571428571428572	89.0	-45.0	0.1428571428571428	16.0	10.0	1.0	-16.637913235757733	0.839	n/a	stim	poldrack-single-stim	s596	False	1
130.622	1.521	132.143	-4.2571618783074126	draw_card	1.521	columbia_card_task_fmri	1.0	0.8333333333333334	89.0	-45.0	0.1666666666666666	16.0	11.0	1.0	-15.60221052005096	1.521	n/a	stim	poldrack-single-stim	s596	False	1
132.146	0.664	132.81	-5.790495211640745	end_round	0.664	columbia_card_task_fmri	1.0	0.8	71.0	-45.0	0.2	16.0	12.0	1.0	-14.356806933647537	0.664	11.0	stim	poldrack-single-stim	s596	False	1
133.563	1.5	132.812	n/a	-1.0	3.27	columbia_card_task_fmri	n/a	n/a	-1.0	n/a	n/a	n/a	n/a	n/a	n/a	n/a	n/a	ITI	poldrack-single-stim	s596	False	0
136.085	0.818	136.903	1.4720047883592544	draw_card	0.818	columbia_card_task_fmri	15.0	0.8125	89.0	-70.0	0.1875	16.0	1.0	3.0	0.3500337526167811	0.818	n/a	stim	poldrack-single-stim	s596	False	1
136.906	0.815	137.721	0.4095047883592544	draw_card	0.815	columbia_card_task_fmri	15.0	0.8	89.0	-70.0	0.2	16.0	2.0	3.0	1.1713709318076369	0.815	n/a	stim	poldrack-single-stim	s596	False	1
137.723	0.536	138.259	-0.8047809259264609	draw_card	0.536	columbia_card_task_fmri	15.0	0.7857142857142857	89.0	-70.0	0.2142857142857142	16.0	3.0	3.0	2.046932021616413	0.536	3.0	stim	poldrack-single-stim	s596	False	0
139.015	1.5	138.264	n/a	-1.0	2.25	columbia_card_task_fmri	n/a	n/a	-1.0	n/a	n/a	n/a	n/a	n/a	n/a	n/a	n/a	ITI	poldrack-single-stim	s596	False	0
140.518	6.697	147.215	8.409504788359254	draw_card	6.697	columbia_card_task_fmri	30.0	0.7	89.0	-50.0	0.3	10.0	1.0	3.0	3.8258018636282713	6.697	n/a	stim	poldrack-single-stim	s596	False	1
147.217	1.273	148.49	5.742838121692594	end_round	1.273	columbia_card_task_fmri	30.0	0.6666666666666667	71.0	-50.0	0.3333333333333333	10.0	2.0	3.0	4.875356603837645	1.273	1.0	stim	poldrack-single-stim	s596	False	1
149.245	1.5	148.494	n/a	-1.0	2.25	columbia_card_task_fmri	n/a	n/a	-1.0	n/a	n/a	n/a	n/a	n/a	n/a	n/a	n/a	ITI	poldrack-single-stim	s596	False	0
150.748	3.177	153.925	7.809504788359255	draw_card	3.177	columbia_card_task_fmri	17.0	0.8666666666666667	89.0	-70.0	0.1333333333333333	15.0	1.0	2.0	-3.241594782294527	3.177	n/a	stim	poldrack-single-stim	s596	False	1
153.927	0.915	154.842	6.980933359787827	draw_card	0.915	columbia_card_task_fmri	17.0	0.8571428571428572	89.0	-70.0	0.1428571428571428	15.0	2.0	2.0	-2.375039134136724	0.915	n/a	stim	poldrack-single-stim	s596	False	1
154.845	1.124	155.969	6.024889403743869	draw_card	1.124	columbia_card_task_fmri	17.0	0.8461538461538461	89.0	-70.0	0.1538461538461538	15.0	3.0	2.0	-1.4318526491631118	1.124	n/a	stim	poldrack-single-stim	s596	False	1
155.972	0.864	156.836	4.909504788359256	draw_card	0.864	columbia_card_task_fmri	17.0	0.8333333333333334	89.0	-70.0	0.1666666666666666	15.0	4.0	2.0	-0.401507049562376	0.864	n/a	stim	poldrack-single-stim	s596	False	1
156.839	0.961	157.8	3.5913229701774343	draw_card	0.961	columbia_card_task_fmri	17.0	0.8181818181818181	89.0	-70.0	0.1818181818181818	15.0	5.0	2.0	0.7279286793163209	0.961	n/a	stim	poldrack-single-stim	s596	False	1
157.803	1.019	158.822	2.009504788359256	end_round	1.019	columbia_card_task_fmri	17.0	0.8	71.0	-70.0	0.2	15.0	6.0	2.0	1.9694154108644144	1.019	5.0	stim	poldrack-single-stim	s596	False	1
159.577	1.5	158.826	n/a	-1.0	2.318	columbia_card_task_fmri	n/a	n/a	-1.0	n/a	n/a	n/a	n/a	n/a	n/a	n/a	n/a	ITI	poldrack-single-stim	s596	False	0
161.146	3.076	164.222	3.0345047883592544	draw_card	3.076	columbia_card_task_fmri	7.0	0.9375	89.0	-95.0	0.0625	16.0	1.0	1.0	-8.106339164234665	3.076	n/a	stim	poldrack-single-stim	s596	False	1
164.224	1.409	165.633	2.6095047883592546	draw_card	1.409	columbia_card_task_fmri	7.0	0.9333333333333332	89.0	-95.0	0.0666666666666666	16.0	2.0	1.0	-7.356793371781858	1.409	n/a	stim	poldrack-single-stim	s596	False	1
165.636	1.202	166.838	2.123790502644969	draw_card	1.202	columbia_card_task_fmri	7.0	0.9285714285714286	89.0	-95.0	0.0714285714285714	16.0	3.0	1.0	-6.534610334777913	1.202	n/a	stim	poldrack-single-stim	s596	False	1
166.841	1.691	168.532	1.5633509422054075	draw_card	1.691	columbia_card_task_fmri	7.0	0.9230769230769232	89.0	-95.0	0.0769230769230769	16.0	4.0	1.0	-5.627433384094879	1.691	n/a	stim	poldrack-single-stim	s596	False	1
168.535	0.45	168.985	0.9095047883592544	end_round	0.45	columbia_card_task_fmri	7.0	0.9166666666666666	71.0	-95.0	0.0833333333333333	16.0	5.0	1.0	-4.619807017646519	0.45	4.0	stim	poldrack-single-stim	s596	False	1
169.74	1.5	168.989	n/a	-1.0	2.726	columbia_card_task_fmri	n/a	n/a	-1.0	n/a	n/a	n/a	n/a	n/a	n/a	n/a	n/a	ITI	poldrack-single-stim	s596	False	0
171.719	2.814	174.533	4.597004788359254	draw_card	2.814	columbia_card_task_fmri	9.0	0.9375	89.0	-100.0	0.0625	16.0	1.0	1.0	-6.419409205907467	2.814	n/a	stim	poldrack-single-stim	s596	False	1
174.536	0.976	175.512	4.142838121692588	draw_card	0.976	columbia_card_task_fmri	9.0	0.9333333333333332	89.0	-100.0	0.0666666666666666	16.0	2.0	1.0	-5.617967693743815	0.976	n/a	stim	poldrack-single-stim	s596	False	1
175.514	0.848	176.362	3.6237905026449697	draw_card	0.848	columbia_card_task_fmri	9.0	0.9285714285714286	89.0	-100.0	0.0714285714285714	16.0	3.0	1.0	-4.738889654590487	0.848	n/a	stim	poldrack-single-stim	s596	False	1
176.364	0.856	177.22	3.0248894037438703	draw_card	0.856	columbia_card_task_fmri	9.0	0.9230769230769232	89.0	-100.0	0.0769230769230769	16.0	4.0	1.0	-3.768969068546973	0.856	n/a	stim	poldrack-single-stim	s596	False	1
177.223	0.6	177.823	2.3261714550259223	draw_card	0.6	columbia_card_task_fmri	9.0	0.9166666666666666	89.0	-100.0	0.0833333333333333	16.0	5.0	1.0	-2.691688209368841	0.6	n/a	stim	poldrack-single-stim	s596	False	1
177.825	1.459	179.284	1.5004138792683444	draw_card	1.459	columbia_card_task_fmri	9.0	0.9090909090909092	89.0	-100.0	0.0909090909090909	16.0	6.0	1.0	-1.4861014387082605	1.459	n/a	stim	poldrack-single-stim	s596	False	1
179.287	0.865	180.152	0.5095047883592541	end_round	0.865	columbia_card_task_fmri	9.0	0.9	71.0	-100.0	0.1	16.0	7.0	1.0	-0.1252480726784526	0.865	6.0	stim	poldrack-single-stim	s596	False	1
180.909	1.5	180.158	n/a	-1.0	2.386	columbia_card_task_fmri	n/a	n/a	-1.0	n/a	n/a	n/a	n/a	n/a	n/a	n/a	n/a	ITI	poldrack-single-stim	s596	False	0
182.548	1.01	183.558	5.534504788359254	draw_card	1.01	columbia_card_task_fmri	15.0	0.875	89.0	-80.0	0.125	16.0	1.0	2.0	-1.4033450871278497	1.01	1.0	stim	poldrack-single-stim	s596	False	0
184.314	1.5	183.563	n/a	-1.0	2.318	columbia_card_task_fmri	n/a	n/a	-1.0	n/a	n/a	n/a	n/a	n/a	n/a	n/a	n/a	ITI	poldrack-single-stim	s596	False	0
185.885	3.328	189.213	7.659504788359254	draw_card	3.328	columbia_card_task_fmri	16.0	0.875	89.0	-70.0	0.125	16.0	1.0	2.0	-4.370193205749093	3.328	n/a	stim	poldrack-single-stim	s596	False	1
189.216	0.774	189.99	6.942838121692588	draw_card	0.774	columbia_card_task_fmri	16.0	0.8666666666666667	89.0	-70.0	0.1333333333333333	16.0	2.0	2.0	-3.580393799602991	0.774	n/a	stim	poldrack-single-stim	s596	False	1
189.992	1.08	191.072	6.12379050264497	draw_card	1.08	columbia_card_task_fmri	16.0	0.8571428571428572	89.0	-70.0	0.1428571428571428	16.0	3.0	2.0	-2.723862740866398	1.08	n/a	stim	poldrack-single-stim	s596	False	1
191.074	1.493	192.567	5.178735557590023	draw_card	1.493	columbia_card_task_fmri	16.0	0.8461538461538461	89.0	-70.0	0.1538461538461538	16.0	4.0	2.0	-1.7915833198443103	1.493	n/a	stim	poldrack-single-stim	s596	False	1
192.57	1.095	193.665	4.076171455025922	draw_card	1.095	columbia_card_task_fmri	16.0	0.8333333333333334	89.0	-70.0	0.1666666666666666	16.0	5.0	2.0	-0.7731483318886632	1.095	n/a	stim	poldrack-single-stim	s596	False	1
193.668	1.106	194.774	2.773141151995616	end_round	1.106	columbia_card_task_fmri	16.0	0.8181818181818181	71.0	-70.0	0.1818181818181818	16.0	6.0	2.0	0.3432360749976624	1.106	5.0	stim	poldrack-single-stim	s596	False	1
195.529	1.5	194.778	n/a	-1.0	2.25	columbia_card_task_fmri	n/a	n/a	-1.0	n/a	n/a	n/a	n/a	n/a	n/a	n/a	n/a	ITI	poldrack-single-stim	s596	False	0
197.031	3.548	200.579	8.972004788359254	end_round	3.548	columbia_card_task_fmri	30.0	0.6875	71.0	-45.0	0.3125	16.0	1.0	5.0	1.932933253884144	3.548	0.0	stim	poldrack-single-stim	s596	False	1
201.338	1.5	200.587	n/a	-1.0	2.25	columbia_card_task_fmri	n/a	n/a	-1.0	n/a	n/a	n/a	n/a	n/a	n/a	n/a	n/a	ITI	poldrack-single-stim	s596	False	0
202.841	0.903	203.744	0.7428381216925883	draw_card	0.903	columbia_card_task_fmri	13.0	0.8333333333333334	89.0	-75.0	0.1666666666666666	6.0	1.0	1.0	-0.0298423015666244	0.903	n/a	stim	poldrack-single-stim	s596	False	1
203.747	1.72	205.467	-2.190495211640745	draw_card	1.72	columbia_card_task_fmri	13.0	0.8	89.0	-75.0	0.2	6.0	2.0	1.0	2.3684708646881134	1.72	n/a	stim	poldrack-single-stim	s596	False	1
205.47	1.645	207.115	-6.590495211640746	draw_card	1.645	columbia_card_task_fmri	13.0	0.75	89.0	-75.0	0.25	6.0	3.0	1.0	5.267321722620714	1.645	3.0	stim	poldrack-single-stim	s596	False	0
207.868	1.5	207.117	n/a	-1.0	2.454	columbia_card_task_fmri	n/a	n/a	-1.0	n/a	n/a	n/a	n/a	n/a	n/a	n/a	n/a	ITI	poldrack-single-stim	s596	False	0
209.575	0.824	210.399	2.409504788359256	draw_card	0.824	columbia_card_task_fmri	14.0	0.8333333333333334	89.0	-70.0	0.1666666666666666	6.0	1.0	1.0	-1.5163571665302946	0.824	n/a	stim	poldrack-single-stim	s596	False	1
210.401	0.761	211.162	-0.3904952116407445	draw_card	0.761	columbia_card_task_fmri	14.0	0.8	89.0	-70.0	0.2	6.0	2.0	1.0	0.7723834803002703	0.761	n/a	stim	poldrack-single-stim	s596	False	1
211.166	0.868	212.034	-4.590495211640746	draw_card	0.868	columbia_card_task_fmri	14.0	0.75	89.0	-70.0	0.25	6.0	3.0	1.0	3.5388871799509545	0.868	n/a	stim	poldrack-single-stim	s596	False	1
212.036	2.027	214.063	-11.590495211640745	end_round	2.027	columbia_card_task_fmri	14.0	0.6666666666666667	71.0	-70.0	0.3333333333333333	6.0	4.0	1.0	6.75731993849918	2.027	3.0	stim	poldrack-single-stim	s596	False	1
214.821	1.5	214.07	n/a	-1.0	2.454	columbia_card_task_fmri	n/a	n/a	-1.0	n/a	n/a	n/a	n/a	n/a	n/a	n/a	n/a	ITI	poldrack-single-stim	s596	False	0
216.527	0.877	217.404	2.409504788359256	draw_card	0.877	columbia_card_task_fmri	16.0	0.8333333333333334	89.0	-80.0	0.1666666666666666	6.0	1.0	1.0	2.944232878265055	0.877	n/a	stim	poldrack-single-stim	s596	False	1
217.407	1.144	218.551	-0.7904952116407449	draw_card	1.144	columbia_card_task_fmri	16.0	0.8	89.0	-80.0	0.2	6.0	2.0	1.0	5.56162068613677	1.144	n/a	stim	poldrack-single-stim	s596	False	1
218.553	1.144	219.697	-5.590495211640746	draw_card	1.144	columbia_card_task_fmri	16.0	0.75	89.0	-80.0	0.25	6.0	3.0	1.0	8.725092426830884	1.144	3.0	stim	poldrack-single-stim	s596	False	0
220.452	1.5	219.701	n/a	-1.0	2.522	columbia_card_task_fmri	n/a	n/a	-1.0	n/a	n/a	n/a	n/a	n/a	n/a	n/a	n/a	ITI	poldrack-single-stim	s596	False	0
222.226	0.672	222.898	4.909504788359256	draw_card	0.672	columbia_card_task_fmri	17.0	0.8333333333333334	89.0	-70.0	0.1666666666666666	6.0	1.0	1.0	-0.401507049562376	0.672	n/a	stim	poldrack-single-stim	s596	False	1
222.9	1.099	223.999	2.009504788359256	draw_card	1.099	columbia_card_task_fmri	17.0	0.8	89.0	-70.0	0.2	6.0	2.0	1.0	1.9694154108644144	1.099	n/a	stim	poldrack-single-stim	s596	False	1
224.002	1.38	225.382	-2.3404952116407456	draw_card	1.38	columbia_card_task_fmri	17.0	0.75	89.0	-70.0	0.25	6.0	3.0	1.0	4.835182008317226	1.38	n/a	stim	poldrack-single-stim	s596	False	1
225.384	0.639	226.023	-9.590495211640745	end_round	0.639	columbia_card_task_fmri	17.0	0.6666666666666667	71.0	-70.0	0.3333333333333333	6.0	4.0	1.0	8.169012392245094	0.639	3.0	stim	poldrack-single-stim	s596	False	1
226.778	1.5	226.027	n/a	-1.0	2.386	columbia_card_task_fmri	n/a	n/a	-1.0	n/a	n/a	n/a	n/a	n/a	n/a	n/a	n/a	ITI	poldrack-single-stim	s596	False	0
228.417	0.737	229.154	4.909504788359254	draw_card	0.737	columbia_card_task_fmri	25.0	0.75	89.0	-65.0	0.25	8.0	1.0	2.0	6.131659180967318	0.737	n/a	stim	poldrack-single-stim	s596	False	1
229.156	1.11	230.266	1.6952190740735429	draw_card	1.11	columbia_card_task_fmri	25.0	0.7142857142857143	89.0	-65.0	0.2857142857142857	8.0	2.0	2.0	7.815289966338589	1.11	n/a	stim	poldrack-single-stim	s596	False	1
230.27	1.102	231.372	-2.590495211640742	draw_card	1.102	columbia_card_task_fmri	25.0	0.6666666666666667	89.0	-65.0	0.3333333333333333	8.0	3.0	2.0	9.58087250026059	1.102	3.0	stim	poldrack-single-stim	s596	False	0
232.128	1.5	231.377	n/a	-1.0	2.454	columbia_card_task_fmri	n/a	n/a	-1.0	n/a	n/a	n/a	n/a	n/a	n/a	n/a	n/a	ITI	poldrack-single-stim	s596	False	0
233.835	0.655	234.49	4.909504788359254	draw_card	0.655	columbia_card_task_fmri	30.0	0.75	89.0	-80.0	0.25	8.0	1.0	2.0	14.778402177369578	0.655	n/a	stim	poldrack-single-stim	s596	False	1
234.493	0.998	235.491	0.9809333597878308	draw_card	0.998	columbia_card_task_fmri	30.0	0.7142857142857143	89.0	-80.0	0.2857142857142857	8.0	2.0	2.0	16.83741597196269	0.998	n/a	stim	poldrack-single-stim	s596	False	1
235.494	1.337	236.831	-4.257161878307406	draw_card	1.337	columbia_card_task_fmri	30.0	0.6666666666666667	89.0	-80.0	0.3333333333333333	8.0	3.0	2.0	18.99654763374813	1.337	n/a	stim	poldrack-single-stim	s596	False	1
236.834	0.497	237.331	-11.590495211640746	end_round	0.497	columbia_card_task_fmri	30.0	0.6	71.0	-80.0	0.4	8.0	4.0	2.0	21.02871472643449	0.497	3.0	stim	poldrack-single-stim	s596	False	1
238.085	1.5	237.334	n/a	-1.0	2.522	columbia_card_task_fmri	n/a	n/a	-1.0	n/a	n/a	n/a	n/a	n/a	n/a	n/a	n/a	ITI	poldrack-single-stim	s596	False	0
239.861	0.951	240.812	4.609504788359256	draw_card	0.951	columbia_card_task_fmri	13.0	0.9	89.0	-95.0	0.1	10.0	1.0	1.0	-0.4244294691290875	0.951	n/a	stim	poldrack-single-stim	s596	False	1
240.815	0.751	241.566	3.4095047883592544	draw_card	0.751	columbia_card_task_fmri	13.0	0.8888888888888888	89.0	-95.0	0.1111111111111111	10.0	2.0	1.0	1.1126439697770962	0.751	n/a	stim	poldrack-single-stim	s596	False	1
241.568	0.828	242.396	1.9095047883592544	draw_card	0.828	columbia_card_task_fmri	13.0	0.875	89.0	-95.0	0.125	10.0	3.0	1.0	2.884922516223618	0.828	n/a	stim	poldrack-single-stim	s596	False	1
242.398	0.701	243.099	-0.0190666402121726	draw_card	0.701	columbia_card_task_fmri	13.0	0.8571428571428572	89.0	-95.0	0.1428571428571428	10.0	4.0	1.0	4.954960431278771	0.701	n/a	stim	poldrack-single-stim	s596	False	1
243.101	0.714	243.815	-2.590495211640744	draw_card	0.714	columbia_card_task_fmri	13.0	0.8333333333333334	89.0	-95.0	0.1666666666666666	10.0	5.0	1.0	7.407380870647557	0.714	5.0	stim	poldrack-single-stim	s596	False	0
244.571	1.5	243.82	n/a	-1.0	2.522	columbia_card_task_fmri	n/a	n/a	-1.0	n/a	n/a	n/a	n/a	n/a	n/a	n/a	n/a	ITI	poldrack-single-stim	s596	False	0
246.346	0.676	247.022	6.009504788359254	draw_card	0.676	columbia_card_task_fmri	14.0	0.9	89.0	-90.0	0.1	10.0	1.0	1.0	-1.6209983122789708	0.676	n/a	stim	poldrack-single-stim	s596	False	1
247.025	0.821	247.846	4.853949232803697	draw_card	0.821	columbia_card_task_fmri	14.0	0.8888888888888888	89.0	-90.0	0.1111111111111111	10.0	2.0	1.0	-0.1411581433886795	0.821	n/a	stim	poldrack-single-stim	s596	False	1
247.849	0.874	248.723	3.4095047883592544	draw_card	0.874	columbia_card_task_fmri	14.0	0.875	89.0	-90.0	0.125	10.0	3.0	1.0	1.565161679186993	0.874	n/a	stim	poldrack-single-stim	s596	False	1
248.727	0.688	249.415	1.5523619312163983	draw_card	0.688	columbia_card_task_fmri	14.0	0.8571428571428572	89.0	-90.0	0.1428571428571428	10.0	4.0	1.0	3.5581969570085903	0.688	n/a	stim	poldrack-single-stim	s596	False	1
249.417	0.661	250.078	-0.9238285449740776	draw_card	0.661	columbia_card_task_fmri	14.0	0.8333333333333334	89.0	-90.0	0.1666666666666666	10.0	5.0	1.0	5.91943508847632	0.661	5.0	stim	poldrack-single-stim	s596	False	0
250.833	1.5	250.082	n/a	-1.0	2.59	columbia_card_task_fmri	n/a	n/a	-1.0	n/a	n/a	n/a	n/a	n/a	n/a	n/a	n/a	ITI	poldrack-single-stim	s596	False	0
252.676	0.805	253.481	1.2095047883592551	draw_card	0.805	columbia_card_task_fmri	16.0	0.8	89.0	-70.0	0.2	10.0	1.0	2.0	1.5703818436791153	0.805	n/a	stim	poldrack-single-stim	s596	False	1
253.483	1.103	254.586	-0.7016063227518563	draw_card	1.103	columbia_card_task_fmri	16.0	0.7777777777777778	89.0	-70.0	0.2222222222222222	10.0	2.0	2.0	2.920813354268269	1.103	n/a	stim	poldrack-single-stim	s596	False	1
254.589	0.943	255.532	-3.0904952116407456	draw_card	0.943	columbia_card_task_fmri	16.0	0.75	89.0	-70.0	0.25	10.0	3.0	2.0	4.403062533268752	0.943	n/a	stim	poldrack-single-stim	s596	False	1
255.535	0.54	256.075	-6.161923783069317	end_round	0.54	columbia_card_task_fmri	16.0	0.7142857142857143	71.0	-70.0	0.2857142857142857	10.0	4.0	2.0	6.011585827704138	0.54	3.0	stim	poldrack-single-stim	s596	False	1
256.831	1.5	256.08	n/a	-1.0	2.454	columbia_card_task_fmri	n/a	n/a	-1.0	n/a	n/a	n/a	n/a	n/a	n/a	n/a	n/a	ITI	poldrack-single-stim	s596	False	0
258.537	1.014	259.551	0.4928381216925883	draw_card	1.014	columbia_card_task_fmri	7.0	0.9166666666666666	89.0	-100.0	0.0833333333333333	12.0	1.0	1.0	-3.2426666952963927	1.014	n/a	stim	poldrack-single-stim	s596	False	1
259.554	0.832	260.386	-0.317767938913474	draw_card	0.832	columbia_card_task_fmri	7.0	0.9090909090909092	89.0	-100.0	0.0909090909090909	12.0	2.0	1.0	-2.059337235524275	0.832	n/a	stim	poldrack-single-stim	s596	False	1
260.389	0.8	261.189	-1.2904952116407458	draw_card	0.8	columbia_card_task_fmri	7.0	0.9	89.0	-100.0	0.1	12.0	3.0	1.0	-0.7235956283168434	0.8	n/a	stim	poldrack-single-stim	s596	False	1
261.192	0.723	261.915	-2.479384100529635	draw_card	0.723	columbia_card_task_fmri	7.0	0.8888888888888888	89.0	-100.0	0.1111111111111111	12.0	4.0	1.0	0.799170563197265	0.723	n/a	stim	poldrack-single-stim	s596	False	1
261.918	0.846	262.764	-3.9654952116407456	draw_card	0.846	columbia_card_task_fmri	7.0	0.875	89.0	-100.0	0.125	12.0	5.0	1.0	2.5549605502117387	0.846	n/a	stim	poldrack-single-stim	s596	False	1
262.767	0.65	263.417	-5.87620949735503	end_round	0.65	columbia_card_task_fmri	7.0	0.8571428571428572	71.0	-100.0	0.1428571428571428	12.0	6.0	1.0	4.605748984823244	0.65	5.0	stim	poldrack-single-stim	s596	False	1
264.173	1.5	263.422	n/a	-1.0	2.318	columbia_card_task_fmri	n/a	n/a	-1.0	n/a	n/a	n/a	n/a	n/a	n/a	n/a	n/a	ITI	poldrack-single-stim	s596	False	0
265.743	2.29	268.033	0.7428381216925901	draw_card	2.29	columbia_card_task_fmri	14.0	0.8333333333333334	89.0	-80.0	0.1666666666666666	12.0	1.0	2.0	2.2005972361609736	2.29	n/a	stim	poldrack-single-stim	s596	False	1
268.037	0.896	268.933	-0.6814043025498391	draw_card	0.896	columbia_card_task_fmri	14.0	0.8181818181818181	89.0	-80.0	0.1818181818181818	12.0	2.0	2.0	3.4213717650969784	0.896	n/a	stim	poldrack-single-stim	s596	False	1
268.935	0.827	269.762	-2.3904952116407445	draw_card	0.827	columbia_card_task_fmri	14.0	0.8	89.0	-80.0	0.2	12.0	3.0	2.0	4.763224260091995	0.827	3.0	stim	poldrack-single-stim	s596	False	0
270.518	1.5	269.767	n/a	-1.0	2.25	columbia_card_task_fmri	n/a	n/a	-1.0	n/a	n/a	n/a	n/a	n/a	n/a	n/a	n/a	ITI	poldrack-single-stim	s596	False	0
272.021	2.921	274.942	2.4095047883592544	draw_card	2.921	columbia_card_task_fmri	15.0	0.8333333333333334	89.0	-75.0	0.1666666666666666	12.0	1.0	2.0	0.7135544791551354	2.921	n/a	stim	poldrack-single-stim	s596	False	1
274.945	0.718	275.663	1.045868424722889	draw_card	0.718	columbia_card_task_fmri	15.0	0.8181818181818181	89.0	-75.0	0.1818181818181818	12.0	2.0	2.0	1.882139599184512	0.718	n/a	stim	poldrack-single-stim	s596	False	1
275.667	0.878	276.545	-0.5904952116407456	draw_card	0.878	columbia_card_task_fmri	15.0	0.8	89.0	-75.0	0.2	12.0	3.0	2.0	3.166644527382651	0.878	n/a	stim	poldrack-single-stim	s596	False	1
276.548	1.279	277.827	-2.590495211640744	draw_card	1.279	columbia_card_task_fmri	15.0	0.7777777777777778	89.0	-75.0	0.2222222222222222	12.0	4.0	2.0	4.580175433480655	1.279	n/a	stim	poldrack-single-stim	s596	False	1
277.83	0.582	278.412	-5.090495211640746	end_round	0.582	columbia_card_task_fmri	15.0	0.75	71.0	-75.0	0.25	12.0	5.0	2.0	6.131659180967318	0.582	4.0	stim	poldrack-single-stim	s596	False	1
279.166	1.5	278.415	n/a	-1.0	2.658	columbia_card_task_fmri	n/a	n/a	-1.0	n/a	n/a	n/a	n/a	n/a	n/a	n/a	n/a	ITI	poldrack-single-stim	s596	False	0
281.077	3.328	284.405	1.4095047883592544	draw_card	3.328	columbia_card_task_fmri	15.0	0.8	89.0	-65.0	0.2	15.0	1.0	3.0	-0.823314221664738	3.328	n/a	stim	poldrack-single-stim	s596	False	1
284.408	0.982	285.39	0.266647645502112	draw_card	0.982	columbia_card_task_fmri	15.0	0.7857142857142857	89.0	-65.0	0.2142857142857142	15.0	2.0	3.0	0.0004846296683709	0.982	n/a	stim	poldrack-single-stim	s596	False	1
285.394	1.405	286.799	-1.052033673179209	end_round	1.405	columbia_card_task_fmri	15.0	0.7692307692307692	71.0	-65.0	0.2307692307692307	15.0	3.0	3.0	0.8781163531706326	1.405	2.0	stim	poldrack-single-stim	s596	False	1
287.555	1.5	286.804	n/a	-1.0	2.454	columbia_card_task_fmri	n/a	n/a	-1.0	n/a	n/a	n/a	n/a	n/a	n/a	n/a	n/a	ITI	poldrack-single-stim	s596	False	0
289.263	2.249	291.512	0.6595047883592544	draw_card	2.249	columbia_card_task_fmri	14.0	0.8125	89.0	-70.0	0.1875	16.0	1.0	3.0	-0.0392411399672099	2.249	1.0	stim	poldrack-single-stim	s596	False	0
292.266	1.5	291.515	n/a	-1.0	2.386	columbia_card_task_fmri	n/a	n/a	-1.0	n/a	n/a	n/a	n/a	n/a	n/a	n/a	n/a	ITI	poldrack-single-stim	s596	False	0
293.905	3.457	297.362	0.5970047883592544	draw_card	3.457	columbia_card_task_fmri	11.0	0.6875	89.0	-30.0	0.3125	16.0	1.0	5.0	-13.757750948264205	3.457	n/a	stim	poldrack-single-stim	s596	False	1
297.365	1.137	298.502	-0.2571618783074116	draw_card	1.137	columbia_card_task_fmri	11.0	0.6666666666666667	89.0	-30.0	0.3333333333333333	16.0	2.0	5.0	-13.436701584403616	1.137	n/a	stim	poldrack-single-stim	s596	False	1
298.506	2.014	300.52	-1.2333523544978895	end_round	2.014	columbia_card_task_fmri	11.0	0.6428571428571428	71.0	-30.0	0.3571428571428571	16.0	3.0	5.0	-13.121235198571773	2.014	2.0	stim	poldrack-single-stim	s596	False	1
301.278	1.5	300.527	n/a	-1.0	2.59	columbia_card_task_fmri	n/a	n/a	-1.0	n/a	n/a	n/a	n/a	n/a	n/a	n/a	n/a	ITI	poldrack-single-stim	s596	False	0
303.121	1.339	304.46	5.409504788359254	draw_card	1.339	columbia_card_task_fmri	15.0	0.8666666666666667	89.0	-75.0	0.1333333333333333	15.0	1.0	2.0	-2.225047033962312	1.339	n/a	stim	poldrack-single-stim	s596	False	1
304.463	0.86	305.323	4.552361931216399	draw_card	0.86	columbia_card_task_fmri	15.0	0.8571428571428572	89.0	-75.0	0.1428571428571428	15.0	2.0	2.0	-1.3284218404150572	0.86	n/a	stim	poldrack-single-stim	s596	False	1
305.327	0.79	306.117	3.563350942205408	draw_card	0.79	columbia_card_task_fmri	15.0	0.8461538461538461	89.0	-75.0	0.1538461538461538	15.0	3.0	2.0	-0.352518500452291	0.79	n/a	stim	poldrack-single-stim	s596	False	1
306.12	0.578	306.698	2.4095047883592544	end_round	0.578	columbia_card_task_fmri	15.0	0.8333333333333334	71.0	-75.0	0.1666666666666666	15.0	4.0	2.0	0.7135544791551354	0.578	3.0	stim	poldrack-single-stim	s596	False	1
307.453	1.5	306.702	n/a	-1.0	2.318	columbia_card_task_fmri	n/a	n/a	-1.0	n/a	n/a	n/a	n/a	n/a	n/a	n/a	n/a	ITI	poldrack-single-stim	s596	False	0
309.024	2.132	311.156	7.142838121692589	draw_card	2.132	columbia_card_task_fmri	17.0	0.8666666666666667	89.0	-75.0	0.1333333333333333	15.0	1.0	2.0	-1.5472310946341743	2.132	n/a	stim	poldrack-single-stim	s596	False	1
311.16	1.202	312.362	6.266647645502114	draw_card	1.202	columbia_card_task_fmri	17.0	0.8571428571428572	89.0	-75.0	0.1428571428571428	15.0	2.0	2.0	-0.6305628311831128	1.202	n/a	stim	poldrack-single-stim	s596	False	1
312.364	1.595	313.959	5.255658634513101	end_round	1.595	columbia_card_task_fmri	17.0	0.8461538461538461	71.0	-75.0	0.1538461538461538	15.0	3.0	2.0	0.3671483630868124	1.595	2.0	stim	poldrack-single-stim	s596	False	1
314.713	1.5	313.962	n/a	-1.0	2.59	columbia_card_task_fmri	n/a	n/a	-1.0	n/a	n/a	n/a	n/a	n/a	n/a	n/a	n/a	ITI	poldrack-single-stim	s596	False	0
316.557	2.291	318.848	2.7220047883592544	draw_card	2.291	columbia_card_task_fmri	2.0	0.9375	89.0	-25.0	0.0625	16.0	1.0	1.0	-25.9482303820132	2.291	n/a	stim	poldrack-single-stim	s596	False	1
318.851	1.234	320.085	2.6095047883592546	draw_card	1.234	columbia_card_task_fmri	2.0	0.9333333333333332	89.0	-25.0	0.0666666666666666	16.0	2.0	1.0	-25.760879003704645	1.234	n/a	stim	poldrack-single-stim	s596	False	1
320.087	0.893	320.98	2.480933359787826	draw_card	0.893	columbia_card_task_fmri	2.0	0.9285714285714286	89.0	-25.0	0.0714285714285714	16.0	3.0	1.0	-25.5547050660505	0.893	n/a	stim	poldrack-single-stim	s596	False	1
320.984	1.313	322.297	2.3325817114361778	draw_card	1.313	columbia_card_task_fmri	2.0	0.9230769230769232	89.0	-25.0	0.0769230769230769	16.0	4.0	1.0	-25.326474696056437	1.313	n/a	stim	poldrack-single-stim	s596	False	1
322.3	0.988	323.288	2.1595047883592544	draw_card	0.988	columbia_card_task_fmri	2.0	0.9166666666666666	89.0	-25.0	0.0833333333333333	16.0	5.0	1.0	-25.072139420069732	0.988	n/a	stim	poldrack-single-stim	s596	False	1
323.292	1.056	324.348	1.9549593338138	draw_card	1.056	columbia_card_task_fmri	2.0	0.9090909090909092	89.0	-25.0	0.0909090909090909	16.0	6.0	1.0	-24.786560784766152	1.056	n/a	stim	poldrack-single-stim	s596	False	1
324.352	1.332	325.684	1.7095047883592545	end_round	1.332	columbia_card_task_fmri	2.0	0.9	71.0	-25.0	0.1	16.0	7.0	1.0	-24.463118458835016	1.332	6.0	stim	poldrack-single-stim	s596	False	1
326.437	1.5	325.686	n/a	-1.0	2.386	columbia_card_task_fmri	n/a	n/a	-1.0	n/a	n/a	n/a	n/a	n/a	n/a	n/a	n/a	ITI	poldrack-single-stim	s596	False	0
328.076	0.889	328.965	4.909504788359254	draw_card	0.889	columbia_card_task_fmri	9.0	0.9375	89.0	-95.0	0.0625	16.0	1.0	1.0	-7.624461505759271	0.889	n/a	stim	poldrack-single-stim	s596	False	1
328.968	0.935	329.903	4.476171455025922	draw_card	0.935	columbia_card_task_fmri	9.0	0.9333333333333332	89.0	-95.0	0.0666666666666666	16.0	2.0	1.0	-6.860085413892634	0.935	n/a	stim	poldrack-single-stim	s596	False	1
329.907	1.273	331.18	3.9809333597878265	draw_card	1.273	columbia_card_task_fmri	9.0	0.9285714285714286	89.0	-95.0	0.0714285714285714	16.0	3.0	1.0	-6.021643613252728	1.273	n/a	stim	poldrack-single-stim	s596	False	1
331.183	0.892	332.075	3.4095047883592544	draw_card	0.892	columbia_card_task_fmri	9.0	0.9230769230769232	89.0	-95.0	0.0769230769230769	16.0	4.0	1.0	-5.096536754044536	0.892	n/a	stim	poldrack-single-stim	s596	False	1
332.078	1.197	333.275	2.7428381216925883	draw_card	1.197	columbia_card_task_fmri	9.0	0.9166666666666666	89.0	-95.0	0.0833333333333333	16.0	5.0	1.0	-4.069005831152776	1.197	n/a	stim	poldrack-single-stim	s596	False	1
333.279	2.396	335.675	1.9549593338137996	draw_card	2.396	columbia_card_task_fmri	9.0	0.9090909090909092	89.0	-95.0	0.0909090909090909	16.0	6.0	1.0	-2.919067207081273	2.396	n/a	stim	poldrack-single-stim	s596	False	1
335.679	1.383	337.062	1.009504788359254	draw_card	1.383	columbia_card_task_fmri	9.0	0.9	89.0	-95.0	0.1	16.0	7.0	1.0	-1.6209983122789708	1.383	n/a	stim	poldrack-single-stim	s596	False	1
337.064	1.052	338.116	-0.1460507671963009	draw_card	1.052	columbia_card_task_fmri	9.0	0.8888888888888888	89.0	-95.0	0.1111111111111111	16.0	8.0	1.0	-0.1411581433886866	1.052	n/a	stim	poldrack-single-stim	s596	False	1
338.119	1.24	339.359	-1.5904952116407456	end_round	1.24	columbia_card_task_fmri	9.0	0.875	71.0	-95.0	0.125	16.0	9.0	1.0	1.565161679186993	1.24	8.0	stim	poldrack-single-stim	s596	False	1
340.117	1.5	339.366	n/a	-1.0	2.318	columbia_card_task_fmri	n/a	n/a	-1.0	n/a	n/a	n/a	n/a	n/a	n/a	n/a	n/a	ITI	poldrack-single-stim	s596	False	0
341.688	1.897	343.585	6.472004788359254	draw_card	1.897	columbia_card_task_fmri	11.0	0.9375	89.0	-100.0	0.0625	16.0	1.0	1.0	-5.937256543634103	1.897	n/a	stim	poldrack-single-stim	s596	False	1
343.587	0.585	344.172	6.009504788359255	draw_card	0.585	columbia_card_task_fmri	11.0	0.9333333333333332	89.0	-100.0	0.0666666666666666	16.0	2.0	1.0	-5.120992667895568	0.585	n/a	stim	poldrack-single-stim	s596	False	1
344.176	2.082	346.258	5.480933359787827	draw_card	2.082	columbia_card_task_fmri	11.0	0.9285714285714286	89.0	-100.0	0.0714285714285714	16.0	3.0	1.0	-4.2256640634738645	2.082	n/a	stim	poldrack-single-stim	s596	False	1
346.261	1.013	347.274	4.871043249897717	draw_card	1.013	columbia_card_task_fmri	11.0	0.9230769230769232	89.0	-100.0	0.0769230769230769	16.0	4.0	1.0	-3.2378220540174567	1.013	n/a	stim	poldrack-single-stim	s596	False	1
347.277	1.188	348.465	4.159504788359254	draw_card	1.188	columbia_card_task_fmri	11.0	0.9166666666666666	89.0	-100.0	0.0833333333333333	16.0	5.0	1.0	-2.1406454382144915	1.188	n/a	stim	poldrack-single-stim	s596	False	1
348.47	1.312	349.782	3.3185956974501627	draw_card	1.312	columbia_card_task_fmri	11.0	0.9090909090909092	89.0	-100.0	0.0909090909090909	16.0	6.0	1.0	-0.912803792900327	1.312	n/a	stim	poldrack-single-stim	s596	False	1
349.785	1.196	350.981	2.3095047883592548	draw_card	1.196	columbia_card_task_fmri	11.0	0.9	89.0	-100.0	0.1	16.0	7.0	1.0	0.4731587934974754	1.196	n/a	stim	poldrack-single-stim	s596	False	1
350.984	1.7	352.684	1.0761714550259205	draw_card	1.7	columbia_card_task_fmri	11.0	0.8888888888888888	89.0	-100.0	0.1111111111111111	16.0	8.0	1.0	2.053149959876229	1.7	n/a	stim	poldrack-single-stim	s596	False	1
352.688	1.063	353.751	-0.4654952116407456	end_round	1.063	columbia_card_task_fmri	11.0	0.875	71.0	-100.0	0.125	16.0	9.0	1.0	3.874889977398986	1.063	8.0	stim	poldrack-single-stim	s596	False	1
354.506	1.5	353.755	n/a	-1.0	2.318	columbia_card_task_fmri	n/a	n/a	-1.0	n/a	n/a	n/a	n/a	n/a	n/a	n/a	n/a	ITI	poldrack-single-stim	s596	False	0
356.078	2.156	358.234	7.034504788359254	draw_card	2.156	columbia_card_task_fmri	16.0	0.875	89.0	-75.0	0.125	16.0	1.0	2.0	-2.7221780940582967	2.156	n/a	stim	poldrack-single-stim	s596	False	1
358.239	1.21	359.449	6.2761714550259216	draw_card	1.21	columbia_card_task_fmri	16.0	0.8666666666666667	89.0	-75.0	0.1333333333333333	16.0	2.0	2.0	-1.8861502952693636	1.21	n/a	stim	poldrack-single-stim	s596	False	1
359.453	0.849	360.302	5.409504788359256	draw_card	0.849	columbia_card_task_fmri	16.0	0.8571428571428572	89.0	-75.0	0.1428571428571428	16.0	3.0	2.0	-0.9795032516194232	0.849	3.0	stim	poldrack-single-stim	s596	False	0
361.058	1.5	360.307	n/a	-1.0	2.318	columbia_card_task_fmri	n/a	n/a	-1.0	n/a	n/a	n/a	n/a	n/a	n/a	n/a	n/a	ITI	poldrack-single-stim	s596	False	0
362.63	0.938	363.568	7.284504788359254	draw_card	0.938	columbia_card_task_fmri	17.0	0.875	89.0	-80.0	0.125	16.0	1.0	2.0	-0.7438040947533366	0.938	n/a	stim	poldrack-single-stim	s596	False	1
363.571	2.131	365.702	6.476171455025923	draw_card	2.131	columbia_card_task_fmri	17.0	0.8666666666666667	89.0	-80.0	0.1333333333333333	16.0	2.0	2.0	0.1476776587036354	2.131	n/a	stim	poldrack-single-stim	s596	False	1
365.706	1.063	366.769	5.5523619312164	draw_card	1.063	columbia_card_task_fmri	17.0	0.8571428571428572	89.0	-80.0	0.1428571428571428	16.0	3.0	2.0	1.114443237744794	1.063	n/a	stim	poldrack-single-stim	s596	False	1
366.772	1.211	367.983	4.486427865282331	draw_card	1.211	columbia_card_task_fmri	17.0	0.8461538461538461	89.0	-80.0	0.1538461538461538	16.0	4.0	2.0	2.166663430926704	1.211	n/a	stim	poldrack-single-stim	s596	False	1
367.986	0.429	368.415	3.24283812169259	end_round	0.429	columbia_card_task_fmri	17.0	0.8333333333333334	71.0	-80.0	0.1666666666666666	16.0	5.0	2.0	3.31607721315104	0.429	4.0	stim	poldrack-single-stim	s596	False	1
369.172	1.5	368.421	n/a	-1.0	2.386	columbia_card_task_fmri	n/a	n/a	-1.0	n/a	n/a	n/a	n/a	n/a	n/a	n/a	n/a	ITI	poldrack-single-stim	s596	False	0
381.82	5.544	387.364	1.5761714550259225	draw_card	5.544	columbia_card_task_fmri	13.0	0.8333333333333334	89.0	-70.0	0.1666666666666666	6.0	1.0	1.0	-1.887922952687024	5.544	n/a	stim	poldrack-single-stim	s596	False	1
387.368	0.944	388.312	-1.1904952116407452	draw_card	0.944	columbia_card_task_fmri	13.0	0.8	89.0	-70.0	0.2	6.0	2.0	1.0	0.3734203327567016	0.944	n/a	stim	poldrack-single-stim	s596	False	1
388.314	0.85	389.164	-5.340495211640746	draw_card	0.85	columbia_card_task_fmri	13.0	0.75	89.0	-70.0	0.25	6.0	3.0	1.0	3.10683282743544	0.85	3.0	stim	poldrack-single-stim	s596	False	0
389.92	1.5	389.169	n/a	-1.0	2.25	columbia_card_task_fmri	n/a	n/a	-1.0	n/a	n/a	n/a	n/a	n/a	n/a	n/a	n/a	ITI	poldrack-single-stim	s596	False	0
391.422	1.861	393.283	1.5761714550259225	draw_card	1.861	columbia_card_task_fmri	15.0	0.8333333333333334	89.0	-80.0	0.1666666666666666	6.0	1.0	1.0	2.572406034059832	1.861	n/a	stim	poldrack-single-stim	s596	False	1
393.286	1.673	394.959	-1.5904952116407456	draw_card	1.673	columbia_card_task_fmri	15.0	0.8	89.0	-80.0	0.2	6.0	2.0	1.0	5.16241405860972	1.673	n/a	stim	poldrack-single-stim	s596	False	1
394.962	0.98	395.942	-6.340495211640746	draw_card	0.98	columbia_card_task_fmri	15.0	0.75	89.0	-80.0	0.25	6.0	3.0	1.0	8.292812930789474	0.98	n/a	stim	poldrack-single-stim	s596	False	1
395.945	2.041	397.986	-14.25716187830741	end_round	2.041	columbia_card_task_fmri	15.0	0.6666666666666667	71.0	-80.0	0.3333333333333333	6.0	4.0	1.0	11.93430223937976	2.041	3.0	stim	poldrack-single-stim	s596	False	1
398.744	1.5	397.993	n/a	-1.0	2.386	columbia_card_task_fmri	n/a	n/a	-1.0	n/a	n/a	n/a	n/a	n/a	n/a	n/a	n/a	ITI	poldrack-single-stim	s596	False	0
400.383	2.385	402.768	3.2428381216925883	draw_card	2.385	columbia_card_task_fmri	16.0	0.8333333333333334	89.0	-75.0	0.1666666666666666	6.0	1.0	1.0	1.0852850406914527	2.385	n/a	stim	poldrack-single-stim	s596	False	1
402.771	1.2	403.971	0.2095047883592551	draw_card	1.2	columbia_card_task_fmri	16.0	0.8	89.0	-75.0	0.2	6.0	2.0	1.0	3.565761363175376	1.2	n/a	stim	poldrack-single-stim	s596	False	1
403.974	0.892	404.866	-4.340495211640746	draw_card	0.892	columbia_card_task_fmri	16.0	0.75	89.0	-75.0	0.25	6.0	3.0	1.0	6.563855654490467	0.892	n/a	stim	poldrack-single-stim	s596	False	1
404.87	0.971	405.841	-11.92382854497408	draw_card	0.971	columbia_card_task_fmri	16.0	0.6666666666666667	89.0	-75.0	0.3333333333333333	6.0	4.0	1.0	10.051526936213648	0.971	n/a	stim	poldrack-single-stim	s596	False	1
405.843	0.65	406.493	-27.090495211640743	end_round	0.65	columbia_card_task_fmri	16.0	0.5	71.0	-75.0	0.5	6.0	5.0	1.0	12.649854105137628	0.65	4.0	stim	poldrack-single-stim	s596	False	1
407.249	1.5	406.498	n/a	-1.0	2.59	columbia_card_task_fmri	n/a	n/a	-1.0	n/a	n/a	n/a	n/a	n/a	n/a	n/a	n/a	ITI	poldrack-single-stim	s596	False	0
409.094	0.848	409.942	4.409504788359254	draw_card	0.848	columbia_card_task_fmri	21.0	0.75	89.0	-55.0	0.25	8.0	1.0	2.0	0.0831558549685524	0.848	n/a	stim	poldrack-single-stim	s596	False	1
409.946	1.118	411.064	1.6952190740735409	draw_card	1.118	columbia_card_task_fmri	21.0	0.7142857142857143	89.0	-55.0	0.2857142857142857	8.0	2.0	2.0	1.5038454885577366	1.118	n/a	stim	poldrack-single-stim	s596	False	1
411.067	0.957	412.024	-1.923828544974076	draw_card	0.957	columbia_card_task_fmri	21.0	0.6666666666666667	89.0	-55.0	0.3333333333333333	8.0	3.0	2.0	2.993776742494745	0.957	3.0	stim	poldrack-single-stim	s596	False	0
412.782	1.5	412.031	n/a	-1.0	2.658	columbia_card_task_fmri	n/a	n/a	-1.0	n/a	n/a	n/a	n/a	n/a	n/a	n/a	n/a	ITI	poldrack-single-stim	s596	False	0
414.693	0.618	415.311	5.659504788359254	draw_card	0.618	columbia_card_task_fmri	26.0	0.75	89.0	-65.0	0.25	8.0	1.0	2.0	6.563855654490467	0.618	1.0	stim	poldrack-single-stim	s596	False	0
416.067	1.5	415.316	n/a	-1.0	2.386	columbia_card_task_fmri	n/a	n/a	-1.0	n/a	n/a	n/a	n/a	n/a	n/a	n/a	n/a	ITI	poldrack-single-stim	s596	False	0
417.707	2.361	420.068	0.7428381216925883	draw_card	2.361	columbia_card_task_fmri	15.0	0.7777777777777778	89.0	-60.0	0.2222222222222222	9.0	1.0	2.0	-1.6404620970391477	2.361	1.0	stim	poldrack-single-stim	s596	False	0
420.825	1.5	420.074	n/a	-1.0	2.386	columbia_card_task_fmri	n/a	n/a	-1.0	n/a	n/a	n/a	n/a	n/a	n/a	n/a	n/a	ITI	poldrack-single-stim	s596	False	0
422.463	3.117	425.58	5.109504788359256	draw_card	3.117	columbia_card_task_fmri	13.0	0.9	89.0	-90.0	0.1	10.0	1.0	1.0	-1.9200990681586132	3.117	n/a	stim	poldrack-single-stim	s596	False	1
425.585	0.999	426.584	3.9650603439148098	draw_card	0.999	columbia_card_task_fmri	13.0	0.8888888888888888	89.0	-90.0	0.1111111111111111	10.0	2.0	1.0	-0.4545690683744539	0.999	n/a	stim	poldrack-single-stim	s596	False	1
426.586	0.858	427.444	2.5345047883592544	draw_card	0.858	columbia_card_task_fmri	13.0	0.875	89.0	-90.0	0.125	10.0	3.0	1.0	1.2352591325384663	0.858	3.0	stim	poldrack-single-stim	s596	False	0
428.199	1.5	427.448	n/a	-1.0	2.25	columbia_card_task_fmri	n/a	n/a	-1.0	n/a	n/a	n/a	n/a	n/a	n/a	n/a	n/a	ITI	poldrack-single-stim	s596	False	0
429.703	1.835	431.538	6.409504788359254	draw_card	1.835	columbia_card_task_fmri	15.0	0.9	89.0	-95.0	0.1	10.0	1.0	1.0	0.1739481477075841	1.835	n/a	stim	poldrack-single-stim	s596	False	1
431.542	1.46	433.002	5.187282566137031	draw_card	1.46	columbia_card_task_fmri	15.0	0.8888888888888888	89.0	-95.0	0.1111111111111111	10.0	2.0	1.0	1.739634056079403	1.46	n/a	stim	poldrack-single-stim	s596	False	1
433.005	1.596	434.601	3.6595047883592544	draw_card	1.596	columbia_card_task_fmri	15.0	0.875	89.0	-95.0	0.125	10.0	3.0	1.0	3.544887598924376	1.596	n/a	stim	poldrack-single-stim	s596	False	1
434.605	1.18	435.785	1.6952190740735409	draw_card	1.18	columbia_card_task_fmri	15.0	0.8571428571428572	89.0	-95.0	0.1428571428571428	10.0	4.0	1.0	5.653422244094763	1.18	4.0	stim	poldrack-single-stim	s596	False	0
436.541	1.5	435.79	n/a	-1.0	2.318	columbia_card_task_fmri	n/a	n/a	-1.0	n/a	n/a	n/a	n/a	n/a	n/a	n/a	n/a	ITI	poldrack-single-stim	s596	False	0
438.113	0.75	438.863	2.209504788359255	draw_card	0.75	columbia_card_task_fmri	16.0	0.8	89.0	-65.0	0.2	10.0	1.0	2.0	-0.4244294691290804	0.75	n/a	stim	poldrack-single-stim	s596	False	1
438.867	0.842	439.709	0.4095047883592562	draw_card	0.842	columbia_card_task_fmri	16.0	0.7777777777777778	89.0	-65.0	0.2222222222222222	10.0	2.0	2.0	0.8471084961019599	0.842	n/a	stim	poldrack-single-stim	s596	False	1
439.713	1.522	441.235	-1.8404952116407456	draw_card	1.522	columbia_card_task_fmri	16.0	0.75	89.0	-65.0	0.25	10.0	3.0	2.0	2.242794866025484	1.522	n/a	stim	poldrack-single-stim	s596	False	1
441.239	0.941	442.18	-4.733352354497886	end_round	0.941	columbia_card_task_fmri	16.0	0.7142857142857143	71.0	-65.0	0.2857142857142857	10.0	4.0	2.0	3.757414196559772	0.941	3.0	stim	poldrack-single-stim	s596	False	1
442.935	1.5	442.184	n/a	-1.0	2.25	columbia_card_task_fmri	n/a	n/a	-1.0	n/a	n/a	n/a	n/a	n/a	n/a	n/a	n/a	ITI	poldrack-single-stim	s596	False	0
444.439	1.881	446.32	0.9095047883592544	draw_card	1.881	columbia_card_task_fmri	7.0	0.9166666666666666	89.0	-95.0	0.0833333333333333	12.0	1.0	1.0	-4.619807017646519	1.881	n/a	stim	poldrack-single-stim	s596	False	1
446.324	0.904	447.228	0.136777515631981	draw_card	0.904	columbia_card_task_fmri	7.0	0.9090909090909092	89.0	-95.0	0.0909090909090909	12.0	2.0	1.0	-3.492132415184795	0.904	n/a	stim	poldrack-single-stim	s596	False	1
447.231	0.613	447.844	-0.7904952116407458	draw_card	0.613	columbia_card_task_fmri	7.0	0.9	89.0	-95.0	0.1	12.0	3.0	1.0	-2.219182272549886	0.613	n/a	stim	poldrack-single-stim	s596	False	1
447.848	0.702	448.55	-1.9238285449740795	draw_card	0.702	columbia_card_task_fmri	7.0	0.8888888888888888	89.0	-95.0	0.1111111111111111	12.0	4.0	1.0	-0.767963225320841	0.702	n/a	stim	poldrack-single-stim	s596	False	1
448.554	0.677	449.231	-3.3404952116407456	draw_card	0.677	columbia_card_task_fmri	7.0	0.875	89.0	-95.0	0.125	12.0	5.0	1.0	0.905372532709528	0.677	n/a	stim	poldrack-single-stim	s596	False	1
449.234	0.77	450.004	-5.161923783069317	draw_card	0.77	columbia_card_task_fmri	7.0	0.8571428571428572	89.0	-95.0	0.1428571428571428	12.0	6.0	1.0	2.85990154855466	0.77	6.0	stim	poldrack-single-stim	s596	False	0
450.759	1.5	450.008	n/a	-1.0	2.25	columbia_card_task_fmri	n/a	n/a	-1.0	n/a	n/a	n/a	n/a	n/a	n/a	n/a	n/a	ITI	poldrack-single-stim	s596	False	0
452.262	0.749	453.011	1.5761714550259225	draw_card	0.749	columbia_card_task_fmri	14.0	0.8333333333333334	89.0	-75.0	0.1666666666666666	12.0	1.0	2.0	0.3418451253447401	0.749	n/a	stim	poldrack-single-stim	s596	False	1
453.014	0.602	453.616	0.2276866065410709	draw_card	0.602	columbia_card_task_fmri	14.0	0.8181818181818181	89.0	-75.0	0.1818181818181818	12.0	2.0	2.0	1.4973811854923935	0.602	n/a	stim	poldrack-single-stim	s596	False	1
453.62	0.589	454.209	-1.3904952116407443	draw_card	0.589	columbia_card_task_fmri	14.0	0.8	89.0	-75.0	0.2	12.0	3.0	2.0	2.76754747082051	0.589	n/a	stim	poldrack-single-stim	s596	False	1
454.213	1.397	455.61	-3.3682729894185206	draw_card	1.397	columbia_card_task_fmri	14.0	0.7777777777777778	89.0	-75.0	0.2222222222222222	12.0	4.0	2.0	4.165304700691664	1.397	n/a	stim	poldrack-single-stim	s596	False	1
455.614	0.753	456.367	-5.840495211640746	end_round	0.753	columbia_card_task_fmri	14.0	0.75	71.0	-75.0	0.25	12.0	5.0	2.0	5.699480996659403	0.753	4.0	stim	poldrack-single-stim	s596	False	1
457.125	1.5	456.374	n/a	-1.0	2.386	columbia_card_task_fmri	n/a	n/a	-1.0	n/a	n/a	n/a	n/a	n/a	n/a	n/a	n/a	ITI	poldrack-single-stim	s596	False	0
458.765	0.732	459.497	3.2428381216925883	draw_card	0.732	columbia_card_task_fmri	15.0	0.8333333333333334	89.0	-70.0	0.1666666666666666	12.0	1.0	2.0	-1.1447653250281142	0.732	n/a	stim	poldrack-single-stim	s596	False	1
459.5	0.953	460.453	1.9549593338137976	draw_card	0.953	columbia_card_task_fmri	15.0	0.8181818181818181	89.0	-70.0	0.1818181818181818	12.0	2.0	2.0	-0.0414330467198453	0.953	n/a	stim	poldrack-single-stim	s596	False	1
460.457	0.829	461.286	0.4095047883592544	draw_card	0.829	columbia_card_task_fmri	15.0	0.8	89.0	-70.0	0.2	12.0	3.0	2.0	1.1713709318076369	0.829	n/a	stim	poldrack-single-stim	s596	False	1
461.29	1.003	462.293	-1.4793841005296349	draw_card	1.003	columbia_card_task_fmri	15.0	0.7777777777777778	89.0	-70.0	0.2222222222222222	12.0	4.0	2.0	2.506025548427772	1.003	n/a	stim	poldrack-single-stim	s596	False	1
462.298	1.134	463.432	-3.8404952116407456	end_round	1.134	columbia_card_task_fmri	15.0	0.75	71.0	-70.0	0.25	12.0	5.0	2.0	3.9709640088057863	1.134	4.0	stim	poldrack-single-stim	s596	False	1
464.188	1.5	463.437	n/a	-1.0	2.386	columbia_card_task_fmri	n/a	n/a	-1.0	n/a	n/a	n/a	n/a	n/a	n/a	n/a	n/a	ITI	poldrack-single-stim	s596	False	0
465.829	0.773	466.602	1.2095047883592551	draw_card	0.773	columbia_card_task_fmri	16.0	0.8	89.0	-70.0	0.2	15.0	1.0	3.0	1.5703818436791153	0.773	n/a	stim	poldrack-single-stim	s596	False	1
466.606	1.754	468.36	-0.0190666402121744	draw_card	1.754	columbia_card_task_fmri	16.0	0.7857142857142857	89.0	-70.0	0.2142857142857142	15.0	2.0	3.0	2.4562935497115816	1.754	n/a	stim	poldrack-single-stim	s596	False	1
468.364	0.831	469.195	-1.4366490577945925	draw_card	0.831	columbia_card_task_fmri	16.0	0.7692307692307692	89.0	-70.0	0.2307692307692307	15.0	3.0	3.0	3.400079423185012	0.831	n/a	stim	poldrack-single-stim	s596	False	1
469.199	0.67	469.869	-3.0904952116407456	end_round	0.67	columbia_card_task_fmri	16.0	0.75	71.0	-70.0	0.25	15.0	4.0	3.0	4.403062533268752	0.67	3.0	stim	poldrack-single-stim	s596	False	1
470.623	1.5	469.872	n/a	-1.0	2.726	columbia_card_task_fmri	n/a	n/a	-1.0	n/a	n/a	n/a	n/a	n/a	n/a	n/a	n/a	ITI	poldrack-single-stim	s596	False	0
472.604	0.805	473.409	1.5970047883592544	draw_card	0.805	columbia_card_task_fmri	14.0	0.8125	89.0	-65.0	0.1875	16.0	1.0	3.0	-1.985223339195553	0.805	1.0	stim	poldrack-single-stim	s596	False	0
474.167	1.5	473.416	n/a	-1.0	2.454	columbia_card_task_fmri	n/a	n/a	-1.0	n/a	n/a	n/a	n/a	n/a	n/a	n/a	n/a	ITI	poldrack-single-stim	s596	False	0
475.874	1.123	476.997	1.3470047883592544	end_round	1.123	columbia_card_task_fmri	16.0	0.8125	71.0	-75.0	0.1875	16.0	1.0	3.0	2.686160216351965	1.123	0.0	stim	poldrack-single-stim	s596	False	1
477.753	1.5	477.002	n/a	-1.0	2.318	columbia_card_task_fmri	n/a	n/a	-1.0	n/a	n/a	n/a	n/a	n/a	n/a	n/a	n/a	ITI	poldrack-single-stim	s596	False	0
479.326	3.373	482.699	5.609504788359256	draw_card	3.373	columbia_card_task_fmri	16.0	0.8666666666666667	89.0	-80.0	0.1333333333333333	15.0	1.0	2.0	-0.1913436321432655	3.373	n/a	stim	poldrack-single-stim	s596	False	1
482.703	0.769	483.472	4.695219074073543	draw_card	0.769	columbia_card_task_fmri	16.0	0.8571428571428572	89.0	-80.0	0.1428571428571428	15.0	2.0	2.0	0.765403594898963	0.769	2.0	stim	poldrack-single-stim	s596	False	0
484.228	1.5	483.477	n/a	-1.0	2.318	columbia_card_task_fmri	n/a	n/a	-1.0	n/a	n/a	n/a	n/a	n/a	n/a	n/a	n/a	ITI	poldrack-single-stim	s596	False	0
485.801	2.658	488.459	6.476171455025923	draw_card	2.658	columbia_card_task_fmri	17.0	0.8666666666666667	89.0	-80.0	0.1333333333333333	15.0	1.0	2.0	0.1476776587036354	2.658	1.0	stim	poldrack-single-stim	s596	False	0
489.215	1.5	488.464	n/a	-1.0	2.59	columbia_card_task_fmri	n/a	n/a	-1.0	n/a	n/a	n/a	n/a	n/a	n/a	n/a	n/a	ITI	poldrack-single-stim	s596	False	0
491.06	2.157	493.217	2.4095047883592544	draw_card	2.157	columbia_card_task_fmri	1.0	0.9375	89.0	-15.0	0.0625	16.0	1.0	1.0	-28.352572254132333	2.157	n/a	stim	poldrack-single-stim	s596	False	1
493.221	1.039	494.26	2.342838121692588	draw_card	1.039	columbia_card_task_fmri	1.0	0.9333333333333332	89.0	-15.0	0.0666666666666666	16.0	2.0	1.0	-28.251861857891587	1.039	n/a	stim	poldrack-single-stim	s596	False	1
494.264	0.576	494.84	2.266647645502112	draw_card	0.576	columbia_card_task_fmri	1.0	0.9285714285714286	89.0	-15.0	0.0714285714285714	16.0	3.0	1.0	-28.14050471731072	0.576	3.0	stim	poldrack-single-stim	s596	False	0
495.597	1.5	494.846	n/a	-1.0	2.726	columbia_card_task_fmri	n/a	n/a	-1.0	n/a	n/a	n/a	n/a	n/a	n/a	n/a	n/a	ITI	poldrack-single-stim	s596	False	0
497.579	3.416	500.995	5.534504788359254	draw_card	3.416	columbia_card_task_fmri	10.0	0.9375	89.0	-100.0	0.0625	16.0	1.0	1.0	-6.17834177588438	3.416	n/a	stim	poldrack-single-stim	s596	False	1
500.999	1.223	502.222	5.076171455025921	draw_card	1.223	columbia_card_task_fmri	10.0	0.9333333333333332	89.0	-100.0	0.0666666666666666	16.0	2.0	1.0	-5.369488824643302	1.223	n/a	stim	poldrack-single-stim	s596	False	1
502.227	0.96	503.187	4.552361931216399	draw_card	0.96	columbia_card_task_fmri	10.0	0.9285714285714286	89.0	-100.0	0.0714285714285714	16.0	3.0	1.0	-4.482285237094715	0.96	n/a	stim	poldrack-single-stim	s596	False	1
503.191	1.02	504.211	3.9479663268207936	draw_card	1.02	columbia_card_task_fmri	10.0	0.9230769230769232	89.0	-100.0	0.0769230769230769	16.0	4.0	1.0	-3.5034036643302464	1.02	n/a	stim	poldrack-single-stim	s596	False	1
504.215	0.979	505.194	3.2428381216925883	end_round	0.979	columbia_card_task_fmri	10.0	0.9166666666666666	71.0	-100.0	0.0833333333333333	16.0	5.0	1.0	-2.41617464166837	0.979	4.0	stim	poldrack-single-stim	s596	False	1
505.95	1.5	505.199	n/a	-1.0	2.522	columbia_card_task_fmri	n/a	n/a	-1.0	n/a	n/a	n/a	n/a	n/a	n/a	n/a	n/a	ITI	poldrack-single-stim	s596	False	0
507.727	2.283	510.01	6.159504788359254	draw_card	2.283	columbia_card_task_fmri	15.0	0.875	89.0	-75.0	0.125	16.0	1.0	2.0	-3.051830466428882	2.283	n/a	stim	poldrack-single-stim	s596	False	1
510.013	0.769	510.782	5.409504788359254	draw_card	0.769	columbia_card_task_fmri	15.0	0.8666666666666667	89.0	-75.0	0.1333333333333333	16.0	2.0	2.0	-2.225047033962312	0.769	n/a	stim	poldrack-single-stim	s596	False	1
510.787	0.964	511.751	4.552361931216399	draw_card	0.964	columbia_card_task_fmri	15.0	0.8571428571428572	89.0	-75.0	0.1428571428571428	16.0	3.0	2.0	-1.3284218404150572	0.964	n/a	stim	poldrack-single-stim	s596	False	1
511.755	1.041	512.796	3.563350942205408	draw_card	1.041	columbia_card_task_fmri	15.0	0.8461538461538461	89.0	-75.0	0.1538461538461538	16.0	4.0	2.0	-0.352518500452291	1.041	n/a	stim	poldrack-single-stim	s596	False	1
512.8	1.009	513.809	2.4095047883592544	draw_card	1.009	columbia_card_task_fmri	15.0	0.8333333333333334	89.0	-75.0	0.1666666666666666	16.0	5.0	2.0	0.7135544791551354	1.009	n/a	stim	poldrack-single-stim	s596	False	1
513.813	0.922	514.735	1.045868424722889	draw_card	0.922	columbia_card_task_fmri	15.0	0.8181818181818181	89.0	-75.0	0.1818181818181818	16.0	6.0	2.0	1.882139599184512	0.922	n/a	stim	poldrack-single-stim	s596	False	1
514.74	1.117	515.857	-0.5904952116407456	end_round	1.117	columbia_card_task_fmri	15.0	0.8	71.0	-75.0	0.2	16.0	7.0	2.0	3.166644527382651	1.117	6.0	stim	poldrack-single-stim	s596	False	1
516.613	1.5	515.862	n/a	-1.0	3.134	columbia_card_task_fmri	n/a	n/a	-1.0	n/a	n/a	n/a	n/a	n/a	n/a	n/a	n/a	ITI	poldrack-single-stim	s596	False	0
519.002	1.789	520.791	6.409504788359254	draw_card	1.789	columbia_card_task_fmri	16.0	0.875	89.0	-80.0	0.125	16.0	1.0	2.0	-1.0735844278365363	1.789	n/a	stim	poldrack-single-stim	s596	False	1
520.794	1.009	521.803	5.609504788359256	draw_card	1.009	columbia_card_task_fmri	16.0	0.8666666666666667	89.0	-80.0	0.1333333333333333	16.0	2.0	2.0	-0.1913436321432655	1.009	n/a	stim	poldrack-single-stim	s596	False	1
521.808	0.79	522.598	4.695219074073543	draw_card	0.79	columbia_card_task_fmri	16.0	0.8571428571428572	89.0	-80.0	0.1428571428571428	16.0	3.0	2.0	0.765403594898963	0.79	n/a	stim	poldrack-single-stim	s596	False	1
522.602	0.866	523.468	3.640274019128485	draw_card	0.866	columbia_card_task_fmri	16.0	0.8461538461538461	89.0	-80.0	0.1538461538461538	16.0	4.0	2.0	1.806723129130198	0.866	4.0	stim	poldrack-single-stim	s596	False	0
524.226	1.5	523.475	n/a	-1.0	2.386	columbia_card_task_fmri	n/a	n/a	-1.0	n/a	n/a	n/a	n/a	n/a	n/a	n/a	n/a	ITI	poldrack-single-stim	s596	False	0
525.866	2.863	528.729	3.5970047883592544	draw_card	2.863	columbia_card_task_fmri	4.0	0.6875	89.0	-5.0	0.3125	16.0	1.0	5.0	-28.0964261377238	2.863	n/a	stim	poldrack-single-stim	s596	False	1
528.733	2.591	531.324	3.409504788359255	end_round	2.591	columbia_card_task_fmri	4.0	0.6666666666666667	71.0	-5.0	0.3333333333333333	16.0	2.0	5.0	-28.03479038556585	2.591	1.0	stim	poldrack-single-stim	s596	False	1
532.082	1.5	531.331	n/a	-1.0	2.386	columbia_card_task_fmri	n/a	n/a	-1.0	n/a	n/a	n/a	n/a	n/a	n/a	n/a	n/a	ITI	poldrack-single-stim	s596	False	0
533.722	1.139	534.861	0.7428381216925901	draw_card	1.139	columbia_card_task_fmri	14.0	0.8333333333333334	89.0	-80.0	0.1666666666666666	6.0	1.0	1.0	2.2005972361609736	1.139	n/a	stim	poldrack-single-stim	s596	False	1
534.864	0.998	535.862	-2.3904952116407445	draw_card	0.998	columbia_card_task_fmri	14.0	0.8	89.0	-80.0	0.2	6.0	2.0	1.0	4.763224260091995	0.998	n/a	stim	poldrack-single-stim	s596	False	1
535.867	0.902	536.769	-7.090495211640746	draw_card	0.902	columbia_card_task_fmri	14.0	0.75	89.0	-80.0	0.25	6.0	3.0	1.0	7.8605489944290525	0.902	n/a	stim	poldrack-single-stim	s596	False	1
536.772	0.426	537.198	-14.923828544974077	end_round	0.426	columbia_card_task_fmri	14.0	0.6666666666666667	71.0	-80.0	0.3333333333333333	6.0	4.0	1.0	11.463585782368924	0.426	3.0	stim	poldrack-single-stim	s596	False	1
537.958	1.5	537.207	n/a	-1.0	2.318	columbia_card_task_fmri	n/a	n/a	-1.0	n/a	n/a	n/a	n/a	n/a	n/a	n/a	n/a	ITI	poldrack-single-stim	s596	False	0
539.529	0.737	540.266	2.4095047883592544	draw_card	0.737	columbia_card_task_fmri	15.0	0.8333333333333334	89.0	-75.0	0.1666666666666666	6.0	1.0	1.0	0.7135544791551354	0.737	n/a	stim	poldrack-single-stim	s596	False	1
540.27	0.802	541.072	-0.5904952116407456	draw_card	0.802	columbia_card_task_fmri	15.0	0.8	89.0	-75.0	0.2	6.0	2.0	1.0	3.166644527382651	0.802	n/a	stim	poldrack-single-stim	s596	False	1
541.076	1.284	542.36	-5.090495211640746	draw_card	1.284	columbia_card_task_fmri	15.0	0.75	89.0	-75.0	0.25	6.0	3.0	1.0	6.131659180967318	1.284	n/a	stim	poldrack-single-stim	s596	False	1
542.364	1.224	543.588	-12.590495211640745	draw_card	1.224	columbia_card_task_fmri	15.0	0.6666666666666667	89.0	-75.0	0.3333333333333333	6.0	4.0	1.0	9.58087250026059	1.224	n/a	stim	poldrack-single-stim	s596	False	1
543.593	0.944	544.537	-27.590495211640743	end_round	0.944	columbia_card_task_fmri	15.0	0.5	71.0	-75.0	0.5	6.0	5.0	1.0	12.150561479410584	0.944	4.0	stim	poldrack-single-stim	s596	False	1
545.297	1.5	544.546	n/a	-1.0	2.318	columbia_card_task_fmri	n/a	n/a	-1.0	n/a	n/a	n/a	n/a	n/a	n/a	n/a	n/a	ITI	poldrack-single-stim	s596	False	0
546.869	1.042	547.911	4.076171455025922	draw_card	1.042	columbia_card_task_fmri	16.0	0.8333333333333334	89.0	-70.0	0.1666666666666666	6.0	1.0	1.0	-0.7731483318886632	1.042	n/a	stim	poldrack-single-stim	s596	False	1
547.915	0.791	548.706	1.2095047883592551	draw_card	0.791	columbia_card_task_fmri	16.0	0.8	89.0	-70.0	0.2	6.0	2.0	1.0	1.5703818436791153	0.791	n/a	stim	poldrack-single-stim	s596	False	1
548.711	0.948	549.659	-3.0904952116407456	draw_card	0.948	columbia_card_task_fmri	16.0	0.75	89.0	-70.0	0.25	6.0	3.0	1.0	4.403062533268752	0.948	3.0	stim	poldrack-single-stim	s596	False	0
550.417	1.5	549.666	n/a	-1.0	2.862	columbia_card_task_fmri	n/a	n/a	-1.0	n/a	n/a	n/a	n/a	n/a	n/a	n/a	n/a	ITI	poldrack-single-stim	s596	False	0
552.534	0.933	553.467	4.659504788359254	draw_card	0.933	columbia_card_task_fmri	23.0	0.75	89.0	-60.0	0.25	8.0	1.0	2.0	3.10683282743544	0.933	n/a	stim	poldrack-single-stim	s596	False	1
553.472	1.972	555.444	1.6952190740735429	draw_card	1.972	columbia_card_task_fmri	23.0	0.7142857142857143	89.0	-60.0	0.2857142857142857	8.0	2.0	2.0	4.659016574507767	1.972	n/a	stim	poldrack-single-stim	s596	False	1
555.448	1.665	557.113	-2.25716187830741	end_round	1.665	columbia_card_task_fmri	23.0	0.6666666666666667	71.0	-60.0	0.3333333333333333	8.0	3.0	2.0	6.286796174399818	1.665	2.0	stim	poldrack-single-stim	s596	False	1
557.871	1.5	557.12	n/a	-1.0	2.726	columbia_card_task_fmri	n/a	n/a	-1.0	n/a	n/a	n/a	n/a	n/a	n/a	n/a	n/a	ITI	poldrack-single-stim	s596	False	0
559.852	0.706	560.558	5.159504788359254	draw_card	0.706	columbia_card_task_fmri	27.0	0.75	89.0	-70.0	0.25	8.0	1.0	2.0	9.157387002929433	0.706	n/a	stim	poldrack-single-stim	s596	False	1
560.563	1.262	561.825	1.6952190740735391	draw_card	1.262	columbia_card_task_fmri	27.0	0.7142857142857143	89.0	-70.0	0.2857142857142857	8.0	2.0	2.0	10.972427833538234	1.262	n/a	stim	poldrack-single-stim	s596	False	1
561.831	3.762	565.593	-2.923828544974074	draw_card	3.762	columbia_card_task_fmri	27.0	0.6666666666666667	89.0	-70.0	0.3333333333333333	8.0	3.0	2.0	12.875777624083838	3.762	n/a	stim	poldrack-single-stim	s596	False	1
565.599	0.548	566.147	-9.390495211640747	end_round	0.548	columbia_card_task_fmri	27.0	0.6	71.0	-70.0	0.4	8.0	4.0	2.0	14.667248441782462	0.548	3.0	stim	poldrack-single-stim	s596	False	1
566.907	1.5	566.156	n/a	-1.0	2.25	columbia_card_task_fmri	n/a	n/a	-1.0	n/a	n/a	n/a	n/a	n/a	n/a	n/a	n/a	ITI	poldrack-single-stim	s596	False	0
568.412	1.179	569.591	0.4095047883592562	draw_card	1.179	columbia_card_task_fmri	16.0	0.7777777777777778	89.0	-65.0	0.2222222222222222	9.0	1.0	2.0	0.8471084961019599	1.179	n/a	stim	poldrack-single-stim	s596	False	1
569.595	1.843	571.438	-1.8404952116407456	draw_card	1.843	columbia_card_task_fmri	16.0	0.75	89.0	-65.0	0.25	9.0	2.0	2.0	2.242794866025484	1.843	n/a	stim	poldrack-single-stim	s596	False	1
571.444	0.958	572.402	-4.733352354497886	draw_card	0.958	columbia_card_task_fmri	16.0	0.7142857142857143	89.0	-65.0	0.2857142857142857	9.0	3.0	2.0	3.757414196559772	0.958	3.0	stim	poldrack-single-stim	s596	False	0
573.158	1.5	572.407	n/a	-1.0	2.318	columbia_card_task_fmri	n/a	n/a	-1.0	n/a	n/a	n/a	n/a	n/a	n/a	n/a	n/a	ITI	poldrack-single-stim	s596	False	0
574.731	0.621	575.352	5.609504788359256	draw_card	0.621	columbia_card_task_fmri	13.0	0.9	89.0	-85.0	0.1	10.0	1.0	1.0	-3.415328898527114	0.621	n/a	stim	poldrack-single-stim	s596	False	1
575.358	1.139	576.497	4.520615899470365	draw_card	1.139	columbia_card_task_fmri	13.0	0.8888888888888888	89.0	-85.0	0.1111111111111111	10.0	2.0	1.0	-2.0213619667613294	1.139	n/a	stim	poldrack-single-stim	s596	False	1
576.503	1.301	577.804	3.1595047883592544	draw_card	1.301	columbia_card_task_fmri	13.0	0.875	89.0	-85.0	0.125	10.0	3.0	1.0	-0.4140046867752076	1.301	n/a	stim	poldrack-single-stim	s596	False	1
577.808	2.304	580.112	1.4095047883592562	draw_card	2.304	columbia_card_task_fmri	13.0	0.8571428571428572	89.0	-85.0	0.1428571428571428	10.0	4.0	1.0	1.463500924638602	2.304	n/a	stim	poldrack-single-stim	s596	False	1
580.117	0.527	580.644	-0.9238285449740776	end_round	0.527	columbia_card_task_fmri	13.0	0.8333333333333334	71.0	-85.0	0.1666666666666666	10.0	5.0	1.0	3.6879385056453486	0.527	4.0	stim	poldrack-single-stim	s596	False	1
581.402	1.5	580.651	n/a	-1.0	2.454	columbia_card_task_fmri	n/a	n/a	-1.0	n/a	n/a	n/a	n/a	n/a	n/a	n/a	n/a	ITI	poldrack-single-stim	s596	False	0
583.113	0.667	583.78	0.6095047883592555	draw_card	0.667	columbia_card_task_fmri	14.0	0.8	89.0	-65.0	0.2	10.0	1.0	2.0	-1.2221708610425956	0.667	n/a	stim	poldrack-single-stim	s596	False	1
583.785	0.948	584.733	-1.1460507671962992	draw_card	0.948	columbia_card_task_fmri	14.0	0.7777777777777778	89.0	-65.0	0.2222222222222222	10.0	2.0	2.0	0.0178028584418896	0.948	n/a	stim	poldrack-single-stim	s596	False	1
584.738	1.172	585.91	-3.3404952116407456	draw_card	1.172	columbia_card_task_fmri	14.0	0.75	89.0	-65.0	0.25	10.0	3.0	2.0	1.3788571708677964	1.172	n/a	stim	poldrack-single-stim	s596	False	1
585.915	1.861	587.776	-6.161923783069315	draw_card	1.861	columbia_card_task_fmri	14.0	0.7142857142857143	89.0	-65.0	0.2857142857142857	10.0	4.0	2.0	2.855907980360527	1.861	n/a	stim	poldrack-single-stim	s596	False	1
587.781	1.419	589.2	-9.923828544974077	end_round	1.419	columbia_card_task_fmri	14.0	0.6666666666666667	71.0	-65.0	0.3333333333333333	10.0	5.0	2.0	4.404923421930711	1.419	4.0	stim	poldrack-single-stim	s596	False	1
589.958	1.5	589.207	n/a	-1.0	2.522	columbia_card_task_fmri	n/a	n/a	-1.0	n/a	n/a	n/a	n/a	n/a	n/a	n/a	n/a	ITI	poldrack-single-stim	s596	False	0
591.736	2.445	594.181	2.009504788359256	draw_card	2.445	columbia_card_task_fmri	17.0	0.8	89.0	-70.0	0.2	10.0	1.0	2.0	1.9694154108644144	2.445	1.0	stim	poldrack-single-stim	s596	False	0
594.941	1.5	594.19	n/a	-1.0	2.318	columbia_card_task_fmri	n/a	n/a	-1.0	n/a	n/a	n/a	n/a	n/a	n/a	n/a	n/a	ITI	poldrack-single-stim	s596	False	0
596.515	1.958	598.473	0.7428381216925883	draw_card	1.958	columbia_card_task_fmri	13.0	0.8333333333333334	89.0	-75.0	0.1666666666666666	12.0	1.0	2.0	-0.0298423015666244	1.958	n/a	stim	poldrack-single-stim	s596	False	1
598.477	1.207	599.684	-0.5904952116407474	draw_card	1.207	columbia_card_task_fmri	13.0	0.8181818181818181	89.0	-75.0	0.1818181818181818	12.0	2.0	2.0	1.1126439697770962	1.207	n/a	stim	poldrack-single-stim	s596	False	1
599.69	0.97	600.66	-2.190495211640745	draw_card	0.97	columbia_card_task_fmri	13.0	0.8	89.0	-75.0	0.2	12.0	3.0	2.0	2.3684708646881134	0.97	n/a	stim	poldrack-single-stim	s596	False	1
600.665	0.928	601.593	-4.146050767196299	draw_card	0.928	columbia_card_task_fmri	13.0	0.7777777777777778	89.0	-75.0	0.2222222222222222	12.0	4.0	2.0	3.750453654092773	0.928	n/a	stim	poldrack-single-stim	s596	False	1
601.597	0.654	602.251	-6.590495211640746	draw_card	0.654	columbia_card_task_fmri	13.0	0.75	89.0	-75.0	0.25	12.0	5.0	2.0	5.267321722620714	0.654	n/a	stim	poldrack-single-stim	s596	False	1
602.257	1.04	603.297	-9.733352354497883	draw_card	1.04	columbia_card_task_fmri	13.0	0.7142857142857143	89.0	-75.0	0.2857142857142857	12.0	6.0	2.0	6.9134003678112	1.04	n/a	stim	poldrack-single-stim	s596	False	1
603.303	1.054	604.357	-13.92382854497408	draw_card	1.054	columbia_card_task_fmri	13.0	0.6666666666666667	89.0	-75.0	0.3333333333333333	12.0	7.0	2.0	8.639614643863645	1.054	n/a	stim	poldrack-single-stim	s596	False	1
604.363	0.521	604.884	-19.790495211640746	end_round	0.521	columbia_card_task_fmri	13.0	0.6	71.0	-75.0	0.4	12.0	8.0	2.0	10.264401141560548	0.521	7.0	stim	poldrack-single-stim	s596	False	1
605.639	1.5	604.888	n/a	-1.0	2.522	columbia_card_task_fmri	n/a	n/a	-1.0	n/a	n/a	n/a	n/a	n/a	n/a	n/a	n/a	ITI	poldrack-single-stim	s596	False	0
607.416	1.139	608.555	2.409504788359256	draw_card	1.139	columbia_card_task_fmri	14.0	0.8333333333333334	89.0	-70.0	0.1666666666666666	12.0	1.0	2.0	-1.5163571665302946	1.139	n/a	stim	poldrack-single-stim	s596	False	1
608.56	1.306	609.866	1.1367775156319793	draw_card	1.306	columbia_card_task_fmri	14.0	0.8181818181818181	89.0	-70.0	0.1818181818181818	12.0	2.0	2.0	-0.426077851705358	1.306	n/a	stim	poldrack-single-stim	s596	False	1
609.871	0.997	610.868	-0.3904952116407445	draw_card	0.997	columbia_card_task_fmri	14.0	0.8	89.0	-70.0	0.2	12.0	3.0	2.0	0.7723834803002703	0.997	3.0	stim	poldrack-single-stim	s596	False	0
611.628	1.5	610.877	n/a	-1.0	2.998	columbia_card_task_fmri	n/a	n/a	-1.0	n/a	n/a	n/a	n/a	n/a	n/a	n/a	n/a	ITI	poldrack-single-stim	s596	False	0
613.881	0.644	614.525	2.409504788359256	draw_card	0.644	columbia_card_task_fmri	16.0	0.8333333333333334	89.0	-80.0	0.1666666666666666	12.0	1.0	2.0	2.944232878265055	0.644	n/a	stim	poldrack-single-stim	s596	False	1
614.531	0.881	615.412	0.9549593338137976	draw_card	0.881	columbia_card_task_fmri	16.0	0.8181818181818181	89.0	-80.0	0.1818181818181818	12.0	2.0	2.0	4.191098308018468	0.881	n/a	stim	poldrack-single-stim	s596	False	1
615.417	1.11	616.527	-0.7904952116407449	draw_card	1.11	columbia_card_task_fmri	16.0	0.8	89.0	-80.0	0.2	12.0	3.0	2.0	5.56162068613677	1.11	n/a	stim	poldrack-single-stim	s596	False	1
616.533	1.302	617.835	-2.9238285449740795	draw_card	1.302	columbia_card_task_fmri	16.0	0.7777777777777778	89.0	-80.0	0.2222222222222222	12.0	4.0	2.0	7.069778921843167	1.302	4.0	stim	poldrack-single-stim	s596	False	0
618.59	1.5	617.839	n/a	-1.0	2.318	columbia_card_task_fmri	n/a	n/a	-1.0	n/a	n/a	n/a	n/a	n/a	n/a	n/a	n/a	ITI	poldrack-single-stim	s596	False	0
620.163	1.519	621.682	2.209504788359255	draw_card	1.519	columbia_card_task_fmri	16.0	0.8	89.0	-65.0	0.2	15.0	1.0	3.0	-0.4244294691290804	1.519	1.0	stim	poldrack-single-stim	s596	False	0
622.439	1.5	621.688	n/a	-1.0	2.25	columbia_card_task_fmri	n/a	n/a	-1.0	n/a	n/a	n/a	n/a	n/a	n/a	n/a	n/a	ITI	poldrack-single-stim	s596	False	0
623.944	1.429	625.373	0.5345047883592544	draw_card	1.429	columbia_card_task_fmri	15.0	0.8125	89.0	-75.0	0.1875	16.0	1.0	3.0	2.296752775445867	1.429	n/a	stim	poldrack-single-stim	s596	False	1
625.378	1.263	626.641	-0.5904952116407456	draw_card	1.263	columbia_card_task_fmri	15.0	0.8	89.0	-75.0	0.2	16.0	2.0	3.0	3.166644527382651	1.263	2.0	stim	poldrack-single-stim	s596	False	0
627.399	1.5	626.648	n/a	-1.0	2.454	columbia_card_task_fmri	n/a	n/a	-1.0	n/a	n/a	n/a	n/a	n/a	n/a	n/a	n/a	ITI	poldrack-single-stim	s596	False	0
629.11	1.662	630.772	1.0970047883592544	draw_card	1.662	columbia_card_task_fmri	14.0	0.6875	89.0	-35.0	0.3125	16.0	1.0	5.0	-10.074339048497038	1.662	1.0	stim	poldrack-single-stim	s596	False	0
631.529	1.5	630.778	n/a	-1.0	2.318	columbia_card_task_fmri	n/a	n/a	-1.0	n/a	n/a	n/a	n/a	n/a	n/a	n/a	n/a	ITI	poldrack-single-stim	s596	False	0
633.102	2.926	636.028	6.2761714550259216	draw_card	2.926	columbia_card_task_fmri	16.0	0.8666666666666667	89.0	-75.0	0.1333333333333333	15.0	1.0	2.0	-1.8861502952693636	2.926	n/a	stim	poldrack-single-stim	s596	False	1
636.033	1.492	637.525	5.409504788359256	draw_card	1.492	columbia_card_task_fmri	16.0	0.8571428571428572	89.0	-75.0	0.1428571428571428	15.0	2.0	2.0	-0.9795032516194232	1.492	n/a	stim	poldrack-single-stim	s596	False	1
637.531	1.198	638.729	4.409504788359254	draw_card	1.198	columbia_card_task_fmri	16.0	0.8461538461538461	89.0	-75.0	0.1538461538461538	15.0	3.0	2.0	0.0073043391158265	1.198	n/a	stim	poldrack-single-stim	s596	False	1
638.735	1.053	639.788	3.2428381216925883	draw_card	1.053	columbia_card_task_fmri	16.0	0.8333333333333334	89.0	-75.0	0.1666666666666666	15.0	4.0	2.0	1.0852850406914527	1.053	n/a	stim	poldrack-single-stim	s596	False	1
639.792	2.074	641.866	1.864050242904708	draw_card	2.074	columbia_card_task_fmri	16.0	0.8181818181818181	89.0	-75.0	0.1818181818181818	15.0	5.0	2.0	2.266918515352316	2.074	n/a	stim	poldrack-single-stim	s596	False	1
641.872	0.954	642.826	0.2095047883592551	end_round	0.954	columbia_card_task_fmri	16.0	0.8	71.0	-75.0	0.2	15.0	6.0	2.0	3.565761363175376	0.954	5.0	stim	poldrack-single-stim	s596	False	1
643.583	1.5	642.832	n/a	-1.0	2.318	columbia_card_task_fmri	n/a	n/a	-1.0	n/a	n/a	n/a	n/a	n/a	n/a	n/a	n/a	ITI	poldrack-single-stim	s596	False	0
645.156	2.065	647.221	6.942838121692588	draw_card	2.065	columbia_card_task_fmri	16.0	0.8666666666666667	89.0	-70.0	0.1333333333333333	15.0	1.0	2.0	-3.580393799602991	2.065	n/a	stim	poldrack-single-stim	s596	False	1
647.227	1.074	648.301	6.12379050264497	draw_card	1.074	columbia_card_task_fmri	16.0	0.8571428571428572	89.0	-70.0	0.1428571428571428	15.0	2.0	2.0	-2.723862740866398	1.074	n/a	stim	poldrack-single-stim	s596	False	1
648.307	1.033	649.34	5.178735557590023	draw_card	1.033	columbia_card_task_fmri	16.0	0.8461538461538461	89.0	-70.0	0.1538461538461538	15.0	3.0	2.0	-1.7915833198443103	1.033	n/a	stim	poldrack-single-stim	s596	False	1
649.346	0.996	650.342	4.076171455025922	end_round	0.996	columbia_card_task_fmri	16.0	0.8333333333333334	71.0	-70.0	0.1666666666666666	15.0	4.0	2.0	-0.7731483318886632	0.996	3.0	stim	poldrack-single-stim	s596	False	1
651.099	1.5	650.348	n/a	-1.0	2.59	columbia_card_task_fmri	n/a	n/a	-1.0	n/a	n/a	n/a	n/a	n/a	n/a	n/a	n/a	ITI	poldrack-single-stim	s596	False	0
652.945	2.946	655.891	4.284504788359254	draw_card	2.946	columbia_card_task_fmri	8.0	0.9375	89.0	-90.0	0.0625	16.0	1.0	1.0	-9.069821591462723	2.946	n/a	stim	poldrack-single-stim	s596	False	1
655.896	2.21	658.106	3.876171455025921	draw_card	2.21	columbia_card_task_fmri	8.0	0.9333333333333332	89.0	-90.0	0.0666666666666666	16.0	2.0	1.0	-8.349944252258556	2.21	n/a	stim	poldrack-single-stim	s596	False	1
658.111	1.385	659.496	3.4095047883592557	draw_card	1.385	columbia_card_task_fmri	8.0	0.9285714285714286	89.0	-90.0	0.0714285714285714	16.0	3.0	1.0	-7.560286858703321	1.385	n/a	stim	poldrack-single-stim	s596	False	1
659.502	0.792	660.294	2.871043249897716	end_round	0.792	columbia_card_task_fmri	8.0	0.9230769230769232	71.0	-90.0	0.0769230769230769	16.0	4.0	1.0	-6.688978127103141	0.792	3.0	stim	poldrack-single-stim	s596	False	1
661.054	1.5	660.303	n/a	-1.0	2.25	columbia_card_task_fmri	n/a	n/a	-1.0	n/a	n/a	n/a	n/a	n/a	n/a	n/a	n/a	ITI	poldrack-single-stim	s596	False	0
662.559	3.022	665.581	5.847004788359254	draw_card	3.022	columbia_card_task_fmri	10.0	0.9375	89.0	-95.0	0.0625	16.0	1.0	1.0	-7.383490818577531	3.022	n/a	stim	poldrack-single-stim	s596	False	1
665.587	0.934	666.521	5.409504788359255	draw_card	0.934	columbia_card_task_fmri	10.0	0.9333333333333332	89.0	-95.0	0.0666666666666666	16.0	2.0	1.0	-6.611700495120463	0.934	n/a	stim	poldrack-single-stim	s596	False	1
666.526	0.654	667.18	4.909504788359255	draw_card	0.654	columbia_card_task_fmri	10.0	0.9285714285714286	89.0	-95.0	0.0714285714285714	16.0	3.0	1.0	-5.76513026126602	0.654	n/a	stim	poldrack-single-stim	s596	False	1
667.186	0.941	668.127	4.332581711436178	draw_card	0.941	columbia_card_task_fmri	10.0	0.9230769230769232	89.0	-95.0	0.0769230769230769	16.0	4.0	1.0	-4.831059429695127	0.941	n/a	stim	poldrack-single-stim	s596	False	1
668.133	0.712	668.845	3.6595047883592544	draw_card	0.712	columbia_card_task_fmri	10.0	0.9166666666666666	89.0	-95.0	0.0833333333333333	16.0	5.0	1.0	-3.7935772470219007	0.712	5.0	stim	poldrack-single-stim	s596	False	0
669.602	1.5	668.851	n/a	-1.0	2.25	columbia_card_task_fmri	n/a	n/a	-1.0	n/a	n/a	n/a	n/a	n/a	n/a	n/a	n/a	ITI	poldrack-single-stim	s596	False	0
671.108	2.681	673.789	6.784504788359254	draw_card	2.681	columbia_card_task_fmri	15.0	0.875	89.0	-70.0	0.125	16.0	1.0	2.0	-4.699717879332187	2.681	1.0	stim	poldrack-single-stim	s596	False	0
674.548	1.5	673.797	n/a	-1.0	2.522	columbia_card_task_fmri	n/a	n/a	-1.0	n/a	n/a	n/a	n/a	n/a	n/a	n/a	n/a	ITI	poldrack-single-stim	s596	False	0
676.328	2.502	678.83	5.784504788359254	draw_card	2.502	columbia_card_task_fmri	16.0	0.875	89.0	-85.0	0.125	16.0	1.0	2.0	0.5755023509515311	2.502	1.0	stim	poldrack-single-stim	s596	False	0
679.591	1.5	678.84	n/a	-1.0	2.454	columbia_card_task_fmri	n/a	n/a	-1.0	n/a	n/a	n/a	n/a	n/a	n/a	n/a	n/a	ITI	poldrack-single-stim	s596	False	0
