onset	duration	movement_onset	block_duration	condition	correct	correct_response	experiment_exp_id	key_press	response_time	trial_id	trial_type	worker_id	junk
3.017	0.5	3.016	0.5	BY	n/a	n/a	dot_pattern_expectancy	-1.0	n/a	cue	BY	s596	False
5.527	0.5	6.04	1.636	BY	1.0	71.0	dot_pattern_expectancy	71.0	0.513	probe	BY	s596	False
7.165	0.5	7.164	0.5	AY	n/a	n/a	dot_pattern_expectancy	-1.0	n/a	cue	AY	s596	False
9.675	0.5	10.255	1.5	AY	1.0	71.0	dot_pattern_expectancy	71.0	0.58	probe	AY	s596	False
11.177	0.5	11.176	0.5	AX	n/a	n/a	dot_pattern_expectancy	-1.0	n/a	cue	AX	s596	False
13.684	0.5	14.124	2.044	AX	1.0	89.0	dot_pattern_expectancy	89.0	0.44	probe	AX	s596	False
15.732	0.5	15.731	0.5	BY	n/a	n/a	dot_pattern_expectancy	-1.0	n/a	cue	BY	s596	False
18.239	0.5	18.534	1.772	BY	1.0	71.0	dot_pattern_expectancy	71.0	0.295	probe	BY	s596	False
20.014	0.5	20.013	0.5	BX	n/a	n/a	dot_pattern_expectancy	-1.0	n/a	cue	BX	s596	False
22.519	0.5	22.816	1.636	BX	1.0	71.0	dot_pattern_expectancy	71.0	0.297	probe	BX	s596	False
24.157	0.5	24.156	0.5	AX	n/a	n/a	dot_pattern_expectancy	-1.0	n/a	cue	AX	s596	False
26.663	0.5	27.063	1.636	AX	1.0	89.0	dot_pattern_expectancy	89.0	0.4	probe	AX	s596	False
28.302	0.5	28.301	0.5	AX	n/a	n/a	dot_pattern_expectancy	-1.0	n/a	cue	AX	s596	False
30.81	0.5	31.296	1.5	AX	1.0	89.0	dot_pattern_expectancy	89.0	0.486	probe	AX	s596	False
32.316	0.5	32.315	0.5	AX	n/a	n/a	dot_pattern_expectancy	-1.0	n/a	cue	AX	s596	False
34.821	0.5	35.237	1.5	AX	1.0	89.0	dot_pattern_expectancy	89.0	0.416	probe	AX	s596	False
36.322	0.5	36.321	0.5	AY	n/a	n/a	dot_pattern_expectancy	-1.0	n/a	cue	AY	s596	False
38.832	0.5	39.346	2.044	AY	1.0	71.0	dot_pattern_expectancy	71.0	0.514	probe	AY	s596	False
40.877	0.5	40.876	0.5	AX	n/a	n/a	dot_pattern_expectancy	-1.0	n/a	cue	AX	s596	False
43.384	0.5	43.805	2.452	AX	1.0	89.0	dot_pattern_expectancy	89.0	0.421	probe	AX	s596	False
45.838	0.5	45.837	0.5	AX	n/a	n/a	dot_pattern_expectancy	-1.0	n/a	cue	AX	s596	False
48.344	0.5	48.776	1.908	AX	1.0	89.0	dot_pattern_expectancy	89.0	0.432	probe	AX	s596	False
50.254	0.5	50.253	0.5	AX	n/a	n/a	dot_pattern_expectancy	-1.0	n/a	cue	AX	s596	False
52.763	0.5	53.208	1.5	AX	1.0	89.0	dot_pattern_expectancy	89.0	0.445	probe	AX	s596	False
54.265	0.5	54.264	0.5	AX	n/a	n/a	dot_pattern_expectancy	-1.0	n/a	cue	AX	s596	False
56.771	0.5	57.265	1.908	AX	1.0	89.0	dot_pattern_expectancy	89.0	0.494	probe	AX	s596	False
58.681	0.5	58.68	0.5	BX	n/a	n/a	dot_pattern_expectancy	-1.0	n/a	cue	BX	s596	False
61.187	0.5	61.692	2.18	BX	1.0	71.0	dot_pattern_expectancy	71.0	0.505	probe	BX	s596	False
63.368	0.5	63.367	0.5	AX	n/a	n/a	dot_pattern_expectancy	-1.0	n/a	cue	AX	s596	False
65.878	0.5	66.305	1.5	AX	1.0	89.0	dot_pattern_expectancy	89.0	0.427	probe	AX	s596	False
67.379	0.5	67.378	0.5	BY	n/a	n/a	dot_pattern_expectancy	-1.0	n/a	cue	BY	s596	False
69.889	0.5	70.175	1.908	BY	1.0	71.0	dot_pattern_expectancy	71.0	0.286	probe	BY	s596	False
71.801	0.5	71.8	0.5	BX	n/a	n/a	dot_pattern_expectancy	-1.0	n/a	cue	BX	s596	False
74.31	0.5	74.64	2.316	BX	1.0	71.0	dot_pattern_expectancy	71.0	0.33	probe	BX	s596	False
76.628	0.5	76.627	0.5	AY	n/a	n/a	dot_pattern_expectancy	-1.0	n/a	cue	AY	s596	False
79.137	0.5	79.66	2.316	AY	1.0	71.0	dot_pattern_expectancy	71.0	0.523	probe	AY	s596	False
81.457	0.5	81.456	0.5	BX	n/a	n/a	dot_pattern_expectancy	-1.0	n/a	cue	BX	s596	False
83.961	0.5	84.323	1.636	BX	1.0	71.0	dot_pattern_expectancy	71.0	0.362	probe	BX	s596	False
85.599	0.5	85.598	0.5	AY	n/a	n/a	dot_pattern_expectancy	-1.0	n/a	cue	AY	s596	False
88.107	0.5	88.615	1.5	AY	1.0	71.0	dot_pattern_expectancy	71.0	0.508	probe	AY	s596	False
89.609	0.5	89.608	0.5	BY	n/a	n/a	dot_pattern_expectancy	-1.0	n/a	cue	BY	s596	False
92.116	0.5	92.551	1.908	BY	1.0	71.0	dot_pattern_expectancy	71.0	0.435	probe	BY	s596	False
94.026	0.5	94.025	0.5	AX	n/a	n/a	dot_pattern_expectancy	-1.0	n/a	cue	AX	s596	False
96.536	0.5	96.957	1.5	AX	1.0	89.0	dot_pattern_expectancy	89.0	0.421	probe	AX	s596	False
98.037	0.5	98.036	0.5	AY	n/a	n/a	dot_pattern_expectancy	-1.0	n/a	cue	AY	s596	False
100.55	0.5	101.097	2.316	AY	1.0	71.0	dot_pattern_expectancy	71.0	0.547	probe	AY	s596	False
102.868	0.5	102.867	0.5	AX	n/a	n/a	dot_pattern_expectancy	-1.0	n/a	cue	AX	s596	False
105.378	0.5	105.849	1.5	AX	1.0	89.0	dot_pattern_expectancy	89.0	0.471	probe	AX	s596	False
106.879	0.5	106.878	0.5	AY	n/a	n/a	dot_pattern_expectancy	-1.0	n/a	cue	AY	s596	False
109.386	0.5	109.892	2.724	AY	1.0	71.0	dot_pattern_expectancy	71.0	0.506	probe	AY	s596	False
112.111	0.5	112.11	0.5	AX	n/a	n/a	dot_pattern_expectancy	-1.0	n/a	cue	AX	s596	False
114.621	0.5	115.073	1.5	AX	1.0	89.0	dot_pattern_expectancy	89.0	0.452	probe	AX	s596	False
116.122	0.5	116.121	0.5	AX	n/a	n/a	dot_pattern_expectancy	-1.0	n/a	cue	AX	s596	False
118.63	0.5	119.105	1.636	AX	1.0	89.0	dot_pattern_expectancy	89.0	0.475	probe	AX	s596	False
120.272	0.5	120.271	0.5	AX	n/a	n/a	dot_pattern_expectancy	-1.0	n/a	cue	AX	s596	False
122.778	0.5	123.472	1.636	AX	1.0	89.0	dot_pattern_expectancy	89.0	0.694	probe	AX	s596	False
124.415	0.5	124.414	0.5	AX	n/a	n/a	dot_pattern_expectancy	-1.0	n/a	cue	AX	s596	False
126.925	0.5	127.438	1.772	AX	1.0	89.0	dot_pattern_expectancy	89.0	0.513	probe	AX	s596	False
128.699	0.5	128.698	0.5	BY	n/a	n/a	dot_pattern_expectancy	-1.0	n/a	cue	BY	s596	False
131.207	0.5	131.659	1.772	BY	1.0	71.0	dot_pattern_expectancy	71.0	0.452	probe	BY	s596	False
132.982	0.5	132.981	0.5	AX	n/a	n/a	dot_pattern_expectancy	-1.0	n/a	cue	AX	s596	False
135.492	0.5	135.931	1.5	AX	1.0	89.0	dot_pattern_expectancy	89.0	0.439	probe	AX	s596	False
136.993	0.5	136.992	0.5	BY	n/a	n/a	dot_pattern_expectancy	-1.0	n/a	cue	BY	s596	False
139.499	0.5	139.908	2.452	BY	1.0	71.0	dot_pattern_expectancy	71.0	0.409	probe	BY	s596	False
141.952	0.5	141.951	0.5	AX	n/a	n/a	dot_pattern_expectancy	-1.0	n/a	cue	AX	s596	False
144.458	0.5	144.842	1.636	AX	1.0	89.0	dot_pattern_expectancy	89.0	0.384	probe	AX	s596	False
146.097	0.5	146.096	0.5	AX	n/a	n/a	dot_pattern_expectancy	-1.0	n/a	cue	AX	s596	False
148.603	0.5	149.073	1.636	AX	1.0	89.0	dot_pattern_expectancy	89.0	0.47	probe	AX	s596	False
150.243	0.5	150.242	0.5	BX	n/a	n/a	dot_pattern_expectancy	-1.0	n/a	cue	BX	s596	False
152.747	0.5	153.174	1.5	BX	1.0	71.0	dot_pattern_expectancy	71.0	0.427	probe	BX	s596	False
154.251	0.5	154.25	0.5	BX	n/a	n/a	dot_pattern_expectancy	-1.0	n/a	cue	BX	s596	False
156.762	0.5	157.127	1.5	BX	1.0	71.0	dot_pattern_expectancy	71.0	0.365	probe	BX	s596	False
158.264	0.5	158.263	0.5	AX	n/a	n/a	dot_pattern_expectancy	-1.0	n/a	cue	AX	s596	False
160.773	0.5	161.202	2.316	AX	1.0	89.0	dot_pattern_expectancy	89.0	0.429	probe	AX	s596	False
163.094	0.5	163.093	0.5	AY	n/a	n/a	dot_pattern_expectancy	-1.0	n/a	cue	AY	s596	False
165.603	0.5	166.168	2.044	AY	1.0	71.0	dot_pattern_expectancy	71.0	0.565	probe	AY	s596	False
167.65	0.5	167.649	0.5	AX	n/a	n/a	dot_pattern_expectancy	-1.0	n/a	cue	AX	s596	False
170.156	0.5	170.583	3.948	AX	1.0	89.0	dot_pattern_expectancy	89.0	0.427	probe	AX	s596	False
174.107	0.5	174.106	0.5	AX	n/a	n/a	dot_pattern_expectancy	-1.0	n/a	cue	AX	s596	False
176.615	0.5	177.094	1.636	AX	1.0	89.0	dot_pattern_expectancy	89.0	0.479	probe	AX	s596	False
188.766	0.5	188.765	0.5	AY	n/a	n/a	dot_pattern_expectancy	-1.0	n/a	cue	AY	s596	False
191.271	0.5	191.873	1.636	AY	1.0	71.0	dot_pattern_expectancy	71.0	0.602	probe	AY	s596	False
192.908	0.5	192.907	0.5	AX	n/a	n/a	dot_pattern_expectancy	-1.0	n/a	cue	AX	s596	False
195.415	0.5	195.867	1.636	AX	1.0	89.0	dot_pattern_expectancy	89.0	0.452	probe	AX	s596	False
197.053	0.5	197.052	0.5	AX	n/a	n/a	dot_pattern_expectancy	-1.0	n/a	cue	AX	s596	False
199.562	0.5	200.001	1.5	AX	1.0	89.0	dot_pattern_expectancy	89.0	0.439	probe	AX	s596	False
201.063	0.5	201.062	0.5	AX	n/a	n/a	dot_pattern_expectancy	-1.0	n/a	cue	AX	s596	False
203.572	0.5	203.993	1.5	AX	1.0	89.0	dot_pattern_expectancy	89.0	0.421	probe	AX	s596	False
205.074	0.5	205.073	0.5	AX	n/a	n/a	dot_pattern_expectancy	-1.0	n/a	cue	AX	s596	False
207.581	0.5	208.021	1.908	AX	1.0	89.0	dot_pattern_expectancy	89.0	0.44	probe	AX	s596	False
209.491	0.5	209.49	0.5	BX	n/a	n/a	dot_pattern_expectancy	-1.0	n/a	cue	BX	s596	False
211.997	0.5	212.338	1.636	BX	1.0	71.0	dot_pattern_expectancy	71.0	0.341	probe	BX	s596	False
213.635	0.5	213.634	0.5	AX	n/a	n/a	dot_pattern_expectancy	-1.0	n/a	cue	AX	s596	False
216.144	0.5	216.614	2.044	AX	1.0	89.0	dot_pattern_expectancy	89.0	0.47	probe	AX	s596	False
218.19	0.5	218.189	0.5	AX	n/a	n/a	dot_pattern_expectancy	-1.0	n/a	cue	AX	s596	False
220.699	0.5	221.138	1.772	AX	1.0	89.0	dot_pattern_expectancy	89.0	0.439	probe	AX	s596	False
222.472	0.5	222.471	0.5	AX	n/a	n/a	dot_pattern_expectancy	-1.0	n/a	cue	AX	s596	False
224.983	0.5	225.429	1.5	AX	1.0	89.0	dot_pattern_expectancy	89.0	0.446	probe	AX	s596	False
226.484	0.5	226.483	0.5	AX	n/a	n/a	dot_pattern_expectancy	-1.0	n/a	cue	AX	s596	False
228.991	0.5	229.425	2.18	AX	1.0	89.0	dot_pattern_expectancy	89.0	0.434	probe	AX	s596	False
231.176	0.5	231.175	0.5	AX	n/a	n/a	dot_pattern_expectancy	-1.0	n/a	cue	AX	s596	False
233.686	0.5	234.127	1.5	AX	1.0	89.0	dot_pattern_expectancy	89.0	0.441	probe	AX	s596	False
235.188	0.5	235.187	0.5	BX	n/a	n/a	dot_pattern_expectancy	-1.0	n/a	cue	BX	s596	False
237.697	0.5	238.129	3.676	BX	1.0	71.0	dot_pattern_expectancy	71.0	0.432	probe	BX	s596	False
241.374	0.5	241.373	0.5	BY	n/a	n/a	dot_pattern_expectancy	-1.0	n/a	cue	BY	s596	False
243.881	0.5	244.417	1.636	BY	1.0	71.0	dot_pattern_expectancy	71.0	0.536	probe	BY	s596	False
245.521	0.5	245.52	0.5	BY	n/a	n/a	dot_pattern_expectancy	-1.0	n/a	cue	BY	s596	False
248.025	0.5	248.616	1.636	BY	1.0	71.0	dot_pattern_expectancy	71.0	0.591	probe	BY	s596	False
249.663	0.5	249.662	0.5	BX	n/a	n/a	dot_pattern_expectancy	-1.0	n/a	cue	BX	s596	False
252.168	0.5	252.627	1.5	BX	1.0	71.0	dot_pattern_expectancy	71.0	0.459	probe	BX	s596	False
253.673	0.5	253.672	0.5	AX	n/a	n/a	dot_pattern_expectancy	-1.0	n/a	cue	AX	s596	False
256.18	0.5	256.6	1.908	AX	1.0	89.0	dot_pattern_expectancy	89.0	0.42	probe	AX	s596	False
258.089	0.5	258.088	0.5	AX	n/a	n/a	dot_pattern_expectancy	-1.0	n/a	cue	AX	s596	False
260.596	0.5	261.04	1.636	AX	1.0	89.0	dot_pattern_expectancy	89.0	0.444	probe	AX	s596	False
262.235	0.5	262.234	0.5	BX	n/a	n/a	dot_pattern_expectancy	-1.0	n/a	cue	BX	s596	False
264.744	0.5	265.156	1.5	BX	1.0	71.0	dot_pattern_expectancy	71.0	0.412	probe	BX	s596	False
266.247	0.5	266.246	0.5	AX	n/a	n/a	dot_pattern_expectancy	-1.0	n/a	cue	AX	s596	False
268.75	0.5	269.281	1.908	AX	1.0	89.0	dot_pattern_expectancy	89.0	0.531	probe	AX	s596	False
270.661	0.5	270.66	0.5	BY	n/a	n/a	dot_pattern_expectancy	-1.0	n/a	cue	BY	s596	False
273.167	0.5	273.605	2.18	BY	1.0	71.0	dot_pattern_expectancy	71.0	0.438	probe	BY	s596	False
275.348	0.5	275.347	0.5	AX	n/a	n/a	dot_pattern_expectancy	-1.0	n/a	cue	AX	s596	False
277.854	0.5	278.478	1.772	AX	1.0	89.0	dot_pattern_expectancy	89.0	0.624	probe	AX	s596	False
279.628	0.5	279.627	0.5	AX	n/a	n/a	dot_pattern_expectancy	-1.0	n/a	cue	AX	s596	False
282.132	0.5	282.646	1.5	AX	1.0	89.0	dot_pattern_expectancy	89.0	0.514	probe	AX	s596	False
283.634	0.5	283.633	0.5	AX	n/a	n/a	dot_pattern_expectancy	-1.0	n/a	cue	AX	s596	False
286.141	0.5	286.654	1.5	AX	1.0	89.0	dot_pattern_expectancy	89.0	0.513	probe	AX	s596	False
287.644	0.5	287.643	0.5	AX	n/a	n/a	dot_pattern_expectancy	-1.0	n/a	cue	AX	s596	False
290.151	0.5	290.614	2.044	AX	1.0	89.0	dot_pattern_expectancy	89.0	0.463	probe	AX	s596	False
292.2	0.5	292.199	0.5	AX	n/a	n/a	dot_pattern_expectancy	-1.0	n/a	cue	AX	s596	False
294.707	0.5	295.187	2.86	AX	1.0	89.0	dot_pattern_expectancy	89.0	0.48	probe	AX	s596	False
297.573	0.5	297.572	0.5	BX	n/a	n/a	dot_pattern_expectancy	-1.0	n/a	cue	BX	s596	False
300.077	0.5	300.536	1.5	BX	1.0	71.0	dot_pattern_expectancy	71.0	0.459	probe	BX	s596	False
301.578	0.5	301.577	0.5	BY	n/a	n/a	dot_pattern_expectancy	-1.0	n/a	cue	BY	s596	False
304.083	0.5	304.507	1.772	BY	1.0	71.0	dot_pattern_expectancy	71.0	0.424	probe	BY	s596	False
305.861	0.5	305.86	0.5	AX	n/a	n/a	dot_pattern_expectancy	-1.0	n/a	cue	AX	s596	False
308.37	0.5	308.819	1.772	AX	1.0	89.0	dot_pattern_expectancy	89.0	0.449	probe	AX	s596	False
310.144	0.5	310.143	0.5	AX	n/a	n/a	dot_pattern_expectancy	-1.0	n/a	cue	AX	s596	False
312.653	0.5	313.149	2.86	AX	1.0	89.0	dot_pattern_expectancy	89.0	0.496	probe	AX	s596	False
315.514	0.5	315.513	0.5	AX	n/a	n/a	dot_pattern_expectancy	-1.0	n/a	cue	AX	s596	False
318.018	0.5	318.663	1.772	AX	1.0	89.0	dot_pattern_expectancy	89.0	0.645	probe	AX	s596	False
319.792	0.5	319.791	0.5	BX	n/a	n/a	dot_pattern_expectancy	-1.0	n/a	cue	BX	s596	False
322.299	0.5	322.634	1.636	BX	1.0	71.0	dot_pattern_expectancy	71.0	0.335	probe	BX	s596	False
323.936	0.5	323.935	0.5	BX	n/a	n/a	dot_pattern_expectancy	-1.0	n/a	cue	BX	s596	False
326.443	0.5	327.072	2.452	BX	1.0	71.0	dot_pattern_expectancy	71.0	0.629	probe	BX	s596	False
328.897	0.5	328.896	0.5	AX	n/a	n/a	dot_pattern_expectancy	-1.0	n/a	cue	AX	s596	False
331.405	0.5	332.158	1.636	AX	1.0	89.0	dot_pattern_expectancy	89.0	0.753	probe	AX	s596	False
333.046	0.5	333.045	0.5	BX	n/a	n/a	dot_pattern_expectancy	-1.0	n/a	cue	BX	s596	False
335.554	0.5	335.895	1.5	BX	1.0	71.0	dot_pattern_expectancy	71.0	0.341	probe	BX	s596	False
337.057	0.5	337.056	0.5	AX	n/a	n/a	dot_pattern_expectancy	-1.0	n/a	cue	AX	s596	False
339.562	0.5	339.994	1.636	AX	1.0	89.0	dot_pattern_expectancy	89.0	0.432	probe	AX	s596	False
341.2	0.5	341.199	0.5	AX	n/a	n/a	dot_pattern_expectancy	-1.0	n/a	cue	AX	s596	False
343.705	0.5	344.239	1.636	AX	1.0	89.0	dot_pattern_expectancy	89.0	0.534	probe	AX	s596	False
345.345	0.5	345.344	0.5	BY	n/a	n/a	dot_pattern_expectancy	-1.0	n/a	cue	BY	s596	False
347.852	0.5	348.431	2.18	BY	1.0	71.0	dot_pattern_expectancy	71.0	0.579	probe	BY	s596	False
350.033	0.5	350.032	0.5	AX	n/a	n/a	dot_pattern_expectancy	-1.0	n/a	cue	AX	s596	False
352.542	0.5	353.312	1.5	AX	1.0	89.0	dot_pattern_expectancy	89.0	0.77	probe	AX	s596	False
354.044	0.5	354.043	0.5	AY	n/a	n/a	dot_pattern_expectancy	-1.0	n/a	cue	AY	s596	False
356.551	0.5	357.145	1.636	AY	1.0	71.0	dot_pattern_expectancy	71.0	0.594	probe	AY	s596	False
358.188	0.5	358.187	0.5	AX	n/a	n/a	dot_pattern_expectancy	-1.0	n/a	cue	AX	s596	False
360.695	0.5	361.164	1.636	AX	1.0	89.0	dot_pattern_expectancy	89.0	0.469	probe	AX	s596	False
372.845	0.5	372.844	0.5	AX	n/a	n/a	dot_pattern_expectancy	-1.0	n/a	cue	AX	s596	False
375.351	0.5	375.785	2.18	AX	1.0	89.0	dot_pattern_expectancy	89.0	0.434	probe	AX	s596	False
377.533	0.5	377.532	0.5	AY	n/a	n/a	dot_pattern_expectancy	-1.0	n/a	cue	AY	s596	False
380.041	0.5	380.689	2.316	AY	1.0	71.0	dot_pattern_expectancy	71.0	0.648	probe	AY	s596	False
382.359	0.5	382.358	0.5	AY	n/a	n/a	dot_pattern_expectancy	-1.0	n/a	cue	AY	s596	False
384.866	0.5	385.737	1.636	AY	1.0	71.0	dot_pattern_expectancy	71.0	0.871	probe	AY	s596	False
386.507	0.5	386.506	0.5	BX	n/a	n/a	dot_pattern_expectancy	-1.0	n/a	cue	BX	s596	False
389.01	0.5	389.369	1.908	BX	1.0	71.0	dot_pattern_expectancy	71.0	0.359	probe	BX	s596	False
390.92	0.5	390.919	0.5	AX	n/a	n/a	dot_pattern_expectancy	-1.0	n/a	cue	AX	s596	False
393.426	0.5	393.902	3.54	AX	1.0	89.0	dot_pattern_expectancy	89.0	0.476	probe	AX	s596	False
396.968	0.5	396.967	0.5	BX	n/a	n/a	dot_pattern_expectancy	-1.0	n/a	cue	BX	s596	False
399.475	0.5	400.236	1.636	BX	1.0	71.0	dot_pattern_expectancy	71.0	0.761	probe	BX	s596	False
401.112	0.5	401.111	0.5	BY	n/a	n/a	dot_pattern_expectancy	-1.0	n/a	cue	BY	s596	False
403.621	0.5	404.328	1.5	BY	1.0	71.0	dot_pattern_expectancy	71.0	0.707	probe	BY	s596	False
405.123	0.5	405.122	0.5	AX	n/a	n/a	dot_pattern_expectancy	-1.0	n/a	cue	AX	s596	False
407.634	0.5	408.121	1.5	AX	1.0	89.0	dot_pattern_expectancy	89.0	0.487	probe	AX	s596	False
409.139	0.5	409.138	0.5	AX	n/a	n/a	dot_pattern_expectancy	-1.0	n/a	cue	AX	s596	False
411.648	0.5	412.155	1.772	AX	1.0	89.0	dot_pattern_expectancy	89.0	0.507	probe	AX	s596	False
413.426	0.5	413.425	0.5	BY	n/a	n/a	dot_pattern_expectancy	-1.0	n/a	cue	BY	s596	False
415.929	0.5	416.542	2.452	BY	1.0	71.0	dot_pattern_expectancy	71.0	0.613	probe	BY	s596	False
418.383	0.5	418.382	0.5	AX	n/a	n/a	dot_pattern_expectancy	-1.0	n/a	cue	AX	s596	False
420.889	0.5	421.444	1.908	AX	1.0	89.0	dot_pattern_expectancy	89.0	0.555	probe	AX	s596	False
422.803	0.5	422.802	0.5	BX	n/a	n/a	dot_pattern_expectancy	-1.0	n/a	cue	BX	s596	False
425.31	0.5	425.994	1.636	BX	1.0	71.0	dot_pattern_expectancy	71.0	0.684	probe	BX	s596	False
426.948	0.5	426.947	0.5	AX	n/a	n/a	dot_pattern_expectancy	-1.0	n/a	cue	AX	s596	False
429.458	0.5	429.886	1.5	AX	1.0	89.0	dot_pattern_expectancy	89.0	0.428	probe	AX	s596	False
430.96	0.5	430.959	0.5	AX	n/a	n/a	dot_pattern_expectancy	-1.0	n/a	cue	AX	s596	False
433.465	0.5	434.058	1.636	AX	1.0	89.0	dot_pattern_expectancy	89.0	0.593	probe	AX	s596	False
435.103	0.5	435.102	0.5	AX	n/a	n/a	dot_pattern_expectancy	-1.0	n/a	cue	AX	s596	False
437.609	0.5	438.378	1.636	AX	1.0	89.0	dot_pattern_expectancy	89.0	0.769	probe	AX	s596	False
439.247	0.5	439.246	0.5	BY	n/a	n/a	dot_pattern_expectancy	-1.0	n/a	cue	BY	s596	False
441.753	0.5	442.085	2.452	BY	1.0	71.0	dot_pattern_expectancy	71.0	0.332	probe	BY	s596	False
444.207	0.5	444.206	0.5	AX	n/a	n/a	dot_pattern_expectancy	-1.0	n/a	cue	AX	s596	False
446.715	0.5	447.123	1.5	AX	1.0	89.0	dot_pattern_expectancy	89.0	0.408	probe	AX	s596	False
448.22	0.5	448.219	0.5	BY	n/a	n/a	dot_pattern_expectancy	-1.0	n/a	cue	BY	s596	False
450.727	0.5	451.226	1.5	BY	1.0	71.0	dot_pattern_expectancy	71.0	0.499	probe	BY	s596	False
452.231	0.5	452.23	0.5	AX	n/a	n/a	dot_pattern_expectancy	-1.0	n/a	cue	AX	s596	False
454.74	0.5	455.189	1.636	AX	1.0	89.0	dot_pattern_expectancy	89.0	0.449	probe	AX	s596	False
456.378	0.5	456.377	0.5	AX	n/a	n/a	dot_pattern_expectancy	-1.0	n/a	cue	AX	s596	False
458.884	0.5	459.442	1.636	AX	1.0	89.0	dot_pattern_expectancy	89.0	0.558	probe	AX	s596	False
460.522	0.5	460.521	0.5	AY	n/a	n/a	dot_pattern_expectancy	-1.0	n/a	cue	AY	s596	False
463.029	0.5	463.781	1.636	AY	1.0	71.0	dot_pattern_expectancy	71.0	0.752	probe	AY	s596	False
464.666	0.5	464.665	0.5	AX	n/a	n/a	dot_pattern_expectancy	-1.0	n/a	cue	AX	s596	False
467.17	0.5	468.012	1.5	AX	1.0	89.0	dot_pattern_expectancy	89.0	0.842	probe	AX	s596	False
468.672	0.5	468.671	0.5	AX	n/a	n/a	dot_pattern_expectancy	-1.0	n/a	cue	AX	s596	False
471.178	0.5	471.719	1.5	AX	1.0	89.0	dot_pattern_expectancy	89.0	0.541	probe	AX	s596	False
472.682	0.5	472.681	0.5	AX	n/a	n/a	dot_pattern_expectancy	-1.0	n/a	cue	AX	s596	False
475.191	0.5	475.813	1.772	AX	1.0	89.0	dot_pattern_expectancy	89.0	0.622	probe	AX	s596	False
476.965	0.5	476.964	0.5	AX	n/a	n/a	dot_pattern_expectancy	-1.0	n/a	cue	AX	s596	False
479.472	0.5	480.001	2.18	AX	1.0	89.0	dot_pattern_expectancy	89.0	0.529	probe	AX	s596	False
481.654	0.5	481.653	0.5	BX	n/a	n/a	dot_pattern_expectancy	-1.0	n/a	cue	BX	s596	False
484.162	0.5	484.7	1.772	BX	1.0	71.0	dot_pattern_expectancy	71.0	0.538	probe	BX	s596	False
485.936	0.5	485.935	0.5	BY	n/a	n/a	dot_pattern_expectancy	-1.0	n/a	cue	BY	s596	False
488.446	0.5	489.027	1.5	BY	1.0	71.0	dot_pattern_expectancy	71.0	0.581	probe	BY	s596	False
489.948	0.5	489.947	0.5	AX	n/a	n/a	dot_pattern_expectancy	-1.0	n/a	cue	AX	s596	False
492.451	0.5	492.993	1.5	AX	1.0	89.0	dot_pattern_expectancy	89.0	0.542	probe	AX	s596	False
493.955	0.5	493.954	0.5	AX	n/a	n/a	dot_pattern_expectancy	-1.0	n/a	cue	AX	s596	False
496.463	0.5	496.915	1.636	AX	1.0	89.0	dot_pattern_expectancy	89.0	0.452	probe	AX	s596	False
498.102	0.5	498.101	0.5	AY	n/a	n/a	dot_pattern_expectancy	-1.0	n/a	cue	AY	s596	False
500.608	0.5	501.576	2.18	AY	1.0	71.0	dot_pattern_expectancy	71.0	0.968	probe	AY	s596	False
502.789	0.5	502.788	0.5	AY	n/a	n/a	dot_pattern_expectancy	-1.0	n/a	cue	AY	s596	False
505.299	0.5	505.969	2.316	AY	1.0	71.0	dot_pattern_expectancy	71.0	0.67	probe	AY	s596	False
507.617	0.5	507.616	0.5	BX	n/a	n/a	dot_pattern_expectancy	-1.0	n/a	cue	BX	s596	False
510.123	0.5	511.623	1.636	BX	1.0	71.0	dot_pattern_expectancy	71.0	1.5	probe	BX	s596	False
511.761	0.5	511.76	0.5	BX	n/a	n/a	dot_pattern_expectancy	-1.0	n/a	cue	BX	s596	False
514.268	0.5	514.879	2.18	BX	1.0	71.0	dot_pattern_expectancy	71.0	0.611	probe	BX	s596	False
516.449	0.5	516.448	0.5	AY	n/a	n/a	dot_pattern_expectancy	-1.0	n/a	cue	AY	s596	False
518.958	0.5	519.537	2.044	AY	1.0	71.0	dot_pattern_expectancy	71.0	0.579	probe	AY	s596	False
521.004	0.5	521.003	0.5	AX	n/a	n/a	dot_pattern_expectancy	-1.0	n/a	cue	AX	s596	False
523.513	0.5	523.92	1.772	AX	1.0	89.0	dot_pattern_expectancy	89.0	0.407	probe	AX	s596	False
525.286	0.5	525.285	0.5	AX	n/a	n/a	dot_pattern_expectancy	-1.0	n/a	cue	AX	s596	False
527.79	0.5	528.373	1.5	AX	1.0	89.0	dot_pattern_expectancy	89.0	0.583	probe	AX	s596	False
529.294	0.5	529.293	0.5	AX	n/a	n/a	dot_pattern_expectancy	-1.0	n/a	cue	AX	s596	False
531.8	0.5	532.185	2.18	AX	1.0	89.0	dot_pattern_expectancy	89.0	0.385	probe	AX	s596	False
533.982	0.5	533.981	0.5	AY	n/a	n/a	dot_pattern_expectancy	-1.0	n/a	cue	AY	s596	False
536.487	0.5	537.304	2.452	AY	1.0	71.0	dot_pattern_expectancy	71.0	0.817	probe	AY	s596	False
538.94	0.5	538.939	0.5	AX	n/a	n/a	dot_pattern_expectancy	-1.0	n/a	cue	AX	s596	False
541.45	0.5	542.034	1.636	AX	1.0	89.0	dot_pattern_expectancy	89.0	0.584	probe	AX	s596	False
543.089	0.5	543.088	0.5	AX	n/a	n/a	dot_pattern_expectancy	-1.0	n/a	cue	AX	s596	False
545.596	0.5	546.233	1.908	AX	1.0	89.0	dot_pattern_expectancy	89.0	0.637	probe	AX	s596	False
558.019	0.5	558.018	0.5	AX	n/a	n/a	dot_pattern_expectancy	-1.0	n/a	cue	AX	s596	False
560.527	0.5	560.958	1.772	AX	1.0	89.0	dot_pattern_expectancy	89.0	0.431	probe	AX	s596	False
562.3	0.5	562.299	0.5	AX	n/a	n/a	dot_pattern_expectancy	-1.0	n/a	cue	AX	s596	False
564.808	0.5	565.203	1.5	AX	1.0	89.0	dot_pattern_expectancy	89.0	0.395	probe	AX	s596	False
566.312	0.5	566.311	0.5	AY	n/a	n/a	dot_pattern_expectancy	-1.0	n/a	cue	AY	s596	False
568.818	0.5	569.523	2.452	AY	1.0	71.0	dot_pattern_expectancy	71.0	0.705	probe	AY	s596	False
571.273	0.5	571.272	0.5	AY	n/a	n/a	dot_pattern_expectancy	-1.0	n/a	cue	AY	s596	False
573.781	0.5	574.289	1.772	AY	1.0	71.0	dot_pattern_expectancy	71.0	0.508	probe	AY	s596	False
575.555	0.5	575.554	0.5	AX	n/a	n/a	dot_pattern_expectancy	-1.0	n/a	cue	AX	s596	False
578.061	0.5	578.5	1.908	AX	1.0	89.0	dot_pattern_expectancy	89.0	0.439	probe	AX	s596	False
579.971	0.5	579.97	0.5	AX	n/a	n/a	dot_pattern_expectancy	-1.0	n/a	cue	AX	s596	False
582.477	0.5	582.987	1.908	AX	1.0	89.0	dot_pattern_expectancy	89.0	0.51	probe	AX	s596	False
584.387	0.5	584.386	0.5	AX	n/a	n/a	dot_pattern_expectancy	-1.0	n/a	cue	AX	s596	False
586.896	0.5	587.306	2.588	AX	1.0	89.0	dot_pattern_expectancy	89.0	0.41	probe	AX	s596	False
589.486	0.5	589.485	0.5	AY	n/a	n/a	dot_pattern_expectancy	-1.0	n/a	cue	AY	s596	False
591.989	0.5	592.829	1.5	AY	1.0	71.0	dot_pattern_expectancy	71.0	0.84	probe	AY	s596	False
593.492	0.5	593.491	0.5	BY	n/a	n/a	dot_pattern_expectancy	-1.0	n/a	cue	BY	s596	False
596.0	0.5	596.375	1.5	BY	1.0	71.0	dot_pattern_expectancy	71.0	0.375	probe	BY	s596	False
597.502	0.5	597.501	0.5	BY	n/a	n/a	dot_pattern_expectancy	-1.0	n/a	cue	BY	s596	False
600.013	0.5	600.585	1.5	BY	1.0	71.0	dot_pattern_expectancy	71.0	0.572	probe	BY	s596	False
601.516	0.5	601.515	0.5	AX	n/a	n/a	dot_pattern_expectancy	-1.0	n/a	cue	AX	s596	False
604.019	0.5	604.434	1.636	AX	1.0	89.0	dot_pattern_expectancy	89.0	0.415	probe	AX	s596	False
605.657	0.5	605.656	0.5	BX	n/a	n/a	dot_pattern_expectancy	-1.0	n/a	cue	BX	s596	False
608.165	0.5	608.51	2.044	BX	1.0	71.0	dot_pattern_expectancy	71.0	0.345	probe	BX	s596	False
610.211	0.5	610.21	0.5	AX	n/a	n/a	dot_pattern_expectancy	-1.0	n/a	cue	AX	s596	False
612.715	0.5	613.435	1.772	AX	1.0	89.0	dot_pattern_expectancy	89.0	0.72	probe	AX	s596	False
614.489	0.5	614.488	0.5	BX	n/a	n/a	dot_pattern_expectancy	-1.0	n/a	cue	BX	s596	False
616.998	0.5	617.445	2.588	BX	1.0	71.0	dot_pattern_expectancy	71.0	0.447	probe	BX	s596	False
619.588	0.5	619.587	0.5	AY	n/a	n/a	dot_pattern_expectancy	-1.0	n/a	cue	AY	s596	False
622.091	0.5	622.81	1.5	AY	1.0	71.0	dot_pattern_expectancy	71.0	0.719	probe	AY	s596	False
623.594	0.5	623.593	0.5	AX	n/a	n/a	dot_pattern_expectancy	-1.0	n/a	cue	AX	s596	False
626.1	0.5	626.766	2.452	AX	1.0	89.0	dot_pattern_expectancy	89.0	0.666	probe	AX	s596	False
628.554	0.5	628.553	0.5	BY	n/a	n/a	dot_pattern_expectancy	-1.0	n/a	cue	BY	s596	False
631.06	0.5	631.714	1.636	BY	1.0	71.0	dot_pattern_expectancy	71.0	0.654	probe	BY	s596	False
632.697	0.5	632.696	0.5	AX	n/a	n/a	dot_pattern_expectancy	-1.0	n/a	cue	AX	s596	False
635.206	0.5	636.06	1.636	AX	1.0	89.0	dot_pattern_expectancy	89.0	0.854	probe	AX	s596	False
636.843	0.5	636.842	0.5	AX	n/a	n/a	dot_pattern_expectancy	-1.0	n/a	cue	AX	s596	False
639.352	0.5	640.085	1.5	AX	1.0	89.0	dot_pattern_expectancy	89.0	0.733	probe	AX	s596	False
640.856	0.5	640.855	0.5	BY	n/a	n/a	dot_pattern_expectancy	-1.0	n/a	cue	BY	s596	False
643.359	0.5	643.98	1.636	BY	1.0	71.0	dot_pattern_expectancy	71.0	0.621	probe	BY	s596	False
644.997	0.5	644.996	0.5	AX	n/a	n/a	dot_pattern_expectancy	-1.0	n/a	cue	AX	s596	False
647.506	0.5	647.93	1.5	AX	1.0	89.0	dot_pattern_expectancy	89.0	0.424	probe	AX	s596	False
649.008	0.5	649.007	0.5	AY	n/a	n/a	dot_pattern_expectancy	-1.0	n/a	cue	AY	s596	False
651.514	0.5	652.263	2.18	AY	1.0	71.0	dot_pattern_expectancy	71.0	0.749	probe	AY	s596	False
653.696	0.5	653.695	0.5	AX	n/a	n/a	dot_pattern_expectancy	-1.0	n/a	cue	AX	s596	False
656.2	0.5	656.785	1.5	AX	1.0	89.0	dot_pattern_expectancy	89.0	0.585	probe	AX	s596	False
657.703	0.5	657.702	0.5	AX	n/a	n/a	dot_pattern_expectancy	-1.0	n/a	cue	AX	s596	False
660.208	0.5	660.806	1.908	AX	1.0	89.0	dot_pattern_expectancy	89.0	0.598	probe	AX	s596	False
662.12	0.5	662.119	0.5	BY	n/a	n/a	dot_pattern_expectancy	-1.0	n/a	cue	BY	s596	False
664.624	0.5	665.264	1.636	BY	1.0	71.0	dot_pattern_expectancy	71.0	0.64	probe	BY	s596	False
666.265	0.5	666.264	0.5	BY	n/a	n/a	dot_pattern_expectancy	-1.0	n/a	cue	BY	s596	False
668.768	0.5	669.288	1.636	BY	1.0	71.0	dot_pattern_expectancy	71.0	0.52	probe	BY	s596	False
670.405	0.5	670.404	0.5	AX	n/a	n/a	dot_pattern_expectancy	-1.0	n/a	cue	AX	s596	False
672.912	0.5	673.879	1.636	AX	1.0	89.0	dot_pattern_expectancy	89.0	0.967	probe	AX	s596	False
674.55	0.5	674.549	0.5	AX	n/a	n/a	dot_pattern_expectancy	-1.0	n/a	cue	AX	s596	False
677.06	0.5	677.67	1.5	AX	1.0	89.0	dot_pattern_expectancy	89.0	0.61	probe	AX	s596	False
678.566	0.5	678.565	0.5	BY	n/a	n/a	dot_pattern_expectancy	-1.0	n/a	cue	BY	s596	False
681.074	0.5	681.946	2.044	BY	1.0	71.0	dot_pattern_expectancy	71.0	0.872	probe	BY	s596	False
683.12	0.5	683.119	0.5	AY	n/a	n/a	dot_pattern_expectancy	-1.0	n/a	cue	AY	s596	False
685.627	0.5	686.203	2.18	AY	0.0	71.0	dot_pattern_expectancy	89.0	0.576	probe	AY	s596	False
687.812	0.5	687.811	0.5	AY	n/a	n/a	dot_pattern_expectancy	-1.0	n/a	cue	AY	s596	False
690.315	0.5	690.937	1.636	AY	1.0	71.0	dot_pattern_expectancy	71.0	0.622	probe	AY	s596	False
691.953	0.5	691.952	0.5	AY	n/a	n/a	dot_pattern_expectancy	-1.0	n/a	cue	AY	s596	False
694.462	0.5	695.087	1.772	AY	1.0	71.0	dot_pattern_expectancy	71.0	0.625	probe	AY	s596	False
696.236	0.5	696.235	0.5	BY	n/a	n/a	dot_pattern_expectancy	-1.0	n/a	cue	BY	s596	False
698.74	0.5	699.471	1.5	BY	1.0	71.0	dot_pattern_expectancy	71.0	0.731	probe	BY	s596	False
700.243	0.5	700.242	0.5	BX	n/a	n/a	dot_pattern_expectancy	-1.0	n/a	cue	BX	s596	False
702.747	0.5	703.026	1.908	BX	1.0	71.0	dot_pattern_expectancy	71.0	0.279	probe	BX	s596	False
704.657	0.5	704.656	0.5	AX	n/a	n/a	dot_pattern_expectancy	-1.0	n/a	cue	AX	s596	False
707.167	0.5	707.768	2.044	AX	1.0	89.0	dot_pattern_expectancy	89.0	0.601	probe	AX	s596	False
709.217	0.5	709.216	0.5	AX	n/a	n/a	dot_pattern_expectancy	-1.0	n/a	cue	AX	s596	False
711.724	0.5	712.402	1.636	AX	1.0	89.0	dot_pattern_expectancy	89.0	0.678	probe	AX	s596	False
713.362	0.5	713.361	0.5	AX	n/a	n/a	dot_pattern_expectancy	-1.0	n/a	cue	AX	s596	False
715.871	0.5	716.822	1.772	AX	1.0	89.0	dot_pattern_expectancy	89.0	0.951	probe	AX	s596	False
717.644	0.5	717.643	0.5	AX	n/a	n/a	dot_pattern_expectancy	-1.0	n/a	cue	AX	s596	False
720.151	0.5	721.274	1.636	AX	1.0	89.0	dot_pattern_expectancy	89.0	1.123	probe	AX	s596	False
721.788	0.5	721.787	0.5	BX	n/a	n/a	dot_pattern_expectancy	-1.0	n/a	cue	BX	s596	False
724.296	0.5	724.656	1.772	BX	1.0	71.0	dot_pattern_expectancy	71.0	0.36	probe	BX	s596	False
726.071	0.5	726.07	0.5	AX	n/a	n/a	dot_pattern_expectancy	-1.0	n/a	cue	AX	s596	False
728.58	0.5	729.502	1.5	AX	1.0	89.0	dot_pattern_expectancy	89.0	0.922	probe	AX	s596	False
