onset	duration	movement_onset	EV	action	block_duration	experiment_exp_id	gain_amount	gain_probability	key_press	loss_amount	loss_probability	num_cards	num_click_in_round	num_loss_cards	risk	response_time	total_cards	trial_id	trial_type	worker_id	junk	feedback
3.011	7.89	10.901	-0.3223260239760241	draw_card	7.89	columbia_card_task_fmri	12.0	0.8333333333333334	89.0	-70.0	0.1666666666666666	6.0	1.0	1.0	-2.6760822653741414	7.89	n/a	stim	poldrack-single-stim	s597	False	1
10.904	1.009	11.913	-3.0556593573093567	draw_card	1.009	columbia_card_task_fmri	12.0	0.8	89.0	-70.0	0.2	6.0	2.0	1.0	-0.4376949576172109	1.009	n/a	stim	poldrack-single-stim	s597	False	1
11.915	0.809	12.724	-7.155659357309358	draw_card	0.809	columbia_card_task_fmri	12.0	0.75	89.0	-70.0	0.25	6.0	3.0	1.0	2.267248676659044	0.809	n/a	stim	poldrack-single-stim	s597	False	1
12.726	0.647	13.373	-13.98899269064269	draw_card	0.647	columbia_card_task_fmri	12.0	0.6666666666666667	89.0	-70.0	0.3333333333333333	6.0	4.0	1.0	5.413307258538545	0.647	n/a	stim	poldrack-single-stim	s597	False	1
13.374	1.504	14.878	-27.65565935730936	end_round	1.504	columbia_card_task_fmri	12.0	0.5	71.0	-70.0	0.5	6.0	5.0	1.0	7.756800768005682	1.504	4.0	stim	poldrack-single-stim	s597	False	1
15.634	1.5	14.883	n/a	-1.0	2.318	columbia_card_task_fmri	n/a	n/a	-1.0	n/a	n/a	n/a	n/a	n/a	n/a	n/a	n/a	ITI	poldrack-single-stim	s597	False	0
17.205	4.577	21.782	0.5110073093573098	draw_card	4.577	columbia_card_task_fmri	14.0	0.8333333333333334	89.0	-75.0	0.1666666666666666	6.0	1.0	1.0	-0.0696588546835812	4.577	n/a	stim	poldrack-single-stim	s597	False	1
21.782	0.66	22.442	-2.455659357309357	draw_card	0.66	columbia_card_task_fmri	14.0	0.8	89.0	-75.0	0.2	6.0	2.0	1.0	2.360140739909376	0.66	n/a	stim	poldrack-single-stim	s597	False	1
22.445	0.728	23.173	-6.905659357309358	draw_card	0.728	columbia_card_task_fmri	14.0	0.75	89.0	-75.0	0.25	6.0	3.0	1.0	5.296337952198854	0.728	n/a	stim	poldrack-single-stim	s597	False	1
23.174	2.817	25.991	-14.322326023976023	draw_card	2.817	columbia_card_task_fmri	14.0	0.6666666666666667	89.0	-75.0	0.3333333333333333	6.0	4.0	1.0	8.711301834934147	2.817	4.0	stim	poldrack-single-stim	s597	False	0
26.743	1.5	25.992	n/a	-1.0	2.318	columbia_card_task_fmri	n/a	n/a	-1.0	n/a	n/a	n/a	n/a	n/a	n/a	n/a	n/a	ITI	poldrack-single-stim	s597	False	0
28.312	2.596	30.908	2.177673976023976	draw_card	2.596	columbia_card_task_fmri	15.0	0.8333333333333334	89.0	-70.0	0.1666666666666666	6.0	1.0	1.0	-1.5590904394091858	2.596	n/a	stim	poldrack-single-stim	s597	False	1
30.91	1.152	32.062	-0.6556593573093581	draw_card	1.152	columbia_card_task_fmri	15.0	0.8	89.0	-70.0	0.2	6.0	2.0	1.0	0.7613338853471205	1.152	2.0	stim	poldrack-single-stim	s597	False	0
32.818	1.5	32.067	n/a	-1.0	2.862	columbia_card_task_fmri	n/a	n/a	-1.0	n/a	n/a	n/a	n/a	n/a	n/a	n/a	n/a	ITI	poldrack-single-stim	s597	False	0
34.933	3.51	38.443	3.0110073093573098	draw_card	3.51	columbia_card_task_fmri	17.0	0.8333333333333334	89.0	-75.0	0.1666666666666666	6.0	1.0	1.0	1.047487812803375	3.51	n/a	stim	poldrack-single-stim	s597	False	1
38.444	0.598	39.042	-0.0556593573093566	draw_card	0.598	columbia_card_task_fmri	17.0	0.8	89.0	-75.0	0.2	6.0	2.0	1.0	3.5593138972416085	0.598	2.0	stim	poldrack-single-stim	s597	False	0
39.797	1.5	39.046	n/a	-1.0	2.726	columbia_card_task_fmri	n/a	n/a	-1.0	n/a	n/a	n/a	n/a	n/a	n/a	n/a	n/a	ITI	poldrack-single-stim	s597	False	0
41.774	2.237	44.011	4.344340642690642	draw_card	2.237	columbia_card_task_fmri	24.0	0.75	89.0	-60.0	0.25	8.0	1.0	2.0	3.132668782370196	2.237	1.0	stim	poldrack-single-stim	s597	False	0
44.763	1.5	44.012	n/a	-1.0	2.25	columbia_card_task_fmri	n/a	n/a	-1.0	n/a	n/a	n/a	n/a	n/a	n/a	n/a	n/a	ITI	poldrack-single-stim	s597	False	0
46.265	2.549	48.814	4.344340642690642	draw_card	2.549	columbia_card_task_fmri	29.0	0.75	89.0	-75.0	0.25	8.0	1.0	2.0	11.788149278456252	2.549	n/a	stim	poldrack-single-stim	s597	False	1
48.816	0.655	49.471	0.6300549284049302	draw_card	0.655	columbia_card_task_fmri	29.0	0.7142857142857143	89.0	-75.0	0.2857142857142857	8.0	2.0	2.0	13.736407329167749	0.655	2.0	stim	poldrack-single-stim	s597	False	0
50.223	1.5	49.472	n/a	-1.0	2.318	columbia_card_task_fmri	n/a	n/a	-1.0	n/a	n/a	n/a	n/a	n/a	n/a	n/a	n/a	ITI	poldrack-single-stim	s597	False	0
51.792	1.723	53.515	0.1221184204684222	draw_card	1.723	columbia_card_task_fmri	17.0	0.7777777777777778	89.0	-65.0	0.2222222222222222	9.0	1.0	2.0	0.8519194825143686	1.723	n/a	stim	poldrack-single-stim	s597	False	1
53.517	0.998	54.515	-2.155659357309358	draw_card	0.998	columbia_card_task_fmri	17.0	0.75	89.0	-65.0	0.25	9.0	2.0	2.0	2.267248676659044	0.998	n/a	stim	poldrack-single-stim	s597	False	1
54.517	2.262	56.779	-5.084230785880785	draw_card	2.262	columbia_card_task_fmri	17.0	0.7142857142857143	89.0	-65.0	0.2857142857142857	9.0	3.0	2.0	3.802976454495728	2.262	n/a	stim	poldrack-single-stim	s597	False	1
56.781	0.991	57.772	-8.98899269064269	draw_card	0.991	columbia_card_task_fmri	17.0	0.6666666666666667	89.0	-65.0	0.3333333333333333	9.0	4.0	2.0	5.413307258538545	0.991	4.0	stim	poldrack-single-stim	s597	False	0
58.524	1.5	57.773	n/a	-1.0	2.454	columbia_card_task_fmri	n/a	n/a	-1.0	n/a	n/a	n/a	n/a	n/a	n/a	n/a	n/a	ITI	poldrack-single-stim	s597	False	0
60.23	1.608	61.838	4.4443406426906416	draw_card	1.608	columbia_card_task_fmri	14.0	0.9	89.0	-95.0	0.1	10.0	1.0	1.0	-0.5376108144895895	1.608	n/a	stim	poldrack-single-stim	s597	False	1
61.84	2.923	64.763	3.2332295315795294	draw_card	2.923	columbia_card_task_fmri	14.0	0.8888888888888888	89.0	-95.0	0.1111111111111111	10.0	2.0	1.0	1.0165311434222062	2.923	n/a	stim	poldrack-single-stim	s597	False	1
64.764	2.692	67.456	1.719340642690642	draw_card	2.692	columbia_card_task_fmri	14.0	0.875	89.0	-95.0	0.125	10.0	3.0	1.0	2.808186981167744	2.692	n/a	stim	poldrack-single-stim	s597	False	1
67.458	3.769	71.227	-0.2270879287379292	draw_card	3.769	columbia_card_task_fmri	14.0	0.8571428571428572	89.0	-95.0	0.1428571428571428	10.0	4.0	1.0	4.90050531076804	3.769	n/a	stim	poldrack-single-stim	s597	False	1
71.229	2.248	73.477	-2.8223260239760224	end_round	2.248	columbia_card_task_fmri	14.0	0.8333333333333334	71.0	-95.0	0.1666666666666666	10.0	5.0	1.0	7.378907332001326	2.248	4.0	stim	poldrack-single-stim	s597	False	1
74.233	1.5	73.482	n/a	-1.0	2.522	columbia_card_task_fmri	n/a	n/a	-1.0	n/a	n/a	n/a	n/a	n/a	n/a	n/a	n/a	ITI	poldrack-single-stim	s597	False	0
76.007	2.073	78.08	0.3443406426906419	draw_card	2.073	columbia_card_task_fmri	15.0	0.8	89.0	-65.0	0.2	10.0	1.0	2.0	-1.2370071067120063	2.073	n/a	stim	poldrack-single-stim	s597	False	1
78.082	1.182	79.264	-1.4334371350871349	draw_card	1.182	columbia_card_task_fmri	15.0	0.7777777777777778	89.0	-65.0	0.2222222222222222	10.0	2.0	2.0	0.0211019358330091	1.182	n/a	stim	poldrack-single-stim	s597	False	1
79.266	1.092	80.358	-3.655659357309358	draw_card	1.092	columbia_card_task_fmri	15.0	0.75	89.0	-65.0	0.25	10.0	3.0	2.0	1.401858802531642	1.092	3.0	stim	poldrack-single-stim	s597	False	0
81.111	1.5	80.36	n/a	-1.0	2.318	columbia_card_task_fmri	n/a	n/a	-1.0	n/a	n/a	n/a	n/a	n/a	n/a	n/a	n/a	ITI	poldrack-single-stim	s597	False	0
82.681	3.963	86.644	1.9443406426906436	draw_card	3.963	columbia_card_task_fmri	17.0	0.8	89.0	-65.0	0.2	10.0	1.0	2.0	-0.4376949576172109	3.963	n/a	stim	poldrack-single-stim	s597	False	1
86.646	0.744	87.39	0.1221184204684222	draw_card	0.744	columbia_card_task_fmri	17.0	0.7777777777777778	89.0	-65.0	0.2222222222222222	10.0	2.0	2.0	0.8519194825143686	0.744	n/a	stim	poldrack-single-stim	s597	False	1
87.391	1.147	88.538	-2.155659357309358	draw_card	1.147	columbia_card_task_fmri	17.0	0.75	89.0	-65.0	0.25	10.0	3.0	2.0	2.267248676659044	1.147	n/a	stim	poldrack-single-stim	s597	False	1
88.54	1.529	90.069	-5.084230785880785	draw_card	1.529	columbia_card_task_fmri	17.0	0.7142857142857143	89.0	-65.0	0.2857142857142857	10.0	4.0	2.0	3.802976454495728	1.529	n/a	stim	poldrack-single-stim	s597	False	1
90.071	2.13	92.201	-8.98899269064269	end_round	2.13	columbia_card_task_fmri	17.0	0.6666666666666667	71.0	-65.0	0.3333333333333333	10.0	5.0	2.0	5.413307258538545	2.13	4.0	stim	poldrack-single-stim	s597	False	1
92.955	1.5	92.204	n/a	-1.0	2.522	columbia_card_task_fmri	n/a	n/a	-1.0	n/a	n/a	n/a	n/a	n/a	n/a	n/a	n/a	ITI	poldrack-single-stim	s597	False	0
94.729	2.806	97.535	0.5110073093573098	draw_card	2.806	columbia_card_task_fmri	13.0	0.8333333333333334	89.0	-70.0	0.1666666666666666	12.0	1.0	2.0	-2.303760015711415	2.806	n/a	stim	poldrack-single-stim	s597	False	1
97.537	1.428	98.965	-0.7465684482184516	draw_card	1.428	columbia_card_task_fmri	13.0	0.8181818181818181	89.0	-70.0	0.1818181818181818	12.0	2.0	2.0	-1.224365795323919	1.428	n/a	stim	poldrack-single-stim	s597	False	1
98.967	1.871	100.838	-2.2556593573093577	draw_card	1.871	columbia_card_task_fmri	13.0	0.8	89.0	-70.0	0.2	12.0	3.0	2.0	-0.0380264675454142	1.871	n/a	stim	poldrack-single-stim	s597	False	1
100.84	1.073	101.913	-4.100103801753803	draw_card	1.073	columbia_card_task_fmri	13.0	0.7777777777777778	89.0	-70.0	0.2222222222222222	12.0	4.0	2.0	1.2673402035855474	1.073	n/a	stim	poldrack-single-stim	s597	False	1
101.915	1.299	103.214	-6.405659357309358	end_round	1.299	columbia_card_task_fmri	13.0	0.75	71.0	-70.0	0.25	12.0	5.0	2.0	2.6999550869624898	1.299	4.0	stim	poldrack-single-stim	s597	False	1
103.967	1.5	103.216	n/a	-1.0	2.998	columbia_card_task_fmri	n/a	n/a	-1.0	n/a	n/a	n/a	n/a	n/a	n/a	n/a	n/a	ITI	poldrack-single-stim	s597	False	0
106.217	2.177	108.394	0.5110073093573098	draw_card	2.177	columbia_card_task_fmri	15.0	0.8333333333333334	89.0	-80.0	0.1666666666666666	12.0	1.0	2.0	2.1646904590985727	2.177	n/a	stim	poldrack-single-stim	s597	False	1
108.396	0.773	109.169	-0.9283866300366332	draw_card	0.773	columbia_card_task_fmri	15.0	0.8181818181818181	89.0	-80.0	0.1818181818181818	12.0	2.0	2.0	3.40040810509678	0.773	n/a	stim	poldrack-single-stim	s597	False	1
109.171	1.456	110.627	-2.655659357309358	draw_card	1.456	columbia_card_task_fmri	15.0	0.8	89.0	-80.0	0.2	12.0	3.0	2.0	4.758539225623167	1.456	3.0	stim	poldrack-single-stim	s597	False	0
111.383	1.5	110.632	n/a	-1.0	2.318	columbia_card_task_fmri	n/a	n/a	-1.0	n/a	n/a	n/a	n/a	n/a	n/a	n/a	n/a	ITI	poldrack-single-stim	s597	False	0
112.953	1.957	114.91	-0.455659357309357	draw_card	1.957	columbia_card_task_fmri	14.0	0.8	89.0	-65.0	0.2	15.0	1.0	3.0	-1.636650138208967	1.957	1.0	stim	poldrack-single-stim	s597	False	0
115.664	1.5	114.913	n/a	-1.0	2.25	columbia_card_task_fmri	n/a	n/a	-1.0	n/a	n/a	n/a	n/a	n/a	n/a	n/a	n/a	ITI	poldrack-single-stim	s597	False	0
117.166	4.637	121.803	-0.5306593573093581	end_round	4.637	columbia_card_task_fmri	1.0	0.9375	71.0	-45.0	0.0625	16.0	1.0	1.0	-22.04954632901392	4.637	0.0	stim	poldrack-single-stim	s597	False	1
122.558	1.5	121.807	n/a	-1.0	2.454	columbia_card_task_fmri	n/a	n/a	-1.0	n/a	n/a	n/a	n/a	n/a	n/a	n/a	n/a	ITI	poldrack-single-stim	s597	False	0
124.264	2.204	126.468	0.4068406426906419	draw_card	2.204	columbia_card_task_fmri	15.0	0.8125	89.0	-70.0	0.1875	16.0	1.0	3.0	-0.0614553881250117	2.204	n/a	stim	poldrack-single-stim	s597	False	1
126.47	1.854	128.324	-0.6556593573093581	draw_card	1.854	columbia_card_task_fmri	15.0	0.8	89.0	-70.0	0.2	16.0	2.0	3.0	0.7613338853471205	1.854	n/a	stim	poldrack-single-stim	s597	False	1
128.326	1.802	130.128	-1.8699450715950732	draw_card	1.802	columbia_card_task_fmri	15.0	0.7857142857142857	89.0	-70.0	0.2142857142857142	16.0	3.0	3.0	1.6383676121628523	1.802	n/a	stim	poldrack-single-stim	s597	False	1
130.13	3.93	134.06	-3.271043972693975	draw_card	3.93	columbia_card_task_fmri	15.0	0.7692307692307692	89.0	-70.0	0.2307692307692307	16.0	4.0	3.0	2.5726189560036303	3.93	4.0	stim	poldrack-single-stim	s597	False	0
134.813	1.5	134.062	n/a	-1.0	2.318	columbia_card_task_fmri	n/a	n/a	-1.0	n/a	n/a	n/a	n/a	n/a	n/a	n/a	n/a	ITI	poldrack-single-stim	s597	False	0
136.383	2.583	138.966	7.344340642690642	draw_card	2.583	columbia_card_task_fmri	30.0	0.7	89.0	-50.0	0.3	10.0	1.0	3.0	3.4200127287392093	2.583	n/a	stim	poldrack-single-stim	s597	False	1
138.968	2.283	141.251	4.677673976023981	draw_card	2.283	columbia_card_task_fmri	30.0	0.6666666666666667	89.0	-50.0	0.3333333333333333	10.0	2.0	3.0	4.471082088643399	2.283	n/a	stim	poldrack-single-stim	s597	False	1
141.254	1.343	142.597	1.344340642690642	draw_card	1.343	columbia_card_task_fmri	30.0	0.625	89.0	-50.0	0.375	10.0	3.0	3.0	5.4879249914989	1.343	3.0	stim	poldrack-single-stim	s597	False	0
143.354	1.5	142.603	n/a	-1.0	2.318	columbia_card_task_fmri	n/a	n/a	-1.0	n/a	n/a	n/a	n/a	n/a	n/a	n/a	n/a	ITI	poldrack-single-stim	s597	False	0
144.924	2.371	147.295	6.744340642690642	draw_card	2.371	columbia_card_task_fmri	17.0	0.8666666666666667	89.0	-70.0	0.1333333333333333	15.0	1.0	2.0	-3.6603811389959935	2.371	n/a	stim	poldrack-single-stim	s597	False	1
147.297	1.484	148.781	5.915769214119215	draw_card	1.484	columbia_card_task_fmri	17.0	0.8571428571428572	89.0	-70.0	0.1428571428571428	15.0	2.0	2.0	-2.7919072822552806	1.484	n/a	stim	poldrack-single-stim	s597	False	1
148.783	1.406	150.189	4.959725258075257	draw_card	1.406	columbia_card_task_fmri	17.0	0.8461538461538461	89.0	-70.0	0.1538461538461538	15.0	3.0	2.0	-1.8467533534797165	1.406	n/a	stim	poldrack-single-stim	s597	False	1
150.192	0.928	151.12	3.844340642690644	draw_card	0.928	columbia_card_task_fmri	17.0	0.8333333333333334	89.0	-70.0	0.1666666666666666	15.0	4.0	2.0	-0.8143893453383058	0.928	n/a	stim	poldrack-single-stim	s597	False	1
151.122	1.474	152.596	2.526158824508822	draw_card	1.474	columbia_card_task_fmri	17.0	0.8181818181818181	89.0	-70.0	0.1818181818181818	15.0	5.0	2.0	0.3171164729378048	1.474	n/a	stim	poldrack-single-stim	s597	False	1
152.598	2.416	155.014	0.9443406426906432	end_round	2.416	columbia_card_task_fmri	17.0	0.8	71.0	-70.0	0.2	15.0	6.0	2.0	1.560723613646843	2.416	5.0	stim	poldrack-single-stim	s597	False	1
155.767	1.5	155.016	n/a	-1.0	2.59	columbia_card_task_fmri	n/a	n/a	-1.0	n/a	n/a	n/a	n/a	n/a	n/a	n/a	n/a	ITI	poldrack-single-stim	s597	False	0
157.61	4.492	162.102	1.969340642690642	end_round	4.492	columbia_card_task_fmri	7.0	0.9375	71.0	-95.0	0.0625	16.0	1.0	1.0	-8.538392757240459	4.492	0.0	stim	poldrack-single-stim	s597	False	1
162.859	1.5	162.108	n/a	-1.0	2.25	columbia_card_task_fmri	n/a	n/a	-1.0	n/a	n/a	n/a	n/a	n/a	n/a	n/a	n/a	ITI	poldrack-single-stim	s597	False	0
164.361	2.039	166.4	3.531840642690642	end_round	2.039	columbia_card_task_fmri	9.0	0.9375	71.0	-100.0	0.0625	16.0	1.0	1.0	-6.84630801709589	2.039	0.0	stim	poldrack-single-stim	s597	False	1
167.153	1.5	166.402	n/a	-1.0	2.25	columbia_card_task_fmri	n/a	n/a	-1.0	n/a	n/a	n/a	n/a	n/a	n/a	n/a	n/a	ITI	poldrack-single-stim	s597	False	0
168.655	2.363	171.018	4.469340642690642	draw_card	2.363	columbia_card_task_fmri	15.0	0.875	89.0	-80.0	0.125	16.0	1.0	2.0	-1.818188165338132	2.363	n/a	stim	poldrack-single-stim	s597	False	1
171.02	1.411	172.431	3.677673976023976	draw_card	1.411	columbia_card_task_fmri	15.0	0.8666666666666667	89.0	-80.0	0.1333333333333333	16.0	2.0	2.0	-0.9434734133114872	1.411	n/a	stim	poldrack-single-stim	s597	False	1
172.433	1.591	174.024	2.7729120712620725	draw_card	1.591	columbia_card_task_fmri	15.0	0.8571428571428572	89.0	-80.0	0.1428571428571428	16.0	3.0	2.0	0.0050133887713315	1.591	n/a	stim	poldrack-single-stim	s597	False	1
174.027	1.824	175.851	1.7289560273060252	draw_card	1.824	columbia_card_task_fmri	15.0	0.8461538461538461	89.0	-80.0	0.1538461538461538	16.0	4.0	2.0	1.0372352060500774	1.824	n/a	stim	poldrack-single-stim	s597	False	1
175.853	2.598	178.451	0.5110073093573098	draw_card	2.598	columbia_card_task_fmri	15.0	0.8333333333333334	89.0	-80.0	0.1666666666666666	16.0	5.0	2.0	2.1646904590985727	2.598	n/a	stim	poldrack-single-stim	s597	False	1
178.453	1.262	179.715	-0.9283866300366332	end_round	1.262	columbia_card_task_fmri	15.0	0.8181818181818181	71.0	-80.0	0.1818181818181818	16.0	6.0	2.0	3.40040810509678	1.262	5.0	stim	poldrack-single-stim	s597	False	1
180.469	1.5	179.718	n/a	-1.0	2.522	columbia_card_task_fmri	n/a	n/a	-1.0	n/a	n/a	n/a	n/a	n/a	n/a	n/a	n/a	ITI	poldrack-single-stim	s597	False	0
182.243	1.828	184.071	6.594340642690642	draw_card	1.828	columbia_card_task_fmri	16.0	0.875	89.0	-70.0	0.125	16.0	1.0	2.0	-4.7916530768934	1.828	n/a	stim	poldrack-single-stim	s597	False	1
184.073	0.908	184.981	5.877673976023975	draw_card	0.908	columbia_card_task_fmri	16.0	0.8666666666666667	89.0	-70.0	0.1333333333333333	16.0	2.0	2.0	-3.99996104536865	0.908	n/a	stim	poldrack-single-stim	s597	False	1
184.983	1.292	186.275	5.058626356976357	draw_card	1.292	columbia_card_task_fmri	16.0	0.8571428571428572	89.0	-70.0	0.1428571428571428	16.0	3.0	2.0	-3.1414897597025373	1.292	n/a	stim	poldrack-single-stim	s597	False	1
186.278	1.11	187.388	4.11357141192141	draw_card	1.11	columbia_card_task_fmri	16.0	0.8461538461538461	89.0	-70.0	0.1538461538461538	16.0	4.0	2.0	-2.2072202944852712	1.11	n/a	stim	poldrack-single-stim	s597	False	1
187.39	1.837	189.227	3.0110073093573098	draw_card	1.837	columbia_card_task_fmri	16.0	0.8333333333333334	89.0	-70.0	0.1666666666666666	16.0	5.0	2.0	-1.1867436949062622	1.837	n/a	stim	poldrack-single-stim	s597	False	1
189.229	1.766	190.995	1.7079770063270034	end_round	1.766	columbia_card_task_fmri	16.0	0.8181818181818181	71.0	-70.0	0.1818181818181818	16.0	6.0	2.0	-0.0682653838595115	1.766	5.0	stim	poldrack-single-stim	s597	False	1
191.749	1.5	190.998	n/a	-1.0	2.454	columbia_card_task_fmri	n/a	n/a	-1.0	n/a	n/a	n/a	n/a	n/a	n/a	n/a	n/a	ITI	poldrack-single-stim	s597	False	0
193.455	4.024	197.479	7.906840642690642	draw_card	4.024	columbia_card_task_fmri	30.0	0.6875	89.0	-45.0	0.3125	16.0	1.0	5.0	1.5241813066997736	4.024	1.0	stim	poldrack-single-stim	s597	False	0
198.235	1.5	197.484	n/a	-1.0	2.25	columbia_card_task_fmri	n/a	n/a	-1.0	n/a	n/a	n/a	n/a	n/a	n/a	n/a	n/a	ITI	poldrack-single-stim	s597	False	0
199.737	2.113	201.85	-0.3223260239760241	draw_card	2.113	columbia_card_task_fmri	13.0	0.8333333333333334	89.0	-75.0	0.1666666666666666	6.0	1.0	1.0	-0.4420276495263877	2.113	n/a	stim	poldrack-single-stim	s597	False	1
201.852	4.085	205.937	-3.2556593573093577	end_round	4.085	columbia_card_task_fmri	13.0	0.8	71.0	-75.0	0.2	6.0	2.0	1.0	1.9604288686138889	4.085	1.0	stim	poldrack-single-stim	s597	False	1
206.689	1.5	205.938	n/a	-1.0	2.454	columbia_card_task_fmri	n/a	n/a	-1.0	n/a	n/a	n/a	n/a	n/a	n/a	n/a	n/a	ITI	poldrack-single-stim	s597	False	0
208.396	3.309	211.705	1.3443406426906437	draw_card	3.309	columbia_card_task_fmri	14.0	0.8333333333333334	89.0	-70.0	0.1666666666666666	6.0	1.0	1.0	-1.9314293077289195	3.309	n/a	stim	poldrack-single-stim	s597	False	1
211.707	1.657	213.364	-1.455659357309357	draw_card	1.657	columbia_card_task_fmri	14.0	0.8	89.0	-70.0	0.2	6.0	2.0	1.0	0.3616499060425511	1.657	n/a	stim	poldrack-single-stim	s597	False	1
213.366	1.092	214.458	-5.655659357309358	end_round	1.092	columbia_card_task_fmri	14.0	0.75	71.0	-70.0	0.25	6.0	3.0	1.0	3.132668782370196	1.092	2.0	stim	poldrack-single-stim	s597	False	1
215.21	1.5	214.459	n/a	-1.0	2.454	columbia_card_task_fmri	n/a	n/a	-1.0	n/a	n/a	n/a	n/a	n/a	n/a	n/a	n/a	ITI	poldrack-single-stim	s597	False	0
216.917	2.011	218.928	1.3443406426906437	draw_card	2.011	columbia_card_task_fmri	16.0	0.8333333333333334	89.0	-80.0	0.1666666666666666	6.0	1.0	1.0	2.5371028751893547	2.011	1.0	stim	poldrack-single-stim	s597	False	0
219.68	1.5	218.929	n/a	-1.0	2.522	columbia_card_task_fmri	n/a	n/a	-1.0	n/a	n/a	n/a	n/a	n/a	n/a	n/a	n/a	ITI	poldrack-single-stim	s597	False	0
221.455	3.328	224.783	3.844340642690644	draw_card	3.328	columbia_card_task_fmri	17.0	0.8333333333333334	89.0	-70.0	0.1666666666666666	6.0	1.0	1.0	-0.8143893453383058	3.328	1.0	stim	poldrack-single-stim	s597	False	0
225.539	1.5	224.788	n/a	-1.0	2.454	columbia_card_task_fmri	n/a	n/a	-1.0	n/a	n/a	n/a	n/a	n/a	n/a	n/a	n/a	ITI	poldrack-single-stim	s597	False	0
227.246	2.561	229.807	3.844340642690642	draw_card	2.561	columbia_card_task_fmri	25.0	0.75	89.0	-65.0	0.25	8.0	1.0	2.0	5.729090360329607	2.561	n/a	stim	poldrack-single-stim	s597	False	1
229.809	1.392	231.201	0.6300549284049302	draw_card	1.392	columbia_card_task_fmri	25.0	0.7142857142857143	89.0	-65.0	0.2857142857142857	8.0	2.0	2.0	7.414841716385276	1.392	n/a	stim	poldrack-single-stim	s597	False	1
231.203	2.497	233.7	-3.6556593573093545	draw_card	2.497	columbia_card_task_fmri	25.0	0.6666666666666667	89.0	-65.0	0.3333333333333333	8.0	3.0	2.0	9.18246722695254	2.497	n/a	stim	poldrack-single-stim	s597	False	1
233.702	1.057	234.759	-9.655659357309355	end_round	1.057	columbia_card_task_fmri	25.0	0.6	71.0	-65.0	0.4	8.0	4.0	2.0	10.846072293163957	1.057	3.0	stim	poldrack-single-stim	s597	False	1
235.513	1.5	234.762	n/a	-1.0	2.658	columbia_card_task_fmri	n/a	n/a	-1.0	n/a	n/a	n/a	n/a	n/a	n/a	n/a	n/a	ITI	poldrack-single-stim	s597	False	0
237.424	1.747	239.171	3.844340642690642	draw_card	1.747	columbia_card_task_fmri	30.0	0.75	89.0	-80.0	0.25	8.0	1.0	2.0	14.385131688002469	1.747	n/a	stim	poldrack-single-stim	s597	False	1
239.173	2.049	241.222	-0.0842307858807815	draw_card	2.049	columbia_card_task_fmri	30.0	0.7142857142857143	89.0	-80.0	0.2857142857142857	8.0	2.0	2.0	16.44588255917146	2.049	n/a	stim	poldrack-single-stim	s597	False	1
241.224	1.371	242.595	-5.322326023976019	draw_card	1.371	columbia_card_task_fmri	30.0	0.6666666666666667	89.0	-80.0	0.3333333333333333	8.0	3.0	2.0	18.606687574298743	1.371	n/a	stim	poldrack-single-stim	s597	False	1
242.598	1.208	243.806	-12.655659357309355	end_round	1.208	columbia_card_task_fmri	30.0	0.6	71.0	-80.0	0.4	8.0	4.0	2.0	20.640307117053915	1.208	3.0	stim	poldrack-single-stim	s597	False	1
244.56	1.5	243.809	n/a	-1.0	2.386	columbia_card_task_fmri	n/a	n/a	-1.0	n/a	n/a	n/a	n/a	n/a	n/a	n/a	n/a	ITI	poldrack-single-stim	s597	False	0
246.199	6.374	252.573	3.544340642690643	end_round	6.374	columbia_card_task_fmri	13.0	0.9	71.0	-95.0	0.1	10.0	1.0	1.0	-0.8373552726835598	6.374	0.0	stim	poldrack-single-stim	s597	False	1
253.329	1.5	252.578	n/a	-1.0	2.522	columbia_card_task_fmri	n/a	n/a	-1.0	n/a	n/a	n/a	n/a	n/a	n/a	n/a	n/a	ITI	poldrack-single-stim	s597	False	0
255.103	1.871	256.974	4.9443406426906416	end_round	1.871	columbia_card_task_fmri	14.0	0.9	71.0	-90.0	0.1	10.0	1.0	1.0	-2.0362840292312256	1.871	0.0	stim	poldrack-single-stim	s597	False	1
257.73	1.5	256.979	n/a	-1.0	2.59	columbia_card_task_fmri	n/a	n/a	-1.0	n/a	n/a	n/a	n/a	n/a	n/a	n/a	n/a	ITI	poldrack-single-stim	s597	False	0
259.572	2.054	261.626	0.1443406426906426	draw_card	2.054	columbia_card_task_fmri	16.0	0.8	89.0	-70.0	0.2	10.0	1.0	2.0	1.1610252054644192	2.054	n/a	stim	poldrack-single-stim	s597	False	1
261.629	0.883	262.512	-1.7667704684204688	draw_card	0.883	columbia_card_task_fmri	16.0	0.7777777777777778	89.0	-70.0	0.2222222222222222	10.0	2.0	2.0	2.5136468283659	0.883	n/a	stim	poldrack-single-stim	s597	False	1
262.514	1.202	263.716	-4.155659357309358	draw_card	1.202	columbia_card_task_fmri	16.0	0.75	89.0	-70.0	0.25	10.0	3.0	2.0	3.998117013331132	1.202	n/a	stim	poldrack-single-stim	s597	False	1
263.718	1.784	265.502	-7.227087928737929	draw_card	1.784	columbia_card_task_fmri	16.0	0.7142857142857143	89.0	-70.0	0.2857142857142857	10.0	4.0	2.0	5.608858750471491	1.784	n/a	stim	poldrack-single-stim	s597	False	1
265.505	1.005	266.51	-11.322326023976022	end_round	1.005	columbia_card_task_fmri	16.0	0.6666666666666667	71.0	-70.0	0.3333333333333333	10.0	5.0	2.0	7.297838998909896	1.005	4.0	stim	poldrack-single-stim	s597	False	1
267.267	1.5	266.516	n/a	-1.0	2.386	columbia_card_task_fmri	n/a	n/a	-1.0	n/a	n/a	n/a	n/a	n/a	n/a	n/a	n/a	ITI	poldrack-single-stim	s597	False	0
268.906	3.46	272.366	-0.5723260239760242	end_round	3.46	columbia_card_task_fmri	7.0	0.9166666666666666	71.0	-100.0	0.0833333333333333	12.0	1.0	1.0	-3.6614554944043576	3.46	0.0	stim	poldrack-single-stim	s597	False	1
273.122	1.5	272.371	n/a	-1.0	2.59	columbia_card_task_fmri	n/a	n/a	-1.0	n/a	n/a	n/a	n/a	n/a	n/a	n/a	n/a	ITI	poldrack-single-stim	s597	False	0
274.964	3.592	278.556	-0.3223260239760224	draw_card	3.592	columbia_card_task_fmri	14.0	0.8333333333333334	89.0	-80.0	0.1666666666666666	12.0	1.0	2.0	1.792283687481934	3.592	n/a	stim	poldrack-single-stim	s597	False	1
278.559	0.755	279.314	-1.7465684482184516	draw_card	0.755	columbia_card_task_fmri	14.0	0.8181818181818181	89.0	-80.0	0.1818181818181818	12.0	2.0	2.0	3.01497558736974	0.755	n/a	stim	poldrack-single-stim	s597	False	1
279.317	1.04	280.357	-3.455659357309357	end_round	1.04	columbia_card_task_fmri	14.0	0.8	71.0	-80.0	0.2	12.0	3.0	2.0	4.358791960651978	1.04	2.0	stim	poldrack-single-stim	s597	False	1
281.111	1.5	280.36	n/a	-1.0	2.318	columbia_card_task_fmri	n/a	n/a	-1.0	n/a	n/a	n/a	n/a	n/a	n/a	n/a	n/a	ITI	poldrack-single-stim	s597	False	0
282.682	3.397	286.079	1.344340642690642	draw_card	3.397	columbia_card_task_fmri	15.0	0.8333333333333334	89.0	-75.0	0.1666666666666666	12.0	1.0	2.0	0.3027168029417666	3.397	n/a	stim	poldrack-single-stim	s597	False	1
286.082	0.644	286.726	-0.0192957209457231	draw_card	0.644	columbia_card_task_fmri	15.0	0.8181818181818181	89.0	-75.0	0.1818181818181818	12.0	2.0	2.0	1.473303695373474	0.644	n/a	stim	poldrack-single-stim	s597	False	1
286.729	0.952	287.681	-1.655659357309358	draw_card	0.952	columbia_card_task_fmri	15.0	0.8	89.0	-75.0	0.2	12.0	3.0	2.0	2.759859007301408	0.952	n/a	stim	poldrack-single-stim	s597	False	1
287.684	1.115	288.799	-3.655659357309356	draw_card	1.115	columbia_card_task_fmri	15.0	0.7777777777777778	89.0	-75.0	0.2222222222222222	12.0	4.0	2.0	4.17548352930401	1.115	n/a	stim	poldrack-single-stim	s597	False	1
288.802	1.717	290.519	-6.155659357309358	draw_card	1.717	columbia_card_task_fmri	15.0	0.75	89.0	-75.0	0.25	12.0	5.0	2.0	5.729090360329607	1.717	n/a	stim	poldrack-single-stim	s597	False	1
290.522	1.357	291.879	-9.369945071595067	end_round	1.357	columbia_card_task_fmri	15.0	0.7142857142857143	71.0	-75.0	0.2857142857142857	12.0	6.0	2.0	7.414841716385276	1.357	5.0	stim	poldrack-single-stim	s597	False	1
292.635	1.5	291.884	n/a	-1.0	2.25	columbia_card_task_fmri	n/a	n/a	-1.0	n/a	n/a	n/a	n/a	n/a	n/a	n/a	n/a	ITI	poldrack-single-stim	s597	False	0
294.138	2.452	296.59	0.3443406426906419	draw_card	2.452	columbia_card_task_fmri	15.0	0.8	89.0	-65.0	0.2	15.0	1.0	3.0	-1.2370071067120063	2.452	n/a	stim	poldrack-single-stim	s597	False	1
296.593	0.778	297.371	-0.7985165001665004	draw_card	0.778	columbia_card_task_fmri	15.0	0.7857142857142857	89.0	-65.0	0.2142857142857142	15.0	2.0	3.0	-0.4116445455561432	0.778	2.0	stim	poldrack-single-stim	s597	False	0
298.124	1.5	297.373	n/a	-1.0	2.454	columbia_card_task_fmri	n/a	n/a	-1.0	n/a	n/a	n/a	n/a	n/a	n/a	n/a	n/a	ITI	poldrack-single-stim	s597	False	0
299.831	2.534	302.365	-0.4056593573093581	draw_card	2.534	columbia_card_task_fmri	14.0	0.8125	89.0	-70.0	0.1875	16.0	1.0	3.0	-0.4514439179207414	2.534	n/a	stim	poldrack-single-stim	s597	False	1
302.368	0.884	303.252	-1.455659357309357	draw_card	0.884	columbia_card_task_fmri	14.0	0.8	89.0	-70.0	0.2	16.0	2.0	3.0	0.3616499060425511	0.884	n/a	stim	poldrack-single-stim	s597	False	1
303.255	1.115	304.37	-2.655659357309358	draw_card	1.115	columbia_card_task_fmri	14.0	0.7857142857142857	89.0	-70.0	0.2142857142857142	16.0	3.0	3.0	1.2283497949741573	1.115	3.0	stim	poldrack-single-stim	s597	False	0
305.124	1.5	304.373	n/a	-1.0	3.27	columbia_card_task_fmri	n/a	n/a	-1.0	n/a	n/a	n/a	n/a	n/a	n/a	n/a	n/a	ITI	poldrack-single-stim	s597	False	0
307.648	5.676	313.324	-0.4681593573093581	draw_card	5.676	columbia_card_task_fmri	11.0	0.6875	89.0	-30.0	0.3125	16.0	1.0	5.0	-14.213734456120624	5.676	1.0	stim	poldrack-single-stim	s597	False	0
314.081	1.5	313.33	n/a	-1.0	2.25	columbia_card_task_fmri	n/a	n/a	-1.0	n/a	n/a	n/a	n/a	n/a	n/a	n/a	n/a	ITI	poldrack-single-stim	s597	False	0
315.584	2.545	318.129	4.344340642690642	draw_card	2.545	columbia_card_task_fmri	15.0	0.8666666666666667	89.0	-75.0	0.1333333333333333	15.0	1.0	2.0	-2.6415941930417013	2.545	n/a	stim	poldrack-single-stim	s597	False	1
318.132	0.991	319.123	3.487197785547786	draw_card	0.991	columbia_card_task_fmri	15.0	0.8571428571428572	89.0	-75.0	0.1428571428571428	15.0	2.0	2.0	-1.7431139638049196	0.991	n/a	stim	poldrack-single-stim	s597	False	1
319.126	1.586	320.712	2.498186796536795	draw_card	1.586	columbia_card_task_fmri	15.0	0.8461538461538461	89.0	-75.0	0.1538461538461538	15.0	3.0	2.0	-0.7653080197017701	1.586	3.0	stim	poldrack-single-stim	s597	False	0
321.467	1.5	320.716	n/a	-1.0	2.25	columbia_card_task_fmri	n/a	n/a	-1.0	n/a	n/a	n/a	n/a	n/a	n/a	n/a	n/a	ITI	poldrack-single-stim	s597	False	0
322.97	2.463	325.433	6.077673976023976	draw_card	2.463	columbia_card_task_fmri	17.0	0.8666666666666667	89.0	-75.0	0.1333333333333333	15.0	1.0	2.0	-1.9623661018073195	2.463	n/a	stim	poldrack-single-stim	s597	False	1
325.436	0.718	326.154	5.201483499833501	draw_card	0.718	columbia_card_task_fmri	17.0	0.8571428571428572	89.0	-75.0	0.1428571428571428	15.0	2.0	2.0	-1.0438826690548453	0.718	2.0	stim	poldrack-single-stim	s597	False	0
326.909	1.5	326.158	n/a	-1.0	2.318	columbia_card_task_fmri	n/a	n/a	-1.0	n/a	n/a	n/a	n/a	n/a	n/a	n/a	n/a	ITI	poldrack-single-stim	s597	False	0
328.479	2.161	330.64	1.656840642690642	draw_card	2.161	columbia_card_task_fmri	2.0	0.9375	89.0	-25.0	0.0625	16.0	1.0	1.0	-26.592745011795717	2.161	n/a	stim	poldrack-single-stim	s597	False	1
330.643	1.273	331.916	1.544340642690642	end_round	1.273	columbia_card_task_fmri	2.0	0.9333333333333332	71.0	-25.0	0.0666666666666666	16.0	2.0	1.0	-26.397391110760893	1.273	1.0	stim	poldrack-single-stim	s597	False	1
332.673	1.5	331.922	n/a	-1.0	2.726	columbia_card_task_fmri	n/a	n/a	-1.0	n/a	n/a	n/a	n/a	n/a	n/a	n/a	n/a	ITI	poldrack-single-stim	s597	False	0
334.652	4.352	339.004	3.844340642690642	draw_card	4.352	columbia_card_task_fmri	9.0	0.9375	89.0	-95.0	0.0625	16.0	1.0	1.0	-8.054972124261955	4.352	n/a	stim	poldrack-single-stim	s597	False	1
339.007	0.759	339.766	3.411007309357309	end_round	0.759	columbia_card_task_fmri	9.0	0.9333333333333332	71.0	-95.0	0.0666666666666666	16.0	2.0	1.0	-7.288266105676413	0.759	1.0	stim	poldrack-single-stim	s597	False	1
340.519	1.5	339.768	n/a	-1.0	2.386	columbia_card_task_fmri	n/a	n/a	-1.0	n/a	n/a	n/a	n/a	n/a	n/a	n/a	n/a	ITI	poldrack-single-stim	s597	False	0
342.158	2.791	344.949	5.406840642690642	draw_card	2.791	columbia_card_task_fmri	11.0	0.9375	89.0	-100.0	0.0625	16.0	1.0	1.0	-6.362801004283771	2.791	n/a	stim	poldrack-single-stim	s597	False	1
344.952	0.603	345.555	4.944340642690642	end_round	0.603	columbia_card_task_fmri	11.0	0.9333333333333332	71.0	-100.0	0.0666666666666666	16.0	2.0	1.0	-5.544351816531076	0.603	1.0	stim	poldrack-single-stim	s597	False	1
346.31	1.5	345.559	n/a	-1.0	2.318	columbia_card_task_fmri	n/a	n/a	-1.0	n/a	n/a	n/a	n/a	n/a	n/a	n/a	n/a	ITI	poldrack-single-stim	s597	False	0
347.881	2.381	350.262	5.969340642690642	draw_card	2.381	columbia_card_task_fmri	16.0	0.875	89.0	-75.0	0.125	16.0	1.0	2.0	-3.139801405643489	2.381	n/a	stim	poldrack-single-stim	s597	False	1
350.265	0.991	351.256	5.211007309357309	draw_card	0.991	columbia_card_task_fmri	16.0	0.8666666666666667	89.0	-75.0	0.1333333333333333	16.0	2.0	2.0	-2.3019836653944843	0.991	n/a	stim	poldrack-single-stim	s597	False	1
351.259	1.286	352.545	4.344340642690644	draw_card	1.286	columbia_card_task_fmri	16.0	0.8571428571428572	89.0	-75.0	0.1428571428571428	16.0	3.0	2.0	-1.3935017344853549	1.286	3.0	stim	poldrack-single-stim	s597	False	0
353.302	1.5	352.551	n/a	-1.0	2.25	columbia_card_task_fmri	n/a	n/a	-1.0	n/a	n/a	n/a	n/a	n/a	n/a	n/a	n/a	ITI	poldrack-single-stim	s597	False	0
354.805	2.162	356.967	6.219340642690642	draw_card	2.162	columbia_card_task_fmri	17.0	0.875	89.0	-80.0	0.125	16.0	1.0	2.0	-1.1573425542431153	2.162	1.0	stim	poldrack-single-stim	s597	False	0
357.723	1.5	356.972	n/a	-1.0	2.25	columbia_card_task_fmri	n/a	n/a	-1.0	n/a	n/a	n/a	n/a	n/a	n/a	n/a	n/a	ITI	poldrack-single-stim	s597	False	0
370.234	2.682	372.916	0.5110073093573098	draw_card	2.682	columbia_card_task_fmri	13.0	0.8333333333333334	89.0	-70.0	0.1666666666666666	6.0	1.0	1.0	-2.303760015711415	2.682	n/a	stim	poldrack-single-stim	s597	False	1
372.919	1.792	374.711	-2.2556593573093577	draw_card	1.792	columbia_card_task_fmri	13.0	0.8	89.0	-70.0	0.2	6.0	2.0	1.0	-0.0380264675454142	1.792	n/a	stim	poldrack-single-stim	s597	False	1
374.714	2.923	377.637	-6.405659357309358	draw_card	2.923	columbia_card_task_fmri	13.0	0.75	89.0	-70.0	0.25	6.0	3.0	1.0	2.6999550869624898	2.923	3.0	stim	poldrack-single-stim	s597	False	0
378.393	1.5	377.642	n/a	-1.0	2.454	columbia_card_task_fmri	n/a	n/a	-1.0	n/a	n/a	n/a	n/a	n/a	n/a	n/a	n/a	ITI	poldrack-single-stim	s597	False	0
380.101	2.078	382.179	0.5110073093573098	draw_card	2.078	columbia_card_task_fmri	15.0	0.8333333333333334	89.0	-80.0	0.1666666666666666	6.0	1.0	1.0	2.1646904590985727	2.078	n/a	stim	poldrack-single-stim	s597	False	1
382.181	0.761	382.942	-2.655659357309358	draw_card	0.761	columbia_card_task_fmri	15.0	0.8	89.0	-80.0	0.2	6.0	2.0	1.0	4.758539225623167	0.761	n/a	stim	poldrack-single-stim	s597	False	1
382.945	1.503	384.448	-7.405659357309358	draw_card	1.503	columbia_card_task_fmri	15.0	0.75	89.0	-80.0	0.25	6.0	3.0	1.0	7.89293453054438	1.503	n/a	stim	poldrack-single-stim	s597	False	1
384.451	0.704	385.155	-15.322326023976022	end_round	0.704	columbia_card_task_fmri	15.0	0.6666666666666667	71.0	-80.0	0.3333333333333333	6.0	4.0	1.0	11.538369648312036	0.704	3.0	stim	poldrack-single-stim	s597	False	1
385.908	1.5	385.157	n/a	-1.0	2.454	columbia_card_task_fmri	n/a	n/a	-1.0	n/a	n/a	n/a	n/a	n/a	n/a	n/a	n/a	ITI	poldrack-single-stim	s597	False	0
387.615	2.522	390.137	2.177673976023976	draw_card	2.522	columbia_card_task_fmri	16.0	0.8333333333333334	89.0	-75.0	0.1666666666666666	6.0	1.0	1.0	0.6750990974650293	2.522	n/a	stim	poldrack-single-stim	s597	False	1
390.143	1.148	391.291	-0.8556593573093574	draw_card	1.148	columbia_card_task_fmri	16.0	0.8	89.0	-75.0	0.2	6.0	2.0	1.0	3.159583460221711	1.148	n/a	stim	poldrack-single-stim	s597	False	1
391.294	0.574	391.868	-5.405659357309358	end_round	0.574	columbia_card_task_fmri	16.0	0.75	71.0	-75.0	0.25	6.0	3.0	1.0	6.161848484157929	0.574	2.0	stim	poldrack-single-stim	s597	False	1
392.622	1.5	391.871	n/a	-1.0	2.522	columbia_card_task_fmri	n/a	n/a	-1.0	n/a	n/a	n/a	n/a	n/a	n/a	n/a	n/a	ITI	poldrack-single-stim	s597	False	0
394.398	1.903	396.301	3.344340642690642	draw_card	1.903	columbia_card_task_fmri	21.0	0.75	89.0	-55.0	0.25	8.0	1.0	2.0	-0.3288207191936081	1.903	n/a	stim	poldrack-single-stim	s597	False	1
396.304	0.648	396.952	0.6300549284049284	draw_card	0.648	columbia_card_task_fmri	21.0	0.7142857142857143	89.0	-55.0	0.2857142857142857	8.0	2.0	2.0	1.0943764888897365	0.648	2.0	stim	poldrack-single-stim	s597	False	0
397.71	1.5	396.959	n/a	-1.0	2.386	columbia_card_task_fmri	n/a	n/a	-1.0	n/a	n/a	n/a	n/a	n/a	n/a	n/a	n/a	ITI	poldrack-single-stim	s597	False	0
399.349	1.825	401.174	4.594340642690642	draw_card	1.825	columbia_card_task_fmri	26.0	0.75	89.0	-65.0	0.25	8.0	1.0	2.0	6.161848484157929	1.825	1.0	stim	poldrack-single-stim	s597	False	0
401.929	1.5	401.178	n/a	-1.0	2.454	columbia_card_task_fmri	n/a	n/a	-1.0	n/a	n/a	n/a	n/a	n/a	n/a	n/a	n/a	ITI	poldrack-single-stim	s597	False	0
403.638	0.769	404.407	-0.3223260239760241	draw_card	0.769	columbia_card_task_fmri	15.0	0.7777777777777778	89.0	-60.0	0.2222222222222222	9.0	1.0	2.0	-2.0557876982997705	0.769	n/a	stim	poldrack-single-stim	s597	False	1
404.41	0.723	405.133	-2.405659357309358	draw_card	0.723	columbia_card_task_fmri	15.0	0.75	89.0	-60.0	0.25	9.0	2.0	2.0	-0.7614677734484729	0.723	n/a	stim	poldrack-single-stim	s597	False	1
405.135	0.777	405.912	-5.084230785880785	draw_card	0.777	columbia_card_task_fmri	15.0	0.7142857142857143	89.0	-60.0	0.2857142857142857	9.0	3.0	2.0	0.6429730520559076	0.777	n/a	stim	poldrack-single-stim	s597	False	1
405.916	1.605	407.521	-8.655659357309357	draw_card	1.605	columbia_card_task_fmri	15.0	0.6666666666666667	89.0	-60.0	0.3333333333333333	9.0	4.0	2.0	2.115655260360761	1.605	4.0	stim	poldrack-single-stim	s597	False	0
408.274	1.5	407.523	n/a	-1.0	2.522	columbia_card_task_fmri	n/a	n/a	-1.0	n/a	n/a	n/a	n/a	n/a	n/a	n/a	n/a	ITI	poldrack-single-stim	s597	False	0
410.05	0.678	410.728	4.044340642690643	draw_card	0.678	columbia_card_task_fmri	13.0	0.9	89.0	-90.0	0.1	10.0	1.0	1.0	-2.3360032359215808	0.678	n/a	stim	poldrack-single-stim	s597	False	1
410.731	2.483	413.214	2.8998961982461973	end_round	2.483	columbia_card_task_fmri	13.0	0.8888888888888888	71.0	-90.0	0.1111111111111111	10.0	2.0	1.0	-0.8675521720209574	2.483	1.0	stim	poldrack-single-stim	s597	False	1
413.969	1.5	413.218	n/a	-1.0	2.522	columbia_card_task_fmri	n/a	n/a	-1.0	n/a	n/a	n/a	n/a	n/a	n/a	n/a	n/a	ITI	poldrack-single-stim	s597	False	0
415.744	2.077	417.821	5.344340642690642	end_round	2.077	columbia_card_task_fmri	15.0	0.9	71.0	-95.0	0.1	10.0	1.0	1.0	-0.237861715908366	2.077	0.0	stim	poldrack-single-stim	s597	False	1
418.578	1.5	417.827	n/a	-1.0	2.59	columbia_card_task_fmri	n/a	n/a	-1.0	n/a	n/a	n/a	n/a	n/a	n/a	n/a	n/a	ITI	poldrack-single-stim	s597	False	0
420.421	1.823	422.244	1.1443406426906426	draw_card	1.823	columbia_card_task_fmri	16.0	0.8	89.0	-65.0	0.2	10.0	1.0	2.0	-0.8373552726835598	1.823	n/a	stim	poldrack-single-stim	s597	False	1
422.247	0.551	422.798	-0.6556593573093563	draw_card	0.551	columbia_card_task_fmri	16.0	0.7777777777777778	89.0	-65.0	0.2222222222222222	10.0	2.0	2.0	0.436506628417149	0.551	n/a	stim	poldrack-single-stim	s597	False	1
422.801	0.728	423.529	-2.905659357309358	draw_card	0.728	columbia_card_task_fmri	16.0	0.75	89.0	-65.0	0.25	10.0	3.0	2.0	1.8345498208898403	0.728	n/a	stim	poldrack-single-stim	s597	False	1
423.532	0.997	424.529	-5.798516500166499	end_round	0.997	columbia_card_task_fmri	16.0	0.7142857142857143	71.0	-65.0	0.2857142857142857	10.0	4.0	2.0	3.3515233556659894	0.997	3.0	stim	poldrack-single-stim	s597	False	1
425.287	1.5	424.536	n/a	-1.0	2.454	columbia_card_task_fmri	n/a	n/a	-1.0	n/a	n/a	n/a	n/a	n/a	n/a	n/a	n/a	ITI	poldrack-single-stim	s597	False	0
426.994	1.676	428.67	-0.1556593573093581	draw_card	1.676	columbia_card_task_fmri	7.0	0.9166666666666666	89.0	-95.0	0.0833333333333333	12.0	1.0	1.0	-5.041887103011277	1.676	n/a	stim	poldrack-single-stim	s597	False	1
428.673	0.378	429.051	-0.9283866300366316	end_round	0.378	columbia_card_task_fmri	7.0	0.9090909090909092	71.0	-95.0	0.0909090909090909	12.0	2.0	1.0	-3.911494491263717	0.378	1.0	stim	poldrack-single-stim	s597	False	1
429.805	1.5	429.054	n/a	-1.0	2.318	columbia_card_task_fmri	n/a	n/a	-1.0	n/a	n/a	n/a	n/a	n/a	n/a	n/a	n/a	ITI	poldrack-single-stim	s597	False	0
431.376	1.513	432.889	0.5110073093573098	draw_card	1.513	columbia_card_task_fmri	14.0	0.8333333333333334	89.0	-75.0	0.1666666666666666	12.0	1.0	2.0	-0.0696588546835812	1.513	n/a	stim	poldrack-single-stim	s597	False	1
432.893	0.419	433.312	-0.8374775391275415	draw_card	0.419	columbia_card_task_fmri	14.0	0.8181818181818181	89.0	-75.0	0.1818181818181818	12.0	2.0	2.0	1.0879012461920112	0.419	n/a	stim	poldrack-single-stim	s597	False	1
433.315	0.54	433.855	-2.455659357309357	draw_card	0.54	columbia_card_task_fmri	14.0	0.8	89.0	-75.0	0.2	12.0	3.0	2.0	2.360140739909376	0.54	n/a	stim	poldrack-single-stim	s597	False	1
433.859	1.576	435.435	-4.433437135087133	end_round	1.576	columbia_card_task_fmri	14.0	0.7777777777777778	71.0	-75.0	0.2222222222222222	12.0	4.0	2.0	3.760014907278311	1.576	3.0	stim	poldrack-single-stim	s597	False	1
436.193	1.5	435.442	n/a	-1.0	2.25	columbia_card_task_fmri	n/a	n/a	-1.0	n/a	n/a	n/a	n/a	n/a	n/a	n/a	n/a	ITI	poldrack-single-stim	s597	False	0
437.696	2.303	439.999	2.177673976023976	draw_card	2.303	columbia_card_task_fmri	15.0	0.8333333333333334	89.0	-70.0	0.1666666666666666	12.0	1.0	2.0	-1.5590904394091858	2.303	n/a	stim	poldrack-single-stim	s597	False	1
440.002	0.46	440.462	0.8897951881451851	draw_card	0.46	columbia_card_task_fmri	15.0	0.8181818181818181	89.0	-70.0	0.1818181818181818	12.0	2.0	2.0	-0.4536398909662438	0.46	n/a	stim	poldrack-single-stim	s597	False	1
440.465	0.444	440.909	-0.6556593573093581	draw_card	0.444	columbia_card_task_fmri	15.0	0.8	89.0	-70.0	0.2	12.0	3.0	2.0	0.7613338853471205	0.444	n/a	stim	poldrack-single-stim	s597	False	1
440.913	0.651	441.564	-2.544548246198248	end_round	0.651	columbia_card_task_fmri	15.0	0.7777777777777778	71.0	-70.0	0.2222222222222222	12.0	4.0	2.0	2.0982041376673592	0.651	3.0	stim	poldrack-single-stim	s597	False	1
442.318	1.5	441.567	n/a	-1.0	2.658	columbia_card_task_fmri	n/a	n/a	-1.0	n/a	n/a	n/a	n/a	n/a	n/a	n/a	n/a	ITI	poldrack-single-stim	s597	False	0
444.229	1.449	445.678	0.1443406426906426	draw_card	1.449	columbia_card_task_fmri	16.0	0.8	89.0	-70.0	0.2	15.0	1.0	3.0	1.1610252054644192	1.449	1.0	stim	poldrack-single-stim	s597	False	0
446.431	1.5	445.68	n/a	-1.0	2.454	columbia_card_task_fmri	n/a	n/a	-1.0	n/a	n/a	n/a	n/a	n/a	n/a	n/a	n/a	ITI	poldrack-single-stim	s597	False	0
448.139	0.971	449.11	0.5318406426906419	draw_card	0.971	columbia_card_task_fmri	14.0	0.8125	89.0	-65.0	0.1875	16.0	1.0	3.0	-2.401263755185436	0.971	1.0	stim	poldrack-single-stim	s597	False	0
449.865	1.5	449.114	n/a	-1.0	2.386	columbia_card_task_fmri	n/a	n/a	-1.0	n/a	n/a	n/a	n/a	n/a	n/a	n/a	n/a	ITI	poldrack-single-stim	s597	False	0
451.504	1.177	452.681	0.2818406426906419	draw_card	1.177	columbia_card_task_fmri	16.0	0.8125	89.0	-75.0	0.1875	16.0	1.0	3.0	2.278625089026576	1.177	n/a	stim	poldrack-single-stim	s597	False	1
452.685	0.686	453.371	-0.8556593573093574	draw_card	0.686	columbia_card_task_fmri	16.0	0.8	89.0	-75.0	0.2	16.0	2.0	3.0	3.159583460221711	0.686	n/a	stim	poldrack-single-stim	s597	False	1
453.375	0.481	453.856	-2.1556593573093563	draw_card	0.481	columbia_card_task_fmri	16.0	0.7857142857142857	89.0	-75.0	0.2142857142857142	16.0	3.0	3.0	4.098616563751321	0.481	n/a	stim	poldrack-single-stim	s597	False	1
453.86	2.705	456.565	-3.6556593573093616	draw_card	2.705	columbia_card_task_fmri	16.0	0.7692307692307692	89.0	-75.0	0.2307692307692307	16.0	4.0	3.0	5.098907213074931	2.705	4.0	stim	poldrack-single-stim	s597	False	0
457.319	1.5	456.568	n/a	-1.0	2.59	columbia_card_task_fmri	n/a	n/a	-1.0	n/a	n/a	n/a	n/a	n/a	n/a	n/a	n/a	ITI	poldrack-single-stim	s597	False	0
459.162	1.217	460.379	4.544340642690643	draw_card	1.217	columbia_card_task_fmri	16.0	0.8666666666666667	89.0	-80.0	0.1333333333333333	15.0	1.0	2.0	-0.6038298777648023	1.217	1.0	stim	poldrack-single-stim	s597	False	0
461.138	1.5	460.387	n/a	-1.0	2.318	columbia_card_task_fmri	n/a	n/a	-1.0	n/a	n/a	n/a	n/a	n/a	n/a	n/a	n/a	ITI	poldrack-single-stim	s597	False	0
462.71	1.258	463.968	5.41100730935731	draw_card	1.258	columbia_card_task_fmri	17.0	0.8666666666666667	89.0	-80.0	0.1333333333333333	15.0	1.0	2.0	-0.2641803477325126	1.258	n/a	stim	poldrack-single-stim	s597	False	1
463.971	0.754	464.725	4.487197785547788	draw_card	0.754	columbia_card_task_fmri	17.0	0.8571428571428572	89.0	-80.0	0.1428571428571428	15.0	2.0	2.0	0.7043078120103985	0.754	n/a	stim	poldrack-single-stim	s597	False	1
464.73	0.569	465.299	3.4212637196137186	draw_card	0.569	columbia_card_task_fmri	17.0	0.8461538461538461	89.0	-80.0	0.1538461538461538	15.0	3.0	2.0	1.7582946743363692	0.569	n/a	stim	poldrack-single-stim	s597	False	1
465.302	0.724	466.026	2.1776739760239776	end_round	0.724	columbia_card_task_fmri	17.0	0.8333333333333334	71.0	-80.0	0.1666666666666666	15.0	4.0	2.0	2.909520761427828	0.724	3.0	stim	poldrack-single-stim	s597	False	1
466.781	1.5	466.03	n/a	-1.0	2.59	columbia_card_task_fmri	n/a	n/a	-1.0	n/a	n/a	n/a	n/a	n/a	n/a	n/a	n/a	ITI	poldrack-single-stim	s597	False	0
468.625	2.01	470.635	1.344340642690642	end_round	2.01	columbia_card_task_fmri	1.0	0.9375	71.0	-15.0	0.0625	16.0	1.0	1.0	-29.16556813157433	2.01	0.0	stim	poldrack-single-stim	s597	False	1
471.39	1.5	470.639	n/a	-1.0	2.386	columbia_card_task_fmri	n/a	n/a	-1.0	n/a	n/a	n/a	n/a	n/a	n/a	n/a	n/a	ITI	poldrack-single-stim	s597	False	0
473.029	3.502	476.531	4.469340642690642	draw_card	3.502	columbia_card_task_fmri	10.0	0.9375	89.0	-100.0	0.0625	16.0	1.0	1.0	-6.604557304920075	3.502	n/a	stim	poldrack-single-stim	s597	False	1
476.535	0.578	477.113	4.011007309357309	end_round	0.578	columbia_card_task_fmri	10.0	0.9333333333333332	71.0	-100.0	0.0666666666666666	16.0	2.0	1.0	-5.793499482427926	0.578	1.0	stim	poldrack-single-stim	s597	False	1
477.874	1.5	477.123	n/a	-1.0	2.318	columbia_card_task_fmri	n/a	n/a	-1.0	n/a	n/a	n/a	n/a	n/a	n/a	n/a	n/a	ITI	poldrack-single-stim	s597	False	0
479.445	4.46	483.905	5.094340642690642	draw_card	4.46	columbia_card_task_fmri	15.0	0.875	89.0	-75.0	0.125	16.0	1.0	2.0	-3.470187208383745	4.46	n/a	stim	poldrack-single-stim	s597	False	1
483.909	0.53	484.439	4.344340642690642	draw_card	0.53	columbia_card_task_fmri	15.0	0.8666666666666667	89.0	-75.0	0.1333333333333333	16.0	2.0	2.0	-2.6415941930417013	0.53	n/a	stim	poldrack-single-stim	s597	False	1
484.443	0.588	485.031	3.487197785547786	draw_card	0.588	columbia_card_task_fmri	15.0	0.8571428571428572	89.0	-75.0	0.1428571428571428	16.0	3.0	2.0	-1.7431139638049196	0.588	n/a	stim	poldrack-single-stim	s597	False	1
485.035	1.313	486.348	2.498186796536795	end_round	1.313	columbia_card_task_fmri	15.0	0.8461538461538461	71.0	-75.0	0.1538461538461538	16.0	4.0	2.0	-0.7653080197017701	1.313	3.0	stim	poldrack-single-stim	s597	False	1
487.106	1.5	486.355	n/a	-1.0	2.318	columbia_card_task_fmri	n/a	n/a	-1.0	n/a	n/a	n/a	n/a	n/a	n/a	n/a	n/a	ITI	poldrack-single-stim	s597	False	0
488.678	0.96	489.638	5.344340642690642	draw_card	0.96	columbia_card_task_fmri	16.0	0.875	89.0	-80.0	0.125	16.0	1.0	2.0	-1.4877684401113385	0.96	n/a	stim	poldrack-single-stim	s597	False	1
489.642	1.694	491.336	4.544340642690643	draw_card	1.694	columbia_card_task_fmri	16.0	0.8666666666666667	89.0	-80.0	0.1333333333333333	16.0	2.0	2.0	-0.6038298777648023	1.694	n/a	stim	poldrack-single-stim	s597	False	1
491.34	2.069	493.409	3.63005492840493	draw_card	2.069	columbia_card_task_fmri	16.0	0.8571428571428572	89.0	-80.0	0.1428571428571428	16.0	3.0	2.0	0.3546576883202661	2.069	n/a	stim	poldrack-single-stim	s597	False	1
493.413	0.457	493.87	2.575109873459872	end_round	0.457	columbia_card_task_fmri	16.0	0.8461538461538461	71.0	-80.0	0.1538461538461538	16.0	4.0	2.0	1.3977621154866	0.457	3.0	stim	poldrack-single-stim	s597	False	1
494.625	1.5	493.874	n/a	-1.0	2.318	columbia_card_task_fmri	n/a	n/a	-1.0	n/a	n/a	n/a	n/a	n/a	n/a	n/a	n/a	ITI	poldrack-single-stim	s597	False	0
496.198	2.922	499.12	2.531840642690642	draw_card	2.922	columbia_card_task_fmri	4.0	0.6875	89.0	-5.0	0.3125	16.0	1.0	5.0	-28.88235771064453	2.922	n/a	stim	poldrack-single-stim	s597	False	1
499.124	0.792	499.916	2.3443406426906424	draw_card	0.792	columbia_card_task_fmri	4.0	0.6666666666666667	89.0	-5.0	0.3333333333333333	16.0	2.0	5.0	-28.81469909309673	0.792	n/a	stim	poldrack-single-stim	s597	False	1
499.92	0.611	500.531	2.1300549284049275	draw_card	0.611	columbia_card_task_fmri	4.0	0.6428571428571428	89.0	-5.0	0.3571428571428571	16.0	3.0	5.0	-28.74813317418402	0.611	n/a	stim	poldrack-single-stim	s597	False	1
500.535	2.365	502.9	1.8828021811521805	draw_card	2.365	columbia_card_task_fmri	4.0	0.6153846153846154	89.0	-5.0	0.3846153846153846	16.0	4.0	5.0	-28.68496557350949	2.365	4.0	stim	poldrack-single-stim	s597	False	0
503.657	1.5	502.906	n/a	-1.0	2.386	columbia_card_task_fmri	n/a	n/a	-1.0	n/a	n/a	n/a	n/a	n/a	n/a	n/a	n/a	ITI	poldrack-single-stim	s597	False	0
505.296	2.126	507.422	-0.3223260239760224	draw_card	2.126	columbia_card_task_fmri	14.0	0.8333333333333334	89.0	-80.0	0.1666666666666666	6.0	1.0	1.0	1.792283687481934	2.126	n/a	stim	poldrack-single-stim	s597	False	1
507.426	0.708	508.134	-3.455659357309357	draw_card	0.708	columbia_card_task_fmri	14.0	0.8	89.0	-80.0	0.2	6.0	2.0	1.0	4.358791960651978	0.708	2.0	stim	poldrack-single-stim	s597	False	0
508.891	1.5	508.14	n/a	-1.0	2.25	columbia_card_task_fmri	n/a	n/a	-1.0	n/a	n/a	n/a	n/a	n/a	n/a	n/a	n/a	ITI	poldrack-single-stim	s597	False	0
510.395	1.359	511.754	1.344340642690642	draw_card	1.359	columbia_card_task_fmri	15.0	0.8333333333333334	89.0	-75.0	0.1666666666666666	6.0	1.0	1.0	0.3027168029417666	1.359	n/a	stim	poldrack-single-stim	s597	False	1
511.758	1.126	512.884	-1.655659357309358	draw_card	1.126	columbia_card_task_fmri	15.0	0.8	89.0	-75.0	0.2	6.0	2.0	1.0	2.759859007301408	1.126	n/a	stim	poldrack-single-stim	s597	False	1
512.888	0.91	513.798	-6.155659357309358	draw_card	0.91	columbia_card_task_fmri	15.0	0.75	89.0	-75.0	0.25	6.0	3.0	1.0	5.729090360329607	0.91	n/a	stim	poldrack-single-stim	s597	False	1
513.802	0.745	514.547	-13.655659357309355	end_round	0.745	columbia_card_task_fmri	15.0	0.6666666666666667	71.0	-75.0	0.3333333333333333	6.0	4.0	1.0	9.18246722695254	0.745	3.0	stim	poldrack-single-stim	s597	False	1
515.305	1.5	514.554	n/a	-1.0	2.386	columbia_card_task_fmri	n/a	n/a	-1.0	n/a	n/a	n/a	n/a	n/a	n/a	n/a	n/a	ITI	poldrack-single-stim	s597	False	0
516.944	1.108	518.052	3.0110073093573098	draw_card	1.108	columbia_card_task_fmri	16.0	0.8333333333333334	89.0	-70.0	0.1666666666666666	6.0	1.0	1.0	-1.1867436949062622	1.108	n/a	stim	poldrack-single-stim	s597	False	1
518.056	0.486	518.542	0.1443406426906426	draw_card	0.486	columbia_card_task_fmri	16.0	0.8	89.0	-70.0	0.2	6.0	2.0	1.0	1.1610252054644192	0.486	2.0	stim	poldrack-single-stim	s597	False	0
519.297	1.5	518.546	n/a	-1.0	2.59	columbia_card_task_fmri	n/a	n/a	-1.0	n/a	n/a	n/a	n/a	n/a	n/a	n/a	n/a	ITI	poldrack-single-stim	s597	False	0
521.141	1.097	522.238	3.594340642690642	draw_card	1.097	columbia_card_task_fmri	23.0	0.75	89.0	-60.0	0.25	8.0	1.0	2.0	2.6999550869624898	1.097	1.0	stim	poldrack-single-stim	s597	False	0
522.995	1.5	522.244	n/a	-1.0	2.658	columbia_card_task_fmri	n/a	n/a	-1.0	n/a	n/a	n/a	n/a	n/a	n/a	n/a	n/a	ITI	poldrack-single-stim	s597	False	0
524.907	0.884	525.791	4.094340642690642	draw_card	0.884	columbia_card_task_fmri	27.0	0.75	89.0	-70.0	0.25	8.0	1.0	2.0	8.758507368145771	0.884	n/a	stim	poldrack-single-stim	s597	False	1
525.795	0.983	526.778	0.6300549284049266	draw_card	0.983	columbia_card_task_fmri	27.0	0.7142857142857143	89.0	-70.0	0.2857142857142857	8.0	2.0	2.0	10.575516723077977	0.983	2.0	stim	poldrack-single-stim	s597	False	0
527.534	1.5	526.783	n/a	-1.0	2.386	columbia_card_task_fmri	n/a	n/a	-1.0	n/a	n/a	n/a	n/a	n/a	n/a	n/a	n/a	ITI	poldrack-single-stim	s597	False	0
529.174	0.966	530.14	-0.6556593573093563	draw_card	0.966	columbia_card_task_fmri	16.0	0.7777777777777778	89.0	-65.0	0.2222222222222222	9.0	1.0	2.0	0.436506628417149	0.966	n/a	stim	poldrack-single-stim	s597	False	1
530.144	1.743	531.887	-2.905659357309358	draw_card	1.743	columbia_card_task_fmri	16.0	0.75	89.0	-65.0	0.25	9.0	2.0	2.0	1.8345498208898403	1.743	n/a	stim	poldrack-single-stim	s597	False	1
531.891	1.007	532.898	-5.798516500166499	draw_card	1.007	columbia_card_task_fmri	16.0	0.7142857142857143	89.0	-65.0	0.2857142857142857	9.0	3.0	2.0	3.3515233556659894	1.007	n/a	stim	poldrack-single-stim	s597	False	1
532.903	0.556	533.459	-9.655659357309354	end_round	0.556	columbia_card_task_fmri	16.0	0.6666666666666667	71.0	-65.0	0.3333333333333333	9.0	4.0	2.0	4.942191072791907	0.556	3.0	stim	poldrack-single-stim	s597	False	1
534.215	1.5	533.464	n/a	-1.0	2.386	columbia_card_task_fmri	n/a	n/a	-1.0	n/a	n/a	n/a	n/a	n/a	n/a	n/a	n/a	ITI	poldrack-single-stim	s597	False	0
535.855	2.372	538.227	4.544340642690643	draw_card	2.372	columbia_card_task_fmri	13.0	0.9	89.0	-85.0	0.1	10.0	1.0	1.0	-3.834513442018885	2.372	n/a	stim	poldrack-single-stim	s597	False	1
538.23	0.548	538.778	3.4554517538017526	draw_card	0.548	columbia_card_task_fmri	13.0	0.8888888888888888	89.0	-85.0	0.1111111111111111	10.0	2.0	1.0	-2.437478237951254	0.548	n/a	stim	poldrack-single-stim	s597	False	1
538.781	0.685	539.466	2.094340642690642	draw_card	0.685	columbia_card_task_fmri	13.0	0.875	89.0	-85.0	0.125	10.0	3.0	1.0	-0.8269106959955366	0.685	n/a	stim	poldrack-single-stim	s597	False	1
539.47	1.364	540.834	0.3443406426906437	draw_card	1.364	columbia_card_task_fmri	13.0	0.8571428571428572	89.0	-85.0	0.1428571428571428	10.0	4.0	1.0	1.0539635818295352	1.364	4.0	stim	poldrack-single-stim	s597	False	0
541.59	1.5	540.839	n/a	-1.0	2.25	columbia_card_task_fmri	n/a	n/a	-1.0	n/a	n/a	n/a	n/a	n/a	n/a	n/a	n/a	ITI	poldrack-single-stim	s597	False	0
543.094	1.967	545.061	-0.455659357309357	draw_card	1.967	columbia_card_task_fmri	14.0	0.8	89.0	-65.0	0.2	10.0	1.0	2.0	-1.636650138208967	1.967	n/a	stim	poldrack-single-stim	s597	False	1
545.065	0.581	545.646	-2.211214912864912	draw_card	0.581	columbia_card_task_fmri	14.0	0.7777777777777778	89.0	-65.0	0.2222222222222222	10.0	2.0	2.0	-0.3942942858160592	0.581	n/a	stim	poldrack-single-stim	s597	False	1
545.65	0.481	546.131	-4.405659357309358	draw_card	0.481	columbia_card_task_fmri	14.0	0.75	89.0	-65.0	0.25	10.0	3.0	2.0	0.9691759187571662	0.481	n/a	stim	poldrack-single-stim	s597	False	1
546.136	0.512	546.648	-7.227087928737927	end_round	0.512	columbia_card_task_fmri	14.0	0.7142857142857143	71.0	-65.0	0.2857142857142857	10.0	4.0	2.0	2.4486399837832664	0.512	3.0	stim	poldrack-single-stim	s597	False	1
547.405	1.5	546.654	n/a	-1.0	2.318	columbia_card_task_fmri	n/a	n/a	-1.0	n/a	n/a	n/a	n/a	n/a	n/a	n/a	n/a	ITI	poldrack-single-stim	s597	False	0
548.976	2.725	551.701	0.9443406426906432	draw_card	2.725	columbia_card_task_fmri	17.0	0.8	89.0	-70.0	0.2	10.0	1.0	2.0	1.560723613646843	2.725	n/a	stim	poldrack-single-stim	s597	False	1
551.705	0.411	552.116	-0.9889926906426902	draw_card	0.411	columbia_card_task_fmri	17.0	0.7777777777777778	89.0	-70.0	0.2222222222222222	10.0	2.0	2.0	2.929096339937935	0.411	n/a	stim	poldrack-single-stim	s597	False	1
552.12	0.411	552.531	-3.405659357309358	draw_card	0.411	columbia_card_task_fmri	17.0	0.75	89.0	-70.0	0.25	10.0	3.0	2.0	4.430851070424417	0.411	3.0	stim	poldrack-single-stim	s597	False	0
553.286	1.5	552.535	n/a	-1.0	2.25	columbia_card_task_fmri	n/a	n/a	-1.0	n/a	n/a	n/a	n/a	n/a	n/a	n/a	n/a	ITI	poldrack-single-stim	s597	False	0
554.789	1.34	556.129	-0.3223260239760241	draw_card	1.34	columbia_card_task_fmri	13.0	0.8333333333333334	89.0	-75.0	0.1666666666666666	12.0	1.0	2.0	-0.4420276495263877	1.34	n/a	stim	poldrack-single-stim	s597	False	1
556.133	0.382	556.515	-1.65565935730936	draw_card	0.382	columbia_card_task_fmri	13.0	0.8181818181818181	89.0	-75.0	0.1818181818181818	12.0	2.0	2.0	0.7025054292674042	0.382	n/a	stim	poldrack-single-stim	s597	False	1
556.519	0.346	556.865	-3.2556593573093577	draw_card	0.346	columbia_card_task_fmri	13.0	0.8	89.0	-75.0	0.2	12.0	3.0	2.0	1.9604288686138889	0.346	n/a	stim	poldrack-single-stim	s597	False	1
556.871	0.572	557.443	-5.211214912864912	end_round	0.572	columbia_card_task_fmri	13.0	0.7777777777777778	71.0	-75.0	0.2222222222222222	12.0	4.0	2.0	3.3445524401727056	0.572	3.0	stim	poldrack-single-stim	s597	False	1
558.198	1.5	557.447	n/a	-1.0	2.25	columbia_card_task_fmri	n/a	n/a	-1.0	n/a	n/a	n/a	n/a	n/a	n/a	n/a	n/a	ITI	poldrack-single-stim	s597	False	0
559.702	1.126	560.828	1.3443406426906437	draw_card	1.126	columbia_card_task_fmri	14.0	0.8333333333333334	89.0	-70.0	0.1666666666666666	12.0	1.0	2.0	-1.9314293077289195	1.126	n/a	stim	poldrack-single-stim	s597	False	1
560.832	0.386	561.218	0.0716133699633667	draw_card	0.386	columbia_card_task_fmri	14.0	0.8181818181818181	89.0	-70.0	0.1818181818181818	12.0	2.0	2.0	-0.8390067863367605	0.386	n/a	stim	poldrack-single-stim	s597	False	1
561.222	0.356	561.578	-1.455659357309357	draw_card	0.356	columbia_card_task_fmri	14.0	0.8	89.0	-70.0	0.2	12.0	3.0	2.0	0.3616499060425511	0.356	3.0	stim	poldrack-single-stim	s597	False	0
562.334	1.5	561.583	n/a	-1.0	2.386	columbia_card_task_fmri	n/a	n/a	-1.0	n/a	n/a	n/a	n/a	n/a	n/a	n/a	n/a	ITI	poldrack-single-stim	s597	False	0
563.974	0.439	564.413	1.3443406426906437	draw_card	0.439	columbia_card_task_fmri	16.0	0.8333333333333334	89.0	-80.0	0.1666666666666666	12.0	1.0	2.0	2.5371028751893547	0.439	n/a	stim	poldrack-single-stim	s597	False	1
564.417	0.369	564.786	-0.1102048118548149	draw_card	0.369	columbia_card_task_fmri	16.0	0.8181818181818181	89.0	-80.0	0.1818181818181818	12.0	2.0	2.0	3.78584607758728	0.369	n/a	stim	poldrack-single-stim	s597	False	1
564.79	1.299	566.089	-1.8556593573093572	draw_card	1.299	columbia_card_task_fmri	16.0	0.8	89.0	-80.0	0.2	12.0	3.0	2.0	5.15829175102175	1.299	n/a	stim	poldrack-single-stim	s597	False	1
566.093	0.471	566.564	-3.988992690642692	end_round	0.471	columbia_card_task_fmri	16.0	0.7777777777777778	71.0	-80.0	0.2222222222222222	12.0	4.0	2.0	6.668413756596834	0.471	3.0	stim	poldrack-single-stim	s597	False	1
567.321	1.5	566.57	n/a	-1.0	2.386	columbia_card_task_fmri	n/a	n/a	-1.0	n/a	n/a	n/a	n/a	n/a	n/a	n/a	n/a	ITI	poldrack-single-stim	s597	False	0
568.961	1.195	570.156	1.1443406426906426	draw_card	1.195	columbia_card_task_fmri	16.0	0.8	89.0	-65.0	0.2	15.0	1.0	3.0	-0.8373552726835598	1.195	n/a	stim	poldrack-single-stim	s597	False	1
570.16	0.738	570.898	-0.0128022144522139	draw_card	0.738	columbia_card_task_fmri	16.0	0.7857142857142857	89.0	-65.0	0.2142857142857142	15.0	2.0	3.0	-0.0016580685815128	0.738	n/a	stim	poldrack-single-stim	s597	False	1
570.902	0.508	571.41	-1.3479670496170515	draw_card	0.508	columbia_card_task_fmri	16.0	0.7692307692307692	89.0	-65.0	0.2307692307692307	15.0	3.0	3.0	0.8885634247664953	0.508	n/a	stim	poldrack-single-stim	s597	False	1
571.414	1.214	572.628	-2.905659357309358	end_round	1.214	columbia_card_task_fmri	16.0	0.75	71.0	-65.0	0.25	15.0	4.0	3.0	1.8345498208898403	1.214	3.0	stim	poldrack-single-stim	s597	False	1
573.386	1.5	572.635	n/a	-1.0	2.726	columbia_card_task_fmri	n/a	n/a	-1.0	n/a	n/a	n/a	n/a	n/a	n/a	n/a	n/a	ITI	poldrack-single-stim	s597	False	0
575.368	1.259	576.627	-0.5306593573093581	draw_card	1.259	columbia_card_task_fmri	15.0	0.8125	89.0	-75.0	0.1875	16.0	1.0	3.0	1.888595085674972	1.259	1.0	stim	poldrack-single-stim	s597	False	0
577.384	1.5	576.633	n/a	-1.0	2.454	columbia_card_task_fmri	n/a	n/a	-1.0	n/a	n/a	n/a	n/a	n/a	n/a	n/a	n/a	ITI	poldrack-single-stim	s597	False	0
579.092	0.738	579.83	0.0318406426906419	draw_card	0.738	columbia_card_task_fmri	14.0	0.6875	89.0	-35.0	0.3125	16.0	1.0	5.0	-10.513373801003272	0.738	n/a	stim	poldrack-single-stim	s597	False	1
579.834	0.468	580.302	-0.9889926906426902	draw_card	0.468	columbia_card_task_fmri	14.0	0.6666666666666667	89.0	-35.0	0.3333333333333333	16.0	2.0	5.0	-10.12732451971737	0.468	n/a	stim	poldrack-single-stim	s597	False	1
580.306	1.675	581.981	-2.155659357309358	draw_card	1.675	columbia_card_task_fmri	14.0	0.6428571428571428	89.0	-35.0	0.3571428571428571	16.0	3.0	5.0	-9.748063669671572	1.675	n/a	stim	poldrack-single-stim	s597	False	1
581.985	1.192	583.177	-3.501813203463203	end_round	1.192	columbia_card_task_fmri	14.0	0.6153846153846154	71.0	-35.0	0.3846153846153846	16.0	4.0	5.0	-9.3886487174098	1.192	3.0	stim	poldrack-single-stim	s597	False	1
583.933	1.5	583.182	n/a	-1.0	2.318	columbia_card_task_fmri	n/a	n/a	-1.0	n/a	n/a	n/a	n/a	n/a	n/a	n/a	n/a	ITI	poldrack-single-stim	s597	False	0
585.504	1.063	586.567	5.211007309357309	draw_card	1.063	columbia_card_task_fmri	16.0	0.8666666666666667	89.0	-75.0	0.1333333333333333	15.0	1.0	2.0	-2.3019836653944843	1.063	n/a	stim	poldrack-single-stim	s597	False	1
586.571	0.578	587.149	4.344340642690644	draw_card	0.578	columbia_card_task_fmri	16.0	0.8571428571428572	89.0	-75.0	0.1428571428571428	15.0	2.0	2.0	-1.3935017344853549	0.578	n/a	stim	poldrack-single-stim	s597	False	1
587.153	0.639	587.792	3.344340642690642	draw_card	0.639	columbia_card_task_fmri	16.0	0.8461538461538461	89.0	-75.0	0.1538461538461538	15.0	3.0	2.0	-0.4048122186671321	0.639	n/a	stim	poldrack-single-stim	s597	False	1
587.796	0.579	588.375	2.177673976023976	end_round	0.579	columbia_card_task_fmri	16.0	0.8333333333333334	71.0	-75.0	0.1666666666666666	15.0	4.0	2.0	0.6750990974650293	0.579	3.0	stim	poldrack-single-stim	s597	False	1
589.132	1.5	588.381	n/a	-1.0	2.318	columbia_card_task_fmri	n/a	n/a	-1.0	n/a	n/a	n/a	n/a	n/a	n/a	n/a	n/a	ITI	poldrack-single-stim	s597	False	0
590.705	2.078	592.783	5.877673976023975	draw_card	2.078	columbia_card_task_fmri	16.0	0.8666666666666667	89.0	-70.0	0.1333333333333333	15.0	1.0	2.0	-3.99996104536865	2.078	n/a	stim	poldrack-single-stim	s597	False	1
592.789	0.46	593.249	5.058626356976357	draw_card	0.46	columbia_card_task_fmri	16.0	0.8571428571428572	89.0	-70.0	0.1428571428571428	15.0	2.0	2.0	-3.1414897597025373	0.46	n/a	stim	poldrack-single-stim	s597	False	1
593.253	0.592	593.845	4.11357141192141	draw_card	0.592	columbia_card_task_fmri	16.0	0.8461538461538461	89.0	-70.0	0.1538461538461538	15.0	3.0	2.0	-2.2072202944852712	0.592	n/a	stim	poldrack-single-stim	s597	False	1
593.849	0.646	594.495	3.0110073093573098	draw_card	0.646	columbia_card_task_fmri	16.0	0.8333333333333334	89.0	-70.0	0.1666666666666666	15.0	4.0	2.0	-1.1867436949062622	0.646	4.0	stim	poldrack-single-stim	s597	False	0
595.25	1.5	594.499	n/a	-1.0	2.59	columbia_card_task_fmri	n/a	n/a	-1.0	n/a	n/a	n/a	n/a	n/a	n/a	n/a	n/a	ITI	poldrack-single-stim	s597	False	0
597.094	2.118	599.212	3.219340642690642	end_round	2.118	columbia_card_task_fmri	8.0	0.9375	71.0	-90.0	0.0625	16.0	1.0	1.0	-9.505148228953264	2.118	0.0	stim	poldrack-single-stim	s597	False	1
599.969	1.5	599.218	n/a	-1.0	2.726	columbia_card_task_fmri	n/a	n/a	-1.0	n/a	n/a	n/a	n/a	n/a	n/a	n/a	n/a	ITI	poldrack-single-stim	s597	False	0
601.949	2.278	604.227	4.781840642690642	draw_card	2.278	columbia_card_task_fmri	10.0	0.9375	89.0	-95.0	0.0625	16.0	1.0	1.0	-7.813251796394713	2.278	n/a	stim	poldrack-single-stim	s597	False	1
604.231	1.305	605.536	4.344340642690643	draw_card	1.305	columbia_card_task_fmri	10.0	0.9333333333333332	89.0	-95.0	0.0666666666666666	16.0	2.0	1.0	-7.039153356072603	1.305	n/a	stim	poldrack-single-stim	s597	False	1
605.54	0.854	606.394	3.844340642690643	end_round	0.854	columbia_card_task_fmri	10.0	0.9285714285714286	71.0	-95.0	0.0714285714285714	16.0	3.0	1.0	-6.190202925307645	0.854	2.0	stim	poldrack-single-stim	s597	False	1
607.153	1.5	606.402	n/a	-1.0	2.522	columbia_card_task_fmri	n/a	n/a	-1.0	n/a	n/a	n/a	n/a	n/a	n/a	n/a	n/a	ITI	poldrack-single-stim	s597	False	0
608.929	1.417	610.346	5.719340642690642	draw_card	1.417	columbia_card_task_fmri	15.0	0.875	89.0	-70.0	0.125	16.0	1.0	2.0	-5.121998846552071	1.417	n/a	stim	poldrack-single-stim	s597	False	1
610.35	0.47	610.82	5.011007309357308	draw_card	0.47	columbia_card_task_fmri	15.0	0.8666666666666667	89.0	-70.0	0.1333333333333333	16.0	2.0	2.0	-4.339532618571312	0.47	n/a	stim	poldrack-single-stim	s597	False	1
610.824	0.563	611.387	4.2014834998335	draw_card	0.563	columbia_card_task_fmri	15.0	0.8571428571428572	89.0	-70.0	0.1428571428571428	16.0	3.0	2.0	-3.4910641404977056	0.563	n/a	stim	poldrack-single-stim	s597	False	1
611.391	0.688	612.079	3.2674175657675635	draw_card	0.688	columbia_card_task_fmri	15.0	0.8461538461538461	89.0	-70.0	0.1538461538461538	16.0	4.0	2.0	-2.5676793814686825	0.688	n/a	stim	poldrack-single-stim	s597	False	1
612.083	2.082	614.165	2.177673976023976	end_round	2.082	columbia_card_task_fmri	15.0	0.8333333333333334	71.0	-70.0	0.1666666666666666	16.0	5.0	2.0	-1.5590904394091858	2.082	4.0	stim	poldrack-single-stim	s597	False	1
614.924	1.5	614.173	n/a	-1.0	3.134	columbia_card_task_fmri	n/a	n/a	-1.0	n/a	n/a	n/a	n/a	n/a	n/a	n/a	n/a	ITI	poldrack-single-stim	s597	False	0
617.313	3.494	620.807	4.719340642690642	draw_card	3.494	columbia_card_task_fmri	16.0	0.875	89.0	-85.0	0.125	16.0	1.0	2.0	0.1644189420067618	3.494	n/a	stim	poldrack-single-stim	s597	False	1
620.811	0.516	621.327	3.877673976023975	draw_card	0.516	columbia_card_task_fmri	16.0	0.8666666666666667	89.0	-85.0	0.1333333333333333	16.0	2.0	2.0	1.0944741618363594	0.516	n/a	stim	poldrack-single-stim	s597	False	1
621.331	1.038	622.369	2.915769214119215	draw_card	1.038	columbia_card_task_fmri	16.0	0.8571428571428572	89.0	-85.0	0.1428571428571428	16.0	3.0	2.0	2.1029630934909065	1.038	3.0	stim	poldrack-single-stim	s597	False	0
623.123	1.5	622.372	n/a	-1.0	2.386	columbia_card_task_fmri	n/a	n/a	-1.0	n/a	n/a	n/a	n/a	n/a	n/a	n/a	n/a	ITI	poldrack-single-stim	s597	False	0
