onset	duration	movement_onset	CTI	block_duration	correct	correct_response	cue	cue_switch	experiment_exp_id	key_press	response_time	stim_color	stim_number	switch_type	task	task_switch	trial_id	trial_type	worker_id	first_trial_of_block	junk
4.423	1.0	5.808	0.9	2.136	True	71.0	Magnitude	n/a	twobytwo	71.0	0.485	blue	1.0	task_switch	magnitude	switch	stim	poldrack-single-stim	s598	1	False
6.663	1.0	7.396	0.1	2.68	True	89.0	Magnitude	stay	twobytwo	89.0	0.633	blue	9.0	cue_stay	magnitude	stay	stim	poldrack-single-stim	s598	0	False
10.25	1.0	11.587	0.9	2.544	True	71.0	High-Low	switch	twobytwo	71.0	0.437	blue	3.0	cue_switch	magnitude	stay	stim	poldrack-single-stim	s598	0	False
12.901	1.0	13.681	0.1	2.272	True	89.0	Magnitude	switch	twobytwo	89.0	0.68	blue	8.0	cue_switch	magnitude	stay	stim	poldrack-single-stim	s598	0	False
15.279	1.0	16.023	0.1	2.272	True	89.0	High-Low	switch	twobytwo	89.0	0.644	blue	9.0	cue_switch	magnitude	stay	stim	poldrack-single-stim	s598	0	False
18.455	1.0	19.769	0.9	2.408	True	89.0	Color	n/a	twobytwo	89.0	0.414	orange	8.0	task_switch	color	switch	stim	poldrack-single-stim	s598	0	False
20.967	1.0	21.71	0.1	2.136	True	71.0	Color	stay	twobytwo	71.0	0.643	blue	6.0	cue_stay	color	stay	stim	poldrack-single-stim	s598	0	False
23.21	1.0	24.014	0.1	2.272	True	89.0	High-Low	n/a	twobytwo	89.0	0.704	orange	8.0	task_switch	magnitude	switch	stim	poldrack-single-stim	s598	0	False
26.394	1.0	27.774	0.9	2.0	True	71.0	Magnitude	switch	twobytwo	71.0	0.48	blue	4.0	cue_switch	magnitude	stay	stim	poldrack-single-stim	s598	0	False
29.303	1.0	31.03	0.9	2.136	True	89.0	High-Low	switch	twobytwo	89.0	0.827	blue	6.0	cue_switch	magnitude	stay	stim	poldrack-single-stim	s598	0	False
32.346	1.0	33.717	0.9	2.272	True	89.0	High-Low	stay	twobytwo	89.0	0.471	blue	6.0	cue_stay	magnitude	stay	stim	poldrack-single-stim	s598	0	False
34.725	1.0	35.465	0.1	2.0	True	89.0	Color	n/a	twobytwo	89.0	0.64	orange	8.0	task_switch	color	switch	stim	poldrack-single-stim	s598	0	False
37.633	1.0	39.036	0.9	2.68	True	89.0	High-Low	n/a	twobytwo	89.0	0.503	orange	6.0	task_switch	magnitude	switch	stim	poldrack-single-stim	s598	0	False
40.421	1.0	41.357	0.1	2.0	True	89.0	Magnitude	switch	twobytwo	89.0	0.836	orange	6.0	cue_switch	magnitude	stay	stim	poldrack-single-stim	s598	0	False
42.527	1.0	43.287	0.1	2.0	True	89.0	Orange-Blue	n/a	twobytwo	89.0	0.66	orange	8.0	task_switch	color	switch	stim	poldrack-single-stim	s598	0	False
44.634	1.0	45.445	0.1	2.0	True	89.0	Orange-Blue	stay	twobytwo	89.0	0.711	orange	8.0	cue_stay	color	stay	stim	poldrack-single-stim	s598	0	False
47.541	1.0	48.962	0.9	2.272	True	89.0	Magnitude	n/a	twobytwo	89.0	0.521	orange	9.0	task_switch	magnitude	switch	stim	poldrack-single-stim	s598	0	False
49.919	1.0	50.72	0.1	2.0	True	71.0	Color	n/a	twobytwo	71.0	0.701	blue	1.0	task_switch	color	switch	stim	poldrack-single-stim	s598	0	False
52.823	1.0	54.18	0.9	2.0	True	89.0	Magnitude	n/a	twobytwo	89.0	0.457	orange	7.0	task_switch	magnitude	switch	stim	poldrack-single-stim	s598	0	False
54.932	1.0	55.709	0.1	2.0	True	89.0	Color	n/a	twobytwo	89.0	0.677	orange	9.0	task_switch	color	switch	stim	poldrack-single-stim	s598	0	False
57.837	1.0	59.302	0.9	2.68	True	71.0	Color	stay	twobytwo	71.0	0.565	blue	9.0	cue_stay	color	stay	stim	poldrack-single-stim	s598	0	False
61.429	1.0	62.795	0.9	2.0	True	71.0	Color	stay	twobytwo	71.0	0.466	blue	3.0	cue_stay	color	stay	stim	poldrack-single-stim	s598	0	False
63.538	1.0	64.311	0.1	2.136	True	89.0	High-Low	n/a	twobytwo	89.0	0.673	blue	9.0	task_switch	magnitude	switch	stim	poldrack-single-stim	s598	0	False
66.583	1.0	68.13	0.9	2.408	True	71.0	Magnitude	switch	twobytwo	71.0	0.647	orange	1.0	cue_switch	magnitude	stay	stim	poldrack-single-stim	s598	0	False
69.895	1.0	71.317	0.9	2.136	True	89.0	Magnitude	stay	twobytwo	89.0	0.522	blue	8.0	cue_stay	magnitude	stay	stim	poldrack-single-stim	s598	0	False
72.934	1.0	74.379	0.9	2.0	True	89.0	Magnitude	stay	twobytwo	89.0	0.545	blue	9.0	cue_stay	magnitude	stay	stim	poldrack-single-stim	s598	0	False
75.039	1.0	75.771	0.1	2.0	True	71.0	Color	n/a	twobytwo	71.0	0.632	blue	1.0	task_switch	color	switch	stim	poldrack-single-stim	s598	0	False
77.946	1.0	79.451	0.9	2.544	True	89.0	Magnitude	n/a	twobytwo	89.0	0.605	blue	8.0	task_switch	magnitude	switch	stim	poldrack-single-stim	s598	0	False
81.394	1.0	82.853	0.9	2.136	True	89.0	Magnitude	stay	twobytwo	89.0	0.559	blue	9.0	cue_stay	magnitude	stay	stim	poldrack-single-stim	s598	0	False
83.637	1.0	84.53	0.1	2.544	True	71.0	Magnitude	stay	twobytwo	71.0	0.793	blue	3.0	cue_stay	magnitude	stay	stim	poldrack-single-stim	s598	0	False
87.085	1.0	88.462	0.9	2.68	True	71.0	Color	n/a	twobytwo	71.0	0.477	blue	7.0	task_switch	color	switch	stim	poldrack-single-stim	s598	0	False
89.871	1.0	90.748	0.1	2.0	True	71.0	Orange-Blue	switch	twobytwo	71.0	0.777	blue	8.0	cue_switch	color	stay	stim	poldrack-single-stim	s598	0	False
92.778	1.0	94.267	0.9	2.272	True	71.0	Magnitude	n/a	twobytwo	71.0	0.589	orange	4.0	task_switch	magnitude	switch	stim	poldrack-single-stim	s598	0	False
95.957	1.0	97.298	0.9	3.088	True	89.0	Orange-Blue	n/a	twobytwo	89.0	0.441	orange	3.0	task_switch	color	switch	stim	poldrack-single-stim	s598	0	False
99.155	1.0	99.977	0.1	2.0	True	71.0	High-Low	n/a	twobytwo	71.0	0.722	orange	4.0	task_switch	magnitude	switch	stim	poldrack-single-stim	s598	0	False
102.06	1.0	103.506	0.9	2.136	True	89.0	High-Low	stay	twobytwo	89.0	0.546	orange	7.0	cue_stay	magnitude	stay	stim	poldrack-single-stim	s598	0	False
104.301	1.0	105.07	0.1	2.136	True	71.0	Color	n/a	twobytwo	71.0	0.669	blue	4.0	task_switch	color	switch	stim	poldrack-single-stim	s598	0	False
107.343	1.0	108.697	0.9	2.0	True	71.0	Color	stay	twobytwo	71.0	0.454	blue	6.0	cue_stay	color	stay	stim	poldrack-single-stim	s598	0	False
110.255	1.0	111.681	0.9	2.272	True	71.0	Orange-Blue	switch	twobytwo	71.0	0.526	blue	1.0	cue_switch	color	stay	stim	poldrack-single-stim	s598	0	False
113.431	1.0	114.794	0.9	2.0	True	71.0	High-Low	n/a	twobytwo	71.0	0.463	orange	2.0	task_switch	magnitude	switch	stim	poldrack-single-stim	s598	0	False
116.338	1.0	117.719	0.9	2.136	True	71.0	Color	n/a	twobytwo	71.0	0.481	blue	3.0	task_switch	color	switch	stim	poldrack-single-stim	s598	0	False
118.578	1.0	119.308	0.1	2.136	True	89.0	Magnitude	n/a	twobytwo	89.0	0.63	orange	9.0	task_switch	magnitude	switch	stim	poldrack-single-stim	s598	0	False
121.62	1.0	122.997	0.9	2.544	True	71.0	Magnitude	stay	twobytwo	71.0	0.477	orange	3.0	cue_stay	magnitude	stay	stim	poldrack-single-stim	s598	0	False
125.071	1.0	126.596	0.9	2.0	True	89.0	Color	n/a	twobytwo	89.0	0.625	orange	2.0	task_switch	color	switch	stim	poldrack-single-stim	s598	0	False
127.975	1.0	129.714	0.9	2.136	True	89.0	Color	stay	twobytwo	89.0	0.839	orange	3.0	cue_stay	color	stay	stim	poldrack-single-stim	s598	0	False
131.015	1.0	132.473	0.9	2.136	True	71.0	Magnitude	n/a	twobytwo	71.0	0.558	orange	2.0	task_switch	magnitude	switch	stim	poldrack-single-stim	s598	0	False
133.255	1.0	134.058	0.1	2.136	True	89.0	Orange-Blue	n/a	twobytwo	89.0	0.703	orange	4.0	task_switch	color	switch	stim	poldrack-single-stim	s598	0	False
136.298	1.0	137.757	0.9	2.0	True	71.0	Magnitude	n/a	twobytwo	71.0	0.559	blue	1.0	task_switch	magnitude	switch	stim	poldrack-single-stim	s598	0	False
138.407	1.0	139.096	0.1	2.136	True	71.0	Color	n/a	twobytwo	71.0	0.589	blue	4.0	task_switch	color	switch	stim	poldrack-single-stim	s598	0	False
141.45	1.0	142.751	0.9	2.0	True	71.0	Color	stay	twobytwo	71.0	0.401	blue	1.0	cue_stay	color	stay	stim	poldrack-single-stim	s598	0	False
143.559	1.0	144.384	0.1	2.136	True	71.0	Orange-Blue	switch	twobytwo	71.0	0.725	blue	6.0	cue_switch	color	stay	stim	poldrack-single-stim	s598	0	False
146.602	1.0	147.995	0.9	2.816	True	89.0	Magnitude	n/a	twobytwo	89.0	0.493	orange	9.0	task_switch	magnitude	switch	stim	poldrack-single-stim	s598	0	False
150.327	1.0	151.79	0.9	2.136	True	71.0	Magnitude	stay	twobytwo	71.0	0.563	blue	1.0	cue_stay	magnitude	stay	stim	poldrack-single-stim	s598	0	False
152.57	1.0	153.475	0.1	2.0	True	89.0	Magnitude	stay	twobytwo	89.0	0.805	blue	7.0	cue_stay	magnitude	stay	stim	poldrack-single-stim	s598	0	False
155.475	1.0	156.837	0.9	2.0	True	89.0	Color	n/a	twobytwo	89.0	0.462	orange	7.0	task_switch	color	switch	stim	poldrack-single-stim	s598	0	False
158.383	1.0	159.782	0.9	2.272	True	71.0	Color	stay	twobytwo	71.0	0.499	blue	8.0	cue_stay	color	stay	stim	poldrack-single-stim	s598	0	False
160.762	1.0	161.613	0.1	2.0	True	71.0	High-Low	n/a	twobytwo	71.0	0.751	blue	2.0	task_switch	magnitude	switch	stim	poldrack-single-stim	s598	0	False
163.668	1.0	165.088	0.9	2.0	True	71.0	Orange-Blue	n/a	twobytwo	71.0	0.52	blue	2.0	task_switch	color	switch	stim	poldrack-single-stim	s598	0	False
165.775	1.0	166.571	0.1	2.0	True	71.0	High-Low	n/a	twobytwo	71.0	0.696	blue	3.0	task_switch	magnitude	switch	stim	poldrack-single-stim	s598	0	False
168.679	1.0	170.036	0.9	2.408	True	71.0	Color	n/a	twobytwo	71.0	0.457	blue	9.0	task_switch	color	switch	stim	poldrack-single-stim	s598	0	False
171.994	1.0	173.35	0.9	2.272	True	71.0	Color	stay	twobytwo	71.0	0.456	blue	9.0	cue_stay	color	stay	stim	poldrack-single-stim	s598	0	False
175.17	1.0	176.714	0.9	2.136	True	71.0	High-Low	n/a	twobytwo	71.0	0.644	blue	4.0	task_switch	magnitude	switch	stim	poldrack-single-stim	s598	0	False
177.418	1.0	178.188	0.1	2.0	True	89.0	Magnitude	switch	twobytwo	89.0	0.67	blue	9.0	cue_switch	magnitude	stay	stim	poldrack-single-stim	s598	0	False
179.525	1.0	180.503	0.1	2.0	True	71.0	Orange-Blue	n/a	twobytwo	71.0	0.878	blue	8.0	task_switch	color	switch	stim	poldrack-single-stim	s598	0	False
182.428	1.0	183.867	0.9	2.136	True	89.0	Magnitude	n/a	twobytwo	89.0	0.539	blue	7.0	task_switch	magnitude	switch	stim	poldrack-single-stim	s598	0	False
185.471	1.0	186.719	0.9	2.0	True	71.0	Orange-Blue	n/a	twobytwo	71.0	0.348	blue	3.0	task_switch	color	switch	stim	poldrack-single-stim	s598	0	False
188.375	1.0	189.793	0.9	2.136	True	71.0	Magnitude	n/a	twobytwo	71.0	0.518	blue	1.0	task_switch	magnitude	switch	stim	poldrack-single-stim	s598	0	False
191.421	1.0	192.924	0.9	2.408	True	89.0	Magnitude	stay	twobytwo	89.0	0.603	blue	8.0	cue_stay	magnitude	stay	stim	poldrack-single-stim	s598	0	False
194.733	1.0	196.108	0.9	2.136	True	89.0	Orange-Blue	n/a	twobytwo	89.0	0.475	orange	6.0	task_switch	color	switch	stim	poldrack-single-stim	s598	0	False
196.975	1.0	197.727	0.1	2.0	True	71.0	High-Low	n/a	twobytwo	71.0	0.652	blue	2.0	task_switch	magnitude	switch	stim	poldrack-single-stim	s598	0	False
199.879	1.0	201.369	0.9	2.136	True	89.0	Orange-Blue	n/a	twobytwo	89.0	0.59	orange	6.0	task_switch	color	switch	stim	poldrack-single-stim	s598	0	False
202.122	1.0	202.999	0.1	2.272	True	89.0	Orange-Blue	stay	twobytwo	89.0	0.777	orange	9.0	cue_stay	color	stay	stim	poldrack-single-stim	s598	0	False
204.501	1.0	205.208	0.1	2.0	True	71.0	Magnitude	n/a	twobytwo	71.0	0.607	orange	1.0	task_switch	magnitude	switch	stim	poldrack-single-stim	s598	0	False
206.61	1.0	207.32	0.1	2.408	True	71.0	Orange-Blue	n/a	twobytwo	71.0	0.61	blue	1.0	task_switch	color	switch	stim	poldrack-single-stim	s598	0	False
209.925	1.0	211.248	0.9	2.0	True	71.0	Color	switch	twobytwo	71.0	0.423	blue	1.0	cue_switch	color	stay	stim	poldrack-single-stim	s598	0	False
212.034	1.0	212.736	0.1	2.136	True	89.0	Magnitude	n/a	twobytwo	89.0	0.602	orange	8.0	task_switch	magnitude	switch	stim	poldrack-single-stim	s598	0	False
215.079	1.0	216.606	0.9	2.408	True	89.0	Orange-Blue	n/a	twobytwo	89.0	0.627	orange	8.0	task_switch	color	switch	stim	poldrack-single-stim	s598	0	False
218.391	1.0	219.967	0.9	2.136	True	71.0	High-Low	n/a	twobytwo	71.0	0.676	orange	4.0	task_switch	magnitude	switch	stim	poldrack-single-stim	s598	0	False
220.631	1.0	221.422	0.1	2.408	True	89.0	Color	n/a	twobytwo	89.0	0.691	orange	8.0	task_switch	color	switch	stim	poldrack-single-stim	s598	0	False
223.943	1.0	225.243	0.9	2.136	True	89.0	High-Low	n/a	twobytwo	89.0	0.4	blue	8.0	task_switch	magnitude	switch	stim	poldrack-single-stim	s598	0	False
240.506	1.0	241.913	0.9	2.0	True	71.0	High-Low	n/a	twobytwo	71.0	0.507	blue	1.0	task_switch	magnitude	switch	stim	poldrack-single-stim	s598	1	False
242.612	1.0	243.42	0.1	2.272	True	89.0	High-Low	stay	twobytwo	89.0	0.708	blue	9.0	cue_stay	magnitude	stay	stim	poldrack-single-stim	s598	0	False
245.791	1.0	247.435	0.9	2.0	True	71.0	Magnitude	switch	twobytwo	71.0	0.744	blue	3.0	cue_switch	magnitude	stay	stim	poldrack-single-stim	s598	0	False
247.898	1.0	248.603	0.1	2.272	True	89.0	High-Low	switch	twobytwo	89.0	0.605	blue	8.0	cue_switch	magnitude	stay	stim	poldrack-single-stim	s598	0	False
250.277	1.0	250.951	0.1	2.272	True	89.0	Magnitude	switch	twobytwo	89.0	0.574	blue	9.0	cue_switch	magnitude	stay	stim	poldrack-single-stim	s598	0	False
253.452	1.0	254.752	0.9	2.952	True	89.0	Color	n/a	twobytwo	89.0	0.4	orange	8.0	task_switch	color	switch	stim	poldrack-single-stim	s598	0	False
256.508	1.0	257.26	0.1	2.68	True	71.0	Color	stay	twobytwo	71.0	0.652	blue	6.0	cue_stay	color	stay	stim	poldrack-single-stim	s598	0	False
259.293	1.0	260.153	0.1	2.136	True	89.0	High-Low	n/a	twobytwo	89.0	0.76	orange	8.0	task_switch	magnitude	switch	stim	poldrack-single-stim	s598	0	False
262.335	1.0	263.753	0.9	2.272	True	71.0	Magnitude	switch	twobytwo	71.0	0.518	blue	4.0	cue_switch	magnitude	stay	stim	poldrack-single-stim	s598	0	False
265.514	1.0	267.329	0.9	2.272	True	89.0	High-Low	switch	twobytwo	89.0	0.915	blue	6.0	cue_switch	magnitude	stay	stim	poldrack-single-stim	s598	0	False
268.689	1.0	270.097	0.9	2.136	True	89.0	High-Low	stay	twobytwo	89.0	0.508	blue	6.0	cue_stay	magnitude	stay	stim	poldrack-single-stim	s598	0	False
270.935	1.0	271.688	0.1	2.408	True	89.0	Color	n/a	twobytwo	89.0	0.653	orange	8.0	task_switch	color	switch	stim	poldrack-single-stim	s598	0	False
274.252	1.0	275.67	0.9	2.136	True	89.0	Magnitude	n/a	twobytwo	89.0	0.518	orange	6.0	task_switch	magnitude	switch	stim	poldrack-single-stim	s598	0	False
276.493	1.0	277.343	0.1	2.136	True	89.0	High-Low	switch	twobytwo	89.0	0.75	orange	6.0	cue_switch	magnitude	stay	stim	poldrack-single-stim	s598	0	False
278.735	1.0	279.482	0.1	2.0	True	89.0	Orange-Blue	n/a	twobytwo	89.0	0.647	orange	8.0	task_switch	color	switch	stim	poldrack-single-stim	s598	0	False
280.842	1.0	281.7	0.1	2.0	True	89.0	Orange-Blue	stay	twobytwo	89.0	0.758	orange	8.0	cue_stay	color	stay	stim	poldrack-single-stim	s598	0	False
283.749	1.0	285.273	0.9	2.0	True	89.0	Magnitude	n/a	twobytwo	89.0	0.624	orange	9.0	task_switch	magnitude	switch	stim	poldrack-single-stim	s598	0	False
285.855	1.0	286.551	0.1	2.0	True	71.0	Color	n/a	twobytwo	71.0	0.596	blue	1.0	task_switch	color	switch	stim	poldrack-single-stim	s598	0	False
288.762	1.0	290.302	0.9	2.0	True	89.0	Magnitude	n/a	twobytwo	89.0	0.64	orange	7.0	task_switch	magnitude	switch	stim	poldrack-single-stim	s598	0	False
290.869	1.0	291.642	0.1	2.272	True	89.0	Orange-Blue	n/a	twobytwo	89.0	0.673	orange	9.0	task_switch	color	switch	stim	poldrack-single-stim	s598	0	False
294.049	1.0	295.308	0.9	2.408	True	71.0	Orange-Blue	stay	twobytwo	71.0	0.359	blue	9.0	cue_stay	color	stay	stim	poldrack-single-stim	s598	0	False
297.364	1.0	298.724	0.9	2.0	True	71.0	Orange-Blue	stay	twobytwo	71.0	0.46	blue	3.0	cue_stay	color	stay	stim	poldrack-single-stim	s598	0	False
299.474	1.0	300.485	0.1	2.136	True	89.0	Magnitude	n/a	twobytwo	89.0	0.911	blue	9.0	task_switch	magnitude	switch	stim	poldrack-single-stim	s598	0	False
302.522	1.0	303.969	0.9	2.0	True	71.0	High-Low	switch	twobytwo	71.0	0.547	orange	1.0	cue_switch	magnitude	stay	stim	poldrack-single-stim	s598	0	False
305.426	1.0	306.836	0.9	2.136	True	89.0	High-Low	stay	twobytwo	89.0	0.51	blue	8.0	cue_stay	magnitude	stay	stim	poldrack-single-stim	s598	0	False
308.469	1.0	309.861	0.9	2.544	True	89.0	High-Low	stay	twobytwo	89.0	0.492	blue	9.0	cue_stay	magnitude	stay	stim	poldrack-single-stim	s598	0	False
311.116	1.0	311.829	0.1	2.68	True	71.0	Color	n/a	twobytwo	71.0	0.613	blue	1.0	task_switch	color	switch	stim	poldrack-single-stim	s598	0	False
314.703	1.0	316.069	0.9	3.088	True	89.0	Magnitude	n/a	twobytwo	89.0	0.466	blue	8.0	task_switch	magnitude	switch	stim	poldrack-single-stim	s598	0	False
318.695	1.0	320.15	0.9	2.136	True	89.0	Magnitude	stay	twobytwo	89.0	0.555	blue	9.0	cue_stay	magnitude	stay	stim	poldrack-single-stim	s598	0	False
320.938	1.0	321.784	0.1	2.544	True	71.0	Magnitude	stay	twobytwo	71.0	0.746	blue	3.0	cue_stay	magnitude	stay	stim	poldrack-single-stim	s598	0	False
324.388	1.0	325.746	0.9	2.0	True	71.0	Color	n/a	twobytwo	71.0	0.458	blue	7.0	task_switch	color	switch	stim	poldrack-single-stim	s598	0	False
326.498	1.0	327.31	0.1	2.136	False	71.0	Orange-Blue	switch	twobytwo	89.0	0.712	blue	8.0	cue_switch	color	stay	stim	poldrack-single-stim	s598	0	False
329.54	1.0	331.132	0.9	2.0	True	71.0	High-Low	n/a	twobytwo	71.0	0.692	orange	4.0	task_switch	magnitude	switch	stim	poldrack-single-stim	s598	0	False
332.445	1.0	333.745	0.9	2.408	True	89.0	Orange-Blue	n/a	twobytwo	89.0	0.4	orange	3.0	task_switch	color	switch	stim	poldrack-single-stim	s598	0	False
334.959	1.0	336.31	0.1	2.0	True	71.0	Magnitude	n/a	twobytwo	71.0	1.251	orange	4.0	task_switch	magnitude	switch	stim	poldrack-single-stim	s598	0	False
337.869	1.0	339.304	0.9	2.0	True	89.0	Magnitude	stay	twobytwo	89.0	0.535	orange	7.0	cue_stay	magnitude	stay	stim	poldrack-single-stim	s598	0	False
339.978	1.0	340.746	0.1	2.0	True	71.0	Color	n/a	twobytwo	71.0	0.668	blue	4.0	task_switch	color	switch	stim	poldrack-single-stim	s598	0	False
342.881	1.0	344.191	0.9	2.68	True	71.0	Color	stay	twobytwo	71.0	0.41	blue	6.0	cue_stay	color	stay	stim	poldrack-single-stim	s598	0	False
346.467	1.0	347.875	0.9	2.272	True	71.0	Orange-Blue	switch	twobytwo	71.0	0.508	blue	1.0	cue_switch	color	stay	stim	poldrack-single-stim	s598	0	False
349.643	1.0	351.384	0.9	2.408	True	71.0	High-Low	n/a	twobytwo	71.0	0.841	orange	2.0	task_switch	magnitude	switch	stim	poldrack-single-stim	s598	0	False
352.957	1.0	354.372	0.9	3.224	True	71.0	Color	n/a	twobytwo	71.0	0.515	blue	3.0	task_switch	color	switch	stim	poldrack-single-stim	s598	0	False
356.285	1.0	357.308	0.1	2.408	True	89.0	High-Low	n/a	twobytwo	89.0	0.923	orange	9.0	task_switch	magnitude	switch	stim	poldrack-single-stim	s598	0	False
359.599	1.0	360.984	0.9	2.816	True	71.0	High-Low	stay	twobytwo	71.0	0.485	orange	3.0	cue_stay	magnitude	stay	stim	poldrack-single-stim	s598	0	False
363.324	1.0	364.68	0.9	2.408	True	89.0	Orange-Blue	n/a	twobytwo	89.0	0.456	orange	2.0	task_switch	color	switch	stim	poldrack-single-stim	s598	0	False
366.635	1.0	367.986	0.9	2.136	True	89.0	Orange-Blue	stay	twobytwo	89.0	0.451	orange	3.0	cue_stay	color	stay	stim	poldrack-single-stim	s598	0	False
369.677	1.0	371.158	0.9	2.136	True	71.0	Magnitude	n/a	twobytwo	71.0	0.581	orange	2.0	task_switch	magnitude	switch	stim	poldrack-single-stim	s598	0	False
371.924	1.0	372.972	0.1	2.0	True	89.0	Color	n/a	twobytwo	89.0	0.948	orange	4.0	task_switch	color	switch	stim	poldrack-single-stim	s598	0	False
374.831	1.0	376.249	0.9	2.0	True	71.0	Magnitude	n/a	twobytwo	71.0	0.518	blue	1.0	task_switch	magnitude	switch	stim	poldrack-single-stim	s598	0	False
376.938	1.0	377.745	0.1	2.272	True	71.0	Orange-Blue	n/a	twobytwo	71.0	0.707	blue	4.0	task_switch	color	switch	stim	poldrack-single-stim	s598	0	False
380.114	1.0	381.402	0.9	2.408	True	71.0	Orange-Blue	stay	twobytwo	71.0	0.388	blue	1.0	cue_stay	color	stay	stim	poldrack-single-stim	s598	0	False
382.629	1.0	383.489	0.1	2.0	True	71.0	Color	switch	twobytwo	71.0	0.76	blue	6.0	cue_switch	color	stay	stim	poldrack-single-stim	s598	0	False
385.533	1.0	386.947	0.9	2.136	True	89.0	High-Low	n/a	twobytwo	89.0	0.514	orange	9.0	task_switch	magnitude	switch	stim	poldrack-single-stim	s598	0	False
388.575	1.0	390.002	0.9	2.0	True	71.0	High-Low	stay	twobytwo	71.0	0.527	blue	1.0	cue_stay	magnitude	stay	stim	poldrack-single-stim	s598	0	False
390.684	1.0	391.52	0.1	2.408	True	89.0	High-Low	stay	twobytwo	89.0	0.736	blue	7.0	cue_stay	magnitude	stay	stim	poldrack-single-stim	s598	0	False
393.999	1.0	395.285	0.9	2.272	True	89.0	Color	n/a	twobytwo	89.0	0.386	orange	7.0	task_switch	color	switch	stim	poldrack-single-stim	s598	0	False
397.178	1.0	398.651	0.9	2.0	True	71.0	Color	stay	twobytwo	71.0	0.573	blue	8.0	cue_stay	color	stay	stim	poldrack-single-stim	s598	0	False
399.286	1.0	400.099	0.1	2.272	True	71.0	Magnitude	n/a	twobytwo	71.0	0.713	blue	2.0	task_switch	magnitude	switch	stim	poldrack-single-stim	s598	0	False
402.469	1.0	403.8	0.9	2.0	True	71.0	Orange-Blue	n/a	twobytwo	71.0	0.431	blue	2.0	task_switch	color	switch	stim	poldrack-single-stim	s598	0	False
404.575	1.0	405.319	0.1	2.0	True	71.0	High-Low	n/a	twobytwo	71.0	0.644	blue	3.0	task_switch	magnitude	switch	stim	poldrack-single-stim	s598	0	False
407.482	1.0	408.898	0.9	2.272	True	71.0	Orange-Blue	n/a	twobytwo	71.0	0.516	blue	9.0	task_switch	color	switch	stim	poldrack-single-stim	s598	0	False
410.66	1.0	412.324	0.9	2.136	True	71.0	Orange-Blue	stay	twobytwo	71.0	0.764	blue	9.0	cue_stay	color	stay	stim	poldrack-single-stim	s598	0	False
413.7	1.0	415.121	0.9	2.0	True	71.0	Magnitude	n/a	twobytwo	71.0	0.521	blue	4.0	task_switch	magnitude	switch	stim	poldrack-single-stim	s598	0	False
415.811	1.0	416.626	0.1	2.0	True	89.0	High-Low	switch	twobytwo	89.0	0.715	blue	9.0	cue_switch	magnitude	stay	stim	poldrack-single-stim	s598	0	False
417.919	1.0	418.568	0.1	2.0	True	71.0	Color	n/a	twobytwo	71.0	0.549	blue	8.0	task_switch	color	switch	stim	poldrack-single-stim	s598	0	False
420.831	1.0	422.319	0.9	2.0	True	89.0	High-Low	n/a	twobytwo	89.0	0.588	blue	7.0	task_switch	magnitude	switch	stim	poldrack-single-stim	s598	0	False
423.737	1.0	425.148	0.9	2.0	True	71.0	Orange-Blue	n/a	twobytwo	71.0	0.511	blue	3.0	task_switch	color	switch	stim	poldrack-single-stim	s598	0	False
426.642	1.0	428.121	0.9	2.136	True	71.0	High-Low	n/a	twobytwo	71.0	0.579	blue	1.0	task_switch	magnitude	switch	stim	poldrack-single-stim	s598	0	False
429.685	1.0	431.071	0.9	2.0	True	89.0	High-Low	stay	twobytwo	89.0	0.486	blue	8.0	cue_stay	magnitude	stay	stim	poldrack-single-stim	s598	0	False
432.587	1.0	433.931	0.9	2.0	True	89.0	Orange-Blue	n/a	twobytwo	89.0	0.444	orange	6.0	task_switch	color	switch	stim	poldrack-single-stim	s598	0	False
434.695	1.0	435.408	0.1	2.136	True	71.0	High-Low	n/a	twobytwo	71.0	0.613	blue	2.0	task_switch	magnitude	switch	stim	poldrack-single-stim	s598	0	False
437.734	1.0	439.044	0.9	2.0	True	89.0	Orange-Blue	n/a	twobytwo	89.0	0.41	orange	6.0	task_switch	color	switch	stim	poldrack-single-stim	s598	0	False
439.842	1.0	440.642	0.1	2.136	True	89.0	Orange-Blue	stay	twobytwo	89.0	0.7	orange	9.0	cue_stay	color	stay	stim	poldrack-single-stim	s598	0	False
442.084	1.0	442.812	0.1	2.68	True	71.0	High-Low	n/a	twobytwo	71.0	0.628	orange	1.0	task_switch	magnitude	switch	stim	poldrack-single-stim	s598	0	False
444.873	1.0	445.65	0.1	2.272	True	71.0	Color	n/a	twobytwo	71.0	0.677	blue	1.0	task_switch	color	switch	stim	poldrack-single-stim	s598	0	False
448.05	1.0	449.381	0.9	2.136	True	71.0	Orange-Blue	switch	twobytwo	71.0	0.431	blue	1.0	cue_switch	color	stay	stim	poldrack-single-stim	s598	0	False
450.293	1.0	451.069	0.1	2.0	True	89.0	Magnitude	n/a	twobytwo	89.0	0.676	orange	8.0	task_switch	magnitude	switch	stim	poldrack-single-stim	s598	0	False
453.197	1.0	454.503	0.9	2.136	True	89.0	Orange-Blue	n/a	twobytwo	89.0	0.406	orange	8.0	task_switch	color	switch	stim	poldrack-single-stim	s598	0	False
456.237	1.0	457.619	0.9	2.68	True	71.0	High-Low	n/a	twobytwo	71.0	0.482	orange	4.0	task_switch	magnitude	switch	stim	poldrack-single-stim	s598	0	False
459.023	1.0	459.909	0.1	2.272	True	89.0	Color	n/a	twobytwo	89.0	0.786	orange	8.0	task_switch	color	switch	stim	poldrack-single-stim	s598	0	False
462.202	1.0	463.61	0.9	2.0	True	89.0	Magnitude	n/a	twobytwo	89.0	0.508	blue	8.0	task_switch	magnitude	switch	stim	poldrack-single-stim	s598	0	False
478.628	1.0	479.989	0.9	2.0	True	71.0	High-Low	n/a	twobytwo	71.0	0.461	blue	1.0	task_switch	magnitude	switch	stim	poldrack-single-stim	s598	1	False
480.737	1.0	481.6	0.1	2.136	True	89.0	High-Low	stay	twobytwo	89.0	0.763	blue	9.0	cue_stay	magnitude	stay	stim	poldrack-single-stim	s598	0	False
483.781	1.0	485.123	0.9	2.0	True	71.0	Magnitude	switch	twobytwo	71.0	0.442	blue	3.0	cue_switch	magnitude	stay	stim	poldrack-single-stim	s598	0	False
485.887	1.0	486.679	0.1	2.0	True	89.0	High-Low	switch	twobytwo	89.0	0.692	blue	8.0	cue_switch	magnitude	stay	stim	poldrack-single-stim	s598	0	False
487.994	1.0	488.785	0.1	2.0	True	89.0	Magnitude	switch	twobytwo	89.0	0.691	blue	9.0	cue_switch	magnitude	stay	stim	poldrack-single-stim	s598	0	False
490.901	1.0	492.232	0.9	2.272	True	89.0	Orange-Blue	n/a	twobytwo	89.0	0.431	orange	8.0	task_switch	color	switch	stim	poldrack-single-stim	s598	0	False
493.276	1.0	494.291	0.1	2.408	True	71.0	Orange-Blue	stay	twobytwo	71.0	0.915	blue	6.0	cue_stay	color	stay	stim	poldrack-single-stim	s598	0	False
495.791	1.0	496.463	0.1	2.0	True	89.0	High-Low	n/a	twobytwo	89.0	0.572	orange	8.0	task_switch	magnitude	switch	stim	poldrack-single-stim	s598	0	False
498.698	1.0	500.041	0.9	2.0	True	71.0	Magnitude	switch	twobytwo	71.0	0.443	blue	4.0	cue_switch	magnitude	stay	stim	poldrack-single-stim	s598	0	False
501.61	1.0	503.106	0.9	2.0	True	89.0	High-Low	switch	twobytwo	89.0	0.596	blue	6.0	cue_switch	magnitude	stay	stim	poldrack-single-stim	s598	0	False
504.522	1.0	505.919	0.9	2.272	True	89.0	High-Low	stay	twobytwo	89.0	0.497	blue	6.0	cue_stay	magnitude	stay	stim	poldrack-single-stim	s598	0	False
506.903	1.0	507.664	0.1	2.136	True	89.0	Orange-Blue	n/a	twobytwo	89.0	0.661	orange	8.0	task_switch	color	switch	stim	poldrack-single-stim	s598	0	False
509.946	1.0	511.507	0.9	2.0	True	89.0	Magnitude	n/a	twobytwo	89.0	0.661	orange	6.0	task_switch	magnitude	switch	stim	poldrack-single-stim	s598	0	False
512.053	1.0	512.869	0.1	2.544	True	89.0	High-Low	switch	twobytwo	89.0	0.716	orange	6.0	cue_switch	magnitude	stay	stim	poldrack-single-stim	s598	0	False
514.703	1.0	515.581	0.1	2.272	True	89.0	Color	n/a	twobytwo	89.0	0.778	orange	8.0	task_switch	color	switch	stim	poldrack-single-stim	s598	0	False
517.082	1.0	517.75	0.1	2.272	True	89.0	Color	stay	twobytwo	89.0	0.568	orange	8.0	cue_stay	color	stay	stim	poldrack-single-stim	s598	0	False
520.258	1.0	521.631	0.9	2.0	True	89.0	High-Low	n/a	twobytwo	89.0	0.473	orange	9.0	task_switch	magnitude	switch	stim	poldrack-single-stim	s598	0	False
522.362	1.0	523.103	0.1	2.0	True	71.0	Orange-Blue	n/a	twobytwo	71.0	0.641	blue	1.0	task_switch	color	switch	stim	poldrack-single-stim	s598	0	False
525.266	1.0	526.646	0.9	2.136	True	89.0	High-Low	n/a	twobytwo	89.0	0.48	orange	7.0	task_switch	magnitude	switch	stim	poldrack-single-stim	s598	0	False
527.514	1.0	528.252	0.1	2.0	True	89.0	Orange-Blue	n/a	twobytwo	89.0	0.638	orange	9.0	task_switch	color	switch	stim	poldrack-single-stim	s598	0	False
530.418	1.0	531.685	0.9	2.136	True	71.0	Orange-Blue	stay	twobytwo	71.0	0.367	blue	9.0	cue_stay	color	stay	stim	poldrack-single-stim	s598	0	False
533.461	1.0	534.754	0.9	2.272	True	71.0	Orange-Blue	stay	twobytwo	71.0	0.393	blue	3.0	cue_stay	color	stay	stim	poldrack-single-stim	s598	0	False
535.837	1.0	536.478	0.1	2.136	True	89.0	Magnitude	n/a	twobytwo	89.0	0.541	blue	9.0	task_switch	magnitude	switch	stim	poldrack-single-stim	s598	0	False
538.879	1.0	540.344	0.9	2.272	True	71.0	High-Low	switch	twobytwo	71.0	0.565	orange	1.0	cue_switch	magnitude	stay	stim	poldrack-single-stim	s598	0	False
542.058	1.0	543.561	0.9	2.0	True	89.0	High-Low	stay	twobytwo	89.0	0.603	blue	8.0	cue_stay	magnitude	stay	stim	poldrack-single-stim	s598	0	False
544.968	1.0	546.331	0.9	2.816	True	89.0	High-Low	stay	twobytwo	89.0	0.463	blue	9.0	cue_stay	magnitude	stay	stim	poldrack-single-stim	s598	0	False
547.89	1.0	548.641	0.1	2.408	True	71.0	Orange-Blue	n/a	twobytwo	71.0	0.651	blue	1.0	task_switch	color	switch	stim	poldrack-single-stim	s598	0	False
551.204	1.0	552.524	0.9	2.0	True	89.0	High-Low	n/a	twobytwo	89.0	0.42	blue	8.0	task_switch	magnitude	switch	stim	poldrack-single-stim	s598	0	False
554.111	1.0	555.497	0.9	2.544	True	89.0	High-Low	stay	twobytwo	89.0	0.486	blue	9.0	cue_stay	magnitude	stay	stim	poldrack-single-stim	s598	0	False
556.765	1.0	557.575	0.1	2.136	True	71.0	High-Low	stay	twobytwo	71.0	0.71	blue	3.0	cue_stay	magnitude	stay	stim	poldrack-single-stim	s598	0	False
559.807	1.0	561.221	0.9	2.0	True	71.0	Orange-Blue	n/a	twobytwo	71.0	0.514	blue	7.0	task_switch	color	switch	stim	poldrack-single-stim	s598	0	False
561.914	1.0	562.788	0.1	2.0	False	71.0	Color	switch	twobytwo	89.0	0.774	blue	8.0	cue_switch	color	stay	stim	poldrack-single-stim	s598	0	False
564.818	1.0	566.268	0.9	2.136	True	71.0	High-Low	n/a	twobytwo	71.0	0.55	orange	4.0	task_switch	magnitude	switch	stim	poldrack-single-stim	s598	0	False
567.858	1.0	569.539	0.9	2.136	True	89.0	Color	n/a	twobytwo	89.0	0.781	orange	3.0	task_switch	color	switch	stim	poldrack-single-stim	s598	0	False
570.106	1.0	570.891	0.1	2.272	True	71.0	High-Low	n/a	twobytwo	71.0	0.685	orange	4.0	task_switch	magnitude	switch	stim	poldrack-single-stim	s598	0	False
573.282	1.0	574.737	0.9	3.224	True	89.0	High-Low	stay	twobytwo	89.0	0.555	orange	7.0	cue_stay	magnitude	stay	stim	poldrack-single-stim	s598	0	False
576.613	1.0	577.386	0.1	2.0	True	71.0	Color	n/a	twobytwo	71.0	0.673	blue	4.0	task_switch	color	switch	stim	poldrack-single-stim	s598	0	False
579.519	1.0	581.062	0.9	2.0	True	71.0	Color	stay	twobytwo	71.0	0.643	blue	6.0	cue_stay	color	stay	stim	poldrack-single-stim	s598	0	False
582.426	1.0	583.857	0.9	2.272	True	71.0	Orange-Blue	switch	twobytwo	71.0	0.531	blue	1.0	cue_switch	color	stay	stim	poldrack-single-stim	s598	0	False
585.601	1.0	587.533	0.9	2.136	True	71.0	High-Low	n/a	twobytwo	71.0	1.032	orange	2.0	task_switch	magnitude	switch	stim	poldrack-single-stim	s598	0	False
588.645	1.0	590.006	0.9	2.0	True	71.0	Color	n/a	twobytwo	71.0	0.461	blue	3.0	task_switch	color	switch	stim	poldrack-single-stim	s598	0	False
590.751	1.0	591.495	0.1	2.0	True	89.0	Magnitude	n/a	twobytwo	89.0	0.644	orange	9.0	task_switch	magnitude	switch	stim	poldrack-single-stim	s598	0	False
593.656	1.0	595.042	0.9	2.0	True	71.0	Magnitude	stay	twobytwo	71.0	0.486	orange	3.0	cue_stay	magnitude	stay	stim	poldrack-single-stim	s598	0	False
596.562	1.0	598.538	0.9	2.68	False	89.0	Color	n/a	twobytwo	71.0	1.076	orange	2.0	task_switch	color	switch	stim	poldrack-single-stim	s598	0	False
600.149	1.0	601.463	0.9	2.0	True	89.0	Color	stay	twobytwo	89.0	0.414	orange	3.0	cue_stay	color	stay	stim	poldrack-single-stim	s598	0	False
603.055	1.0	604.723	0.9	2.272	True	71.0	High-Low	n/a	twobytwo	71.0	0.768	orange	2.0	task_switch	magnitude	switch	stim	poldrack-single-stim	s598	0	False
605.434	1.0	606.337	0.1	2.0	True	89.0	Color	n/a	twobytwo	89.0	0.803	orange	4.0	task_switch	color	switch	stim	poldrack-single-stim	s598	0	False
608.34	1.0	609.702	0.9	2.272	True	71.0	High-Low	n/a	twobytwo	71.0	0.462	blue	1.0	task_switch	magnitude	switch	stim	poldrack-single-stim	s598	0	False
610.717	1.0	611.402	0.1	2.952	True	71.0	Color	n/a	twobytwo	71.0	0.585	blue	4.0	task_switch	color	switch	stim	poldrack-single-stim	s598	0	False
614.575	1.0	615.957	0.9	2.0	True	71.0	Color	stay	twobytwo	71.0	0.482	blue	1.0	cue_stay	color	stay	stim	poldrack-single-stim	s598	0	False
616.682	1.0	617.466	0.1	2.0	True	71.0	Orange-Blue	switch	twobytwo	71.0	0.684	blue	6.0	cue_switch	color	stay	stim	poldrack-single-stim	s598	0	False
619.589	1.0	620.9	0.9	2.0	True	89.0	High-Low	n/a	twobytwo	89.0	0.411	orange	9.0	task_switch	magnitude	switch	stim	poldrack-single-stim	s598	0	False
622.492	1.0	623.897	0.9	2.0	True	71.0	High-Low	stay	twobytwo	71.0	0.505	blue	1.0	cue_stay	magnitude	stay	stim	poldrack-single-stim	s598	0	False
624.599	1.0	625.614	0.1	2.136	True	89.0	High-Low	stay	twobytwo	89.0	0.915	blue	7.0	cue_stay	magnitude	stay	stim	poldrack-single-stim	s598	0	False
627.642	1.0	628.985	0.9	2.0	True	89.0	Orange-Blue	n/a	twobytwo	89.0	0.443	orange	7.0	task_switch	color	switch	stim	poldrack-single-stim	s598	0	False
630.549	1.0	631.972	0.9	2.0	True	71.0	Orange-Blue	stay	twobytwo	71.0	0.523	blue	8.0	cue_stay	color	stay	stim	poldrack-single-stim	s598	0	False
632.655	1.0	633.375	0.1	2.0	True	71.0	High-Low	n/a	twobytwo	71.0	0.62	blue	2.0	task_switch	magnitude	switch	stim	poldrack-single-stim	s598	0	False
635.562	1.0	636.845	0.9	2.272	True	71.0	Orange-Blue	n/a	twobytwo	71.0	0.383	blue	2.0	task_switch	color	switch	stim	poldrack-single-stim	s598	0	False
637.938	1.0	639.068	0.1	2.136	True	71.0	High-Low	n/a	twobytwo	71.0	1.03	blue	3.0	task_switch	magnitude	switch	stim	poldrack-single-stim	s598	0	False
640.981	1.0	642.356	0.9	2.0	True	71.0	Color	n/a	twobytwo	71.0	0.475	blue	9.0	task_switch	color	switch	stim	poldrack-single-stim	s598	0	False
643.885	1.0	645.193	0.9	2.136	True	71.0	Color	stay	twobytwo	71.0	0.408	blue	9.0	cue_stay	color	stay	stim	poldrack-single-stim	s598	0	False
646.927	1.0	648.316	0.9	2.816	True	71.0	Magnitude	n/a	twobytwo	71.0	0.489	blue	4.0	task_switch	magnitude	switch	stim	poldrack-single-stim	s598	0	False
649.847	1.0	650.634	0.1	2.408	True	89.0	High-Low	switch	twobytwo	89.0	0.687	blue	9.0	cue_switch	magnitude	stay	stim	poldrack-single-stim	s598	0	False
652.362	1.0	653.163	0.1	2.0	True	71.0	Orange-Blue	n/a	twobytwo	71.0	0.701	blue	8.0	task_switch	color	switch	stim	poldrack-single-stim	s598	0	False
655.266	1.0	656.715	0.9	2.136	True	89.0	Magnitude	n/a	twobytwo	89.0	0.549	blue	7.0	task_switch	magnitude	switch	stim	poldrack-single-stim	s598	0	False
658.306	1.0	659.726	0.9	2.136	True	71.0	Color	n/a	twobytwo	71.0	0.52	blue	3.0	task_switch	color	switch	stim	poldrack-single-stim	s598	0	False
661.346	1.0	662.755	0.9	2.136	True	71.0	Magnitude	n/a	twobytwo	71.0	0.509	blue	1.0	task_switch	magnitude	switch	stim	poldrack-single-stim	s598	0	False
664.388	1.0	665.811	0.9	2.544	True	89.0	Magnitude	stay	twobytwo	89.0	0.523	blue	8.0	cue_stay	magnitude	stay	stim	poldrack-single-stim	s598	0	False
667.837	1.0	669.432	0.9	2.136	True	89.0	Orange-Blue	n/a	twobytwo	89.0	0.695	orange	6.0	task_switch	color	switch	stim	poldrack-single-stim	s598	0	False
670.079	1.0	670.844	0.1	2.0	True	71.0	Magnitude	n/a	twobytwo	71.0	0.665	blue	2.0	task_switch	magnitude	switch	stim	poldrack-single-stim	s598	0	False
672.991	1.0	674.41	0.9	2.0	True	89.0	Color	n/a	twobytwo	89.0	0.519	orange	6.0	task_switch	color	switch	stim	poldrack-single-stim	s598	0	False
675.103	1.0	676.115	0.1	2.0	True	89.0	Color	stay	twobytwo	89.0	0.912	orange	9.0	cue_stay	color	stay	stim	poldrack-single-stim	s598	0	False
677.209	1.0	677.915	0.1	2.0	True	71.0	High-Low	n/a	twobytwo	71.0	0.606	orange	1.0	task_switch	magnitude	switch	stim	poldrack-single-stim	s598	0	False
679.314	1.0	680.058	0.1	2.136	True	71.0	Orange-Blue	n/a	twobytwo	71.0	0.644	blue	1.0	task_switch	color	switch	stim	poldrack-single-stim	s598	0	False
682.357	1.0	683.697	0.9	2.0	True	71.0	Color	switch	twobytwo	71.0	0.44	blue	1.0	cue_switch	color	stay	stim	poldrack-single-stim	s598	0	False
684.463	1.0	685.28	0.1	2.0	True	89.0	Magnitude	n/a	twobytwo	89.0	0.717	orange	8.0	task_switch	magnitude	switch	stim	poldrack-single-stim	s598	0	False
687.37	1.0	688.706	0.9	2.0	True	89.0	Color	n/a	twobytwo	89.0	0.436	orange	8.0	task_switch	color	switch	stim	poldrack-single-stim	s598	0	False
690.273	1.0	691.684	0.9	2.136	True	71.0	High-Low	n/a	twobytwo	71.0	0.511	orange	4.0	task_switch	magnitude	switch	stim	poldrack-single-stim	s598	0	False
692.514	1.0	693.278	0.1	2.136	True	89.0	Color	n/a	twobytwo	89.0	0.664	orange	8.0	task_switch	color	switch	stim	poldrack-single-stim	s598	0	False
695.559	1.0	697.032	0.9	2.136	True	89.0	Magnitude	n/a	twobytwo	89.0	0.573	blue	8.0	task_switch	magnitude	switch	stim	poldrack-single-stim	s598	0	False
