onset	duration	block_duration	correct	correct_response	cue	experiment_exp_id	flanker_location	flanker_middle_direction	flanker_type	key_press	response_time	trial_id	worker_id	junk
3.518048	1.7	2.1009520000000004	1.0	71.0	spatial	attention_network_task	down	right	incongruent	71	0.651	stim	s598	False
6.126863999999999	1.7	2.100136	1.0	71.0	double	attention_network_task	down	right	incongruent	71	0.651	stim	s598	False
8.734727999999999	1.7	2.100272	1.0	89.0	double	attention_network_task	down	left	incongruent	89	0.541	stim	s598	False
11.342728	1.7	2.100272	1.0	71.0	double	attention_network_task	up	right	incongruent	71	0.541	stim	s598	False
13.951	1.7	2.1	1.0	71.0	double	attention_network_task	up	right	congruent	71	0.49	stim	s598	False
16.559	1.7	2.1	1.0	71.0	spatial	attention_network_task	up	right	incongruent	71	0.474	stim	s598	False
19.166728	1.7	2.100272	1.0	89.0	spatial	attention_network_task	down	left	congruent	89	0.458	stim	s598	False
21.775	1.7	2.1	1.0	89.0	spatial	attention_network_task	down	left	congruent	89	0.457	stim	s598	False
24.383	1.7	2.1	1.0	71.0	spatial	attention_network_task	down	right	incongruent	71	0.457	stim	s598	False
26.994728	1.7	2.100272	1.0	71.0	double	attention_network_task	down	right	congruent	71	0.615	stim	s598	False
29.604	1.7	2.1	1.0	89.0	spatial	attention_network_task	up	left	incongruent	89	0.546	stim	s598	False
32.211864	1.7	2.100136	1.0	71.0	spatial	attention_network_task	up	right	congruent	71	0.622	stim	s598	False
34.819728000000005	1.7	2.100272	1.0	89.0	spatial	attention_network_task	down	left	congruent	89	0.74	stim	s598	False
37.428	1.7	2.1	1.0	89.0	spatial	attention_network_task	up	left	congruent	89	0.671	stim	s598	False
40.038	1.7	2.1	1.0	71.0	double	attention_network_task	up	right	incongruent	71	0.692	stim	s598	False
42.644	1.7	2.1	1.0	71.0	double	attention_network_task	up	right	congruent	71	0.6	stim	s598	False
45.252	1.7	2.1	1.0	71.0	spatial	attention_network_task	up	right	incongruent	71	0.569	stim	s598	False
47.861	1.7	2.1	1.0	89.0	double	attention_network_task	down	left	congruent	89	0.697	stim	s598	False
50.474	1.7	2.1	1.0	89.0	spatial	attention_network_task	up	left	incongruent	89	0.697	stim	s598	False
53.081728000000005	1.7	2.100272	1.0	71.0	double	attention_network_task	up	right	congruent	71	0.614	stim	s598	False
55.690864000000005	1.7	2.100136	1.0	71.0	double	attention_network_task	down	right	incongruent	71	0.606	stim	s598	False
58.301911999999994	1.7	2.1010880000000003	1.0	71.0	double	attention_network_task	down	right	incongruent	71	0.629	stim	s598	False
60.910728000000006	1.7	2.100272	1.0	89.0	spatial	attention_network_task	up	left	congruent	89	0.618	stim	s598	False
63.521864	1.7	2.100136	1.0	71.0	spatial	attention_network_task	down	right	congruent	71	0.558	stim	s598	False
66.13186400000001	1.7	2.100136	1.0	89.0	double	attention_network_task	up	left	congruent	89	0.509	stim	s598	False
68.741	1.7	2.1	1.0	71.0	double	attention_network_task	down	right	congruent	71	0.508	stim	s598	False
71.348	1.7	2.1	1.0	71.0	spatial	attention_network_task	down	right	incongruent	71	0.558	stim	s598	False
73.956	1.7	2.1	1.0	89.0	spatial	attention_network_task	up	left	congruent	89	0.648	stim	s598	False
76.564	1.7	2.1	1.0	89.0	double	attention_network_task	up	left	incongruent	89	0.709	stim	s598	False
79.171864	1.7	2.100136	1.0	89.0	spatial	attention_network_task	down	left	incongruent	89	0.724	stim	s598	False
81.779728	1.7	2.100272	1.0	71.0	double	attention_network_task	down	right	incongruent	71	0.621	stim	s598	False
84.38786400000001	1.7	2.100136	1.0	89.0	spatial	attention_network_task	down	left	congruent	89	0.542	stim	s598	False
86.995864	1.7	2.100136	1.0	89.0	double	attention_network_task	up	left	congruent	89	0.705	stim	s598	False
89.608	1.7	2.1	1.0	89.0	double	attention_network_task	up	left	incongruent	89	0.705	stim	s598	False
92.218	1.7	2.1	1.0	71.0	spatial	attention_network_task	down	right	congruent	71	0.603	stim	s598	False
94.829592	1.7	2.100408	1.0	71.0	double	attention_network_task	down	right	congruent	71	0.535	stim	s598	False
97.438456	1.7	2.1005439999999997	1.0	89.0	double	attention_network_task	down	left	congruent	89	0.537	stim	s598	False
100.049592	1.7	2.100408	1.0	71.0	spatial	attention_network_task	down	right	incongruent	71	0.47	stim	s598	False
102.66	1.7	2.1	1.0	89.0	spatial	attention_network_task	down	left	congruent	89	0.5	stim	s598	False
105.26759200000001	1.7	2.100408	1.0	71.0	double	attention_network_task	down	right	congruent	71	0.48	stim	s598	False
107.882	1.7	2.1	1.0	89.0	spatial	attention_network_task	up	left	congruent	89	0.55	stim	s598	False
110.489592	1.7	2.100408	1.0	71.0	spatial	attention_network_task	up	right	congruent	71	0.502	stim	s598	False
113.099	1.7	2.1	1.0	89.0	spatial	attention_network_task	up	left	incongruent	89	0.507	stim	s598	False
115.708	1.7	2.1	1.0	71.0	spatial	attention_network_task	down	right	incongruent	71	0.664	stim	s598	False
118.313592	1.7	2.100408	1.0	89.0	spatial	attention_network_task	up	left	incongruent	89	0.577	stim	s598	False
120.921864	1.7	2.100136	1.0	89.0	spatial	attention_network_task	down	left	incongruent	89	0.546	stim	s598	False
123.534728	1.7	2.100272	1.0	89.0	double	attention_network_task	up	left	incongruent	89	0.667	stim	s598	False
126.14245600000001	1.7	2.1005439999999997	1.0	71.0	double	attention_network_task	up	right	incongruent	71	0.541	stim	s598	False
128.750728	1.7	2.100272	1.0	71.0	spatial	attention_network_task	down	right	incongruent	71	0.867	stim	s598	False
131.359	1.7	2.1	1.0	71.0	spatial	attention_network_task	up	right	incongruent	71	0.633	stim	s598	False
133.96559200000002	1.7	2.100408	1.0	89.0	spatial	attention_network_task	up	left	incongruent	89	0.576	stim	s598	False
136.575	1.7	2.1	1.0	71.0	spatial	attention_network_task	down	right	congruent	71	0.518	stim	s598	False
139.184	1.7	2.1	1.0	71.0	double	attention_network_task	down	right	congruent	71	0.505	stim	s598	False
141.790456	1.7	2.1005439999999997	1.0	89.0	double	attention_network_task	down	left	incongruent	89	0.525	stim	s598	False
144.398592	1.7	2.100408	1.0	71.0	spatial	attention_network_task	up	right	congruent	71	0.578	stim	s598	False
147.007	1.7	2.1	1.0	89.0	spatial	attention_network_task	down	left	congruent	89	0.513	stim	s598	False
149.614864	1.7	2.100136	1.0	89.0	spatial	attention_network_task	up	left	congruent	89	0.57	stim	s598	False
152.228184	1.7	2.100816	1.0	71.0	spatial	attention_network_task	down	right	incongruent	71	0.423	stim	s598	False
154.840864	1.7	2.100136	1.0	71.0	double	attention_network_task	up	right	congruent	71	0.624	stim	s598	False
157.45	1.7	2.1	1.0	71.0	spatial	attention_network_task	down	right	congruent	71	0.436	stim	s598	False
160.057864	1.7	2.100136	1.0	89.0	double	attention_network_task	down	left	incongruent	89	0.493	stim	s598	False
162.670864	1.7	2.100136	1.0	89.0	spatial	attention_network_task	up	left	incongruent	89	0.682	stim	s598	False
165.278864	1.7	2.100136	1.0	89.0	double	attention_network_task	up	left	incongruent	89	0.67	stim	s598	False
167.892456	1.7	2.1005439999999997	1.0	89.0	spatial	attention_network_task	up	left	congruent	89	0.49	stim	s598	False
181.012	1.7	2.1	1.0	89.0	spatial	attention_network_task	down	left	congruent	89	0.534	stim	s598	False
183.619728	1.7	2.100272	1.0	89.0	double	attention_network_task	up	left	incongruent	89	0.706	stim	s598	False
186.228	1.7	2.1	1.0	71.0	spatial	attention_network_task	up	right	congruent	71	0.533	stim	s598	False
188.836864	1.7	2.100136	1.0	71.0	spatial	attention_network_task	down	right	congruent	71	0.662	stim	s598	False
191.443592	1.7	2.100408	1.0	71.0	double	attention_network_task	up	right	incongruent	71	0.567	stim	s598	False
194.052456	1.7	2.1005439999999997	1.0	71.0	double	attention_network_task	up	right	congruent	71	0.567	stim	s598	False
196.666	1.7	2.1	1.0	89.0	double	attention_network_task	down	left	incongruent	89	0.591	stim	s598	False
199.273864	1.7	2.100136	1.0	71.0	spatial	attention_network_task	up	right	incongruent	71	0.472	stim	s598	False
201.881864	1.7	2.100136	1.0	89.0	double	attention_network_task	down	left	incongruent	89	0.562	stim	s598	False
204.494864	1.7	2.100136	1.0	89.0	spatial	attention_network_task	down	left	incongruent	89	0.585	stim	s598	False
207.102864	1.7	2.100136	1.0	71.0	double	attention_network_task	up	right	congruent	71	0.512	stim	s598	False
209.710728	1.7	2.100272	1.0	89.0	spatial	attention_network_task	down	left	incongruent	89	0.468	stim	s598	False
212.32386400000001	1.7	2.100136	1.0	89.0	spatial	attention_network_task	down	left	incongruent	89	0.584	stim	s598	False
214.934592	1.7	2.100408	1.0	71.0	spatial	attention_network_task	up	right	incongruent	71	0.54	stim	s598	False
217.55	1.7	2.1	1.0	89.0	double	attention_network_task	down	left	incongruent	89	0.563	stim	s598	False
220.164864	1.7	2.100136	1.0	71.0	double	attention_network_task	down	right	congruent	71	0.566	stim	s598	False
222.773	1.7	2.1	1.0	89.0	spatial	attention_network_task	up	left	congruent	89	0.437	stim	s598	False
225.379864	1.7	2.100136	1.0	71.0	double	attention_network_task	down	right	incongruent	71	0.424	stim	s598	False
227.98804800000002	1.7	2.1009520000000004	1.0	71.0	spatial	attention_network_task	up	right	congruent	71	0.464	stim	s598	False
230.596728	1.7	2.100272	1.0	89.0	double	attention_network_task	down	left	congruent	89	0.489	stim	s598	False
233.208864	1.7	2.100136	1.0	89.0	double	attention_network_task	up	left	congruent	89	0.57	stim	s598	False
235.818	1.7	2.1	1.0	71.0	double	attention_network_task	up	right	incongruent	71	0.604	stim	s598	False
238.425864	1.7	2.100136	1.0	71.0	spatial	attention_network_task	up	right	incongruent	71	0.536	stim	s598	False
241.039	1.7	2.1	1.0	89.0	double	attention_network_task	down	left	congruent	89	0.647	stim	s598	False
243.650864	1.7	2.100136	1.0	71.0	spatial	attention_network_task	down	right	incongruent	71	0.493	stim	s598	False
246.259728	1.7	2.100272	1.0	71.0	double	attention_network_task	down	right	incongruent	71	0.504	stim	s598	False
248.867728	1.7	2.100272	1.0	89.0	spatial	attention_network_task	up	left	incongruent	89	0.729	stim	s598	False
251.475864	1.7	2.100136	1.0	89.0	double	attention_network_task	up	left	congruent	89	0.679	stim	s598	False
254.085	1.7	2.1	1.0	89.0	double	attention_network_task	down	left	incongruent	89	0.503	stim	s598	False
256.697864	1.7	2.100136	1.0	89.0	double	attention_network_task	up	left	incongruent	89	0.607	stim	s598	False
259.311	1.7	2.1	1.0	71.0	spatial	attention_network_task	up	right	congruent	71	0.506	stim	s598	False
261.920728	1.7	2.100272	1.0	89.0	double	attention_network_task	down	left	congruent	89	0.563	stim	s598	False
264.527	1.7	2.1	1.0	71.0	spatial	attention_network_task	up	right	incongruent	71	0.597	stim	s598	False
267.135	1.7	2.1	1.0	89.0	spatial	attention_network_task	up	left	incongruent	89	0.559	stim	s598	False
269.742864	1.7	2.100136	1.0	89.0	spatial	attention_network_task	down	left	congruent	89	0.536	stim	s598	False
272.350728	1.7	2.100272	1.0	71.0	spatial	attention_network_task	down	right	congruent	71	0.534	stim	s598	False
274.963592	1.7	2.100408	1.0	89.0	double	attention_network_task	up	left	incongruent	89	0.56	stim	s598	False
277.578	1.7	2.1	1.0	89.0	double	attention_network_task	down	left	congruent	89	0.595	stim	s598	False
280.185864	1.7	2.100136	1.0	89.0	double	attention_network_task	up	left	congruent	89	0.502	stim	s598	False
282.793864	1.7	2.100136	1.0	71.0	spatial	attention_network_task	up	right	congruent	71	0.609	stim	s598	False
285.402	1.7	2.1	1.0	89.0	double	attention_network_task	up	left	congruent	89	0.538	stim	s598	False
288.009592	1.7	2.100408	1.0	71.0	double	attention_network_task	up	right	incongruent	71	0.558	stim	s598	False
290.617456	1.7	2.1005439999999997	1.0	71.0	spatial	attention_network_task	down	right	congruent	71	0.547	stim	s598	False
293.230864	1.7	2.100136	1.0	89.0	spatial	attention_network_task	up	left	congruent	89	0.45	stim	s598	False
295.838864	1.7	2.100136	1.0	71.0	spatial	attention_network_task	up	right	congruent	71	0.546	stim	s598	False
298.447	1.7	2.1	1.0	89.0	spatial	attention_network_task	down	left	incongruent	89	0.503	stim	s598	False
301.058	1.7	2.1	1.0	89.0	double	attention_network_task	up	left	congruent	89	0.516	stim	s598	False
303.668864	1.7	2.100136	1.0	89.0	double	attention_network_task	down	left	congruent	89	0.56	stim	s598	False
306.276	1.7	2.1	1.0	71.0	double	attention_network_task	up	right	congruent	71	0.452	stim	s598	False
308.884864	1.7	2.100136	1.0	89.0	double	attention_network_task	up	left	congruent	89	0.561	stim	s598	False
311.496	1.7	2.1	1.0	89.0	double	attention_network_task	down	left	congruent	89	0.589	stim	s598	False
314.105592	1.7	2.100408	1.0	71.0	spatial	attention_network_task	down	right	congruent	71	0.53	stim	s598	False
316.718	1.7	2.1	1.0	89.0	spatial	attention_network_task	down	left	incongruent	89	0.591	stim	s598	False
319.326184	1.7	2.100816	1.0	71.0	double	attention_network_task	down	right	incongruent	71	0.546	stim	s598	False
321.93632	1.7	2.1006799999999997	1.0	89.0	spatial	attention_network_task	down	left	congruent	89	0.508	stim	s598	False
324.543	1.7	2.1	1.0	71.0	spatial	attention_network_task	down	right	congruent	71	0.4	stim	s598	False
327.152864	1.7	2.100136	1.0	89.0	spatial	attention_network_task	down	left	congruent	89	0.456	stim	s598	False
329.768864	1.7	2.100136	1.0	89.0	double	attention_network_task	up	left	incongruent	89	0.539	stim	s598	False
332.377864	1.7	2.100136	1.0	89.0	double	attention_network_task	down	left	incongruent	89	0.703	stim	s598	False
334.991	1.7	2.1	1.0	71.0	double	attention_network_task	up	right	incongruent	71	0.528	stim	s598	False
337.598864	1.7	2.100136	1.0	71.0	spatial	attention_network_task	up	right	incongruent	71	0.629	stim	s598	False
340.206048	1.7	2.1009520000000004	1.0	89.0	spatial	attention_network_task	down	left	incongruent	89	0.534	stim	s598	False
342.814864	1.7	2.100136	1.0	71.0	double	attention_network_task	up	right	incongruent	71	0.573	stim	s598	False
345.422592	1.7	2.100408	1.0	71.0	double	attention_network_task	down	right	incongruent	71	0.459	stim	s598	False
