duration	onset	block_duration	movement_onset	planning	condition	exp_stage	experiment_exp_id	key_press	problem_id	response_time	trial_id	trial_type	worker_id	junk
5.05	3.011	5.05	8.061	1	UA_with_intermediate	practice	ward_and_allport	71	0.0	5.05	to_hand	poldrack-single-stim	s598	False
0.1	8.063	0.986	9.049	0	UA_with_intermediate	practice	ward_and_allport	82	0.0	0.986	to_board	poldrack-single-stim	s598	False
0.1	9.051	0.673	9.724	0	UA_with_intermediate	practice	ward_and_allport	71	0.0	0.673	to_hand	poldrack-single-stim	s598	False
0.1	9.725	0.542	10.267	0	UA_with_intermediate	practice	ward_and_allport	89	0.0	0.542	to_board	poldrack-single-stim	s598	False
0.1	10.269	0.674	10.943	0	UA_with_intermediate	practice	ward_and_allport	82	0.0	0.674	to_hand	poldrack-single-stim	s598	False
0.1	10.944	0.548	11.492	0	UA_with_intermediate	practice	ward_and_allport	89	0.0	0.548	to_board	poldrack-single-stim	s598	False
1.0	11.496	2.5	11.495	0	UA_with_intermediate	practice	ward_and_allport	-1	0.0	n/a	feedback	poldrack-single-stim	s598	False
3.48	13.998	3.48	17.478	1	UA_with_intermediate	practice	ward_and_allport	71	1.0	3.48	to_hand	poldrack-single-stim	s598	False
0.1	17.479	3.369	20.848	0	UA_with_intermediate	practice	ward_and_allport	71	1.0	3.369	to_board	poldrack-single-stim	s598	False
0.1	20.849	0.364	21.213	0	UA_with_intermediate	practice	ward_and_allport	89	1.0	0.364	to_hand	poldrack-single-stim	s598	False
0.1	21.215	0.543	21.758	0	UA_with_intermediate	practice	ward_and_allport	82	1.0	0.543	to_board	poldrack-single-stim	s598	False
0.1	21.76	0.391	22.151	0	UA_with_intermediate	practice	ward_and_allport	71	1.0	0.391	to_hand	poldrack-single-stim	s598	False
0.1	22.152	0.365	22.517	0	UA_with_intermediate	practice	ward_and_allport	89	1.0	0.365	to_board	poldrack-single-stim	s598	False
0.1	22.519	0.747	23.266	0	UA_with_intermediate	practice	ward_and_allport	82	1.0	0.747	to_hand	poldrack-single-stim	s598	False
0.1	23.267	0.309	23.576	0	UA_with_intermediate	practice	ward_and_allport	89	1.0	0.309	to_board	poldrack-single-stim	s598	False
1.0	23.581	2.1	23.58	0	UA_with_intermediate	practice	ward_and_allport	-1	1.0	n/a	feedback	poldrack-single-stim	s598	False
6.513	25.685	6.513	32.198	1	UA_without_intermediate	practice	ward_and_allport	82	2.0	6.513	to_hand	poldrack-single-stim	s598	False
0.1	32.199	0.601	32.8	0	UA_without_intermediate	practice	ward_and_allport	89	2.0	0.601	to_board	poldrack-single-stim	s598	False
0.1	32.802	0.976	33.778	0	UA_without_intermediate	practice	ward_and_allport	71	2.0	0.976	to_hand	poldrack-single-stim	s598	False
0.1	33.779	0.427	34.206	0	UA_without_intermediate	practice	ward_and_allport	89	2.0	0.427	to_board	poldrack-single-stim	s598	False
0.1	34.208	0.919	35.127	0	UA_without_intermediate	practice	ward_and_allport	71	2.0	0.919	to_hand	poldrack-single-stim	s598	False
0.1	35.128	0.294	35.422	0	UA_without_intermediate	practice	ward_and_allport	89	2.0	0.294	to_board	poldrack-single-stim	s598	False
1.0	35.428	2.2	35.427	0	UA_without_intermediate	practice	ward_and_allport	-1	2.0	n/a	feedback	poldrack-single-stim	s598	False
2.438	37.63	2.438	40.068	1	UA_without_intermediate	practice	ward_and_allport	71	3.0	2.438	to_hand	poldrack-single-stim	s598	False
0.1	40.069	0.533	40.602	0	UA_without_intermediate	practice	ward_and_allport	89	3.0	0.533	to_board	poldrack-single-stim	s598	False
0.1	40.604	0.634	41.238	0	UA_without_intermediate	practice	ward_and_allport	82	3.0	0.634	to_hand	poldrack-single-stim	s598	False
0.1	41.239	0.61	41.849	0	UA_without_intermediate	practice	ward_and_allport	89	3.0	0.61	to_board	poldrack-single-stim	s598	False
0.1	41.851	0.845	42.696	0	UA_without_intermediate	practice	ward_and_allport	71	3.0	0.845	to_hand	poldrack-single-stim	s598	False
0.1	42.697	0.402	43.099	0	UA_without_intermediate	practice	ward_and_allport	89	3.0	0.402	to_board	poldrack-single-stim	s598	False
1.0	43.104	2.0	43.103	0	UA_without_intermediate	practice	ward_and_allport	-1	3.0	n/a	feedback	poldrack-single-stim	s598	False
8.154	47.112	8.154	55.266	1	PA_with_intermediate	test	ward_and_allport	89	0.0	8.154	to_hand	poldrack-single-stim	s598	False
0.1	55.267	0.885	56.152	0	PA_with_intermediate	test	ward_and_allport	71	0.0	0.885	to_board	poldrack-single-stim	s598	False
0.1	56.154	2.24	58.394	0	PA_with_intermediate	test	ward_and_allport	89	0.0	2.24	to_hand	poldrack-single-stim	s598	False
0.1	58.395	0.458	58.853	0	PA_with_intermediate	test	ward_and_allport	82	0.0	0.458	to_board	poldrack-single-stim	s598	False
0.1	58.855	0.934	59.789	0	PA_with_intermediate	test	ward_and_allport	71	0.0	0.934	to_hand	poldrack-single-stim	s598	False
0.1	59.79	0.287	60.077	0	PA_with_intermediate	test	ward_and_allport	89	0.0	0.287	to_board	poldrack-single-stim	s598	False
1.0	60.084	2.408	60.083	0	PA_with_intermediate	test	ward_and_allport	-1	0.0	n/a	feedback	poldrack-single-stim	s598	False
3.748	62.494	3.748	66.242	1	PA_without_intermediate	test	ward_and_allport	82	1.0	3.748	to_hand	poldrack-single-stim	s598	False
0.1	66.243	0.608	66.851	0	PA_without_intermediate	test	ward_and_allport	71	1.0	0.608	to_board	poldrack-single-stim	s598	False
0.1	66.853	1.52	68.373	0	PA_without_intermediate	test	ward_and_allport	82	1.0	1.52	to_hand	poldrack-single-stim	s598	False
0.1	68.375	0.679	69.054	0	PA_without_intermediate	test	ward_and_allport	89	1.0	0.679	to_board	poldrack-single-stim	s598	False
0.1	69.057	1.132	70.189	0	PA_without_intermediate	test	ward_and_allport	82	1.0	1.132	to_hand	poldrack-single-stim	s598	False
0.1	70.19	0.462	70.652	0	PA_without_intermediate	test	ward_and_allport	71	1.0	0.462	to_board	poldrack-single-stim	s598	False
1.0	70.655	2.68	70.654	0	PA_without_intermediate	test	ward_and_allport	-1	1.0	n/a	feedback	poldrack-single-stim	s598	False
3.76	73.337	3.76	77.097	1	PA_with_intermediate	test	ward_and_allport	89	2.0	3.76	to_hand	poldrack-single-stim	s598	False
0.1	77.099	0.585	77.684	0	PA_with_intermediate	test	ward_and_allport	82	2.0	0.585	to_board	poldrack-single-stim	s598	False
0.1	77.687	0.778	78.465	0	PA_with_intermediate	test	ward_and_allport	89	2.0	0.778	to_hand	poldrack-single-stim	s598	False
0.1	78.466	0.564	79.03	0	PA_with_intermediate	test	ward_and_allport	71	2.0	0.564	to_board	poldrack-single-stim	s598	False
0.1	79.032	0.611	79.643	0	PA_with_intermediate	test	ward_and_allport	82	2.0	0.611	to_hand	poldrack-single-stim	s598	False
0.1	79.643	0.585	80.228	0	PA_with_intermediate	test	ward_and_allport	89	2.0	0.585	to_board	poldrack-single-stim	s598	False
1.0	80.236	4.72	80.235	0	PA_with_intermediate	test	ward_and_allport	-1	2.0	n/a	feedback	poldrack-single-stim	s598	False
2.254	84.959	2.254	87.213	1	PA_without_intermediate	test	ward_and_allport	89	3.0	2.254	to_hand	poldrack-single-stim	s598	False
0.1	87.214	0.453	87.667	0	PA_without_intermediate	test	ward_and_allport	71	3.0	0.453	to_board	poldrack-single-stim	s598	False
0.1	87.669	0.855	88.524	0	PA_without_intermediate	test	ward_and_allport	89	3.0	0.855	to_hand	poldrack-single-stim	s598	False
0.1	88.526	0.467	88.993	0	PA_without_intermediate	test	ward_and_allport	71	3.0	0.467	to_board	poldrack-single-stim	s598	False
0.1	88.996	0.705	89.701	0	PA_without_intermediate	test	ward_and_allport	89	3.0	0.705	to_hand	poldrack-single-stim	s598	False
0.1	89.703	0.47	90.173	0	PA_without_intermediate	test	ward_and_allport	82	3.0	0.47	to_board	poldrack-single-stim	s598	False
1.0	90.177	3.224	90.176	0	PA_without_intermediate	test	ward_and_allport	-1	3.0	n/a	feedback	poldrack-single-stim	s598	False
3.018	93.404	3.018	96.422	1	PA_without_intermediate	test	ward_and_allport	71	4.0	3.018	to_hand	poldrack-single-stim	s598	False
0.1	96.424	0.46	96.884	0	PA_without_intermediate	test	ward_and_allport	82	4.0	0.46	to_board	poldrack-single-stim	s598	False
0.1	96.887	1.043	97.93	0	PA_without_intermediate	test	ward_and_allport	71	4.0	1.043	to_hand	poldrack-single-stim	s598	False
0.1	97.931	0.407	98.338	0	PA_without_intermediate	test	ward_and_allport	82	4.0	0.407	to_board	poldrack-single-stim	s598	False
0.1	98.341	0.822	99.163	0	PA_without_intermediate	test	ward_and_allport	71	4.0	0.822	to_hand	poldrack-single-stim	s598	False
0.1	99.164	0.287	99.451	0	PA_without_intermediate	test	ward_and_allport	89	4.0	0.287	to_board	poldrack-single-stim	s598	False
1.0	99.457	2.272	99.456	0	PA_without_intermediate	test	ward_and_allport	-1	4.0	n/a	feedback	poldrack-single-stim	s598	False
2.805	101.732	2.805	104.537	1	PA_with_intermediate	test	ward_and_allport	89	5.0	2.805	to_hand	poldrack-single-stim	s598	False
0.1	104.538	0.516	105.054	0	PA_with_intermediate	test	ward_and_allport	71	5.0	0.516	to_board	poldrack-single-stim	s598	False
0.1	105.057	0.469	105.526	0	PA_with_intermediate	test	ward_and_allport	89	5.0	0.469	to_hand	poldrack-single-stim	s598	False
0.1	105.528	0.474	106.002	0	PA_with_intermediate	test	ward_and_allport	82	5.0	0.474	to_board	poldrack-single-stim	s598	False
0.1	106.005	0.528	106.533	0	PA_with_intermediate	test	ward_and_allport	71	5.0	0.528	to_hand	poldrack-single-stim	s598	False
0.1	106.535	0.407	106.942	0	PA_with_intermediate	test	ward_and_allport	82	5.0	0.407	to_board	poldrack-single-stim	s598	False
1.0	106.95	3.632	106.949	0	PA_with_intermediate	test	ward_and_allport	-1	5.0	n/a	feedback	poldrack-single-stim	s598	False
2.298	110.584	2.298	112.882	1	PA_without_intermediate	test	ward_and_allport	89	6.0	2.298	to_hand	poldrack-single-stim	s598	False
0.1	112.884	0.741	113.625	0	PA_without_intermediate	test	ward_and_allport	71	6.0	0.741	to_board	poldrack-single-stim	s598	False
0.1	113.628	0.561	114.189	0	PA_without_intermediate	test	ward_and_allport	89	6.0	0.561	to_hand	poldrack-single-stim	s598	False
0.1	114.19	0.52	114.71	0	PA_without_intermediate	test	ward_and_allport	82	6.0	0.52	to_board	poldrack-single-stim	s598	False
0.1	114.713	0.533	115.246	0	PA_without_intermediate	test	ward_and_allport	89	6.0	0.533	to_hand	poldrack-single-stim	s598	False
0.1	115.247	0.444	115.691	0	PA_without_intermediate	test	ward_and_allport	71	6.0	0.444	to_board	poldrack-single-stim	s598	False
1.0	115.694	2.408	115.693	0	PA_without_intermediate	test	ward_and_allport	-1	6.0	n/a	feedback	poldrack-single-stim	s598	False
2.348	118.105	2.348	120.453	1	PA_without_intermediate	test	ward_and_allport	71	7.0	2.348	to_hand	poldrack-single-stim	s598	False
0.1	120.453	0.419	120.872	0	PA_without_intermediate	test	ward_and_allport	89	7.0	0.419	to_board	poldrack-single-stim	s598	False
0.1	120.877	0.811	121.688	0	PA_without_intermediate	test	ward_and_allport	71	7.0	0.811	to_hand	poldrack-single-stim	s598	False
0.1	121.689	0.36	122.049	0	PA_without_intermediate	test	ward_and_allport	82	7.0	0.36	to_board	poldrack-single-stim	s598	False
0.1	122.052	0.444	122.496	0	PA_without_intermediate	test	ward_and_allport	71	7.0	0.444	to_hand	poldrack-single-stim	s598	False
0.1	122.497	0.278	122.775	0	PA_without_intermediate	test	ward_and_allport	89	7.0	0.278	to_board	poldrack-single-stim	s598	False
1.0	122.782	2.0	122.781	0	PA_without_intermediate	test	ward_and_allport	-1	7.0	n/a	feedback	poldrack-single-stim	s598	False
2.658	124.785	2.658	127.443	1	PA_with_intermediate	test	ward_and_allport	71	8.0	2.658	to_hand	poldrack-single-stim	s598	False
0.1	127.444	0.656	128.1	0	PA_with_intermediate	test	ward_and_allport	89	8.0	0.656	to_board	poldrack-single-stim	s598	False
0.1	128.105	0.617	128.722	0	PA_with_intermediate	test	ward_and_allport	71	8.0	0.617	to_hand	poldrack-single-stim	s598	False
0.1	128.723	0.539	129.262	0	PA_with_intermediate	test	ward_and_allport	82	8.0	0.539	to_board	poldrack-single-stim	s598	False
0.1	129.266	0.833	130.099	0	PA_with_intermediate	test	ward_and_allport	89	8.0	0.833	to_hand	poldrack-single-stim	s598	False
0.1	130.1	0.357	130.457	0	PA_with_intermediate	test	ward_and_allport	82	8.0	0.357	to_board	poldrack-single-stim	s598	False
1.0	130.46	2.0	130.459	0	PA_with_intermediate	test	ward_and_allport	-1	8.0	n/a	feedback	poldrack-single-stim	s598	False
2.673	132.463	2.673	135.136	1	PA_with_intermediate	test	ward_and_allport	71	9.0	2.673	to_hand	poldrack-single-stim	s598	False
0.1	135.138	0.847	135.985	0	PA_with_intermediate	test	ward_and_allport	89	9.0	0.847	to_board	poldrack-single-stim	s598	False
0.1	135.989	0.413	136.402	0	PA_with_intermediate	test	ward_and_allport	71	9.0	0.413	to_hand	poldrack-single-stim	s598	False
0.1	136.403	0.532	136.935	0	PA_with_intermediate	test	ward_and_allport	82	9.0	0.532	to_board	poldrack-single-stim	s598	False
0.1	136.938	0.395	137.333	0	PA_with_intermediate	test	ward_and_allport	89	9.0	0.395	to_hand	poldrack-single-stim	s598	False
0.1	137.334	0.403	137.737	0	PA_with_intermediate	test	ward_and_allport	82	9.0	0.403	to_board	poldrack-single-stim	s598	False
1.0	137.745	2.0	137.744	0	PA_with_intermediate	test	ward_and_allport	-1	9.0	n/a	feedback	poldrack-single-stim	s598	False
1.887	139.749	1.887	141.636	1	PA_with_intermediate	test	ward_and_allport	82	10.0	1.887	to_hand	poldrack-single-stim	s598	False
0.1	141.638	0.556	142.194	0	PA_with_intermediate	test	ward_and_allport	89	10.0	0.556	to_board	poldrack-single-stim	s598	False
0.1	142.198	1.582	143.78	0	PA_with_intermediate	test	ward_and_allport	82	10.0	1.582	to_hand	poldrack-single-stim	s598	False
0.1	143.781	0.489	144.27	0	PA_with_intermediate	test	ward_and_allport	71	10.0	0.489	to_board	poldrack-single-stim	s598	False
0.1	144.275	0.363	144.638	0	PA_with_intermediate	test	ward_and_allport	89	10.0	0.363	to_hand	poldrack-single-stim	s598	False
0.1	144.639	0.358	144.997	0	PA_with_intermediate	test	ward_and_allport	71	10.0	0.358	to_board	poldrack-single-stim	s598	False
1.0	145.005	2.408	145.004	0	PA_with_intermediate	test	ward_and_allport	-1	10.0	n/a	feedback	poldrack-single-stim	s598	False
1.811	147.417	1.811	149.228	1	PA_without_intermediate	test	ward_and_allport	71	11.0	1.811	to_hand	poldrack-single-stim	s598	False
0.1	149.23	0.537	149.767	0	PA_without_intermediate	test	ward_and_allport	82	11.0	0.537	to_board	poldrack-single-stim	s598	False
0.1	149.77	0.746	150.516	0	PA_without_intermediate	test	ward_and_allport	71	11.0	0.746	to_hand	poldrack-single-stim	s598	False
0.1	150.517	0.385	150.902	0	PA_without_intermediate	test	ward_and_allport	82	11.0	0.385	to_board	poldrack-single-stim	s598	False
0.1	150.906	0.53	151.436	0	PA_without_intermediate	test	ward_and_allport	71	11.0	0.53	to_hand	poldrack-single-stim	s598	False
0.1	151.437	0.339	151.776	0	PA_without_intermediate	test	ward_and_allport	89	11.0	0.339	to_board	poldrack-single-stim	s598	False
1.0	151.783	2.816	151.782	0	PA_without_intermediate	test	ward_and_allport	-1	11.0	n/a	feedback	poldrack-single-stim	s598	False
1.884	154.603	1.884	156.487	1	PA_with_intermediate	test	ward_and_allport	82	12.0	1.884	to_hand	poldrack-single-stim	s598	False
0.1	156.488	0.986	157.474	0	PA_with_intermediate	test	ward_and_allport	71	12.0	0.986	to_board	poldrack-single-stim	s598	False
0.1	157.478	0.643	158.121	0	PA_with_intermediate	test	ward_and_allport	82	12.0	0.643	to_hand	poldrack-single-stim	s598	False
0.1	158.122	0.613	158.735	0	PA_with_intermediate	test	ward_and_allport	89	12.0	0.613	to_board	poldrack-single-stim	s598	False
0.1	158.739	0.706	159.445	0	PA_with_intermediate	test	ward_and_allport	71	12.0	0.706	to_hand	poldrack-single-stim	s598	False
0.1	159.446	0.321	159.767	0	PA_with_intermediate	test	ward_and_allport	89	12.0	0.321	to_board	poldrack-single-stim	s598	False
1.0	159.771	4.176	159.77	0	PA_with_intermediate	test	ward_and_allport	-1	12.0	n/a	feedback	poldrack-single-stim	s598	False
3.048	163.952	3.048	167.0	1	PA_with_intermediate	test	ward_and_allport	71	13.0	3.048	to_hand	poldrack-single-stim	s598	False
0.1	167.002	0.44	167.442	0	PA_with_intermediate	test	ward_and_allport	89	13.0	0.44	to_board	poldrack-single-stim	s598	False
0.1	167.446	0.425	167.871	0	PA_with_intermediate	test	ward_and_allport	71	13.0	0.425	to_hand	poldrack-single-stim	s598	False
0.1	167.873	0.508	168.381	0	PA_with_intermediate	test	ward_and_allport	82	13.0	0.508	to_board	poldrack-single-stim	s598	False
0.1	168.384	0.491	168.875	0	PA_with_intermediate	test	ward_and_allport	89	13.0	0.491	to_hand	poldrack-single-stim	s598	False
0.1	168.877	0.334	169.211	0	PA_with_intermediate	test	ward_and_allport	71	13.0	0.334	to_board	poldrack-single-stim	s598	False
1.0	169.217	3.36	169.216	0	PA_with_intermediate	test	ward_and_allport	-1	13.0	n/a	feedback	poldrack-single-stim	s598	False
3.661	172.581	3.661	176.242	1	PA_with_intermediate	test	ward_and_allport	82	14.0	3.661	to_hand	poldrack-single-stim	s598	False
0.1	176.243	0.535	176.778	0	PA_with_intermediate	test	ward_and_allport	71	14.0	0.535	to_board	poldrack-single-stim	s598	False
0.1	176.782	0.855	177.637	0	PA_with_intermediate	test	ward_and_allport	82	14.0	0.855	to_hand	poldrack-single-stim	s598	False
0.1	177.638	0.76	178.398	0	PA_with_intermediate	test	ward_and_allport	89	14.0	0.76	to_board	poldrack-single-stim	s598	False
0.1	178.402	1.344	179.746	0	PA_with_intermediate	test	ward_and_allport	71	14.0	1.344	to_hand	poldrack-single-stim	s598	False
0.1	179.747	0.314	180.061	0	PA_with_intermediate	test	ward_and_allport	82	14.0	0.314	to_board	poldrack-single-stim	s598	False
1.0	180.065	2.0	180.064	0	PA_with_intermediate	test	ward_and_allport	-1	14.0	n/a	feedback	poldrack-single-stim	s598	False
2.451	187.074	2.451	189.525	1	PA_without_intermediate	test	ward_and_allport	82	15.0	2.451	to_hand	poldrack-single-stim	s598	False
0.1	189.526	0.527	190.053	0	PA_without_intermediate	test	ward_and_allport	89	15.0	0.527	to_board	poldrack-single-stim	s598	False
0.1	190.057	1.082	191.139	0	PA_without_intermediate	test	ward_and_allport	82	15.0	1.082	to_hand	poldrack-single-stim	s598	False
0.1	191.14	0.508	191.648	0	PA_without_intermediate	test	ward_and_allport	71	15.0	0.508	to_board	poldrack-single-stim	s598	False
0.1	191.653	1.065	192.718	0	PA_without_intermediate	test	ward_and_allport	82	15.0	1.065	to_hand	poldrack-single-stim	s598	False
0.1	192.719	0.355	193.074	0	PA_without_intermediate	test	ward_and_allport	89	15.0	0.355	to_board	poldrack-single-stim	s598	False
1.0	193.081	2.408	193.08	0	PA_without_intermediate	test	ward_and_allport	-1	15.0	n/a	feedback	poldrack-single-stim	s598	False
2.158	195.494	2.158	197.652	1	PA_with_intermediate	test	ward_and_allport	89	16.0	2.158	to_hand	poldrack-single-stim	s598	False
0.1	197.653	0.792	198.445	0	PA_with_intermediate	test	ward_and_allport	71	16.0	0.792	to_board	poldrack-single-stim	s598	False
0.1	198.449	0.609	199.058	0	PA_with_intermediate	test	ward_and_allport	89	16.0	0.609	to_hand	poldrack-single-stim	s598	False
0.1	199.059	0.467	199.526	0	PA_with_intermediate	test	ward_and_allport	82	16.0	0.467	to_board	poldrack-single-stim	s598	False
0.1	199.531	0.496	200.027	0	PA_with_intermediate	test	ward_and_allport	71	16.0	0.496	to_hand	poldrack-single-stim	s598	False
0.1	200.028	0.506	200.534	0	PA_with_intermediate	test	ward_and_allport	82	16.0	0.506	to_board	poldrack-single-stim	s598	False
1.0	200.54	2.816	200.539	0	PA_with_intermediate	test	ward_and_allport	-1	16.0	n/a	feedback	poldrack-single-stim	s598	False
1.566	203.36	1.566	204.926	1	PA_without_intermediate	test	ward_and_allport	71	17.0	1.566	to_hand	poldrack-single-stim	s598	False
0.1	204.927	0.519	205.446	0	PA_without_intermediate	test	ward_and_allport	82	17.0	0.519	to_board	poldrack-single-stim	s598	False
0.1	205.451	0.639	206.09	0	PA_without_intermediate	test	ward_and_allport	71	17.0	0.639	to_hand	poldrack-single-stim	s598	False
0.1	206.092	0.367	206.459	0	PA_without_intermediate	test	ward_and_allport	89	17.0	0.367	to_board	poldrack-single-stim	s598	False
0.1	206.464	0.604	207.068	0	PA_without_intermediate	test	ward_and_allport	71	17.0	0.604	to_hand	poldrack-single-stim	s598	False
0.1	207.069	0.341	207.41	0	PA_without_intermediate	test	ward_and_allport	82	17.0	0.341	to_board	poldrack-single-stim	s598	False
1.0	207.419	3.088	207.418	0	PA_without_intermediate	test	ward_and_allport	-1	17.0	n/a	feedback	poldrack-single-stim	s598	False
1.171	210.512	1.171	211.683	1	PA_without_intermediate	test	ward_and_allport	89	18.0	1.171	to_hand	poldrack-single-stim	s598	False
0.1	211.685	0.614	212.299	0	PA_without_intermediate	test	ward_and_allport	71	18.0	0.614	to_board	poldrack-single-stim	s598	False
0.1	212.303	0.99	213.293	0	PA_without_intermediate	test	ward_and_allport	89	18.0	0.99	to_hand	poldrack-single-stim	s598	False
0.1	213.294	0.482	213.776	0	PA_without_intermediate	test	ward_and_allport	82	18.0	0.482	to_board	poldrack-single-stim	s598	False
0.1	213.781	0.741	214.522	0	PA_without_intermediate	test	ward_and_allport	89	18.0	0.741	to_hand	poldrack-single-stim	s598	False
0.1	214.523	0.502	215.025	0	PA_without_intermediate	test	ward_and_allport	71	18.0	0.502	to_board	poldrack-single-stim	s598	False
1.0	215.033	2.136	215.032	0	PA_without_intermediate	test	ward_and_allport	-1	18.0	n/a	feedback	poldrack-single-stim	s598	False
1.307	217.174	1.307	218.481	1	PA_without_intermediate	test	ward_and_allport	89	19.0	1.307	to_hand	poldrack-single-stim	s598	False
0.1	218.482	0.452	218.934	0	PA_without_intermediate	test	ward_and_allport	71	19.0	0.452	to_board	poldrack-single-stim	s598	False
0.1	218.938	0.478	219.416	0	PA_without_intermediate	test	ward_and_allport	89	19.0	0.478	to_hand	poldrack-single-stim	s598	False
0.1	219.417	0.455	219.872	0	PA_without_intermediate	test	ward_and_allport	71	19.0	0.455	to_board	poldrack-single-stim	s598	False
0.1	219.877	0.553	220.43	0	PA_without_intermediate	test	ward_and_allport	89	19.0	0.553	to_hand	poldrack-single-stim	s598	False
0.1	220.431	0.363	220.794	0	PA_without_intermediate	test	ward_and_allport	82	19.0	0.363	to_board	poldrack-single-stim	s598	False
1.0	220.801	7.168	220.8	0	PA_without_intermediate	test	ward_and_allport	-1	19.0	n/a	feedback	poldrack-single-stim	s598	False
1.458	227.974	1.458	229.432	1	PA_without_intermediate	test	ward_and_allport	71	20.0	1.458	to_hand	poldrack-single-stim	s598	False
0.1	229.433	0.534	229.967	0	PA_without_intermediate	test	ward_and_allport	89	20.0	0.534	to_board	poldrack-single-stim	s598	False
0.1	229.972	0.394	230.366	0	PA_without_intermediate	test	ward_and_allport	71	20.0	0.394	to_hand	poldrack-single-stim	s598	False
0.1	230.368	0.469	230.837	0	PA_without_intermediate	test	ward_and_allport	89	20.0	0.469	to_board	poldrack-single-stim	s598	False
0.1	230.842	0.396	231.238	0	PA_without_intermediate	test	ward_and_allport	71	20.0	0.396	to_hand	poldrack-single-stim	s598	False
0.1	231.239	0.321	231.56	0	PA_without_intermediate	test	ward_and_allport	82	20.0	0.321	to_board	poldrack-single-stim	s598	False
1.0	231.569	2.816	231.568	0	PA_without_intermediate	test	ward_and_allport	-1	20.0	n/a	feedback	poldrack-single-stim	s598	False
1.943	234.39	1.943	236.333	1	PA_with_intermediate	test	ward_and_allport	82	21.0	1.943	to_hand	poldrack-single-stim	s598	False
0.1	236.334	0.445	236.779	0	PA_with_intermediate	test	ward_and_allport	71	21.0	0.445	to_board	poldrack-single-stim	s598	False
0.1	236.784	0.777	237.561	0	PA_with_intermediate	test	ward_and_allport	82	21.0	0.777	to_hand	poldrack-single-stim	s598	False
0.1	237.563	0.53	238.093	0	PA_with_intermediate	test	ward_and_allport	89	21.0	0.53	to_board	poldrack-single-stim	s598	False
0.1	238.097	1.645	239.742	0	PA_with_intermediate	test	ward_and_allport	71	21.0	1.645	to_hand	poldrack-single-stim	s598	False
0.1	239.744	0.338	240.082	0	PA_with_intermediate	test	ward_and_allport	82	21.0	0.338	to_board	poldrack-single-stim	s598	False
1.0	240.089	2.952	240.088	0	PA_with_intermediate	test	ward_and_allport	-1	21.0	n/a	feedback	poldrack-single-stim	s598	False
1.768	243.046	1.768	244.814	1	PA_with_intermediate	test	ward_and_allport	89	22.0	1.768	to_hand	poldrack-single-stim	s598	False
0.1	244.816	0.679	245.495	0	PA_with_intermediate	test	ward_and_allport	82	22.0	0.679	to_board	poldrack-single-stim	s598	False
0.1	245.499	0.626	246.125	0	PA_with_intermediate	test	ward_and_allport	89	22.0	0.626	to_hand	poldrack-single-stim	s598	False
0.1	246.127	0.81	246.937	0	PA_with_intermediate	test	ward_and_allport	71	22.0	0.81	to_board	poldrack-single-stim	s598	False
0.1	246.943	0.539	247.482	0	PA_with_intermediate	test	ward_and_allport	82	22.0	0.539	to_hand	poldrack-single-stim	s598	False
0.1	247.483	0.393	247.876	0	PA_with_intermediate	test	ward_and_allport	71	22.0	0.393	to_board	poldrack-single-stim	s598	False
1.0	247.882	2.136	247.881	0	PA_with_intermediate	test	ward_and_allport	-1	22.0	n/a	feedback	poldrack-single-stim	s598	False
2.233	250.023	2.233	252.256	1	PA_without_intermediate	test	ward_and_allport	82	23.0	2.233	to_hand	poldrack-single-stim	s598	False
0.1	252.257	0.452	252.709	0	PA_without_intermediate	test	ward_and_allport	71	23.0	0.452	to_board	poldrack-single-stim	s598	False
0.1	252.715	1.891	254.606	0	PA_without_intermediate	test	ward_and_allport	82	23.0	1.891	to_hand	poldrack-single-stim	s598	False
0.1	254.607	0.572	255.179	0	PA_without_intermediate	test	ward_and_allport	71	23.0	0.572	to_board	poldrack-single-stim	s598	False
0.1	255.185	1.09	256.275	0	PA_without_intermediate	test	ward_and_allport	82	23.0	1.09	to_hand	poldrack-single-stim	s598	False
0.1	256.277	0.378	256.655	0	PA_without_intermediate	test	ward_and_allport	89	23.0	0.378	to_board	poldrack-single-stim	s598	False
1.0	256.665	2.68	256.664	0	PA_without_intermediate	test	ward_and_allport	-1	23.0	n/a	feedback	poldrack-single-stim	s598	False
1.758	259.351	1.758	261.109	1	PA_without_intermediate	test	ward_and_allport	71	24.0	1.758	to_hand	poldrack-single-stim	s598	False
0.1	261.11	0.459	261.569	0	PA_without_intermediate	test	ward_and_allport	89	24.0	0.459	to_board	poldrack-single-stim	s598	False
0.1	261.575	0.468	262.043	0	PA_without_intermediate	test	ward_and_allport	71	24.0	0.468	to_hand	poldrack-single-stim	s598	False
0.1	262.044	0.782	262.826	0	PA_without_intermediate	test	ward_and_allport	82	24.0	0.782	to_board	poldrack-single-stim	s598	False
0.1	262.832	0.783	263.615	0	PA_without_intermediate	test	ward_and_allport	71	24.0	0.783	to_hand	poldrack-single-stim	s598	False
0.1	263.616	0.287	263.903	0	PA_without_intermediate	test	ward_and_allport	89	24.0	0.287	to_board	poldrack-single-stim	s598	False
1.0	263.911	3.088	263.91	0	PA_without_intermediate	test	ward_and_allport	-1	24.0	n/a	feedback	poldrack-single-stim	s598	False
2.324	267.005	2.324	269.329	1	PA_with_intermediate	test	ward_and_allport	82	25.0	2.324	to_hand	poldrack-single-stim	s598	False
0.1	269.33	0.43	269.76	0	PA_with_intermediate	test	ward_and_allport	89	25.0	0.43	to_board	poldrack-single-stim	s598	False
0.1	269.766	0.523	270.289	0	PA_with_intermediate	test	ward_and_allport	82	25.0	0.523	to_hand	poldrack-single-stim	s598	False
0.1	270.291	0.554	270.845	0	PA_with_intermediate	test	ward_and_allport	71	25.0	0.554	to_board	poldrack-single-stim	s598	False
0.1	270.851	0.583	271.434	0	PA_with_intermediate	test	ward_and_allport	89	25.0	0.583	to_hand	poldrack-single-stim	s598	False
0.1	271.435	0.386	271.821	0	PA_with_intermediate	test	ward_and_allport	82	25.0	0.386	to_board	poldrack-single-stim	s598	False
1.0	271.831	2.0	271.83	0	PA_with_intermediate	test	ward_and_allport	-1	25.0	n/a	feedback	poldrack-single-stim	s598	False
1.213	273.837	1.213	275.05	1	PA_without_intermediate	test	ward_and_allport	82	26.0	1.213	to_hand	poldrack-single-stim	s598	False
0.1	275.051	0.445	275.496	0	PA_without_intermediate	test	ward_and_allport	89	26.0	0.445	to_board	poldrack-single-stim	s598	False
0.1	275.502	0.893	276.395	0	PA_without_intermediate	test	ward_and_allport	82	26.0	0.893	to_hand	poldrack-single-stim	s598	False
0.1	276.397	0.355	276.752	0	PA_without_intermediate	test	ward_and_allport	71	26.0	0.355	to_board	poldrack-single-stim	s598	False
0.1	276.758	0.588	277.346	0	PA_without_intermediate	test	ward_and_allport	82	26.0	0.588	to_hand	poldrack-single-stim	s598	False
0.1	277.347	0.366	277.713	0	PA_without_intermediate	test	ward_and_allport	89	26.0	0.366	to_board	poldrack-single-stim	s598	False
1.0	277.721	2.0	277.72	0	PA_without_intermediate	test	ward_and_allport	-1	26.0	n/a	feedback	poldrack-single-stim	s598	False
1.014	279.727	1.014	280.741	1	PA_without_intermediate	test	ward_and_allport	71	27.0	1.014	to_hand	poldrack-single-stim	s598	False
0.1	280.742	0.471	281.213	0	PA_without_intermediate	test	ward_and_allport	82	27.0	0.471	to_board	poldrack-single-stim	s598	False
0.1	281.219	1.006	282.225	0	PA_without_intermediate	test	ward_and_allport	71	27.0	1.006	to_hand	poldrack-single-stim	s598	False
0.1	282.226	0.303	282.529	0	PA_without_intermediate	test	ward_and_allport	89	27.0	0.303	to_board	poldrack-single-stim	s598	False
0.1	282.535	0.411	282.946	0	PA_without_intermediate	test	ward_and_allport	71	27.0	0.411	to_hand	poldrack-single-stim	s598	False
0.1	282.948	0.332	283.28	0	PA_without_intermediate	test	ward_and_allport	82	27.0	0.332	to_board	poldrack-single-stim	s598	False
1.0	283.287	2.0	283.286	0	PA_without_intermediate	test	ward_and_allport	-1	27.0	n/a	feedback	poldrack-single-stim	s598	False
2.564	285.293	2.564	287.857	1	PA_with_intermediate	test	ward_and_allport	71	28.0	2.564	to_hand	poldrack-single-stim	s598	False
0.1	287.858	0.341	288.199	0	PA_with_intermediate	test	ward_and_allport	82	28.0	0.341	to_board	poldrack-single-stim	s598	False
0.1	288.206	0.367	288.573	0	PA_with_intermediate	test	ward_and_allport	71	28.0	0.367	to_hand	poldrack-single-stim	s598	False
0.1	288.574	0.37	288.944	0	PA_with_intermediate	test	ward_and_allport	89	28.0	0.37	to_board	poldrack-single-stim	s598	False
0.1	288.95	0.431	289.381	0	PA_with_intermediate	test	ward_and_allport	82	28.0	0.431	to_hand	poldrack-single-stim	s598	False
0.1	289.382	0.313	289.695	0	PA_with_intermediate	test	ward_and_allport	71	28.0	0.313	to_board	poldrack-single-stim	s598	False
1.0	289.706	2.544	289.705	0	PA_with_intermediate	test	ward_and_allport	-1	28.0	n/a	feedback	poldrack-single-stim	s598	False
1.37	292.257	1.37	293.627	1	PA_without_intermediate	test	ward_and_allport	71	29.0	1.37	to_hand	poldrack-single-stim	s598	False
0.1	293.628	0.313	293.941	0	PA_without_intermediate	test	ward_and_allport	89	29.0	0.313	to_board	poldrack-single-stim	s598	False
0.1	293.948	0.442	294.39	0	PA_without_intermediate	test	ward_and_allport	71	29.0	0.442	to_hand	poldrack-single-stim	s598	False
0.1	294.392	0.64	295.032	0	PA_without_intermediate	test	ward_and_allport	89	29.0	0.64	to_board	poldrack-single-stim	s598	False
0.1	295.039	0.996	296.035	0	PA_without_intermediate	test	ward_and_allport	71	29.0	0.996	to_hand	poldrack-single-stim	s598	False
0.1	296.036	0.247	296.283	0	PA_without_intermediate	test	ward_and_allport	82	29.0	0.247	to_board	poldrack-single-stim	s598	False
1.0	296.294	2.272	296.293	0	PA_without_intermediate	test	ward_and_allport	-1	29.0	n/a	feedback	poldrack-single-stim	s598	False
1.996	303.576	1.996	305.572	1	PA_with_intermediate	test	ward_and_allport	82	30.0	1.996	to_hand	poldrack-single-stim	s598	False
0.1	305.573	0.521	306.094	0	PA_with_intermediate	test	ward_and_allport	89	30.0	0.521	to_board	poldrack-single-stim	s598	False
0.1	306.101	0.403	306.504	0	PA_with_intermediate	test	ward_and_allport	82	30.0	0.403	to_hand	poldrack-single-stim	s598	False
0.1	306.506	0.478	306.984	0	PA_with_intermediate	test	ward_and_allport	71	30.0	0.478	to_board	poldrack-single-stim	s598	False
0.1	306.991	0.408	307.399	0	PA_with_intermediate	test	ward_and_allport	89	30.0	0.408	to_hand	poldrack-single-stim	s598	False
0.1	307.4	0.296	307.696	0	PA_with_intermediate	test	ward_and_allport	82	30.0	0.296	to_board	poldrack-single-stim	s598	False
1.0	307.705	4.04	307.704	0	PA_with_intermediate	test	ward_and_allport	-1	30.0	n/a	feedback	poldrack-single-stim	s598	False
1.192	311.752	1.192	312.944	1	PA_with_intermediate	test	ward_and_allport	82	31.0	1.192	to_hand	poldrack-single-stim	s598	False
0.1	312.945	0.639	313.584	0	PA_with_intermediate	test	ward_and_allport	89	31.0	0.639	to_board	poldrack-single-stim	s598	False
0.1	313.591	0.592	314.183	0	PA_with_intermediate	test	ward_and_allport	82	31.0	0.592	to_hand	poldrack-single-stim	s598	False
0.1	314.184	0.521	314.705	0	PA_with_intermediate	test	ward_and_allport	71	31.0	0.521	to_board	poldrack-single-stim	s598	False
0.1	314.713	0.484	315.197	0	PA_with_intermediate	test	ward_and_allport	89	31.0	0.484	to_hand	poldrack-single-stim	s598	False
0.1	315.198	0.369	315.567	0	PA_with_intermediate	test	ward_and_allport	71	31.0	0.369	to_board	poldrack-single-stim	s598	False
1.0	315.58	2.272	315.579	0	PA_with_intermediate	test	ward_and_allport	-1	31.0	n/a	feedback	poldrack-single-stim	s598	False
1.716	317.859	1.716	319.575	1	PA_with_intermediate	test	ward_and_allport	71	32.0	1.716	to_hand	poldrack-single-stim	s598	False
0.1	319.576	0.545	320.121	0	PA_with_intermediate	test	ward_and_allport	89	32.0	0.545	to_board	poldrack-single-stim	s598	False
0.1	320.128	0.462	320.59	0	PA_with_intermediate	test	ward_and_allport	71	32.0	0.462	to_hand	poldrack-single-stim	s598	False
0.1	320.591	0.668	321.259	0	PA_with_intermediate	test	ward_and_allport	82	32.0	0.668	to_board	poldrack-single-stim	s598	False
0.1	321.268	0.5	321.768	0	PA_with_intermediate	test	ward_and_allport	89	32.0	0.5	to_hand	poldrack-single-stim	s598	False
0.1	321.769	0.428	322.197	0	PA_with_intermediate	test	ward_and_allport	71	32.0	0.428	to_board	poldrack-single-stim	s598	False
1.0	322.207	2.136	322.206	0	PA_with_intermediate	test	ward_and_allport	-1	32.0	n/a	feedback	poldrack-single-stim	s598	False
2.75	324.351	2.75	327.101	1	PA_with_intermediate	test	ward_and_allport	89	33.0	2.75	to_hand	poldrack-single-stim	s598	False
0.1	327.102	0.66	327.762	0	PA_with_intermediate	test	ward_and_allport	71	33.0	0.66	to_board	poldrack-single-stim	s598	False
0.1	327.767	0.381	328.148	0	PA_with_intermediate	test	ward_and_allport	89	33.0	0.381	to_hand	poldrack-single-stim	s598	False
0.1	328.149	0.506	328.655	0	PA_with_intermediate	test	ward_and_allport	82	33.0	0.506	to_board	poldrack-single-stim	s598	False
0.1	328.661	0.531	329.192	0	PA_with_intermediate	test	ward_and_allport	71	33.0	0.531	to_hand	poldrack-single-stim	s598	False
0.1	329.193	0.327	329.52	0	PA_with_intermediate	test	ward_and_allport	89	33.0	0.327	to_board	poldrack-single-stim	s598	False
1.0	329.532	2.0	329.531	0	PA_with_intermediate	test	ward_and_allport	-1	33.0	n/a	feedback	poldrack-single-stim	s598	False
1.521	331.541	1.521	333.062	1	PA_with_intermediate	test	ward_and_allport	89	34.0	1.521	to_hand	poldrack-single-stim	s598	False
0.1	333.063	0.418	333.481	0	PA_with_intermediate	test	ward_and_allport	82	34.0	0.418	to_board	poldrack-single-stim	s598	False
0.1	333.487	0.556	334.043	0	PA_with_intermediate	test	ward_and_allport	89	34.0	0.556	to_hand	poldrack-single-stim	s598	False
0.1	334.044	0.471	334.515	0	PA_with_intermediate	test	ward_and_allport	71	34.0	0.471	to_board	poldrack-single-stim	s598	False
0.1	334.521	0.683	335.204	0	PA_with_intermediate	test	ward_and_allport	82	34.0	0.683	to_hand	poldrack-single-stim	s598	False
0.1	335.205	0.373	335.578	0	PA_with_intermediate	test	ward_and_allport	89	34.0	0.373	to_board	poldrack-single-stim	s598	False
1.0	335.585	2.0	335.584	0	PA_with_intermediate	test	ward_and_allport	-1	34.0	n/a	feedback	poldrack-single-stim	s598	False
2.435	337.593	2.435	340.028	1	PA_without_intermediate	test	ward_and_allport	82	35.0	2.435	to_hand	poldrack-single-stim	s598	False
0.1	340.029	0.433	340.462	0	PA_without_intermediate	test	ward_and_allport	71	35.0	0.433	to_board	poldrack-single-stim	s598	False
0.1	340.467	0.803	341.27	0	PA_without_intermediate	test	ward_and_allport	82	35.0	0.803	to_hand	poldrack-single-stim	s598	False
0.1	341.271	0.357	341.628	0	PA_without_intermediate	test	ward_and_allport	71	35.0	0.357	to_board	poldrack-single-stim	s598	False
0.1	341.636	0.768	342.404	0	PA_without_intermediate	test	ward_and_allport	82	35.0	0.768	to_hand	poldrack-single-stim	s598	False
0.1	342.405	0.446	342.851	0	PA_without_intermediate	test	ward_and_allport	89	35.0	0.446	to_board	poldrack-single-stim	s598	False
1.0	342.862	2.408	342.861	0	PA_without_intermediate	test	ward_and_allport	-1	35.0	n/a	feedback	poldrack-single-stim	s598	False
2.037	345.277	2.037	347.314	1	PA_with_intermediate	test	ward_and_allport	82	36.0	2.037	to_hand	poldrack-single-stim	s598	False
0.1	347.315	0.98	348.295	0	PA_with_intermediate	test	ward_and_allport	71	36.0	0.98	to_board	poldrack-single-stim	s598	False
0.1	348.302	1.717	350.019	0	PA_with_intermediate	test	ward_and_allport	82	36.0	1.717	to_hand	poldrack-single-stim	s598	False
0.1	350.02	0.541	350.561	0	PA_with_intermediate	test	ward_and_allport	89	36.0	0.541	to_board	poldrack-single-stim	s598	False
0.1	350.569	1.267	351.836	0	PA_with_intermediate	test	ward_and_allport	71	36.0	1.267	to_hand	poldrack-single-stim	s598	False
0.1	351.837	0.439	352.276	0	PA_with_intermediate	test	ward_and_allport	89	36.0	0.439	to_board	poldrack-single-stim	s598	False
1.0	352.289	3.768	352.288	0	PA_with_intermediate	test	ward_and_allport	-1	36.0	n/a	feedback	poldrack-single-stim	s598	False
1.998	356.066	1.998	358.064	1	PA_with_intermediate	test	ward_and_allport	89	37.0	1.998	to_hand	poldrack-single-stim	s598	False
0.1	358.066	0.495	358.561	0	PA_with_intermediate	test	ward_and_allport	82	37.0	0.495	to_board	poldrack-single-stim	s598	False
0.1	358.569	0.597	359.166	0	PA_with_intermediate	test	ward_and_allport	89	37.0	0.597	to_hand	poldrack-single-stim	s598	False
0.1	359.167	0.428	359.595	0	PA_with_intermediate	test	ward_and_allport	71	37.0	0.428	to_board	poldrack-single-stim	s598	False
0.1	359.604	0.45	360.054	0	PA_with_intermediate	test	ward_and_allport	82	37.0	0.45	to_hand	poldrack-single-stim	s598	False
0.1	360.055	0.446	360.501	0	PA_with_intermediate	test	ward_and_allport	71	37.0	0.446	to_board	poldrack-single-stim	s598	False
1.0	360.509	2.68	360.508	0	PA_with_intermediate	test	ward_and_allport	-1	37.0	n/a	feedback	poldrack-single-stim	s598	False
1.159	363.196	1.159	364.355	1	PA_without_intermediate	test	ward_and_allport	82	38.0	1.159	to_hand	poldrack-single-stim	s598	False
0.1	364.357	0.545	364.902	0	PA_without_intermediate	test	ward_and_allport	71	38.0	0.545	to_board	poldrack-single-stim	s598	False
0.1	364.908	0.916	365.824	0	PA_without_intermediate	test	ward_and_allport	82	38.0	0.916	to_hand	poldrack-single-stim	s598	False
0.1	365.825	0.369	366.194	0	PA_without_intermediate	test	ward_and_allport	89	38.0	0.369	to_board	poldrack-single-stim	s598	False
0.1	366.2	1.618	367.818	0	PA_without_intermediate	test	ward_and_allport	82	38.0	1.618	to_hand	poldrack-single-stim	s598	False
0.1	367.819	0.281	368.1	0	PA_without_intermediate	test	ward_and_allport	71	38.0	0.281	to_board	poldrack-single-stim	s598	False
1.0	368.111	3.224	368.11	0	PA_without_intermediate	test	ward_and_allport	-1	38.0	n/a	feedback	poldrack-single-stim	s598	False
1.151	371.343	1.151	372.494	1	PA_without_intermediate	test	ward_and_allport	89	39.0	1.151	to_hand	poldrack-single-stim	s598	False
0.1	372.495	0.563	373.058	0	PA_without_intermediate	test	ward_and_allport	82	39.0	0.563	to_board	poldrack-single-stim	s598	False
0.1	373.067	0.44	373.507	0	PA_without_intermediate	test	ward_and_allport	89	39.0	0.44	to_hand	poldrack-single-stim	s598	False
0.1	373.508	0.387	373.895	0	PA_without_intermediate	test	ward_and_allport	82	39.0	0.387	to_board	poldrack-single-stim	s598	False
0.1	373.902	0.439	374.341	0	PA_without_intermediate	test	ward_and_allport	89	39.0	0.439	to_hand	poldrack-single-stim	s598	False
0.1	374.342	0.315	374.657	0	PA_without_intermediate	test	ward_and_allport	71	39.0	0.315	to_board	poldrack-single-stim	s598	False
1.0	374.668	3.36	374.667	0	PA_without_intermediate	test	ward_and_allport	-1	39.0	n/a	feedback	poldrack-single-stim	s598	False
2.406	378.033	2.406	380.439	1	PA_without_intermediate	test	ward_and_allport	82	40.0	2.406	to_hand	poldrack-single-stim	s598	False
0.1	380.441	0.565	381.006	0	PA_without_intermediate	test	ward_and_allport	89	40.0	0.565	to_board	poldrack-single-stim	s598	False
0.1	381.012	0.633	381.645	0	PA_without_intermediate	test	ward_and_allport	82	40.0	0.633	to_hand	poldrack-single-stim	s598	False
0.1	381.646	0.587	382.233	0	PA_without_intermediate	test	ward_and_allport	89	40.0	0.587	to_board	poldrack-single-stim	s598	False
0.1	382.243	0.458	382.701	0	PA_without_intermediate	test	ward_and_allport	82	40.0	0.458	to_hand	poldrack-single-stim	s598	False
0.1	382.703	0.4	383.103	0	PA_without_intermediate	test	ward_and_allport	71	40.0	0.4	to_board	poldrack-single-stim	s598	False
1.0	383.116	2.0	383.115	0	PA_without_intermediate	test	ward_and_allport	-1	40.0	n/a	feedback	poldrack-single-stim	s598	False
1.235	385.123	1.235	386.358	1	PA_without_intermediate	test	ward_and_allport	82	41.0	1.235	to_hand	poldrack-single-stim	s598	False
0.1	386.359	0.477	386.836	0	PA_without_intermediate	test	ward_and_allport	89	41.0	0.477	to_board	poldrack-single-stim	s598	False
0.1	386.842	1.887	388.729	0	PA_without_intermediate	test	ward_and_allport	82	41.0	1.887	to_hand	poldrack-single-stim	s598	False
0.1	388.73	0.423	389.153	0	PA_without_intermediate	test	ward_and_allport	89	41.0	0.423	to_board	poldrack-single-stim	s598	False
0.1	389.159	0.599	389.758	0	PA_without_intermediate	test	ward_and_allport	82	41.0	0.599	to_hand	poldrack-single-stim	s598	False
0.1	389.759	0.344	390.103	0	PA_without_intermediate	test	ward_and_allport	71	41.0	0.344	to_board	poldrack-single-stim	s598	False
1.0	390.116	2.408	390.115	0	PA_without_intermediate	test	ward_and_allport	-1	41.0	n/a	feedback	poldrack-single-stim	s598	False
1.937	392.532	1.937	394.469	1	PA_with_intermediate	test	ward_and_allport	71	42.0	1.937	to_hand	poldrack-single-stim	s598	False
0.1	394.47	0.484	394.954	0	PA_with_intermediate	test	ward_and_allport	82	42.0	0.484	to_board	poldrack-single-stim	s598	False
0.1	394.962	0.486	395.448	0	PA_with_intermediate	test	ward_and_allport	71	42.0	0.486	to_hand	poldrack-single-stim	s598	False
0.1	395.449	0.452	395.901	0	PA_with_intermediate	test	ward_and_allport	89	42.0	0.452	to_board	poldrack-single-stim	s598	False
0.1	395.907	0.529	396.436	0	PA_with_intermediate	test	ward_and_allport	82	42.0	0.529	to_hand	poldrack-single-stim	s598	False
0.1	396.437	0.369	396.806	0	PA_with_intermediate	test	ward_and_allport	89	42.0	0.369	to_board	poldrack-single-stim	s598	False
1.0	396.819	2.136	396.818	0	PA_with_intermediate	test	ward_and_allport	-1	42.0	n/a	feedback	poldrack-single-stim	s598	False
1.682	398.964	1.682	400.646	1	PA_without_intermediate	test	ward_and_allport	89	43.0	1.682	to_hand	poldrack-single-stim	s598	False
0.1	400.647	0.508	401.155	0	PA_without_intermediate	test	ward_and_allport	82	43.0	0.508	to_board	poldrack-single-stim	s598	False
0.1	401.161	0.561	401.722	0	PA_without_intermediate	test	ward_and_allport	89	43.0	0.561	to_hand	poldrack-single-stim	s598	False
0.1	401.723	0.389	402.112	0	PA_without_intermediate	test	ward_and_allport	71	43.0	0.389	to_board	poldrack-single-stim	s598	False
0.1	402.118	0.441	402.559	0	PA_without_intermediate	test	ward_and_allport	89	43.0	0.441	to_hand	poldrack-single-stim	s598	False
0.1	402.56	0.384	402.944	0	PA_without_intermediate	test	ward_and_allport	82	43.0	0.384	to_board	poldrack-single-stim	s598	False
1.0	402.953	5.128	402.952	0	PA_without_intermediate	test	ward_and_allport	-1	43.0	n/a	feedback	poldrack-single-stim	s598	False
1.034	408.089	1.034	409.123	1	PA_without_intermediate	test	ward_and_allport	89	44.0	1.034	to_hand	poldrack-single-stim	s598	False
0.1	409.125	0.412	409.537	0	PA_without_intermediate	test	ward_and_allport	82	44.0	0.412	to_board	poldrack-single-stim	s598	False
0.1	409.545	0.376	409.921	0	PA_without_intermediate	test	ward_and_allport	89	44.0	0.376	to_hand	poldrack-single-stim	s598	False
0.1	409.922	0.314	410.236	0	PA_without_intermediate	test	ward_and_allport	71	44.0	0.314	to_board	poldrack-single-stim	s598	False
0.1	410.252	0.287	410.539	0	PA_without_intermediate	test	ward_and_allport	89	44.0	0.287	to_hand	poldrack-single-stim	s598	False
0.1	410.54	0.327	410.867	0	PA_without_intermediate	test	ward_and_allport	82	44.0	0.327	to_board	poldrack-single-stim	s598	False
1.0	410.879	2.136	410.878	0	PA_without_intermediate	test	ward_and_allport	-1	44.0	n/a	feedback	poldrack-single-stim	s598	False
1.291	418.025	1.291	419.316	1	PA_without_intermediate	test	ward_and_allport	89	45.0	1.291	to_hand	poldrack-single-stim	s598	False
0.1	419.317	0.33	419.647	0	PA_without_intermediate	test	ward_and_allport	82	45.0	0.33	to_board	poldrack-single-stim	s598	False
0.1	419.657	0.576	420.233	0	PA_without_intermediate	test	ward_and_allport	89	45.0	0.576	to_hand	poldrack-single-stim	s598	False
0.1	420.234	0.302	420.536	0	PA_without_intermediate	test	ward_and_allport	82	45.0	0.302	to_board	poldrack-single-stim	s598	False
0.1	420.546	0.381	420.927	0	PA_without_intermediate	test	ward_and_allport	89	45.0	0.381	to_hand	poldrack-single-stim	s598	False
0.1	420.928	0.227	421.155	0	PA_without_intermediate	test	ward_and_allport	71	45.0	0.227	to_board	poldrack-single-stim	s598	False
1.0	421.169	5.264	421.168	0	PA_without_intermediate	test	ward_and_allport	-1	45.0	n/a	feedback	poldrack-single-stim	s598	False
2.039	426.441	2.039	428.48	1	PA_with_intermediate	test	ward_and_allport	71	46.0	2.039	to_hand	poldrack-single-stim	s598	False
0.1	428.481	0.507	428.988	0	PA_with_intermediate	test	ward_and_allport	82	46.0	0.507	to_board	poldrack-single-stim	s598	False
0.1	428.997	0.408	429.405	0	PA_with_intermediate	test	ward_and_allport	71	46.0	0.408	to_hand	poldrack-single-stim	s598	False
0.1	429.406	0.401	429.807	0	PA_with_intermediate	test	ward_and_allport	89	46.0	0.401	to_board	poldrack-single-stim	s598	False
0.1	429.822	1.094	430.916	0	PA_with_intermediate	test	ward_and_allport	82	46.0	1.094	to_hand	poldrack-single-stim	s598	False
0.1	430.917	0.236	431.153	0	PA_with_intermediate	test	ward_and_allport	71	46.0	0.236	to_board	poldrack-single-stim	s598	False
1.0	431.163	4.04	431.162	0	PA_with_intermediate	test	ward_and_allport	-1	46.0	n/a	feedback	poldrack-single-stim	s598	False
1.908	435.211	1.908	437.119	1	PA_with_intermediate	test	ward_and_allport	71	47.0	1.908	to_hand	poldrack-single-stim	s598	False
0.1	437.121	0.587	437.708	0	PA_with_intermediate	test	ward_and_allport	82	47.0	0.587	to_board	poldrack-single-stim	s598	False
0.1	437.716	0.508	438.224	0	PA_with_intermediate	test	ward_and_allport	71	47.0	0.508	to_hand	poldrack-single-stim	s598	False
0.1	438.225	0.418	438.643	0	PA_with_intermediate	test	ward_and_allport	89	47.0	0.418	to_board	poldrack-single-stim	s598	False
0.1	438.652	0.427	439.079	0	PA_with_intermediate	test	ward_and_allport	82	47.0	0.427	to_hand	poldrack-single-stim	s598	False
0.1	439.08	0.414	439.494	0	PA_with_intermediate	test	ward_and_allport	89	47.0	0.414	to_board	poldrack-single-stim	s598	False
1.0	439.505	2.136	439.504	0	PA_with_intermediate	test	ward_and_allport	-1	47.0	n/a	feedback	poldrack-single-stim	s598	False
