onset	duration	movement_onset	EV	action	block_duration	experiment_exp_id	gain_amount	gain_probability	key_press	loss_amount	loss_probability	num_cards	num_click_in_round	num_loss_cards	risk	response_time	total_cards	trial_id	trial_type	worker_id	junk	feedback
3.013	8.922	11.935	-2.037277268013569	end_round	8.922	columbia_card_task_fmri	12.0	0.8333333333333334	71.0	-70.0	0.1666666666666666	6.0	1.0	1.0	1.10548975998638	8.922	0.0	stim	poldrack-single-stim	s598	False	1
12.69	1.5	11.939	n/a	-1.0	2.25	columbia_card_task_fmri	n/a	n/a	-1.0	n/a	n/a	n/a	n/a	n/a	n/a	n/a	n/a	ITI	poldrack-single-stim	s598	False	0
14.192	4.829	19.021	-1.2039439346802352	end_round	4.829	columbia_card_task_fmri	14.0	0.8333333333333334	71.0	-75.0	0.1666666666666666	6.0	1.0	1.0	3.714058999016128	4.829	0.0	stim	poldrack-single-stim	s598	False	1
19.775	1.5	19.024	n/a	-1.0	2.386	columbia_card_task_fmri	n/a	n/a	-1.0	n/a	n/a	n/a	n/a	n/a	n/a	n/a	n/a	ITI	poldrack-single-stim	s598	False	0
21.413	5.598	27.011	0.4627227319864307	draw_card	5.598	columbia_card_task_fmri	15.0	0.8333333333333334	89.0	-70.0	0.1666666666666666	6.0	1.0	1.0	2.223444441251978	5.598	n/a	stim	poldrack-single-stim	s598	False	1
27.013	7.916	34.929	-2.370610601346903	draw_card	7.916	columbia_card_task_fmri	15.0	0.8	89.0	-70.0	0.2	6.0	2.0	1.0	4.545666691069787	7.916	n/a	stim	poldrack-single-stim	s598	False	1
34.931	0.862	35.793	-6.620610601346903	end_round	0.862	columbia_card_task_fmri	15.0	0.75	71.0	-70.0	0.25	6.0	3.0	1.0	7.351592369405683	0.862	2.0	stim	poldrack-single-stim	s598	False	1
36.547	1.5	35.796	n/a	-1.0	2.59	columbia_card_task_fmri	n/a	n/a	-1.0	n/a	n/a	n/a	n/a	n/a	n/a	n/a	n/a	ITI	poldrack-single-stim	s598	False	0
38.39	3.635	42.025	1.2960560653197648	draw_card	3.635	columbia_card_task_fmri	17.0	0.8333333333333334	89.0	-75.0	0.1666666666666666	6.0	1.0	1.0	4.832025476539645	3.635	n/a	stim	poldrack-single-stim	s598	False	1
42.026	1.037	43.063	-1.7706106013469016	draw_card	1.037	columbia_card_task_fmri	17.0	0.8	89.0	-75.0	0.2	6.0	2.0	1.0	7.345513016803945	1.037	n/a	stim	poldrack-single-stim	s598	False	1
43.064	1.693	44.757	-6.370610601346903	end_round	1.693	columbia_card_task_fmri	17.0	0.75	71.0	-75.0	0.25	6.0	3.0	1.0	10.382539322727592	1.693	2.0	stim	poldrack-single-stim	s598	False	1
45.513	1.5	44.762	n/a	-1.0	2.658	columbia_card_task_fmri	n/a	n/a	-1.0	n/a	n/a	n/a	n/a	n/a	n/a	n/a	n/a	ITI	poldrack-single-stim	s598	False	0
47.422	12.034	59.456	2.629389398653097	draw_card	12.034	columbia_card_task_fmri	24.0	0.75	89.0	-60.0	0.25	8.0	1.0	2.0	6.91860187878466	12.034	n/a	stim	poldrack-single-stim	s598	False	1
59.457	2.113	61.57	-0.3706106013469031	draw_card	2.113	columbia_card_task_fmri	24.0	0.7142857142857143	89.0	-60.0	0.2857142857142857	8.0	2.0	2.0	8.492788518751016	2.113	n/a	stim	poldrack-single-stim	s598	False	1
61.572	7.355	68.927	-4.370610601346903	end_round	7.355	columbia_card_task_fmri	24.0	0.6666666666666667	71.0	-60.0	0.3333333333333333	8.0	3.0	2.0	10.143360907630925	7.355	2.0	stim	poldrack-single-stim	s598	False	1
69.679	1.5	68.928	n/a	-1.0	2.386	columbia_card_task_fmri	n/a	n/a	-1.0	n/a	n/a	n/a	n/a	n/a	n/a	n/a	n/a	ITI	poldrack-single-stim	s598	False	0
71.317	4.252	75.569	2.629389398653097	draw_card	4.252	columbia_card_task_fmri	29.0	0.75	89.0	-75.0	0.25	8.0	1.0	2.0	15.578492843016551	4.252	n/a	stim	poldrack-single-stim	s598	False	1
75.57	3.75	79.32	-1.0848963156326148	draw_card	3.75	columbia_card_task_fmri	29.0	0.7142857142857143	89.0	-75.0	0.2857142857142857	8.0	2.0	2.0	17.52751953468493	3.75	2.0	stim	poldrack-single-stim	s598	False	0
80.073	1.5	79.322	n/a	-1.0	2.386	columbia_card_task_fmri	n/a	n/a	-1.0	n/a	n/a	n/a	n/a	n/a	n/a	n/a	n/a	ITI	poldrack-single-stim	s598	False	0
81.711	2.616	84.327	-1.5928328235691227	draw_card	2.616	columbia_card_task_fmri	17.0	0.7777777777777778	89.0	-65.0	0.2222222222222222	9.0	1.0	2.0	4.636317510737147	2.616	n/a	stim	poldrack-single-stim	s598	False	1
84.329	1.603	85.932	-3.870610601346903	draw_card	1.603	columbia_card_task_fmri	17.0	0.75	89.0	-65.0	0.25	9.0	2.0	2.0	6.052622522627413	1.603	n/a	stim	poldrack-single-stim	s598	False	1
85.934	6.034	91.968	-6.79918202991833	draw_card	6.034	columbia_card_task_fmri	17.0	0.7142857142857143	89.0	-65.0	0.2857142857142857	9.0	3.0	2.0	7.589324753449066	6.034	n/a	stim	poldrack-single-stim	s598	False	1
91.97	0.701	92.671	-10.703943934680234	end_round	0.701	columbia_card_task_fmri	17.0	0.6666666666666667	71.0	-65.0	0.3333333333333333	9.0	4.0	2.0	9.2005941640225	0.701	3.0	stim	poldrack-single-stim	s598	False	1
93.426	1.5	92.675	n/a	-1.0	2.25	columbia_card_task_fmri	n/a	n/a	-1.0	n/a	n/a	n/a	n/a	n/a	n/a	n/a	n/a	ITI	poldrack-single-stim	s598	False	0
94.928	4.517	99.445	2.7293893986530966	draw_card	4.517	columbia_card_task_fmri	14.0	0.9	89.0	-95.0	0.1	10.0	1.0	1.0	3.245746984887088	4.517	n/a	stim	poldrack-single-stim	s598	False	1
99.447	0.791	100.238	1.5182782875419845	draw_card	0.791	columbia_card_task_fmri	14.0	0.8888888888888888	89.0	-95.0	0.1111111111111111	10.0	2.0	1.0	4.801046810386023	0.791	2.0	stim	poldrack-single-stim	s598	False	0
100.99	1.5	100.239	n/a	-1.0	2.318	columbia_card_task_fmri	n/a	n/a	-1.0	n/a	n/a	n/a	n/a	n/a	n/a	n/a	n/a	ITI	poldrack-single-stim	s598	False	0
102.56	3.342	105.902	-1.370610601346903	draw_card	3.342	columbia_card_task_fmri	15.0	0.8	89.0	-65.0	0.2	10.0	1.0	2.0	2.5457929219507243	3.342	n/a	stim	poldrack-single-stim	s598	False	1
105.904	1.364	107.268	-3.14838837912468	draw_card	1.364	columbia_card_task_fmri	15.0	0.7777777777777778	89.0	-65.0	0.2222222222222222	10.0	2.0	2.0	3.804888449731333	1.364	2.0	stim	poldrack-single-stim	s598	False	0
108.023	1.5	107.272	n/a	-1.0	2.25	columbia_card_task_fmri	n/a	n/a	-1.0	n/a	n/a	n/a	n/a	n/a	n/a	n/a	n/a	ITI	poldrack-single-stim	s598	False	0
109.525	2.287	111.812	0.2293893986530982	draw_card	2.287	columbia_card_task_fmri	17.0	0.8	89.0	-65.0	0.2	10.0	1.0	2.0	3.3457405824934163	2.287	n/a	stim	poldrack-single-stim	s598	False	1
111.814	0.827	112.641	-1.5928328235691227	end_round	0.827	columbia_card_task_fmri	17.0	0.7777777777777778	71.0	-65.0	0.2222222222222222	10.0	2.0	2.0	4.636317510737147	0.827	1.0	stim	poldrack-single-stim	s598	False	1
113.394	1.5	112.643	n/a	-1.0	2.25	columbia_card_task_fmri	n/a	n/a	-1.0	n/a	n/a	n/a	n/a	n/a	n/a	n/a	n/a	ITI	poldrack-single-stim	s598	False	0
114.896	2.567	117.463	-1.2039439346802352	draw_card	2.567	columbia_card_task_fmri	13.0	0.8333333333333334	89.0	-70.0	0.1666666666666666	12.0	1.0	2.0	1.478140683468652	2.567	n/a	stim	poldrack-single-stim	s598	False	1
117.465	1.756	119.221	-2.4615196922559965	draw_card	1.756	columbia_card_task_fmri	13.0	0.8181818181818181	89.0	-70.0	0.1818181818181818	12.0	2.0	2.0	2.5584445311698083	1.756	n/a	stim	poldrack-single-stim	s598	False	1
119.224	0.417	119.641	-3.970610601346903	end_round	0.417	columbia_card_task_fmri	13.0	0.8	71.0	-70.0	0.2	12.0	3.0	2.0	3.745715358568713	0.417	2.0	stim	poldrack-single-stim	s598	False	1
120.394	1.5	119.643	n/a	-1.0	2.386	columbia_card_task_fmri	n/a	n/a	-1.0	n/a	n/a	n/a	n/a	n/a	n/a	n/a	n/a	ITI	poldrack-single-stim	s598	False	0
122.032	2.165	124.197	-1.2039439346802352	draw_card	2.165	columbia_card_task_fmri	15.0	0.8333333333333334	89.0	-80.0	0.1666666666666666	12.0	1.0	2.0	5.9499962175680245	2.165	n/a	stim	poldrack-single-stim	s598	False	1
124.199	0.399	124.598	-2.643337874074178	draw_card	0.399	columbia_card_task_fmri	15.0	0.8181818181818181	89.0	-80.0	0.1818181818181818	12.0	2.0	2.0	7.186508867390113	0.399	2.0	stim	poldrack-single-stim	s598	False	0
125.354	1.5	124.603	n/a	-1.0	2.386	columbia_card_task_fmri	n/a	n/a	-1.0	n/a	n/a	n/a	n/a	n/a	n/a	n/a	n/a	ITI	poldrack-single-stim	s598	False	0
126.992	2.84	129.832	-2.170610601346902	draw_card	2.84	columbia_card_task_fmri	14.0	0.8	89.0	-65.0	0.2	15.0	1.0	3.0	2.1458200853657097	2.84	1.0	stim	poldrack-single-stim	s598	False	0
130.585	1.5	129.834	n/a	-1.0	2.726	columbia_card_task_fmri	n/a	n/a	-1.0	n/a	n/a	n/a	n/a	n/a	n/a	n/a	n/a	ITI	poldrack-single-stim	s598	False	0
132.563	1.909	134.472	-2.245610601346903	end_round	1.909	columbia_card_task_fmri	1.0	0.9375	71.0	-45.0	0.0625	16.0	1.0	1.0	-18.3153600361254	1.909	0.0	stim	poldrack-single-stim	s598	False	1
135.227	1.5	134.476	n/a	-1.0	2.454	columbia_card_task_fmri	n/a	n/a	-1.0	n/a	n/a	n/a	n/a	n/a	n/a	n/a	n/a	ITI	poldrack-single-stim	s598	False	0
136.933	1.478	138.411	-1.308110601346903	draw_card	1.478	columbia_card_task_fmri	15.0	0.8125	89.0	-70.0	0.1875	16.0	1.0	3.0	3.722268686914244	1.478	1.0	stim	poldrack-single-stim	s598	False	0
139.166	1.5	138.415	n/a	-1.0	2.318	columbia_card_task_fmri	n/a	n/a	-1.0	n/a	n/a	n/a	n/a	n/a	n/a	n/a	n/a	ITI	poldrack-single-stim	s598	False	0
140.736	2.409	143.145	5.629389398653097	draw_card	2.409	columbia_card_task_fmri	30.0	0.7	89.0	-50.0	0.3	10.0	1.0	3.0	7.206125671746694	2.409	1.0	stim	poldrack-single-stim	s598	False	0
143.898	1.5	143.147	n/a	-1.0	2.318	columbia_card_task_fmri	n/a	n/a	-1.0	n/a	n/a	n/a	n/a	n/a	n/a	n/a	n/a	ITI	poldrack-single-stim	s598	False	0
145.468	1.617	147.085	5.029389398653097	draw_card	1.617	columbia_card_task_fmri	17.0	0.8666666666666667	89.0	-70.0	0.1333333333333333	15.0	1.0	2.0	0.120282107162648	1.617	1.0	stim	poldrack-single-stim	s598	False	0
147.838	1.5	147.087	n/a	-1.0	2.59	columbia_card_task_fmri	n/a	n/a	-1.0	n/a	n/a	n/a	n/a	n/a	n/a	n/a	n/a	ITI	poldrack-single-stim	s598	False	0
149.68	3.247	152.927	0.2543893986530968	draw_card	3.247	columbia_card_task_fmri	7.0	0.9375	89.0	-95.0	0.0625	16.0	1.0	1.0	-4.763302953967958	3.247	n/a	stim	poldrack-single-stim	s598	False	1
152.93	1.4	154.33	-0.1706106013469029	end_round	1.4	columbia_card_task_fmri	7.0	0.9333333333333332	71.0	-95.0	0.0666666666666666	16.0	2.0	1.0	-4.01038386197499	1.4	1.0	stim	poldrack-single-stim	s598	False	1
155.082	1.5	154.331	n/a	-1.0	2.726	columbia_card_task_fmri	n/a	n/a	-1.0	n/a	n/a	n/a	n/a	n/a	n/a	n/a	n/a	ITI	poldrack-single-stim	s598	False	0
157.06	2.078	159.138	1.816889398653097	end_round	2.078	columbia_card_task_fmri	9.0	0.9375	71.0	-100.0	0.0625	16.0	1.0	1.0	-3.069051340487338	2.078	0.0	stim	poldrack-single-stim	s598	False	1
159.89	1.5	159.139	n/a	-1.0	2.522	columbia_card_task_fmri	n/a	n/a	-1.0	n/a	n/a	n/a	n/a	n/a	n/a	n/a	n/a	ITI	poldrack-single-stim	s598	False	0
161.664	8.417	170.081	2.754389398653097	draw_card	8.417	columbia_card_task_fmri	15.0	0.875	89.0	-80.0	0.125	16.0	1.0	2.0	1.9641294718890057	8.417	n/a	stim	poldrack-single-stim	s598	False	1
170.083	0.645	170.728	1.9627227319864309	draw_card	0.645	columbia_card_task_fmri	15.0	0.8666666666666667	89.0	-80.0	0.1333333333333333	16.0	2.0	2.0	2.8395636524143875	0.645	n/a	stim	poldrack-single-stim	s598	False	1
170.731	0.448	171.179	1.0579608272245276	end_round	0.448	columbia_card_task_fmri	15.0	0.8571428571428572	71.0	-80.0	0.1428571428571428	16.0	3.0	2.0	3.788787759091552	0.448	2.0	stim	poldrack-single-stim	s598	False	1
171.934	1.5	171.183	n/a	-1.0	3.134	columbia_card_task_fmri	n/a	n/a	-1.0	n/a	n/a	n/a	n/a	n/a	n/a	n/a	n/a	ITI	poldrack-single-stim	s598	False	0
174.32	2.439	176.759	4.879389398653097	draw_card	2.439	columbia_card_task_fmri	16.0	0.875	89.0	-70.0	0.125	16.0	1.0	2.0	-1.0121120263540355	2.439	n/a	stim	poldrack-single-stim	s598	False	1
176.761	2.305	179.066	4.16272273198643	draw_card	2.305	columbia_card_task_fmri	16.0	0.8666666666666667	89.0	-70.0	0.1333333333333333	16.0	2.0	2.0	-0.2196255285033963	2.305	2.0	stim	poldrack-single-stim	s598	False	0
179.823	1.5	179.072	n/a	-1.0	2.386	columbia_card_task_fmri	n/a	n/a	-1.0	n/a	n/a	n/a	n/a	n/a	n/a	n/a	n/a	ITI	poldrack-single-stim	s598	False	0
181.462	2.119	183.581	6.191889398653097	draw_card	2.119	columbia_card_task_fmri	30.0	0.6875	89.0	-45.0	0.3125	16.0	1.0	5.0	5.309052745029927	2.119	n/a	stim	poldrack-single-stim	s598	False	1
183.583	1.244	184.827	4.6293893986531005	draw_card	1.244	columbia_card_task_fmri	30.0	0.6666666666666667	89.0	-45.0	0.3333333333333333	16.0	2.0	5.0	5.900928325171993	1.244	n/a	stim	poldrack-single-stim	s598	False	1
184.829	0.508	185.337	2.8436751129388087	end_round	0.508	columbia_card_task_fmri	30.0	0.6428571428571428	71.0	-45.0	0.3571428571428571	16.0	3.0	5.0	6.482364620188026	0.508	2.0	stim	poldrack-single-stim	s598	False	1
186.093	1.5	185.342	n/a	-1.0	2.386	columbia_card_task_fmri	n/a	n/a	-1.0	n/a	n/a	n/a	n/a	n/a	n/a	n/a	n/a	ITI	poldrack-single-stim	s598	False	0
187.731	2.737	190.468	-2.037277268013569	end_round	2.737	columbia_card_task_fmri	13.0	0.8333333333333334	71.0	-75.0	0.1666666666666666	6.0	1.0	1.0	3.3414045293094894	2.737	0.0	stim	poldrack-single-stim	s598	False	1
191.224	1.5	190.473	n/a	-1.0	2.318	columbia_card_task_fmri	n/a	n/a	-1.0	n/a	n/a	n/a	n/a	n/a	n/a	n/a	n/a	ITI	poldrack-single-stim	s598	False	0
192.794	2.459	195.253	-0.3706106013469014	end_round	2.459	columbia_card_task_fmri	14.0	0.8333333333333334	71.0	-70.0	0.1666666666666666	6.0	1.0	1.0	1.8507922514720685	2.459	0.0	stim	poldrack-single-stim	s598	False	1
196.005	1.5	195.254	n/a	-1.0	2.318	columbia_card_task_fmri	n/a	n/a	-1.0	n/a	n/a	n/a	n/a	n/a	n/a	n/a	n/a	ITI	poldrack-single-stim	s598	False	0
197.575	2.658	200.233	-0.3706106013469014	end_round	2.658	columbia_card_task_fmri	16.0	0.8333333333333334	71.0	-80.0	0.1666666666666666	6.0	1.0	1.0	6.322654009612766	2.658	0.0	stim	poldrack-single-stim	s598	False	1
200.99	1.5	200.239	n/a	-1.0	2.862	columbia_card_task_fmri	n/a	n/a	-1.0	n/a	n/a	n/a	n/a	n/a	n/a	n/a	n/a	ITI	poldrack-single-stim	s598	False	0
203.104	1.259	204.363	2.1293893986530987	end_round	1.259	columbia_card_task_fmri	17.0	0.8333333333333334	71.0	-70.0	0.1666666666666666	6.0	1.0	1.0	2.968750600390532	1.259	0.0	stim	poldrack-single-stim	s598	False	1
205.115	1.5	204.364	n/a	-1.0	2.726	columbia_card_task_fmri	n/a	n/a	-1.0	n/a	n/a	n/a	n/a	n/a	n/a	n/a	n/a	ITI	poldrack-single-stim	s598	False	0
207.093	4.564	211.657	2.129389398653097	end_round	4.564	columbia_card_task_fmri	25.0	0.75	71.0	-65.0	0.25	8.0	1.0	2.0	9.516552225743926	4.564	0.0	stim	poldrack-single-stim	s598	False	1
212.412	1.5	211.661	n/a	-1.0	2.25	columbia_card_task_fmri	n/a	n/a	-1.0	n/a	n/a	n/a	n/a	n/a	n/a	n/a	n/a	ITI	poldrack-single-stim	s598	False	0
213.915	1.974	215.889	2.129389398653097	draw_card	1.974	columbia_card_task_fmri	30.0	0.75	89.0	-80.0	0.25	8.0	1.0	2.0	18.17648587619393	1.974	1.0	stim	poldrack-single-stim	s598	False	0
216.643	1.5	215.892	n/a	-1.0	2.318	columbia_card_task_fmri	n/a	n/a	-1.0	n/a	n/a	n/a	n/a	n/a	n/a	n/a	n/a	ITI	poldrack-single-stim	s598	False	0
218.213	1.655	219.868	1.829389398653098	end_round	1.655	columbia_card_task_fmri	13.0	0.9	71.0	-95.0	0.1	10.0	1.0	1.0	2.9457664291707	1.655	0.0	stim	poldrack-single-stim	s598	False	1
220.622	1.5	219.871	n/a	-1.0	2.454	columbia_card_task_fmri	n/a	n/a	-1.0	n/a	n/a	n/a	n/a	n/a	n/a	n/a	n/a	ITI	poldrack-single-stim	s598	False	0
222.329	4.39	226.719	3.2293893986530966	draw_card	4.39	columbia_card_task_fmri	14.0	0.9	89.0	-90.0	0.1	10.0	1.0	1.0	1.7458479452057425	4.39	n/a	stim	poldrack-single-stim	s598	False	1
226.721	0.456	227.177	2.07383384309754	end_round	0.456	columbia_card_task_fmri	14.0	0.8888888888888888	71.0	-90.0	0.1111111111111111	10.0	2.0	1.0	3.229794784743465	0.456	1.0	stim	poldrack-single-stim	s598	False	1
227.932	1.5	227.181	n/a	-1.0	2.522	columbia_card_task_fmri	n/a	n/a	-1.0	n/a	n/a	n/a	n/a	n/a	n/a	n/a	n/a	ITI	poldrack-single-stim	s598	False	0
229.707	2.746	232.453	-1.5706106013469023	end_round	2.746	columbia_card_task_fmri	16.0	0.8	71.0	-70.0	0.2	10.0	1.0	2.0	4.945643206096971	2.746	0.0	stim	poldrack-single-stim	s598	False	1
233.208	1.5	232.457	n/a	-1.0	2.318	columbia_card_task_fmri	n/a	n/a	-1.0	n/a	n/a	n/a	n/a	n/a	n/a	n/a	n/a	ITI	poldrack-single-stim	s598	False	0
234.779	1.355	236.134	-2.287277268013569	end_round	1.355	columbia_card_task_fmri	7.0	0.9166666666666666	71.0	-100.0	0.0833333333333333	12.0	1.0	1.0	0.1192067267646663	1.355	0.0	stim	poldrack-single-stim	s598	False	1
236.887	1.5	236.136	n/a	-1.0	2.522	columbia_card_task_fmri	n/a	n/a	-1.0	n/a	n/a	n/a	n/a	n/a	n/a	n/a	n/a	ITI	poldrack-single-stim	s598	False	0
238.661	5.96	244.621	-2.037277268013568	draw_card	5.96	columbia_card_task_fmri	14.0	0.8333333333333334	89.0	-80.0	0.1666666666666666	12.0	1.0	2.0	5.577338855364285	5.96	n/a	stim	poldrack-single-stim	s598	False	1
244.623	0.674	245.297	-3.4615196922559965	end_round	0.674	columbia_card_task_fmri	14.0	0.8181818181818181	71.0	-80.0	0.1818181818181818	12.0	2.0	2.0	6.800834197258329	0.674	1.0	stim	poldrack-single-stim	s598	False	1
246.054	1.5	245.303	n/a	-1.0	2.998	columbia_card_task_fmri	n/a	n/a	-1.0	n/a	n/a	n/a	n/a	n/a	n/a	n/a	n/a	ITI	poldrack-single-stim	s598	False	0
248.304	1.941	250.245	-0.3706106013469031	end_round	1.941	columbia_card_task_fmri	15.0	0.8333333333333334	71.0	-75.0	0.1666666666666666	12.0	1.0	2.0	4.086713991486437	1.941	0.0	stim	poldrack-single-stim	s598	False	1
251.0	1.5	250.249	n/a	-1.0	2.318	columbia_card_task_fmri	n/a	n/a	-1.0	n/a	n/a	n/a	n/a	n/a	n/a	n/a	n/a	ITI	poldrack-single-stim	s598	False	0
252.571	3.029	255.6	-1.370610601346903	draw_card	3.029	columbia_card_task_fmri	15.0	0.8	89.0	-65.0	0.2	15.0	1.0	3.0	2.5457929219507243	3.029	n/a	stim	poldrack-single-stim	s598	False	1
255.602	0.7	256.302	-2.5134677442040454	end_round	0.7	columbia_card_task_fmri	15.0	0.7857142857142857	71.0	-65.0	0.2142857142857142	15.0	2.0	3.0	3.3718111855862283	0.7	1.0	stim	poldrack-single-stim	s598	False	1
257.058	1.5	256.307	n/a	-1.0	2.25	columbia_card_task_fmri	n/a	n/a	-1.0	n/a	n/a	n/a	n/a	n/a	n/a	n/a	n/a	ITI	poldrack-single-stim	s598	False	0
258.56	4.373	262.933	-2.120610601346903	draw_card	4.373	columbia_card_task_fmri	14.0	0.8125	89.0	-70.0	0.1875	16.0	1.0	3.0	3.331980952769801	4.373	n/a	stim	poldrack-single-stim	s598	False	1
262.935	0.89	263.825	-3.170610601346902	end_round	0.89	columbia_card_task_fmri	14.0	0.8	71.0	-70.0	0.2	16.0	2.0	3.0	4.14569073515818	0.89	1.0	stim	poldrack-single-stim	s598	False	1
264.581	1.5	263.83	n/a	-1.0	2.454	columbia_card_task_fmri	n/a	n/a	-1.0	n/a	n/a	n/a	n/a	n/a	n/a	n/a	n/a	ITI	poldrack-single-stim	s598	False	0
266.288	3.866	270.154	-2.183110601346903	end_round	3.866	columbia_card_task_fmri	11.0	0.6875	71.0	-30.0	0.3125	16.0	1.0	5.0	-10.448731085222729	3.866	0.0	stim	poldrack-single-stim	s598	False	1
270.91	1.5	270.159	n/a	-1.0	2.318	columbia_card_task_fmri	n/a	n/a	-1.0	n/a	n/a	n/a	n/a	n/a	n/a	n/a	n/a	ITI	poldrack-single-stim	s598	False	0
272.48	8.128	280.608	2.629389398653097	draw_card	8.128	columbia_card_task_fmri	15.0	0.8666666666666667	89.0	-75.0	0.1333333333333333	15.0	1.0	2.0	1.1400086135637617	8.128	n/a	stim	poldrack-single-stim	s598	False	1
280.61	1.85	282.46	1.772246541510241	end_round	1.85	columbia_card_task_fmri	15.0	0.8571428571428572	71.0	-75.0	0.1428571428571428	15.0	2.0	2.0	2.039266988181705	1.85	1.0	stim	poldrack-single-stim	s598	False	1
283.213	1.5	282.462	n/a	-1.0	2.318	columbia_card_task_fmri	n/a	n/a	-1.0	n/a	n/a	n/a	n/a	n/a	n/a	n/a	n/a	ITI	poldrack-single-stim	s598	False	0
284.785	1.88	286.665	4.362722731986431	draw_card	1.88	columbia_card_task_fmri	17.0	0.8666666666666667	89.0	-75.0	0.1333333333333333	15.0	1.0	2.0	1.8198290884090795	1.88	n/a	stim	poldrack-single-stim	s598	False	1
286.668	1.103	287.771	3.4865322557959564	draw_card	1.103	columbia_card_task_fmri	17.0	0.8571428571428572	89.0	-75.0	0.1428571428571428	15.0	2.0	2.0	2.7390737998289474	1.103	n/a	stim	poldrack-single-stim	s598	False	1
287.774	0.506	288.28	2.475543244806944	end_round	0.506	columbia_card_task_fmri	17.0	0.8461538461538461	71.0	-75.0	0.1538461538461538	15.0	3.0	2.0	3.739427281473457	0.506	2.0	stim	poldrack-single-stim	s598	False	1
289.032	1.5	288.281	n/a	-1.0	2.59	columbia_card_task_fmri	n/a	n/a	-1.0	n/a	n/a	n/a	n/a	n/a	n/a	n/a	n/a	ITI	poldrack-single-stim	s598	False	0
290.875	3.115	293.99	-0.0581106013469031	draw_card	3.115	columbia_card_task_fmri	2.0	0.9375	89.0	-25.0	0.0625	16.0	1.0	1.0	-22.910194263226856	3.115	n/a	stim	poldrack-single-stim	s598	False	1
293.994	3.172	297.166	-0.1706106013469032	draw_card	3.172	columbia_card_task_fmri	2.0	0.9333333333333332	89.0	-25.0	0.0666666666666666	16.0	2.0	1.0	-22.7111806224028	3.172	n/a	stim	poldrack-single-stim	s598	False	1
297.17	1.03	298.2	-0.2991820299183315	draw_card	1.03	columbia_card_task_fmri	2.0	0.9285714285714286	89.0	-25.0	0.0714285714285714	16.0	3.0	1.0	-22.492920573307057	1.03	n/a	stim	poldrack-single-stim	s598	False	1
298.203	2.473	300.676	-0.44753367826998	draw_card	2.473	columbia_card_task_fmri	2.0	0.9230769230769232	89.0	-25.0	0.0769230769230769	16.0	4.0	1.0	-22.252141461636175	2.473	n/a	stim	poldrack-single-stim	s598	False	1
300.679	3.999	304.678	-0.6206106013469029	draw_card	3.999	columbia_card_task_fmri	2.0	0.9166666666666666	89.0	-25.0	0.0833333333333333	16.0	5.0	1.0	-21.9847500790664	3.999	n/a	stim	poldrack-single-stim	s598	False	1
304.681	0.508	305.189	-0.825156055892358	draw_card	0.508	columbia_card_task_fmri	2.0	0.9090909090909092	89.0	-25.0	0.0909090909090909	16.0	6.0	1.0	-21.68555612889835	0.508	n/a	stim	poldrack-single-stim	s598	False	1
305.191	5.713	310.904	-1.0706106013469032	draw_card	5.713	columbia_card_task_fmri	2.0	0.9	89.0	-25.0	0.1	16.0	7.0	1.0	-21.347879035264302	5.713	n/a	stim	poldrack-single-stim	s598	False	1
310.908	0.525	311.433	-1.370610601346903	draw_card	0.525	columbia_card_task_fmri	2.0	0.8888888888888888	89.0	-25.0	0.1111111111111111	16.0	8.0	1.0	-20.9629820594802	0.525	n/a	stim	poldrack-single-stim	s598	False	1
311.436	2.997	314.433	-1.745610601346903	draw_card	2.997	columbia_card_task_fmri	2.0	0.875	89.0	-25.0	0.125	16.0	9.0	1.0	-20.51925476769263	2.997	n/a	stim	poldrack-single-stim	s598	False	1
314.436	1.474	315.91	-2.22775345848976	draw_card	1.474	columbia_card_task_fmri	2.0	0.8571428571428572	89.0	-25.0	0.1428571428571428	16.0	10.0	1.0	-20.001055236472183	1.474	n/a	stim	poldrack-single-stim	s598	False	1
315.912	2.033	317.945	-2.870610601346902	draw_card	2.033	columbia_card_task_fmri	2.0	0.8333333333333334	89.0	-25.0	0.1666666666666666	16.0	11.0	1.0	-19.387224462265685	2.033	n/a	stim	poldrack-single-stim	s598	False	1
317.948	2.604	320.552	-3.770610601346903	draw_card	2.604	columbia_card_task_fmri	2.0	0.8	89.0	-25.0	0.2	16.0	12.0	1.0	-18.64999610643432	2.604	n/a	stim	poldrack-single-stim	s598	False	1
320.555	1.183	321.738	-5.120610601346903	end_round	1.183	columbia_card_task_fmri	2.0	0.75	71.0	-25.0	0.25	16.0	13.0	1.0	-17.759137559071785	1.183	12.0	stim	poldrack-single-stim	s598	False	1
322.492	1.5	321.741	n/a	-1.0	2.25	columbia_card_task_fmri	n/a	n/a	-1.0	n/a	n/a	n/a	n/a	n/a	n/a	n/a	n/a	ITI	poldrack-single-stim	s598	False	0
323.995	5.369	329.364	2.129389398653097	draw_card	5.369	columbia_card_task_fmri	9.0	0.9375	89.0	-95.0	0.0625	16.0	1.0	1.0	-4.2792335173102245	5.369	n/a	stim	poldrack-single-stim	s598	False	1
329.368	1.208	330.576	1.6960560653197645	draw_card	1.208	columbia_card_task_fmri	9.0	0.9333333333333332	89.0	-95.0	0.0666666666666666	16.0	2.0	1.0	-3.511548109719964	1.208	2.0	stim	poldrack-single-stim	s598	False	0
331.33	1.5	330.579	n/a	-1.0	2.25	columbia_card_task_fmri	n/a	n/a	-1.0	n/a	n/a	n/a	n/a	n/a	n/a	n/a	n/a	ITI	poldrack-single-stim	s598	False	0
332.834	3.635	336.469	3.691889398653097	end_round	3.635	columbia_card_task_fmri	11.0	0.9375	71.0	-100.0	0.0625	16.0	1.0	1.0	-2.584975314069716	3.635	0.0	stim	poldrack-single-stim	s598	False	1
337.223	1.5	336.472	n/a	-1.0	2.522	columbia_card_task_fmri	n/a	n/a	-1.0	n/a	n/a	n/a	n/a	n/a	n/a	n/a	n/a	ITI	poldrack-single-stim	s598	False	0
338.997	3.331	342.328	4.254389398653097	end_round	3.331	columbia_card_task_fmri	16.0	0.875	71.0	-75.0	0.125	16.0	1.0	2.0	0.6413498877967427	3.331	0.0	stim	poldrack-single-stim	s598	False	1
343.085	1.5	342.334	n/a	-1.0	2.454	columbia_card_task_fmri	n/a	n/a	-1.0	n/a	n/a	n/a	n/a	n/a	n/a	n/a	n/a	ITI	poldrack-single-stim	s598	False	0
344.792	2.463	347.255	4.504389398653097	draw_card	2.463	columbia_card_task_fmri	17.0	0.875	89.0	-80.0	0.125	16.0	1.0	2.0	2.625522234910779	2.463	n/a	stim	poldrack-single-stim	s598	False	1
347.257	0.459	347.716	3.696056065319765	end_round	0.459	columbia_card_task_fmri	17.0	0.8666666666666667	71.0	-80.0	0.1333333333333333	16.0	2.0	2.0	3.519389077626844	0.459	1.0	stim	poldrack-single-stim	s598	False	1
348.471	1.5	347.72	n/a	-1.0	2.25	columbia_card_task_fmri	n/a	n/a	-1.0	n/a	n/a	n/a	n/a	n/a	n/a	n/a	n/a	ITI	poldrack-single-stim	s598	False	0
360.983	2.169	363.152	-1.2039439346802352	draw_card	2.169	columbia_card_task_fmri	13.0	0.8333333333333334	89.0	-70.0	0.1666666666666666	6.0	1.0	1.0	1.478140683468652	2.169	1.0	stim	poldrack-single-stim	s598	False	0
363.906	1.5	363.155	n/a	-1.0	2.454	columbia_card_task_fmri	n/a	n/a	-1.0	n/a	n/a	n/a	n/a	n/a	n/a	n/a	n/a	ITI	poldrack-single-stim	s598	False	0
365.613	1.426	367.039	-1.2039439346802352	end_round	1.426	columbia_card_task_fmri	15.0	0.8333333333333334	71.0	-80.0	0.1666666666666666	6.0	1.0	1.0	5.9499962175680245	1.426	0.0	stim	poldrack-single-stim	s598	False	1
367.793	1.5	367.042	n/a	-1.0	2.454	columbia_card_task_fmri	n/a	n/a	-1.0	n/a	n/a	n/a	n/a	n/a	n/a	n/a	n/a	ITI	poldrack-single-stim	s598	False	0
369.501	1.776	371.277	0.4627227319864307	end_round	1.776	columbia_card_task_fmri	16.0	0.8333333333333334	71.0	-75.0	0.1666666666666666	6.0	1.0	1.0	4.459369489488534	1.776	0.0	stim	poldrack-single-stim	s598	False	1
372.034	1.5	371.283	n/a	-1.0	2.522	columbia_card_task_fmri	n/a	n/a	-1.0	n/a	n/a	n/a	n/a	n/a	n/a	n/a	n/a	ITI	poldrack-single-stim	s598	False	0
373.809	1.916	375.725	1.629389398653097	end_round	1.916	columbia_card_task_fmri	21.0	0.75	71.0	-55.0	0.25	8.0	1.0	2.0	3.4546989942062574	1.916	0.0	stim	poldrack-single-stim	s598	False	1
376.477	1.5	375.726	n/a	-1.0	2.454	columbia_card_task_fmri	n/a	n/a	-1.0	n/a	n/a	n/a	n/a	n/a	n/a	n/a	n/a	ITI	poldrack-single-stim	s598	False	0
378.184	1.911	380.095	2.879389398653097	draw_card	1.911	columbia_card_task_fmri	26.0	0.75	89.0	-65.0	0.25	8.0	1.0	2.0	9.949545563772798	1.911	1.0	stim	poldrack-single-stim	s598	False	0
380.852	1.5	380.101	n/a	-1.0	2.658	columbia_card_task_fmri	n/a	n/a	-1.0	n/a	n/a	n/a	n/a	n/a	n/a	n/a	n/a	ITI	poldrack-single-stim	s598	False	0
382.763	2.469	385.232	-2.037277268013569	draw_card	2.469	columbia_card_task_fmri	15.0	0.7777777777777778	89.0	-60.0	0.2222222222222222	9.0	1.0	2.0	1.7263275462979877	2.469	n/a	stim	poldrack-single-stim	s598	False	1
385.235	0.544	385.779	-4.120610601346903	end_round	0.544	columbia_card_task_fmri	15.0	0.75	71.0	-60.0	0.25	9.0	2.0	2.0	3.0217141143128963	0.544	1.0	stim	poldrack-single-stim	s598	False	1
386.532	1.5	385.781	n/a	-1.0	2.386	columbia_card_task_fmri	n/a	n/a	-1.0	n/a	n/a	n/a	n/a	n/a	n/a	n/a	n/a	ITI	poldrack-single-stim	s598	False	0
388.17	1.601	389.771	2.329389398653098	draw_card	1.601	columbia_card_task_fmri	13.0	0.9	89.0	-90.0	0.1	10.0	1.0	1.0	1.4458693133820404	1.601	n/a	stim	poldrack-single-stim	s598	False	1
389.774	1.581	391.355	1.1849449542086523	draw_card	1.581	columbia_card_task_fmri	13.0	0.8888888888888888	89.0	-90.0	0.1111111111111111	10.0	2.0	1.0	2.9155455023457115	1.581	n/a	stim	poldrack-single-stim	s598	False	1
391.357	0.537	391.894	-0.2456106013469031	end_round	0.537	columbia_card_task_fmri	13.0	0.875	71.0	-90.0	0.125	10.0	3.0	1.0	4.609711023521566	0.537	2.0	stim	poldrack-single-stim	s598	False	1
392.651	1.5	391.9	n/a	-1.0	2.522	columbia_card_task_fmri	n/a	n/a	-1.0	n/a	n/a	n/a	n/a	n/a	n/a	n/a	n/a	ITI	poldrack-single-stim	s598	False	0
394.425	1.506	395.931	3.629389398653097	draw_card	1.506	columbia_card_task_fmri	15.0	0.9	89.0	-95.0	0.1	10.0	1.0	1.0	3.5457278941021606	1.506	n/a	stim	poldrack-single-stim	s598	False	1
395.935	0.563	396.498	2.4071671764308737	draw_card	0.563	columbia_card_task_fmri	15.0	0.8888888888888888	89.0	-95.0	0.1111111111111111	10.0	2.0	1.0	5.11529826680729	0.563	n/a	stim	poldrack-single-stim	s598	False	1
396.501	0.434	396.935	0.8793893986530968	end_round	0.434	columbia_card_task_fmri	15.0	0.875	71.0	-95.0	0.125	10.0	3.0	1.0	6.924615134891663	0.434	2.0	stim	poldrack-single-stim	s598	False	1
397.688	1.5	396.937	n/a	-1.0	2.59	columbia_card_task_fmri	n/a	n/a	-1.0	n/a	n/a	n/a	n/a	n/a	n/a	n/a	n/a	ITI	poldrack-single-stim	s598	False	0
399.531	5.231	404.762	-0.5706106013469024	draw_card	5.231	columbia_card_task_fmri	16.0	0.8	89.0	-65.0	0.2	10.0	1.0	2.0	2.945766429170707	5.231	1.0	stim	poldrack-single-stim	s598	False	0
405.519	1.5	404.768	n/a	-1.0	2.386	columbia_card_task_fmri	n/a	n/a	-1.0	n/a	n/a	n/a	n/a	n/a	n/a	n/a	n/a	ITI	poldrack-single-stim	s598	False	0
407.158	4.297	411.455	-1.870610601346903	draw_card	4.297	columbia_card_task_fmri	7.0	0.9166666666666666	89.0	-95.0	0.0833333333333333	12.0	1.0	1.0	-1.2626064480743686	4.297	1.0	stim	poldrack-single-stim	s598	False	0
412.211	1.5	411.46	n/a	-1.0	2.59	columbia_card_task_fmri	n/a	n/a	-1.0	n/a	n/a	n/a	n/a	n/a	n/a	n/a	n/a	ITI	poldrack-single-stim	s598	False	0
414.053	3.939	417.992	-1.2039439346802352	end_round	3.939	columbia_card_task_fmri	14.0	0.8333333333333334	71.0	-75.0	0.1666666666666666	12.0	1.0	2.0	3.714058999016128	3.939	0.0	stim	poldrack-single-stim	s598	False	1
418.75	1.5	417.999	n/a	-1.0	2.318	columbia_card_task_fmri	n/a	n/a	-1.0	n/a	n/a	n/a	n/a	n/a	n/a	n/a	n/a	ITI	poldrack-single-stim	s598	False	0
420.32	1.805	422.125	0.4627227319864307	end_round	1.805	columbia_card_task_fmri	15.0	0.8333333333333334	71.0	-70.0	0.1666666666666666	12.0	1.0	2.0	2.223444441251978	1.805	0.0	stim	poldrack-single-stim	s598	False	1
422.882	1.5	422.131	n/a	-1.0	2.25	columbia_card_task_fmri	n/a	n/a	-1.0	n/a	n/a	n/a	n/a	n/a	n/a	n/a	n/a	ITI	poldrack-single-stim	s598	False	0
424.384	1.469	425.853	-1.5706106013469023	end_round	1.469	columbia_card_task_fmri	16.0	0.8	71.0	-70.0	0.2	15.0	1.0	3.0	4.945643206096971	1.469	0.0	stim	poldrack-single-stim	s598	False	1
426.611	1.5	425.86	n/a	-1.0	2.454	columbia_card_task_fmri	n/a	n/a	-1.0	n/a	n/a	n/a	n/a	n/a	n/a	n/a	n/a	ITI	poldrack-single-stim	s598	False	0
428.318	3.369	431.687	-1.183110601346903	draw_card	3.369	columbia_card_task_fmri	14.0	0.8125	89.0	-65.0	0.1875	16.0	1.0	3.0	1.3805516383267251	3.369	n/a	stim	poldrack-single-stim	s598	False	1
431.69	0.643	432.333	-2.170610601346902	draw_card	0.643	columbia_card_task_fmri	14.0	0.8	89.0	-65.0	0.2	16.0	2.0	3.0	2.1458200853657097	0.643	n/a	stim	poldrack-single-stim	s598	False	1
432.336	0.538	432.874	-3.29918202991833	end_round	0.538	columbia_card_task_fmri	14.0	0.7857142857142857	71.0	-65.0	0.2142857142857142	16.0	3.0	3.0	2.9615117622403453	0.538	2.0	stim	poldrack-single-stim	s598	False	1
433.627	1.5	432.876	n/a	-1.0	3.27	columbia_card_task_fmri	n/a	n/a	-1.0	n/a	n/a	n/a	n/a	n/a	n/a	n/a	n/a	ITI	poldrack-single-stim	s598	False	0
436.15	1.947	438.097	-1.433110601346903	draw_card	1.947	columbia_card_task_fmri	16.0	0.8125	89.0	-75.0	0.1875	16.0	1.0	3.0	6.064006463461109	1.947	n/a	stim	poldrack-single-stim	s598	False	1
438.101	0.462	438.563	-2.5706106013469023	end_round	0.462	columbia_card_task_fmri	16.0	0.8	71.0	-75.0	0.2	16.0	2.0	3.0	6.945533522903947	0.462	1.0	stim	poldrack-single-stim	s598	False	1
439.317	1.5	438.566	n/a	-1.0	2.25	columbia_card_task_fmri	n/a	n/a	-1.0	n/a	n/a	n/a	n/a	n/a	n/a	n/a	n/a	ITI	poldrack-single-stim	s598	False	0
440.821	1.675	442.496	2.829389398653098	draw_card	1.675	columbia_card_task_fmri	16.0	0.8666666666666667	89.0	-80.0	0.1333333333333333	15.0	1.0	2.0	3.1794761366923545	1.675	1.0	stim	poldrack-single-stim	s598	False	0
443.255	1.5	442.504	n/a	-1.0	2.25	columbia_card_task_fmri	n/a	n/a	-1.0	n/a	n/a	n/a	n/a	n/a	n/a	n/a	n/a	ITI	poldrack-single-stim	s598	False	0
444.758	1.428	446.186	3.696056065319765	end_round	1.428	columbia_card_task_fmri	17.0	0.8666666666666667	71.0	-80.0	0.1333333333333333	15.0	1.0	2.0	3.519389077626844	1.428	0.0	stim	poldrack-single-stim	s598	False	1
446.942	1.5	446.191	n/a	-1.0	2.318	columbia_card_task_fmri	n/a	n/a	-1.0	n/a	n/a	n/a	n/a	n/a	n/a	n/a	n/a	ITI	poldrack-single-stim	s598	False	0
448.514	8.102	456.616	-0.3706106013469031	draw_card	8.102	columbia_card_task_fmri	1.0	0.9375	89.0	-15.0	0.0625	16.0	1.0	1.0	-25.56567810079435	8.102	n/a	stim	poldrack-single-stim	s598	False	1
456.619	0.833	457.452	-0.4372772680135698	draw_card	0.833	columbia_card_task_fmri	1.0	0.9333333333333332	89.0	-15.0	0.0666666666666666	16.0	2.0	1.0	-25.448081548542845	0.833	n/a	stim	poldrack-single-stim	s598	False	1
457.455	0.432	457.887	-0.513467744204046	end_round	0.432	columbia_card_task_fmri	1.0	0.9285714285714286	71.0	-15.0	0.0714285714285714	16.0	3.0	1.0	-25.319090264601645	0.432	2.0	stim	poldrack-single-stim	s598	False	1
458.64	1.5	457.889	n/a	-1.0	2.726	columbia_card_task_fmri	n/a	n/a	-1.0	n/a	n/a	n/a	n/a	n/a	n/a	n/a	n/a	ITI	poldrack-single-stim	s598	False	0
460.62	2.085	462.705	2.754389398653097	draw_card	2.085	columbia_card_task_fmri	10.0	0.9375	89.0	-100.0	0.0625	16.0	1.0	1.0	-2.827013540392372	2.085	n/a	stim	poldrack-single-stim	s598	False	1
462.708	0.633	463.341	2.296056065319764	end_round	0.633	columbia_card_task_fmri	10.0	0.9333333333333332	71.0	-100.0	0.0666666666666666	16.0	2.0	1.0	-2.0150295310873645	0.633	1.0	stim	poldrack-single-stim	s598	False	1
464.095	1.5	463.344	n/a	-1.0	2.386	columbia_card_task_fmri	n/a	n/a	-1.0	n/a	n/a	n/a	n/a	n/a	n/a	n/a	n/a	ITI	poldrack-single-stim	s598	False	0
465.734	1.638	467.372	3.379389398653097	draw_card	1.638	columbia_card_task_fmri	15.0	0.875	89.0	-75.0	0.125	16.0	1.0	2.0	0.3106563259473915	1.638	1.0	stim	poldrack-single-stim	s598	False	0
468.126	1.5	467.375	n/a	-1.0	2.318	columbia_card_task_fmri	n/a	n/a	-1.0	n/a	n/a	n/a	n/a	n/a	n/a	n/a	n/a	ITI	poldrack-single-stim	s598	False	0
469.697	1.714	471.411	3.629389398653097	end_round	1.714	columbia_card_task_fmri	16.0	0.875	71.0	-80.0	0.125	16.0	1.0	2.0	2.29482561871167	1.714	0.0	stim	poldrack-single-stim	s598	False	1
472.167	1.5	471.416	n/a	-1.0	2.25	columbia_card_task_fmri	n/a	n/a	-1.0	n/a	n/a	n/a	n/a	n/a	n/a	n/a	n/a	ITI	poldrack-single-stim	s598	False	0
473.67	4.139	477.809	0.8168893986530968	draw_card	4.139	columbia_card_task_fmri	4.0	0.6875	89.0	-5.0	0.3125	16.0	1.0	5.0	-25.26831111370964	4.139	n/a	stim	poldrack-single-stim	s598	False	1
477.812	0.549	478.361	0.6293893986530973	draw_card	0.549	columbia_card_task_fmri	4.0	0.6666666666666667	89.0	-5.0	0.3333333333333333	16.0	2.0	5.0	-25.19755609567471	0.549	n/a	stim	poldrack-single-stim	s598	False	1
478.364	4.193	482.557	0.4151036843673822	draw_card	4.193	columbia_card_task_fmri	4.0	0.6428571428571428	89.0	-5.0	0.3571428571428571	16.0	3.0	5.0	-25.128040415504465	4.193	3.0	stim	poldrack-single-stim	s598	False	0
483.314	1.5	482.563	n/a	-1.0	2.25	columbia_card_task_fmri	n/a	n/a	-1.0	n/a	n/a	n/a	n/a	n/a	n/a	n/a	n/a	ITI	poldrack-single-stim	s598	False	0
484.817	1.63	486.447	-2.037277268013568	end_round	1.63	columbia_card_task_fmri	14.0	0.8333333333333334	71.0	-80.0	0.1666666666666666	6.0	1.0	1.0	5.577338855364285	1.63	0.0	stim	poldrack-single-stim	s598	False	1
487.2	1.5	486.449	n/a	-1.0	2.454	columbia_card_task_fmri	n/a	n/a	-1.0	n/a	n/a	n/a	n/a	n/a	n/a	n/a	n/a	ITI	poldrack-single-stim	s598	False	0
488.907	1.275	490.182	-0.3706106013469031	end_round	1.275	columbia_card_task_fmri	15.0	0.8333333333333334	71.0	-75.0	0.1666666666666666	6.0	1.0	1.0	4.086713991486437	1.275	0.0	stim	poldrack-single-stim	s598	False	1
490.939	1.5	490.188	n/a	-1.0	2.454	columbia_card_task_fmri	n/a	n/a	-1.0	n/a	n/a	n/a	n/a	n/a	n/a	n/a	n/a	ITI	poldrack-single-stim	s598	False	0
492.646	0.98	493.626	1.2960560653197648	end_round	0.98	columbia_card_task_fmri	16.0	0.8333333333333334	71.0	-70.0	0.1666666666666666	6.0	1.0	1.0	2.5960972311214654	0.98	0.0	stim	poldrack-single-stim	s598	False	1
494.38	1.5	493.629	n/a	-1.0	2.522	columbia_card_task_fmri	n/a	n/a	-1.0	n/a	n/a	n/a	n/a	n/a	n/a	n/a	n/a	ITI	poldrack-single-stim	s598	False	0
496.155	1.48	497.635	1.879389398653097	draw_card	1.48	columbia_card_task_fmri	23.0	0.75	89.0	-60.0	0.25	8.0	1.0	2.0	6.485611923332815	1.48	1.0	stim	poldrack-single-stim	s598	False	0
498.388	1.5	497.637	n/a	-1.0	2.386	columbia_card_task_fmri	n/a	n/a	-1.0	n/a	n/a	n/a	n/a	n/a	n/a	n/a	n/a	ITI	poldrack-single-stim	s598	False	0
500.027	1.468	501.495	2.379389398653097	draw_card	1.468	columbia_card_task_fmri	27.0	0.75	89.0	-70.0	0.25	8.0	1.0	2.0	12.547513975786211	1.468	n/a	stim	poldrack-single-stim	s598	False	1
501.498	1.421	502.919	-1.0848963156326183	end_round	1.421	columbia_card_task_fmri	27.0	0.7142857142857143	71.0	-70.0	0.2857142857142857	8.0	2.0	2.0	14.36534735568259	1.421	1.0	stim	poldrack-single-stim	s598	False	1
503.672	1.5	502.921	n/a	-1.0	2.454	columbia_card_task_fmri	n/a	n/a	-1.0	n/a	n/a	n/a	n/a	n/a	n/a	n/a	n/a	ITI	poldrack-single-stim	s598	False	0
505.379	1.197	506.576	-2.3706106013469013	end_round	1.197	columbia_card_task_fmri	16.0	0.7777777777777778	71.0	-65.0	0.2222222222222222	9.0	1.0	2.0	4.220602669408915	1.197	0.0	stim	poldrack-single-stim	s598	False	1
507.33	1.5	506.579	n/a	-1.0	2.522	columbia_card_task_fmri	n/a	n/a	-1.0	n/a	n/a	n/a	n/a	n/a	n/a	n/a	n/a	ITI	poldrack-single-stim	s598	False	0
509.105	0.951	510.056	2.829389398653098	end_round	0.951	columbia_card_task_fmri	13.0	0.9	71.0	-85.0	0.1	10.0	1.0	1.0	-0.0540173052098751	0.951	0.0	stim	poldrack-single-stim	s598	False	1
510.809	1.5	510.058	n/a	-1.0	2.522	columbia_card_task_fmri	n/a	n/a	-1.0	n/a	n/a	n/a	n/a	n/a	n/a	n/a	n/a	ITI	poldrack-single-stim	s598	False	0
512.586	1.445	514.031	-2.170610601346902	draw_card	1.445	columbia_card_task_fmri	14.0	0.8	89.0	-65.0	0.2	10.0	1.0	2.0	2.1458200853657097	1.445	n/a	stim	poldrack-single-stim	s598	False	1
514.034	0.472	514.506	-3.9261661569024566	end_round	0.472	columbia_card_task_fmri	14.0	0.7777777777777778	71.0	-65.0	0.2222222222222222	10.0	2.0	2.0	3.389174875308445	0.472	1.0	stim	poldrack-single-stim	s598	False	1
515.262	1.5	514.511	n/a	-1.0	2.59	columbia_card_task_fmri	n/a	n/a	-1.0	n/a	n/a	n/a	n/a	n/a	n/a	n/a	n/a	ITI	poldrack-single-stim	s598	False	0
517.105	2.473	519.578	-0.7706106013469017	end_round	2.473	columbia_card_task_fmri	17.0	0.8	71.0	-70.0	0.2	10.0	1.0	2.0	5.345620260962146	2.473	0.0	stim	poldrack-single-stim	s598	False	1
520.335	1.5	519.584	n/a	-1.0	2.454	columbia_card_task_fmri	n/a	n/a	-1.0	n/a	n/a	n/a	n/a	n/a	n/a	n/a	n/a	ITI	poldrack-single-stim	s598	False	0
522.042	2.753	524.795	-2.037277268013569	end_round	2.753	columbia_card_task_fmri	13.0	0.8333333333333334	71.0	-75.0	0.1666666666666666	12.0	1.0	2.0	3.3414045293094894	2.753	0.0	stim	poldrack-single-stim	s598	False	1
525.55	1.5	524.799	n/a	-1.0	2.318	columbia_card_task_fmri	n/a	n/a	-1.0	n/a	n/a	n/a	n/a	n/a	n/a	n/a	n/a	ITI	poldrack-single-stim	s598	False	0
527.121	2.6	529.721	-0.3706106013469014	draw_card	2.6	columbia_card_task_fmri	14.0	0.8333333333333334	89.0	-70.0	0.1666666666666666	12.0	1.0	2.0	1.8507922514720685	2.6	1.0	stim	poldrack-single-stim	s598	False	0
530.476	1.5	529.725	n/a	-1.0	2.25	columbia_card_task_fmri	n/a	n/a	-1.0	n/a	n/a	n/a	n/a	n/a	n/a	n/a	n/a	ITI	poldrack-single-stim	s598	False	0
531.979	0.161	532.14	-0.3706106013469014	end_round	0.161	columbia_card_task_fmri	16.0	0.8333333333333334	71.0	-80.0	0.1666666666666666	12.0	1.0	2.0	6.322654009612766	0.161	0.0	stim	poldrack-single-stim	s598	False	1
532.894	1.5	532.143	n/a	-1.0	2.658	columbia_card_task_fmri	n/a	n/a	-1.0	n/a	n/a	n/a	n/a	n/a	n/a	n/a	n/a	ITI	poldrack-single-stim	s598	False	0
534.806	1.69	536.496	-0.5706106013469024	draw_card	1.69	columbia_card_task_fmri	16.0	0.8	89.0	-65.0	0.2	15.0	1.0	3.0	2.945766429170707	1.69	n/a	stim	poldrack-single-stim	s598	False	1
536.5	0.9	537.4	-1.727753458489759	draw_card	0.9	columbia_card_task_fmri	16.0	0.7857142857142857	89.0	-65.0	0.2142857142857142	15.0	2.0	3.0	3.782111262697004	0.9	2.0	stim	poldrack-single-stim	s598	False	0
538.155	1.5	537.404	n/a	-1.0	2.454	columbia_card_task_fmri	n/a	n/a	-1.0	n/a	n/a	n/a	n/a	n/a	n/a	n/a	n/a	ITI	poldrack-single-stim	s598	False	0
539.862	1.585	541.447	-2.245610601346903	end_round	1.585	columbia_card_task_fmri	15.0	0.8125	71.0	-75.0	0.1875	16.0	1.0	3.0	5.673715570506271	1.585	0.0	stim	poldrack-single-stim	s598	False	1
542.202	1.5	541.451	n/a	-1.0	2.386	columbia_card_task_fmri	n/a	n/a	-1.0	n/a	n/a	n/a	n/a	n/a	n/a	n/a	n/a	ITI	poldrack-single-stim	s598	False	0
543.841	2.227	546.068	-1.683110601346903	draw_card	2.227	columbia_card_task_fmri	14.0	0.6875	89.0	-35.0	0.3125	16.0	1.0	5.0	-6.741221702605575	2.227	1.0	stim	poldrack-single-stim	s598	False	0
546.824	1.5	546.073	n/a	-1.0	2.59	columbia_card_task_fmri	n/a	n/a	-1.0	n/a	n/a	n/a	n/a	n/a	n/a	n/a	n/a	ITI	poldrack-single-stim	s598	False	0
548.667	6.058	554.725	3.496056065319764	end_round	6.058	columbia_card_task_fmri	16.0	0.8666666666666667	71.0	-75.0	0.1333333333333333	15.0	1.0	2.0	1.479918582918387	6.058	0.0	stim	poldrack-single-stim	s598	False	1
555.48	1.5	554.729	n/a	-1.0	2.318	columbia_card_task_fmri	n/a	n/a	-1.0	n/a	n/a	n/a	n/a	n/a	n/a	n/a	n/a	ITI	poldrack-single-stim	s598	False	0
557.051	0.651	557.702	4.16272273198643	end_round	0.651	columbia_card_task_fmri	16.0	0.8666666666666667	71.0	-70.0	0.1333333333333333	15.0	1.0	2.0	-0.2196255285033963	0.651	0.0	stim	poldrack-single-stim	s598	False	1
558.457	1.5	557.706	n/a	-1.0	2.59	columbia_card_task_fmri	n/a	n/a	-1.0	n/a	n/a	n/a	n/a	n/a	n/a	n/a	n/a	ITI	poldrack-single-stim	s598	False	0
560.301	1.109	561.41	1.504389398653097	end_round	1.109	columbia_card_task_fmri	8.0	0.9375	71.0	-90.0	0.0625	16.0	1.0	1.0	-5.731435279673693	1.109	0.0	stim	poldrack-single-stim	s598	False	1
562.164	1.5	561.413	n/a	-1.0	2.386	columbia_card_task_fmri	n/a	n/a	-1.0	n/a	n/a	n/a	n/a	n/a	n/a	n/a	n/a	ITI	poldrack-single-stim	s598	False	0
563.804	0.757	564.561	3.066889398653097	end_round	0.757	columbia_card_task_fmri	10.0	0.9375	71.0	-95.0	0.0625	16.0	1.0	1.0	-4.037198035081637	0.757	0.0	stim	poldrack-single-stim	s598	False	1
565.314	1.5	564.563	n/a	-1.0	2.318	columbia_card_task_fmri	n/a	n/a	-1.0	n/a	n/a	n/a	n/a	n/a	n/a	n/a	n/a	ITI	poldrack-single-stim	s598	False	0
566.886	1.321	568.207	4.004389398653097	end_round	1.321	columbia_card_task_fmri	15.0	0.875	71.0	-70.0	0.125	16.0	1.0	2.0	-1.3428025366417664	1.321	0.0	stim	poldrack-single-stim	s598	False	1
568.961	1.5	568.21	n/a	-1.0	2.318	columbia_card_task_fmri	n/a	n/a	-1.0	n/a	n/a	n/a	n/a	n/a	n/a	n/a	n/a	ITI	poldrack-single-stim	s598	False	0
570.533	1.391	571.924	3.004389398653097	end_round	1.391	columbia_card_task_fmri	16.0	0.875	71.0	-85.0	0.125	16.0	1.0	2.0	3.94831311466989	1.391	0.0	stim	poldrack-single-stim	s598	False	1
572.68	1.5	571.929	n/a	-1.0	2.318	columbia_card_task_fmri	n/a	n/a	-1.0	n/a	n/a	n/a	n/a	n/a	n/a	n/a	n/a	ITI	poldrack-single-stim	s598	False	0
