onset	duration	block_duration	choice	experiment_exp_id	key_press	large_amount	later_delay	response_time	small_amount	trial_id	trial_type	worker_id	junk
3.015	4.0	4.636	smaller_sooner	discount_fixed	71	67.0	74.0	1.138	20.0	n/a	smaller_sooner	s600	False
7.653	4.0	5.316	smaller_sooner	discount_fixed	71	29.0	58.0	2.146	20.0	n/a	smaller_sooner	s600	False
12.974	4.0	4.976	smaller_sooner	discount_fixed	71	39.0	104.0	1.271	20.0	n/a	smaller_sooner	s600	False
17.953	4.0	4.568	smaller_sooner	discount_fixed	71	33.0	103.0	1.536	20.0	n/a	smaller_sooner	s600	False
22.526	4.0	5.52	smaller_sooner	discount_fixed	71	33.0	78.0	1.777	20.0	n/a	smaller_sooner	s600	False
28.048	4.0	5.588	larger_later	discount_fixed	89	74.0	52.0	2.19	20.0	n/a	larger_later	s600	False
33.641	4.0	5.792	smaller_sooner	discount_fixed	71	28.0	132.0	1.471	20.0	n/a	smaller_sooner	s600	False
39.436	4.0	4.568	smaller_sooner	discount_fixed	71	28.0	59.0	1.158	20.0	n/a	smaller_sooner	s600	False
44.006	4.0	5.112	smaller_sooner	discount_fixed	71	28.0	163.0	1.136	20.0	n/a	smaller_sooner	s600	False
49.12	4.0	4.5	smaller_sooner	discount_fixed	71	32.0	74.0	1.78	20.0	n/a	smaller_sooner	s600	False
53.622	4.0	4.84	smaller_sooner	discount_fixed	71	57.0	89.0	1.233	20.0	n/a	smaller_sooner	s600	False
58.465	4.0	4.568	smaller_sooner	discount_fixed	71	70.0	108.0	1.514	20.0	n/a	smaller_sooner	s600	False
63.036	4.0	5.384	smaller_sooner	discount_fixed	71	72.0	95.0	1.76	20.0	n/a	smaller_sooner	s600	False
68.421	4.0	5.044	smaller_sooner	discount_fixed	71	30.0	36.0	2.853	20.0	n/a	smaller_sooner	s600	False
73.47	4.0	4.704	smaller_sooner	discount_fixed	71	41.0	129.0	1.215	20.0	n/a	smaller_sooner	s600	False
78.178	4.0	4.908	smaller_sooner	discount_fixed	71	78.0	129.0	1.515	20.0	n/a	smaller_sooner	s600	False
83.09	4.0	4.908	smaller_sooner	discount_fixed	71	71.0	88.0	2.172	20.0	n/a	smaller_sooner	s600	False
88.001	4.0	4.84	smaller_sooner	discount_fixed	71	65.0	159.0	1.1	20.0	n/a	smaller_sooner	s600	False
92.843	4.0	5.112	smaller_sooner	discount_fixed	71	24.0	125.0	1.2	20.0	n/a	smaller_sooner	s600	False
97.958	4.0	5.112	smaller_sooner	discount_fixed	71	58.0	36.0	1.794	20.0	n/a	smaller_sooner	s600	False
103.076	4.0	4.704	smaller_sooner	discount_fixed	71	63.0	37.0	1.164	20.0	n/a	smaller_sooner	s600	False
107.782	4.0	4.84	larger_later	discount_fixed	89	75.0	41.0	1.745	20.0	n/a	larger_later	s600	False
112.625	4.0	4.84	smaller_sooner	discount_fixed	71	45.0	72.0	1.726	20.0	n/a	smaller_sooner	s600	False
117.47	4.0	6.88	smaller_sooner	discount_fixed	71	25.0	74.0	1.409	20.0	n/a	smaller_sooner	s600	False
124.353	4.0	4.568	smaller_sooner	discount_fixed	71	65.0	137.0	1.156	20.0	n/a	smaller_sooner	s600	False
128.922	4.0	4.772	smaller_sooner	discount_fixed	71	49.0	140.0	0.747	20.0	n/a	smaller_sooner	s600	False
133.7	4.0	7.016	smaller_sooner	discount_fixed	71	67.0	103.0	0.675	20.0	n/a	smaller_sooner	s600	False
140.719	4.0	4.704	smaller_sooner	discount_fixed	71	69.0	172.0	0.95	20.0	n/a	smaller_sooner	s600	False
145.426	4.0	5.18	smaller_sooner	discount_fixed	71	66.0	71.0	1.309	20.0	n/a	smaller_sooner	s600	False
150.608	4.0	5.044	smaller_sooner	discount_fixed	71	71.0	176.0	0.612	20.0	n/a	smaller_sooner	s600	False
155.653	4.0	5.316	smaller_sooner	discount_fixed	71	31.0	76.0	0.487	20.0	n/a	smaller_sooner	s600	False
160.973	4.0	4.568	smaller_sooner	discount_fixed	71	43.0	19.0	1.032	20.0	n/a	smaller_sooner	s600	False
165.543	4.0	4.636	smaller_sooner	discount_fixed	71	60.0	124.0	1.88	20.0	n/a	smaller_sooner	s600	False
170.184	4.0	4.908	smaller_sooner	discount_fixed	71	27.0	142.0	0.998	20.0	n/a	smaller_sooner	s600	False
175.095	4.0	4.5	smaller_sooner	discount_fixed	71	25.0	70.0	0.689	20.0	n/a	smaller_sooner	s600	False
179.598	4.0	4.976	smaller_sooner	discount_fixed	71	44.0	92.0	1.171	20.0	n/a	smaller_sooner	s600	False
184.578	4.0	4.908	smaller_sooner	discount_fixed	71	41.0	27.0	0.787	20.0	n/a	smaller_sooner	s600	False
189.489	4.0	4.568	smaller_sooner	discount_fixed	71	64.0	89.0	1.522	20.0	n/a	smaller_sooner	s600	False
194.058	4.0	4.5	smaller_sooner	discount_fixed	71	78.0	108.0	1.433	20.0	n/a	smaller_sooner	s600	False
198.561	4.0	6.2	smaller_sooner	discount_fixed	71	80.0	145.0	1.651	20.0	n/a	smaller_sooner	s600	False
204.765	4.0	4.704	smaller_sooner	discount_fixed	71	41.0	174.0	0.985	20.0	n/a	smaller_sooner	s600	False
209.472	4.0	5.044	smaller_sooner	discount_fixed	71	42.0	145.0	1.201	20.0	n/a	smaller_sooner	s600	False
214.517	4.0	5.044	smaller_sooner	discount_fixed	71	36.0	114.0	0.807	20.0	n/a	smaller_sooner	s600	False
219.565	4.0	5.18	larger_later	discount_fixed	89	58.0	55.0	1.489	20.0	n/a	larger_later	s600	False
224.747	4.0	4.976	larger_later	discount_fixed	89	81.0	58.0	1.603	20.0	n/a	larger_later	s600	False
229.728	4.0	4.772	smaller_sooner	discount_fixed	71	32.0	111.0	1.051	20.0	n/a	smaller_sooner	s600	False
234.501	4.0	4.772	smaller_sooner	discount_fixed	71	25.0	141.0	0.667	20.0	n/a	smaller_sooner	s600	False
239.277	4.0	5.18	smaller_sooner	discount_fixed	71	67.0	23.0	0.942	20.0	n/a	smaller_sooner	s600	False
244.462	4.0	5.18	smaller_sooner	discount_fixed	71	77.0	161.0	0.99	20.0	n/a	smaller_sooner	s600	False
249.646	4.0	5.248	smaller_sooner	discount_fixed	71	55.0	163.0	0.902	20.0	n/a	smaller_sooner	s600	False
254.896	4.0	4.568	smaller_sooner	discount_fixed	71	40.0	159.0	1.069	20.0	n/a	smaller_sooner	s600	False
259.467	4.0	4.5	smaller_sooner	discount_fixed	71	76.0	161.0	1.004	20.0	n/a	smaller_sooner	s600	False
263.97	4.0	4.908	smaller_sooner	discount_fixed	71	48.0	128.0	0.927	20.0	n/a	smaller_sooner	s600	False
268.881	4.0	4.568	smaller_sooner	discount_fixed	71	39.0	95.0	1.144	20.0	n/a	smaller_sooner	s600	False
273.452	4.0	6.2	smaller_sooner	discount_fixed	71	83.0	105.0	1.463	20.0	n/a	smaller_sooner	s600	False
279.656	4.0	4.908	larger_later	discount_fixed	89	67.0	41.0	1.361	20.0	n/a	larger_later	s600	False
284.569	4.0	5.248	smaller_sooner	discount_fixed	71	56.0	172.0	0.875	20.0	n/a	smaller_sooner	s600	False
289.818	4.0	5.044	smaller_sooner	discount_fixed	71	28.0	123.0	0.779	20.0	n/a	smaller_sooner	s600	False
294.866	4.0	4.636	smaller_sooner	discount_fixed	71	50.0	129.0	0.904	20.0	n/a	smaller_sooner	s600	False
299.508	4.0	4.704	smaller_sooner	discount_fixed	71	23.0	61.0	0.723	20.0	n/a	smaller_sooner	s600	False
304.216	4.0	4.636	smaller_sooner	discount_fixed	71	79.0	92.0	0.624	20.0	n/a	smaller_sooner	s600	False
317.361	4.0	4.568	smaller_sooner	discount_fixed	71	61.0	141.0	0.909	20.0	n/a	smaller_sooner	s600	False
321.932	4.0	4.568	larger_later	discount_fixed	89	43.0	38.0	2.273	20.0	n/a	larger_later	s600	False
326.504	4.0	4.908	smaller_sooner	discount_fixed	71	66.0	145.0	1.091	20.0	n/a	smaller_sooner	s600	False
331.414	4.0	4.84	larger_later	discount_fixed	89	30.0	23.0	1.638	20.0	n/a	larger_later	s600	False
336.259	4.0	5.248	smaller_sooner	discount_fixed	71	32.0	57.0	1.009	20.0	n/a	smaller_sooner	s600	False
341.513	4.0	4.772	smaller_sooner	discount_fixed	71	27.0	91.0	0.829	20.0	n/a	smaller_sooner	s600	False
346.29	4.0	5.996	smaller_sooner	discount_fixed	71	43.0	120.0	0.651	20.0	n/a	smaller_sooner	s600	False
352.288	4.0	5.588	smaller_sooner	discount_fixed	71	75.0	60.0	0.964	20.0	n/a	smaller_sooner	s600	False
357.878	4.0	4.568	smaller_sooner	discount_fixed	71	34.0	176.0	0.732	20.0	n/a	smaller_sooner	s600	False
362.449	4.0	5.112	smaller_sooner	discount_fixed	71	24.0	38.0	1.15	20.0	n/a	smaller_sooner	s600	False
367.564	4.0	5.656	larger_later	discount_fixed	89	82.0	74.0	1.111	20.0	n/a	larger_later	s600	False
373.222	4.0	4.568	smaller_sooner	discount_fixed	71	58.0	53.0	0.898	20.0	n/a	smaller_sooner	s600	False
377.796	4.0	4.772	smaller_sooner	discount_fixed	71	54.0	23.0	1.033	20.0	n/a	smaller_sooner	s600	False
382.57	4.0	5.044	smaller_sooner	discount_fixed	71	41.0	55.0	1.356	20.0	n/a	smaller_sooner	s600	False
387.617	4.0	4.84	smaller_sooner	discount_fixed	71	77.0	142.0	1.089	20.0	n/a	smaller_sooner	s600	False
392.461	4.0	5.18	smaller_sooner	discount_fixed	71	25.0	108.0	2.319	20.0	n/a	smaller_sooner	s600	False
397.642	4.0	5.044	smaller_sooner	discount_fixed	71	33.0	163.0	1.516	20.0	n/a	smaller_sooner	s600	False
402.692	4.0	4.976	smaller_sooner	discount_fixed	71	29.0	75.0	0.771	20.0	n/a	smaller_sooner	s600	False
407.672	4.0	4.976	smaller_sooner	discount_fixed	71	45.0	157.0	1.274	20.0	n/a	smaller_sooner	s600	False
412.65	4.0	5.316	smaller_sooner	discount_fixed	71	31.0	74.0	1.188	20.0	n/a	smaller_sooner	s600	False
417.968	4.0	4.5	larger_later	discount_fixed	89	80.0	39.0	0.987	20.0	n/a	larger_later	s600	False
422.469	4.0	5.044	smaller_sooner	discount_fixed	71	22.0	21.0	1.6	20.0	n/a	smaller_sooner	s600	False
427.518	4.0	4.704	smaller_sooner	discount_fixed	71	52.0	139.0	1.006	20.0	n/a	smaller_sooner	s600	False
432.225	4.0	4.84	smaller_sooner	discount_fixed	71	54.0	126.0	0.785	20.0	n/a	smaller_sooner	s600	False
437.068	4.0	6.744	smaller_sooner	discount_fixed	71	23.0	176.0	0.849	20.0	n/a	smaller_sooner	s600	False
443.813	4.0	4.5	smaller_sooner	discount_fixed	71	24.0	87.0	0.742	20.0	n/a	smaller_sooner	s600	False
448.314	4.0	4.568	smaller_sooner	discount_fixed	71	36.0	140.0	1.111	20.0	n/a	smaller_sooner	s600	False
452.884	4.0	4.704	smaller_sooner	discount_fixed	71	35.0	171.0	0.666	20.0	n/a	smaller_sooner	s600	False
457.592	4.0	4.908	smaller_sooner	discount_fixed	71	34.0	43.0	2.34	20.0	n/a	smaller_sooner	s600	False
462.502	4.0	4.568	smaller_sooner	discount_fixed	71	74.0	121.0	1.12	20.0	n/a	smaller_sooner	s600	False
467.072	4.0	4.772	smaller_sooner	discount_fixed	71	45.0	107.0	1.05	20.0	n/a	smaller_sooner	s600	False
471.848	4.0	4.636	larger_later	discount_fixed	89	77.0	24.0	1.025	20.0	n/a	larger_later	s600	False
476.486	4.0	4.568	smaller_sooner	discount_fixed	71	39.0	161.0	0.78	20.0	n/a	smaller_sooner	s600	False
481.06	4.0	5.452	smaller_sooner	discount_fixed	71	62.0	180.0	0.871	20.0	n/a	smaller_sooner	s600	False
486.516	4.0	5.384	smaller_sooner	discount_fixed	71	24.0	139.0	1.1	20.0	n/a	smaller_sooner	s600	False
491.905	4.0	4.568	smaller_sooner	discount_fixed	71	58.0	72.0	0.824	20.0	n/a	smaller_sooner	s600	False
496.477	4.0	6.268	smaller_sooner	discount_fixed	71	56.0	93.0	0.737	20.0	n/a	smaller_sooner	s600	False
502.75	4.0	5.52	smaller_sooner	discount_fixed	71	45.0	26.0	1.465	20.0	n/a	smaller_sooner	s600	False
508.273	4.0	4.568	smaller_sooner	discount_fixed	71	23.0	42.0	0.685	20.0	n/a	smaller_sooner	s600	False
512.844	4.0	4.636	smaller_sooner	discount_fixed	71	50.0	41.0	2.05	20.0	n/a	smaller_sooner	s600	False
517.485	4.0	4.636	smaller_sooner	discount_fixed	71	25.0	176.0	1.017	20.0	n/a	smaller_sooner	s600	False
522.124	4.0	5.112	smaller_sooner	discount_fixed	71	54.0	22.0	0.749	20.0	n/a	smaller_sooner	s600	False
527.237	4.0	5.316	smaller_sooner	discount_fixed	71	29.0	44.0	1.248	20.0	n/a	smaller_sooner	s600	False
532.556	4.0	4.568	smaller_sooner	discount_fixed	71	24.0	89.0	2.134	20.0	n/a	smaller_sooner	s600	False
537.126	4.0	4.568	smaller_sooner	discount_fixed	71	23.0	77.0	1.955	20.0	n/a	smaller_sooner	s600	False
541.696	4.0	4.568	smaller_sooner	discount_fixed	71	27.0	130.0	1.407	20.0	n/a	smaller_sooner	s600	False
546.267	4.0	4.84	smaller_sooner	discount_fixed	71	23.0	134.0	0.68	20.0	n/a	smaller_sooner	s600	False
551.109	4.0	4.5	smaller_sooner	discount_fixed	71	55.0	107.0	0.72	20.0	n/a	smaller_sooner	s600	False
555.612	4.0	5.656	smaller_sooner	discount_fixed	71	44.0	143.0	1.148	20.0	n/a	smaller_sooner	s600	False
561.272	4.0	4.908	smaller_sooner	discount_fixed	71	23.0	110.0	0.918	20.0	n/a	smaller_sooner	s600	False
566.185	4.0	4.636	smaller_sooner	discount_fixed	71	65.0	156.0	0.731	20.0	n/a	smaller_sooner	s600	False
570.826	4.0	4.5	smaller_sooner	discount_fixed	71	22.0	27.0	0.839	20.0	n/a	smaller_sooner	s600	False
575.328	4.0	4.5	smaller_sooner	discount_fixed	71	50.0	59.0	1.406	20.0	n/a	smaller_sooner	s600	False
579.83	4.0	5.112	larger_later	discount_fixed	89	85.0	129.0	1.796	20.0	n/a	larger_later	s600	False
584.944	4.0	6.132	larger_later	discount_fixed	89	66.0	58.0	1.72	20.0	n/a	larger_later	s600	False
591.078	4.0	4.84	smaller_sooner	discount_fixed	71	49.0	172.0	0.582	20.0	n/a	smaller_sooner	s600	False
595.922	4.0	4.568	smaller_sooner	discount_fixed	71	73.0	44.0	0.926	20.0	n/a	smaller_sooner	s600	False
600.492	4.0	4.704	smaller_sooner	discount_fixed	71	58.0	73.0	1.613	20.0	n/a	smaller_sooner	s600	False
605.2	4.0	5.86	smaller_sooner	discount_fixed	71	71.0	76.0	1.338	20.0	n/a	smaller_sooner	s600	False
