duration	onset	block_duration	movement_onset	planning	condition	exp_stage	experiment_exp_id	key_press	problem_id	response_time	trial_id	trial_type	worker_id	junk
6.327	3.016	6.327	9.343	1	UA_with_intermediate	practice	ward_and_allport	71	0.0	6.327	to_hand	poldrack-single-stim	s601	False
0.1	9.345	3.05	12.395	0	UA_with_intermediate	practice	ward_and_allport	82	0.0	3.05	to_board	poldrack-single-stim	s601	False
0.1	12.398	0.883	13.281	0	UA_with_intermediate	practice	ward_and_allport	71	0.0	0.883	to_hand	poldrack-single-stim	s601	False
0.1	13.282	0.557	13.839	0	UA_with_intermediate	practice	ward_and_allport	89	0.0	0.557	to_board	poldrack-single-stim	s601	False
0.1	13.841	1.078	14.919	0	UA_with_intermediate	practice	ward_and_allport	82	0.0	1.078	to_hand	poldrack-single-stim	s601	False
0.1	14.921	0.807	15.728	0	UA_with_intermediate	practice	ward_and_allport	89	0.0	0.807	to_board	poldrack-single-stim	s601	False
1.0	15.734	2.5	15.733	0	UA_with_intermediate	practice	ward_and_allport	-1	0.0	n/a	feedback	poldrack-single-stim	s601	False
14.963	18.237	14.963	33.2	1	UA_with_intermediate	practice	ward_and_allport	89	1.0	14.963	to_hand	poldrack-single-stim	s601	False
0.1	33.202	0.498	33.7	0	UA_with_intermediate	practice	ward_and_allport	82	1.0	0.498	to_board	poldrack-single-stim	s601	False
0.1	33.703	0.897	34.6	0	UA_with_intermediate	practice	ward_and_allport	71	1.0	0.897	to_hand	poldrack-single-stim	s601	False
0.1	34.602	0.434	35.036	0	UA_with_intermediate	practice	ward_and_allport	89	1.0	0.434	to_board	poldrack-single-stim	s601	False
0.1	35.038	0.947	35.985	0	UA_with_intermediate	practice	ward_and_allport	82	1.0	0.947	to_hand	poldrack-single-stim	s601	False
0.1	35.987	0.313	36.3	0	UA_with_intermediate	practice	ward_and_allport	89	1.0	0.313	to_board	poldrack-single-stim	s601	False
1.0	36.305	2.1	36.304	0	UA_with_intermediate	practice	ward_and_allport	-1	1.0	n/a	feedback	poldrack-single-stim	s601	False
4.745	38.407	4.745	43.152	1	UA_without_intermediate	practice	ward_and_allport	82	2.0	4.745	to_hand	poldrack-single-stim	s601	False
0.1	43.154	1.129	44.283	0	UA_without_intermediate	practice	ward_and_allport	89	2.0	1.129	to_board	poldrack-single-stim	s601	False
0.1	44.286	3.472	47.758	0	UA_without_intermediate	practice	ward_and_allport	71	2.0	3.472	to_hand	poldrack-single-stim	s601	False
0.1	47.759	0.691	48.45	0	UA_without_intermediate	practice	ward_and_allport	82	2.0	0.691	to_board	poldrack-single-stim	s601	False
0.1	48.452	0.491	48.943	0	UA_without_intermediate	practice	ward_and_allport	71	2.0	0.491	to_hand	poldrack-single-stim	s601	False
0.1	48.944	0.39	49.334	0	UA_without_intermediate	practice	ward_and_allport	89	2.0	0.39	to_board	poldrack-single-stim	s601	False
0.1	49.336	0.617	49.953	0	UA_without_intermediate	practice	ward_and_allport	82	2.0	0.617	to_hand	poldrack-single-stim	s601	False
0.1	49.955	0.428	50.383	0	UA_without_intermediate	practice	ward_and_allport	89	2.0	0.428	to_board	poldrack-single-stim	s601	False
0.1	50.385	7.048	57.433	0	UA_without_intermediate	practice	ward_and_allport	89	2.0	7.048	to_hand	poldrack-single-stim	s601	False
0.1	57.434	4.042	61.476	0	UA_without_intermediate	practice	ward_and_allport	82	2.0	4.042	to_board	poldrack-single-stim	s601	False
0.1	61.478	0.657	62.135	0	UA_without_intermediate	practice	ward_and_allport	89	2.0	0.657	to_hand	poldrack-single-stim	s601	False
0.1	62.137	0.58	62.717	0	UA_without_intermediate	practice	ward_and_allport	71	2.0	0.58	to_board	poldrack-single-stim	s601	False
0.1	62.719	1.007	63.726	0	UA_without_intermediate	practice	ward_and_allport	82	2.0	1.007	to_hand	poldrack-single-stim	s601	False
0.1	63.727	0.505	64.232	0	UA_without_intermediate	practice	ward_and_allport	89	2.0	0.505	to_board	poldrack-single-stim	s601	False
0.1	64.236	0.762	64.998	0	UA_without_intermediate	practice	ward_and_allport	71	2.0	0.762	to_hand	poldrack-single-stim	s601	False
0.1	64.999	0.355	65.354	0	UA_without_intermediate	practice	ward_and_allport	89	2.0	0.355	to_board	poldrack-single-stim	s601	False
1.0	65.358	2.2	65.357	0	UA_without_intermediate	practice	ward_and_allport	-1	2.0	n/a	feedback	poldrack-single-stim	s601	False
5.952	67.56	5.952	73.512	1	UA_without_intermediate	practice	ward_and_allport	71	3.0	5.952	to_hand	poldrack-single-stim	s601	False
0.1	73.513	0.698	74.211	0	UA_without_intermediate	practice	ward_and_allport	89	3.0	0.698	to_board	poldrack-single-stim	s601	False
0.1	74.213	0.452	74.665	0	UA_without_intermediate	practice	ward_and_allport	82	3.0	0.452	to_hand	poldrack-single-stim	s601	False
0.1	74.666	1.019	75.685	0	UA_without_intermediate	practice	ward_and_allport	89	3.0	1.019	to_board	poldrack-single-stim	s601	False
0.1	75.688	0.684	76.372	0	UA_without_intermediate	practice	ward_and_allport	71	3.0	0.684	to_hand	poldrack-single-stim	s601	False
0.1	76.373	0.293	76.666	0	UA_without_intermediate	practice	ward_and_allport	89	3.0	0.293	to_board	poldrack-single-stim	s601	False
1.0	76.672	2.0	76.671	0	UA_without_intermediate	practice	ward_and_allport	-1	3.0	n/a	feedback	poldrack-single-stim	s601	False
16.136	80.678	16.136	96.814	1	PA_with_intermediate	test	ward_and_allport	71	0.0	16.136	to_hand	poldrack-single-stim	s601	False
0.1	96.815	0.529	97.344	0	PA_with_intermediate	test	ward_and_allport	89	0.0	0.529	to_board	poldrack-single-stim	s601	False
0.1	97.347	0.79	98.137	0	PA_with_intermediate	test	ward_and_allport	71	0.0	0.79	to_hand	poldrack-single-stim	s601	False
0.1	98.138	0.773	98.911	0	PA_with_intermediate	test	ward_and_allport	82	0.0	0.773	to_board	poldrack-single-stim	s601	False
0.1	98.913	1.361	100.274	0	PA_with_intermediate	test	ward_and_allport	89	0.0	1.361	to_hand	poldrack-single-stim	s601	False
0.1	100.276	0.463	100.739	0	PA_with_intermediate	test	ward_and_allport	82	0.0	0.463	to_board	poldrack-single-stim	s601	False
1.0	100.743	2.408	100.742	0	PA_with_intermediate	test	ward_and_allport	-1	0.0	n/a	feedback	poldrack-single-stim	s601	False
9.511	103.154	9.511	112.665	1	PA_without_intermediate	test	ward_and_allport	89	1.0	9.511	to_hand	poldrack-single-stim	s601	False
0.1	112.667	1.494	114.161	0	PA_without_intermediate	test	ward_and_allport	71	1.0	1.494	to_board	poldrack-single-stim	s601	False
0.1	114.164	1.511	115.675	0	PA_without_intermediate	test	ward_and_allport	89	1.0	1.511	to_hand	poldrack-single-stim	s601	False
0.1	115.677	0.535	116.212	0	PA_without_intermediate	test	ward_and_allport	82	1.0	0.535	to_board	poldrack-single-stim	s601	False
0.1	116.215	0.89	117.105	0	PA_without_intermediate	test	ward_and_allport	89	1.0	0.89	to_hand	poldrack-single-stim	s601	False
0.1	117.107	0.437	117.544	0	PA_without_intermediate	test	ward_and_allport	71	1.0	0.437	to_board	poldrack-single-stim	s601	False
1.0	117.551	2.68	117.55	0	PA_without_intermediate	test	ward_and_allport	-1	1.0	n/a	feedback	poldrack-single-stim	s601	False
15.737	120.234	15.737	135.971	1	PA_with_intermediate	test	ward_and_allport	71	2.0	15.737	to_hand	poldrack-single-stim	s601	False
0.1	135.972	2.408	138.38	0	PA_with_intermediate	test	ward_and_allport	89	2.0	2.408	to_board	poldrack-single-stim	s601	False
0.1	138.383	1.453	139.836	0	PA_with_intermediate	test	ward_and_allport	71	2.0	1.453	to_hand	poldrack-single-stim	s601	False
0.1	139.837	4.077	143.914	0	PA_with_intermediate	test	ward_and_allport	82	2.0	4.077	to_board	poldrack-single-stim	s601	False
0.1	143.917	0.895	144.812	0	PA_with_intermediate	test	ward_and_allport	89	2.0	0.895	to_hand	poldrack-single-stim	s601	False
0.1	144.814	0.471	145.285	0	PA_with_intermediate	test	ward_and_allport	71	2.0	0.471	to_board	poldrack-single-stim	s601	False
1.0	145.288	4.72	145.287	0	PA_with_intermediate	test	ward_and_allport	-1	2.0	n/a	feedback	poldrack-single-stim	s601	False
6.345	150.011	6.345	156.356	1	PA_without_intermediate	test	ward_and_allport	71	3.0	6.345	to_hand	poldrack-single-stim	s601	False
0.1	156.358	0.496	156.854	0	PA_without_intermediate	test	ward_and_allport	82	3.0	0.496	to_board	poldrack-single-stim	s601	False
0.1	156.858	1.258	158.116	0	PA_without_intermediate	test	ward_and_allport	71	3.0	1.258	to_hand	poldrack-single-stim	s601	False
0.1	158.117	1.653	159.77	0	PA_without_intermediate	test	ward_and_allport	82	3.0	1.653	to_board	poldrack-single-stim	s601	False
0.1	159.774	0.631	160.405	0	PA_without_intermediate	test	ward_and_allport	71	3.0	0.631	to_hand	poldrack-single-stim	s601	False
0.1	160.406	0.35	160.756	0	PA_without_intermediate	test	ward_and_allport	89	3.0	0.35	to_board	poldrack-single-stim	s601	False
1.0	160.763	3.224	160.762	0	PA_without_intermediate	test	ward_and_allport	-1	3.0	n/a	feedback	poldrack-single-stim	s601	False
3.966	163.991	3.966	167.957	1	PA_without_intermediate	test	ward_and_allport	89	4.0	3.966	to_hand	poldrack-single-stim	s601	False
0.1	167.958	0.542	168.5	0	PA_without_intermediate	test	ward_and_allport	82	4.0	0.542	to_board	poldrack-single-stim	s601	False
0.1	168.504	3.426	171.93	0	PA_without_intermediate	test	ward_and_allport	89	4.0	3.426	to_hand	poldrack-single-stim	s601	False
0.1	171.931	0.369	172.3	0	PA_without_intermediate	test	ward_and_allport	71	4.0	0.369	to_board	poldrack-single-stim	s601	False
0.1	172.304	1.001	173.305	0	PA_without_intermediate	test	ward_and_allport	89	4.0	1.001	to_hand	poldrack-single-stim	s601	False
0.1	173.306	0.31	173.616	0	PA_without_intermediate	test	ward_and_allport	82	4.0	0.31	to_board	poldrack-single-stim	s601	False
1.0	173.619	2.272	173.618	0	PA_without_intermediate	test	ward_and_allport	-1	4.0	n/a	feedback	poldrack-single-stim	s601	False
5.957	175.895	5.957	181.852	1	PA_with_intermediate	test	ward_and_allport	89	5.0	5.957	to_hand	poldrack-single-stim	s601	False
0.1	181.853	0.438	182.291	0	PA_with_intermediate	test	ward_and_allport	71	5.0	0.438	to_board	poldrack-single-stim	s601	False
0.1	182.295	1.014	183.309	0	PA_with_intermediate	test	ward_and_allport	89	5.0	1.014	to_hand	poldrack-single-stim	s601	False
0.1	183.31	1.276	184.586	0	PA_with_intermediate	test	ward_and_allport	82	5.0	1.276	to_board	poldrack-single-stim	s601	False
0.1	184.59	0.789	185.379	0	PA_with_intermediate	test	ward_and_allport	71	5.0	0.789	to_hand	poldrack-single-stim	s601	False
0.1	185.381	1.998	187.379	0	PA_with_intermediate	test	ward_and_allport	82	5.0	1.998	to_board	poldrack-single-stim	s601	False
1.0	187.385	3.632	187.384	0	PA_with_intermediate	test	ward_and_allport	-1	5.0	n/a	feedback	poldrack-single-stim	s601	False
4.595	191.021	4.595	195.616	1	PA_without_intermediate	test	ward_and_allport	89	6.0	4.595	to_hand	poldrack-single-stim	s601	False
0.1	195.618	1.125	196.743	0	PA_without_intermediate	test	ward_and_allport	71	6.0	1.125	to_board	poldrack-single-stim	s601	False
0.1	196.747	1.218	197.965	0	PA_without_intermediate	test	ward_and_allport	89	6.0	1.218	to_hand	poldrack-single-stim	s601	False
0.1	197.966	0.383	198.349	0	PA_without_intermediate	test	ward_and_allport	82	6.0	0.383	to_board	poldrack-single-stim	s601	False
0.1	198.353	1.066	199.419	0	PA_without_intermediate	test	ward_and_allport	89	6.0	1.066	to_hand	poldrack-single-stim	s601	False
0.1	199.42	0.845	200.265	0	PA_without_intermediate	test	ward_and_allport	71	6.0	0.845	to_board	poldrack-single-stim	s601	False
1.0	200.27	2.408	200.269	0	PA_without_intermediate	test	ward_and_allport	-1	6.0	n/a	feedback	poldrack-single-stim	s601	False
4.746	202.682	4.746	207.428	1	PA_without_intermediate	test	ward_and_allport	71	7.0	4.746	to_hand	poldrack-single-stim	s601	False
0.1	207.428	0.647	208.075	0	PA_without_intermediate	test	ward_and_allport	82	7.0	0.647	to_board	poldrack-single-stim	s601	False
0.1	208.081	0.65	208.731	0	PA_without_intermediate	test	ward_and_allport	71	7.0	0.65	to_hand	poldrack-single-stim	s601	False
0.1	208.732	0.964	209.696	0	PA_without_intermediate	test	ward_and_allport	82	7.0	0.964	to_board	poldrack-single-stim	s601	False
0.1	209.7	1.081	210.781	0	PA_without_intermediate	test	ward_and_allport	71	7.0	1.081	to_hand	poldrack-single-stim	s601	False
0.1	210.782	0.365	211.147	0	PA_without_intermediate	test	ward_and_allport	89	7.0	0.365	to_board	poldrack-single-stim	s601	False
1.0	211.151	2.0	211.15	0	PA_without_intermediate	test	ward_and_allport	-1	7.0	n/a	feedback	poldrack-single-stim	s601	False
3.83	213.155	3.83	216.985	1	PA_with_intermediate	test	ward_and_allport	89	8.0	3.83	to_hand	poldrack-single-stim	s601	False
0.1	216.986	0.488	217.474	0	PA_with_intermediate	test	ward_and_allport	82	8.0	0.488	to_board	poldrack-single-stim	s601	False
0.1	217.478	1.08	218.558	0	PA_with_intermediate	test	ward_and_allport	89	8.0	1.08	to_hand	poldrack-single-stim	s601	False
0.1	218.559	1.641	220.2	0	PA_with_intermediate	test	ward_and_allport	71	8.0	1.641	to_board	poldrack-single-stim	s601	False
0.1	220.205	0.785	220.99	0	PA_with_intermediate	test	ward_and_allport	82	8.0	0.785	to_hand	poldrack-single-stim	s601	False
0.1	220.991	0.624	221.615	0	PA_with_intermediate	test	ward_and_allport	71	8.0	0.624	to_board	poldrack-single-stim	s601	False
1.0	221.621	2.0	221.62	0	PA_with_intermediate	test	ward_and_allport	-1	8.0	n/a	feedback	poldrack-single-stim	s601	False
4.643	223.625	4.643	228.268	1	PA_with_intermediate	test	ward_and_allport	71	9.0	4.643	to_hand	poldrack-single-stim	s601	False
0.1	228.27	1.153	229.423	0	PA_with_intermediate	test	ward_and_allport	89	9.0	1.153	to_board	poldrack-single-stim	s601	False
0.1	229.427	0.557	229.984	0	PA_with_intermediate	test	ward_and_allport	71	9.0	0.557	to_hand	poldrack-single-stim	s601	False
0.1	229.985	0.41	230.395	0	PA_with_intermediate	test	ward_and_allport	82	9.0	0.41	to_board	poldrack-single-stim	s601	False
0.1	230.399	0.535	230.934	0	PA_with_intermediate	test	ward_and_allport	89	9.0	0.535	to_hand	poldrack-single-stim	s601	False
0.1	230.937	0.428	231.365	0	PA_with_intermediate	test	ward_and_allport	82	9.0	0.428	to_board	poldrack-single-stim	s601	False
1.0	231.376	2.0	231.375	0	PA_with_intermediate	test	ward_and_allport	-1	9.0	n/a	feedback	poldrack-single-stim	s601	False
10.536	233.382	10.536	243.918	1	PA_with_intermediate	test	ward_and_allport	82	10.0	10.536	to_hand	poldrack-single-stim	s601	False
0.1	243.919	0.494	244.413	0	PA_with_intermediate	test	ward_and_allport	71	10.0	0.494	to_board	poldrack-single-stim	s601	False
0.1	244.418	1.082	245.5	0	PA_with_intermediate	test	ward_and_allport	82	10.0	1.082	to_hand	poldrack-single-stim	s601	False
0.1	245.501	0.623	246.124	0	PA_with_intermediate	test	ward_and_allport	89	10.0	0.623	to_board	poldrack-single-stim	s601	False
0.1	246.129	0.671	246.8	0	PA_with_intermediate	test	ward_and_allport	71	10.0	0.671	to_hand	poldrack-single-stim	s601	False
0.1	246.801	0.354	247.155	0	PA_with_intermediate	test	ward_and_allport	82	10.0	0.354	to_board	poldrack-single-stim	s601	False
1.0	247.16	2.408	247.159	0	PA_with_intermediate	test	ward_and_allport	-1	10.0	n/a	feedback	poldrack-single-stim	s601	False
2.635	249.574	2.635	252.209	1	PA_without_intermediate	test	ward_and_allport	71	11.0	2.635	to_hand	poldrack-single-stim	s601	False
0.1	252.21	5.257	257.467	0	PA_without_intermediate	test	ward_and_allport	82	11.0	5.257	to_board	poldrack-single-stim	s601	False
0.1	257.473	1.278	258.751	0	PA_without_intermediate	test	ward_and_allport	71	11.0	1.278	to_hand	poldrack-single-stim	s601	False
0.1	258.752	0.544	259.296	0	PA_without_intermediate	test	ward_and_allport	89	11.0	0.544	to_board	poldrack-single-stim	s601	False
0.1	259.302	0.549	259.851	0	PA_without_intermediate	test	ward_and_allport	71	11.0	0.549	to_hand	poldrack-single-stim	s601	False
0.1	259.852	0.63	260.482	0	PA_without_intermediate	test	ward_and_allport	82	11.0	0.63	to_board	poldrack-single-stim	s601	False
1.0	260.491	2.816	260.49	0	PA_without_intermediate	test	ward_and_allport	-1	11.0	n/a	feedback	poldrack-single-stim	s601	False
4.005	263.311	4.005	267.316	1	PA_with_intermediate	test	ward_and_allport	82	12.0	4.005	to_hand	poldrack-single-stim	s601	False
0.1	267.317	0.352	267.669	0	PA_with_intermediate	test	ward_and_allport	71	12.0	0.352	to_board	poldrack-single-stim	s601	False
0.1	267.674	0.715	268.389	0	PA_with_intermediate	test	ward_and_allport	82	12.0	0.715	to_hand	poldrack-single-stim	s601	False
0.1	268.39	0.426	268.816	0	PA_with_intermediate	test	ward_and_allport	89	12.0	0.426	to_board	poldrack-single-stim	s601	False
0.1	268.821	0.823	269.644	0	PA_with_intermediate	test	ward_and_allport	71	12.0	0.823	to_hand	poldrack-single-stim	s601	False
0.1	269.645	0.431	270.076	0	PA_with_intermediate	test	ward_and_allport	82	12.0	0.431	to_board	poldrack-single-stim	s601	False
1.0	270.086	4.176	270.085	0	PA_with_intermediate	test	ward_and_allport	-1	12.0	n/a	feedback	poldrack-single-stim	s601	False
4.858	274.267	4.858	279.125	1	PA_with_intermediate	test	ward_and_allport	82	13.0	4.858	to_hand	poldrack-single-stim	s601	False
0.1	279.126	1.035	280.161	0	PA_with_intermediate	test	ward_and_allport	71	13.0	1.035	to_board	poldrack-single-stim	s601	False
0.1	280.165	1.835	282.0	0	PA_with_intermediate	test	ward_and_allport	82	13.0	1.835	to_hand	poldrack-single-stim	s601	False
0.1	282.001	0.872	282.873	0	PA_with_intermediate	test	ward_and_allport	89	13.0	0.872	to_board	poldrack-single-stim	s601	False
0.1	282.878	0.371	283.249	0	PA_with_intermediate	test	ward_and_allport	71	13.0	0.371	to_hand	poldrack-single-stim	s601	False
0.1	283.25	0.302	283.552	0	PA_with_intermediate	test	ward_and_allport	89	13.0	0.302	to_board	poldrack-single-stim	s601	False
1.0	283.559	3.36	283.558	0	PA_with_intermediate	test	ward_and_allport	-1	13.0	n/a	feedback	poldrack-single-stim	s601	False
7.278	286.924	7.278	294.202	1	PA_with_intermediate	test	ward_and_allport	71	14.0	7.278	to_hand	poldrack-single-stim	s601	False
0.1	294.204	2.543	296.747	0	PA_with_intermediate	test	ward_and_allport	89	14.0	2.543	to_board	poldrack-single-stim	s601	False
0.1	296.751	0.707	297.458	0	PA_with_intermediate	test	ward_and_allport	71	14.0	0.707	to_hand	poldrack-single-stim	s601	False
0.1	297.46	0.381	297.841	0	PA_with_intermediate	test	ward_and_allport	82	14.0	0.381	to_board	poldrack-single-stim	s601	False
0.1	297.846	0.675	298.521	0	PA_with_intermediate	test	ward_and_allport	89	14.0	0.675	to_hand	poldrack-single-stim	s601	False
0.1	298.522	0.308	298.83	0	PA_with_intermediate	test	ward_and_allport	71	14.0	0.308	to_board	poldrack-single-stim	s601	False
1.0	298.839	2.0	298.838	0	PA_with_intermediate	test	ward_and_allport	-1	14.0	n/a	feedback	poldrack-single-stim	s601	False
9.871	305.847	9.871	315.718	1	PA_without_intermediate	test	ward_and_allport	82	15.0	9.871	to_hand	poldrack-single-stim	s601	False
0.1	315.719	0.773	316.492	0	PA_without_intermediate	test	ward_and_allport	71	15.0	0.773	to_board	poldrack-single-stim	s601	False
0.1	316.497	1.892	318.389	0	PA_without_intermediate	test	ward_and_allport	82	15.0	1.892	to_hand	poldrack-single-stim	s601	False
0.1	318.39	0.448	318.838	0	PA_without_intermediate	test	ward_and_allport	71	15.0	0.448	to_board	poldrack-single-stim	s601	False
0.1	318.843	0.515	319.358	0	PA_without_intermediate	test	ward_and_allport	82	15.0	0.515	to_hand	poldrack-single-stim	s601	False
0.1	319.359	0.224	319.583	0	PA_without_intermediate	test	ward_and_allport	89	15.0	0.224	to_board	poldrack-single-stim	s601	False
1.0	319.589	2.408	319.588	0	PA_without_intermediate	test	ward_and_allport	-1	15.0	n/a	feedback	poldrack-single-stim	s601	False
8.265	322.004	8.265	330.269	1	PA_with_intermediate	test	ward_and_allport	82	16.0	8.265	to_hand	poldrack-single-stim	s601	False
0.1	330.271	0.606	330.877	0	PA_with_intermediate	test	ward_and_allport	89	16.0	0.606	to_board	poldrack-single-stim	s601	False
0.1	330.883	1.005	331.888	0	PA_with_intermediate	test	ward_and_allport	82	16.0	1.005	to_hand	poldrack-single-stim	s601	False
0.1	331.89	0.415	332.305	0	PA_with_intermediate	test	ward_and_allport	71	16.0	0.415	to_board	poldrack-single-stim	s601	False
0.1	332.31	0.68	332.99	0	PA_with_intermediate	test	ward_and_allport	89	16.0	0.68	to_hand	poldrack-single-stim	s601	False
0.1	332.992	0.322	333.314	0	PA_with_intermediate	test	ward_and_allport	82	16.0	0.322	to_board	poldrack-single-stim	s601	False
1.0	333.32	2.816	333.319	0	PA_with_intermediate	test	ward_and_allport	-1	16.0	n/a	feedback	poldrack-single-stim	s601	False
5.827	336.141	5.827	341.968	1	PA_without_intermediate	test	ward_and_allport	89	17.0	5.827	to_hand	poldrack-single-stim	s601	False
0.1	341.969	0.315	342.284	0	PA_without_intermediate	test	ward_and_allport	82	17.0	0.315	to_board	poldrack-single-stim	s601	False
0.1	342.29	2.039	344.329	0	PA_without_intermediate	test	ward_and_allport	89	17.0	2.039	to_hand	poldrack-single-stim	s601	False
0.1	344.33	0.357	344.687	0	PA_without_intermediate	test	ward_and_allport	71	17.0	0.357	to_board	poldrack-single-stim	s601	False
0.1	344.693	0.653	345.346	0	PA_without_intermediate	test	ward_and_allport	89	17.0	0.653	to_hand	poldrack-single-stim	s601	False
0.1	345.348	0.248	345.596	0	PA_without_intermediate	test	ward_and_allport	82	17.0	0.248	to_board	poldrack-single-stim	s601	False
1.0	345.607	3.088	345.606	0	PA_without_intermediate	test	ward_and_allport	-1	17.0	n/a	feedback	poldrack-single-stim	s601	False
3.209	348.701	3.209	351.91	1	PA_without_intermediate	test	ward_and_allport	71	18.0	3.209	to_hand	poldrack-single-stim	s601	False
0.1	351.911	0.326	352.237	0	PA_without_intermediate	test	ward_and_allport	89	18.0	0.326	to_board	poldrack-single-stim	s601	False
0.1	352.243	4.06	356.303	0	PA_without_intermediate	test	ward_and_allport	71	18.0	4.06	to_hand	poldrack-single-stim	s601	False
0.1	356.304	0.276	356.58	0	PA_without_intermediate	test	ward_and_allport	89	18.0	0.276	to_board	poldrack-single-stim	s601	False
0.1	356.587	1.25	357.837	0	PA_without_intermediate	test	ward_and_allport	71	18.0	1.25	to_hand	poldrack-single-stim	s601	False
0.1	357.838	0.254	358.092	0	PA_without_intermediate	test	ward_and_allport	82	18.0	0.254	to_board	poldrack-single-stim	s601	False
1.0	358.102	2.136	358.101	0	PA_without_intermediate	test	ward_and_allport	-1	18.0	n/a	feedback	poldrack-single-stim	s601	False
3.276	360.244	3.276	363.52	1	PA_without_intermediate	test	ward_and_allport	82	19.0	3.276	to_hand	poldrack-single-stim	s601	False
0.1	363.522	1.356	364.878	0	PA_without_intermediate	test	ward_and_allport	71	19.0	1.356	to_board	poldrack-single-stim	s601	False
0.1	364.885	0.794	365.679	0	PA_without_intermediate	test	ward_and_allport	82	19.0	0.794	to_hand	poldrack-single-stim	s601	False
0.1	365.68	0.394	366.074	0	PA_without_intermediate	test	ward_and_allport	71	19.0	0.394	to_board	poldrack-single-stim	s601	False
0.1	366.08	0.588	366.668	0	PA_without_intermediate	test	ward_and_allport	82	19.0	0.588	to_hand	poldrack-single-stim	s601	False
0.1	366.67	0.314	366.984	0	PA_without_intermediate	test	ward_and_allport	89	19.0	0.314	to_board	poldrack-single-stim	s601	False
1.0	366.996	7.168	366.995	0	PA_without_intermediate	test	ward_and_allport	-1	19.0	n/a	feedback	poldrack-single-stim	s601	False
6.191	374.169	6.191	380.36	1	PA_without_intermediate	test	ward_and_allport	82	20.0	6.191	to_hand	poldrack-single-stim	s601	False
0.1	380.362	0.411	380.773	0	PA_without_intermediate	test	ward_and_allport	71	20.0	0.411	to_board	poldrack-single-stim	s601	False
0.1	380.778	1.041	381.819	0	PA_without_intermediate	test	ward_and_allport	82	20.0	1.041	to_hand	poldrack-single-stim	s601	False
0.1	381.821	0.409	382.23	0	PA_without_intermediate	test	ward_and_allport	89	20.0	0.409	to_board	poldrack-single-stim	s601	False
0.1	382.236	1.275	383.511	0	PA_without_intermediate	test	ward_and_allport	82	20.0	1.275	to_hand	poldrack-single-stim	s601	False
0.1	383.513	0.4	383.913	0	PA_without_intermediate	test	ward_and_allport	71	20.0	0.4	to_board	poldrack-single-stim	s601	False
1.0	383.92	2.816	383.919	0	PA_without_intermediate	test	ward_and_allport	-1	20.0	n/a	feedback	poldrack-single-stim	s601	False
3.402	386.741	3.402	390.143	1	PA_with_intermediate	test	ward_and_allport	71	21.0	3.402	to_hand	poldrack-single-stim	s601	False
0.1	390.145	0.417	390.562	0	PA_with_intermediate	test	ward_and_allport	82	21.0	0.417	to_board	poldrack-single-stim	s601	False
0.1	390.569	0.617	391.186	0	PA_with_intermediate	test	ward_and_allport	71	21.0	0.617	to_hand	poldrack-single-stim	s601	False
0.1	391.187	0.429	391.616	0	PA_with_intermediate	test	ward_and_allport	89	21.0	0.429	to_board	poldrack-single-stim	s601	False
0.1	391.624	0.753	392.377	0	PA_with_intermediate	test	ward_and_allport	82	21.0	0.753	to_hand	poldrack-single-stim	s601	False
0.1	392.379	0.333	392.712	0	PA_with_intermediate	test	ward_and_allport	89	21.0	0.333	to_board	poldrack-single-stim	s601	False
1.0	392.719	2.952	392.718	0	PA_with_intermediate	test	ward_and_allport	-1	21.0	n/a	feedback	poldrack-single-stim	s601	False
3.835	395.679	3.835	399.514	1	PA_with_intermediate	test	ward_and_allport	82	22.0	3.835	to_hand	poldrack-single-stim	s601	False
0.1	399.516	0.471	399.987	0	PA_with_intermediate	test	ward_and_allport	89	22.0	0.471	to_board	poldrack-single-stim	s601	False
0.1	399.995	0.877	400.872	0	PA_with_intermediate	test	ward_and_allport	82	22.0	0.877	to_hand	poldrack-single-stim	s601	False
0.1	400.874	0.392	401.266	0	PA_with_intermediate	test	ward_and_allport	71	22.0	0.392	to_board	poldrack-single-stim	s601	False
0.1	401.273	0.518	401.791	0	PA_with_intermediate	test	ward_and_allport	89	22.0	0.518	to_hand	poldrack-single-stim	s601	False
0.1	401.793	0.35	402.143	0	PA_with_intermediate	test	ward_and_allport	71	22.0	0.35	to_board	poldrack-single-stim	s601	False
1.0	402.151	2.136	402.15	0	PA_with_intermediate	test	ward_and_allport	-1	22.0	n/a	feedback	poldrack-single-stim	s601	False
2.823	404.294	2.823	407.117	1	PA_without_intermediate	test	ward_and_allport	89	23.0	2.823	to_hand	poldrack-single-stim	s601	False
0.1	407.118	0.267	407.385	0	PA_without_intermediate	test	ward_and_allport	82	23.0	0.267	to_board	poldrack-single-stim	s601	False
0.1	407.394	0.37	407.764	0	PA_without_intermediate	test	ward_and_allport	89	23.0	0.37	to_hand	poldrack-single-stim	s601	False
0.1	407.765	0.311	408.076	0	PA_without_intermediate	test	ward_and_allport	82	23.0	0.311	to_board	poldrack-single-stim	s601	False
0.1	408.083	1.116	409.199	0	PA_without_intermediate	test	ward_and_allport	89	23.0	1.116	to_hand	poldrack-single-stim	s601	False
0.1	409.2	0.31	409.51	0	PA_without_intermediate	test	ward_and_allport	71	23.0	0.31	to_board	poldrack-single-stim	s601	False
1.0	409.522	2.68	409.521	0	PA_without_intermediate	test	ward_and_allport	-1	23.0	n/a	feedback	poldrack-single-stim	s601	False
3.101	412.209	3.101	415.31	1	PA_without_intermediate	test	ward_and_allport	82	24.0	3.101	to_hand	poldrack-single-stim	s601	False
0.1	415.312	0.321	415.633	0	PA_without_intermediate	test	ward_and_allport	89	24.0	0.321	to_board	poldrack-single-stim	s601	False
0.1	415.641	0.76	416.401	0	PA_without_intermediate	test	ward_and_allport	82	24.0	0.76	to_hand	poldrack-single-stim	s601	False
0.1	416.402	0.395	416.797	0	PA_without_intermediate	test	ward_and_allport	89	24.0	0.395	to_board	poldrack-single-stim	s601	False
0.1	416.804	0.627	417.431	0	PA_without_intermediate	test	ward_and_allport	82	24.0	0.627	to_hand	poldrack-single-stim	s601	False
0.1	417.433	0.327	417.76	0	PA_without_intermediate	test	ward_and_allport	71	24.0	0.327	to_board	poldrack-single-stim	s601	False
1.0	417.77	3.088	417.769	0	PA_without_intermediate	test	ward_and_allport	-1	24.0	n/a	feedback	poldrack-single-stim	s601	False
5.556	420.867	5.556	426.423	1	PA_with_intermediate	test	ward_and_allport	89	25.0	5.556	to_hand	poldrack-single-stim	s601	False
0.1	426.425	0.268	426.693	0	PA_with_intermediate	test	ward_and_allport	82	25.0	0.268	to_board	poldrack-single-stim	s601	False
0.1	426.702	0.921	427.623	0	PA_with_intermediate	test	ward_and_allport	89	25.0	0.921	to_hand	poldrack-single-stim	s601	False
0.1	427.624	0.309	427.933	0	PA_with_intermediate	test	ward_and_allport	71	25.0	0.309	to_board	poldrack-single-stim	s601	False
0.1	427.941	0.628	428.569	0	PA_with_intermediate	test	ward_and_allport	82	25.0	0.628	to_hand	poldrack-single-stim	s601	False
0.1	428.57	0.574	429.144	0	PA_with_intermediate	test	ward_and_allport	89	25.0	0.574	to_board	poldrack-single-stim	s601	False
1.0	429.153	2.0	429.152	0	PA_with_intermediate	test	ward_and_allport	-1	25.0	n/a	feedback	poldrack-single-stim	s601	False
3.465	431.161	3.465	434.626	1	PA_without_intermediate	test	ward_and_allport	71	26.0	3.465	to_hand	poldrack-single-stim	s601	False
0.1	434.627	0.373	435.0	0	PA_without_intermediate	test	ward_and_allport	89	26.0	0.373	to_board	poldrack-single-stim	s601	False
0.1	435.008	1.337	436.345	0	PA_without_intermediate	test	ward_and_allport	71	26.0	1.337	to_hand	poldrack-single-stim	s601	False
0.1	436.347	0.294	436.641	0	PA_without_intermediate	test	ward_and_allport	82	26.0	0.294	to_board	poldrack-single-stim	s601	False
0.1	436.65	0.344	436.994	0	PA_without_intermediate	test	ward_and_allport	71	26.0	0.344	to_hand	poldrack-single-stim	s601	False
0.1	436.996	0.352	437.348	0	PA_without_intermediate	test	ward_and_allport	89	26.0	0.352	to_board	poldrack-single-stim	s601	False
1.0	437.36	2.0	437.359	0	PA_without_intermediate	test	ward_and_allport	-1	26.0	n/a	feedback	poldrack-single-stim	s601	False
2.481	439.368	2.481	441.849	1	PA_without_intermediate	test	ward_and_allport	89	27.0	2.481	to_hand	poldrack-single-stim	s601	False
0.1	441.851	0.268	442.119	0	PA_without_intermediate	test	ward_and_allport	82	27.0	0.268	to_board	poldrack-single-stim	s601	False
0.1	442.127	1.369	443.496	0	PA_without_intermediate	test	ward_and_allport	89	27.0	1.369	to_hand	poldrack-single-stim	s601	False
0.1	443.497	0.27	443.767	0	PA_without_intermediate	test	ward_and_allport	82	27.0	0.27	to_board	poldrack-single-stim	s601	False
0.1	443.776	0.689	444.465	0	PA_without_intermediate	test	ward_and_allport	89	27.0	0.689	to_hand	poldrack-single-stim	s601	False
0.1	444.467	0.356	444.823	0	PA_without_intermediate	test	ward_and_allport	71	27.0	0.356	to_board	poldrack-single-stim	s601	False
1.0	444.833	2.0	444.832	0	PA_without_intermediate	test	ward_and_allport	-1	27.0	n/a	feedback	poldrack-single-stim	s601	False
2.681	446.841	2.681	449.522	1	PA_with_intermediate	test	ward_and_allport	89	28.0	2.681	to_hand	poldrack-single-stim	s601	False
0.1	449.523	0.259	449.782	0	PA_with_intermediate	test	ward_and_allport	82	28.0	0.259	to_board	poldrack-single-stim	s601	False
0.1	449.789	1.489	451.278	0	PA_with_intermediate	test	ward_and_allport	89	28.0	1.489	to_hand	poldrack-single-stim	s601	False
0.1	451.28	0.54	451.82	0	PA_with_intermediate	test	ward_and_allport	71	28.0	0.54	to_board	poldrack-single-stim	s601	False
0.1	451.829	0.546	452.375	0	PA_with_intermediate	test	ward_and_allport	82	28.0	0.546	to_hand	poldrack-single-stim	s601	False
0.1	452.376	0.307	452.683	0	PA_with_intermediate	test	ward_and_allport	89	28.0	0.307	to_board	poldrack-single-stim	s601	False
1.0	452.693	2.544	452.692	0	PA_with_intermediate	test	ward_and_allport	-1	28.0	n/a	feedback	poldrack-single-stim	s601	False
3.298	455.247	3.298	458.545	1	PA_without_intermediate	test	ward_and_allport	82	29.0	3.298	to_hand	poldrack-single-stim	s601	False
0.1	458.546	1.652	460.198	0	PA_without_intermediate	test	ward_and_allport	71	29.0	1.652	to_board	poldrack-single-stim	s601	False
0.1	460.206	0.832	461.038	0	PA_without_intermediate	test	ward_and_allport	82	29.0	0.832	to_hand	poldrack-single-stim	s601	False
0.1	461.039	0.853	461.892	0	PA_without_intermediate	test	ward_and_allport	89	29.0	0.853	to_board	poldrack-single-stim	s601	False
0.1	461.901	1.431	463.332	0	PA_without_intermediate	test	ward_and_allport	82	29.0	1.431	to_hand	poldrack-single-stim	s601	False
0.1	463.333	0.543	463.876	0	PA_without_intermediate	test	ward_and_allport	71	29.0	0.543	to_board	poldrack-single-stim	s601	False
1.0	463.888	2.272	463.887	0	PA_without_intermediate	test	ward_and_allport	-1	29.0	n/a	feedback	poldrack-single-stim	s601	False
12.275	471.172	12.275	483.447	1	PA_with_intermediate	test	ward_and_allport	71	30.0	12.275	to_hand	poldrack-single-stim	s601	False
0.1	483.449	0.282	483.731	0	PA_with_intermediate	test	ward_and_allport	82	30.0	0.282	to_board	poldrack-single-stim	s601	False
0.1	483.743	0.36	484.103	0	PA_with_intermediate	test	ward_and_allport	71	30.0	0.36	to_hand	poldrack-single-stim	s601	False
0.1	484.105	0.436	484.541	0	PA_with_intermediate	test	ward_and_allport	89	30.0	0.436	to_board	poldrack-single-stim	s601	False
0.1	484.555	0.459	485.014	0	PA_with_intermediate	test	ward_and_allport	82	30.0	0.459	to_hand	poldrack-single-stim	s601	False
0.1	485.015	0.323	485.338	0	PA_with_intermediate	test	ward_and_allport	89	30.0	0.323	to_board	poldrack-single-stim	s601	False
1.0	485.354	4.04	485.353	0	PA_with_intermediate	test	ward_and_allport	-1	30.0	n/a	feedback	poldrack-single-stim	s601	False
5.81	489.405	5.81	495.215	1	PA_with_intermediate	test	ward_and_allport	82	31.0	5.81	to_hand	poldrack-single-stim	s601	False
0.1	495.217	0.426	495.643	0	PA_with_intermediate	test	ward_and_allport	89	31.0	0.426	to_board	poldrack-single-stim	s601	False
0.1	495.652	0.629	496.281	0	PA_with_intermediate	test	ward_and_allport	82	31.0	0.629	to_hand	poldrack-single-stim	s601	False
0.1	496.282	0.354	496.636	0	PA_with_intermediate	test	ward_and_allport	71	31.0	0.354	to_board	poldrack-single-stim	s601	False
0.1	496.647	0.418	497.065	0	PA_with_intermediate	test	ward_and_allport	89	31.0	0.418	to_hand	poldrack-single-stim	s601	False
0.1	497.066	0.259	497.325	0	PA_with_intermediate	test	ward_and_allport	82	31.0	0.259	to_board	poldrack-single-stim	s601	False
1.0	497.341	2.272	497.34	0	PA_with_intermediate	test	ward_and_allport	-1	31.0	n/a	feedback	poldrack-single-stim	s601	False
5.816	499.622	5.816	505.438	1	PA_with_intermediate	test	ward_and_allport	82	32.0	5.816	to_hand	poldrack-single-stim	s601	False
0.1	505.439	0.297	505.736	0	PA_with_intermediate	test	ward_and_allport	71	32.0	0.297	to_board	poldrack-single-stim	s601	False
0.1	505.748	0.394	506.142	0	PA_with_intermediate	test	ward_and_allport	82	32.0	0.394	to_hand	poldrack-single-stim	s601	False
0.1	506.144	0.329	506.473	0	PA_with_intermediate	test	ward_and_allport	89	32.0	0.329	to_board	poldrack-single-stim	s601	False
0.1	506.485	0.393	506.878	0	PA_with_intermediate	test	ward_and_allport	71	32.0	0.393	to_hand	poldrack-single-stim	s601	False
0.1	506.88	0.324	507.204	0	PA_with_intermediate	test	ward_and_allport	89	32.0	0.324	to_board	poldrack-single-stim	s601	False
1.0	507.217	2.136	507.216	0	PA_with_intermediate	test	ward_and_allport	-1	32.0	n/a	feedback	poldrack-single-stim	s601	False
6.23	509.364	6.23	515.594	1	PA_with_intermediate	test	ward_and_allport	71	33.0	6.23	to_hand	poldrack-single-stim	s601	False
0.1	515.594	0.328	515.922	0	PA_with_intermediate	test	ward_and_allport	82	33.0	0.328	to_board	poldrack-single-stim	s601	False
0.1	515.933	0.355	516.288	0	PA_with_intermediate	test	ward_and_allport	71	33.0	0.355	to_hand	poldrack-single-stim	s601	False
0.1	516.289	0.309	516.598	0	PA_with_intermediate	test	ward_and_allport	89	33.0	0.309	to_board	poldrack-single-stim	s601	False
0.1	516.609	0.511	517.12	0	PA_with_intermediate	test	ward_and_allport	82	33.0	0.511	to_hand	poldrack-single-stim	s601	False
0.1	517.12	0.695	517.815	0	PA_with_intermediate	test	ward_and_allport	71	33.0	0.695	to_board	poldrack-single-stim	s601	False
1.0	517.827	2.0	517.826	0	PA_with_intermediate	test	ward_and_allport	-1	33.0	n/a	feedback	poldrack-single-stim	s601	False
3.269	519.839	3.269	523.108	1	PA_with_intermediate	test	ward_and_allport	71	34.0	3.269	to_hand	poldrack-single-stim	s601	False
0.1	523.109	0.331	523.44	0	PA_with_intermediate	test	ward_and_allport	82	34.0	0.331	to_board	poldrack-single-stim	s601	False
0.1	523.45	0.679	524.129	0	PA_with_intermediate	test	ward_and_allport	71	34.0	0.679	to_hand	poldrack-single-stim	s601	False
0.1	524.13	0.382	524.512	0	PA_with_intermediate	test	ward_and_allport	89	34.0	0.382	to_board	poldrack-single-stim	s601	False
0.1	524.523	0.548	525.071	0	PA_with_intermediate	test	ward_and_allport	82	34.0	0.548	to_hand	poldrack-single-stim	s601	False
0.1	525.072	0.298	525.37	0	PA_with_intermediate	test	ward_and_allport	71	34.0	0.298	to_board	poldrack-single-stim	s601	False
1.0	525.385	2.0	525.384	0	PA_with_intermediate	test	ward_and_allport	-1	34.0	n/a	feedback	poldrack-single-stim	s601	False
4.622	527.395	4.622	532.017	1	PA_without_intermediate	test	ward_and_allport	71	35.0	4.622	to_hand	poldrack-single-stim	s601	False
0.1	532.018	0.374	532.392	0	PA_without_intermediate	test	ward_and_allport	82	35.0	0.374	to_board	poldrack-single-stim	s601	False
0.1	532.4	0.331	532.731	0	PA_without_intermediate	test	ward_and_allport	71	35.0	0.331	to_hand	poldrack-single-stim	s601	False
0.1	532.732	0.308	533.04	0	PA_without_intermediate	test	ward_and_allport	89	35.0	0.308	to_board	poldrack-single-stim	s601	False
0.1	533.048	0.367	533.415	0	PA_without_intermediate	test	ward_and_allport	71	35.0	0.367	to_hand	poldrack-single-stim	s601	False
0.1	533.416	0.378	533.794	0	PA_without_intermediate	test	ward_and_allport	82	35.0	0.378	to_board	poldrack-single-stim	s601	False
1.0	533.809	2.408	533.808	0	PA_without_intermediate	test	ward_and_allport	-1	35.0	n/a	feedback	poldrack-single-stim	s601	False
7.414	536.227	7.414	543.641	1	PA_with_intermediate	test	ward_and_allport	89	36.0	7.414	to_hand	poldrack-single-stim	s601	False
0.1	543.642	0.322	543.964	0	PA_with_intermediate	test	ward_and_allport	82	36.0	0.322	to_board	poldrack-single-stim	s601	False
0.1	543.977	0.648	544.625	0	PA_with_intermediate	test	ward_and_allport	89	36.0	0.648	to_hand	poldrack-single-stim	s601	False
0.1	544.626	0.34	544.966	0	PA_with_intermediate	test	ward_and_allport	71	36.0	0.34	to_board	poldrack-single-stim	s601	False
0.1	544.976	0.461	545.437	0	PA_with_intermediate	test	ward_and_allport	82	36.0	0.461	to_hand	poldrack-single-stim	s601	False
0.1	545.438	0.285	545.723	0	PA_with_intermediate	test	ward_and_allport	71	36.0	0.285	to_board	poldrack-single-stim	s601	False
1.0	545.739	3.768	545.738	0	PA_with_intermediate	test	ward_and_allport	-1	36.0	n/a	feedback	poldrack-single-stim	s601	False
4.342	549.52	4.342	553.862	1	PA_with_intermediate	test	ward_and_allport	89	37.0	4.342	to_hand	poldrack-single-stim	s601	False
0.1	553.862	0.324	554.186	0	PA_with_intermediate	test	ward_and_allport	71	37.0	0.324	to_board	poldrack-single-stim	s601	False
0.1	554.193	0.667	554.86	0	PA_with_intermediate	test	ward_and_allport	89	37.0	0.667	to_hand	poldrack-single-stim	s601	False
0.1	554.862	0.291	555.153	0	PA_with_intermediate	test	ward_and_allport	82	37.0	0.291	to_board	poldrack-single-stim	s601	False
0.1	555.163	0.782	555.945	0	PA_with_intermediate	test	ward_and_allport	71	37.0	0.782	to_hand	poldrack-single-stim	s601	False
0.1	555.946	0.239	556.185	0	PA_with_intermediate	test	ward_and_allport	89	37.0	0.239	to_board	poldrack-single-stim	s601	False
1.0	556.198	2.68	556.197	0	PA_with_intermediate	test	ward_and_allport	-1	37.0	n/a	feedback	poldrack-single-stim	s601	False
3.864	558.891	3.864	562.755	1	PA_without_intermediate	test	ward_and_allport	71	38.0	3.864	to_hand	poldrack-single-stim	s601	False
0.1	562.756	0.324	563.08	0	PA_without_intermediate	test	ward_and_allport	89	38.0	0.324	to_board	poldrack-single-stim	s601	False
0.1	563.092	0.332	563.424	0	PA_without_intermediate	test	ward_and_allport	71	38.0	0.332	to_hand	poldrack-single-stim	s601	False
0.1	563.425	0.302	563.727	0	PA_without_intermediate	test	ward_and_allport	82	38.0	0.302	to_board	poldrack-single-stim	s601	False
0.1	563.739	0.308	564.047	0	PA_without_intermediate	test	ward_and_allport	71	38.0	0.308	to_hand	poldrack-single-stim	s601	False
0.1	564.048	0.276	564.324	0	PA_without_intermediate	test	ward_and_allport	89	38.0	0.276	to_board	poldrack-single-stim	s601	False
1.0	564.337	3.224	564.336	0	PA_without_intermediate	test	ward_and_allport	-1	38.0	n/a	feedback	poldrack-single-stim	s601	False
