onset	duration	movement_onset	block_duration	condition	correct	correct_response	experiment_exp_id	key_press	response_time	trial_id	trial_type	worker_id	junk
3.011	0.5	3.01	0.5	AX	n/a	n/a	dot_pattern_expectancy	-1.0	n/a	cue	AX	s601	False
5.517	0.5	6.015	2.18	AX	1.0	89.0	dot_pattern_expectancy	89.0	0.498	probe	AX	s601	False
7.699	0.5	7.698	0.5	AY	n/a	n/a	dot_pattern_expectancy	-1.0	n/a	cue	AY	s601	False
10.202	0.5	10.664	2.316	AY	1.0	71.0	dot_pattern_expectancy	71.0	0.462	probe	AY	s601	False
12.52	0.5	12.519	0.5	AY	n/a	n/a	dot_pattern_expectancy	-1.0	n/a	cue	AY	s601	False
15.026	0.5	15.563	1.636	AY	1.0	71.0	dot_pattern_expectancy	71.0	0.537	probe	AY	s601	False
16.664	0.5	16.663	0.5	BX	n/a	n/a	dot_pattern_expectancy	-1.0	n/a	cue	BX	s601	False
19.17	0.5	19.472	1.908	BX	1.0	71.0	dot_pattern_expectancy	71.0	0.302	probe	BX	s601	False
21.08	0.5	21.079	0.5	AX	n/a	n/a	dot_pattern_expectancy	-1.0	n/a	cue	AX	s601	False
23.588	0.5	23.995	3.54	AX	1.0	89.0	dot_pattern_expectancy	89.0	0.407	probe	AX	s601	False
27.13	0.5	27.129	0.5	BX	n/a	n/a	dot_pattern_expectancy	-1.0	n/a	cue	BX	s601	False
29.633	0.5	30.089	1.636	BX	1.0	71.0	dot_pattern_expectancy	71.0	0.456	probe	BX	s601	False
31.272	0.5	31.271	0.5	BY	n/a	n/a	dot_pattern_expectancy	-1.0	n/a	cue	BY	s601	False
33.776	0.5	34.197	1.5	BY	1.0	71.0	dot_pattern_expectancy	71.0	0.421	probe	BY	s601	False
35.278	0.5	35.277	0.5	AX	n/a	n/a	dot_pattern_expectancy	-1.0	n/a	cue	AX	s601	False
37.785	0.5	38.278	1.5	AX	1.0	89.0	dot_pattern_expectancy	89.0	0.493	probe	AX	s601	False
39.287	0.5	39.286	0.5	AX	n/a	n/a	dot_pattern_expectancy	-1.0	n/a	cue	AX	s601	False
41.798	0.5	42.333	1.772	AX	1.0	89.0	dot_pattern_expectancy	89.0	0.535	probe	AX	s601	False
43.572	0.5	43.571	0.5	BY	n/a	n/a	dot_pattern_expectancy	-1.0	n/a	cue	BY	s601	False
46.079	0.5	46.69	2.452	BY	1.0	71.0	dot_pattern_expectancy	71.0	0.611	probe	BY	s601	False
48.536	0.5	48.535	0.5	AX	n/a	n/a	dot_pattern_expectancy	-1.0	n/a	cue	AX	s601	False
51.041	0.5	51.436	1.908	AX	1.0	89.0	dot_pattern_expectancy	89.0	0.395	probe	AX	s601	False
52.952	0.5	52.951	0.5	BX	n/a	n/a	dot_pattern_expectancy	-1.0	n/a	cue	BX	s601	False
55.459	0.5	56.165	1.636	BX	1.0	71.0	dot_pattern_expectancy	71.0	0.706	probe	BX	s601	False
57.097	0.5	57.096	0.5	AX	n/a	n/a	dot_pattern_expectancy	-1.0	n/a	cue	AX	s601	False
59.606	0.5	60.021	1.5	AX	1.0	89.0	dot_pattern_expectancy	89.0	0.415	probe	AX	s601	False
61.111	0.5	61.11	0.5	AX	n/a	n/a	dot_pattern_expectancy	-1.0	n/a	cue	AX	s601	False
63.615	0.5	64.035	1.636	AX	1.0	89.0	dot_pattern_expectancy	89.0	0.42	probe	AX	s601	False
65.257	0.5	65.256	0.5	AX	n/a	n/a	dot_pattern_expectancy	-1.0	n/a	cue	AX	s601	False
67.764	0.5	68.423	1.636	AX	1.0	89.0	dot_pattern_expectancy	89.0	0.659	probe	AX	s601	False
69.402	0.5	69.401	0.5	BY	n/a	n/a	dot_pattern_expectancy	-1.0	n/a	cue	BY	s601	False
71.913	0.5	72.427	2.452	BY	1.0	71.0	dot_pattern_expectancy	71.0	0.514	probe	BY	s601	False
74.369	0.5	74.368	0.5	AX	n/a	n/a	dot_pattern_expectancy	-1.0	n/a	cue	AX	s601	False
76.876	0.5	77.266	1.5	AX	1.0	89.0	dot_pattern_expectancy	89.0	0.39	probe	AX	s601	False
78.379	0.5	78.378	0.5	BY	n/a	n/a	dot_pattern_expectancy	-1.0	n/a	cue	BY	s601	False
80.887	0.5	81.216	1.5	BY	1.0	71.0	dot_pattern_expectancy	71.0	0.329	probe	BY	s601	False
82.39	0.5	82.389	0.5	AX	n/a	n/a	dot_pattern_expectancy	-1.0	n/a	cue	AX	s601	False
84.9	0.5	85.295	1.636	AX	1.0	89.0	dot_pattern_expectancy	89.0	0.395	probe	AX	s601	False
86.538	0.5	86.537	0.5	AX	n/a	n/a	dot_pattern_expectancy	-1.0	n/a	cue	AX	s601	False
89.045	0.5	89.466	1.636	AX	1.0	89.0	dot_pattern_expectancy	89.0	0.421	probe	AX	s601	False
90.682	0.5	90.681	0.5	AY	n/a	n/a	dot_pattern_expectancy	-1.0	n/a	cue	AY	s601	False
93.188	0.5	93.74	1.636	AY	1.0	71.0	dot_pattern_expectancy	71.0	0.552	probe	AY	s601	False
94.825	0.5	94.824	0.5	AX	n/a	n/a	dot_pattern_expectancy	-1.0	n/a	cue	AX	s601	False
97.335	0.5	97.786	1.5	AX	1.0	89.0	dot_pattern_expectancy	89.0	0.451	probe	AX	s601	False
98.837	0.5	98.836	0.5	AX	n/a	n/a	dot_pattern_expectancy	-1.0	n/a	cue	AX	s601	False
101.346	0.5	101.767	1.5	AX	1.0	89.0	dot_pattern_expectancy	89.0	0.421	probe	AX	s601	False
102.848	0.5	102.847	0.5	AX	n/a	n/a	dot_pattern_expectancy	-1.0	n/a	cue	AX	s601	False
105.356	0.5	105.715	1.772	AX	1.0	89.0	dot_pattern_expectancy	89.0	0.359	probe	AX	s601	False
107.132	0.5	107.131	0.5	AX	n/a	n/a	dot_pattern_expectancy	-1.0	n/a	cue	AX	s601	False
109.637	0.5	110.052	2.18	AX	1.0	89.0	dot_pattern_expectancy	89.0	0.415	probe	AX	s601	False
111.82	0.5	111.819	0.5	BX	n/a	n/a	dot_pattern_expectancy	-1.0	n/a	cue	BX	s601	False
114.328	0.5	114.778	1.772	BX	1.0	71.0	dot_pattern_expectancy	71.0	0.45	probe	BX	s601	False
116.102	0.5	116.101	0.5	BY	n/a	n/a	dot_pattern_expectancy	-1.0	n/a	cue	BY	s601	False
118.612	0.5	119.026	1.5	BY	1.0	71.0	dot_pattern_expectancy	71.0	0.414	probe	BY	s601	False
120.114	0.5	120.113	0.5	AX	n/a	n/a	dot_pattern_expectancy	-1.0	n/a	cue	AX	s601	False
122.621	0.5	122.943	1.5	AX	1.0	89.0	dot_pattern_expectancy	89.0	0.322	probe	AX	s601	False
124.123	0.5	124.122	0.5	AX	n/a	n/a	dot_pattern_expectancy	-1.0	n/a	cue	AX	s601	False
126.633	0.5	126.962	1.636	AX	1.0	89.0	dot_pattern_expectancy	89.0	0.329	probe	AX	s601	False
128.271	0.5	128.27	0.5	AY	n/a	n/a	dot_pattern_expectancy	-1.0	n/a	cue	AY	s601	False
130.774	0.5	131.264	2.18	AY	1.0	71.0	dot_pattern_expectancy	71.0	0.49	probe	AY	s601	False
132.956	0.5	132.955	0.5	AY	n/a	n/a	dot_pattern_expectancy	-1.0	n/a	cue	AY	s601	False
135.464	0.5	135.92	2.316	AY	1.0	71.0	dot_pattern_expectancy	71.0	0.456	probe	AY	s601	False
137.781	0.5	137.78	0.5	BX	n/a	n/a	dot_pattern_expectancy	-1.0	n/a	cue	BX	s601	False
140.289	0.5	140.573	1.636	BX	1.0	71.0	dot_pattern_expectancy	71.0	0.284	probe	BX	s601	False
141.929	0.5	141.928	0.5	BX	n/a	n/a	dot_pattern_expectancy	-1.0	n/a	cue	BX	s601	False
144.433	0.5	145.398	2.18	BX	0.0	71.0	dot_pattern_expectancy	89.0	0.965	probe	BX	s601	False
146.614	0.5	146.613	0.5	AY	n/a	n/a	dot_pattern_expectancy	-1.0	n/a	cue	AY	s601	False
149.123	0.5	149.588	2.044	AY	1.0	71.0	dot_pattern_expectancy	71.0	0.465	probe	AY	s601	False
151.169	0.5	151.168	0.5	AX	n/a	n/a	dot_pattern_expectancy	-1.0	n/a	cue	AX	s601	False
153.678	0.5	154.075	1.772	AX	1.0	89.0	dot_pattern_expectancy	89.0	0.397	probe	AX	s601	False
155.452	0.5	155.451	0.5	AX	n/a	n/a	dot_pattern_expectancy	-1.0	n/a	cue	AX	s601	False
157.962	0.5	158.341	1.5	AX	1.0	89.0	dot_pattern_expectancy	89.0	0.379	probe	AX	s601	False
159.463	0.5	159.462	0.5	AX	n/a	n/a	dot_pattern_expectancy	-1.0	n/a	cue	AX	s601	False
161.969	0.5	162.412	2.18	AX	1.0	89.0	dot_pattern_expectancy	89.0	0.443	probe	AX	s601	False
164.152	0.5	164.151	0.5	AY	n/a	n/a	dot_pattern_expectancy	-1.0	n/a	cue	AY	s601	False
166.657	0.5	167.05	2.452	AY	1.0	71.0	dot_pattern_expectancy	71.0	0.393	probe	AY	s601	False
169.111	0.5	169.11	0.5	AX	n/a	n/a	dot_pattern_expectancy	-1.0	n/a	cue	AX	s601	False
171.617	0.5	172.007	1.636	AX	0.0	89.0	dot_pattern_expectancy	71.0	0.39	probe	AX	s601	False
173.255	0.5	173.254	0.5	AX	n/a	n/a	dot_pattern_expectancy	-1.0	n/a	cue	AX	s601	False
175.762	0.5	176.104	1.908	AX	1.0	89.0	dot_pattern_expectancy	89.0	0.342	probe	AX	s601	False
188.183	0.5	188.182	0.5	AX	n/a	n/a	dot_pattern_expectancy	-1.0	n/a	cue	AX	s601	False
190.69	0.5	191.082	1.772	AX	1.0	89.0	dot_pattern_expectancy	89.0	0.392	probe	AX	s601	False
192.466	0.5	192.465	0.5	AX	n/a	n/a	dot_pattern_expectancy	-1.0	n/a	cue	AX	s601	False
194.974	0.5	195.342	1.5	AX	1.0	89.0	dot_pattern_expectancy	89.0	0.368	probe	AX	s601	False
196.477	0.5	196.476	0.5	AY	n/a	n/a	dot_pattern_expectancy	-1.0	n/a	cue	AY	s601	False
198.987	0.5	199.544	2.452	AY	1.0	71.0	dot_pattern_expectancy	71.0	0.557	probe	AY	s601	False
201.442	0.5	201.441	0.5	AY	n/a	n/a	dot_pattern_expectancy	-1.0	n/a	cue	AY	s601	False
203.949	0.5	204.437	1.772	AY	1.0	71.0	dot_pattern_expectancy	71.0	0.488	probe	AY	s601	False
205.723	0.5	205.722	0.5	AX	n/a	n/a	dot_pattern_expectancy	-1.0	n/a	cue	AX	s601	False
208.227	0.5	208.599	1.908	AX	1.0	89.0	dot_pattern_expectancy	89.0	0.372	probe	AX	s601	False
210.136	0.5	210.135	0.5	AX	n/a	n/a	dot_pattern_expectancy	-1.0	n/a	cue	AX	s601	False
212.643	0.5	213.027	1.908	AX	1.0	89.0	dot_pattern_expectancy	89.0	0.384	probe	AX	s601	False
214.552	0.5	214.551	0.5	AX	n/a	n/a	dot_pattern_expectancy	-1.0	n/a	cue	AX	s601	False
217.06	0.5	217.588	2.588	AX	1.0	89.0	dot_pattern_expectancy	89.0	0.528	probe	AX	s601	False
219.651	0.5	219.65	0.5	AY	n/a	n/a	dot_pattern_expectancy	-1.0	n/a	cue	AY	s601	False
222.159	0.5	222.6	1.5	AY	1.0	71.0	dot_pattern_expectancy	71.0	0.441	probe	AY	s601	False
223.66	0.5	223.659	0.5	BY	n/a	n/a	dot_pattern_expectancy	-1.0	n/a	cue	BY	s601	False
226.166	0.5	226.56	1.5	BY	1.0	71.0	dot_pattern_expectancy	71.0	0.394	probe	BY	s601	False
227.667	0.5	227.666	0.5	BY	n/a	n/a	dot_pattern_expectancy	-1.0	n/a	cue	BY	s601	False
230.176	0.5	230.556	1.5	BY	1.0	71.0	dot_pattern_expectancy	71.0	0.38	probe	BY	s601	False
231.678	0.5	231.677	0.5	AX	n/a	n/a	dot_pattern_expectancy	-1.0	n/a	cue	AX	s601	False
234.189	0.5	234.613	1.636	AX	1.0	89.0	dot_pattern_expectancy	89.0	0.424	probe	AX	s601	False
235.826	0.5	235.825	0.5	BX	n/a	n/a	dot_pattern_expectancy	-1.0	n/a	cue	BX	s601	False
238.33	0.5	238.768	2.044	BX	1.0	71.0	dot_pattern_expectancy	71.0	0.438	probe	BX	s601	False
240.377	0.5	240.376	0.5	AX	n/a	n/a	dot_pattern_expectancy	-1.0	n/a	cue	AX	s601	False
242.886	0.5	243.328	1.772	AX	1.0	89.0	dot_pattern_expectancy	89.0	0.442	probe	AX	s601	False
244.66	0.5	244.659	0.5	BX	n/a	n/a	dot_pattern_expectancy	-1.0	n/a	cue	BX	s601	False
247.164	0.5	247.578	2.588	BX	1.0	71.0	dot_pattern_expectancy	71.0	0.414	probe	BX	s601	False
249.753	0.5	249.752	0.5	AY	n/a	n/a	dot_pattern_expectancy	-1.0	n/a	cue	AY	s601	False
252.264	0.5	252.715	1.5	AY	1.0	71.0	dot_pattern_expectancy	71.0	0.451	probe	AY	s601	False
253.766	0.5	253.765	0.5	AX	n/a	n/a	dot_pattern_expectancy	-1.0	n/a	cue	AX	s601	False
256.271	0.5	256.629	2.452	AX	1.0	89.0	dot_pattern_expectancy	89.0	0.358	probe	AX	s601	False
258.725	0.5	258.724	0.5	BY	n/a	n/a	dot_pattern_expectancy	-1.0	n/a	cue	BY	s601	False
261.231	0.5	261.534	1.636	BY	1.0	71.0	dot_pattern_expectancy	71.0	0.303	probe	BY	s601	False
262.868	0.5	262.867	0.5	AX	n/a	n/a	dot_pattern_expectancy	-1.0	n/a	cue	AX	s601	False
265.375	0.5	265.808	1.636	AX	1.0	89.0	dot_pattern_expectancy	89.0	0.433	probe	AX	s601	False
267.013	0.5	267.012	0.5	AX	n/a	n/a	dot_pattern_expectancy	-1.0	n/a	cue	AX	s601	False
269.522	0.5	269.952	1.5	AX	1.0	89.0	dot_pattern_expectancy	89.0	0.43	probe	AX	s601	False
271.023	0.5	271.022	0.5	BY	n/a	n/a	dot_pattern_expectancy	-1.0	n/a	cue	BY	s601	False
273.53	0.5	273.836	1.636	BY	1.0	71.0	dot_pattern_expectancy	71.0	0.306	probe	BY	s601	False
275.167	0.5	275.166	0.5	AX	n/a	n/a	dot_pattern_expectancy	-1.0	n/a	cue	AX	s601	False
277.676	0.5	278.07	1.5	AX	1.0	89.0	dot_pattern_expectancy	89.0	0.394	probe	AX	s601	False
279.178	0.5	279.177	0.5	AY	n/a	n/a	dot_pattern_expectancy	-1.0	n/a	cue	AY	s601	False
281.685	0.5	282.156	2.18	AY	1.0	71.0	dot_pattern_expectancy	71.0	0.471	probe	AY	s601	False
283.866	0.5	283.865	0.5	AX	n/a	n/a	dot_pattern_expectancy	-1.0	n/a	cue	AX	s601	False
286.377	0.5	286.789	1.5	AX	1.0	89.0	dot_pattern_expectancy	89.0	0.412	probe	AX	s601	False
287.878	0.5	287.877	0.5	AX	n/a	n/a	dot_pattern_expectancy	-1.0	n/a	cue	AX	s601	False
290.384	0.5	290.918	1.908	AX	1.0	89.0	dot_pattern_expectancy	89.0	0.534	probe	AX	s601	False
292.293	0.5	292.292	0.5	BY	n/a	n/a	dot_pattern_expectancy	-1.0	n/a	cue	BY	s601	False
294.8	0.5	295.094	1.636	BY	1.0	71.0	dot_pattern_expectancy	71.0	0.294	probe	BY	s601	False
296.441	0.5	296.44	0.5	BY	n/a	n/a	dot_pattern_expectancy	-1.0	n/a	cue	BY	s601	False
298.944	0.5	299.423	1.636	BY	1.0	71.0	dot_pattern_expectancy	71.0	0.479	probe	BY	s601	False
300.581	0.5	300.58	0.5	AX	n/a	n/a	dot_pattern_expectancy	-1.0	n/a	cue	AX	s601	False
303.088	0.5	303.531	1.636	AX	1.0	89.0	dot_pattern_expectancy	89.0	0.443	probe	AX	s601	False
304.726	0.5	304.725	0.5	AX	n/a	n/a	dot_pattern_expectancy	-1.0	n/a	cue	AX	s601	False
307.234	0.5	307.581	1.5	AX	1.0	89.0	dot_pattern_expectancy	89.0	0.347	probe	AX	s601	False
308.736	0.5	308.735	0.5	BY	n/a	n/a	dot_pattern_expectancy	-1.0	n/a	cue	BY	s601	False
311.245	0.5	311.487	2.044	BY	1.0	71.0	dot_pattern_expectancy	71.0	0.242	probe	BY	s601	False
313.291	0.5	313.29	0.5	AY	n/a	n/a	dot_pattern_expectancy	-1.0	n/a	cue	AY	s601	False
315.798	0.5	316.506	2.18	AY	1.0	71.0	dot_pattern_expectancy	71.0	0.708	probe	AY	s601	False
317.979	0.5	317.978	0.5	AY	n/a	n/a	dot_pattern_expectancy	-1.0	n/a	cue	AY	s601	False
320.486	0.5	321.299	1.636	AY	1.0	71.0	dot_pattern_expectancy	71.0	0.813	probe	AY	s601	False
322.123	0.5	322.122	0.5	AY	n/a	n/a	dot_pattern_expectancy	-1.0	n/a	cue	AY	s601	False
324.629	0.5	325.005	1.772	AY	1.0	71.0	dot_pattern_expectancy	71.0	0.376	probe	AY	s601	False
326.406	0.5	326.405	0.5	BY	n/a	n/a	dot_pattern_expectancy	-1.0	n/a	cue	BY	s601	False
328.915	0.5	329.215	1.5	BY	1.0	71.0	dot_pattern_expectancy	71.0	0.3	probe	BY	s601	False
330.417	0.5	330.416	0.5	BX	n/a	n/a	dot_pattern_expectancy	-1.0	n/a	cue	BX	s601	False
332.923	0.5	333.222	1.908	BX	1.0	71.0	dot_pattern_expectancy	71.0	0.299	probe	BX	s601	False
334.833	0.5	334.832	0.5	AX	n/a	n/a	dot_pattern_expectancy	-1.0	n/a	cue	AX	s601	False
337.342	0.5	337.692	2.044	AX	1.0	89.0	dot_pattern_expectancy	89.0	0.35	probe	AX	s601	False
339.388	0.5	339.387	0.5	AX	n/a	n/a	dot_pattern_expectancy	-1.0	n/a	cue	AX	s601	False
341.894	0.5	342.462	1.636	AX	1.0	89.0	dot_pattern_expectancy	89.0	0.568	probe	AX	s601	False
343.532	0.5	343.531	0.5	AX	n/a	n/a	dot_pattern_expectancy	-1.0	n/a	cue	AX	s601	False
346.04	0.5	346.393	1.772	AX	1.0	89.0	dot_pattern_expectancy	89.0	0.353	probe	AX	s601	False
347.814	0.5	347.813	0.5	AX	n/a	n/a	dot_pattern_expectancy	-1.0	n/a	cue	AX	s601	False
350.318	0.5	350.797	1.636	AX	1.0	89.0	dot_pattern_expectancy	89.0	0.479	probe	AX	s601	False
351.959	0.5	351.958	0.5	BX	n/a	n/a	dot_pattern_expectancy	-1.0	n/a	cue	BX	s601	False
354.467	0.5	354.972	1.772	BX	1.0	71.0	dot_pattern_expectancy	71.0	0.505	probe	BX	s601	False
356.242	0.5	356.241	0.5	AX	n/a	n/a	dot_pattern_expectancy	-1.0	n/a	cue	AX	s601	False
358.75	0.5	359.098	1.5	AX	1.0	89.0	dot_pattern_expectancy	89.0	0.348	probe	AX	s601	False
370.767	0.5	370.766	0.5	BY	n/a	n/a	dot_pattern_expectancy	-1.0	n/a	cue	BY	s601	False
373.271	0.5	373.484	1.636	BY	1.0	71.0	dot_pattern_expectancy	71.0	0.213	probe	BY	s601	False
374.909	0.5	374.908	0.5	AY	n/a	n/a	dot_pattern_expectancy	-1.0	n/a	cue	AY	s601	False
377.413	0.5	377.843	1.5	AY	1.0	71.0	dot_pattern_expectancy	71.0	0.43	probe	AY	s601	False
378.914	0.5	378.913	0.5	AX	n/a	n/a	dot_pattern_expectancy	-1.0	n/a	cue	AX	s601	False
381.424	0.5	381.903	2.044	AX	1.0	89.0	dot_pattern_expectancy	89.0	0.479	probe	AX	s601	False
383.469	0.5	383.468	0.5	BY	n/a	n/a	dot_pattern_expectancy	-1.0	n/a	cue	BY	s601	False
385.976	0.5	386.229	1.772	BY	1.0	71.0	dot_pattern_expectancy	71.0	0.253	probe	BY	s601	False
387.751	0.5	387.75	0.5	BX	n/a	n/a	dot_pattern_expectancy	-1.0	n/a	cue	BX	s601	False
390.258	0.5	390.596	1.636	BX	1.0	71.0	dot_pattern_expectancy	71.0	0.338	probe	BX	s601	False
391.896	0.5	391.895	0.5	AX	n/a	n/a	dot_pattern_expectancy	-1.0	n/a	cue	AX	s601	False
394.402	0.5	394.722	1.636	AX	1.0	89.0	dot_pattern_expectancy	89.0	0.32	probe	AX	s601	False
396.04	0.5	396.039	0.5	AX	n/a	n/a	dot_pattern_expectancy	-1.0	n/a	cue	AX	s601	False
398.55	0.5	398.942	1.5	AX	1.0	89.0	dot_pattern_expectancy	89.0	0.392	probe	AX	s601	False
400.052	0.5	400.051	0.5	AX	n/a	n/a	dot_pattern_expectancy	-1.0	n/a	cue	AX	s601	False
402.559	0.5	402.876	1.5	AX	1.0	89.0	dot_pattern_expectancy	89.0	0.317	probe	AX	s601	False
404.062	0.5	404.061	0.5	AY	n/a	n/a	dot_pattern_expectancy	-1.0	n/a	cue	AY	s601	False
406.571	0.5	406.971	2.044	AY	1.0	71.0	dot_pattern_expectancy	71.0	0.4	probe	AY	s601	False
408.616	0.5	408.615	0.5	AX	n/a	n/a	dot_pattern_expectancy	-1.0	n/a	cue	AX	s601	False
411.123	0.5	411.465	2.452	AX	1.0	89.0	dot_pattern_expectancy	89.0	0.342	probe	AX	s601	False
413.577	0.5	413.576	0.5	AX	n/a	n/a	dot_pattern_expectancy	-1.0	n/a	cue	AX	s601	False
416.083	0.5	416.665	1.908	AX	1.0	89.0	dot_pattern_expectancy	89.0	0.582	probe	AX	s601	False
417.997	0.5	417.996	0.5	AX	n/a	n/a	dot_pattern_expectancy	-1.0	n/a	cue	AX	s601	False
420.507	0.5	421.008	1.5	AX	1.0	89.0	dot_pattern_expectancy	89.0	0.501	probe	AX	s601	False
422.009	0.5	422.008	0.5	AX	n/a	n/a	dot_pattern_expectancy	-1.0	n/a	cue	AX	s601	False
424.515	0.5	424.856	1.908	AX	1.0	89.0	dot_pattern_expectancy	89.0	0.341	probe	AX	s601	False
426.425	0.5	426.424	0.5	BX	n/a	n/a	dot_pattern_expectancy	-1.0	n/a	cue	BX	s601	False
428.932	0.5	429.307	2.18	BX	1.0	71.0	dot_pattern_expectancy	71.0	0.375	probe	BX	s601	False
431.113	0.5	431.112	0.5	AX	n/a	n/a	dot_pattern_expectancy	-1.0	n/a	cue	AX	s601	False
433.622	0.5	433.983	1.5	AX	1.0	89.0	dot_pattern_expectancy	89.0	0.361	probe	AX	s601	False
435.124	0.5	435.123	0.5	BY	n/a	n/a	dot_pattern_expectancy	-1.0	n/a	cue	BY	s601	False
437.631	0.5	437.91	1.908	BY	1.0	71.0	dot_pattern_expectancy	71.0	0.279	probe	BY	s601	False
439.54	0.5	439.539	0.5	BX	n/a	n/a	dot_pattern_expectancy	-1.0	n/a	cue	BX	s601	False
442.049	0.5	442.352	2.316	BX	1.0	71.0	dot_pattern_expectancy	71.0	0.303	probe	BX	s601	False
444.367	0.5	444.366	0.5	AY	n/a	n/a	dot_pattern_expectancy	-1.0	n/a	cue	AY	s601	False
446.876	0.5	447.312	2.316	AY	1.0	71.0	dot_pattern_expectancy	71.0	0.436	probe	AY	s601	False
449.194	0.5	449.193	0.5	BX	n/a	n/a	dot_pattern_expectancy	-1.0	n/a	cue	BX	s601	False
451.706	0.5	451.992	1.636	BX	1.0	71.0	dot_pattern_expectancy	71.0	0.286	probe	BX	s601	False
453.343	0.5	453.342	0.5	AY	n/a	n/a	dot_pattern_expectancy	-1.0	n/a	cue	AY	s601	False
455.852	0.5	456.267	1.5	AY	1.0	71.0	dot_pattern_expectancy	71.0	0.415	probe	AY	s601	False
457.355	0.5	457.354	0.5	BY	n/a	n/a	dot_pattern_expectancy	-1.0	n/a	cue	BY	s601	False
459.86	0.5	460.117	1.908	BY	1.0	71.0	dot_pattern_expectancy	71.0	0.257	probe	BY	s601	False
461.77	0.5	461.769	0.5	AX	n/a	n/a	dot_pattern_expectancy	-1.0	n/a	cue	AX	s601	False
464.28	0.5	464.668	1.5	AX	1.0	89.0	dot_pattern_expectancy	89.0	0.388	probe	AX	s601	False
465.782	0.5	465.781	0.5	AY	n/a	n/a	dot_pattern_expectancy	-1.0	n/a	cue	AY	s601	False
468.29	0.5	468.705	2.316	AY	1.0	71.0	dot_pattern_expectancy	71.0	0.415	probe	AY	s601	False
470.608	0.5	470.607	0.5	AX	n/a	n/a	dot_pattern_expectancy	-1.0	n/a	cue	AX	s601	False
473.117	0.5	473.51	1.5	AX	1.0	89.0	dot_pattern_expectancy	89.0	0.393	probe	AX	s601	False
474.618	0.5	474.617	0.5	AY	n/a	n/a	dot_pattern_expectancy	-1.0	n/a	cue	AY	s601	False
477.125	0.5	477.55	2.724	AY	1.0	71.0	dot_pattern_expectancy	71.0	0.425	probe	AY	s601	False
479.85	0.5	479.849	0.5	AX	n/a	n/a	dot_pattern_expectancy	-1.0	n/a	cue	AX	s601	False
482.361	0.5	482.704	1.5	AX	1.0	89.0	dot_pattern_expectancy	89.0	0.343	probe	AX	s601	False
483.862	0.5	483.861	0.5	AX	n/a	n/a	dot_pattern_expectancy	-1.0	n/a	cue	AX	s601	False
486.371	0.5	486.701	1.636	AX	1.0	89.0	dot_pattern_expectancy	89.0	0.33	probe	AX	s601	False
488.011	0.5	488.01	0.5	AX	n/a	n/a	dot_pattern_expectancy	-1.0	n/a	cue	AX	s601	False
490.52	0.5	490.869	1.636	AX	1.0	89.0	dot_pattern_expectancy	89.0	0.349	probe	AX	s601	False
492.16	0.5	492.159	0.5	AX	n/a	n/a	dot_pattern_expectancy	-1.0	n/a	cue	AX	s601	False
494.664	0.5	495.03	1.772	AX	1.0	89.0	dot_pattern_expectancy	89.0	0.366	probe	AX	s601	False
496.438	0.5	496.437	0.5	BY	n/a	n/a	dot_pattern_expectancy	-1.0	n/a	cue	BY	s601	False
498.946	0.5	499.238	1.772	BY	1.0	71.0	dot_pattern_expectancy	71.0	0.292	probe	BY	s601	False
500.72	0.5	500.719	0.5	AX	n/a	n/a	dot_pattern_expectancy	-1.0	n/a	cue	AX	s601	False
503.224	0.5	503.6	1.5	AX	1.0	89.0	dot_pattern_expectancy	89.0	0.376	probe	AX	s601	False
504.725	0.5	504.724	0.5	BY	n/a	n/a	dot_pattern_expectancy	-1.0	n/a	cue	BY	s601	False
507.233	0.5	507.521	2.452	BY	1.0	71.0	dot_pattern_expectancy	71.0	0.288	probe	BY	s601	False
509.686	0.5	509.685	0.5	AX	n/a	n/a	dot_pattern_expectancy	-1.0	n/a	cue	AX	s601	False
512.195	0.5	512.581	1.636	AX	1.0	89.0	dot_pattern_expectancy	89.0	0.386	probe	AX	s601	False
513.835	0.5	513.834	0.5	AX	n/a	n/a	dot_pattern_expectancy	-1.0	n/a	cue	AX	s601	False
516.34	0.5	516.877	1.636	AX	1.0	89.0	dot_pattern_expectancy	89.0	0.537	probe	AX	s601	False
517.98	0.5	517.979	0.5	BX	n/a	n/a	dot_pattern_expectancy	-1.0	n/a	cue	BX	s601	False
520.49	0.5	520.868	1.5	BX	1.0	71.0	dot_pattern_expectancy	71.0	0.378	probe	BX	s601	False
521.991	0.5	521.99	0.5	BX	n/a	n/a	dot_pattern_expectancy	-1.0	n/a	cue	BX	s601	False
524.501	0.5	524.765	1.5	BX	1.0	71.0	dot_pattern_expectancy	71.0	0.264	probe	BX	s601	False
526.003	0.5	526.002	0.5	AX	n/a	n/a	dot_pattern_expectancy	-1.0	n/a	cue	AX	s601	False
528.51	0.5	528.835	2.316	AX	1.0	89.0	dot_pattern_expectancy	89.0	0.325	probe	AX	s601	False
530.828	0.5	530.827	0.5	AY	n/a	n/a	dot_pattern_expectancy	-1.0	n/a	cue	AY	s601	False
533.337	0.5	533.78	2.044	AY	1.0	71.0	dot_pattern_expectancy	71.0	0.443	probe	AY	s601	False
535.383	0.5	535.382	0.5	AX	n/a	n/a	dot_pattern_expectancy	-1.0	n/a	cue	AX	s601	False
537.887	0.5	538.253	3.948	AX	1.0	89.0	dot_pattern_expectancy	89.0	0.366	probe	AX	s601	False
541.839	0.5	541.838	0.5	AX	n/a	n/a	dot_pattern_expectancy	-1.0	n/a	cue	AX	s601	False
544.348	0.5	544.682	1.636	AX	1.0	89.0	dot_pattern_expectancy	89.0	0.334	probe	AX	s601	False
556.501	0.5	556.5	0.5	AY	n/a	n/a	dot_pattern_expectancy	-1.0	n/a	cue	AY	s601	False
559.005	0.5	559.326	1.636	AY	0.0	71.0	dot_pattern_expectancy	89.0	0.321	probe	AY	s601	False
560.642	0.5	560.641	0.5	AX	n/a	n/a	dot_pattern_expectancy	-1.0	n/a	cue	AX	s601	False
563.152	0.5	563.519	1.636	AX	1.0	89.0	dot_pattern_expectancy	89.0	0.367	probe	AX	s601	False
564.792	0.5	564.791	0.5	AX	n/a	n/a	dot_pattern_expectancy	-1.0	n/a	cue	AX	s601	False
567.296	0.5	567.657	1.5	AX	1.0	89.0	dot_pattern_expectancy	89.0	0.361	probe	AX	s601	False
568.797	0.5	568.796	0.5	AX	n/a	n/a	dot_pattern_expectancy	-1.0	n/a	cue	AX	s601	False
571.308	0.5	571.639	1.5	AX	1.0	89.0	dot_pattern_expectancy	89.0	0.331	probe	AX	s601	False
572.813	0.5	572.812	0.5	AX	n/a	n/a	dot_pattern_expectancy	-1.0	n/a	cue	AX	s601	False
575.32	0.5	575.793	1.908	AX	1.0	89.0	dot_pattern_expectancy	89.0	0.473	probe	AX	s601	False
577.229	0.5	577.228	0.5	BX	n/a	n/a	dot_pattern_expectancy	-1.0	n/a	cue	BX	s601	False
579.736	0.5	580.045	1.636	BX	1.0	71.0	dot_pattern_expectancy	71.0	0.309	probe	BX	s601	False
581.373	0.5	581.372	0.5	AX	n/a	n/a	dot_pattern_expectancy	-1.0	n/a	cue	AX	s601	False
583.883	0.5	584.195	2.044	AX	1.0	89.0	dot_pattern_expectancy	89.0	0.312	probe	AX	s601	False
585.928	0.5	585.927	0.5	AX	n/a	n/a	dot_pattern_expectancy	-1.0	n/a	cue	AX	s601	False
588.437	0.5	588.789	1.772	AX	1.0	89.0	dot_pattern_expectancy	89.0	0.352	probe	AX	s601	False
590.211	0.5	590.21	0.5	AX	n/a	n/a	dot_pattern_expectancy	-1.0	n/a	cue	AX	s601	False
592.72	0.5	593.044	1.5	AX	1.0	89.0	dot_pattern_expectancy	89.0	0.324	probe	AX	s601	False
594.222	0.5	594.221	0.5	AX	n/a	n/a	dot_pattern_expectancy	-1.0	n/a	cue	AX	s601	False
596.732	0.5	597.09	2.18	AX	1.0	89.0	dot_pattern_expectancy	89.0	0.358	probe	AX	s601	False
598.915	0.5	598.914	0.5	AX	n/a	n/a	dot_pattern_expectancy	-1.0	n/a	cue	AX	s601	False
601.423	0.5	601.767	1.5	AX	1.0	89.0	dot_pattern_expectancy	89.0	0.344	probe	AX	s601	False
602.925	0.5	602.924	0.5	BX	n/a	n/a	dot_pattern_expectancy	-1.0	n/a	cue	BX	s601	False
605.435	0.5	605.657	3.676	BX	1.0	71.0	dot_pattern_expectancy	71.0	0.222	probe	BX	s601	False
609.114	0.5	609.113	0.5	BY	n/a	n/a	dot_pattern_expectancy	-1.0	n/a	cue	BY	s601	False
611.619	0.5	611.898	1.636	BY	1.0	71.0	dot_pattern_expectancy	71.0	0.279	probe	BY	s601	False
613.259	0.5	613.258	0.5	BY	n/a	n/a	dot_pattern_expectancy	-1.0	n/a	cue	BY	s601	False
615.764	0.5	616.172	1.636	BY	1.0	71.0	dot_pattern_expectancy	71.0	0.408	probe	BY	s601	False
617.401	0.5	617.4	0.5	BX	n/a	n/a	dot_pattern_expectancy	-1.0	n/a	cue	BX	s601	False
619.91	0.5	620.161	1.5	BX	1.0	71.0	dot_pattern_expectancy	71.0	0.251	probe	BX	s601	False
621.412	0.5	621.411	0.5	AX	n/a	n/a	dot_pattern_expectancy	-1.0	n/a	cue	AX	s601	False
623.919	0.5	624.253	1.908	AX	1.0	89.0	dot_pattern_expectancy	89.0	0.334	probe	AX	s601	False
625.828	0.5	625.827	0.5	AX	n/a	n/a	dot_pattern_expectancy	-1.0	n/a	cue	AX	s601	False
628.335	0.5	628.724	1.636	AX	1.0	89.0	dot_pattern_expectancy	89.0	0.389	probe	AX	s601	False
629.972	0.5	629.971	0.5	BX	n/a	n/a	dot_pattern_expectancy	-1.0	n/a	cue	BX	s601	False
632.482	0.5	632.745	1.5	BX	1.0	71.0	dot_pattern_expectancy	71.0	0.263	probe	BX	s601	False
633.988	0.5	633.987	0.5	AX	n/a	n/a	dot_pattern_expectancy	-1.0	n/a	cue	AX	s601	False
636.494	0.5	636.988	1.908	AX	1.0	89.0	dot_pattern_expectancy	89.0	0.494	probe	AX	s601	False
638.404	0.5	638.403	0.5	BY	n/a	n/a	dot_pattern_expectancy	-1.0	n/a	cue	BY	s601	False
640.911	0.5	641.444	2.18	BY	1.0	71.0	dot_pattern_expectancy	71.0	0.533	probe	BY	s601	False
643.093	0.5	643.092	0.5	AX	n/a	n/a	dot_pattern_expectancy	-1.0	n/a	cue	AX	s601	False
645.596	0.5	645.963	1.772	AX	1.0	89.0	dot_pattern_expectancy	89.0	0.367	probe	AX	s601	False
647.373	0.5	647.372	0.5	AX	n/a	n/a	dot_pattern_expectancy	-1.0	n/a	cue	AX	s601	False
649.88	0.5	650.222	1.5	AX	1.0	89.0	dot_pattern_expectancy	89.0	0.342	probe	AX	s601	False
651.381	0.5	651.38	0.5	AX	n/a	n/a	dot_pattern_expectancy	-1.0	n/a	cue	AX	s601	False
653.89	0.5	654.324	1.5	AX	1.0	89.0	dot_pattern_expectancy	89.0	0.434	probe	AX	s601	False
655.392	0.5	655.391	0.5	AX	n/a	n/a	dot_pattern_expectancy	-1.0	n/a	cue	AX	s601	False
657.895	0.5	658.273	2.044	AX	1.0	89.0	dot_pattern_expectancy	89.0	0.378	probe	AX	s601	False
659.941	0.5	659.94	0.5	AX	n/a	n/a	dot_pattern_expectancy	-1.0	n/a	cue	AX	s601	False
662.451	0.5	662.827	2.86	AX	1.0	89.0	dot_pattern_expectancy	89.0	0.376	probe	AX	s601	False
665.312	0.5	665.311	0.5	BX	n/a	n/a	dot_pattern_expectancy	-1.0	n/a	cue	BX	s601	False
667.821	0.5	668.113	1.5	BX	1.0	71.0	dot_pattern_expectancy	71.0	0.292	probe	BX	s601	False
669.323	0.5	669.322	0.5	BY	n/a	n/a	dot_pattern_expectancy	-1.0	n/a	cue	BY	s601	False
671.832	0.5	672.121	1.772	BY	1.0	71.0	dot_pattern_expectancy	71.0	0.289	probe	BY	s601	False
673.606	0.5	673.605	0.5	AX	n/a	n/a	dot_pattern_expectancy	-1.0	n/a	cue	AX	s601	False
676.115	0.5	676.456	1.772	AX	1.0	89.0	dot_pattern_expectancy	89.0	0.341	probe	AX	s601	False
677.89	0.5	677.889	0.5	AX	n/a	n/a	dot_pattern_expectancy	-1.0	n/a	cue	AX	s601	False
680.396	0.5	680.726	2.86	AX	1.0	89.0	dot_pattern_expectancy	89.0	0.33	probe	AX	s601	False
683.258	0.5	683.257	0.5	AX	n/a	n/a	dot_pattern_expectancy	-1.0	n/a	cue	AX	s601	False
685.763	0.5	686.16	1.772	AX	1.0	89.0	dot_pattern_expectancy	89.0	0.397	probe	AX	s601	False
687.536	0.5	687.535	0.5	BX	n/a	n/a	dot_pattern_expectancy	-1.0	n/a	cue	BX	s601	False
690.043	0.5	690.377	1.636	BX	1.0	71.0	dot_pattern_expectancy	71.0	0.334	probe	BX	s601	False
691.681	0.5	691.68	0.5	BX	n/a	n/a	dot_pattern_expectancy	-1.0	n/a	cue	BX	s601	False
694.187	0.5	694.495	2.452	BX	1.0	71.0	dot_pattern_expectancy	71.0	0.308	probe	BX	s601	False
696.641	0.5	696.64	0.5	AX	n/a	n/a	dot_pattern_expectancy	-1.0	n/a	cue	AX	s601	False
699.147	0.5	699.571	1.636	AX	1.0	89.0	dot_pattern_expectancy	89.0	0.424	probe	AX	s601	False
700.787	0.5	700.786	0.5	BX	n/a	n/a	dot_pattern_expectancy	-1.0	n/a	cue	BX	s601	False
703.294	0.5	703.58	1.5	BX	1.0	71.0	dot_pattern_expectancy	71.0	0.286	probe	BX	s601	False
704.796	0.5	704.795	0.5	AX	n/a	n/a	dot_pattern_expectancy	-1.0	n/a	cue	AX	s601	False
707.302	0.5	707.691	1.636	AX	1.0	89.0	dot_pattern_expectancy	89.0	0.389	probe	AX	s601	False
708.94	0.5	708.939	0.5	AX	n/a	n/a	dot_pattern_expectancy	-1.0	n/a	cue	AX	s601	False
711.446	0.5	711.84	1.636	AX	1.0	89.0	dot_pattern_expectancy	89.0	0.394	probe	AX	s601	False
713.084	0.5	713.083	0.5	BY	n/a	n/a	dot_pattern_expectancy	-1.0	n/a	cue	BY	s601	False
715.59	0.5	715.943	2.18	BY	1.0	71.0	dot_pattern_expectancy	71.0	0.353	probe	BY	s601	False
717.772	0.5	717.771	0.5	AX	n/a	n/a	dot_pattern_expectancy	-1.0	n/a	cue	AX	s601	False
720.283	0.5	720.768	1.5	AX	1.0	89.0	dot_pattern_expectancy	89.0	0.485	probe	AX	s601	False
721.788	0.5	721.787	0.5	AY	n/a	n/a	dot_pattern_expectancy	-1.0	n/a	cue	AY	s601	False
724.295	0.5	724.612	1.636	AY	0.0	71.0	dot_pattern_expectancy	89.0	0.317	probe	AY	s601	False
725.932	0.5	725.931	0.5	AX	n/a	n/a	dot_pattern_expectancy	-1.0	n/a	cue	AX	s601	False
728.439	0.5	728.871	1.636	AX	1.0	89.0	dot_pattern_expectancy	89.0	0.432	probe	AX	s601	False
