onset	duration	movement_onset	EV	action	block_duration	experiment_exp_id	gain_amount	gain_probability	key_press	loss_amount	loss_probability	num_cards	num_click_in_round	num_loss_cards	risk	response_time	total_cards	trial_id	trial_type	worker_id	junk	feedback
3.013	8.095	11.108	0.5298608437943302	draw_card	8.095	columbia_card_task_fmri	12.0	0.8333333333333334	89.0	-70.0	0.1666666666666666	6.0	1.0	1.0	-3.4772844019863958	8.095	n/a	stim	poldrack-single-stim	s601	False	1
11.112	1.82	12.932	-2.2034724895390023	draw_card	1.82	columbia_card_task_fmri	12.0	0.8	89.0	-70.0	0.2	6.0	2.0	1.0	-1.2422526545308583	1.82	n/a	stim	poldrack-single-stim	s601	False	1
12.933	1.52	14.453	-6.303472489539004	draw_card	1.52	columbia_card_task_fmri	12.0	0.75	89.0	-70.0	0.25	6.0	3.0	1.0	1.459199049190559	1.52	n/a	stim	poldrack-single-stim	s601	False	1
14.456	5.683	20.139	-13.136805822872336	end_round	5.683	columbia_card_task_fmri	12.0	0.6666666666666667	71.0	-70.0	0.3333333333333333	6.0	4.0	1.0	4.601809612070532	5.683	3.0	stim	poldrack-single-stim	s601	False	1
20.894	1.5	20.143	n/a	-1.0	2.25	columbia_card_task_fmri	n/a	n/a	-1.0	n/a	n/a	n/a	n/a	n/a	n/a	n/a	n/a	ITI	poldrack-single-stim	s601	False	0
22.397	4.561	26.958	1.363194177127664	draw_card	4.561	columbia_card_task_fmri	14.0	0.8333333333333334	89.0	-75.0	0.1666666666666666	6.0	1.0	1.0	-0.8747250454438955	4.561	n/a	stim	poldrack-single-stim	s601	False	1
26.96	1.556	28.516	-1.603472489539003	draw_card	1.556	columbia_card_task_fmri	14.0	0.8	89.0	-75.0	0.2	6.0	2.0	1.0	1.551980594534875	1.556	n/a	stim	poldrack-single-stim	s601	False	1
28.519	1.278	29.797	-6.053472489539004	draw_card	1.278	columbia_card_task_fmri	14.0	0.75	89.0	-75.0	0.25	6.0	3.0	1.0	4.484958447469467	1.278	n/a	stim	poldrack-single-stim	s601	False	1
29.8	4.688	34.488	-13.47013915620567	draw_card	4.688	columbia_card_task_fmri	14.0	0.6666666666666667	89.0	-75.0	0.3333333333333333	6.0	4.0	1.0	7.8967437638725855	4.688	n/a	stim	poldrack-single-stim	s601	False	1
34.489	1.723	36.212	-28.303472489539004	end_round	1.723	columbia_card_task_fmri	14.0	0.5	71.0	-75.0	0.5	6.0	5.0	1.0	10.438459363304297	1.723	4.0	stim	poldrack-single-stim	s601	False	1
36.966	1.5	36.215	n/a	-1.0	2.386	columbia_card_task_fmri	n/a	n/a	-1.0	n/a	n/a	n/a	n/a	n/a	n/a	n/a	n/a	ITI	poldrack-single-stim	s601	False	0
38.604	4.091	42.695	3.02986084379433	draw_card	4.091	columbia_card_task_fmri	15.0	0.8333333333333334	89.0	-70.0	0.1666666666666666	6.0	1.0	1.0	-2.362026146008599	4.091	n/a	stim	poldrack-single-stim	s601	False	1
42.696	1.687	44.383	0.1965275104609962	draw_card	1.687	columbia_card_task_fmri	15.0	0.8	89.0	-70.0	0.2	6.0	2.0	1.0	-0.0448400617728239	1.687	n/a	stim	poldrack-single-stim	s601	False	1
44.384	2.576	46.96	-4.053472489539004	draw_card	2.576	columbia_card_task_fmri	15.0	0.75	89.0	-70.0	0.25	6.0	3.0	1.0	2.7558458763882285	2.576	n/a	stim	poldrack-single-stim	s601	False	1
46.962	3.308	50.27	-11.136805822872336	end_round	3.308	columbia_card_task_fmri	15.0	0.6666666666666667	71.0	-70.0	0.3333333333333333	6.0	4.0	1.0	6.013825696957007	3.308	3.0	stim	poldrack-single-stim	s601	False	1
51.023	1.5	50.272	n/a	-1.0	2.59	columbia_card_task_fmri	n/a	n/a	-1.0	n/a	n/a	n/a	n/a	n/a	n/a	n/a	n/a	ITI	poldrack-single-stim	s601	False	0
52.865	3.578	56.443	3.863194177127664	draw_card	3.578	columbia_card_task_fmri	17.0	0.8333333333333334	89.0	-75.0	0.1666666666666666	6.0	1.0	1.0	0.2409448029617635	3.578	1.0	stim	poldrack-single-stim	s601	False	0
57.196	1.5	56.445	n/a	-1.0	2.658	columbia_card_task_fmri	n/a	n/a	-1.0	n/a	n/a	n/a	n/a	n/a	n/a	n/a	n/a	ITI	poldrack-single-stim	s601	False	0
59.107	4.337	63.444	5.196527510460996	draw_card	4.337	columbia_card_task_fmri	24.0	0.75	89.0	-60.0	0.25	8.0	1.0	2.0	2.3236113408736188	4.337	n/a	stim	poldrack-single-stim	s601	False	1
63.446	0.526	63.972	2.1965275104609963	draw_card	0.526	columbia_card_task_fmri	24.0	0.7142857142857143	89.0	-60.0	0.2857142857142857	8.0	2.0	2.0	3.89513206111819	0.526	2.0	stim	poldrack-single-stim	s601	False	0
64.724	1.5	63.973	n/a	-1.0	2.386	columbia_card_task_fmri	n/a	n/a	-1.0	n/a	n/a	n/a	n/a	n/a	n/a	n/a	n/a	ITI	poldrack-single-stim	s601	False	0
66.362	3.678	70.04	5.196527510460996	draw_card	3.678	columbia_card_task_fmri	29.0	0.75	89.0	-75.0	0.25	8.0	1.0	2.0	10.971139512698002	3.678	n/a	stim	poldrack-single-stim	s601	False	1
70.041	0.693	70.734	1.4822417961752845	draw_card	0.693	columbia_card_task_fmri	29.0	0.7142857142857143	89.0	-75.0	0.2857142857142857	8.0	2.0	2.0	12.918010946320932	0.693	n/a	stim	poldrack-single-stim	s601	False	1
70.736	2.18	72.916	-3.470139156205668	draw_card	2.18	columbia_card_task_fmri	29.0	0.6666666666666667	89.0	-75.0	0.3333333333333333	8.0	3.0	2.0	14.959533143518833	2.18	3.0	stim	poldrack-single-stim	s601	False	0
73.671	1.5	72.92	n/a	-1.0	2.386	columbia_card_task_fmri	n/a	n/a	-1.0	n/a	n/a	n/a	n/a	n/a	n/a	n/a	n/a	ITI	poldrack-single-stim	s601	False	0
75.308	2.382	77.69	0.9743052882387766	draw_card	2.382	columbia_card_task_fmri	17.0	0.7777777777777778	89.0	-65.0	0.2222222222222222	9.0	1.0	2.0	0.0456280355735572	2.382	n/a	stim	poldrack-single-stim	s601	False	1
77.692	1.179	78.871	-1.3034724895390035	draw_card	1.179	columbia_card_task_fmri	17.0	0.75	89.0	-65.0	0.25	9.0	2.0	2.0	1.459199049190559	1.179	2.0	stim	poldrack-single-stim	s601	False	0
79.626	1.5	78.875	n/a	-1.0	2.25	columbia_card_task_fmri	n/a	n/a	-1.0	n/a	n/a	n/a	n/a	n/a	n/a	n/a	n/a	ITI	poldrack-single-stim	s601	False	0
81.127	2.387	83.514	5.296527510460996	draw_card	2.387	columbia_card_task_fmri	14.0	0.9	89.0	-95.0	0.1	10.0	1.0	1.0	-1.3420284938131817	2.387	n/a	stim	poldrack-single-stim	s601	False	1
83.517	1.727	85.244	4.085416399349883	draw_card	1.727	columbia_card_task_fmri	14.0	0.8888888888888888	89.0	-95.0	0.1111111111111111	10.0	2.0	1.0	0.210027762838493	1.727	n/a	stim	poldrack-single-stim	s601	False	1
85.245	1.349	86.594	2.5715275104609963	draw_card	1.349	columbia_card_task_fmri	14.0	0.875	89.0	-95.0	0.125	10.0	3.0	1.0	1.9995017543389155	1.349	n/a	stim	poldrack-single-stim	s601	False	1
86.597	1.759	88.356	0.6250989390324251	draw_card	1.759	columbia_card_task_fmri	14.0	0.8571428571428572	89.0	-95.0	0.1428571428571428	10.0	4.0	1.0	4.08953096980148	1.759	n/a	stim	poldrack-single-stim	s601	False	1
88.357	1.874	90.231	-1.970139156205668	draw_card	1.874	columbia_card_task_fmri	14.0	0.8333333333333334	89.0	-95.0	0.1666666666666666	10.0	5.0	1.0	6.565525964553224	1.874	n/a	stim	poldrack-single-stim	s601	False	1
90.233	2.628	92.861	-5.603472489539003	end_round	2.628	columbia_card_task_fmri	14.0	0.8	71.0	-95.0	0.2	10.0	6.0	1.0	9.539576304066358	2.628	5.0	stim	poldrack-single-stim	s601	False	1
93.617	1.5	92.866	n/a	-1.0	2.318	columbia_card_task_fmri	n/a	n/a	-1.0	n/a	n/a	n/a	n/a	n/a	n/a	n/a	n/a	ITI	poldrack-single-stim	s601	False	0
95.188	4.496	99.684	1.1965275104609965	draw_card	4.496	columbia_card_task_fmri	15.0	0.8	89.0	-65.0	0.2	10.0	1.0	2.0	-2.0404202765931814	4.496	n/a	stim	poldrack-single-stim	s601	False	1
99.686	3.935	103.621	-0.5812502673167805	end_round	3.935	columbia_card_task_fmri	15.0	0.7777777777777778	71.0	-65.0	0.2222222222222222	10.0	2.0	2.0	-0.7840879289018616	3.935	1.0	stim	poldrack-single-stim	s601	False	1
104.373	1.5	103.622	n/a	-1.0	2.25	columbia_card_task_fmri	n/a	n/a	-1.0	n/a	n/a	n/a	n/a	n/a	n/a	n/a	n/a	ITI	poldrack-single-stim	s601	False	0
105.876	4.501	110.377	2.7965275104609977	draw_card	4.501	columbia_card_task_fmri	17.0	0.8	89.0	-65.0	0.2	10.0	1.0	2.0	-1.2422526545308583	4.501	n/a	stim	poldrack-single-stim	s601	False	1
110.379	1.273	111.652	0.9743052882387766	draw_card	1.273	columbia_card_task_fmri	17.0	0.7777777777777778	89.0	-65.0	0.2222222222222222	10.0	2.0	2.0	0.0456280355735572	1.273	n/a	stim	poldrack-single-stim	s601	False	1
111.654	1.236	112.89	-1.3034724895390035	end_round	1.236	columbia_card_task_fmri	17.0	0.75	71.0	-65.0	0.25	10.0	3.0	2.0	1.459199049190559	1.236	2.0	stim	poldrack-single-stim	s601	False	1
113.643	1.5	112.892	n/a	-1.0	2.25	columbia_card_task_fmri	n/a	n/a	-1.0	n/a	n/a	n/a	n/a	n/a	n/a	n/a	n/a	ITI	poldrack-single-stim	s601	False	0
115.145	5.263	120.408	1.363194177127664	draw_card	5.263	columbia_card_task_fmri	13.0	0.8333333333333334	89.0	-70.0	0.1666666666666666	12.0	1.0	2.0	-3.105553861421697	5.263	n/a	stim	poldrack-single-stim	s601	False	1
120.411	3.099	123.51	0.1056184195519027	draw_card	3.099	columbia_card_task_fmri	13.0	0.8181818181818181	89.0	-70.0	0.1818181818181818	12.0	2.0	2.0	-2.027797509619297	3.099	n/a	stim	poldrack-single-stim	s601	False	1
123.512	2.306	125.818	-1.4034724895390034	draw_card	2.306	columbia_card_task_fmri	13.0	0.8	89.0	-70.0	0.2	12.0	3.0	2.0	-0.84313583830059	2.306	n/a	stim	poldrack-single-stim	s601	False	1
125.82	1.362	127.182	-3.2479169339834484	end_round	1.362	columbia_card_task_fmri	13.0	0.7777777777777778	71.0	-70.0	0.2222222222222222	12.0	4.0	2.0	0.4605177893906429	1.362	3.0	stim	poldrack-single-stim	s601	False	1
127.935	1.5	127.184	n/a	-1.0	2.386	columbia_card_task_fmri	n/a	n/a	-1.0	n/a	n/a	n/a	n/a	n/a	n/a	n/a	n/a	ITI	poldrack-single-stim	s601	False	0
129.572	4.566	134.138	1.363194177127664	end_round	4.566	columbia_card_task_fmri	15.0	0.8333333333333334	71.0	-80.0	0.1666666666666666	12.0	1.0	2.0	1.3567635217083804	4.566	0.0	stim	poldrack-single-stim	s601	False	1
134.895	1.5	134.144	n/a	-1.0	2.386	columbia_card_task_fmri	n/a	n/a	-1.0	n/a	n/a	n/a	n/a	n/a	n/a	n/a	n/a	ITI	poldrack-single-stim	s601	False	0
136.533	8.993	145.526	0.3965275104609973	end_round	8.993	columbia_card_task_fmri	14.0	0.8	71.0	-65.0	0.2	15.0	1.0	3.0	-2.439469419117032	8.993	0.0	stim	poldrack-single-stim	s601	False	1
146.279	1.5	145.528	n/a	-1.0	2.726	columbia_card_task_fmri	n/a	n/a	-1.0	n/a	n/a	n/a	n/a	n/a	n/a	n/a	n/a	ITI	poldrack-single-stim	s601	False	0
148.258	2.756	151.014	0.3215275104609962	draw_card	2.756	columbia_card_task_fmri	1.0	0.9375	89.0	-45.0	0.0625	16.0	1.0	1.0	-22.766308107904354	2.756	n/a	stim	poldrack-single-stim	s601	False	1
151.017	1.925	152.942	0.1298608437943298	draw_card	1.925	columbia_card_task_fmri	1.0	0.9333333333333332	89.0	-45.0	0.0666666666666666	16.0	2.0	1.0	-22.43295496949768	1.925	n/a	stim	poldrack-single-stim	s601	False	1
152.944	2.0	154.944	-0.0891867752532893	draw_card	2.0	columbia_card_task_fmri	1.0	0.9285714285714286	89.0	-45.0	0.0714285714285714	16.0	3.0	1.0	-22.06699738423326	2.0	n/a	stim	poldrack-single-stim	s601	False	1
154.946	2.705	157.651	-0.341934028000542	draw_card	2.705	columbia_card_task_fmri	1.0	0.9230769230769232	89.0	-45.0	0.0769230769230769	16.0	4.0	1.0	-21.662876946761763	2.705	n/a	stim	poldrack-single-stim	s601	False	1
157.653	1.385	159.038	-0.6368058228723372	draw_card	1.385	columbia_card_task_fmri	1.0	0.9166666666666666	89.0	-45.0	0.0833333333333333	16.0	5.0	1.0	-21.213639936789896	1.385	n/a	stim	poldrack-single-stim	s601	False	1
159.041	4.202	163.243	-0.9852906713571854	end_round	4.202	columbia_card_task_fmri	1.0	0.9090909090909092	71.0	-45.0	0.0909090909090909	16.0	6.0	1.0	-20.71046670149692	4.202	5.0	stim	poldrack-single-stim	s601	False	1
163.996	1.5	163.245	n/a	-1.0	2.454	columbia_card_task_fmri	n/a	n/a	-1.0	n/a	n/a	n/a	n/a	n/a	n/a	n/a	n/a	ITI	poldrack-single-stim	s601	False	0
165.703	4.201	169.904	1.2590275104609965	draw_card	4.201	columbia_card_task_fmri	15.0	0.8125	89.0	-70.0	0.1875	16.0	1.0	3.0	-0.8665327849658482	4.201	n/a	stim	poldrack-single-stim	s601	False	1
169.907	2.019	171.926	0.1965275104609962	draw_card	2.019	columbia_card_task_fmri	15.0	0.8	89.0	-70.0	0.2	16.0	2.0	3.0	-0.0448400617728239	2.019	n/a	stim	poldrack-single-stim	s601	False	1
171.929	2.633	174.562	-1.017758203824719	draw_card	2.633	columbia_card_task_fmri	15.0	0.7857142857142857	89.0	-70.0	0.2142857142857142	16.0	3.0	3.0	0.8310816369745098	2.633	n/a	stim	poldrack-single-stim	s601	False	1
174.565	1.948	176.513	-2.4188571049236205	draw_card	1.948	columbia_card_task_fmri	15.0	0.7692307692307692	89.0	-70.0	0.2307692307692307	16.0	4.0	3.0	1.7642081658781947	1.948	n/a	stim	poldrack-single-stim	s601	False	1
176.516	2.312	178.828	-4.053472489539004	draw_card	2.312	columbia_card_task_fmri	15.0	0.75	89.0	-70.0	0.25	16.0	5.0	3.0	2.7558458763882285	2.312	n/a	stim	poldrack-single-stim	s601	False	1
178.831	2.236	181.067	-5.985290671357184	end_round	2.236	columbia_card_task_fmri	15.0	0.7272727272727273	71.0	-70.0	0.2727272727272727	16.0	6.0	3.0	3.803704116302093	2.236	5.0	stim	poldrack-single-stim	s601	False	1
181.822	1.5	181.071	n/a	-1.0	2.318	columbia_card_task_fmri	n/a	n/a	-1.0	n/a	n/a	n/a	n/a	n/a	n/a	n/a	n/a	ITI	poldrack-single-stim	s601	False	0
183.392	6.072	189.464	8.196527510460996	end_round	6.072	columbia_card_task_fmri	30.0	0.7	71.0	-50.0	0.3	10.0	1.0	3.0	2.6106311614888185	6.072	0.0	stim	poldrack-single-stim	s601	False	1
190.218	1.5	189.467	n/a	-1.0	2.318	columbia_card_task_fmri	n/a	n/a	-1.0	n/a	n/a	n/a	n/a	n/a	n/a	n/a	n/a	ITI	poldrack-single-stim	s601	False	0
191.788	2.765	194.553	7.596527510460996	draw_card	2.765	columbia_card_task_fmri	17.0	0.8666666666666667	89.0	-70.0	0.1333333333333333	15.0	1.0	2.0	-4.459947486851405	2.765	n/a	stim	poldrack-single-stim	s601	False	1
194.556	1.082	195.638	6.767956081889569	draw_card	1.082	columbia_card_task_fmri	17.0	0.8571428571428572	89.0	-70.0	0.1428571428571428	15.0	2.0	2.0	-3.592922403687531	1.082	n/a	stim	poldrack-single-stim	s601	False	1
195.641	3.067	198.708	5.811912125845611	draw_card	3.067	columbia_card_task_fmri	17.0	0.8461538461538461	89.0	-70.0	0.1538461538461538	15.0	3.0	2.0	-2.649254365130016	3.067	n/a	stim	poldrack-single-stim	s601	False	1
198.711	2.33	201.041	4.696527510460998	draw_card	2.33	columbia_card_task_fmri	17.0	0.8333333333333334	89.0	-70.0	0.1666666666666666	15.0	4.0	2.0	-1.6184146668617316	2.33	n/a	stim	poldrack-single-stim	s601	False	1
201.043	2.329	203.372	3.378345692279176	draw_card	2.329	columbia_card_task_fmri	17.0	0.8181818181818181	89.0	-70.0	0.1818181818181818	15.0	5.0	2.0	-0.4884721158121223	2.329	n/a	stim	poldrack-single-stim	s601	False	1
203.376	0.956	204.332	1.7965275104609977	end_round	0.956	columbia_card_task_fmri	17.0	0.8	71.0	-70.0	0.2	15.0	6.0	2.0	0.7535338310343178	0.956	5.0	stim	poldrack-single-stim	s601	False	1
205.087	1.5	204.336	n/a	-1.0	2.59	columbia_card_task_fmri	n/a	n/a	-1.0	n/a	n/a	n/a	n/a	n/a	n/a	n/a	n/a	ITI	poldrack-single-stim	s601	False	0
206.929	2.519	209.448	2.8215275104609963	end_round	2.519	columbia_card_task_fmri	7.0	0.9375	71.0	-95.0	0.0625	16.0	1.0	1.0	-9.327936713579875	2.519	0.0	stim	poldrack-single-stim	s601	False	1
210.203	1.5	209.452	n/a	-1.0	2.726	columbia_card_task_fmri	n/a	n/a	-1.0	n/a	n/a	n/a	n/a	n/a	n/a	n/a	n/a	ITI	poldrack-single-stim	s601	False	0
212.182	2.77	214.952	4.384027510460996	end_round	2.77	columbia_card_task_fmri	9.0	0.9375	71.0	-100.0	0.0625	16.0	1.0	1.0	-7.639746452640228	2.77	0.0	stim	poldrack-single-stim	s601	False	1
215.705	1.5	214.954	n/a	-1.0	2.522	columbia_card_task_fmri	n/a	n/a	-1.0	n/a	n/a	n/a	n/a	n/a	n/a	n/a	n/a	ITI	poldrack-single-stim	s601	False	0
217.479	3.715	221.194	5.321527510460996	draw_card	3.715	columbia_card_task_fmri	15.0	0.875	89.0	-80.0	0.125	16.0	1.0	2.0	-2.620732697430256	3.715	n/a	stim	poldrack-single-stim	s601	False	1
221.198	1.828	223.026	4.52986084379433	draw_card	1.828	columbia_card_task_fmri	15.0	0.8666666666666667	89.0	-80.0	0.1333333333333333	16.0	2.0	2.0	-1.7473134540342985	1.828	n/a	stim	poldrack-single-stim	s601	False	1
223.029	1.615	224.644	3.625098939032427	draw_card	1.615	columbia_card_task_fmri	15.0	0.8571428571428572	89.0	-80.0	0.1428571428571428	16.0	3.0	2.0	-0.8001546022241044	1.615	n/a	stim	poldrack-single-stim	s601	False	1
224.646	1.531	226.177	2.5811428950763795	end_round	1.531	columbia_card_task_fmri	15.0	0.8461538461538461	71.0	-80.0	0.1538461538461538	16.0	4.0	2.0	0.2307053132020584	1.531	3.0	stim	poldrack-single-stim	s601	False	1
226.933	1.5	226.182	n/a	-1.0	3.134	columbia_card_task_fmri	n/a	n/a	-1.0	n/a	n/a	n/a	n/a	n/a	n/a	n/a	n/a	ITI	poldrack-single-stim	s601	False	0
229.321	2.42	231.741	7.446527510460996	draw_card	2.42	columbia_card_task_fmri	16.0	0.875	89.0	-70.0	0.125	16.0	1.0	2.0	-5.589200072859498	2.42	n/a	stim	poldrack-single-stim	s601	False	1
231.744	1.134	232.878	6.729860843794329	draw_card	1.134	columbia_card_task_fmri	16.0	0.8666666666666667	89.0	-70.0	0.1333333333333333	16.0	2.0	2.0	-4.798937588209153	1.134	2.0	stim	poldrack-single-stim	s601	False	0
233.633	1.5	232.882	n/a	-1.0	2.386	columbia_card_task_fmri	n/a	n/a	-1.0	n/a	n/a	n/a	n/a	n/a	n/a	n/a	n/a	ITI	poldrack-single-stim	s601	False	0
235.273	8.749	244.022	8.759027510460996	draw_card	8.749	columbia_card_task_fmri	30.0	0.6875	89.0	-45.0	0.3125	16.0	1.0	5.0	0.7170369443967743	8.749	n/a	stim	poldrack-single-stim	s601	False	1
244.025	1.508	245.533	7.196527510460999	draw_card	1.508	columbia_card_task_fmri	30.0	0.6666666666666667	89.0	-45.0	0.3333333333333333	16.0	2.0	5.0	1.3077872345127517	1.508	n/a	stim	poldrack-single-stim	s601	False	1
245.536	0.807	246.343	5.410813224746708	end_round	0.807	columbia_card_task_fmri	30.0	0.6428571428571428	71.0	-45.0	0.3571428571428571	16.0	3.0	5.0	1.8881540774348409	0.807	2.0	stim	poldrack-single-stim	s601	False	1
247.101	1.5	246.35	n/a	-1.0	2.386	columbia_card_task_fmri	n/a	n/a	-1.0	n/a	n/a	n/a	n/a	n/a	n/a	n/a	n/a	ITI	poldrack-single-stim	s601	False	0
248.739	4.155	252.894	0.5298608437943302	draw_card	4.155	columbia_card_task_fmri	13.0	0.8333333333333334	89.0	-75.0	0.1666666666666666	6.0	1.0	1.0	-1.246579292444281	4.155	n/a	stim	poldrack-single-stim	s601	False	1
252.897	1.361	254.258	-2.4034724895390034	draw_card	1.361	columbia_card_task_fmri	13.0	0.8	89.0	-75.0	0.2	6.0	2.0	1.0	1.1527484132612995	1.361	n/a	stim	poldrack-single-stim	s601	False	1
254.26	1.562	255.822	-6.803472489539004	draw_card	1.562	columbia_card_task_fmri	13.0	0.75	89.0	-75.0	0.25	6.0	3.0	1.0	4.052655325625494	1.562	n/a	stim	poldrack-single-stim	s601	False	1
255.824	0.484	256.308	-14.136805822872336	end_round	0.484	columbia_card_task_fmri	13.0	0.6666666666666667	71.0	-75.0	0.3333333333333333	6.0	4.0	1.0	7.425991284290134	0.484	3.0	stim	poldrack-single-stim	s601	False	1
257.062	1.5	256.311	n/a	-1.0	2.318	columbia_card_task_fmri	n/a	n/a	-1.0	n/a	n/a	n/a	n/a	n/a	n/a	n/a	n/a	ITI	poldrack-single-stim	s601	False	0
258.633	4.574	263.207	2.196527510460998	draw_card	4.574	columbia_card_task_fmri	14.0	0.8333333333333334	89.0	-70.0	0.1666666666666666	6.0	1.0	1.0	-2.733800846310711	4.574	n/a	stim	poldrack-single-stim	s601	False	1
263.208	1.056	264.264	-0.6034724895390027	draw_card	1.056	columbia_card_task_fmri	14.0	0.8	89.0	-70.0	0.2	6.0	2.0	1.0	-0.4439980618336463	1.056	n/a	stim	poldrack-single-stim	s601	False	1
264.267	0.846	265.113	-4.803472489539004	draw_card	0.846	columbia_card_task_fmri	14.0	0.75	89.0	-70.0	0.25	6.0	3.0	1.0	2.3236113408736188	0.846	n/a	stim	poldrack-single-stim	s601	False	1
265.116	0.618	265.734	-11.803472489539002	end_round	0.618	columbia_card_task_fmri	14.0	0.6666666666666667	71.0	-70.0	0.3333333333333333	6.0	4.0	1.0	5.543136268666956	0.618	3.0	stim	poldrack-single-stim	s601	False	1
266.486	1.5	265.735	n/a	-1.0	2.318	columbia_card_task_fmri	n/a	n/a	-1.0	n/a	n/a	n/a	n/a	n/a	n/a	n/a	n/a	ITI	poldrack-single-stim	s601	False	0
268.057	3.38	271.437	2.196527510460998	draw_card	3.38	columbia_card_task_fmri	16.0	0.8333333333333334	89.0	-80.0	0.1666666666666666	6.0	1.0	1.0	1.7287337740286333	3.38	n/a	stim	poldrack-single-stim	s601	False	1
271.439	1.049	272.488	-1.003472489539003	draw_card	1.049	columbia_card_task_fmri	16.0	0.8	89.0	-80.0	0.2	6.0	2.0	1.0	4.347052600168325	1.049	n/a	stim	poldrack-single-stim	s601	False	1
272.49	1.462	273.952	-5.803472489539004	draw_card	1.462	columbia_card_task_fmri	16.0	0.75	89.0	-80.0	0.25	6.0	3.0	1.0	7.511493308799444	1.462	n/a	stim	poldrack-single-stim	s601	False	1
273.956	1.572	275.528	-13.803472489539	end_round	1.572	columbia_card_task_fmri	16.0	0.6666666666666667	71.0	-80.0	0.3333333333333333	6.0	4.0	1.0	11.192390769930403	1.572	3.0	stim	poldrack-single-stim	s601	False	1
276.285	1.5	275.534	n/a	-1.0	2.862	columbia_card_task_fmri	n/a	n/a	-1.0	n/a	n/a	n/a	n/a	n/a	n/a	n/a	n/a	ITI	poldrack-single-stim	s601	False	0
278.4	3.2	281.6	4.696527510460998	draw_card	3.2	columbia_card_task_fmri	17.0	0.8333333333333334	89.0	-70.0	0.1666666666666666	6.0	1.0	1.0	-1.6184146668617316	3.2	1.0	stim	poldrack-single-stim	s601	False	0
282.356	1.5	281.605	n/a	-1.0	2.726	columbia_card_task_fmri	n/a	n/a	-1.0	n/a	n/a	n/a	n/a	n/a	n/a	n/a	n/a	ITI	poldrack-single-stim	s601	False	0
284.334	2.291	286.625	4.696527510460996	draw_card	2.291	columbia_card_task_fmri	25.0	0.75	89.0	-65.0	0.25	8.0	1.0	2.0	4.917277299875778	2.291	n/a	stim	poldrack-single-stim	s601	False	1
286.63	0.694	287.324	1.4822417961752845	draw_card	0.694	columbia_card_task_fmri	25.0	0.7142857142857143	89.0	-65.0	0.2857142857142857	8.0	2.0	2.0	6.601427603471102	0.694	n/a	stim	poldrack-single-stim	s601	False	1
287.33	0.514	287.844	-2.803472489539	draw_card	0.514	columbia_card_task_fmri	25.0	0.6666666666666667	89.0	-65.0	0.3333333333333333	8.0	3.0	2.0	8.367510703874132	0.514	3.0	stim	poldrack-single-stim	s601	False	0
288.599	1.5	287.848	n/a	-1.0	2.25	columbia_card_task_fmri	n/a	n/a	-1.0	n/a	n/a	n/a	n/a	n/a	n/a	n/a	n/a	ITI	poldrack-single-stim	s601	False	0
290.101	2.588	292.689	4.696527510460996	draw_card	2.588	columbia_card_task_fmri	30.0	0.75	89.0	-80.0	0.25	8.0	1.0	2.0	13.566298732069768	2.588	n/a	stim	poldrack-single-stim	s601	False	1
292.691	0.994	293.685	0.7679560818895728	draw_card	0.994	columbia_card_task_fmri	30.0	0.7142857142857143	89.0	-80.0	0.2857142857142857	8.0	2.0	2.0	15.625738293093946	0.994	n/a	stim	poldrack-single-stim	s601	False	1
293.688	1.264	294.952	-4.470139156205665	draw_card	1.264	columbia_card_task_fmri	30.0	0.6666666666666667	89.0	-80.0	0.3333333333333333	8.0	3.0	2.0	17.785280134281614	1.264	n/a	stim	poldrack-single-stim	s601	False	1
294.955	1.137	296.092	-11.803472489539004	draw_card	1.137	columbia_card_task_fmri	30.0	0.6	89.0	-80.0	0.4	8.0	4.0	2.0	19.817803281961268	1.137	n/a	stim	poldrack-single-stim	s601	False	1
296.096	1.652	297.748	-22.803472489539004	draw_card	1.652	columbia_card_task_fmri	30.0	0.5	89.0	-80.0	0.5	8.0	5.0	2.0	20.92812559361346	1.652	n/a	stim	poldrack-single-stim	s601	False	1
297.75	2.657	300.407	-41.13680582287233	end_round	2.657	columbia_card_task_fmri	30.0	0.3333333333333333	71.0	-80.0	0.6666666666666666	8.0	6.0	2.0	17.785280134281614	2.657	5.0	stim	poldrack-single-stim	s601	False	1
301.16	1.5	300.409	n/a	-1.0	2.318	columbia_card_task_fmri	n/a	n/a	-1.0	n/a	n/a	n/a	n/a	n/a	n/a	n/a	n/a	ITI	poldrack-single-stim	s601	False	0
302.73	2.329	305.059	4.396527510460997	end_round	2.329	columbia_card_task_fmri	13.0	0.9	71.0	-95.0	0.1	10.0	1.0	1.0	-1.6413477377073633	2.329	0.0	stim	poldrack-single-stim	s601	False	1
305.814	1.5	305.063	n/a	-1.0	2.454	columbia_card_task_fmri	n/a	n/a	-1.0	n/a	n/a	n/a	n/a	n/a	n/a	n/a	n/a	ITI	poldrack-single-stim	s601	False	0
307.521	1.611	309.132	5.796527510460996	end_round	1.611	columbia_card_task_fmri	14.0	0.9	71.0	-90.0	0.1	10.0	1.0	1.0	-2.8384942697744115	1.611	0.0	stim	poldrack-single-stim	s601	False	1
309.888	1.5	309.137	n/a	-1.0	2.522	columbia_card_task_fmri	n/a	n/a	-1.0	n/a	n/a	n/a	n/a	n/a	n/a	n/a	n/a	ITI	poldrack-single-stim	s601	False	0
311.664	2.98	314.644	0.996527510460997	draw_card	2.98	columbia_card_task_fmri	16.0	0.8	89.0	-70.0	0.2	10.0	1.0	2.0	0.3543374593234603	2.98	n/a	stim	poldrack-single-stim	s601	False	1
314.648	0.499	315.147	-0.9145836006501143	draw_card	0.499	columbia_card_task_fmri	16.0	0.7777777777777778	89.0	-70.0	0.2222222222222222	10.0	2.0	2.0	1.7053053053384772	0.499	n/a	stim	poldrack-single-stim	s601	False	1
315.15	0.721	315.871	-3.303472489539004	draw_card	0.721	columbia_card_task_fmri	16.0	0.75	89.0	-70.0	0.25	10.0	3.0	2.0	3.188098461167833	0.721	3.0	stim	poldrack-single-stim	s601	False	0
316.626	1.5	315.875	n/a	-1.0	2.318	columbia_card_task_fmri	n/a	n/a	-1.0	n/a	n/a	n/a	n/a	n/a	n/a	n/a	n/a	ITI	poldrack-single-stim	s601	False	0
318.198	2.963	321.161	0.2798608437943302	end_round	2.963	columbia_card_task_fmri	7.0	0.9166666666666666	71.0	-100.0	0.0833333333333333	12.0	1.0	1.0	-4.461019997529544	2.963	0.0	stim	poldrack-single-stim	s601	False	1
321.916	1.5	321.165	n/a	-1.0	2.522	columbia_card_task_fmri	n/a	n/a	-1.0	n/a	n/a	n/a	n/a	n/a	n/a	n/a	n/a	ITI	poldrack-single-stim	s601	False	0
323.691	2.115	325.806	0.529860843794332	draw_card	2.115	columbia_card_task_fmri	14.0	0.8333333333333334	89.0	-80.0	0.1666666666666666	12.0	1.0	2.0	0.984808283988876	2.115	1.0	stim	poldrack-single-stim	s601	False	0
326.56	1.5	325.809	n/a	-1.0	2.998	columbia_card_task_fmri	n/a	n/a	-1.0	n/a	n/a	n/a	n/a	n/a	n/a	n/a	n/a	ITI	poldrack-single-stim	s601	False	0
328.811	2.032	330.843	2.1965275104609963	draw_card	2.032	columbia_card_task_fmri	15.0	0.8333333333333334	89.0	-75.0	0.1666666666666666	12.0	1.0	2.0	-0.5028525522145131	2.032	n/a	stim	poldrack-single-stim	s601	False	1
330.847	0.926	331.773	0.8328911468246312	draw_card	0.926	columbia_card_task_fmri	15.0	0.8181818181818181	89.0	-75.0	0.1818181818181818	12.0	2.0	2.0	0.666222730308597	0.926	n/a	stim	poldrack-single-stim	s601	False	1
331.777	1.522	333.299	-0.8034724895390037	draw_card	1.522	columbia_card_task_fmri	15.0	0.8	89.0	-75.0	0.2	12.0	3.0	2.0	1.951229790433075	1.522	n/a	stim	poldrack-single-stim	s601	False	1
333.303	0.877	334.18	-2.803472489539002	draw_card	0.877	columbia_card_task_fmri	15.0	0.7777777777777778	89.0	-75.0	0.2222222222222222	12.0	4.0	2.0	3.365273482596301	0.877	n/a	stim	poldrack-single-stim	s601	False	1
334.183	1.184	335.367	-5.303472489539004	draw_card	1.184	columbia_card_task_fmri	15.0	0.75	89.0	-75.0	0.25	12.0	5.0	2.0	4.917277299875778	1.184	5.0	stim	poldrack-single-stim	s601	False	0
336.122	1.5	335.371	n/a	-1.0	2.318	columbia_card_task_fmri	n/a	n/a	-1.0	n/a	n/a	n/a	n/a	n/a	n/a	n/a	n/a	ITI	poldrack-single-stim	s601	False	0
337.693	3.095	340.788	1.1965275104609965	draw_card	3.095	columbia_card_task_fmri	15.0	0.8	89.0	-65.0	0.2	15.0	1.0	3.0	-2.0404202765931814	3.095	n/a	stim	poldrack-single-stim	s601	False	1
340.792	2.019	342.811	0.0536703676038539	draw_card	2.019	columbia_card_task_fmri	15.0	0.7857142857142857	89.0	-65.0	0.2142857142857142	15.0	2.0	3.0	-1.2162386086695631	2.019	n/a	stim	poldrack-single-stim	s601	False	1
342.814	0.981	343.795	-1.2650109510774672	draw_card	0.981	columbia_card_task_fmri	15.0	0.7692307692307692	89.0	-65.0	0.2307692307692307	15.0	3.0	3.0	-0.3382196006121702	0.981	n/a	stim	poldrack-single-stim	s601	False	1
343.799	0.886	344.685	-2.803472489539004	draw_card	0.886	columbia_card_task_fmri	15.0	0.75	89.0	-65.0	0.25	15.0	4.0	3.0	0.5948671765841382	0.886	4.0	stim	poldrack-single-stim	s601	False	0
345.442	1.5	344.691	n/a	-1.0	2.25	columbia_card_task_fmri	n/a	n/a	-1.0	n/a	n/a	n/a	n/a	n/a	n/a	n/a	n/a	ITI	poldrack-single-stim	s601	False	0
346.946	6.318	353.264	0.4465275104609962	draw_card	6.318	columbia_card_task_fmri	14.0	0.8125	89.0	-70.0	0.1875	16.0	1.0	3.0	-1.2559823981477225	6.318	n/a	stim	poldrack-single-stim	s601	False	1
353.266	0.53	353.796	-0.6034724895390027	draw_card	0.53	columbia_card_task_fmri	14.0	0.8	89.0	-70.0	0.2	16.0	2.0	3.0	-0.4439980618336463	0.53	n/a	stim	poldrack-single-stim	s601	False	1
353.8	0.553	354.353	-1.803472489539004	end_round	0.553	columbia_card_task_fmri	14.0	0.7857142857142857	71.0	-70.0	0.2142857142857142	16.0	3.0	3.0	0.4215766732925914	0.553	2.0	stim	poldrack-single-stim	s601	False	1
355.107	1.5	354.356	n/a	-1.0	2.454	columbia_card_task_fmri	n/a	n/a	-1.0	n/a	n/a	n/a	n/a	n/a	n/a	n/a	n/a	ITI	poldrack-single-stim	s601	False	0
356.814	3.052	359.866	0.3840275104609962	end_round	3.052	columbia_card_task_fmri	11.0	0.6875	71.0	-30.0	0.3125	16.0	1.0	5.0	-14.985190786899526	3.052	0.0	stim	poldrack-single-stim	s601	False	1
360.622	1.5	359.871	n/a	-1.0	2.318	columbia_card_task_fmri	n/a	n/a	-1.0	n/a	n/a	n/a	n/a	n/a	n/a	n/a	n/a	ITI	poldrack-single-stim	s601	False	0
362.193	3.004	365.197	5.196527510460996	draw_card	3.004	columbia_card_task_fmri	15.0	0.8666666666666667	89.0	-75.0	0.1333333333333333	15.0	1.0	2.0	-3.442851742650081	3.004	n/a	stim	poldrack-single-stim	s601	False	1
365.2	0.666	365.866	4.33938465331814	draw_card	0.666	columbia_card_task_fmri	15.0	0.8571428571428572	89.0	-75.0	0.1428571428571428	15.0	2.0	2.0	-2.545772499860302	0.666	n/a	stim	poldrack-single-stim	s601	False	1
365.87	1.081	366.951	3.3503736643071496	draw_card	1.081	columbia_card_task_fmri	15.0	0.8461538461538461	89.0	-75.0	0.1538461538461538	15.0	3.0	2.0	-1.569403404724504	1.081	n/a	stim	poldrack-single-stim	s601	False	1
366.955	0.963	367.918	2.1965275104609963	draw_card	0.963	columbia_card_task_fmri	15.0	0.8333333333333334	89.0	-75.0	0.1666666666666666	15.0	4.0	2.0	-0.5028525522145131	0.963	n/a	stim	poldrack-single-stim	s601	False	1
367.922	0.777	368.699	0.8328911468246312	end_round	0.777	columbia_card_task_fmri	15.0	0.8181818181818181	71.0	-75.0	0.1818181818181818	15.0	5.0	2.0	0.666222730308597	0.777	4.0	stim	poldrack-single-stim	s601	False	1
369.455	1.5	368.704	n/a	-1.0	2.318	columbia_card_task_fmri	n/a	n/a	-1.0	n/a	n/a	n/a	n/a	n/a	n/a	n/a	n/a	ITI	poldrack-single-stim	s601	False	0
371.027	2.992	374.019	6.92986084379433	draw_card	2.992	columbia_card_task_fmri	17.0	0.8666666666666667	89.0	-75.0	0.1333333333333333	15.0	1.0	2.0	-2.764690162431989	2.992	1.0	stim	poldrack-single-stim	s601	False	0
374.772	1.5	374.021	n/a	-1.0	2.59	columbia_card_task_fmri	n/a	n/a	-1.0	n/a	n/a	n/a	n/a	n/a	n/a	n/a	n/a	ITI	poldrack-single-stim	s601	False	0
376.615	5.88	382.495	2.5090275104609963	end_round	5.88	columbia_card_task_fmri	2.0	0.9375	71.0	-25.0	0.0625	16.0	1.0	1.0	-27.22082315621253	5.88	0.0	stim	poldrack-single-stim	s601	False	1
383.251	1.5	382.5	n/a	-1.0	2.25	columbia_card_task_fmri	n/a	n/a	-1.0	n/a	n/a	n/a	n/a	n/a	n/a	n/a	n/a	ITI	poldrack-single-stim	s601	False	0
384.755	3.012	387.767	4.696527510460996	end_round	3.012	columbia_card_task_fmri	9.0	0.9375	71.0	-95.0	0.0625	16.0	1.0	1.0	-8.845681870876707	3.012	0.0	stim	poldrack-single-stim	s601	False	1
388.525	1.5	387.774	n/a	-1.0	2.25	columbia_card_task_fmri	n/a	n/a	-1.0	n/a	n/a	n/a	n/a	n/a	n/a	n/a	n/a	ITI	poldrack-single-stim	s601	False	0
390.028	1.407	391.435	6.259027510460996	end_round	1.407	columbia_card_task_fmri	11.0	0.9375	71.0	-100.0	0.0625	16.0	1.0	1.0	-7.1572625687195135	1.407	0.0	stim	poldrack-single-stim	s601	False	1
392.189	1.5	391.438	n/a	-1.0	2.522	columbia_card_task_fmri	n/a	n/a	-1.0	n/a	n/a	n/a	n/a	n/a	n/a	n/a	n/a	ITI	poldrack-single-stim	s601	False	0
393.965	3.459	397.424	6.821527510460996	draw_card	3.459	columbia_card_task_fmri	16.0	0.875	89.0	-75.0	0.125	16.0	1.0	2.0	-3.9402461796331383	3.459	n/a	stim	poldrack-single-stim	s601	False	1
397.427	2.086	399.513	6.063194177127663	draw_card	2.086	columbia_card_task_fmri	16.0	0.8666666666666667	89.0	-75.0	0.1333333333333333	16.0	2.0	2.0	-3.103780300122768	2.086	n/a	stim	poldrack-single-stim	s601	False	1
399.515	1.995	401.51	5.196527510460998	draw_card	1.995	columbia_card_task_fmri	16.0	0.8571428571428572	89.0	-75.0	0.1428571428571428	16.0	3.0	2.0	-2.1966841159783854	1.995	n/a	stim	poldrack-single-stim	s601	False	1
401.514	3.456	404.97	4.196527510460996	draw_card	3.456	columbia_card_task_fmri	16.0	0.8461538461538461	89.0	-75.0	0.1538461538461538	16.0	4.0	2.0	-1.2094158101384591	3.456	n/a	stim	poldrack-single-stim	s601	False	1
404.974	3.092	408.066	3.02986084379433	draw_card	3.092	columbia_card_task_fmri	16.0	0.8333333333333334	89.0	-75.0	0.1666666666666666	16.0	5.0	2.0	-0.1309624117250223	3.092	5.0	stim	poldrack-single-stim	s601	False	0
408.823	1.5	408.072	n/a	-1.0	2.454	columbia_card_task_fmri	n/a	n/a	-1.0	n/a	n/a	n/a	n/a	n/a	n/a	n/a	n/a	ITI	poldrack-single-stim	s601	False	0
410.531	4.589	415.12	7.071527510460996	draw_card	4.589	columbia_card_task_fmri	17.0	0.875	89.0	-80.0	0.125	16.0	1.0	2.0	-1.960872346153053	4.589	n/a	stim	poldrack-single-stim	s601	False	1
415.124	0.743	415.867	6.263194177127664	draw_card	0.743	columbia_card_task_fmri	17.0	0.8666666666666667	89.0	-80.0	0.1333333333333333	16.0	2.0	2.0	-1.068979189747559	0.743	n/a	stim	poldrack-single-stim	s601	False	1
415.871	1.531	417.402	5.339384653318142	draw_card	1.531	columbia_card_task_fmri	17.0	0.8571428571428572	89.0	-80.0	0.1428571428571428	16.0	3.0	2.0	-0.1017918450079591	1.531	n/a	stim	poldrack-single-stim	s601	False	1
417.406	1.419	418.825	4.2734505873840725	draw_card	1.419	columbia_card_task_fmri	17.0	0.8461538461538461	89.0	-80.0	0.1538461538461538	16.0	4.0	2.0	0.950860958985288	1.419	n/a	stim	poldrack-single-stim	s601	False	1
418.829	1.243	420.072	3.029860843794332	draw_card	1.243	columbia_card_task_fmri	17.0	0.8333333333333334	89.0	-80.0	0.1666666666666666	16.0	5.0	2.0	2.100718578315657	1.243	n/a	stim	poldrack-single-stim	s601	False	1
420.076	2.36	422.436	1.5601638740973578	draw_card	2.36	columbia_card_task_fmri	17.0	0.8181818181818181	89.0	-80.0	0.1818181818181818	16.0	6.0	2.0	3.361083797016548	2.36	n/a	stim	poldrack-single-stim	s601	False	1
422.442	1.185	423.627	-0.2034724895390023	end_round	1.185	columbia_card_task_fmri	17.0	0.8	71.0	-80.0	0.2	16.0	7.0	2.0	4.746406518975846	1.185	6.0	stim	poldrack-single-stim	s601	False	1
424.382	1.5	423.631	n/a	-1.0	2.25	columbia_card_task_fmri	n/a	n/a	-1.0	n/a	n/a	n/a	n/a	n/a	n/a	n/a	n/a	ITI	poldrack-single-stim	s601	False	0
436.888	3.429	440.317	1.363194177127664	draw_card	3.429	columbia_card_task_fmri	13.0	0.8333333333333334	89.0	-70.0	0.1666666666666666	6.0	1.0	1.0	-3.105553861421697	3.429	n/a	stim	poldrack-single-stim	s601	False	1
440.32	0.967	441.287	-1.4034724895390034	draw_card	0.967	columbia_card_task_fmri	13.0	0.8	89.0	-70.0	0.2	6.0	2.0	1.0	-0.84313583830059	0.967	n/a	stim	poldrack-single-stim	s601	False	1
441.291	1.329	442.62	-5.553472489539004	draw_card	1.329	columbia_card_task_fmri	13.0	0.75	89.0	-70.0	0.25	6.0	3.0	1.0	1.8913955046218904	1.329	n/a	stim	poldrack-single-stim	s601	False	1
442.624	1.564	444.188	-12.470139156205668	end_round	1.564	columbia_card_task_fmri	13.0	0.6666666666666667	71.0	-70.0	0.3333333333333333	6.0	4.0	1.0	5.072464031387774	1.564	3.0	stim	poldrack-single-stim	s601	False	1
444.942	1.5	444.191	n/a	-1.0	2.454	columbia_card_task_fmri	n/a	n/a	-1.0	n/a	n/a	n/a	n/a	n/a	n/a	n/a	n/a	ITI	poldrack-single-stim	s601	False	0
446.65	4.307	450.957	1.363194177127664	draw_card	4.307	columbia_card_task_fmri	15.0	0.8333333333333334	89.0	-80.0	0.1666666666666666	6.0	1.0	1.0	1.3567635217083804	4.307	n/a	stim	poldrack-single-stim	s601	False	1
450.96	1.977	452.937	-1.803472489539004	draw_card	1.977	columbia_card_task_fmri	15.0	0.8	89.0	-80.0	0.2	6.0	2.0	1.0	3.947712249439661	1.977	n/a	stim	poldrack-single-stim	s601	False	1
452.941	1.049	453.99	-6.553472489539004	end_round	1.049	columbia_card_task_fmri	15.0	0.75	71.0	-80.0	0.25	6.0	3.0	1.0	7.079090185857154	1.049	2.0	stim	poldrack-single-stim	s601	False	1
454.745	1.5	453.994	n/a	-1.0	2.454	columbia_card_task_fmri	n/a	n/a	-1.0	n/a	n/a	n/a	n/a	n/a	n/a	n/a	n/a	ITI	poldrack-single-stim	s601	False	0
456.451	2.538	458.989	3.02986084379433	draw_card	2.538	columbia_card_task_fmri	16.0	0.8333333333333334	89.0	-75.0	0.1666666666666666	6.0	1.0	1.0	-0.1309624117250223	2.538	n/a	stim	poldrack-single-stim	s601	False	1
458.994	2.524	461.518	-0.003472489539003	draw_card	2.524	columbia_card_task_fmri	16.0	0.8	89.0	-75.0	0.2	6.0	2.0	1.0	2.350495442103643	2.524	2.0	stim	poldrack-single-stim	s601	False	0
462.272	1.5	461.521	n/a	-1.0	2.522	columbia_card_task_fmri	n/a	n/a	-1.0	n/a	n/a	n/a	n/a	n/a	n/a	n/a	n/a	ITI	poldrack-single-stim	s601	False	0
464.047	2.33	466.377	4.196527510460996	draw_card	2.33	columbia_card_task_fmri	21.0	0.75	89.0	-55.0	0.25	8.0	1.0	2.0	-1.133530022410433	2.33	n/a	stim	poldrack-single-stim	s601	False	1
466.381	2.442	468.823	1.4822417961752827	draw_card	2.442	columbia_card_task_fmri	21.0	0.7142857142857143	89.0	-55.0	0.2857142857142857	8.0	2.0	2.0	0.2877735901237628	2.442	2.0	stim	poldrack-single-stim	s601	False	0
469.577	1.5	468.826	n/a	-1.0	2.454	columbia_card_task_fmri	n/a	n/a	-1.0	n/a	n/a	n/a	n/a	n/a	n/a	n/a	n/a	ITI	poldrack-single-stim	s601	False	0
471.286	2.337	473.623	5.446527510460996	draw_card	2.337	columbia_card_task_fmri	26.0	0.75	89.0	-65.0	0.25	8.0	1.0	2.0	5.349611365887981	2.337	n/a	stim	poldrack-single-stim	s601	False	1
473.627	1.584	475.211	2.196527510461	draw_card	1.584	columbia_card_task_fmri	26.0	0.7142857142857143	89.0	-65.0	0.2857142857142857	8.0	2.0	2.0	7.052530948395464	1.584	n/a	stim	poldrack-single-stim	s601	False	1
475.215	3.021	478.236	-2.1368058228723323	end_round	3.021	columbia_card_task_fmri	26.0	0.6666666666666667	71.0	-65.0	0.3333333333333333	8.0	3.0	2.0	8.838291628845298	3.021	2.0	stim	poldrack-single-stim	s601	False	1
478.99	1.5	478.239	n/a	-1.0	2.658	columbia_card_task_fmri	n/a	n/a	-1.0	n/a	n/a	n/a	n/a	n/a	n/a	n/a	n/a	ITI	poldrack-single-stim	s601	False	0
480.901	5.727	486.628	0.5298608437943302	draw_card	5.727	columbia_card_task_fmri	15.0	0.7777777777777778	89.0	-60.0	0.2222222222222222	9.0	1.0	2.0	-2.8579678170724243	5.727	n/a	stim	poldrack-single-stim	s601	False	1
486.633	1.316	487.949	-1.5534724895390035	draw_card	1.316	columbia_card_task_fmri	15.0	0.75	89.0	-60.0	0.25	9.0	2.0	2.0	-1.5655686315090094	1.316	n/a	stim	poldrack-single-stim	s601	False	1
487.953	2.141	490.094	-4.232043918110431	draw_card	2.141	columbia_card_task_fmri	15.0	0.7142857142857143	89.0	-60.0	0.2857142857142857	9.0	3.0	2.0	-0.1630464234004804	2.141	3.0	stim	poldrack-single-stim	s601	False	0
490.851	1.5	490.1	n/a	-1.0	2.386	columbia_card_task_fmri	n/a	n/a	-1.0	n/a	n/a	n/a	n/a	n/a	n/a	n/a	n/a	ITI	poldrack-single-stim	s601	False	0
492.492	3.843	496.335	4.896527510460997	draw_card	3.843	columbia_card_task_fmri	13.0	0.9	89.0	-90.0	0.1	10.0	1.0	1.0	-3.137746401538223	3.843	n/a	stim	poldrack-single-stim	s601	False	1
496.339	1.947	498.286	3.752083066016552	draw_card	1.947	columbia_card_task_fmri	13.0	0.8888888888888888	89.0	-90.0	0.1111111111111111	10.0	2.0	1.0	-1.671501364722836	1.947	n/a	stim	poldrack-single-stim	s601	False	1
498.29	1.572	499.862	2.3215275104609963	draw_card	1.572	columbia_card_task_fmri	13.0	0.875	89.0	-90.0	0.125	10.0	3.0	1.0	0.0190750777897577	1.572	n/a	stim	poldrack-single-stim	s601	False	1
499.866	1.11	500.976	0.4822417961752845	end_round	1.11	columbia_card_task_fmri	13.0	0.8571428571428572	71.0	-90.0	0.1428571428571428	10.0	4.0	1.0	1.993642938621477	1.11	3.0	stim	poldrack-single-stim	s601	False	1
501.734	1.5	500.983	n/a	-1.0	2.522	columbia_card_task_fmri	n/a	n/a	-1.0	n/a	n/a	n/a	n/a	n/a	n/a	n/a	n/a	ITI	poldrack-single-stim	s601	False	0
503.51	1.748	505.258	6.196527510460996	draw_card	1.748	columbia_card_task_fmri	15.0	0.9	89.0	-95.0	0.1	10.0	1.0	1.0	-1.0426969138730229	1.748	n/a	stim	poldrack-single-stim	s601	False	1
505.263	1.463	506.726	4.974305288238773	draw_card	1.463	columbia_card_task_fmri	15.0	0.8888888888888888	89.0	-95.0	0.1111111111111111	10.0	2.0	1.0	0.523659184298154	1.463	n/a	stim	poldrack-single-stim	s601	False	1
506.73	2.892	509.622	3.4465275104609963	draw_card	2.892	columbia_card_task_fmri	15.0	0.875	89.0	-95.0	0.125	10.0	3.0	1.0	2.329613975589929	2.892	n/a	stim	poldrack-single-stim	s601	False	1
509.627	1.114	510.741	1.4822417961752827	end_round	1.114	columbia_card_task_fmri	15.0	0.8571428571428572	71.0	-95.0	0.1428571428571428	10.0	4.0	1.0	4.438884517422764	1.114	3.0	stim	poldrack-single-stim	s601	False	1
511.495	1.5	510.744	n/a	-1.0	2.59	columbia_card_task_fmri	n/a	n/a	-1.0	n/a	n/a	n/a	n/a	n/a	n/a	n/a	n/a	ITI	poldrack-single-stim	s601	False	0
513.339	2.962	516.301	1.996527510460997	draw_card	2.962	columbia_card_task_fmri	16.0	0.8	89.0	-65.0	0.2	10.0	1.0	2.0	-1.6413477377073633	2.962	n/a	stim	poldrack-single-stim	s601	False	1
516.305	2.105	518.41	0.196527510460998	draw_card	2.105	columbia_card_task_fmri	16.0	0.7777777777777778	89.0	-65.0	0.2222222222222222	10.0	2.0	2.0	-0.3692407975838137	2.105	n/a	stim	poldrack-single-stim	s601	False	1
518.415	1.942	520.357	-2.053472489539004	draw_card	1.942	columbia_card_task_fmri	16.0	0.75	89.0	-65.0	0.25	10.0	3.0	2.0	1.0270226896338812	1.942	n/a	stim	poldrack-single-stim	s601	False	1
520.361	2.044	522.405	-4.946329632396145	draw_card	2.044	columbia_card_task_fmri	16.0	0.7142857142857143	89.0	-65.0	0.2857142857142857	10.0	4.0	2.0	2.542218583878352	2.044	4.0	stim	poldrack-single-stim	s601	False	0
523.161	1.5	522.41	n/a	-1.0	2.386	columbia_card_task_fmri	n/a	n/a	-1.0	n/a	n/a	n/a	n/a	n/a	n/a	n/a	n/a	ITI	poldrack-single-stim	s601	False	0
524.802	2.745	527.547	0.6965275104609963	end_round	2.745	columbia_card_task_fmri	7.0	0.9166666666666666	71.0	-95.0	0.0833333333333333	12.0	1.0	1.0	-5.838965620739582	2.745	0.0	stim	poldrack-single-stim	s601	False	1
528.302	1.5	527.551	n/a	-1.0	2.59	columbia_card_task_fmri	n/a	n/a	-1.0	n/a	n/a	n/a	n/a	n/a	n/a	n/a	n/a	ITI	poldrack-single-stim	s601	False	0
530.145	3.451	533.596	1.363194177127664	draw_card	3.451	columbia_card_task_fmri	14.0	0.8333333333333334	89.0	-75.0	0.1666666666666666	12.0	1.0	2.0	-0.8747250454438955	3.451	n/a	stim	poldrack-single-stim	s601	False	1
533.601	1.749	535.35	0.0147093286428128	draw_card	1.749	columbia_card_task_fmri	14.0	0.8181818181818181	89.0	-75.0	0.1818181818181818	12.0	2.0	2.0	0.2813066082689275	1.749	n/a	stim	poldrack-single-stim	s601	False	1
535.355	2.079	537.434	-1.603472489539003	draw_card	2.079	columbia_card_task_fmri	14.0	0.8	89.0	-75.0	0.2	12.0	3.0	2.0	1.551980594534875	2.079	3.0	stim	poldrack-single-stim	s601	False	0
538.19	1.5	537.439	n/a	-1.0	2.318	columbia_card_task_fmri	n/a	n/a	-1.0	n/a	n/a	n/a	n/a	n/a	n/a	n/a	n/a	ITI	poldrack-single-stim	s601	False	0
539.762	2.963	542.725	3.02986084379433	draw_card	2.963	columbia_card_task_fmri	15.0	0.8333333333333334	89.0	-70.0	0.1666666666666666	12.0	1.0	2.0	-2.362026146008599	2.963	n/a	stim	poldrack-single-stim	s601	False	1
542.729	1.327	544.056	1.7419820559155397	draw_card	1.327	columbia_card_task_fmri	15.0	0.8181818181818181	89.0	-70.0	0.1818181818181818	12.0	2.0	2.0	-1.258175300430857	1.327	n/a	stim	poldrack-single-stim	s601	False	1
544.061	1.308	545.369	0.1965275104609962	draw_card	1.308	columbia_card_task_fmri	15.0	0.8	89.0	-70.0	0.2	12.0	3.0	2.0	-0.0448400617728239	1.308	3.0	stim	poldrack-single-stim	s601	False	0
546.125	1.5	545.374	n/a	-1.0	2.25	columbia_card_task_fmri	n/a	n/a	-1.0	n/a	n/a	n/a	n/a	n/a	n/a	n/a	n/a	ITI	poldrack-single-stim	s601	False	0
547.63	4.216	551.846	0.996527510460997	draw_card	4.216	columbia_card_task_fmri	16.0	0.8	89.0	-70.0	0.2	15.0	1.0	3.0	0.3543374593234603	4.216	n/a	stim	poldrack-single-stim	s601	False	1
551.85	1.095	552.945	-0.2320439181104325	draw_card	1.095	columbia_card_task_fmri	16.0	0.7857142857142857	89.0	-70.0	0.2142857142857142	15.0	2.0	3.0	1.2406056363413498	1.095	n/a	stim	poldrack-single-stim	s601	False	1
552.95	1.417	554.367	-1.6496263356928504	draw_card	1.417	columbia_card_task_fmri	16.0	0.7692307692307692	89.0	-70.0	0.2307692307692307	15.0	3.0	3.0	2.1847521227944853	1.417	3.0	stim	poldrack-single-stim	s601	False	0
555.124	1.5	554.373	n/a	-1.0	2.454	columbia_card_task_fmri	n/a	n/a	-1.0	n/a	n/a	n/a	n/a	n/a	n/a	n/a	n/a	ITI	poldrack-single-stim	s601	False	0
556.834	3.632	560.466	1.3840275104609965	draw_card	3.632	columbia_card_task_fmri	14.0	0.8125	89.0	-65.0	0.1875	16.0	1.0	3.0	-3.2029040206239543	3.632	n/a	stim	poldrack-single-stim	s601	False	1
560.469	1.727	562.196	0.3965275104609973	draw_card	1.727	columbia_card_task_fmri	14.0	0.8	89.0	-65.0	0.2	16.0	2.0	3.0	-2.439469419117032	1.727	n/a	stim	poldrack-single-stim	s601	False	1
562.201	1.551	563.752	-0.7320439181104308	draw_card	1.551	columbia_card_task_fmri	14.0	0.7857142857142857	89.0	-65.0	0.2142857142857142	16.0	3.0	3.0	-1.6256374187989522	1.551	n/a	stim	poldrack-single-stim	s601	False	1
563.756	0.945	564.701	-2.0342417203082355	end_round	0.945	columbia_card_task_fmri	14.0	0.7692307692307692	71.0	-65.0	0.2307692307692307	16.0	4.0	3.0	-0.7586415968081113	0.945	3.0	stim	poldrack-single-stim	s601	False	1
565.458	1.5	564.707	n/a	-1.0	3.27	columbia_card_task_fmri	n/a	n/a	-1.0	n/a	n/a	n/a	n/a	n/a	n/a	n/a	n/a	ITI	poldrack-single-stim	s601	False	0
567.981	4.158	572.139	1.1340275104609965	draw_card	4.158	columbia_card_task_fmri	16.0	0.8125	89.0	-75.0	0.1875	16.0	1.0	3.0	1.4705618955381112	4.158	n/a	stim	poldrack-single-stim	s601	False	1
572.144	1.891	574.035	-0.003472489539003	draw_card	1.891	columbia_card_task_fmri	16.0	0.8	89.0	-75.0	0.2	16.0	2.0	3.0	2.350495442103643	1.891	n/a	stim	poldrack-single-stim	s601	False	1
574.04	3.86	577.9	-1.303472489539002	draw_card	3.86	columbia_card_task_fmri	16.0	0.7857142857142857	89.0	-75.0	0.2142857142857142	16.0	3.0	3.0	3.2884892839425746	3.86	n/a	stim	poldrack-single-stim	s601	False	1
577.904	3.032	580.936	-2.8034724895390077	draw_card	3.032	columbia_card_task_fmri	16.0	0.7692307692307692	89.0	-75.0	0.2307692307692307	16.0	4.0	3.0	4.287728749711512	3.032	4.0	stim	poldrack-single-stim	s601	False	0
581.694	1.5	580.943	n/a	-1.0	2.25	columbia_card_task_fmri	n/a	n/a	-1.0	n/a	n/a	n/a	n/a	n/a	n/a	n/a	n/a	ITI	poldrack-single-stim	s601	False	0
583.198	2.627	585.825	5.396527510460997	draw_card	2.627	columbia_card_task_fmri	16.0	0.8666666666666667	89.0	-80.0	0.1333333333333333	15.0	1.0	2.0	-1.408154289649822	2.627	n/a	stim	poldrack-single-stim	s601	False	1
585.83	1.349	587.179	4.482241796175284	draw_card	1.349	columbia_card_task_fmri	16.0	0.8571428571428572	89.0	-80.0	0.1428571428571428	15.0	2.0	2.0	-0.4509809667978999	1.349	n/a	stim	poldrack-single-stim	s601	False	1
587.185	2.226	589.411	3.427296741230226	draw_card	2.226	columbia_card_task_fmri	16.0	0.8461538461538461	89.0	-80.0	0.1538461538461538	15.0	3.0	2.0	0.5907756234333377	2.226	n/a	stim	poldrack-single-stim	s601	False	1
589.415	1.841	591.256	2.196527510460998	draw_card	1.841	columbia_card_task_fmri	16.0	0.8333333333333334	89.0	-80.0	0.1666666666666666	15.0	4.0	2.0	1.7287337740286333	1.841	n/a	stim	poldrack-single-stim	s601	False	1
591.26	2.013	593.273	0.7419820559155395	draw_card	2.013	columbia_card_task_fmri	16.0	0.8181818181818181	89.0	-80.0	0.1818181818181818	15.0	5.0	2.0	2.9760591108362107	2.013	n/a	stim	poldrack-single-stim	s601	False	1
593.278	2.47	595.748	-1.003472489539003	draw_card	2.47	columbia_card_task_fmri	16.0	0.8	89.0	-80.0	0.2	15.0	6.0	2.0	4.347052600168325	2.47	n/a	stim	poldrack-single-stim	s601	False	1
595.753	1.482	597.235	-3.1368058228723377	end_round	1.482	columbia_card_task_fmri	16.0	0.7777777777777778	71.0	-80.0	0.2222222222222222	15.0	7.0	2.0	5.8556919163887	1.482	6.0	stim	poldrack-single-stim	s601	False	1
597.993	1.5	597.242	n/a	-1.0	2.25	columbia_card_task_fmri	n/a	n/a	-1.0	n/a	n/a	n/a	n/a	n/a	n/a	n/a	n/a	ITI	poldrack-single-stim	s601	False	0
599.497	1.81	601.307	6.263194177127664	draw_card	1.81	columbia_card_task_fmri	17.0	0.8666666666666667	89.0	-80.0	0.1333333333333333	15.0	1.0	2.0	-1.068979189747559	1.81	n/a	stim	poldrack-single-stim	s601	False	1
601.311	1.695	603.006	5.339384653318142	draw_card	1.695	columbia_card_task_fmri	17.0	0.8571428571428572	89.0	-80.0	0.1428571428571428	15.0	2.0	2.0	-0.1017918450079591	1.695	2.0	stim	poldrack-single-stim	s601	False	0
603.761	1.5	603.01	n/a	-1.0	2.318	columbia_card_task_fmri	n/a	n/a	-1.0	n/a	n/a	n/a	n/a	n/a	n/a	n/a	n/a	ITI	poldrack-single-stim	s601	False	0
605.334	2.255	607.589	2.1965275104609963	end_round	2.255	columbia_card_task_fmri	1.0	0.9375	71.0	-15.0	0.0625	16.0	1.0	1.0	-29.663220740405865	2.255	0.0	stim	poldrack-single-stim	s601	False	1
608.344	1.5	607.593	n/a	-1.0	2.726	columbia_card_task_fmri	n/a	n/a	-1.0	n/a	n/a	n/a	n/a	n/a	n/a	n/a	n/a	ITI	poldrack-single-stim	s601	False	0
610.324	2.195	612.519	5.321527510460996	end_round	2.195	columbia_card_task_fmri	10.0	0.9375	71.0	-100.0	0.0625	16.0	1.0	1.0	-7.398511923045167	2.195	0.0	stim	poldrack-single-stim	s601	False	1
613.276	1.5	612.525	n/a	-1.0	2.386	columbia_card_task_fmri	n/a	n/a	-1.0	n/a	n/a	n/a	n/a	n/a	n/a	n/a	n/a	ITI	poldrack-single-stim	s601	False	0
614.917	5.145	620.062	5.946527510460996	draw_card	5.145	columbia_card_task_fmri	15.0	0.875	89.0	-75.0	0.125	16.0	1.0	2.0	-4.270078039112768	5.145	n/a	stim	poldrack-single-stim	s601	False	1
620.066	1.185	621.251	5.196527510460996	draw_card	1.185	columbia_card_task_fmri	15.0	0.8666666666666667	89.0	-75.0	0.1333333333333333	16.0	2.0	2.0	-3.442851742650081	1.185	n/a	stim	poldrack-single-stim	s601	False	1
621.256	1.54	622.796	4.33938465331814	draw_card	1.54	columbia_card_task_fmri	15.0	0.8571428571428572	89.0	-75.0	0.1428571428571428	16.0	3.0	2.0	-2.545772499860302	1.54	n/a	stim	poldrack-single-stim	s601	False	1
622.8	2.173	624.973	3.3503736643071496	draw_card	2.173	columbia_card_task_fmri	15.0	0.8461538461538461	89.0	-75.0	0.1538461538461538	16.0	4.0	2.0	-1.569403404724504	2.173	n/a	stim	poldrack-single-stim	s601	False	1
624.978	1.907	626.885	2.1965275104609963	draw_card	1.907	columbia_card_task_fmri	15.0	0.8333333333333334	89.0	-75.0	0.1666666666666666	16.0	5.0	2.0	-0.5028525522145131	1.907	n/a	stim	poldrack-single-stim	s601	False	1
626.89	1.033	627.923	0.8328911468246312	end_round	1.033	columbia_card_task_fmri	15.0	0.8181818181818181	71.0	-75.0	0.1818181818181818	16.0	6.0	2.0	0.666222730308597	1.033	5.0	stim	poldrack-single-stim	s601	False	1
628.68	1.5	627.929	n/a	-1.0	2.318	columbia_card_task_fmri	n/a	n/a	-1.0	n/a	n/a	n/a	n/a	n/a	n/a	n/a	n/a	ITI	poldrack-single-stim	s601	False	0
630.253	1.731	631.984	6.196527510460996	draw_card	1.731	columbia_card_task_fmri	16.0	0.875	89.0	-80.0	0.125	16.0	1.0	2.0	-2.290810708447612	1.731	n/a	stim	poldrack-single-stim	s601	False	1
631.989	1.532	633.521	5.396527510460997	draw_card	1.532	columbia_card_task_fmri	16.0	0.8666666666666667	89.0	-80.0	0.1333333333333333	16.0	2.0	2.0	-1.408154289649822	1.532	n/a	stim	poldrack-single-stim	s601	False	1
633.525	1.748	635.273	4.482241796175284	draw_card	1.748	columbia_card_task_fmri	16.0	0.8571428571428572	89.0	-80.0	0.1428571428571428	16.0	3.0	2.0	-0.4509809667978999	1.748	n/a	stim	poldrack-single-stim	s601	False	1
635.278	1.688	636.966	3.427296741230226	draw_card	1.688	columbia_card_task_fmri	16.0	0.8461538461538461	89.0	-80.0	0.1538461538461538	16.0	4.0	2.0	0.5907756234333377	1.688	n/a	stim	poldrack-single-stim	s601	False	1
636.97	2.529	639.499	2.196527510460998	draw_card	2.529	columbia_card_task_fmri	16.0	0.8333333333333334	89.0	-80.0	0.1666666666666666	16.0	5.0	2.0	1.7287337740286333	2.529	n/a	stim	poldrack-single-stim	s601	False	1
639.504	2.283	641.787	0.7419820559155395	draw_card	2.283	columbia_card_task_fmri	16.0	0.8181818181818181	89.0	-80.0	0.1818181818181818	16.0	6.0	2.0	2.9760591108362107	2.283	n/a	stim	poldrack-single-stim	s601	False	1
641.791	1.24	643.031	-1.003472489539003	end_round	1.24	columbia_card_task_fmri	16.0	0.8	71.0	-80.0	0.2	16.0	7.0	2.0	4.347052600168325	1.24	6.0	stim	poldrack-single-stim	s601	False	1
643.789	1.5	643.038	n/a	-1.0	2.25	columbia_card_task_fmri	n/a	n/a	-1.0	n/a	n/a	n/a	n/a	n/a	n/a	n/a	n/a	ITI	poldrack-single-stim	s601	False	0
645.294	5.31	650.604	3.3840275104609963	draw_card	5.31	columbia_card_task_fmri	4.0	0.6875	89.0	-5.0	0.3125	16.0	1.0	5.0	-29.401158049943263	5.31	n/a	stim	poldrack-single-stim	s601	False	1
650.609	2.288	652.897	3.1965275104609967	draw_card	2.288	columbia_card_task_fmri	4.0	0.6666666666666667	89.0	-5.0	0.3333333333333333	16.0	2.0	5.0	-29.338194399336565	2.288	n/a	stim	poldrack-single-stim	s601	False	1
652.903	1.955	654.858	2.9822417961752814	draw_card	1.955	columbia_card_task_fmri	4.0	0.6428571428571428	89.0	-5.0	0.3571428571428571	16.0	3.0	5.0	-29.276123955777305	1.955	3.0	stim	poldrack-single-stim	s601	False	0
655.613	1.5	654.862	n/a	-1.0	2.25	columbia_card_task_fmri	n/a	n/a	-1.0	n/a	n/a	n/a	n/a	n/a	n/a	n/a	n/a	ITI	poldrack-single-stim	s601	False	0
657.119	2.959	660.078	0.529860843794332	draw_card	2.959	columbia_card_task_fmri	14.0	0.8333333333333334	89.0	-80.0	0.1666666666666666	6.0	1.0	1.0	0.984808283988876	2.959	n/a	stim	poldrack-single-stim	s601	False	1
660.083	1.008	661.091	-2.6034724895390027	draw_card	1.008	columbia_card_task_fmri	14.0	0.8	89.0	-80.0	0.2	6.0	2.0	1.0	3.5483858983637617	1.008	n/a	stim	poldrack-single-stim	s601	False	1
661.096	1.061	662.157	-7.303472489539004	draw_card	1.061	columbia_card_task_fmri	14.0	0.75	89.0	-80.0	0.25	6.0	3.0	1.0	6.646700004721993	1.061	n/a	stim	poldrack-single-stim	s601	False	1
662.161	1.628	663.789	-15.136805822872333	end_round	1.628	columbia_card_task_fmri	14.0	0.6666666666666667	71.0	-80.0	0.3333333333333333	6.0	4.0	1.0	10.250713861592814	1.628	3.0	stim	poldrack-single-stim	s601	False	1
664.548	1.5	663.797	n/a	-1.0	2.454	columbia_card_task_fmri	n/a	n/a	-1.0	n/a	n/a	n/a	n/a	n/a	n/a	n/a	n/a	ITI	poldrack-single-stim	s601	False	0
666.257	1.716	667.973	2.1965275104609963	draw_card	1.716	columbia_card_task_fmri	15.0	0.8333333333333334	89.0	-75.0	0.1666666666666666	6.0	1.0	1.0	-0.5028525522145131	1.716	n/a	stim	poldrack-single-stim	s601	False	1
667.977	1.1	669.077	-0.8034724895390037	draw_card	1.1	columbia_card_task_fmri	15.0	0.8	89.0	-75.0	0.2	6.0	2.0	1.0	1.951229790433075	1.1	n/a	stim	poldrack-single-stim	s601	False	1
669.083	1.217	670.3	-5.303472489539004	draw_card	1.217	columbia_card_task_fmri	15.0	0.75	89.0	-75.0	0.25	6.0	3.0	1.0	4.917277299875778	1.217	n/a	stim	poldrack-single-stim	s601	False	1
670.304	1.839	672.143	-12.803472489539002	draw_card	1.839	columbia_card_task_fmri	15.0	0.6666666666666667	89.0	-75.0	0.3333333333333333	6.0	4.0	1.0	8.367510703874132	1.839	n/a	stim	poldrack-single-stim	s601	False	1
672.148	5.423	677.571	-27.803472489539004	draw_card	5.423	columbia_card_task_fmri	15.0	0.5	89.0	-75.0	0.5	6.0	5.0	1.0	10.937858110889714	5.423	5.0	stim	poldrack-single-stim	s601	False	0
678.329	1.5	677.578	n/a	-1.0	2.454	columbia_card_task_fmri	n/a	n/a	-1.0	n/a	n/a	n/a	n/a	n/a	n/a	n/a	n/a	ITI	poldrack-single-stim	s601	False	0
680.037	2.596	682.633	3.863194177127664	draw_card	2.596	columbia_card_task_fmri	16.0	0.8333333333333334	89.0	-70.0	0.1666666666666666	6.0	1.0	1.0	-1.9902305133760196	2.596	n/a	stim	poldrack-single-stim	s601	False	1
682.639	1.381	684.02	0.996527510460997	draw_card	1.381	columbia_card_task_fmri	16.0	0.8	89.0	-70.0	0.2	6.0	2.0	1.0	0.3543374593234603	1.381	n/a	stim	poldrack-single-stim	s601	False	1
684.024	1.323	685.347	-3.303472489539004	draw_card	1.323	columbia_card_task_fmri	16.0	0.75	89.0	-70.0	0.25	6.0	3.0	1.0	3.188098461167833	1.323	n/a	stim	poldrack-single-stim	s601	False	1
685.352	0.892	686.244	-10.470139156205668	end_round	0.892	columbia_card_task_fmri	16.0	0.6666666666666667	71.0	-70.0	0.3333333333333333	6.0	4.0	1.0	6.4845317183581415	0.892	3.0	stim	poldrack-single-stim	s601	False	1
687.004	1.5	686.253	n/a	-1.0	2.522	columbia_card_task_fmri	n/a	n/a	-1.0	n/a	n/a	n/a	n/a	n/a	n/a	n/a	n/a	ITI	poldrack-single-stim	s601	False	0
