onset	duration	block_duration	choice	experiment_exp_id	key_press	large_amount	later_delay	response_time	small_amount	trial_id	trial_type	worker_id	junk
3.014	4.0	4.636	smaller_sooner	discount_fixed	71	79.0	92.0	1.921	20.0	n/a	smaller_sooner	s602	False
7.653	4.0	4.568	smaller_sooner	discount_fixed	71	61.0	141.0	1.391	20.0	n/a	smaller_sooner	s602	False
12.226	4.0	4.568	larger_later	discount_fixed	89	43.0	38.0	1.364	20.0	n/a	larger_later	s602	False
16.797	4.0	4.908	smaller_sooner	discount_fixed	71	66.0	145.0	1.227	20.0	n/a	smaller_sooner	s602	False
21.707	4.0	4.84	larger_later	discount_fixed	89	30.0	23.0	1.199	20.0	n/a	larger_later	s602	False
26.553	4.0	5.248	smaller_sooner	discount_fixed	71	32.0	57.0	1.206	20.0	n/a	smaller_sooner	s602	False
31.806	4.0	4.772	smaller_sooner	discount_fixed	71	27.0	91.0	1.807	20.0	n/a	smaller_sooner	s602	False
36.584	4.0	5.996	smaller_sooner	discount_fixed	71	43.0	120.0	2.477	20.0	n/a	smaller_sooner	s602	False
42.581	4.0	5.588	smaller_sooner	discount_fixed	71	75.0	60.0	1.596	20.0	n/a	smaller_sooner	s602	False
48.172	4.0	4.568	smaller_sooner	discount_fixed	71	34.0	176.0	1.165	20.0	n/a	smaller_sooner	s602	False
52.743	4.0	5.112	smaller_sooner	discount_fixed	71	24.0	38.0	2.41	20.0	n/a	smaller_sooner	s602	False
57.858	4.0	5.656	smaller_sooner	discount_fixed	71	82.0	74.0	1.655	20.0	n/a	smaller_sooner	s602	False
63.516	4.0	4.568	smaller_sooner	discount_fixed	71	58.0	53.0	1.445	20.0	n/a	smaller_sooner	s602	False
68.086	4.0	4.772	larger_later	discount_fixed	89	54.0	23.0	1.728	20.0	n/a	larger_later	s602	False
72.859	4.0	5.044	smaller_sooner	discount_fixed	71	41.0	55.0	1.459	20.0	n/a	smaller_sooner	s602	False
77.906	4.0	4.84	smaller_sooner	discount_fixed	71	77.0	142.0	0.785	20.0	n/a	smaller_sooner	s602	False
82.75	4.0	5.18	smaller_sooner	discount_fixed	71	25.0	108.0	0.81	20.0	n/a	smaller_sooner	s602	False
87.932	4.0	5.044	smaller_sooner	discount_fixed	71	33.0	163.0	0.836	20.0	n/a	smaller_sooner	s602	False
92.978	4.0	4.976	smaller_sooner	discount_fixed	71	29.0	75.0	1.262	20.0	n/a	smaller_sooner	s602	False
97.958	4.0	4.976	smaller_sooner	discount_fixed	71	45.0	157.0	0.642	20.0	n/a	smaller_sooner	s602	False
102.935	4.0	5.316	smaller_sooner	discount_fixed	71	31.0	74.0	1.379	20.0	n/a	smaller_sooner	s602	False
108.257	4.0	4.5	larger_later	discount_fixed	89	80.0	39.0	2.473	20.0	n/a	larger_later	s602	False
112.758	4.0	5.044	larger_later	discount_fixed	89	22.0	21.0	1.387	20.0	n/a	larger_later	s602	False
117.804	4.0	4.704	smaller_sooner	discount_fixed	71	52.0	139.0	0.875	20.0	n/a	smaller_sooner	s602	False
122.51	4.0	4.84	smaller_sooner	discount_fixed	71	54.0	126.0	1.153	20.0	n/a	smaller_sooner	s602	False
127.353	4.0	6.744	smaller_sooner	discount_fixed	71	23.0	176.0	0.625	20.0	n/a	smaller_sooner	s602	False
134.098	4.0	4.5	smaller_sooner	discount_fixed	71	24.0	87.0	1.319	20.0	n/a	smaller_sooner	s602	False
138.602	4.0	4.568	smaller_sooner	discount_fixed	71	36.0	140.0	0.777	20.0	n/a	smaller_sooner	s602	False
143.175	4.0	4.704	smaller_sooner	discount_fixed	71	35.0	171.0	1.02	20.0	n/a	smaller_sooner	s602	False
147.882	4.0	4.908	smaller_sooner	discount_fixed	71	34.0	43.0	0.759	20.0	n/a	smaller_sooner	s602	False
152.794	4.0	4.568	smaller_sooner	discount_fixed	71	74.0	121.0	0.68	20.0	n/a	smaller_sooner	s602	False
157.363	4.0	4.772	smaller_sooner	discount_fixed	71	45.0	107.0	0.776	20.0	n/a	smaller_sooner	s602	False
162.139	4.0	4.636	larger_later	discount_fixed	89	77.0	24.0	2.944	20.0	n/a	larger_later	s602	False
166.777	4.0	4.568	smaller_sooner	discount_fixed	71	39.0	161.0	0.753	20.0	n/a	smaller_sooner	s602	False
171.347	4.0	5.452	smaller_sooner	discount_fixed	71	62.0	180.0	1.531	20.0	n/a	smaller_sooner	s602	False
176.8	4.0	5.384	smaller_sooner	discount_fixed	71	24.0	139.0	0.951	20.0	n/a	smaller_sooner	s602	False
182.186	4.0	4.568	smaller_sooner	discount_fixed	71	58.0	72.0	1.011	20.0	n/a	smaller_sooner	s602	False
186.759	4.0	6.268	smaller_sooner	discount_fixed	71	56.0	93.0	1.97	20.0	n/a	smaller_sooner	s602	False
193.032	4.0	5.52	larger_later	discount_fixed	89	45.0	26.0	2.18	20.0	n/a	larger_later	s602	False
198.555	4.0	4.568	smaller_sooner	discount_fixed	71	23.0	42.0	2.147	20.0	n/a	smaller_sooner	s602	False
203.127	4.0	4.636	smaller_sooner	discount_fixed	71	50.0	41.0	1.854	20.0	n/a	smaller_sooner	s602	False
207.767	4.0	4.636	smaller_sooner	discount_fixed	71	25.0	176.0	0.658	20.0	n/a	smaller_sooner	s602	False
212.408	4.0	5.112	larger_later	discount_fixed	89	54.0	22.0	1.187	20.0	n/a	larger_later	s602	False
217.522	4.0	5.316	smaller_sooner	discount_fixed	71	29.0	44.0	2.279	20.0	n/a	smaller_sooner	s602	False
222.844	4.0	4.568	smaller_sooner	discount_fixed	71	24.0	89.0	0.895	20.0	n/a	smaller_sooner	s602	False
227.414	4.0	4.568	smaller_sooner	discount_fixed	71	23.0	77.0	0.8	20.0	n/a	smaller_sooner	s602	False
231.986	4.0	4.568	smaller_sooner	discount_fixed	71	27.0	130.0	0.841	20.0	n/a	smaller_sooner	s602	False
236.556	4.0	4.84	smaller_sooner	discount_fixed	71	23.0	134.0	0.822	20.0	n/a	smaller_sooner	s602	False
241.398	4.0	4.5	smaller_sooner	discount_fixed	71	55.0	107.0	0.578	20.0	n/a	smaller_sooner	s602	False
245.9	4.0	5.656	smaller_sooner	discount_fixed	71	44.0	143.0	1.049	20.0	n/a	smaller_sooner	s602	False
251.56	4.0	4.908	smaller_sooner	discount_fixed	71	23.0	110.0	0.957	20.0	n/a	smaller_sooner	s602	False
256.471	4.0	4.636	smaller_sooner	discount_fixed	71	65.0	156.0	0.75	20.0	n/a	smaller_sooner	s602	False
261.11	4.0	4.5	larger_later	discount_fixed	89	22.0	27.0	1.19	20.0	n/a	larger_later	s602	False
265.612	4.0	4.5	smaller_sooner	discount_fixed	71	50.0	59.0	1.19	20.0	n/a	smaller_sooner	s602	False
270.114	4.0	5.112	smaller_sooner	discount_fixed	71	85.0	129.0	0.835	20.0	n/a	smaller_sooner	s602	False
275.229	4.0	6.132	smaller_sooner	discount_fixed	71	66.0	58.0	1.421	20.0	n/a	smaller_sooner	s602	False
281.363	4.0	4.84	smaller_sooner	discount_fixed	71	49.0	172.0	0.852	20.0	n/a	smaller_sooner	s602	False
286.205	4.0	4.568	smaller_sooner	discount_fixed	71	73.0	44.0	1.23	20.0	n/a	smaller_sooner	s602	False
290.775	4.0	4.704	smaller_sooner	discount_fixed	71	58.0	73.0	1.068	20.0	n/a	smaller_sooner	s602	False
295.48	4.0	5.86	smaller_sooner	discount_fixed	71	71.0	76.0	0.709	20.0	n/a	smaller_sooner	s602	False
301.343	4.0	4.636	smaller_sooner	discount_fixed	71	67.0	74.0	1.175	20.0	n/a	smaller_sooner	s602	False
314.486	4.0	5.316	smaller_sooner	discount_fixed	71	29.0	58.0	2.268	20.0	n/a	smaller_sooner	s602	False
319.804	4.0	4.976	smaller_sooner	discount_fixed	71	39.0	104.0	0.781	20.0	n/a	smaller_sooner	s602	False
324.782	4.0	4.568	smaller_sooner	discount_fixed	71	33.0	103.0	0.656	20.0	n/a	smaller_sooner	s602	False
329.356	4.0	5.52	smaller_sooner	discount_fixed	71	33.0	78.0	0.788	20.0	n/a	smaller_sooner	s602	False
334.877	4.0	5.588	smaller_sooner	discount_fixed	71	74.0	52.0	0.767	20.0	n/a	smaller_sooner	s602	False
340.471	4.0	5.792	smaller_sooner	discount_fixed	71	28.0	132.0	0.673	20.0	n/a	smaller_sooner	s602	False
346.266	4.0	4.568	smaller_sooner	discount_fixed	71	28.0	59.0	0.657	20.0	n/a	smaller_sooner	s602	False
350.837	4.0	5.112	smaller_sooner	discount_fixed	71	28.0	163.0	0.68	20.0	n/a	smaller_sooner	s602	False
355.95	4.0	4.5	smaller_sooner	discount_fixed	71	32.0	74.0	1.055	20.0	n/a	smaller_sooner	s602	False
360.452	4.0	4.84	smaller_sooner	discount_fixed	71	57.0	89.0	0.689	20.0	n/a	smaller_sooner	s602	False
365.296	4.0	4.568	smaller_sooner	discount_fixed	71	70.0	108.0	0.811	20.0	n/a	smaller_sooner	s602	False
369.865	4.0	5.384	smaller_sooner	discount_fixed	71	72.0	95.0	1.194	20.0	n/a	smaller_sooner	s602	False
375.252	4.0	5.044	smaller_sooner	discount_fixed	71	30.0	36.0	1.475	20.0	n/a	smaller_sooner	s602	False
380.3	4.0	4.704	smaller_sooner	discount_fixed	71	41.0	129.0	1.455	20.0	n/a	smaller_sooner	s602	False
385.008	4.0	4.908	smaller_sooner	discount_fixed	71	78.0	129.0	0.67	20.0	n/a	smaller_sooner	s602	False
389.919	4.0	4.908	smaller_sooner	discount_fixed	71	71.0	88.0	1.012	20.0	n/a	smaller_sooner	s602	False
394.832	4.0	4.84	smaller_sooner	discount_fixed	71	65.0	159.0	0.713	20.0	n/a	smaller_sooner	s602	False
399.675	4.0	5.112	smaller_sooner	discount_fixed	71	24.0	125.0	0.759	20.0	n/a	smaller_sooner	s602	False
404.788	4.0	5.112	larger_later	discount_fixed	89	58.0	36.0	2.272	20.0	n/a	larger_later	s602	False
409.902	4.0	4.704	larger_later	discount_fixed	89	63.0	37.0	1.487	20.0	n/a	larger_later	s602	False
414.609	4.0	4.84	smaller_sooner	discount_fixed	71	75.0	41.0	1.235	20.0	n/a	smaller_sooner	s602	False
419.452	4.0	4.84	smaller_sooner	discount_fixed	71	45.0	72.0	1.602	20.0	n/a	smaller_sooner	s602	False
424.294	4.0	6.88	smaller_sooner	discount_fixed	71	25.0	74.0	0.679	20.0	n/a	smaller_sooner	s602	False
431.175	4.0	4.568	smaller_sooner	discount_fixed	71	65.0	137.0	0.692	20.0	n/a	smaller_sooner	s602	False
435.744	4.0	4.772	smaller_sooner	discount_fixed	71	49.0	140.0	0.682	20.0	n/a	smaller_sooner	s602	False
440.519	4.0	7.016	smaller_sooner	discount_fixed	71	67.0	103.0	0.809	20.0	n/a	smaller_sooner	s602	False
447.541	4.0	4.704	smaller_sooner	discount_fixed	71	69.0	172.0	0.728	20.0	n/a	smaller_sooner	s602	False
452.249	4.0	5.18	smaller_sooner	discount_fixed	71	66.0	71.0	1.063	20.0	n/a	smaller_sooner	s602	False
457.43	4.0	5.044	smaller_sooner	discount_fixed	71	71.0	176.0	0.906	20.0	n/a	smaller_sooner	s602	False
462.475	4.0	5.316	smaller_sooner	discount_fixed	71	31.0	76.0	1.402	20.0	n/a	smaller_sooner	s602	False
467.795	4.0	4.568	larger_later	discount_fixed	89	43.0	19.0	1.102	20.0	n/a	larger_later	s602	False
472.367	4.0	4.636	smaller_sooner	discount_fixed	71	60.0	124.0	0.806	20.0	n/a	smaller_sooner	s602	False
477.007	4.0	4.908	smaller_sooner	discount_fixed	71	27.0	142.0	0.596	20.0	n/a	smaller_sooner	s602	False
481.916	4.0	4.5	smaller_sooner	discount_fixed	71	25.0	70.0	1.086	20.0	n/a	smaller_sooner	s602	False
486.421	4.0	4.976	smaller_sooner	discount_fixed	71	44.0	92.0	0.825	20.0	n/a	smaller_sooner	s602	False
491.402	4.0	4.908	larger_later	discount_fixed	89	41.0	27.0	0.94	20.0	n/a	larger_later	s602	False
496.311	4.0	4.568	smaller_sooner	discount_fixed	71	64.0	89.0	0.896	20.0	n/a	smaller_sooner	s602	False
500.882	4.0	4.5	smaller_sooner	discount_fixed	71	78.0	108.0	0.675	20.0	n/a	smaller_sooner	s602	False
505.385	4.0	6.2	smaller_sooner	discount_fixed	71	80.0	145.0	0.819	20.0	n/a	smaller_sooner	s602	False
511.59	4.0	4.704	smaller_sooner	discount_fixed	71	41.0	174.0	0.76	20.0	n/a	smaller_sooner	s602	False
516.295	4.0	5.044	smaller_sooner	discount_fixed	71	42.0	145.0	0.661	20.0	n/a	smaller_sooner	s602	False
521.342	4.0	5.044	smaller_sooner	discount_fixed	71	36.0	114.0	0.689	20.0	n/a	smaller_sooner	s602	False
526.39	4.0	5.18	smaller_sooner	discount_fixed	71	58.0	55.0	1.162	20.0	n/a	smaller_sooner	s602	False
531.571	4.0	4.976	smaller_sooner	discount_fixed	71	81.0	58.0	0.814	20.0	n/a	smaller_sooner	s602	False
536.553	4.0	4.772	smaller_sooner	discount_fixed	71	32.0	111.0	0.619	20.0	n/a	smaller_sooner	s602	False
541.329	4.0	4.772	smaller_sooner	discount_fixed	71	25.0	141.0	0.644	20.0	n/a	smaller_sooner	s602	False
546.108	4.0	5.18	larger_later	discount_fixed	89	67.0	23.0	0.89	20.0	n/a	larger_later	s602	False
551.292	4.0	5.18	smaller_sooner	discount_fixed	71	77.0	161.0	0.667	20.0	n/a	smaller_sooner	s602	False
556.474	4.0	5.248	smaller_sooner	discount_fixed	71	55.0	163.0	1.227	20.0	n/a	smaller_sooner	s602	False
561.723	4.0	4.568	smaller_sooner	discount_fixed	71	40.0	159.0	0.632	20.0	n/a	smaller_sooner	s602	False
566.292	4.0	4.5	smaller_sooner	discount_fixed	71	76.0	161.0	0.737	20.0	n/a	smaller_sooner	s602	False
570.796	4.0	4.908	smaller_sooner	discount_fixed	71	48.0	128.0	1.305	20.0	n/a	smaller_sooner	s602	False
575.706	4.0	4.568	smaller_sooner	discount_fixed	71	39.0	95.0	0.913	20.0	n/a	smaller_sooner	s602	False
580.278	4.0	6.2	smaller_sooner	discount_fixed	71	83.0	105.0	0.743	20.0	n/a	smaller_sooner	s602	False
586.481	4.0	4.908	smaller_sooner	discount_fixed	71	67.0	41.0	1.643	20.0	n/a	smaller_sooner	s602	False
591.393	4.0	5.248	smaller_sooner	discount_fixed	71	56.0	172.0	0.745	20.0	n/a	smaller_sooner	s602	False
596.645	4.0	5.044	smaller_sooner	discount_fixed	71	28.0	123.0	0.831	20.0	n/a	smaller_sooner	s602	False
601.692	4.0	4.636	smaller_sooner	discount_fixed	71	50.0	129.0	1.141	20.0	n/a	smaller_sooner	s602	False
606.334	4.0	4.704	smaller_sooner	discount_fixed	71	23.0	61.0	1.221	20.0	n/a	smaller_sooner	s602	False
