onset	duration	movement_onset	EV	action	block_duration	experiment_exp_id	gain_amount	gain_probability	key_press	loss_amount	loss_probability	num_cards	num_click_in_round	num_loss_cards	risk	response_time	total_cards	trial_id	trial_type	worker_id	junk	feedback
3.013	2.896	5.909	-0.0226135901135899	draw_card	2.896	columbia_card_task_fmri	12.0	0.8333333333333334	89.0	-70.0	0.1666666666666666	6.0	1.0	1.0	-2.2324655830937736	2.896	n/a	stim	poldrack-single-stim	s602	False	1
5.911	2.128	8.039	-2.7559469234469223	draw_card	2.128	columbia_card_task_fmri	12.0	0.8	89.0	-70.0	0.2	6.0	2.0	1.0	0.0049241367136545	2.128	n/a	stim	poldrack-single-stim	s602	False	1
8.041	3.961	12.002	-6.855946923446924	end_round	3.961	columbia_card_task_fmri	12.0	0.75	71.0	-70.0	0.25	6.0	3.0	1.0	2.708829868853577	3.961	2.0	stim	poldrack-single-stim	s602	False	1
12.754	1.5	12.003	n/a	-1.0	2.454	columbia_card_task_fmri	n/a	n/a	-1.0	n/a	n/a	n/a	n/a	n/a	n/a	n/a	n/a	ITI	poldrack-single-stim	s602	False	0
14.46	2.957	17.417	0.8107197432197439	draw_card	2.957	columbia_card_task_fmri	14.0	0.8333333333333334	89.0	-75.0	0.1666666666666666	6.0	1.0	1.0	0.3728090866084628	2.957	n/a	stim	poldrack-single-stim	s602	False	1
17.418	0.872	18.29	-2.155946923446922	draw_card	0.872	columbia_card_task_fmri	14.0	0.8	89.0	-75.0	0.2	6.0	2.0	1.0	2.801689086607489	0.872	n/a	stim	poldrack-single-stim	s602	False	1
18.292	2.101	20.393	-6.605946923446924	draw_card	2.101	columbia_card_task_fmri	14.0	0.75	89.0	-75.0	0.25	6.0	3.0	1.0	5.736929609602335	2.101	n/a	stim	poldrack-single-stim	s602	False	1
20.395	1.188	21.583	-14.02261359011359	draw_card	1.188	columbia_card_task_fmri	14.0	0.6666666666666667	89.0	-75.0	0.3333333333333333	6.0	4.0	1.0	9.15094909060366	1.188	n/a	stim	poldrack-single-stim	s602	False	1
21.585	1.857	23.442	-28.855946923446925	draw_card	1.857	columbia_card_task_fmri	14.0	0.5	89.0	-75.0	0.5	6.0	5.0	1.0	11.694106504254512	1.857	5.0	stim	poldrack-single-stim	s602	False	0
24.194	1.5	23.443	n/a	-1.0	2.454	columbia_card_task_fmri	n/a	n/a	-1.0	n/a	n/a	n/a	n/a	n/a	n/a	n/a	n/a	ITI	poldrack-single-stim	s602	False	0
25.9	0.718	26.618	2.4773864098864102	draw_card	0.718	columbia_card_task_fmri	15.0	0.8333333333333334	89.0	-70.0	0.1666666666666666	6.0	1.0	1.0	-1.1159891648815758	0.718	1.0	stim	poldrack-single-stim	s602	False	0
27.372	1.5	26.621	n/a	-1.0	2.522	columbia_card_task_fmri	n/a	n/a	-1.0	n/a	n/a	n/a	n/a	n/a	n/a	n/a	n/a	ITI	poldrack-single-stim	s602	False	0
29.146	0.694	29.84	3.310719743219744	draw_card	0.694	columbia_card_task_fmri	17.0	0.8333333333333334	89.0	-75.0	0.1666666666666666	6.0	1.0	1.0	1.4895167876670996	0.694	1.0	stim	poldrack-single-stim	s602	False	0
30.596	1.5	29.845	n/a	-1.0	2.386	columbia_card_task_fmri	n/a	n/a	-1.0	n/a	n/a	n/a	n/a	n/a	n/a	n/a	n/a	ITI	poldrack-single-stim	s602	False	0
32.235	0.554	32.789	4.644053076553076	end_round	0.554	columbia_card_task_fmri	24.0	0.75	71.0	-60.0	0.25	8.0	1.0	2.0	3.5739504640129454	0.554	0.0	stim	poldrack-single-stim	s602	False	1
33.545	1.5	32.794	n/a	-1.0	2.454	columbia_card_task_fmri	n/a	n/a	-1.0	n/a	n/a	n/a	n/a	n/a	n/a	n/a	n/a	ITI	poldrack-single-stim	s602	False	0
35.251	0.649	35.9	4.644053076553076	draw_card	0.649	columbia_card_task_fmri	29.0	0.75	89.0	-75.0	0.25	8.0	1.0	2.0	12.227068200979438	0.649	n/a	stim	poldrack-single-stim	s602	False	1
35.902	1.022	36.924	0.9297673622673645	draw_card	1.022	columbia_card_task_fmri	29.0	0.7142857142857143	89.0	-75.0	0.2857142857142857	8.0	2.0	2.0	14.174914362095528	1.022	n/a	stim	poldrack-single-stim	s602	False	1
36.926	0.684	37.61	-4.022613590113588	draw_card	0.684	columbia_card_task_fmri	29.0	0.6666666666666667	89.0	-75.0	0.3333333333333333	8.0	3.0	2.0	16.217375549280654	0.684	3.0	stim	poldrack-single-stim	s602	False	0
38.364	1.5	37.613	n/a	-1.0	2.522	columbia_card_task_fmri	n/a	n/a	-1.0	n/a	n/a	n/a	n/a	n/a	n/a	n/a	n/a	ITI	poldrack-single-stim	s602	False	0
40.138	0.631	40.769	0.4218308543308564	draw_card	0.631	columbia_card_task_fmri	17.0	0.7777777777777778	89.0	-65.0	0.2222222222222222	9.0	1.0	2.0	1.2940232285268325	0.631	n/a	stim	poldrack-single-stim	s602	False	1
40.771	0.595	41.366	-1.855946923446924	draw_card	0.595	columbia_card_task_fmri	17.0	0.75	89.0	-65.0	0.25	9.0	2.0	2.0	2.708829868853577	0.595	n/a	stim	poldrack-single-stim	s602	False	1
41.367	0.435	41.802	-4.784518352018351	draw_card	0.435	columbia_card_task_fmri	17.0	0.7142857142857143	89.0	-65.0	0.2857142857142857	9.0	3.0	2.0	4.244035757724575	0.435	n/a	stim	poldrack-single-stim	s602	False	1
41.803	0.336	42.139	-8.689280256780254	draw_card	0.336	columbia_card_task_fmri	17.0	0.6666666666666667	89.0	-65.0	0.3333333333333333	9.0	4.0	2.0	5.853863811331657	0.336	n/a	stim	poldrack-single-stim	s602	False	1
42.141	2.044	44.185	-14.155946923446924	draw_card	2.044	columbia_card_task_fmri	17.0	0.6	89.0	-65.0	0.4	9.0	5.0	2.0	7.369006816253766	2.044	n/a	stim	poldrack-single-stim	s602	False	1
44.187	0.7	44.887	-22.355946923446925	end_round	0.7	columbia_card_task_fmri	17.0	0.5	71.0	-65.0	0.5	9.0	6.0	2.0	8.196696163126056	0.7	5.0	stim	poldrack-single-stim	s602	False	1
45.644	1.5	44.893	n/a	-1.0	2.522	columbia_card_task_fmri	n/a	n/a	-1.0	n/a	n/a	n/a	n/a	n/a	n/a	n/a	n/a	ITI	poldrack-single-stim	s602	False	0
47.417	0.538	47.955	4.744053076553076	draw_card	0.538	columbia_card_task_fmri	14.0	0.9	89.0	-95.0	0.1	10.0	1.0	1.0	-0.0949500981732285	0.538	n/a	stim	poldrack-single-stim	s602	False	1
47.958	0.464	48.422	3.532941965441964	draw_card	0.464	columbia_card_task_fmri	14.0	0.8888888888888888	89.0	-95.0	0.1111111111111111	10.0	2.0	1.0	1.4585718970728792	0.464	n/a	stim	poldrack-single-stim	s602	False	1
48.424	0.362	48.786	2.0190530765530763	draw_card	0.362	columbia_card_task_fmri	14.0	0.875	89.0	-95.0	0.125	10.0	3.0	1.0	3.2495792786020274	0.362	n/a	stim	poldrack-single-stim	s602	False	1
48.787	0.39	49.177	0.0726245051245049	draw_card	0.39	columbia_card_task_fmri	14.0	0.8571428571428572	89.0	-95.0	0.1428571428571428	10.0	4.0	1.0	5.34121736016931	0.39	n/a	stim	poldrack-single-stim	s602	False	1
49.179	0.348	49.527	-2.522613590113588	draw_card	0.348	columbia_card_task_fmri	14.0	0.8333333333333334	89.0	-95.0	0.1666666666666666	10.0	5.0	1.0	7.818904186422031	0.348	n/a	stim	poldrack-single-stim	s602	False	1
49.529	0.392	49.921	-6.155946923446923	draw_card	0.392	columbia_card_task_fmri	14.0	0.8	89.0	-95.0	0.2	10.0	6.0	1.0	10.794732749070214	0.392	n/a	stim	poldrack-single-stim	s602	False	1
49.923	0.759	50.682	-11.605946923446924	end_round	0.759	columbia_card_task_fmri	14.0	0.75	71.0	-95.0	0.25	10.0	7.0	1.0	14.390756412047937	0.759	6.0	stim	poldrack-single-stim	s602	False	1
51.438	1.5	50.687	n/a	-1.0	2.59	columbia_card_task_fmri	n/a	n/a	-1.0	n/a	n/a	n/a	n/a	n/a	n/a	n/a	n/a	ITI	poldrack-single-stim	s602	False	0
53.28	0.758	54.038	0.6440530765530761	draw_card	0.758	columbia_card_task_fmri	15.0	0.8	89.0	-65.0	0.2	10.0	1.0	2.0	-0.7940477762901494	0.758	n/a	stim	poldrack-single-stim	s602	False	1
54.04	0.275	54.315	-1.1337247012247007	draw_card	0.275	columbia_card_task_fmri	15.0	0.7777777777777778	89.0	-65.0	0.2222222222222222	10.0	2.0	2.0	0.4635331149870225	0.275	n/a	stim	poldrack-single-stim	s602	False	1
54.316	0.218	54.534	-3.355946923446924	draw_card	0.218	columbia_card_task_fmri	15.0	0.75	89.0	-65.0	0.25	10.0	3.0	2.0	1.843754439683792	0.218	n/a	stim	poldrack-single-stim	s602	False	1
54.537	0.18	54.717	-6.213089780589778	draw_card	0.18	columbia_card_task_fmri	15.0	0.7142857142857143	89.0	-65.0	0.2857142857142857	10.0	4.0	2.0	3.3414385409696976	0.18	4.0	stim	poldrack-single-stim	s602	False	0
55.474	1.5	54.723	n/a	-1.0	2.454	columbia_card_task_fmri	n/a	n/a	-1.0	n/a	n/a	n/a	n/a	n/a	n/a	n/a	n/a	ITI	poldrack-single-stim	s602	False	0
57.18	0.569	57.749	2.2440530765530777	draw_card	0.569	columbia_card_task_fmri	17.0	0.8	89.0	-65.0	0.2	10.0	1.0	2.0	0.0049241367136545	0.569	n/a	stim	poldrack-single-stim	s602	False	1
57.751	0.25	58.001	0.4218308543308564	draw_card	0.25	columbia_card_task_fmri	17.0	0.7777777777777778	89.0	-65.0	0.2222222222222222	10.0	2.0	2.0	1.2940232285268325	0.25	2.0	stim	poldrack-single-stim	s602	False	0
58.755	1.5	58.004	n/a	-1.0	2.318	columbia_card_task_fmri	n/a	n/a	-1.0	n/a	n/a	n/a	n/a	n/a	n/a	n/a	n/a	ITI	poldrack-single-stim	s602	False	0
60.325	0.421	60.746	0.8107197432197439	draw_card	0.421	columbia_card_task_fmri	13.0	0.8333333333333334	89.0	-70.0	0.1666666666666666	12.0	1.0	2.0	-1.860319261291604	0.421	n/a	stim	poldrack-single-stim	s602	False	1
60.747	1.907	62.654	-0.4468560143560174	draw_card	1.907	columbia_card_task_fmri	13.0	0.8181818181818181	89.0	-70.0	0.1818181818181818	12.0	2.0	2.0	-0.7814119778437032	1.907	n/a	stim	poldrack-single-stim	s602	False	1
62.656	0.506	63.162	-1.955946923446924	draw_card	0.506	columbia_card_task_fmri	13.0	0.8	89.0	-70.0	0.2	12.0	3.0	2.0	0.4044286384432638	0.506	n/a	stim	poldrack-single-stim	s602	False	1
63.163	0.343	63.506	-3.800391367891368	draw_card	0.343	columbia_card_task_fmri	13.0	0.7777777777777778	89.0	-70.0	0.2222222222222222	12.0	4.0	2.0	1.709286133438006	0.343	4.0	stim	poldrack-single-stim	s602	False	0
64.263	1.5	63.512	n/a	-1.0	2.25	columbia_card_task_fmri	n/a	n/a	-1.0	n/a	n/a	n/a	n/a	n/a	n/a	n/a	n/a	ITI	poldrack-single-stim	s602	False	0
65.766	0.63	66.396	0.8107197432197439	draw_card	0.63	columbia_card_task_fmri	15.0	0.8333333333333334	89.0	-80.0	0.1666666666666666	12.0	1.0	2.0	2.606308114564463	0.63	n/a	stim	poldrack-single-stim	s602	False	1
66.397	0.274	66.671	-0.6286741961741991	draw_card	0.274	columbia_card_task_fmri	15.0	0.8181818181818181	89.0	-80.0	0.1818181818181818	12.0	2.0	2.0	3.841599987931645	0.274	n/a	stim	poldrack-single-stim	s602	False	1
66.673	0.689	67.362	-2.355946923446924	end_round	0.689	columbia_card_task_fmri	15.0	0.8	71.0	-80.0	0.2	12.0	3.0	2.0	5.19929506425818	0.689	2.0	stim	poldrack-single-stim	s602	False	1
68.116	1.5	67.365	n/a	-1.0	2.658	columbia_card_task_fmri	n/a	n/a	-1.0	n/a	n/a	n/a	n/a	n/a	n/a	n/a	n/a	ITI	poldrack-single-stim	s602	False	0
70.025	0.505	70.53	-0.1559469234469228	draw_card	0.505	columbia_card_task_fmri	14.0	0.8	89.0	-65.0	0.2	15.0	1.0	3.0	-1.1935142510388168	0.505	n/a	stim	poldrack-single-stim	s602	False	1
70.533	0.378	70.911	-1.284518352018351	draw_card	0.378	columbia_card_task_fmri	14.0	0.7857142857142857	89.0	-65.0	0.2142857142857142	15.0	2.0	3.0	-0.3788420140778257	0.378	n/a	stim	poldrack-single-stim	s602	False	1
70.912	1.318	72.23	-2.5867161542161554	draw_card	1.318	columbia_card_task_fmri	14.0	0.7692307692307692	89.0	-65.0	0.2307692307692307	15.0	3.0	3.0	0.4890037625060444	1.318	n/a	stim	poldrack-single-stim	s602	False	1
72.231	1.047	73.278	-4.105946923446924	draw_card	1.047	columbia_card_task_fmri	14.0	0.75	89.0	-65.0	0.25	15.0	4.0	3.0	1.4112347319191656	1.047	n/a	stim	poldrack-single-stim	s602	False	1
73.281	1.916	75.197	-5.901401468901469	end_round	1.916	columbia_card_task_fmri	14.0	0.7272727272727273	71.0	-65.0	0.2727272727272727	15.0	5.0	3.0	2.3857176095940176	1.916	4.0	stim	poldrack-single-stim	s602	False	1
75.952	1.5	75.201	n/a	-1.0	2.454	columbia_card_task_fmri	n/a	n/a	-1.0	n/a	n/a	n/a	n/a	n/a	n/a	n/a	n/a	ITI	poldrack-single-stim	s602	False	0
77.659	0.715	78.374	-0.2309469234469239	draw_card	0.715	columbia_card_task_fmri	1.0	0.9375	89.0	-45.0	0.0625	16.0	1.0	1.0	-21.58070826405217	0.715	n/a	stim	poldrack-single-stim	s602	False	1
78.376	0.644	79.02	-0.4226135901135903	draw_card	0.644	columbia_card_task_fmri	1.0	0.9333333333333332	89.0	-45.0	0.0666666666666666	16.0	2.0	1.0	-21.244655414747943	0.644	n/a	stim	poldrack-single-stim	s602	False	1
79.023	0.439	79.462	-0.6416612091612095	draw_card	0.439	columbia_card_task_fmri	1.0	0.9285714285714286	89.0	-45.0	0.0714285714285714	16.0	3.0	1.0	-20.875908055552596	0.439	n/a	stim	poldrack-single-stim	s602	False	1
79.465	1.792	81.257	-0.8944084619084622	end_round	1.792	columbia_card_task_fmri	1.0	0.9230769230769232	71.0	-45.0	0.0769230769230769	16.0	4.0	1.0	-20.46889947593339	1.792	3.0	stim	poldrack-single-stim	s602	False	1
82.01	1.5	81.259	n/a	-1.0	2.386	columbia_card_task_fmri	n/a	n/a	-1.0	n/a	n/a	n/a	n/a	n/a	n/a	n/a	n/a	ITI	poldrack-single-stim	s602	False	0
83.647	0.503	84.15	0.7065530765530761	draw_card	0.503	columbia_card_task_fmri	15.0	0.8125	89.0	-70.0	0.1875	16.0	1.0	3.0	0.3810092221432768	0.503	n/a	stim	poldrack-single-stim	s602	False	1
84.152	0.258	84.41	-0.3559469234469239	draw_card	0.258	columbia_card_task_fmri	15.0	0.8	89.0	-70.0	0.2	16.0	2.0	3.0	1.203472555812226	0.258	n/a	stim	poldrack-single-stim	s602	False	1
84.412	0.21	84.622	-1.5702326377326392	draw_card	0.21	columbia_card_task_fmri	15.0	0.7857142857142857	89.0	-70.0	0.2142857142857142	16.0	3.0	3.0	2.0801757647900416	0.21	n/a	stim	poldrack-single-stim	s602	False	1
84.625	0.688	85.313	-2.9713315388315404	draw_card	0.688	columbia_card_task_fmri	15.0	0.7692307692307692	89.0	-70.0	0.2307692307692307	16.0	4.0	3.0	3.014092812841021	0.688	n/a	stim	poldrack-single-stim	s602	False	1
85.315	0.576	85.891	-4.605946923446924	draw_card	0.576	columbia_card_task_fmri	15.0	0.75	89.0	-70.0	0.25	16.0	5.0	3.0	4.006526704568962	0.576	n/a	stim	poldrack-single-stim	s602	False	1
85.893	0.672	86.565	-6.537765105265104	draw_card	0.672	columbia_card_task_fmri	15.0	0.7272727272727273	89.0	-70.0	0.2727272727272727	16.0	6.0	3.0	5.055180962906661	0.672	n/a	stim	poldrack-single-stim	s602	False	1
86.568	0.434	87.002	-8.855946923446924	draw_card	0.434	columbia_card_task_fmri	15.0	0.7	89.0	-70.0	0.3	16.0	7.0	3.0	6.150320543968505	0.434	n/a	stim	poldrack-single-stim	s602	False	1
87.003	0.7	87.703	-11.689280256780254	end_round	0.7	columbia_card_task_fmri	15.0	0.6666666666666667	71.0	-70.0	0.3333333333333333	16.0	8.0	3.0	7.2668450403238865	0.7	7.0	stim	poldrack-single-stim	s602	False	1
88.46	1.5	87.709	n/a	-1.0	2.59	columbia_card_task_fmri	n/a	n/a	-1.0	n/a	n/a	n/a	n/a	n/a	n/a	n/a	n/a	ITI	poldrack-single-stim	s602	False	0
90.303	1.019	91.322	7.644053076553076	draw_card	1.019	columbia_card_task_fmri	30.0	0.7	89.0	-50.0	0.3	10.0	1.0	3.0	3.8611980877303154	1.019	n/a	stim	poldrack-single-stim	s602	False	1
91.324	0.267	91.591	4.977386409886416	draw_card	0.267	columbia_card_task_fmri	30.0	0.6666666666666667	89.0	-50.0	0.3333333333333333	10.0	2.0	3.0	4.9119276015224855	0.267	n/a	stim	poldrack-single-stim	s602	False	1
91.593	0.226	91.819	1.644053076553076	draw_card	0.226	columbia_card_task_fmri	30.0	0.625	89.0	-50.0	0.375	10.0	3.0	3.0	5.928459260819018	0.226	n/a	stim	poldrack-single-stim	s602	False	1
91.821	0.193	92.014	-2.6416612091612084	draw_card	0.193	columbia_card_task_fmri	30.0	0.5714285714285714	89.0	-50.0	0.4285714285714285	10.0	4.0	3.0	6.78760162793602	0.193	n/a	stim	poldrack-single-stim	s602	False	1
92.015	0.949	92.964	-8.355946923446924	end_round	0.949	columbia_card_task_fmri	30.0	0.5	71.0	-50.0	0.5	10.0	5.0	3.0	7.197519203794172	0.949	4.0	stim	poldrack-single-stim	s602	False	1
93.718	1.5	92.967	n/a	-1.0	2.318	columbia_card_task_fmri	n/a	n/a	-1.0	n/a	n/a	n/a	n/a	n/a	n/a	n/a	n/a	ITI	poldrack-single-stim	s602	False	0
95.287	0.54	95.827	7.044053076553077	draw_card	0.54	columbia_card_task_fmri	17.0	0.8666666666666667	89.0	-70.0	0.1333333333333333	15.0	1.0	2.0	-3.216278063914551	0.54	n/a	stim	poldrack-single-stim	s602	False	1
95.83	0.196	96.026	6.215481647981649	draw_card	0.196	columbia_card_task_fmri	17.0	0.8571428571428572	89.0	-70.0	0.1428571428571428	15.0	2.0	2.0	-2.348234994846603	0.196	n/a	stim	poldrack-single-stim	s602	False	1
96.029	0.185	96.214	5.259437691937691	draw_card	0.185	columbia_card_task_fmri	17.0	0.8461538461538461	89.0	-70.0	0.1538461538461538	15.0	3.0	2.0	-1.4035228454434083	0.185	n/a	stim	poldrack-single-stim	s602	False	1
96.217	0.175	96.392	4.144053076553078	draw_card	0.175	columbia_card_task_fmri	17.0	0.8333333333333334	89.0	-70.0	0.1666666666666666	15.0	4.0	2.0	-0.3716119937404372	0.175	n/a	stim	poldrack-single-stim	s602	False	1
96.394	1.34	97.734	2.825871258371256	draw_card	1.34	columbia_card_task_fmri	17.0	0.8181818181818181	89.0	-70.0	0.1818181818181818	15.0	5.0	2.0	0.7594291331756864	1.34	n/a	stim	poldrack-single-stim	s602	False	1
97.738	0.366	98.104	1.2440530765530775	draw_card	0.366	columbia_card_task_fmri	17.0	0.8	89.0	-70.0	0.2	15.0	6.0	2.0	2.0025603558205347	0.366	n/a	stim	poldrack-single-stim	s602	False	1
98.107	0.393	98.5	-0.6892802567802561	end_round	0.393	columbia_card_task_fmri	17.0	0.7777777777777778	71.0	-70.0	0.2222222222222222	15.0	7.0	2.0	3.3704471876832187	0.393	6.0	stim	poldrack-single-stim	s602	False	1
99.253	1.5	98.502	n/a	-1.0	2.59	columbia_card_task_fmri	n/a	n/a	-1.0	n/a	n/a	n/a	n/a	n/a	n/a	n/a	n/a	ITI	poldrack-single-stim	s602	False	0
101.096	0.54	101.636	2.2690530765530763	draw_card	0.54	columbia_card_task_fmri	7.0	0.9375	89.0	-95.0	0.0625	16.0	1.0	1.0	-8.091308275037154	0.54	n/a	stim	poldrack-single-stim	s602	False	1
101.638	0.22	101.858	1.8440530765530765	draw_card	0.22	columbia_card_task_fmri	7.0	0.9333333333333332	89.0	-95.0	0.0666666666666666	16.0	2.0	1.0	-7.339921605844722	0.22	n/a	stim	poldrack-single-stim	s602	False	1
101.861	0.211	102.072	1.3583387908387905	draw_card	0.211	columbia_card_task_fmri	7.0	0.9285714285714286	89.0	-95.0	0.0714285714285714	16.0	3.0	1.0	-6.515840024876876	0.211	n/a	stim	poldrack-single-stim	s602	False	1
102.076	0.473	102.549	0.7978992303992294	draw_card	0.473	columbia_card_task_fmri	7.0	0.9230769230769232	89.0	-95.0	0.0769230769230769	16.0	4.0	1.0	-5.606701461909225	0.473	n/a	stim	poldrack-single-stim	s602	False	1
102.551	0.232	102.783	0.1440530765530761	draw_card	0.232	columbia_card_task_fmri	7.0	0.9166666666666666	89.0	-95.0	0.0833333333333333	16.0	5.0	1.0	-4.597044176177931	0.232	n/a	stim	poldrack-single-stim	s602	False	1
102.786	0.198	102.984	-0.6286741961741973	draw_card	0.198	columbia_card_task_fmri	7.0	0.9090909090909092	89.0	-95.0	0.0909090909090909	16.0	6.0	1.0	-3.467262109635005	0.198	n/a	stim	poldrack-single-stim	s602	False	1
102.987	0.283	103.27	-1.555946923446924	draw_card	0.283	columbia_card_task_fmri	7.0	0.9	89.0	-95.0	0.1	16.0	7.0	1.0	-2.1921195422450666	0.283	n/a	stim	poldrack-single-stim	s602	False	1
103.272	0.331	103.603	-2.6892802567802576	draw_card	0.331	columbia_card_task_fmri	7.0	0.8888888888888888	89.0	-95.0	0.1111111111111111	16.0	8.0	1.0	-0.7386133490430637	0.331	n/a	stim	poldrack-single-stim	s602	False	1
103.606	0.21	103.816	-4.105946923446924	draw_card	0.21	columbia_card_task_fmri	7.0	0.875	89.0	-95.0	0.125	16.0	9.0	1.0	0.9371154413146598	0.21	n/a	stim	poldrack-single-stim	s602	False	1
103.819	1.965	105.784	-5.927375494875495	draw_card	1.965	columbia_card_task_fmri	7.0	0.8571428571428572	89.0	-95.0	0.1428571428571428	16.0	10.0	1.0	2.8941556158627364	1.965	n/a	stim	poldrack-single-stim	s602	False	1
105.787	0.491	106.278	-8.355946923446922	draw_card	0.491	columbia_card_task_fmri	7.0	0.8333333333333334	89.0	-95.0	0.1666666666666666	16.0	11.0	1.0	5.212438390776867	0.491	n/a	stim	poldrack-single-stim	s602	False	1
106.281	0.945	107.226	-11.755946923446922	end_round	0.945	columbia_card_task_fmri	7.0	0.8	71.0	-95.0	0.2	16.0	12.0	1.0	7.996857547593677	0.945	11.0	stim	poldrack-single-stim	s602	False	1
107.983	1.5	107.232	n/a	-1.0	2.386	columbia_card_task_fmri	n/a	n/a	-1.0	n/a	n/a	n/a	n/a	n/a	n/a	n/a	n/a	ITI	poldrack-single-stim	s602	False	0
109.622	0.693	110.315	3.831553076553076	draw_card	0.693	columbia_card_task_fmri	9.0	0.9375	89.0	-100.0	0.0625	16.0	1.0	1.0	-6.4003823228398105	0.693	n/a	stim	poldrack-single-stim	s602	False	1
110.317	0.212	110.529	3.3773864098864097	draw_card	0.212	columbia_card_task_fmri	9.0	0.9333333333333332	89.0	-100.0	0.0666666666666666	16.0	2.0	1.0	-5.5972159931766825	0.212	n/a	stim	poldrack-single-stim	s602	False	1
110.532	0.208	110.74	2.858338790838792	draw_card	0.208	columbia_card_task_fmri	9.0	0.9285714285714286	89.0	-100.0	0.0714285714285714	16.0	3.0	1.0	-4.716359238099045	0.208	n/a	stim	poldrack-single-stim	s602	False	1
110.741	0.198	110.939	2.259437691937692	draw_card	0.198	columbia_card_task_fmri	9.0	0.9230769230769232	89.0	-100.0	0.0769230769230769	16.0	4.0	1.0	-3.7446009859647615	0.198	n/a	stim	poldrack-single-stim	s602	False	1
110.942	0.16	111.102	1.560719743219744	draw_card	0.16	columbia_card_task_fmri	9.0	0.9166666666666666	89.0	-100.0	0.0833333333333333	16.0	5.0	1.0	-2.665417675293625	0.16	n/a	stim	poldrack-single-stim	s602	False	1
111.106	0.676	111.782	0.734962167462166	end_round	0.676	columbia_card_task_fmri	9.0	0.9090909090909092	71.0	-100.0	0.0909090909090909	16.0	6.0	1.0	-1.457856897914365	0.676	5.0	stim	poldrack-single-stim	s602	False	1
112.536	1.5	111.785	n/a	-1.0	2.318	columbia_card_task_fmri	n/a	n/a	-1.0	n/a	n/a	n/a	n/a	n/a	n/a	n/a	n/a	ITI	poldrack-single-stim	s602	False	0
114.106	0.58	114.686	4.769053076553076	draw_card	0.58	columbia_card_task_fmri	15.0	0.875	89.0	-80.0	0.125	16.0	1.0	2.0	-1.3749705959681826	0.58	n/a	stim	poldrack-single-stim	s602	False	1
114.689	0.202	114.891	3.97738640988641	draw_card	0.202	columbia_card_task_fmri	15.0	0.8666666666666667	89.0	-80.0	0.1333333333333333	16.0	2.0	2.0	-0.5006409826940157	0.202	n/a	stim	poldrack-single-stim	s602	False	1
114.894	0.194	115.088	3.072624505124507	draw_card	0.194	columbia_card_task_fmri	15.0	0.8571428571428572	89.0	-80.0	0.1428571428571428	16.0	3.0	2.0	0.4474510698821063	0.194	n/a	stim	poldrack-single-stim	s602	False	1
115.09	0.191	115.281	2.02866846116846	draw_card	0.191	columbia_card_task_fmri	15.0	0.8461538461538461	89.0	-80.0	0.1538461538461538	16.0	4.0	2.0	1.47926807960269	0.191	n/a	stim	poldrack-single-stim	s602	False	1
115.284	0.183	115.467	0.8107197432197439	draw_card	0.183	columbia_card_task_fmri	15.0	0.8333333333333334	89.0	-80.0	0.1666666666666666	16.0	5.0	2.0	2.606308114564463	0.183	n/a	stim	poldrack-single-stim	s602	False	1
115.469	0.184	115.653	-0.6286741961741991	draw_card	0.184	columbia_card_task_fmri	15.0	0.8181818181818181	89.0	-80.0	0.1818181818181818	16.0	6.0	2.0	3.841599987931645	0.184	n/a	stim	poldrack-single-stim	s602	False	1
115.656	0.595	116.251	-2.355946923446924	end_round	0.595	columbia_card_task_fmri	15.0	0.8	71.0	-80.0	0.2	16.0	7.0	2.0	5.19929506425818	0.595	6.0	stim	poldrack-single-stim	s602	False	1
117.006	1.5	116.255	n/a	-1.0	2.318	columbia_card_task_fmri	n/a	n/a	-1.0	n/a	n/a	n/a	n/a	n/a	n/a	n/a	n/a	ITI	poldrack-single-stim	s602	False	0
118.583	0.624	119.207	6.894053076553076	draw_card	0.624	columbia_card_task_fmri	16.0	0.875	89.0	-70.0	0.125	16.0	1.0	2.0	-4.34694948034408	0.624	n/a	stim	poldrack-single-stim	s602	False	1
119.209	0.197	119.406	6.1773864098864095	draw_card	0.197	columbia_card_task_fmri	16.0	0.8666666666666667	89.0	-70.0	0.1333333333333333	16.0	2.0	2.0	-3.5556825812152653	0.197	2.0	stim	poldrack-single-stim	s602	False	0
120.16	1.5	119.409	n/a	-1.0	2.318	columbia_card_task_fmri	n/a	n/a	-1.0	n/a	n/a	n/a	n/a	n/a	n/a	n/a	n/a	ITI	poldrack-single-stim	s602	False	0
121.73	0.401	122.131	8.206553076553076	draw_card	0.401	columbia_card_task_fmri	30.0	0.6875	89.0	-45.0	0.3125	16.0	1.0	5.0	1.966031548372804	0.401	n/a	stim	poldrack-single-stim	s602	False	1
122.134	0.502	122.636	6.64405307655308	end_round	0.502	columbia_card_task_fmri	30.0	0.6666666666666667	71.0	-45.0	0.3333333333333333	16.0	2.0	5.0	2.557290424325906	0.502	1.0	stim	poldrack-single-stim	s602	False	1
123.392	1.5	122.641	n/a	-1.0	2.386	columbia_card_task_fmri	n/a	n/a	-1.0	n/a	n/a	n/a	n/a	n/a	n/a	n/a	n/a	ITI	poldrack-single-stim	s602	False	0
125.031	0.466	125.497	-0.0226135901135899	draw_card	0.466	columbia_card_task_fmri	13.0	0.8333333333333334	89.0	-75.0	0.1666666666666666	6.0	1.0	1.0	0.0005932444229372	0.466	n/a	stim	poldrack-single-stim	s602	False	1
125.498	0.248	125.746	-2.955946923446924	draw_card	0.248	columbia_card_task_fmri	13.0	0.8	89.0	-75.0	0.2	6.0	2.0	1.0	2.4021197789045843	0.248	n/a	stim	poldrack-single-stim	s602	False	1
125.749	1.76	127.509	-7.355946923446924	end_round	1.76	columbia_card_task_fmri	13.0	0.75	71.0	-75.0	0.25	6.0	3.0	1.0	5.304314858451498	1.76	2.0	stim	poldrack-single-stim	s602	False	1
128.263	1.5	127.512	n/a	-1.0	2.25	columbia_card_task_fmri	n/a	n/a	-1.0	n/a	n/a	n/a	n/a	n/a	n/a	n/a	n/a	ITI	poldrack-single-stim	s602	False	0
129.765	0.946	130.711	1.644053076553078	draw_card	0.946	columbia_card_task_fmri	14.0	0.8333333333333334	89.0	-70.0	0.1666666666666666	6.0	1.0	1.0	-1.4881603070099274	0.946	n/a	stim	poldrack-single-stim	s602	False	1
130.717	0.191	130.908	-1.1559469234469228	draw_card	0.191	columbia_card_task_fmri	14.0	0.8	89.0	-70.0	0.2	6.0	2.0	1.0	0.8039449163571106	0.191	n/a	stim	poldrack-single-stim	s602	False	1
130.91	0.21	131.12	-5.355946923446924	draw_card	0.21	columbia_card_task_fmri	14.0	0.75	89.0	-70.0	0.25	6.0	3.0	1.0	3.5739504640129454	0.21	n/a	stim	poldrack-single-stim	s602	False	1
131.124	0.681	131.805	-12.355946923446922	end_round	0.681	columbia_card_task_fmri	14.0	0.6666666666666667	71.0	-70.0	0.3333333333333333	6.0	4.0	1.0	6.795841529580478	0.681	3.0	stim	poldrack-single-stim	s602	False	1
132.559	1.5	131.808	n/a	-1.0	2.386	columbia_card_task_fmri	n/a	n/a	-1.0	n/a	n/a	n/a	n/a	n/a	n/a	n/a	n/a	ITI	poldrack-single-stim	s602	False	0
134.199	0.594	134.793	1.644053076553078	draw_card	0.594	columbia_card_task_fmri	16.0	0.8333333333333334	89.0	-80.0	0.1666666666666666	6.0	1.0	1.0	2.978589121618157	0.594	n/a	stim	poldrack-single-stim	s602	False	1
134.795	0.183	134.978	-1.5559469234469232	draw_card	0.183	columbia_card_task_fmri	16.0	0.8	89.0	-80.0	0.2	6.0	2.0	1.0	5.598925113439904	0.183	n/a	stim	poldrack-single-stim	s602	False	1
134.982	0.17	135.152	-6.355946923446924	draw_card	0.17	columbia_card_task_fmri	16.0	0.75	89.0	-80.0	0.25	6.0	3.0	1.0	8.765464718308905	0.17	3.0	stim	poldrack-single-stim	s602	False	0
135.907	1.5	135.156	n/a	-1.0	2.59	columbia_card_task_fmri	n/a	n/a	-1.0	n/a	n/a	n/a	n/a	n/a	n/a	n/a	n/a	ITI	poldrack-single-stim	s602	False	0
137.749	0.465	138.214	4.144053076553078	draw_card	0.465	columbia_card_task_fmri	17.0	0.8333333333333334	89.0	-70.0	0.1666666666666666	6.0	1.0	1.0	-0.3716119937404372	0.465	n/a	stim	poldrack-single-stim	s602	False	1
138.216	0.225	138.441	1.2440530765530775	draw_card	0.225	columbia_card_task_fmri	17.0	0.8	89.0	-70.0	0.2	6.0	2.0	1.0	2.0025603558205347	0.225	n/a	stim	poldrack-single-stim	s602	False	1
138.444	0.518	138.962	-3.105946923446924	end_round	0.518	columbia_card_task_fmri	17.0	0.75	71.0	-70.0	0.25	6.0	3.0	1.0	4.871709242695644	0.518	2.0	stim	poldrack-single-stim	s602	False	1
139.716	1.5	138.965	n/a	-1.0	2.658	columbia_card_task_fmri	n/a	n/a	-1.0	n/a	n/a	n/a	n/a	n/a	n/a	n/a	n/a	ITI	poldrack-single-stim	s602	False	0
141.629	0.466	142.095	4.144053076553076	draw_card	0.466	columbia_card_task_fmri	25.0	0.75	89.0	-65.0	0.25	8.0	1.0	2.0	6.169553192185212	0.466	n/a	stim	poldrack-single-stim	s602	False	1
142.098	0.459	142.557	0.9297673622673645	end_round	0.459	columbia_card_task_fmri	25.0	0.7142857142857143	71.0	-65.0	0.2857142857142857	8.0	2.0	2.0	7.85482884183957	0.459	1.0	stim	poldrack-single-stim	s602	False	1
143.311	1.5	142.56	n/a	-1.0	2.386	columbia_card_task_fmri	n/a	n/a	-1.0	n/a	n/a	n/a	n/a	n/a	n/a	n/a	n/a	ITI	poldrack-single-stim	s602	False	0
144.949	0.477	145.426	4.144053076553076	draw_card	0.477	columbia_card_task_fmri	30.0	0.75	89.0	-80.0	0.25	8.0	1.0	2.0	14.823509043827606	0.477	n/a	stim	poldrack-single-stim	s602	False	1
145.431	0.182	145.613	0.2154816479816526	draw_card	0.182	columbia_card_task_fmri	30.0	0.7142857142857143	89.0	-80.0	0.2857142857142857	8.0	2.0	2.0	16.88387042606312	0.182	n/a	stim	poldrack-single-stim	s602	False	1
145.616	0.669	146.285	-5.022613590113584	end_round	0.669	columbia_card_task_fmri	30.0	0.6666666666666667	71.0	-80.0	0.3333333333333333	8.0	3.0	2.0	19.044300270298717	0.669	2.0	stim	poldrack-single-stim	s602	False	1
147.038	1.5	146.287	n/a	-1.0	2.386	columbia_card_task_fmri	n/a	n/a	-1.0	n/a	n/a	n/a	n/a	n/a	n/a	n/a	n/a	ITI	poldrack-single-stim	s602	False	0
148.677	0.459	149.136	3.844053076553077	draw_card	0.459	columbia_card_task_fmri	13.0	0.9	89.0	-95.0	0.1	10.0	1.0	1.0	-0.3945681537767669	0.459	1.0	stim	poldrack-single-stim	s602	False	0
149.89	1.5	149.139	n/a	-1.0	2.25	columbia_card_task_fmri	n/a	n/a	-1.0	n/a	n/a	n/a	n/a	n/a	n/a	n/a	n/a	ITI	poldrack-single-stim	s602	False	0
151.392	0.647	152.039	5.244053076553076	draw_card	0.647	columbia_card_task_fmri	14.0	0.9	89.0	-90.0	0.1	10.0	1.0	1.0	-1.5929670737136623	0.647	n/a	stim	poldrack-single-stim	s602	False	1
152.042	0.219	152.261	4.088497520997519	draw_card	0.219	columbia_card_task_fmri	14.0	0.8888888888888888	89.0	-90.0	0.1111111111111111	10.0	2.0	1.0	-0.110883188691659	0.219	n/a	stim	poldrack-single-stim	s602	False	1
152.264	0.187	152.451	2.6440530765530763	draw_card	0.187	columbia_card_task_fmri	14.0	0.875	89.0	-90.0	0.125	10.0	3.0	1.0	1.5977841722156398	0.187	n/a	stim	poldrack-single-stim	s602	False	1
152.454	0.869	153.323	0.7869102194102202	draw_card	0.869	columbia_card_task_fmri	14.0	0.8571428571428572	89.0	-90.0	0.1428571428571428	10.0	4.0	1.0	3.5932828131172343	0.869	n/a	stim	poldrack-single-stim	s602	False	1
153.325	0.204	153.529	-1.689280256780256	draw_card	0.204	columbia_card_task_fmri	14.0	0.8333333333333334	89.0	-90.0	0.1666666666666666	10.0	5.0	1.0	5.957111624518674	0.204	n/a	stim	poldrack-single-stim	s602	False	1
153.533	0.622	154.155	-5.155946923446923	end_round	0.622	columbia_card_task_fmri	14.0	0.8	71.0	-90.0	0.2	10.0	6.0	1.0	8.79622130935055	0.622	5.0	stim	poldrack-single-stim	s602	False	1
154.91	1.5	154.159	n/a	-1.0	2.318	columbia_card_task_fmri	n/a	n/a	-1.0	n/a	n/a	n/a	n/a	n/a	n/a	n/a	n/a	ITI	poldrack-single-stim	s602	False	0
156.48	1.161	157.641	0.4440530765530768	draw_card	1.161	columbia_card_task_fmri	16.0	0.8	89.0	-70.0	0.2	10.0	1.0	2.0	1.603011161395159	1.161	n/a	stim	poldrack-single-stim	s602	False	1
157.644	0.175	157.819	-1.4670580345580346	draw_card	0.175	columbia_card_task_fmri	16.0	0.7777777777777778	89.0	-70.0	0.2222222222222222	10.0	2.0	2.0	2.955141270788588	0.175	2.0	stim	poldrack-single-stim	s602	False	0
158.572	1.5	157.821	n/a	-1.0	2.25	columbia_card_task_fmri	n/a	n/a	-1.0	n/a	n/a	n/a	n/a	n/a	n/a	n/a	n/a	ITI	poldrack-single-stim	s602	False	0
160.074	0.58	160.654	-0.27261359011359	draw_card	0.58	columbia_card_task_fmri	7.0	0.9166666666666666	89.0	-100.0	0.0833333333333333	12.0	1.0	1.0	-3.217351870770898	0.58	n/a	stim	poldrack-single-stim	s602	False	1
160.656	0.213	160.869	-1.0832196507196523	draw_card	0.213	columbia_card_task_fmri	7.0	0.9090909090909092	89.0	-100.0	0.0909090909090909	12.0	2.0	1.0	-2.032012017474297	0.213	n/a	stim	poldrack-single-stim	s602	False	1
160.872	0.184	161.056	-2.055946923446924	draw_card	0.184	columbia_card_task_fmri	7.0	0.9	89.0	-100.0	0.1	12.0	3.0	1.0	-0.6941790841156745	0.184	n/a	stim	poldrack-single-stim	s602	False	1
161.058	0.154	161.212	-3.244835812335813	draw_card	0.154	columbia_card_task_fmri	7.0	0.8888888888888888	89.0	-100.0	0.1111111111111111	12.0	4.0	1.0	0.8307686674224826	0.154	n/a	stim	poldrack-single-stim	s602	False	1
161.216	0.554	161.77	-4.730946923446924	end_round	0.554	columbia_card_task_fmri	7.0	0.875	71.0	-100.0	0.125	12.0	5.0	1.0	2.588841087872872	0.554	4.0	stim	poldrack-single-stim	s602	False	1
162.524	1.5	161.773	n/a	-1.0	2.25	columbia_card_task_fmri	n/a	n/a	-1.0	n/a	n/a	n/a	n/a	n/a	n/a	n/a	n/a	ITI	poldrack-single-stim	s602	False	0
164.027	0.479	164.506	-0.0226135901135882	draw_card	0.479	columbia_card_task_fmri	14.0	0.8333333333333334	89.0	-80.0	0.1666666666666666	12.0	1.0	2.0	2.2340355403102734	0.479	1.0	stim	poldrack-single-stim	s602	False	0
165.259	1.5	164.508	n/a	-1.0	2.386	columbia_card_task_fmri	n/a	n/a	-1.0	n/a	n/a	n/a	n/a	n/a	n/a	n/a	n/a	ITI	poldrack-single-stim	s602	False	0
166.898	0.526	167.424	1.644053076553076	draw_card	0.526	columbia_card_task_fmri	15.0	0.8333333333333334	89.0	-75.0	0.1666666666666666	12.0	1.0	2.0	0.7450351802103796	0.526	n/a	stim	poldrack-single-stim	s602	False	1
167.428	0.21	167.638	0.280416712916711	draw_card	0.21	columbia_card_task_fmri	15.0	0.8181818181818181	89.0	-75.0	0.1818181818181818	12.0	2.0	2.0	1.9151727795819864	0.21	n/a	stim	poldrack-single-stim	s602	False	1
167.641	0.163	167.804	-1.355946923446924	draw_card	0.163	columbia_card_task_fmri	15.0	0.8	89.0	-75.0	0.2	12.0	3.0	2.0	3.2012679501394103	0.163	n/a	stim	poldrack-single-stim	s602	False	1
167.808	0.603	168.411	-3.355946923446922	end_round	0.603	columbia_card_task_fmri	15.0	0.7777777777777778	71.0	-75.0	0.2222222222222222	12.0	4.0	2.0	4.616422691545573	0.603	3.0	stim	poldrack-single-stim	s602	False	1
169.167	1.5	168.416	n/a	-1.0	2.386	columbia_card_task_fmri	n/a	n/a	-1.0	n/a	n/a	n/a	n/a	n/a	n/a	n/a	n/a	ITI	poldrack-single-stim	s602	False	0
170.805	0.388	171.193	0.6440530765530761	draw_card	0.388	columbia_card_task_fmri	15.0	0.8	89.0	-65.0	0.2	15.0	1.0	3.0	-0.7940477762901494	0.388	n/a	stim	poldrack-single-stim	s602	False	1
171.196	0.191	171.387	-0.4988040663040662	draw_card	0.191	columbia_card_task_fmri	15.0	0.7857142857142857	89.0	-65.0	0.2142857142857142	15.0	2.0	3.0	0.0309637385267862	0.191	2.0	stim	poldrack-single-stim	s602	False	0
172.14	1.5	171.389	n/a	-1.0	2.726	columbia_card_task_fmri	n/a	n/a	-1.0	n/a	n/a	n/a	n/a	n/a	n/a	n/a	n/a	ITI	poldrack-single-stim	s602	False	0
174.119	0.475	174.594	-0.1059469234469239	draw_card	0.475	columbia_card_task_fmri	14.0	0.8125	89.0	-70.0	0.1875	16.0	1.0	3.0	-0.0088191112108049	0.475	n/a	stim	poldrack-single-stim	s602	False	1
174.597	0.196	174.793	-1.1559469234469228	draw_card	0.196	columbia_card_task_fmri	14.0	0.8	89.0	-70.0	0.2	16.0	2.0	3.0	0.8039449163571106	0.196	n/a	stim	poldrack-single-stim	s602	False	1
174.796	0.16	174.956	-2.355946923446924	draw_card	0.16	columbia_card_task_fmri	14.0	0.7857142857142857	89.0	-70.0	0.2142857142857142	16.0	3.0	3.0	1.6703103755235915	0.16	n/a	stim	poldrack-single-stim	s602	False	1
174.96	0.577	175.537	-3.7405623080623087	end_round	0.577	columbia_card_task_fmri	14.0	0.7692307692307692	71.0	-70.0	0.2307692307692307	16.0	4.0	3.0	2.59321629934972	0.577	3.0	stim	poldrack-single-stim	s602	False	1
176.293	1.5	175.542	n/a	-1.0	2.454	columbia_card_task_fmri	n/a	n/a	-1.0	n/a	n/a	n/a	n/a	n/a	n/a	n/a	n/a	ITI	poldrack-single-stim	s602	False	0
178.001	0.404	178.405	-0.1684469234469239	draw_card	0.404	columbia_card_task_fmri	11.0	0.6875	89.0	-30.0	0.3125	16.0	1.0	5.0	-13.761262638466924	0.404	1.0	stim	poldrack-single-stim	s602	False	0
179.16	1.5	178.409	n/a	-1.0	2.318	columbia_card_task_fmri	n/a	n/a	-1.0	n/a	n/a	n/a	n/a	n/a	n/a	n/a	n/a	ITI	poldrack-single-stim	s602	False	0
180.73	0.488	181.218	4.644053076553076	draw_card	0.488	columbia_card_task_fmri	15.0	0.8666666666666667	89.0	-75.0	0.1333333333333333	15.0	1.0	2.0	-2.197993986541612	0.488	n/a	stim	poldrack-single-stim	s602	False	1
181.222	0.213	181.435	3.786910219410221	draw_card	0.213	columbia_card_task_fmri	15.0	0.8571428571428572	89.0	-75.0	0.1428571428571428	15.0	2.0	2.0	-1.299930287736668	0.213	n/a	stim	poldrack-single-stim	s602	False	1
181.439	0.172	181.611	2.7978992303992296	draw_card	0.172	columbia_card_task_fmri	15.0	0.8461538461538461	89.0	-75.0	0.1538461538461538	15.0	3.0	2.0	-0.3225514959329416	0.172	n/a	stim	poldrack-single-stim	s602	False	1
181.615	0.663	182.278	1.644053076553076	draw_card	0.663	columbia_card_task_fmri	15.0	0.8333333333333334	89.0	-75.0	0.1666666666666666	15.0	4.0	2.0	0.7450351802103796	0.663	n/a	stim	poldrack-single-stim	s602	False	1
182.281	0.196	182.477	0.280416712916711	draw_card	0.196	columbia_card_task_fmri	15.0	0.8181818181818181	89.0	-75.0	0.1818181818181818	15.0	5.0	2.0	1.9151727795819864	0.196	n/a	stim	poldrack-single-stim	s602	False	1
182.482	1.041	183.523	-1.355946923446924	draw_card	1.041	columbia_card_task_fmri	15.0	0.8	89.0	-75.0	0.2	15.0	6.0	2.0	3.2012679501394103	1.041	n/a	stim	poldrack-single-stim	s602	False	1
183.526	0.434	183.96	-3.355946923446922	draw_card	0.434	columbia_card_task_fmri	15.0	0.7777777777777778	89.0	-75.0	0.2222222222222222	15.0	7.0	2.0	4.616422691545573	0.434	n/a	stim	poldrack-single-stim	s602	False	1
183.963	0.559	184.522	-5.855946923446924	end_round	0.559	columbia_card_task_fmri	15.0	0.75	71.0	-75.0	0.25	15.0	8.0	2.0	6.169553192185212	0.559	7.0	stim	poldrack-single-stim	s602	False	1
185.278	1.5	184.527	n/a	-1.0	2.318	columbia_card_task_fmri	n/a	n/a	-1.0	n/a	n/a	n/a	n/a	n/a	n/a	n/a	n/a	ITI	poldrack-single-stim	s602	False	0
186.849	0.484	187.333	6.377386409886411	draw_card	0.484	columbia_card_task_fmri	17.0	0.8666666666666667	89.0	-75.0	0.1333333333333333	15.0	1.0	2.0	-1.5190829856832906	0.484	1.0	stim	poldrack-single-stim	s602	False	0
188.088	1.5	187.337	n/a	-1.0	2.59	columbia_card_task_fmri	n/a	n/a	-1.0	n/a	n/a	n/a	n/a	n/a	n/a	n/a	n/a	ITI	poldrack-single-stim	s602	False	0
189.931	0.349	190.28	1.956553076553076	draw_card	0.349	columbia_card_task_fmri	2.0	0.9375	89.0	-25.0	0.0625	16.0	1.0	1.0	-26.09698335582233	0.349	n/a	stim	poldrack-single-stim	s602	False	1
190.283	0.193	190.476	1.844053076553076	draw_card	0.193	columbia_card_task_fmri	2.0	0.9333333333333332	89.0	-25.0	0.0666666666666666	16.0	2.0	1.0	-25.903511001511465	0.193	2.0	stim	poldrack-single-stim	s602	False	0
191.23	1.5	190.479	n/a	-1.0	2.726	columbia_card_task_fmri	n/a	n/a	-1.0	n/a	n/a	n/a	n/a	n/a	n/a	n/a	n/a	ITI	poldrack-single-stim	s602	False	0
193.209	0.435	193.644	4.144053076553076	draw_card	0.435	columbia_card_task_fmri	9.0	0.9375	89.0	-95.0	0.0625	16.0	1.0	1.0	-7.608234557838301	0.435	n/a	stim	poldrack-single-stim	s602	False	1
193.648	0.149	193.797	3.710719743219744	draw_card	0.149	columbia_card_task_fmri	9.0	0.9333333333333332	89.0	-95.0	0.0666666666666666	16.0	2.0	1.0	-6.842052296860977	0.149	n/a	stim	poldrack-single-stim	s602	False	1
193.799	0.189	193.988	3.2154816479816484	draw_card	0.189	columbia_card_task_fmri	9.0	0.9285714285714286	89.0	-95.0	0.0714285714285714	16.0	3.0	1.0	-6.001747789827476	0.189	n/a	stim	poldrack-single-stim	s602	False	1
193.991	0.155	194.146	2.6440530765530763	draw_card	0.155	columbia_card_task_fmri	9.0	0.9230769230769232	89.0	-95.0	0.0769230769230769	16.0	4.0	1.0	-5.074716390516318	0.155	n/a	stim	poldrack-single-stim	s602	False	1
194.15	0.5	194.65	1.97738640988641	end_round	0.5	columbia_card_task_fmri	9.0	0.9166666666666666	71.0	-95.0	0.0833333333333333	16.0	5.0	1.0	-4.045192976007478	0.5	4.0	stim	poldrack-single-stim	s602	False	1
195.404	1.5	194.653	n/a	-1.0	2.522	columbia_card_task_fmri	n/a	n/a	-1.0	n/a	n/a	n/a	n/a	n/a	n/a	n/a	n/a	ITI	poldrack-single-stim	s602	False	0
197.179	0.42	197.599	5.706553076553076	draw_card	0.42	columbia_card_task_fmri	11.0	0.9375	89.0	-100.0	0.0625	16.0	1.0	1.0	-5.917179677611234	0.42	n/a	stim	poldrack-single-stim	s602	False	1
197.602	0.199	197.801	5.244053076553077	draw_card	0.199	columbia_card_task_fmri	11.0	0.9333333333333332	89.0	-100.0	0.0666666666666666	16.0	2.0	1.0	-5.099221527331238	0.199	n/a	stim	poldrack-single-stim	s602	False	1
197.804	0.17	197.974	4.715481647981649	draw_card	0.17	columbia_card_task_fmri	11.0	0.9285714285714286	89.0	-100.0	0.0714285714285714	16.0	3.0	1.0	-4.202145737305308	0.17	n/a	stim	poldrack-single-stim	s602	False	1
197.978	0.156	198.134	4.105591538091539	draw_card	0.156	columbia_card_task_fmri	11.0	0.9230769230769232	89.0	-100.0	0.0769230769230769	16.0	4.0	1.0	-3.212498671077185	0.156	n/a	stim	poldrack-single-stim	s602	False	1
198.138	0.52	198.658	3.3940530765530763	end_round	0.52	columbia_card_task_fmri	11.0	0.9166666666666666	71.0	-100.0	0.0833333333333333	16.0	5.0	1.0	-2.1134533979265164	0.52	4.0	stim	poldrack-single-stim	s602	False	1
199.416	1.5	198.665	n/a	-1.0	3.134	columbia_card_task_fmri	n/a	n/a	-1.0	n/a	n/a	n/a	n/a	n/a	n/a	n/a	n/a	ITI	poldrack-single-stim	s602	False	0
201.804	0.588	202.392	6.269053076553076	draw_card	0.588	columbia_card_task_fmri	16.0	0.875	89.0	-75.0	0.125	16.0	1.0	2.0	-2.695959532669278	0.588	n/a	stim	poldrack-single-stim	s602	False	1
202.395	0.61	203.005	5.510719743219744	end_round	0.61	columbia_card_task_fmri	16.0	0.8666666666666667	71.0	-75.0	0.1333333333333333	16.0	2.0	2.0	-1.8585437401929676	0.61	1.0	stim	poldrack-single-stim	s602	False	1
203.759	1.5	203.008	n/a	-1.0	2.386	columbia_card_task_fmri	n/a	n/a	-1.0	n/a	n/a	n/a	n/a	n/a	n/a	n/a	n/a	ITI	poldrack-single-stim	s602	False	0
205.398	0.469	205.867	6.519053076553076	draw_card	0.469	columbia_card_task_fmri	17.0	0.875	89.0	-80.0	0.125	16.0	1.0	2.0	-0.7144178934721808	0.469	n/a	stim	poldrack-single-stim	s602	False	1
205.872	0.195	206.067	5.7107197432197445	draw_card	0.195	columbia_card_task_fmri	17.0	0.8666666666666667	89.0	-80.0	0.1333333333333333	16.0	2.0	2.0	0.1783670640674159	0.195	n/a	stim	poldrack-single-stim	s602	False	1
206.07	0.143	206.213	4.786910219410222	draw_card	0.143	columbia_card_task_fmri	17.0	0.8571428571428572	89.0	-80.0	0.1428571428571428	16.0	3.0	2.0	1.1464685638413885	0.143	n/a	stim	poldrack-single-stim	s602	False	1
206.216	0.486	206.702	3.720976153476153	end_round	0.486	columbia_card_task_fmri	17.0	0.8461538461538461	71.0	-80.0	0.1538461538461538	16.0	4.0	2.0	2.200058917200998	0.486	3.0	stim	poldrack-single-stim	s602	False	1
207.46	1.5	206.709	n/a	-1.0	2.386	columbia_card_task_fmri	n/a	n/a	-1.0	n/a	n/a	n/a	n/a	n/a	n/a	n/a	n/a	ITI	poldrack-single-stim	s602	False	0
220.107	2.049	222.156	0.8107197432197439	draw_card	2.049	columbia_card_task_fmri	13.0	0.8333333333333334	89.0	-70.0	0.1666666666666666	6.0	1.0	1.0	-1.860319261291604	2.049	n/a	stim	poldrack-single-stim	s602	False	1
222.16	1.018	223.178	-1.955946923446924	end_round	1.018	columbia_card_task_fmri	13.0	0.8	71.0	-70.0	0.2	6.0	2.0	1.0	0.4044286384432638	1.018	1.0	stim	poldrack-single-stim	s602	False	1
223.936	1.5	223.185	n/a	-1.0	2.318	columbia_card_task_fmri	n/a	n/a	-1.0	n/a	n/a	n/a	n/a	n/a	n/a	n/a	n/a	ITI	poldrack-single-stim	s602	False	0
225.508	1.082	226.59	0.8107197432197439	draw_card	1.082	columbia_card_task_fmri	15.0	0.8333333333333334	89.0	-80.0	0.1666666666666666	6.0	1.0	1.0	2.606308114564463	1.082	n/a	stim	poldrack-single-stim	s602	False	1
226.593	0.65	227.243	-2.355946923446924	draw_card	0.65	columbia_card_task_fmri	15.0	0.8	89.0	-80.0	0.2	6.0	2.0	1.0	5.19929506425818	0.65	n/a	stim	poldrack-single-stim	s602	False	1
227.246	0.447	227.693	-7.105946923446924	draw_card	0.447	columbia_card_task_fmri	15.0	0.75	89.0	-80.0	0.25	6.0	3.0	1.0	8.332793831876785	0.447	n/a	stim	poldrack-single-stim	s602	False	1
227.697	0.65	228.347	-15.022613590113588	end_round	0.65	columbia_card_task_fmri	15.0	0.6666666666666667	71.0	-80.0	0.3333333333333333	6.0	4.0	1.0	11.977343967645972	0.65	3.0	stim	poldrack-single-stim	s602	False	1
229.102	1.5	228.351	n/a	-1.0	2.318	columbia_card_task_fmri	n/a	n/a	-1.0	n/a	n/a	n/a	n/a	n/a	n/a	n/a	n/a	ITI	poldrack-single-stim	s602	False	0
230.673	0.539	231.212	2.4773864098864102	draw_card	0.539	columbia_card_task_fmri	16.0	0.8333333333333334	89.0	-75.0	0.1666666666666666	6.0	1.0	1.0	1.1172711880756625	0.539	n/a	stim	poldrack-single-stim	s602	False	1
231.216	0.29	231.506	-0.5559469234469232	draw_card	0.29	columbia_card_task_fmri	16.0	0.8	89.0	-75.0	0.2	6.0	2.0	1.0	3.6008560551251847	0.29	n/a	stim	poldrack-single-stim	s602	False	1
231.51	0.997	232.507	-5.105946923446924	end_round	0.997	columbia_card_task_fmri	16.0	0.75	71.0	-75.0	0.25	6.0	3.0	1.0	6.602185315568498	0.997	2.0	stim	poldrack-single-stim	s602	False	1
233.262	1.5	232.511	n/a	-1.0	2.862	columbia_card_task_fmri	n/a	n/a	-1.0	n/a	n/a	n/a	n/a	n/a	n/a	n/a	n/a	ITI	poldrack-single-stim	s602	False	0
235.377	1.034	236.411	3.644053076553076	end_round	1.034	columbia_card_task_fmri	21.0	0.75	71.0	-55.0	0.25	8.0	1.0	2.0	0.1137533086831155	1.034	0.0	stim	poldrack-single-stim	s602	False	1
237.168	1.5	236.417	n/a	-1.0	2.726	columbia_card_task_fmri	n/a	n/a	-1.0	n/a	n/a	n/a	n/a	n/a	n/a	n/a	n/a	ITI	poldrack-single-stim	s602	False	0
239.147	0.456	239.603	4.894053076553076	draw_card	0.456	columbia_card_task_fmri	26.0	0.75	89.0	-65.0	0.25	8.0	1.0	2.0	6.602185315568498	0.456	1.0	stim	poldrack-single-stim	s602	False	0
240.358	1.5	239.607	n/a	-1.0	2.25	columbia_card_task_fmri	n/a	n/a	-1.0	n/a	n/a	n/a	n/a	n/a	n/a	n/a	n/a	ITI	poldrack-single-stim	s602	False	0
241.862	0.673	242.535	-0.0226135901135899	draw_card	0.673	columbia_card_task_fmri	15.0	0.7777777777777778	89.0	-60.0	0.2222222222222222	9.0	1.0	2.0	-1.6124617873555351	0.673	n/a	stim	poldrack-single-stim	s602	False	1
242.538	0.225	242.763	-2.105946923446924	draw_card	0.225	columbia_card_task_fmri	15.0	0.75	89.0	-60.0	0.25	9.0	2.0	2.0	-0.3187128766497054	0.225	n/a	stim	poldrack-single-stim	s602	False	1
242.768	0.186	242.954	-4.784518352018351	draw_card	0.186	columbia_card_task_fmri	15.0	0.7142857142857143	89.0	-60.0	0.2857142857142857	9.0	3.0	2.0	1.0851576364951825	0.186	n/a	stim	poldrack-single-stim	s602	False	1
242.958	0.507	243.465	-8.355946923446922	end_round	0.507	columbia_card_task_fmri	15.0	0.6666666666666667	71.0	-60.0	0.3333333333333333	9.0	4.0	2.0	2.557290424325906	0.507	3.0	stim	poldrack-single-stim	s602	False	1
244.222	1.5	243.471	n/a	-1.0	2.318	columbia_card_task_fmri	n/a	n/a	-1.0	n/a	n/a	n/a	n/a	n/a	n/a	n/a	n/a	ITI	poldrack-single-stim	s602	False	0
245.795	0.509	246.304	4.344053076553077	draw_card	0.509	columbia_card_task_fmri	13.0	0.9	89.0	-90.0	0.1	10.0	1.0	1.0	-1.8925474134968208	0.509	n/a	stim	poldrack-single-stim	s602	False	1
246.308	0.19	246.498	3.199608632108632	draw_card	0.19	columbia_card_task_fmri	13.0	0.8888888888888888	89.0	-90.0	0.1111111111111111	10.0	2.0	1.0	-0.4247521894437653	0.19	n/a	stim	poldrack-single-stim	s602	False	1
246.503	0.208	246.711	1.769053076553076	draw_card	0.208	columbia_card_task_fmri	13.0	0.875	89.0	-90.0	0.125	10.0	3.0	1.0	1.267446079794233	0.208	n/a	stim	poldrack-single-stim	s602	False	1
246.715	0.551	247.266	-0.0702326377326356	end_round	0.551	columbia_card_task_fmri	13.0	0.8571428571428572	71.0	-90.0	0.1428571428571428	10.0	4.0	1.0	3.243715690788278	0.551	3.0	stim	poldrack-single-stim	s602	False	1
248.025	1.5	247.274	n/a	-1.0	2.454	columbia_card_task_fmri	n/a	n/a	-1.0	n/a	n/a	n/a	n/a	n/a	n/a	n/a	n/a	ITI	poldrack-single-stim	s602	False	0
249.732	0.684	250.416	5.644053076553076	draw_card	0.684	columbia_card_task_fmri	15.0	0.9	89.0	-95.0	0.1	10.0	1.0	1.0	0.2046748888573546	0.684	n/a	stim	poldrack-single-stim	s602	False	1
250.42	0.296	250.716	4.421830854330853	draw_card	0.296	columbia_card_task_fmri	15.0	0.8888888888888888	89.0	-95.0	0.1111111111111111	10.0	2.0	1.0	1.7724835328508632	0.296	n/a	stim	poldrack-single-stim	s602	False	1
250.72	0.589	251.309	2.8940530765530763	end_round	0.589	columbia_card_task_fmri	15.0	0.875	71.0	-95.0	0.125	10.0	3.0	1.0	3.5799578997047163	0.589	2.0	stim	poldrack-single-stim	s602	False	1
252.066	1.5	251.315	n/a	-1.0	2.522	columbia_card_task_fmri	n/a	n/a	-1.0	n/a	n/a	n/a	n/a	n/a	n/a	n/a	n/a	ITI	poldrack-single-stim	s602	False	0
253.842	0.384	254.226	1.4440530765530768	draw_card	0.384	columbia_card_task_fmri	16.0	0.8	89.0	-65.0	0.2	10.0	1.0	2.0	-0.3945681537767669	0.384	n/a	stim	poldrack-single-stim	s602	False	1
254.23	0.209	254.439	-0.3559469234469221	draw_card	0.209	columbia_card_task_fmri	16.0	0.7777777777777778	89.0	-65.0	0.2222222222222222	10.0	2.0	2.0	0.8787720758254594	0.209	n/a	stim	poldrack-single-stim	s602	False	1
254.444	0.171	254.615	-2.605946923446924	draw_card	0.171	columbia_card_task_fmri	16.0	0.75	89.0	-65.0	0.25	10.0	3.0	2.0	2.2762862998725524	0.171	n/a	stim	poldrack-single-stim	s602	False	1
254.62	0.856	255.476	-5.498804066304064	end_round	0.856	columbia_card_task_fmri	16.0	0.7142857142857143	71.0	-65.0	0.2857142857142857	10.0	4.0	2.0	3.792731536323679	0.856	3.0	stim	poldrack-single-stim	s602	False	1
256.232	1.5	255.481	n/a	-1.0	2.318	columbia_card_task_fmri	n/a	n/a	-1.0	n/a	n/a	n/a	n/a	n/a	n/a	n/a	n/a	ITI	poldrack-single-stim	s602	False	0
257.803	0.438	258.241	0.1440530765530761	draw_card	0.438	columbia_card_task_fmri	7.0	0.9166666666666666	89.0	-95.0	0.0833333333333333	12.0	1.0	1.0	-4.597044176177931	0.438	n/a	stim	poldrack-single-stim	s602	False	1
258.246	0.181	258.427	-0.6286741961741973	draw_card	0.181	columbia_card_task_fmri	7.0	0.9090909090909092	89.0	-95.0	0.0909090909090909	12.0	2.0	1.0	-3.467262109635005	0.181	n/a	stim	poldrack-single-stim	s602	False	1
258.43	0.163	258.593	-1.555946923446924	draw_card	0.163	columbia_card_task_fmri	7.0	0.9	89.0	-95.0	0.1	12.0	3.0	1.0	-2.1921195422450666	0.163	3.0	stim	poldrack-single-stim	s602	False	0
259.35	1.5	258.599	n/a	-1.0	2.522	columbia_card_task_fmri	n/a	n/a	-1.0	n/a	n/a	n/a	n/a	n/a	n/a	n/a	n/a	ITI	poldrack-single-stim	s602	False	0
261.126	0.438	261.564	0.8107197432197439	draw_card	0.438	columbia_card_task_fmri	14.0	0.8333333333333334	89.0	-75.0	0.1666666666666666	12.0	1.0	2.0	0.3728090866084628	0.438	n/a	stim	poldrack-single-stim	s602	False	1
261.568	0.187	261.755	-0.5377651052651073	draw_card	0.187	columbia_card_task_fmri	14.0	0.8181818181818181	89.0	-75.0	0.1818181818181818	12.0	2.0	2.0	1.529914875967279	0.187	2.0	stim	poldrack-single-stim	s602	False	0
262.512	1.5	261.761	n/a	-1.0	2.998	columbia_card_task_fmri	n/a	n/a	-1.0	n/a	n/a	n/a	n/a	n/a	n/a	n/a	n/a	ITI	poldrack-single-stim	s602	False	0
264.764	0.51	265.274	2.4773864098864102	draw_card	0.51	columbia_card_task_fmri	15.0	0.8333333333333334	89.0	-70.0	0.1666666666666666	12.0	1.0	2.0	-1.1159891648815758	0.51	n/a	stim	poldrack-single-stim	s602	False	1
265.278	0.6	265.878	1.1895076220076193	end_round	0.6	columbia_card_task_fmri	15.0	0.8181818181818181	71.0	-70.0	0.1818181818181818	12.0	2.0	2.0	-0.0110141714365568	0.6	1.0	stim	poldrack-single-stim	s602	False	1
266.632	1.5	265.881	n/a	-1.0	2.318	columbia_card_task_fmri	n/a	n/a	-1.0	n/a	n/a	n/a	n/a	n/a	n/a	n/a	n/a	ITI	poldrack-single-stim	s602	False	0
268.203	0.441	268.644	0.4440530765530768	draw_card	0.441	columbia_card_task_fmri	16.0	0.8	89.0	-70.0	0.2	15.0	1.0	3.0	1.603011161395159	0.441	n/a	stim	poldrack-single-stim	s602	False	1
268.648	0.208	268.856	-0.7845183520183527	draw_card	0.208	columbia_card_task_fmri	16.0	0.7857142857142857	89.0	-70.0	0.2142857142857142	15.0	2.0	3.0	2.490051846079893	0.208	n/a	stim	poldrack-single-stim	s602	False	1
268.86	0.164	269.024	-2.2021007696007704	draw_card	0.164	columbia_card_task_fmri	16.0	0.7692307692307692	89.0	-70.0	0.2307692307692307	15.0	3.0	3.0	3.4349797410140823	0.164	n/a	stim	poldrack-single-stim	s602	False	1
269.027	0.504	269.531	-3.855946923446924	end_round	0.504	columbia_card_task_fmri	16.0	0.75	71.0	-70.0	0.25	15.0	4.0	3.0	4.439113080401931	0.504	3.0	stim	poldrack-single-stim	s602	False	1
270.29	1.5	269.539	n/a	-1.0	2.25	columbia_card_task_fmri	n/a	n/a	-1.0	n/a	n/a	n/a	n/a	n/a	n/a	n/a	n/a	ITI	poldrack-single-stim	s602	False	0
271.792	0.531	272.323	0.8315530765530761	draw_card	0.531	columbia_card_task_fmri	14.0	0.8125	89.0	-65.0	0.1875	16.0	1.0	3.0	-1.9577773387267143	0.531	1.0	stim	poldrack-single-stim	s602	False	0
273.082	1.5	272.331	n/a	-1.0	2.454	columbia_card_task_fmri	n/a	n/a	-1.0	n/a	n/a	n/a	n/a	n/a	n/a	n/a	n/a	ITI	poldrack-single-stim	s602	False	0
274.79	0.396	275.186	0.5815530765530761	draw_card	0.396	columbia_card_task_fmri	16.0	0.8125	89.0	-75.0	0.1875	16.0	1.0	3.0	2.7202022494405824	0.396	n/a	stim	poldrack-single-stim	s602	False	1
275.189	0.214	275.403	-0.5559469234469232	draw_card	0.214	columbia_card_task_fmri	16.0	0.8	89.0	-75.0	0.2	16.0	2.0	3.0	3.6008560551251847	0.214	n/a	stim	poldrack-single-stim	s602	False	1
275.407	0.191	275.598	-1.855946923446922	draw_card	0.191	columbia_card_task_fmri	16.0	0.7857142857142857	89.0	-75.0	0.2142857142857142	16.0	3.0	3.0	4.539580321063305	0.191	n/a	stim	poldrack-single-stim	s602	False	1
275.602	0.135	275.737	-3.3559469234469272	draw_card	0.135	columbia_card_task_fmri	16.0	0.7692307692307692	89.0	-75.0	0.2307692307692307	16.0	4.0	3.0	5.53955860838736	0.135	4.0	stim	poldrack-single-stim	s602	False	0
276.494	1.5	275.743	n/a	-1.0	2.318	columbia_card_task_fmri	n/a	n/a	-1.0	n/a	n/a	n/a	n/a	n/a	n/a	n/a	n/a	ITI	poldrack-single-stim	s602	False	0
278.066	0.504	278.57	4.844053076553077	draw_card	0.504	columbia_card_task_fmri	16.0	0.8666666666666667	89.0	-80.0	0.1333333333333333	15.0	1.0	2.0	-0.1611414363239376	0.504	n/a	stim	poldrack-single-stim	s602	False	1
278.574	0.205	278.779	3.929767362267365	draw_card	0.205	columbia_card_task_fmri	16.0	0.8571428571428572	89.0	-80.0	0.1428571428571428	15.0	2.0	2.0	0.7969554667659438	0.205	n/a	stim	poldrack-single-stim	s602	False	1
278.783	0.192	278.975	2.8748223073223063	draw_card	0.192	columbia_card_task_fmri	16.0	0.8461538461538461	89.0	-80.0	0.1538461538461538	15.0	3.0	2.0	1.839659278514532	0.192	n/a	stim	poldrack-single-stim	s602	False	1
278.979	0.399	279.378	1.644053076553078	end_round	0.399	columbia_card_task_fmri	16.0	0.8333333333333334	71.0	-80.0	0.1666666666666666	15.0	4.0	2.0	2.978589121618157	0.399	3.0	stim	poldrack-single-stim	s602	False	1
280.136	1.5	279.385	n/a	-1.0	2.318	columbia_card_task_fmri	n/a	n/a	-1.0	n/a	n/a	n/a	n/a	n/a	n/a	n/a	n/a	ITI	poldrack-single-stim	s602	False	0
281.708	0.509	282.217	5.7107197432197445	draw_card	0.509	columbia_card_task_fmri	17.0	0.8666666666666667	89.0	-80.0	0.1333333333333333	15.0	1.0	2.0	0.1783670640674159	0.509	n/a	stim	poldrack-single-stim	s602	False	1
282.221	0.212	282.433	4.786910219410222	draw_card	0.212	columbia_card_task_fmri	17.0	0.8571428571428572	89.0	-80.0	0.1428571428571428	15.0	2.0	2.0	1.1464685638413885	0.212	n/a	stim	poldrack-single-stim	s602	False	1
282.437	0.186	282.623	3.720976153476153	draw_card	0.186	columbia_card_task_fmri	17.0	0.8461538461538461	89.0	-80.0	0.1538461538461538	15.0	3.0	2.0	2.200058917200998	0.186	n/a	stim	poldrack-single-stim	s602	False	1
282.626	0.189	282.815	2.477386409886412	draw_card	0.189	columbia_card_task_fmri	17.0	0.8333333333333334	89.0	-80.0	0.1666666666666666	15.0	4.0	2.0	3.350878301209974	0.189	4.0	stim	poldrack-single-stim	s602	False	0
283.571	1.5	282.82	n/a	-1.0	2.59	columbia_card_task_fmri	n/a	n/a	-1.0	n/a	n/a	n/a	n/a	n/a	n/a	n/a	n/a	ITI	poldrack-single-stim	s602	False	0
285.413	0.359	285.772	1.644053076553076	draw_card	0.359	columbia_card_task_fmri	1.0	0.9375	89.0	-15.0	0.0625	16.0	1.0	1.0	-28.62877023882825	0.359	n/a	stim	poldrack-single-stim	s602	False	1
285.775	0.207	285.982	1.5773864098864094	draw_card	0.207	columbia_card_task_fmri	1.0	0.9333333333333332	89.0	-15.0	0.0666666666666666	16.0	2.0	1.0	-28.51979610901608	0.207	n/a	stim	poldrack-single-stim	s602	False	1
285.986	0.194	286.18	1.5011959336959333	draw_card	0.194	columbia_card_task_fmri	1.0	0.9285714285714286	89.0	-15.0	0.0714285714285714	16.0	3.0	1.0	-28.399756289914563	0.194	n/a	stim	poldrack-single-stim	s602	False	1
286.183	0.53	286.713	1.4132838457838452	draw_card	0.53	columbia_card_task_fmri	1.0	0.9230769230769232	89.0	-15.0	0.0769230769230769	16.0	4.0	1.0	-28.266742519012897	0.53	n/a	stim	poldrack-single-stim	s602	False	1
286.716	0.344	287.06	1.3107197432197428	draw_card	0.344	columbia_card_task_fmri	1.0	0.9166666666666666	89.0	-15.0	0.0833333333333333	16.0	5.0	1.0	-28.11836503799516	0.344	n/a	stim	poldrack-single-stim	s602	False	1
287.063	0.585	287.648	1.1895076220076213	end_round	0.585	columbia_card_task_fmri	1.0	0.9090909090909092	71.0	-15.0	0.0909090909090909	16.0	6.0	1.0	-27.951589645550403	0.585	5.0	stim	poldrack-single-stim	s602	False	1
288.407	1.5	287.656	n/a	-1.0	2.25	columbia_card_task_fmri	n/a	n/a	-1.0	n/a	n/a	n/a	n/a	n/a	n/a	n/a	n/a	ITI	poldrack-single-stim	s602	False	0
289.909	0.672	290.581	4.769053076553076	draw_card	0.672	columbia_card_task_fmri	10.0	0.9375	89.0	-100.0	0.0625	16.0	1.0	1.0	-6.158785171365299	0.672	n/a	stim	poldrack-single-stim	s602	False	1
290.584	0.203	290.787	4.310719743219743	draw_card	0.203	columbia_card_task_fmri	10.0	0.9333333333333332	89.0	-100.0	0.0666666666666666	16.0	2.0	1.0	-5.348222809292789	0.203	n/a	stim	poldrack-single-stim	s602	False	1
290.791	0.196	290.987	3.786910219410221	draw_card	0.196	columbia_card_task_fmri	10.0	0.9285714285714286	89.0	-100.0	0.0714285714285714	16.0	3.0	1.0	-4.459256410765303	0.196	n/a	stim	poldrack-single-stim	s602	False	1
290.991	0.178	291.169	3.1825146150146155	draw_card	0.178	columbia_card_task_fmri	10.0	0.9230769230769232	89.0	-100.0	0.0769230769230769	16.0	4.0	1.0	-3.478553621372143	0.178	n/a	stim	poldrack-single-stim	s602	False	1
291.173	1.013	292.186	2.4773864098864102	draw_card	1.013	columbia_card_task_fmri	10.0	0.9166666666666666	89.0	-100.0	0.0833333333333333	16.0	5.0	1.0	-2.3894391945955213	1.013	n/a	stim	poldrack-single-stim	s602	False	1
292.189	0.188	292.377	1.6440530765530743	draw_card	0.188	columbia_card_task_fmri	10.0	0.9090909090909092	89.0	-100.0	0.0909090909090909	16.0	6.0	1.0	-1.1707683907505242	0.188	n/a	stim	poldrack-single-stim	s602	False	1
292.381	0.507	292.888	0.6440530765530761	end_round	0.507	columbia_card_task_fmri	10.0	0.9	71.0	-100.0	0.1	16.0	7.0	1.0	0.2046748888573546	0.507	6.0	stim	poldrack-single-stim	s602	False	1
293.644	1.5	292.893	n/a	-1.0	2.25	columbia_card_task_fmri	n/a	n/a	-1.0	n/a	n/a	n/a	n/a	n/a	n/a	n/a	n/a	ITI	poldrack-single-stim	s602	False	0
295.147	0.52	295.667	5.394053076553076	end_round	0.52	columbia_card_task_fmri	15.0	0.875	71.0	-75.0	0.125	16.0	1.0	2.0	-3.02618062094551	0.52	0.0	stim	poldrack-single-stim	s602	False	1
296.423	1.5	295.672	n/a	-1.0	2.522	columbia_card_task_fmri	n/a	n/a	-1.0	n/a	n/a	n/a	n/a	n/a	n/a	n/a	n/a	ITI	poldrack-single-stim	s602	False	0
298.197	0.393	298.59	5.644053076553076	draw_card	0.393	columbia_card_task_fmri	16.0	0.875	89.0	-80.0	0.125	16.0	1.0	2.0	-1.0446988454984982	0.393	n/a	stim	poldrack-single-stim	s602	False	1
298.594	0.195	298.789	4.844053076553077	draw_card	0.195	columbia_card_task_fmri	16.0	0.8666666666666667	89.0	-80.0	0.1333333333333333	16.0	2.0	2.0	-0.1611414363239376	0.195	n/a	stim	poldrack-single-stim	s602	False	1
298.794	0.163	298.957	3.929767362267365	draw_card	0.163	columbia_card_task_fmri	16.0	0.8571428571428572	89.0	-80.0	0.1428571428571428	16.0	3.0	2.0	0.7969554667659438	0.163	n/a	stim	poldrack-single-stim	s602	False	1
298.961	0.14	299.101	2.8748223073223063	draw_card	0.14	columbia_card_task_fmri	16.0	0.8461538461538461	89.0	-80.0	0.1538461538461538	16.0	4.0	2.0	1.839659278514532	0.14	n/a	stim	poldrack-single-stim	s602	False	1
299.104	0.5	299.604	1.644053076553078	end_round	0.5	columbia_card_task_fmri	16.0	0.8333333333333334	71.0	-80.0	0.1666666666666666	16.0	5.0	2.0	2.978589121618157	0.5	4.0	stim	poldrack-single-stim	s602	False	1
300.361	1.5	299.61	n/a	-1.0	2.454	columbia_card_task_fmri	n/a	n/a	-1.0	n/a	n/a	n/a	n/a	n/a	n/a	n/a	n/a	ITI	poldrack-single-stim	s602	False	0
302.069	0.375	302.444	2.8315530765530763	draw_card	0.375	columbia_card_task_fmri	4.0	0.6875	89.0	-5.0	0.3125	16.0	1.0	5.0	-28.35236462277901	0.375	n/a	stim	poldrack-single-stim	s602	False	1
302.448	0.17	302.618	2.6440530765530763	draw_card	0.17	columbia_card_task_fmri	4.0	0.6666666666666667	89.0	-5.0	0.3333333333333333	16.0	2.0	5.0	-28.286207809030397	0.17	n/a	stim	poldrack-single-stim	s602	False	1
302.623	0.194	302.817	2.429767362267361	draw_card	0.194	columbia_card_task_fmri	4.0	0.6428571428571428	89.0	-5.0	0.3571428571428571	16.0	3.0	5.0	-28.221076944235563	0.194	n/a	stim	poldrack-single-stim	s602	False	1
302.821	0.141	302.962	2.182514615014614	draw_card	0.141	columbia_card_task_fmri	4.0	0.6153846153846154	89.0	-5.0	0.3846153846153846	16.0	4.0	5.0	-28.15923376835988	0.141	4.0	stim	poldrack-single-stim	s602	False	0
303.719	1.5	302.968	n/a	-1.0	2.25	columbia_card_task_fmri	n/a	n/a	-1.0	n/a	n/a	n/a	n/a	n/a	n/a	n/a	n/a	ITI	poldrack-single-stim	s602	False	0
305.222	0.783	306.005	-0.0226135901135882	draw_card	0.783	columbia_card_task_fmri	14.0	0.8333333333333334	89.0	-80.0	0.1666666666666666	6.0	1.0	1.0	2.2340355403102734	0.783	n/a	stim	poldrack-single-stim	s602	False	1
306.01	0.194	306.204	-3.155946923446922	draw_card	0.194	columbia_card_task_fmri	14.0	0.8	89.0	-80.0	0.2	6.0	2.0	1.0	4.799672875221141	0.194	n/a	stim	poldrack-single-stim	s602	False	1
306.209	0.47	306.679	-7.855946923446924	end_round	0.47	columbia_card_task_fmri	14.0	0.75	71.0	-80.0	0.25	6.0	3.0	1.0	7.900130209321261	0.47	2.0	stim	poldrack-single-stim	s602	False	1
307.434	1.5	306.683	n/a	-1.0	2.454	columbia_card_task_fmri	n/a	n/a	-1.0	n/a	n/a	n/a	n/a	n/a	n/a	n/a	n/a	ITI	poldrack-single-stim	s602	False	0
309.142	0.42	309.562	1.644053076553076	draw_card	0.42	columbia_card_task_fmri	15.0	0.8333333333333334	89.0	-75.0	0.1666666666666666	6.0	1.0	1.0	0.7450351802103796	0.42	n/a	stim	poldrack-single-stim	s602	False	1
309.566	1.469	311.035	-1.355946923446924	end_round	1.469	columbia_card_task_fmri	15.0	0.8	71.0	-75.0	0.2	6.0	2.0	1.0	3.2012679501394103	1.469	1.0	stim	poldrack-single-stim	s602	False	1
311.79	1.5	311.039	n/a	-1.0	2.454	columbia_card_task_fmri	n/a	n/a	-1.0	n/a	n/a	n/a	n/a	n/a	n/a	n/a	n/a	ITI	poldrack-single-stim	s602	False	0
313.5	0.437	313.937	3.310719743219744	draw_card	0.437	columbia_card_task_fmri	16.0	0.8333333333333334	89.0	-70.0	0.1666666666666666	6.0	1.0	1.0	-0.7438062589282595	0.437	n/a	stim	poldrack-single-stim	s602	False	1
313.941	0.18	314.121	0.4440530765530768	draw_card	0.18	columbia_card_task_fmri	16.0	0.8	89.0	-70.0	0.2	6.0	2.0	1.0	1.603011161395159	0.18	n/a	stim	poldrack-single-stim	s602	False	1
314.124	0.547	314.671	-3.855946923446924	end_round	0.547	columbia_card_task_fmri	16.0	0.75	71.0	-70.0	0.25	6.0	3.0	1.0	4.439113080401931	0.547	2.0	stim	poldrack-single-stim	s602	False	1
315.431	1.5	314.68	n/a	-1.0	2.522	columbia_card_task_fmri	n/a	n/a	-1.0	n/a	n/a	n/a	n/a	n/a	n/a	n/a	n/a	ITI	poldrack-single-stim	s602	False	0
317.206	0.494	317.7	3.894053076553076	draw_card	0.494	columbia_card_task_fmri	23.0	0.75	89.0	-60.0	0.25	8.0	1.0	2.0	3.141384724317632	0.494	n/a	stim	poldrack-single-stim	s602	False	1
317.705	0.804	318.509	0.9297673622673645	end_round	0.804	columbia_card_task_fmri	23.0	0.7142857142857143	71.0	-60.0	0.2857142857142857	8.0	2.0	2.0	4.6953508002047	0.804	1.0	stim	poldrack-single-stim	s602	False	1
319.265	1.5	318.514	n/a	-1.0	2.454	columbia_card_task_fmri	n/a	n/a	-1.0	n/a	n/a	n/a	n/a	n/a	n/a	n/a	n/a	ITI	poldrack-single-stim	s602	False	0
320.976	0.359	321.335	4.394053076553076	draw_card	0.359	columbia_card_task_fmri	27.0	0.75	89.0	-70.0	0.25	8.0	1.0	2.0	9.19814264431077	0.359	n/a	stim	poldrack-single-stim	s602	False	1
321.34	0.158	321.498	0.9297673622673608	draw_card	0.158	columbia_card_task_fmri	27.0	0.7142857142857143	89.0	-70.0	0.2857142857142857	8.0	2.0	2.0	11.014710491160542	0.158	n/a	stim	poldrack-single-stim	s602	False	1
321.502	0.419	321.921	-3.689280256780252	end_round	0.419	columbia_card_task_fmri	27.0	0.6666666666666667	71.0	-70.0	0.3333333333333333	8.0	3.0	2.0	12.919531406578711	0.419	2.0	stim	poldrack-single-stim	s602	False	1
322.68	1.5	321.929	n/a	-1.0	2.658	columbia_card_task_fmri	n/a	n/a	-1.0	n/a	n/a	n/a	n/a	n/a	n/a	n/a	n/a	ITI	poldrack-single-stim	s602	False	0
324.591	0.408	324.999	-0.3559469234469221	draw_card	0.408	columbia_card_task_fmri	16.0	0.7777777777777778	89.0	-65.0	0.2222222222222222	9.0	1.0	2.0	0.8787720758254594	0.408	n/a	stim	poldrack-single-stim	s602	False	1
325.004	0.165	325.169	-2.605946923446924	draw_card	0.165	columbia_card_task_fmri	16.0	0.75	89.0	-65.0	0.25	9.0	2.0	2.0	2.2762862998725524	0.165	2.0	stim	poldrack-single-stim	s602	False	0
325.924	1.5	325.173	n/a	-1.0	2.386	columbia_card_task_fmri	n/a	n/a	-1.0	n/a	n/a	n/a	n/a	n/a	n/a	n/a	n/a	ITI	poldrack-single-stim	s602	False	0
327.563	0.451	328.014	4.844053076553077	draw_card	0.451	columbia_card_task_fmri	13.0	0.9	89.0	-85.0	0.1	10.0	1.0	1.0	-3.3903209348277663	0.451	n/a	stim	poldrack-single-stim	s602	False	1
328.018	0.174	328.192	3.755164187664187	draw_card	0.174	columbia_card_task_fmri	13.0	0.8888888888888888	89.0	-85.0	0.1111111111111111	10.0	2.0	1.0	-1.9939747883527372	0.174	n/a	stim	poldrack-single-stim	s602	False	1
328.197	1.052	329.249	2.3940530765530763	end_round	1.052	columbia_card_task_fmri	13.0	0.875	71.0	-85.0	0.125	10.0	3.0	1.0	-0.3841280208352984	1.052	2.0	stim	poldrack-single-stim	s602	False	1
330.007	1.5	329.256	n/a	-1.0	2.522	columbia_card_task_fmri	n/a	n/a	-1.0	n/a	n/a	n/a	n/a	n/a	n/a	n/a	n/a	ITI	poldrack-single-stim	s602	False	0
331.783	0.401	332.184	-0.1559469234469228	draw_card	0.401	columbia_card_task_fmri	14.0	0.8	89.0	-65.0	0.2	10.0	1.0	2.0	-1.1935142510388168	0.401	n/a	stim	poldrack-single-stim	s602	False	1
332.188	0.195	332.383	-1.9115024790024773	draw_card	0.195	columbia_card_task_fmri	14.0	0.7777777777777778	89.0	-65.0	0.2222222222222222	10.0	2.0	2.0	0.0483068078577417	0.195	n/a	stim	poldrack-single-stim	s602	False	1
332.387	0.566	332.953	-4.105946923446924	end_round	0.566	columbia_card_task_fmri	14.0	0.75	71.0	-65.0	0.25	10.0	3.0	2.0	1.4112347319191656	0.566	2.0	stim	poldrack-single-stim	s602	False	1
333.71	1.5	332.959	n/a	-1.0	2.59	columbia_card_task_fmri	n/a	n/a	-1.0	n/a	n/a	n/a	n/a	n/a	n/a	n/a	n/a	ITI	poldrack-single-stim	s602	False	0
335.553	0.355	335.908	1.2440530765530775	draw_card	0.355	columbia_card_task_fmri	17.0	0.8	89.0	-70.0	0.2	10.0	1.0	2.0	2.0025603558205347	0.355	n/a	stim	poldrack-single-stim	s602	False	1
335.913	0.178	336.091	-0.6892802567802561	draw_card	0.178	columbia_card_task_fmri	17.0	0.7777777777777778	89.0	-70.0	0.2222222222222222	10.0	2.0	2.0	3.3704471876832187	0.178	n/a	stim	poldrack-single-stim	s602	False	1
336.096	0.162	336.258	-3.105946923446924	draw_card	0.162	columbia_card_task_fmri	17.0	0.75	89.0	-70.0	0.25	10.0	3.0	2.0	4.871709242695644	0.162	n/a	stim	poldrack-single-stim	s602	False	1
336.262	0.647	336.909	-6.213089780589781	end_round	0.647	columbia_card_task_fmri	17.0	0.7142857142857143	71.0	-70.0	0.2857142857142857	10.0	4.0	2.0	6.500711731735912	0.647	3.0	stim	poldrack-single-stim	s602	False	1
337.668	1.5	336.917	n/a	-1.0	2.386	columbia_card_task_fmri	n/a	n/a	-1.0	n/a	n/a	n/a	n/a	n/a	n/a	n/a	n/a	ITI	poldrack-single-stim	s602	False	0
339.309	0.323	339.632	-0.0226135901135899	draw_card	0.323	columbia_card_task_fmri	13.0	0.8333333333333334	89.0	-75.0	0.1666666666666666	12.0	1.0	2.0	0.0005932444229372	0.323	n/a	stim	poldrack-single-stim	s602	False	1
339.636	0.197	339.833	-1.3559469234469257	draw_card	0.197	columbia_card_task_fmri	13.0	0.8181818181818181	89.0	-75.0	0.1818181818181818	12.0	2.0	2.0	1.144666880216505	0.197	n/a	stim	poldrack-single-stim	s602	False	1
339.838	0.161	339.999	-2.955946923446924	draw_card	0.161	columbia_card_task_fmri	13.0	0.8	89.0	-75.0	0.2	12.0	3.0	2.0	2.4021197789045843	0.161	3.0	stim	poldrack-single-stim	s602	False	0
340.755	1.5	340.004	n/a	-1.0	2.59	columbia_card_task_fmri	n/a	n/a	-1.0	n/a	n/a	n/a	n/a	n/a	n/a	n/a	n/a	ITI	poldrack-single-stim	s602	False	0
342.599	0.351	342.95	1.644053076553078	draw_card	0.351	columbia_card_task_fmri	14.0	0.8333333333333334	89.0	-70.0	0.1666666666666666	12.0	1.0	2.0	-1.4881603070099274	0.351	n/a	stim	poldrack-single-stim	s602	False	1
342.955	0.178	343.133	0.3713258038258009	draw_card	0.178	columbia_card_task_fmri	14.0	0.8181818181818181	89.0	-70.0	0.1818181818181818	12.0	2.0	2.0	-0.3962189645155121	0.178	n/a	stim	poldrack-single-stim	s602	False	1
343.138	0.178	343.316	-1.1559469234469228	draw_card	0.178	columbia_card_task_fmri	14.0	0.8	89.0	-70.0	0.2	12.0	3.0	2.0	0.8039449163571106	0.178	n/a	stim	poldrack-single-stim	s602	False	1
343.318	0.165	343.483	-3.0226135901135898	draw_card	0.165	columbia_card_task_fmri	14.0	0.7777777777777778	89.0	-70.0	0.2222222222222222	12.0	4.0	2.0	2.1245603717823585	0.165	n/a	stim	poldrack-single-stim	s602	False	1
343.486	0.479	343.965	-5.355946923446924	end_round	0.479	columbia_card_task_fmri	14.0	0.75	71.0	-70.0	0.25	12.0	5.0	2.0	3.5739504640129454	0.479	4.0	stim	poldrack-single-stim	s602	False	1
344.723	1.5	343.972	n/a	-1.0	2.318	columbia_card_task_fmri	n/a	n/a	-1.0	n/a	n/a	n/a	n/a	n/a	n/a	n/a	n/a	ITI	poldrack-single-stim	s602	False	0
346.295	0.789	347.084	1.644053076553078	end_round	0.789	columbia_card_task_fmri	16.0	0.8333333333333334	71.0	-80.0	0.1666666666666666	12.0	1.0	2.0	2.978589121618157	0.789	0.0	stim	poldrack-single-stim	s602	False	1
347.842	1.5	347.091	n/a	-1.0	2.25	columbia_card_task_fmri	n/a	n/a	-1.0	n/a	n/a	n/a	n/a	n/a	n/a	n/a	n/a	ITI	poldrack-single-stim	s602	False	0
349.346	0.533	349.879	1.4440530765530768	draw_card	0.533	columbia_card_task_fmri	16.0	0.8	89.0	-65.0	0.2	15.0	1.0	3.0	-0.3945681537767669	0.533	n/a	stim	poldrack-single-stim	s602	False	1
349.884	0.199	350.083	0.2869102194102202	draw_card	0.199	columbia_card_task_fmri	16.0	0.7857142857142857	89.0	-65.0	0.2142857142857142	15.0	2.0	3.0	0.4407823105472559	0.199	n/a	stim	poldrack-single-stim	s602	False	1
350.088	0.23	350.318	-1.048254615754617	draw_card	0.23	columbia_card_task_fmri	16.0	0.7692307692307692	89.0	-65.0	0.2307692307692307	15.0	3.0	3.0	1.330653095638752	0.23	n/a	stim	poldrack-single-stim	s602	False	1
350.323	0.192	350.515	-2.605946923446924	draw_card	0.192	columbia_card_task_fmri	16.0	0.75	89.0	-65.0	0.25	15.0	4.0	3.0	2.2762862998725524	0.192	n/a	stim	poldrack-single-stim	s602	False	1
350.518	0.152	350.67	-4.446856014356014	draw_card	0.152	columbia_card_task_fmri	16.0	0.7272727272727273	89.0	-65.0	0.2727272727272727	15.0	5.0	3.0	3.275494231951136	0.152	n/a	stim	poldrack-single-stim	s602	False	1
350.674	0.167	350.841	-6.655946923446924	draw_card	0.167	columbia_card_task_fmri	16.0	0.7	89.0	-65.0	0.3	15.0	6.0	3.0	4.31900122344647	0.167	6.0	stim	poldrack-single-stim	s602	False	0
351.597	1.5	350.846	n/a	-1.0	2.454	columbia_card_task_fmri	n/a	n/a	-1.0	n/a	n/a	n/a	n/a	n/a	n/a	n/a	n/a	ITI	poldrack-single-stim	s602	False	0
353.306	0.496	353.802	-0.2309469234469239	draw_card	0.496	columbia_card_task_fmri	15.0	0.8125	89.0	-75.0	0.1875	16.0	1.0	3.0	2.330311960110329	0.496	n/a	stim	poldrack-single-stim	s602	False	1
353.806	0.192	353.998	-1.355946923446924	draw_card	0.192	columbia_card_task_fmri	15.0	0.8	89.0	-75.0	0.2	16.0	2.0	3.0	3.2012679501394103	0.192	n/a	stim	poldrack-single-stim	s602	False	1
354.003	0.157	354.16	-2.6416612091612084	draw_card	0.157	columbia_card_task_fmri	15.0	0.7857142857142857	89.0	-75.0	0.2142857142857142	16.0	3.0	3.0	4.129655978178803	0.157	n/a	stim	poldrack-single-stim	s602	False	1
354.166	0.165	354.331	-4.125177692677697	draw_card	0.165	columbia_card_task_fmri	15.0	0.7692307692307692	89.0	-75.0	0.2307692307692307	16.0	4.0	3.0	5.118624671004447	0.165	n/a	stim	poldrack-single-stim	s602	False	1
354.336	0.143	354.479	-5.855946923446924	draw_card	0.143	columbia_card_task_fmri	15.0	0.75	89.0	-75.0	0.25	16.0	5.0	3.0	6.169553192185212	0.143	n/a	stim	poldrack-single-stim	s602	False	1
354.484	0.579	355.063	-7.901401468901467	end_round	0.579	columbia_card_task_fmri	15.0	0.7272727272727273	71.0	-75.0	0.2727272727272727	16.0	6.0	3.0	7.280009128048448	0.579	5.0	stim	poldrack-single-stim	s602	False	1
355.819	1.5	355.068	n/a	-1.0	3.27	columbia_card_task_fmri	n/a	n/a	-1.0	n/a	n/a	n/a	n/a	n/a	n/a	n/a	n/a	ITI	poldrack-single-stim	s602	False	0
358.344	0.457	358.801	0.3315530765530761	draw_card	0.457	columbia_card_task_fmri	14.0	0.6875	89.0	-35.0	0.3125	16.0	1.0	5.0	-10.064719062238764	0.457	n/a	stim	poldrack-single-stim	s602	False	1
358.806	0.185	358.991	-0.6892802567802561	draw_card	0.185	columbia_card_task_fmri	14.0	0.6666666666666667	89.0	-35.0	0.3333333333333333	16.0	2.0	5.0	-9.67899777090781	0.185	2.0	stim	poldrack-single-stim	s602	False	0
359.746	1.5	358.995	n/a	-1.0	2.25	columbia_card_task_fmri	n/a	n/a	-1.0	n/a	n/a	n/a	n/a	n/a	n/a	n/a	n/a	ITI	poldrack-single-stim	s602	False	0
361.25	0.52	361.77	5.510719743219744	draw_card	0.52	columbia_card_task_fmri	16.0	0.8666666666666667	89.0	-75.0	0.1333333333333333	15.0	1.0	2.0	-1.8585437401929676	0.52	n/a	stim	poldrack-single-stim	s602	False	1
361.775	0.42	362.195	4.644053076553078	draw_card	0.42	columbia_card_task_fmri	16.0	0.8571428571428572	89.0	-75.0	0.1428571428571428	15.0	2.0	2.0	-0.9504737940037984	0.42	n/a	stim	poldrack-single-stim	s602	False	1
362.2	0.198	362.398	3.644053076553076	draw_card	0.198	columbia_card_task_fmri	16.0	0.8461538461538461	89.0	-75.0	0.1538461538461538	15.0	3.0	2.0	0.0377932330120671	0.198	n/a	stim	poldrack-single-stim	s602	False	1
362.402	0.157	362.559	2.4773864098864102	draw_card	0.157	columbia_card_task_fmri	16.0	0.8333333333333334	89.0	-75.0	0.1666666666666666	15.0	4.0	2.0	1.1172711880756625	0.157	n/a	stim	poldrack-single-stim	s602	False	1
362.564	0.163	362.727	1.0985985310985291	draw_card	0.163	columbia_card_task_fmri	16.0	0.8181818181818181	89.0	-75.0	0.1818181818181818	15.0	5.0	2.0	2.300440265154954	0.163	n/a	stim	poldrack-single-stim	s602	False	1
362.731	0.213	362.944	-0.5559469234469232	draw_card	0.213	columbia_card_task_fmri	16.0	0.8	89.0	-75.0	0.2	15.0	6.0	2.0	3.6008560551251847	0.213	n/a	stim	poldrack-single-stim	s602	False	1
362.948	0.485	363.433	-2.578169145669144	end_round	0.485	columbia_card_task_fmri	16.0	0.7777777777777778	71.0	-75.0	0.2222222222222222	15.0	7.0	2.0	5.031766054859723	0.485	6.0	stim	poldrack-single-stim	s602	False	1
364.188	1.5	363.437	n/a	-1.0	2.25	columbia_card_task_fmri	n/a	n/a	-1.0	n/a	n/a	n/a	n/a	n/a	n/a	n/a	n/a	ITI	poldrack-single-stim	s602	False	0
365.692	0.591	366.283	6.1773864098864095	draw_card	0.591	columbia_card_task_fmri	16.0	0.8666666666666667	89.0	-70.0	0.1333333333333333	15.0	1.0	2.0	-3.5556825812152653	0.591	n/a	stim	poldrack-single-stim	s602	False	1
366.288	0.198	366.486	5.358338790838792	draw_card	0.198	columbia_card_task_fmri	16.0	0.8571428571428572	89.0	-70.0	0.1428571428571428	15.0	2.0	2.0	-2.697647054174041	0.198	n/a	stim	poldrack-single-stim	s602	False	1
366.489	0.165	366.654	4.413283845783845	draw_card	0.165	columbia_card_task_fmri	16.0	0.8461538461538461	89.0	-70.0	0.1538461538461538	15.0	3.0	2.0	-1.7638244683760362	0.165	3.0	stim	poldrack-single-stim	s602	False	0
367.411	1.5	366.66	n/a	-1.0	2.318	columbia_card_task_fmri	n/a	n/a	-1.0	n/a	n/a	n/a	n/a	n/a	n/a	n/a	n/a	ITI	poldrack-single-stim	s602	False	0
368.983	0.361	369.344	3.5190530765530763	draw_card	0.361	columbia_card_task_fmri	8.0	0.9375	89.0	-90.0	0.0625	16.0	1.0	1.0	-9.057327681804503	0.361	n/a	stim	poldrack-single-stim	s602	False	1
369.349	0.172	369.521	3.110719743219743	draw_card	0.172	columbia_card_task_fmri	8.0	0.9333333333333332	89.0	-90.0	0.0666666666666666	16.0	2.0	1.0	-8.335535936514486	0.172	n/a	stim	poldrack-single-stim	s602	False	1
369.526	0.154	369.68	2.644053076553077	draw_card	0.154	columbia_card_task_fmri	8.0	0.9285714285714286	89.0	-90.0	0.0714285714285714	16.0	3.0	1.0	-7.543904067402824	0.154	n/a	stim	poldrack-single-stim	s602	False	1
369.687	0.162	369.849	2.105591538091538	draw_card	0.162	columbia_card_task_fmri	8.0	0.9230769230769232	89.0	-90.0	0.0769230769230769	16.0	4.0	1.0	-6.670555167359016	0.162	n/a	stim	poldrack-single-stim	s602	False	1
369.853	0.157	370.01	1.4773864098864091	draw_card	0.157	columbia_card_task_fmri	8.0	0.9166666666666666	89.0	-90.0	0.0833333333333333	16.0	5.0	1.0	-5.700634272774312	0.157	n/a	stim	poldrack-single-stim	s602	False	1
370.015	0.157	370.172	0.7349621674621669	draw_card	0.157	columbia_card_task_fmri	8.0	0.9090909090909092	89.0	-90.0	0.0909090909090909	16.0	6.0	1.0	-4.615304694583358	0.157	n/a	stim	poldrack-single-stim	s602	False	1
370.178	0.605	370.783	-0.1559469234469237	end_round	0.605	columbia_card_task_fmri	8.0	0.9	71.0	-90.0	0.1	16.0	7.0	1.0	-3.3903209348277663	0.605	6.0	stim	poldrack-single-stim	s602	False	1
371.542	1.5	370.791	n/a	-1.0	2.726	columbia_card_task_fmri	n/a	n/a	-1.0	n/a	n/a	n/a	n/a	n/a	n/a	n/a	n/a	ITI	poldrack-single-stim	s602	False	0
373.521	0.616	374.137	5.081553076553076	end_round	0.616	columbia_card_task_fmri	10.0	0.9375	71.0	-95.0	0.0625	16.0	1.0	1.0	-7.366682758114383	0.616	0.0	stim	poldrack-single-stim	s602	False	1
374.895	1.5	374.144	n/a	-1.0	2.386	columbia_card_task_fmri	n/a	n/a	-1.0	n/a	n/a	n/a	n/a	n/a	n/a	n/a	n/a	ITI	poldrack-single-stim	s602	False	0
376.534	0.429	376.963	6.019053076553076	draw_card	0.429	columbia_card_task_fmri	15.0	0.875	89.0	-70.0	0.125	16.0	1.0	2.0	-4.677110790359862	0.429	1.0	stim	poldrack-single-stim	s602	False	0
377.72	1.5	376.969	n/a	-1.0	2.318	columbia_card_task_fmri	n/a	n/a	-1.0	n/a	n/a	n/a	n/a	n/a	n/a	n/a	n/a	ITI	poldrack-single-stim	s602	False	0
379.294	0.36	379.654	5.019053076553076	draw_card	0.36	columbia_card_task_fmri	16.0	0.875	89.0	-85.0	0.125	16.0	1.0	2.0	0.6067924776538121	0.36	n/a	stim	poldrack-single-stim	s602	False	1
379.66	0.174	379.834	4.1773864098864095	draw_card	0.174	columbia_card_task_fmri	16.0	0.8666666666666667	89.0	-85.0	0.1333333333333333	16.0	2.0	2.0	1.536485299268982	0.174	n/a	stim	poldrack-single-stim	s602	False	1
379.839	0.192	380.031	3.2154816479816493	draw_card	0.192	columbia_card_task_fmri	16.0	0.8571428571428572	89.0	-85.0	0.1428571428571428	16.0	3.0	2.0	2.544602797223994	0.192	n/a	stim	poldrack-single-stim	s602	False	1
380.037	0.173	380.21	2.105591538091536	draw_card	0.173	columbia_card_task_fmri	16.0	0.8461538461538461	89.0	-85.0	0.1538461538461538	16.0	4.0	2.0	3.641736866547376	0.173	n/a	stim	poldrack-single-stim	s602	False	1
380.215	0.176	380.391	0.8107197432197439	draw_card	0.176	columbia_card_task_fmri	16.0	0.8333333333333334	89.0	-85.0	0.1666666666666666	16.0	5.0	2.0	4.840111899590653	0.176	n/a	stim	poldrack-single-stim	s602	False	1
380.397	0.444	380.841	-0.719583287083289	end_round	0.444	columbia_card_task_fmri	16.0	0.8181818181818181	71.0	-85.0	0.1818181818181818	16.0	6.0	2.0	6.15357963533183	0.444	5.0	stim	poldrack-single-stim	s602	False	1
381.596	1.5	380.845	n/a	-1.0	2.25	columbia_card_task_fmri	n/a	n/a	-1.0	n/a	n/a	n/a	n/a	n/a	n/a	n/a	n/a	ITI	poldrack-single-stim	s602	False	0
