duration	onset	block_duration	movement_onset	planning	condition	exp_stage	experiment_exp_id	key_press	problem_id	response_time	trial_id	trial_type	worker_id	junk
2.289	3.009	2.289	5.298	1	UA_with_intermediate	practice	ward_and_allport	89	0.0	2.289	to_hand	poldrack-single-stim	s602	False
0.1	5.299	1.886	7.185	0	UA_with_intermediate	practice	ward_and_allport	89	0.0	1.886	to_board	poldrack-single-stim	s602	False
0.1	7.187	1.008	8.195	0	UA_with_intermediate	practice	ward_and_allport	71	0.0	1.008	to_hand	poldrack-single-stim	s602	False
0.1	8.196	0.515	8.711	0	UA_with_intermediate	practice	ward_and_allport	71	0.0	0.515	to_board	poldrack-single-stim	s602	False
0.1	8.712	0.626	9.338	0	UA_with_intermediate	practice	ward_and_allport	71	0.0	0.626	to_hand	poldrack-single-stim	s602	False
0.1	9.34	0.5	9.84	0	UA_with_intermediate	practice	ward_and_allport	82	0.0	0.5	to_board	poldrack-single-stim	s602	False
0.1	9.841	2.422	12.263	0	UA_with_intermediate	practice	ward_and_allport	71	0.0	2.422	to_hand	poldrack-single-stim	s602	False
0.1	12.265	2.292	14.557	0	UA_with_intermediate	practice	ward_and_allport	82	0.0	2.292	to_board	poldrack-single-stim	s602	False
0.1	14.559	1.353	15.912	0	UA_with_intermediate	practice	ward_and_allport	89	0.0	1.353	to_hand	poldrack-single-stim	s602	False
0.1	15.912	0.724	16.636	0	UA_with_intermediate	practice	ward_and_allport	71	0.0	0.724	to_board	poldrack-single-stim	s602	False
0.1	16.639	3.118	19.757	0	UA_with_intermediate	practice	ward_and_allport	82	0.0	3.118	to_hand	poldrack-single-stim	s602	False
0.1	19.758	1.499	21.257	0	UA_with_intermediate	practice	ward_and_allport	89	0.0	1.499	to_board	poldrack-single-stim	s602	False
0.1	21.259	0.866	22.125	0	UA_with_intermediate	practice	ward_and_allport	82	0.0	0.866	to_hand	poldrack-single-stim	s602	False
0.1	22.125	1.641	23.766	0	UA_with_intermediate	practice	ward_and_allport	82	0.0	1.641	to_board	poldrack-single-stim	s602	False
0.1	23.768	0.632	24.4	0	UA_with_intermediate	practice	ward_and_allport	89	0.0	0.632	to_hand	poldrack-single-stim	s602	False
0.1	24.401	0.545	24.946	0	UA_with_intermediate	practice	ward_and_allport	71	0.0	0.545	to_board	poldrack-single-stim	s602	False
0.1	24.947	2.74	27.687	0	UA_with_intermediate	practice	ward_and_allport	82	0.0	2.74	to_hand	poldrack-single-stim	s602	False
0.1	27.688	0.501	28.189	0	UA_with_intermediate	practice	ward_and_allport	71	0.0	0.501	to_board	poldrack-single-stim	s602	False
0.1	28.191	3.922	32.113	0	UA_with_intermediate	practice	ward_and_allport	71	0.0	3.922	to_hand	poldrack-single-stim	s602	False
0.1	32.114	2.181	34.295	0	UA_with_intermediate	practice	ward_and_allport	82	0.0	2.181	to_board	poldrack-single-stim	s602	False
0.1	34.298	0.923	35.221	0	UA_with_intermediate	practice	ward_and_allport	82	0.0	0.923	to_hand	poldrack-single-stim	s602	False
0.1	35.222	1.037	36.259	0	UA_with_intermediate	practice	ward_and_allport	82	0.0	1.037	to_board	poldrack-single-stim	s602	False
0.1	36.26	0.514	36.774	0	UA_with_intermediate	practice	ward_and_allport	71	0.0	0.514	to_hand	poldrack-single-stim	s602	False
0.1	36.776	0.437	37.213	0	UA_with_intermediate	practice	ward_and_allport	89	0.0	0.437	to_board	poldrack-single-stim	s602	False
0.1	37.215	2.949	40.164	0	UA_with_intermediate	practice	ward_and_allport	82	0.0	2.949	to_hand	poldrack-single-stim	s602	False
0.1	40.165	0.757	40.922	0	UA_with_intermediate	practice	ward_and_allport	82	0.0	0.757	to_board	poldrack-single-stim	s602	False
0.1	40.924	0.331	41.255	0	UA_with_intermediate	practice	ward_and_allport	71	0.0	0.331	to_hand	poldrack-single-stim	s602	False
0.1	41.255	0.362	41.617	0	UA_with_intermediate	practice	ward_and_allport	82	0.0	0.362	to_board	poldrack-single-stim	s602	False
0.1	41.62	1.196	42.816	0	UA_with_intermediate	practice	ward_and_allport	89	0.0	1.196	to_hand	poldrack-single-stim	s602	False
0.1	42.819	0.662	43.481	0	UA_with_intermediate	practice	ward_and_allport	71	0.0	0.662	to_board	poldrack-single-stim	s602	False
0.1	43.483	3.932	47.415	0	UA_with_intermediate	practice	ward_and_allport	82	0.0	3.932	to_hand	poldrack-single-stim	s602	False
0.1	47.416	1.675	49.091	0	UA_with_intermediate	practice	ward_and_allport	89	0.0	1.675	to_board	poldrack-single-stim	s602	False
0.1	49.092	1.766	50.858	0	UA_with_intermediate	practice	ward_and_allport	71	0.0	1.766	to_hand	poldrack-single-stim	s602	False
0.1	50.86	0.524	51.384	0	UA_with_intermediate	practice	ward_and_allport	89	0.0	0.524	to_board	poldrack-single-stim	s602	False
0.1	51.386	0.809	52.195	0	UA_with_intermediate	practice	ward_and_allport	82	0.0	0.809	to_hand	poldrack-single-stim	s602	False
0.1	52.197	0.515	52.712	0	UA_with_intermediate	practice	ward_and_allport	89	0.0	0.515	to_board	poldrack-single-stim	s602	False
1.0	52.717	2.5	52.716	0	UA_with_intermediate	practice	ward_and_allport	-1	0.0	n/a	feedback	poldrack-single-stim	s602	False
4.384	55.219	4.384	59.603	1	UA_with_intermediate	practice	ward_and_allport	89	1.0	4.384	to_hand	poldrack-single-stim	s602	False
0.1	59.603	1.833	61.436	0	UA_with_intermediate	practice	ward_and_allport	82	1.0	1.833	to_board	poldrack-single-stim	s602	False
0.1	61.438	0.783	62.221	0	UA_with_intermediate	practice	ward_and_allport	71	1.0	0.783	to_hand	poldrack-single-stim	s602	False
0.1	62.222	0.438	62.66	0	UA_with_intermediate	practice	ward_and_allport	89	1.0	0.438	to_board	poldrack-single-stim	s602	False
0.1	62.663	1.132	63.795	0	UA_with_intermediate	practice	ward_and_allport	82	1.0	1.132	to_hand	poldrack-single-stim	s602	False
0.1	63.797	0.712	64.509	0	UA_with_intermediate	practice	ward_and_allport	89	1.0	0.712	to_board	poldrack-single-stim	s602	False
1.0	64.516	2.1	64.515	0	UA_with_intermediate	practice	ward_and_allport	-1	1.0	n/a	feedback	poldrack-single-stim	s602	False
5.336	66.617	5.336	71.953	1	UA_without_intermediate	practice	ward_and_allport	82	2.0	5.336	to_hand	poldrack-single-stim	s602	False
0.1	71.954	0.74	72.694	0	UA_without_intermediate	practice	ward_and_allport	89	2.0	0.74	to_board	poldrack-single-stim	s602	False
0.1	72.697	2.266	74.963	0	UA_without_intermediate	practice	ward_and_allport	71	2.0	2.266	to_hand	poldrack-single-stim	s602	False
0.1	74.964	0.351	75.315	0	UA_without_intermediate	practice	ward_and_allport	89	2.0	0.351	to_board	poldrack-single-stim	s602	False
0.1	75.317	1.653	76.97	0	UA_without_intermediate	practice	ward_and_allport	89	2.0	1.653	to_hand	poldrack-single-stim	s602	False
0.1	76.972	0.934	77.906	0	UA_without_intermediate	practice	ward_and_allport	89	2.0	0.934	to_board	poldrack-single-stim	s602	False
0.1	77.907	0.538	78.445	0	UA_without_intermediate	practice	ward_and_allport	71	2.0	0.538	to_hand	poldrack-single-stim	s602	False
0.1	78.447	0.407	78.854	0	UA_without_intermediate	practice	ward_and_allport	89	2.0	0.407	to_board	poldrack-single-stim	s602	False
1.0	78.857	2.2	78.856	0	UA_without_intermediate	practice	ward_and_allport	-1	2.0	n/a	feedback	poldrack-single-stim	s602	False
5.634	81.06	5.634	86.694	1	UA_without_intermediate	practice	ward_and_allport	71	3.0	5.634	to_hand	poldrack-single-stim	s602	False
0.1	86.695	0.439	87.134	0	UA_without_intermediate	practice	ward_and_allport	89	3.0	0.439	to_board	poldrack-single-stim	s602	False
0.1	87.137	2.365	89.502	0	UA_without_intermediate	practice	ward_and_allport	82	3.0	2.365	to_hand	poldrack-single-stim	s602	False
0.1	89.503	0.428	89.931	0	UA_without_intermediate	practice	ward_and_allport	71	3.0	0.428	to_board	poldrack-single-stim	s602	False
0.1	89.934	1.147	91.081	0	UA_without_intermediate	practice	ward_and_allport	89	3.0	1.147	to_hand	poldrack-single-stim	s602	False
0.1	91.081	0.726	91.807	0	UA_without_intermediate	practice	ward_and_allport	89	3.0	0.726	to_board	poldrack-single-stim	s602	False
0.1	91.811	0.645	92.456	0	UA_without_intermediate	practice	ward_and_allport	71	3.0	0.645	to_hand	poldrack-single-stim	s602	False
0.1	92.457	0.644	93.101	0	UA_without_intermediate	practice	ward_and_allport	89	3.0	0.644	to_board	poldrack-single-stim	s602	False
0.1	93.104	1.519	94.623	0	UA_without_intermediate	practice	ward_and_allport	71	3.0	1.519	to_hand	poldrack-single-stim	s602	False
0.1	94.624	0.503	95.127	0	UA_without_intermediate	practice	ward_and_allport	89	3.0	0.503	to_board	poldrack-single-stim	s602	False
1.0	95.131	2.0	95.13	0	UA_without_intermediate	practice	ward_and_allport	-1	3.0	n/a	feedback	poldrack-single-stim	s602	False
6.572	99.137	6.572	105.709	1	PA_with_intermediate	test	ward_and_allport	71	0.0	6.572	to_hand	poldrack-single-stim	s602	False
0.1	105.709	1.817	107.526	0	PA_with_intermediate	test	ward_and_allport	82	0.0	1.817	to_board	poldrack-single-stim	s602	False
0.1	107.53	0.659	108.189	0	PA_with_intermediate	test	ward_and_allport	71	0.0	0.659	to_hand	poldrack-single-stim	s602	False
0.1	108.191	0.433	108.624	0	PA_with_intermediate	test	ward_and_allport	89	0.0	0.433	to_board	poldrack-single-stim	s602	False
0.1	108.627	1.757	110.384	0	PA_with_intermediate	test	ward_and_allport	82	0.0	1.757	to_hand	poldrack-single-stim	s602	False
0.1	110.385	1.009	111.394	0	PA_with_intermediate	test	ward_and_allport	71	0.0	1.009	to_board	poldrack-single-stim	s602	False
1.0	111.401	3.768	111.4	0	PA_with_intermediate	test	ward_and_allport	-1	0.0	n/a	feedback	poldrack-single-stim	s602	False
4.995	115.171	4.995	120.166	1	PA_with_intermediate	test	ward_and_allport	82	1.0	4.995	to_hand	poldrack-single-stim	s602	False
0.1	120.168	0.395	120.563	0	PA_with_intermediate	test	ward_and_allport	71	1.0	0.395	to_board	poldrack-single-stim	s602	False
0.1	120.567	2.193	122.76	0	PA_with_intermediate	test	ward_and_allport	82	1.0	2.193	to_hand	poldrack-single-stim	s602	False
0.1	122.761	0.985	123.746	0	PA_with_intermediate	test	ward_and_allport	89	1.0	0.985	to_board	poldrack-single-stim	s602	False
0.1	123.748	1.794	125.542	0	PA_with_intermediate	test	ward_and_allport	71	1.0	1.794	to_hand	poldrack-single-stim	s602	False
0.1	125.544	0.528	126.072	0	PA_with_intermediate	test	ward_and_allport	82	1.0	0.528	to_board	poldrack-single-stim	s602	False
1.0	126.078	2.68	126.077	0	PA_with_intermediate	test	ward_and_allport	-1	1.0	n/a	feedback	poldrack-single-stim	s602	False
5.252	128.761	5.252	134.013	1	PA_without_intermediate	test	ward_and_allport	89	2.0	5.252	to_hand	poldrack-single-stim	s602	False
0.1	134.015	0.568	134.583	0	PA_without_intermediate	test	ward_and_allport	71	2.0	0.568	to_board	poldrack-single-stim	s602	False
0.1	134.586	5.181	139.767	0	PA_without_intermediate	test	ward_and_allport	89	2.0	5.181	to_hand	poldrack-single-stim	s602	False
0.1	139.768	1.349	141.117	0	PA_without_intermediate	test	ward_and_allport	71	2.0	1.349	to_board	poldrack-single-stim	s602	False
0.1	141.12	1.408	142.528	0	PA_without_intermediate	test	ward_and_allport	89	2.0	1.408	to_hand	poldrack-single-stim	s602	False
0.1	142.53	1.285	143.815	0	PA_without_intermediate	test	ward_and_allport	82	2.0	1.285	to_board	poldrack-single-stim	s602	False
1.0	143.822	3.224	143.821	0	PA_without_intermediate	test	ward_and_allport	-1	2.0	n/a	feedback	poldrack-single-stim	s602	False
7.423	147.05	7.423	154.473	1	PA_without_intermediate	test	ward_and_allport	71	3.0	7.423	to_hand	poldrack-single-stim	s602	False
0.1	154.475	0.941	155.416	0	PA_without_intermediate	test	ward_and_allport	82	3.0	0.941	to_board	poldrack-single-stim	s602	False
0.1	155.418	1.112	156.53	0	PA_without_intermediate	test	ward_and_allport	71	3.0	1.112	to_hand	poldrack-single-stim	s602	False
0.1	156.532	1.116	157.648	0	PA_without_intermediate	test	ward_and_allport	89	3.0	1.116	to_board	poldrack-single-stim	s602	False
0.1	157.651	2.893	160.544	0	PA_without_intermediate	test	ward_and_allport	71	3.0	2.893	to_hand	poldrack-single-stim	s602	False
0.1	160.546	0.279	160.825	0	PA_without_intermediate	test	ward_and_allport	82	3.0	0.279	to_board	poldrack-single-stim	s602	False
1.0	160.832	3.36	160.831	0	PA_without_intermediate	test	ward_and_allport	-1	3.0	n/a	feedback	poldrack-single-stim	s602	False
8.122	164.198	8.122	172.32	1	PA_without_intermediate	test	ward_and_allport	71	4.0	8.122	to_hand	poldrack-single-stim	s602	False
0.1	172.321	0.652	172.973	0	PA_without_intermediate	test	ward_and_allport	89	4.0	0.652	to_board	poldrack-single-stim	s602	False
0.1	172.977	1.86	174.837	0	PA_without_intermediate	test	ward_and_allport	71	4.0	1.86	to_hand	poldrack-single-stim	s602	False
0.1	174.839	0.387	175.226	0	PA_without_intermediate	test	ward_and_allport	82	4.0	0.387	to_board	poldrack-single-stim	s602	False
0.1	175.23	0.564	175.794	0	PA_without_intermediate	test	ward_and_allport	71	4.0	0.564	to_hand	poldrack-single-stim	s602	False
0.1	175.795	0.364	176.159	0	PA_without_intermediate	test	ward_and_allport	89	4.0	0.364	to_board	poldrack-single-stim	s602	False
1.0	176.166	2.0	176.165	0	PA_without_intermediate	test	ward_and_allport	-1	4.0	n/a	feedback	poldrack-single-stim	s602	False
6.065	178.17	6.065	184.235	1	PA_without_intermediate	test	ward_and_allport	82	5.0	6.065	to_hand	poldrack-single-stim	s602	False
0.1	184.237	0.539	184.776	0	PA_without_intermediate	test	ward_and_allport	71	5.0	0.539	to_board	poldrack-single-stim	s602	False
0.1	184.781	4.065	188.846	0	PA_without_intermediate	test	ward_and_allport	71	5.0	4.065	to_hand	poldrack-single-stim	s602	False
0.1	188.847	0.753	189.6	0	PA_without_intermediate	test	ward_and_allport	71	5.0	0.753	to_board	poldrack-single-stim	s602	False
0.1	189.604	0.315	189.919	0	PA_without_intermediate	test	ward_and_allport	82	5.0	0.315	to_hand	poldrack-single-stim	s602	False
0.1	189.922	0.778	190.7	0	PA_without_intermediate	test	ward_and_allport	89	5.0	0.778	to_board	poldrack-single-stim	s602	False
0.1	190.706	2.318	193.024	0	PA_without_intermediate	test	ward_and_allport	82	5.0	2.318	to_hand	poldrack-single-stim	s602	False
0.1	193.027	0.3	193.327	0	PA_without_intermediate	test	ward_and_allport	71	5.0	0.3	to_board	poldrack-single-stim	s602	False
1.0	193.335	2.408	193.334	0	PA_without_intermediate	test	ward_and_allport	-1	5.0	n/a	feedback	poldrack-single-stim	s602	False
5.702	195.746	5.702	201.448	1	PA_with_intermediate	test	ward_and_allport	89	6.0	5.702	to_hand	poldrack-single-stim	s602	False
0.1	201.449	0.634	202.083	0	PA_with_intermediate	test	ward_and_allport	71	6.0	0.634	to_board	poldrack-single-stim	s602	False
0.1	202.087	1.148	203.235	0	PA_with_intermediate	test	ward_and_allport	89	6.0	1.148	to_hand	poldrack-single-stim	s602	False
0.1	203.235	1.036	204.271	0	PA_with_intermediate	test	ward_and_allport	82	6.0	1.036	to_board	poldrack-single-stim	s602	False
0.1	204.276	4.135	208.411	0	PA_with_intermediate	test	ward_and_allport	71	6.0	4.135	to_hand	poldrack-single-stim	s602	False
0.1	208.412	0.277	208.689	0	PA_with_intermediate	test	ward_and_allport	82	6.0	0.277	to_board	poldrack-single-stim	s602	False
1.0	208.696	2.136	208.695	0	PA_with_intermediate	test	ward_and_allport	-1	6.0	n/a	feedback	poldrack-single-stim	s602	False
5.099	210.836	5.099	215.935	1	PA_without_intermediate	test	ward_and_allport	89	7.0	5.099	to_hand	poldrack-single-stim	s602	False
0.1	215.937	0.348	216.285	0	PA_without_intermediate	test	ward_and_allport	71	7.0	0.348	to_board	poldrack-single-stim	s602	False
0.1	216.29	1.746	218.036	0	PA_without_intermediate	test	ward_and_allport	89	7.0	1.746	to_hand	poldrack-single-stim	s602	False
0.1	218.037	0.713	218.75	0	PA_without_intermediate	test	ward_and_allport	82	7.0	0.713	to_board	poldrack-single-stim	s602	False
0.1	218.756	1.388	220.144	0	PA_without_intermediate	test	ward_and_allport	89	7.0	1.388	to_hand	poldrack-single-stim	s602	False
0.1	220.145	0.374	220.519	0	PA_without_intermediate	test	ward_and_allport	82	7.0	0.374	to_board	poldrack-single-stim	s602	False
0.1	220.523	2.558	223.081	0	PA_without_intermediate	test	ward_and_allport	82	7.0	2.558	to_hand	poldrack-single-stim	s602	False
0.1	223.083	0.787	223.87	0	PA_without_intermediate	test	ward_and_allport	89	7.0	0.787	to_board	poldrack-single-stim	s602	False
0.1	223.875	3.101	226.976	0	PA_without_intermediate	test	ward_and_allport	82	7.0	3.101	to_hand	poldrack-single-stim	s602	False
0.1	226.978	0.659	227.637	0	PA_without_intermediate	test	ward_and_allport	82	7.0	0.659	to_board	poldrack-single-stim	s602	False
0.1	227.64	0.5	228.14	0	PA_without_intermediate	test	ward_and_allport	82	7.0	0.5	to_hand	poldrack-single-stim	s602	False
0.1	228.141	0.361	228.502	0	PA_without_intermediate	test	ward_and_allport	89	7.0	0.361	to_board	poldrack-single-stim	s602	False
0.1	228.506	0.505	229.011	0	PA_without_intermediate	test	ward_and_allport	71	7.0	0.505	to_hand	poldrack-single-stim	s602	False
0.1	229.012	0.631	229.643	0	PA_without_intermediate	test	ward_and_allport	82	7.0	0.631	to_board	poldrack-single-stim	s602	False
0.1	229.647	2.815	232.462	0	PA_without_intermediate	test	ward_and_allport	89	7.0	2.815	to_hand	poldrack-single-stim	s602	False
0.1	232.462	2.766	235.228	0	PA_without_intermediate	test	ward_and_allport	82	7.0	2.766	to_board	poldrack-single-stim	s602	False
0.1	235.232	1.399	236.631	0	PA_without_intermediate	test	ward_and_allport	89	7.0	1.399	to_hand	poldrack-single-stim	s602	False
0.1	236.631	0.44	237.071	0	PA_without_intermediate	test	ward_and_allport	71	7.0	0.44	to_board	poldrack-single-stim	s602	False
1.0	237.075	5.128	237.074	0	PA_without_intermediate	test	ward_and_allport	-1	7.0	n/a	feedback	poldrack-single-stim	s602	False
6.899	242.206	6.899	249.105	1	PA_without_intermediate	test	ward_and_allport	71	8.0	6.899	to_hand	poldrack-single-stim	s602	False
0.1	249.107	0.433	249.54	0	PA_without_intermediate	test	ward_and_allport	82	8.0	0.433	to_board	poldrack-single-stim	s602	False
0.1	249.544	1.46	251.004	0	PA_without_intermediate	test	ward_and_allport	71	8.0	1.46	to_hand	poldrack-single-stim	s602	False
0.1	251.006	0.357	251.363	0	PA_without_intermediate	test	ward_and_allport	82	8.0	0.357	to_board	poldrack-single-stim	s602	False
0.1	251.367	1.651	253.018	0	PA_without_intermediate	test	ward_and_allport	71	8.0	1.651	to_hand	poldrack-single-stim	s602	False
0.1	253.019	0.462	253.481	0	PA_without_intermediate	test	ward_and_allport	89	8.0	0.462	to_board	poldrack-single-stim	s602	False
1.0	253.486	2.136	253.485	0	PA_without_intermediate	test	ward_and_allport	-1	8.0	n/a	feedback	poldrack-single-stim	s602	False
2.806	255.626	2.806	258.432	1	PA_without_intermediate	test	ward_and_allport	82	9.0	2.806	to_hand	poldrack-single-stim	s602	False
0.1	258.434	1.025	259.459	0	PA_without_intermediate	test	ward_and_allport	71	9.0	1.025	to_board	poldrack-single-stim	s602	False
0.1	259.465	1.069	260.534	0	PA_without_intermediate	test	ward_and_allport	82	9.0	1.069	to_hand	poldrack-single-stim	s602	False
0.1	260.535	0.442	260.977	0	PA_without_intermediate	test	ward_and_allport	89	9.0	0.442	to_board	poldrack-single-stim	s602	False
0.1	260.98	1.128	262.108	0	PA_without_intermediate	test	ward_and_allport	82	9.0	1.128	to_hand	poldrack-single-stim	s602	False
0.1	262.109	0.445	262.554	0	PA_without_intermediate	test	ward_and_allport	71	9.0	0.445	to_board	poldrack-single-stim	s602	False
1.0	262.561	5.264	262.56	0	PA_without_intermediate	test	ward_and_allport	-1	9.0	n/a	feedback	poldrack-single-stim	s602	False
5.315	267.829	5.315	273.144	1	PA_with_intermediate	test	ward_and_allport	89	10.0	5.315	to_hand	poldrack-single-stim	s602	False
0.1	273.145	1.241	274.386	0	PA_with_intermediate	test	ward_and_allport	82	10.0	1.241	to_board	poldrack-single-stim	s602	False
0.1	274.391	1.057	275.448	0	PA_with_intermediate	test	ward_and_allport	89	10.0	1.057	to_hand	poldrack-single-stim	s602	False
0.1	275.449	0.503	275.952	0	PA_with_intermediate	test	ward_and_allport	71	10.0	0.503	to_board	poldrack-single-stim	s602	False
0.1	275.957	1.034	276.991	0	PA_with_intermediate	test	ward_and_allport	82	10.0	1.034	to_hand	poldrack-single-stim	s602	False
0.1	276.991	0.965	277.956	0	PA_with_intermediate	test	ward_and_allport	89	10.0	0.965	to_board	poldrack-single-stim	s602	False
1.0	277.966	4.04	277.965	0	PA_with_intermediate	test	ward_and_allport	-1	10.0	n/a	feedback	poldrack-single-stim	s602	False
5.394	282.009	5.394	287.403	1	PA_with_intermediate	test	ward_and_allport	89	11.0	5.394	to_hand	poldrack-single-stim	s602	False
0.1	287.405	1.505	288.91	0	PA_with_intermediate	test	ward_and_allport	71	11.0	1.505	to_board	poldrack-single-stim	s602	False
0.1	288.915	1.775	290.69	0	PA_with_intermediate	test	ward_and_allport	89	11.0	1.775	to_hand	poldrack-single-stim	s602	False
0.1	290.691	0.785	291.476	0	PA_with_intermediate	test	ward_and_allport	82	11.0	0.785	to_board	poldrack-single-stim	s602	False
0.1	291.481	2.076	293.557	0	PA_with_intermediate	test	ward_and_allport	71	11.0	2.076	to_hand	poldrack-single-stim	s602	False
0.1	293.557	0.438	293.995	0	PA_with_intermediate	test	ward_and_allport	89	11.0	0.438	to_board	poldrack-single-stim	s602	False
1.0	294.003	2.136	294.002	0	PA_with_intermediate	test	ward_and_allport	-1	11.0	n/a	feedback	poldrack-single-stim	s602	False
3.776	296.144	3.776	299.92	1	PA_with_intermediate	test	ward_and_allport	82	12.0	3.776	to_hand	poldrack-single-stim	s602	False
0.1	299.922	1.753	301.675	0	PA_with_intermediate	test	ward_and_allport	71	12.0	1.753	to_board	poldrack-single-stim	s602	False
0.1	301.68	1.95	303.63	0	PA_with_intermediate	test	ward_and_allport	82	12.0	1.95	to_hand	poldrack-single-stim	s602	False
0.1	303.63	0.58	304.21	0	PA_with_intermediate	test	ward_and_allport	89	12.0	0.58	to_board	poldrack-single-stim	s602	False
0.1	304.214	1.393	305.607	0	PA_with_intermediate	test	ward_and_allport	71	12.0	1.393	to_hand	poldrack-single-stim	s602	False
0.1	305.609	0.549	306.158	0	PA_with_intermediate	test	ward_and_allport	89	12.0	0.549	to_board	poldrack-single-stim	s602	False
1.0	306.163	2.408	306.162	0	PA_with_intermediate	test	ward_and_allport	-1	12.0	n/a	feedback	poldrack-single-stim	s602	False
3.149	308.576	3.149	311.725	1	PA_without_intermediate	test	ward_and_allport	82	13.0	3.149	to_hand	poldrack-single-stim	s602	False
0.1	311.725	0.527	312.252	0	PA_without_intermediate	test	ward_and_allport	71	13.0	0.527	to_board	poldrack-single-stim	s602	False
0.1	312.257	2.868	315.125	0	PA_without_intermediate	test	ward_and_allport	82	13.0	2.868	to_hand	poldrack-single-stim	s602	False
0.1	315.127	0.958	316.085	0	PA_without_intermediate	test	ward_and_allport	71	13.0	0.958	to_board	poldrack-single-stim	s602	False
0.1	316.09	0.931	317.021	0	PA_without_intermediate	test	ward_and_allport	82	13.0	0.931	to_hand	poldrack-single-stim	s602	False
0.1	317.022	0.727	317.749	0	PA_without_intermediate	test	ward_and_allport	89	13.0	0.727	to_board	poldrack-single-stim	s602	False
1.0	317.757	2.68	317.756	0	PA_without_intermediate	test	ward_and_allport	-1	13.0	n/a	feedback	poldrack-single-stim	s602	False
3.46	320.443	3.46	323.903	1	PA_with_intermediate	test	ward_and_allport	71	14.0	3.46	to_hand	poldrack-single-stim	s602	False
0.1	323.904	0.497	324.401	0	PA_with_intermediate	test	ward_and_allport	89	14.0	0.497	to_board	poldrack-single-stim	s602	False
0.1	324.405	1.317	325.722	0	PA_with_intermediate	test	ward_and_allport	89	14.0	1.317	to_hand	poldrack-single-stim	s602	False
0.1	325.724	1.076	326.8	0	PA_with_intermediate	test	ward_and_allport	82	14.0	1.076	to_board	poldrack-single-stim	s602	False
0.1	326.806	2.589	329.395	0	PA_with_intermediate	test	ward_and_allport	71	14.0	2.589	to_hand	poldrack-single-stim	s602	False
0.1	329.396	0.343	329.739	0	PA_with_intermediate	test	ward_and_allport	89	14.0	0.343	to_board	poldrack-single-stim	s602	False
0.1	329.744	1.153	330.897	0	PA_with_intermediate	test	ward_and_allport	82	14.0	1.153	to_hand	poldrack-single-stim	s602	False
0.1	330.899	0.959	331.858	0	PA_with_intermediate	test	ward_and_allport	89	14.0	0.959	to_board	poldrack-single-stim	s602	False
1.0	331.867	4.72	331.866	0	PA_with_intermediate	test	ward_and_allport	-1	14.0	n/a	feedback	poldrack-single-stim	s602	False
5.247	341.596	5.247	346.843	1	PA_without_intermediate	test	ward_and_allport	89	15.0	5.247	to_hand	poldrack-single-stim	s602	False
0.1	346.845	2.229	349.074	0	PA_without_intermediate	test	ward_and_allport	82	15.0	2.229	to_board	poldrack-single-stim	s602	False
0.1	349.08	1.697	350.777	0	PA_without_intermediate	test	ward_and_allport	89	15.0	1.697	to_hand	poldrack-single-stim	s602	False
0.1	350.778	0.364	351.142	0	PA_without_intermediate	test	ward_and_allport	82	15.0	0.364	to_board	poldrack-single-stim	s602	False
0.1	351.148	1.655	352.803	0	PA_without_intermediate	test	ward_and_allport	89	15.0	1.655	to_hand	poldrack-single-stim	s602	False
0.1	352.804	0.598	353.402	0	PA_without_intermediate	test	ward_and_allport	71	15.0	0.598	to_board	poldrack-single-stim	s602	False
1.0	353.411	3.224	353.41	0	PA_without_intermediate	test	ward_and_allport	-1	15.0	n/a	feedback	poldrack-single-stim	s602	False
4.428	356.641	4.428	361.069	1	PA_without_intermediate	test	ward_and_allport	89	16.0	4.428	to_hand	poldrack-single-stim	s602	False
0.1	361.07	0.436	361.506	0	PA_without_intermediate	test	ward_and_allport	82	16.0	0.436	to_board	poldrack-single-stim	s602	False
0.1	361.513	2.063	363.576	0	PA_without_intermediate	test	ward_and_allport	89	16.0	2.063	to_hand	poldrack-single-stim	s602	False
0.1	363.576	0.538	364.114	0	PA_without_intermediate	test	ward_and_allport	71	16.0	0.538	to_board	poldrack-single-stim	s602	False
0.1	364.12	1.791	365.911	0	PA_without_intermediate	test	ward_and_allport	89	16.0	1.791	to_hand	poldrack-single-stim	s602	False
0.1	365.912	0.366	366.278	0	PA_without_intermediate	test	ward_and_allport	82	16.0	0.366	to_board	poldrack-single-stim	s602	False
1.0	366.286	2.272	366.285	0	PA_without_intermediate	test	ward_and_allport	-1	16.0	n/a	feedback	poldrack-single-stim	s602	False
6.707	368.564	6.707	375.271	1	PA_with_intermediate	test	ward_and_allport	71	17.0	6.707	to_hand	poldrack-single-stim	s602	False
0.1	375.271	0.768	376.039	0	PA_with_intermediate	test	ward_and_allport	89	17.0	0.768	to_board	poldrack-single-stim	s602	False
0.1	376.046	0.815	376.861	0	PA_with_intermediate	test	ward_and_allport	71	17.0	0.815	to_hand	poldrack-single-stim	s602	False
0.1	376.862	0.391	377.253	0	PA_with_intermediate	test	ward_and_allport	82	17.0	0.391	to_board	poldrack-single-stim	s602	False
0.1	377.26	1.1	378.36	0	PA_with_intermediate	test	ward_and_allport	89	17.0	1.1	to_hand	poldrack-single-stim	s602	False
0.1	378.361	1.301	379.662	0	PA_with_intermediate	test	ward_and_allport	82	17.0	1.301	to_board	poldrack-single-stim	s602	False
1.0	379.67	3.632	379.669	0	PA_with_intermediate	test	ward_and_allport	-1	17.0	n/a	feedback	poldrack-single-stim	s602	False
3.455	383.308	3.455	386.763	1	PA_without_intermediate	test	ward_and_allport	89	18.0	3.455	to_hand	poldrack-single-stim	s602	False
0.1	386.765	0.348	387.113	0	PA_without_intermediate	test	ward_and_allport	82	18.0	0.348	to_board	poldrack-single-stim	s602	False
0.1	387.12	1.024	388.144	0	PA_without_intermediate	test	ward_and_allport	89	18.0	1.024	to_hand	poldrack-single-stim	s602	False
0.1	388.146	0.473	388.619	0	PA_without_intermediate	test	ward_and_allport	71	18.0	0.473	to_board	poldrack-single-stim	s602	False
0.1	388.626	1.17	389.796	0	PA_without_intermediate	test	ward_and_allport	89	18.0	1.17	to_hand	poldrack-single-stim	s602	False
0.1	389.798	0.205	390.003	0	PA_without_intermediate	test	ward_and_allport	82	18.0	0.205	to_board	poldrack-single-stim	s602	False
1.0	390.012	2.408	390.011	0	PA_without_intermediate	test	ward_and_allport	-1	18.0	n/a	feedback	poldrack-single-stim	s602	False
5.674	392.426	5.674	398.1	1	PA_without_intermediate	test	ward_and_allport	89	19.0	5.674	to_hand	poldrack-single-stim	s602	False
0.1	398.101	0.361	398.462	0	PA_without_intermediate	test	ward_and_allport	71	19.0	0.361	to_board	poldrack-single-stim	s602	False
0.1	398.468	1.65	400.118	0	PA_without_intermediate	test	ward_and_allport	89	19.0	1.65	to_hand	poldrack-single-stim	s602	False
0.1	400.12	0.535	400.655	0	PA_without_intermediate	test	ward_and_allport	82	19.0	0.535	to_board	poldrack-single-stim	s602	False
0.1	400.661	0.846	401.507	0	PA_without_intermediate	test	ward_and_allport	89	19.0	0.846	to_hand	poldrack-single-stim	s602	False
0.1	401.509	0.243	401.752	0	PA_without_intermediate	test	ward_and_allport	71	19.0	0.243	to_board	poldrack-single-stim	s602	False
1.0	401.761	2.0	401.76	0	PA_without_intermediate	test	ward_and_allport	-1	19.0	n/a	feedback	poldrack-single-stim	s602	False
4.549	403.768	4.549	408.317	1	PA_with_intermediate	test	ward_and_allport	82	20.0	4.549	to_hand	poldrack-single-stim	s602	False
0.1	408.319	0.702	409.021	0	PA_with_intermediate	test	ward_and_allport	71	20.0	0.702	to_board	poldrack-single-stim	s602	False
0.1	409.028	0.743	409.771	0	PA_with_intermediate	test	ward_and_allport	82	20.0	0.743	to_hand	poldrack-single-stim	s602	False
0.1	409.773	0.542	410.315	0	PA_with_intermediate	test	ward_and_allport	89	20.0	0.542	to_board	poldrack-single-stim	s602	False
0.1	410.322	0.55	410.872	0	PA_with_intermediate	test	ward_and_allport	71	20.0	0.55	to_hand	poldrack-single-stim	s602	False
0.1	410.872	0.368	411.24	0	PA_with_intermediate	test	ward_and_allport	82	20.0	0.368	to_board	poldrack-single-stim	s602	False
1.0	411.249	2.0	411.248	0	PA_with_intermediate	test	ward_and_allport	-1	20.0	n/a	feedback	poldrack-single-stim	s602	False
5.896	413.254	5.896	419.15	1	PA_with_intermediate	test	ward_and_allport	71	21.0	5.896	to_hand	poldrack-single-stim	s602	False
0.1	419.151	0.794	419.945	0	PA_with_intermediate	test	ward_and_allport	82	21.0	0.794	to_board	poldrack-single-stim	s602	False
0.1	419.952	1.023	420.975	0	PA_with_intermediate	test	ward_and_allport	71	21.0	1.023	to_hand	poldrack-single-stim	s602	False
0.1	420.975	0.515	421.49	0	PA_with_intermediate	test	ward_and_allport	89	21.0	0.515	to_board	poldrack-single-stim	s602	False
0.1	421.498	2.151	423.649	0	PA_with_intermediate	test	ward_and_allport	82	21.0	2.151	to_hand	poldrack-single-stim	s602	False
0.1	423.65	0.268	423.918	0	PA_with_intermediate	test	ward_and_allport	89	21.0	0.268	to_board	poldrack-single-stim	s602	False
0.1	423.925	1.187	425.112	0	PA_with_intermediate	test	ward_and_allport	89	21.0	1.187	to_hand	poldrack-single-stim	s602	False
0.1	425.113	0.455	425.568	0	PA_with_intermediate	test	ward_and_allport	82	21.0	0.455	to_board	poldrack-single-stim	s602	False
0.1	425.574	0.479	426.053	0	PA_with_intermediate	test	ward_and_allport	89	21.0	0.479	to_hand	poldrack-single-stim	s602	False
0.1	426.055	0.77	426.825	0	PA_with_intermediate	test	ward_and_allport	89	21.0	0.77	to_board	poldrack-single-stim	s602	False
0.1	426.831	0.904	427.735	0	PA_with_intermediate	test	ward_and_allport	82	21.0	0.904	to_hand	poldrack-single-stim	s602	False
0.1	427.736	0.425	428.161	0	PA_with_intermediate	test	ward_and_allport	71	21.0	0.425	to_board	poldrack-single-stim	s602	False
1.0	428.171	2.0	428.17	0	PA_with_intermediate	test	ward_and_allport	-1	21.0	n/a	feedback	poldrack-single-stim	s602	False
4.422	430.179	4.422	434.601	1	PA_with_intermediate	test	ward_and_allport	71	22.0	4.422	to_hand	poldrack-single-stim	s602	False
0.1	434.602	0.713	435.315	0	PA_with_intermediate	test	ward_and_allport	89	22.0	0.713	to_board	poldrack-single-stim	s602	False
0.1	435.322	0.948	436.27	0	PA_with_intermediate	test	ward_and_allport	71	22.0	0.948	to_hand	poldrack-single-stim	s602	False
0.1	436.272	0.415	436.687	0	PA_with_intermediate	test	ward_and_allport	82	22.0	0.415	to_board	poldrack-single-stim	s602	False
0.1	436.695	1.04	437.735	0	PA_with_intermediate	test	ward_and_allport	89	22.0	1.04	to_hand	poldrack-single-stim	s602	False
0.1	437.737	0.88	438.617	0	PA_with_intermediate	test	ward_and_allport	82	22.0	0.88	to_board	poldrack-single-stim	s602	False
1.0	438.629	2.408	438.628	0	PA_with_intermediate	test	ward_and_allport	-1	22.0	n/a	feedback	poldrack-single-stim	s602	False
4.205	441.046	4.205	445.251	1	PA_without_intermediate	test	ward_and_allport	71	23.0	4.205	to_hand	poldrack-single-stim	s602	False
0.1	445.252	0.162	445.414	0	PA_without_intermediate	test	ward_and_allport	89	23.0	0.162	to_board	poldrack-single-stim	s602	False
0.1	445.422	1.706	447.128	0	PA_without_intermediate	test	ward_and_allport	71	23.0	1.706	to_hand	poldrack-single-stim	s602	False
0.1	447.13	0.221	447.351	0	PA_without_intermediate	test	ward_and_allport	82	23.0	0.221	to_board	poldrack-single-stim	s602	False
0.1	447.36	1.0	448.36	0	PA_without_intermediate	test	ward_and_allport	71	23.0	1.0	to_hand	poldrack-single-stim	s602	False
0.1	448.36	0.238	448.598	0	PA_without_intermediate	test	ward_and_allport	89	23.0	0.238	to_board	poldrack-single-stim	s602	False
1.0	448.61	2.816	448.609	0	PA_without_intermediate	test	ward_and_allport	-1	23.0	n/a	feedback	poldrack-single-stim	s602	False
4.806	451.434	4.806	456.24	1	PA_with_intermediate	test	ward_and_allport	89	24.0	4.806	to_hand	poldrack-single-stim	s602	False
0.1	456.242	0.897	457.139	0	PA_with_intermediate	test	ward_and_allport	71	24.0	0.897	to_board	poldrack-single-stim	s602	False
0.1	457.146	1.401	458.547	0	PA_with_intermediate	test	ward_and_allport	89	24.0	1.401	to_hand	poldrack-single-stim	s602	False
0.1	458.548	0.738	459.286	0	PA_with_intermediate	test	ward_and_allport	82	24.0	0.738	to_board	poldrack-single-stim	s602	False
0.1	459.295	0.838	460.133	0	PA_with_intermediate	test	ward_and_allport	71	24.0	0.838	to_hand	poldrack-single-stim	s602	False
0.1	460.135	0.691	460.826	0	PA_with_intermediate	test	ward_and_allport	89	24.0	0.691	to_board	poldrack-single-stim	s602	False
0.1	460.835	1.569	462.404	0	PA_with_intermediate	test	ward_and_allport	89	24.0	1.569	to_hand	poldrack-single-stim	s602	False
0.1	462.404	0.665	463.069	0	PA_with_intermediate	test	ward_and_allport	82	24.0	0.665	to_board	poldrack-single-stim	s602	False
1.0	463.077	4.176	463.076	0	PA_with_intermediate	test	ward_and_allport	-1	24.0	n/a	feedback	poldrack-single-stim	s602	False
6.918	467.259	6.918	474.177	1	PA_with_intermediate	test	ward_and_allport	82	25.0	6.918	to_hand	poldrack-single-stim	s602	False
0.1	474.179	1.645	475.824	0	PA_with_intermediate	test	ward_and_allport	71	25.0	1.645	to_board	poldrack-single-stim	s602	False
0.1	475.833	1.633	477.466	0	PA_with_intermediate	test	ward_and_allport	82	25.0	1.633	to_hand	poldrack-single-stim	s602	False
0.1	477.467	0.684	478.151	0	PA_with_intermediate	test	ward_and_allport	89	25.0	0.684	to_board	poldrack-single-stim	s602	False
0.1	478.16	3.066	481.226	0	PA_with_intermediate	test	ward_and_allport	71	25.0	3.066	to_hand	poldrack-single-stim	s602	False
0.1	481.228	0.235	481.463	0	PA_with_intermediate	test	ward_and_allport	89	25.0	0.235	to_board	poldrack-single-stim	s602	False
1.0	481.473	3.36	481.472	0	PA_with_intermediate	test	ward_and_allport	-1	25.0	n/a	feedback	poldrack-single-stim	s602	False
5.561	484.842	5.561	490.403	1	PA_with_intermediate	test	ward_and_allport	89	26.0	5.561	to_hand	poldrack-single-stim	s602	False
0.1	490.404	0.37	490.774	0	PA_with_intermediate	test	ward_and_allport	71	26.0	0.37	to_board	poldrack-single-stim	s602	False
0.1	490.783	1.219	492.002	0	PA_with_intermediate	test	ward_and_allport	89	26.0	1.219	to_hand	poldrack-single-stim	s602	False
0.1	492.003	0.902	492.905	0	PA_with_intermediate	test	ward_and_allport	82	26.0	0.902	to_board	poldrack-single-stim	s602	False
0.1	492.912	0.698	493.61	0	PA_with_intermediate	test	ward_and_allport	71	26.0	0.698	to_hand	poldrack-single-stim	s602	False
0.1	493.612	0.311	493.923	0	PA_with_intermediate	test	ward_and_allport	89	26.0	0.311	to_board	poldrack-single-stim	s602	False
1.0	493.936	2.0	493.935	0	PA_with_intermediate	test	ward_and_allport	-1	26.0	n/a	feedback	poldrack-single-stim	s602	False
3.485	495.944	3.485	499.429	1	PA_without_intermediate	test	ward_and_allport	71	27.0	3.485	to_hand	poldrack-single-stim	s602	False
0.1	499.431	1.75	501.181	0	PA_without_intermediate	test	ward_and_allport	82	27.0	1.75	to_board	poldrack-single-stim	s602	False
0.1	501.189	2.376	503.565	0	PA_without_intermediate	test	ward_and_allport	71	27.0	2.376	to_hand	poldrack-single-stim	s602	False
0.1	503.565	0.249	503.814	0	PA_without_intermediate	test	ward_and_allport	82	27.0	0.249	to_board	poldrack-single-stim	s602	False
0.1	503.823	1.585	505.408	0	PA_without_intermediate	test	ward_and_allport	71	27.0	1.585	to_hand	poldrack-single-stim	s602	False
0.1	505.41	0.188	505.598	0	PA_without_intermediate	test	ward_and_allport	89	27.0	0.188	to_board	poldrack-single-stim	s602	False
1.0	505.609	2.408	505.608	0	PA_without_intermediate	test	ward_and_allport	-1	27.0	n/a	feedback	poldrack-single-stim	s602	False
4.044	508.025	4.044	512.069	1	PA_with_intermediate	test	ward_and_allport	89	28.0	4.044	to_hand	poldrack-single-stim	s602	False
0.1	512.071	2.697	514.768	0	PA_with_intermediate	test	ward_and_allport	82	28.0	2.697	to_board	poldrack-single-stim	s602	False
0.1	514.775	2.329	517.104	0	PA_with_intermediate	test	ward_and_allport	89	28.0	2.329	to_hand	poldrack-single-stim	s602	False
0.1	517.106	0.434	517.54	0	PA_with_intermediate	test	ward_and_allport	71	28.0	0.434	to_board	poldrack-single-stim	s602	False
0.1	517.548	0.952	518.5	0	PA_with_intermediate	test	ward_and_allport	82	28.0	0.952	to_hand	poldrack-single-stim	s602	False
0.1	518.501	0.577	519.078	0	PA_with_intermediate	test	ward_and_allport	71	28.0	0.577	to_board	poldrack-single-stim	s602	False
1.0	519.089	2.816	519.088	0	PA_with_intermediate	test	ward_and_allport	-1	28.0	n/a	feedback	poldrack-single-stim	s602	False
4.745	521.913	4.745	526.658	1	PA_without_intermediate	test	ward_and_allport	82	29.0	4.745	to_hand	poldrack-single-stim	s602	False
0.1	526.66	0.405	527.065	0	PA_without_intermediate	test	ward_and_allport	89	29.0	0.405	to_board	poldrack-single-stim	s602	False
0.1	527.072	1.584	528.656	0	PA_without_intermediate	test	ward_and_allport	82	29.0	1.584	to_hand	poldrack-single-stim	s602	False
0.1	528.657	0.776	529.433	0	PA_without_intermediate	test	ward_and_allport	89	29.0	0.776	to_board	poldrack-single-stim	s602	False
0.1	529.443	0.519	529.962	0	PA_without_intermediate	test	ward_and_allport	82	29.0	0.519	to_hand	poldrack-single-stim	s602	False
0.1	529.963	0.449	530.412	0	PA_without_intermediate	test	ward_and_allport	71	29.0	0.449	to_board	poldrack-single-stim	s602	False
1.0	530.422	3.088	530.421	0	PA_without_intermediate	test	ward_and_allport	-1	29.0	n/a	feedback	poldrack-single-stim	s602	False
9.328	538.522	9.328	547.85	1	PA_without_intermediate	test	ward_and_allport	89	30.0	9.328	to_hand	poldrack-single-stim	s602	False
0.1	547.852	1.591	549.443	0	PA_without_intermediate	test	ward_and_allport	71	30.0	1.591	to_board	poldrack-single-stim	s602	False
0.1	549.452	2.798	552.25	0	PA_without_intermediate	test	ward_and_allport	89	30.0	2.798	to_hand	poldrack-single-stim	s602	False
0.1	552.25	0.445	552.695	0	PA_without_intermediate	test	ward_and_allport	82	30.0	0.445	to_board	poldrack-single-stim	s602	False
0.1	552.704	1.874	554.578	0	PA_without_intermediate	test	ward_and_allport	89	30.0	1.874	to_hand	poldrack-single-stim	s602	False
0.1	554.58	0.39	554.97	0	PA_without_intermediate	test	ward_and_allport	71	30.0	0.39	to_board	poldrack-single-stim	s602	False
1.0	554.985	2.136	554.984	0	PA_without_intermediate	test	ward_and_allport	-1	30.0	n/a	feedback	poldrack-single-stim	s602	False
6.4	557.129	6.4	563.529	1	PA_without_intermediate	test	ward_and_allport	82	31.0	6.4	to_hand	poldrack-single-stim	s602	False
0.1	563.531	0.602	564.133	0	PA_without_intermediate	test	ward_and_allport	89	31.0	0.602	to_board	poldrack-single-stim	s602	False
0.1	564.141	2.111	566.252	0	PA_without_intermediate	test	ward_and_allport	82	31.0	2.111	to_hand	poldrack-single-stim	s602	False
0.1	566.254	0.555	566.809	0	PA_without_intermediate	test	ward_and_allport	71	31.0	0.555	to_board	poldrack-single-stim	s602	False
0.1	566.818	1.25	568.068	0	PA_without_intermediate	test	ward_and_allport	82	31.0	1.25	to_hand	poldrack-single-stim	s602	False
0.1	568.069	0.529	568.598	0	PA_without_intermediate	test	ward_and_allport	89	31.0	0.529	to_board	poldrack-single-stim	s602	False
1.0	568.61	7.168	568.609	0	PA_without_intermediate	test	ward_and_allport	-1	31.0	n/a	feedback	poldrack-single-stim	s602	False
