duration	onset	block_duration	movement_onset	planning	condition	exp_stage	experiment_exp_id	key_press	problem_id	response_time	trial_id	trial_type	worker_id	junk
5.124	3.01	5.124	8.134	1	UA_with_intermediate	practice	ward_and_allport	71	0.0	5.124	to_hand	poldrack-single-stim	s603	False
0.1	8.136	0.922	9.058	0	UA_with_intermediate	practice	ward_and_allport	82	0.0	0.922	to_board	poldrack-single-stim	s603	False
0.1	9.06	2.153	11.213	0	UA_with_intermediate	practice	ward_and_allport	71	0.0	2.153	to_hand	poldrack-single-stim	s603	False
0.1	11.213	1.039	12.252	0	UA_with_intermediate	practice	ward_and_allport	89	0.0	1.039	to_board	poldrack-single-stim	s603	False
0.1	12.254	1.002	13.256	0	UA_with_intermediate	practice	ward_and_allport	82	0.0	1.002	to_hand	poldrack-single-stim	s603	False
0.1	13.258	4.055	17.313	0	UA_with_intermediate	practice	ward_and_allport	71	0.0	4.055	to_board	poldrack-single-stim	s603	False
0.1	17.314	1.856	19.17	0	UA_with_intermediate	practice	ward_and_allport	71	0.0	1.856	to_hand	poldrack-single-stim	s603	False
0.1	19.172	0.739	19.911	0	UA_with_intermediate	practice	ward_and_allport	89	0.0	0.739	to_board	poldrack-single-stim	s603	False
1.0	19.917	2.5	19.916	0	UA_with_intermediate	practice	ward_and_allport	-1	0.0	n/a	feedback	poldrack-single-stim	s603	False
6.631	22.419	6.631	29.05	1	UA_with_intermediate	practice	ward_and_allport	89	1.0	6.631	to_hand	poldrack-single-stim	s603	False
0.1	29.051	0.856	29.907	0	UA_with_intermediate	practice	ward_and_allport	82	1.0	0.856	to_board	poldrack-single-stim	s603	False
0.1	29.909	1.245	31.154	0	UA_with_intermediate	practice	ward_and_allport	71	1.0	1.245	to_hand	poldrack-single-stim	s603	False
0.1	31.155	0.562	31.717	0	UA_with_intermediate	practice	ward_and_allport	89	1.0	0.562	to_board	poldrack-single-stim	s603	False
0.1	31.719	2.079	33.798	0	UA_with_intermediate	practice	ward_and_allport	82	1.0	2.079	to_hand	poldrack-single-stim	s603	False
0.1	33.8	0.725	34.525	0	UA_with_intermediate	practice	ward_and_allport	89	1.0	0.725	to_board	poldrack-single-stim	s603	False
1.0	34.53	2.1	34.529	0	UA_with_intermediate	practice	ward_and_allport	-1	1.0	n/a	feedback	poldrack-single-stim	s603	False
10.477	36.632	10.477	47.109	1	UA_without_intermediate	practice	ward_and_allport	82	2.0	10.477	to_hand	poldrack-single-stim	s603	False
0.1	47.11	0.765	47.875	0	UA_without_intermediate	practice	ward_and_allport	89	2.0	0.765	to_board	poldrack-single-stim	s603	False
0.1	47.877	1.965	49.842	0	UA_without_intermediate	practice	ward_and_allport	71	2.0	1.965	to_hand	poldrack-single-stim	s603	False
0.1	49.844	0.768	50.612	0	UA_without_intermediate	practice	ward_and_allport	89	2.0	0.768	to_board	poldrack-single-stim	s603	False
0.1	50.615	1.236	51.851	0	UA_without_intermediate	practice	ward_and_allport	71	2.0	1.236	to_hand	poldrack-single-stim	s603	False
0.1	51.853	0.354	52.207	0	UA_without_intermediate	practice	ward_and_allport	89	2.0	0.354	to_board	poldrack-single-stim	s603	False
1.0	52.21	2.2	52.209	0	UA_without_intermediate	practice	ward_and_allport	-1	2.0	n/a	feedback	poldrack-single-stim	s603	False
5.456	54.412	5.456	59.868	1	UA_without_intermediate	practice	ward_and_allport	71	3.0	5.456	to_hand	poldrack-single-stim	s603	False
0.1	59.869	0.518	60.387	0	UA_without_intermediate	practice	ward_and_allport	89	3.0	0.518	to_board	poldrack-single-stim	s603	False
0.1	60.39	1.54	61.93	0	UA_without_intermediate	practice	ward_and_allport	82	3.0	1.54	to_hand	poldrack-single-stim	s603	False
0.1	61.931	0.39	62.321	0	UA_without_intermediate	practice	ward_and_allport	89	3.0	0.39	to_board	poldrack-single-stim	s603	False
0.1	62.323	1.076	63.399	0	UA_without_intermediate	practice	ward_and_allport	71	3.0	1.076	to_hand	poldrack-single-stim	s603	False
0.1	63.401	0.606	64.007	0	UA_without_intermediate	practice	ward_and_allport	89	3.0	0.606	to_board	poldrack-single-stim	s603	False
1.0	64.011	2.0	64.01	0	UA_without_intermediate	practice	ward_and_allport	-1	3.0	n/a	feedback	poldrack-single-stim	s603	False
8.898	68.017	8.898	76.915	1	PA_without_intermediate	test	ward_and_allport	89	0.0	8.898	to_hand	poldrack-single-stim	s603	False
0.1	76.917	0.715	77.632	0	PA_without_intermediate	test	ward_and_allport	82	0.0	0.715	to_board	poldrack-single-stim	s603	False
0.1	77.634	2.465	80.099	0	PA_without_intermediate	test	ward_and_allport	89	0.0	2.465	to_hand	poldrack-single-stim	s603	False
0.1	80.1	0.724	80.824	0	PA_without_intermediate	test	ward_and_allport	82	0.0	0.724	to_board	poldrack-single-stim	s603	False
0.1	80.825	1.352	82.177	0	PA_without_intermediate	test	ward_and_allport	89	0.0	1.352	to_hand	poldrack-single-stim	s603	False
0.1	82.179	0.345	82.524	0	PA_without_intermediate	test	ward_and_allport	71	0.0	0.345	to_board	poldrack-single-stim	s603	False
1.0	82.529	3.088	82.528	0	PA_without_intermediate	test	ward_and_allport	-1	0.0	n/a	feedback	poldrack-single-stim	s603	False
4.714	85.619	4.714	90.333	1	PA_with_intermediate	test	ward_and_allport	71	1.0	4.714	to_hand	poldrack-single-stim	s603	False
0.1	90.334	0.285	90.619	0	PA_with_intermediate	test	ward_and_allport	82	1.0	0.285	to_board	poldrack-single-stim	s603	False
0.1	90.621	1.872	92.493	0	PA_with_intermediate	test	ward_and_allport	71	1.0	1.872	to_hand	poldrack-single-stim	s603	False
0.1	92.495	0.455	92.95	0	PA_with_intermediate	test	ward_and_allport	89	1.0	0.455	to_board	poldrack-single-stim	s603	False
0.1	92.952	1.374	94.326	0	PA_with_intermediate	test	ward_and_allport	82	1.0	1.374	to_hand	poldrack-single-stim	s603	False
0.1	94.328	0.487	94.815	0	PA_with_intermediate	test	ward_and_allport	71	1.0	0.487	to_board	poldrack-single-stim	s603	False
1.0	94.819	2.0	94.818	0	PA_with_intermediate	test	ward_and_allport	-1	1.0	n/a	feedback	poldrack-single-stim	s603	False
5.586	96.822	5.586	102.408	1	PA_without_intermediate	test	ward_and_allport	89	2.0	5.586	to_hand	poldrack-single-stim	s603	False
0.1	102.41	1.189	103.599	0	PA_without_intermediate	test	ward_and_allport	82	2.0	1.189	to_board	poldrack-single-stim	s603	False
0.1	103.602	3.571	107.173	0	PA_without_intermediate	test	ward_and_allport	89	2.0	3.571	to_hand	poldrack-single-stim	s603	False
0.1	107.174	0.856	108.03	0	PA_without_intermediate	test	ward_and_allport	82	2.0	0.856	to_board	poldrack-single-stim	s603	False
0.1	108.032	1.677	109.709	0	PA_without_intermediate	test	ward_and_allport	82	2.0	1.677	to_hand	poldrack-single-stim	s603	False
0.1	109.71	0.832	110.542	0	PA_without_intermediate	test	ward_and_allport	71	2.0	0.832	to_board	poldrack-single-stim	s603	False
0.1	110.544	1.797	112.341	0	PA_without_intermediate	test	ward_and_allport	89	2.0	1.797	to_hand	poldrack-single-stim	s603	False
0.1	112.343	0.568	112.911	0	PA_without_intermediate	test	ward_and_allport	82	2.0	0.568	to_board	poldrack-single-stim	s603	False
1.0	112.916	2.0	112.915	0	PA_without_intermediate	test	ward_and_allport	-1	2.0	n/a	feedback	poldrack-single-stim	s603	False
2.999	114.919	2.999	117.918	1	PA_without_intermediate	test	ward_and_allport	71	3.0	2.999	to_hand	poldrack-single-stim	s603	False
0.1	117.919	0.451	118.37	0	PA_without_intermediate	test	ward_and_allport	82	3.0	0.451	to_board	poldrack-single-stim	s603	False
0.1	118.374	0.967	119.341	0	PA_without_intermediate	test	ward_and_allport	71	3.0	0.967	to_hand	poldrack-single-stim	s603	False
0.1	119.343	0.424	119.767	0	PA_without_intermediate	test	ward_and_allport	89	3.0	0.424	to_board	poldrack-single-stim	s603	False
0.1	119.77	0.685	120.455	0	PA_without_intermediate	test	ward_and_allport	71	3.0	0.685	to_hand	poldrack-single-stim	s603	False
0.1	120.456	0.852	121.308	0	PA_without_intermediate	test	ward_and_allport	82	3.0	0.852	to_board	poldrack-single-stim	s603	False
1.0	121.313	2.0	121.312	0	PA_without_intermediate	test	ward_and_allport	-1	3.0	n/a	feedback	poldrack-single-stim	s603	False
5.961	123.316	5.961	129.277	1	PA_with_intermediate	test	ward_and_allport	82	4.0	5.961	to_hand	poldrack-single-stim	s603	False
0.1	129.278	0.462	129.74	0	PA_with_intermediate	test	ward_and_allport	71	4.0	0.462	to_board	poldrack-single-stim	s603	False
0.1	129.743	2.203	131.946	0	PA_with_intermediate	test	ward_and_allport	82	4.0	2.203	to_hand	poldrack-single-stim	s603	False
0.1	131.947	0.574	132.521	0	PA_with_intermediate	test	ward_and_allport	89	4.0	0.574	to_board	poldrack-single-stim	s603	False
0.1	132.524	2.37	134.894	0	PA_with_intermediate	test	ward_and_allport	71	4.0	2.37	to_hand	poldrack-single-stim	s603	False
0.1	134.894	0.744	135.638	0	PA_with_intermediate	test	ward_and_allport	89	4.0	0.744	to_board	poldrack-single-stim	s603	False
1.0	135.643	2.544	135.642	0	PA_with_intermediate	test	ward_and_allport	-1	4.0	n/a	feedback	poldrack-single-stim	s603	False
5.547	138.191	5.547	143.738	1	PA_without_intermediate	test	ward_and_allport	82	5.0	5.547	to_hand	poldrack-single-stim	s603	False
0.1	143.739	0.733	144.472	0	PA_without_intermediate	test	ward_and_allport	89	5.0	0.733	to_board	poldrack-single-stim	s603	False
0.1	144.475	1.942	146.417	0	PA_without_intermediate	test	ward_and_allport	82	5.0	1.942	to_hand	poldrack-single-stim	s603	False
0.1	146.418	0.456	146.874	0	PA_without_intermediate	test	ward_and_allport	89	5.0	0.456	to_board	poldrack-single-stim	s603	False
0.1	146.878	1.803	148.681	0	PA_without_intermediate	test	ward_and_allport	82	5.0	1.803	to_hand	poldrack-single-stim	s603	False
0.1	148.682	0.57	149.252	0	PA_without_intermediate	test	ward_and_allport	71	5.0	0.57	to_board	poldrack-single-stim	s603	False
1.0	149.259	2.272	149.258	0	PA_without_intermediate	test	ward_and_allport	-1	5.0	n/a	feedback	poldrack-single-stim	s603	False
5.401	151.535	5.401	156.936	1	PA_with_intermediate	test	ward_and_allport	71	6.0	5.401	to_hand	poldrack-single-stim	s603	False
0.1	156.937	0.318	157.255	0	PA_with_intermediate	test	ward_and_allport	89	6.0	0.318	to_board	poldrack-single-stim	s603	False
0.1	157.258	0.642	157.9	0	PA_with_intermediate	test	ward_and_allport	71	6.0	0.642	to_hand	poldrack-single-stim	s603	False
0.1	157.901	0.288	158.189	0	PA_with_intermediate	test	ward_and_allport	82	6.0	0.288	to_board	poldrack-single-stim	s603	False
0.1	158.193	1.19	159.383	0	PA_with_intermediate	test	ward_and_allport	89	6.0	1.19	to_hand	poldrack-single-stim	s603	False
0.1	159.384	0.29	159.674	0	PA_with_intermediate	test	ward_and_allport	71	6.0	0.29	to_board	poldrack-single-stim	s603	False
1.0	159.677	4.04	159.676	0	PA_with_intermediate	test	ward_and_allport	-1	6.0	n/a	feedback	poldrack-single-stim	s603	False
5.52	163.723	5.52	169.243	1	PA_with_intermediate	test	ward_and_allport	82	7.0	5.52	to_hand	poldrack-single-stim	s603	False
0.1	169.244	0.351	169.595	0	PA_with_intermediate	test	ward_and_allport	89	7.0	0.351	to_board	poldrack-single-stim	s603	False
0.1	169.598	1.399	170.997	0	PA_with_intermediate	test	ward_and_allport	82	7.0	1.399	to_hand	poldrack-single-stim	s603	False
0.1	170.998	0.427	171.425	0	PA_with_intermediate	test	ward_and_allport	71	7.0	0.427	to_board	poldrack-single-stim	s603	False
0.1	171.428	0.947	172.375	0	PA_with_intermediate	test	ward_and_allport	89	7.0	0.947	to_hand	poldrack-single-stim	s603	False
0.1	172.376	0.432	172.808	0	PA_with_intermediate	test	ward_and_allport	71	7.0	0.432	to_board	poldrack-single-stim	s603	False
1.0	172.817	2.272	172.816	0	PA_with_intermediate	test	ward_and_allport	-1	7.0	n/a	feedback	poldrack-single-stim	s603	False
4.694	175.092	4.694	179.786	1	PA_with_intermediate	test	ward_and_allport	89	8.0	4.694	to_hand	poldrack-single-stim	s603	False
0.1	179.787	0.459	180.246	0	PA_with_intermediate	test	ward_and_allport	82	8.0	0.459	to_board	poldrack-single-stim	s603	False
0.1	180.25	1.226	181.476	0	PA_with_intermediate	test	ward_and_allport	89	8.0	1.226	to_hand	poldrack-single-stim	s603	False
0.1	181.477	0.655	182.132	0	PA_with_intermediate	test	ward_and_allport	71	8.0	0.655	to_board	poldrack-single-stim	s603	False
0.1	182.135	0.993	183.128	0	PA_with_intermediate	test	ward_and_allport	82	8.0	0.993	to_hand	poldrack-single-stim	s603	False
0.1	183.129	0.775	183.904	0	PA_with_intermediate	test	ward_and_allport	71	8.0	0.775	to_board	poldrack-single-stim	s603	False
0.1	183.907	1.447	185.354	0	PA_with_intermediate	test	ward_and_allport	71	8.0	1.447	to_hand	poldrack-single-stim	s603	False
0.1	185.356	0.502	185.858	0	PA_with_intermediate	test	ward_and_allport	89	8.0	0.502	to_board	poldrack-single-stim	s603	False
1.0	185.865	2.136	185.864	0	PA_with_intermediate	test	ward_and_allport	-1	8.0	n/a	feedback	poldrack-single-stim	s603	False
4.219	188.004	4.219	192.223	1	PA_with_intermediate	test	ward_and_allport	71	9.0	4.219	to_hand	poldrack-single-stim	s603	False
0.1	192.224	0.544	192.768	0	PA_with_intermediate	test	ward_and_allport	89	9.0	0.544	to_board	poldrack-single-stim	s603	False
0.1	192.774	0.68	193.454	0	PA_with_intermediate	test	ward_and_allport	71	9.0	0.68	to_hand	poldrack-single-stim	s603	False
0.1	193.454	0.378	193.832	0	PA_with_intermediate	test	ward_and_allport	82	9.0	0.378	to_board	poldrack-single-stim	s603	False
0.1	193.837	1.353	195.19	0	PA_with_intermediate	test	ward_and_allport	89	9.0	1.353	to_hand	poldrack-single-stim	s603	False
0.1	195.191	0.451	195.642	0	PA_with_intermediate	test	ward_and_allport	82	9.0	0.451	to_board	poldrack-single-stim	s603	False
1.0	195.649	2.0	195.648	0	PA_with_intermediate	test	ward_and_allport	-1	9.0	n/a	feedback	poldrack-single-stim	s603	False
4.998	197.653	4.998	202.651	1	PA_with_intermediate	test	ward_and_allport	82	10.0	4.998	to_hand	poldrack-single-stim	s603	False
0.1	202.653	0.356	203.009	0	PA_with_intermediate	test	ward_and_allport	89	10.0	0.356	to_board	poldrack-single-stim	s603	False
0.1	203.013	1.779	204.792	0	PA_with_intermediate	test	ward_and_allport	82	10.0	1.779	to_hand	poldrack-single-stim	s603	False
0.1	204.794	0.44	205.234	0	PA_with_intermediate	test	ward_and_allport	71	10.0	0.44	to_board	poldrack-single-stim	s603	False
0.1	205.238	1.428	206.666	0	PA_with_intermediate	test	ward_and_allport	89	10.0	1.428	to_hand	poldrack-single-stim	s603	False
0.1	206.667	1.022	207.689	0	PA_with_intermediate	test	ward_and_allport	71	10.0	1.022	to_board	poldrack-single-stim	s603	False
1.0	207.697	2.0	207.696	0	PA_with_intermediate	test	ward_and_allport	-1	10.0	n/a	feedback	poldrack-single-stim	s603	False
4.023	209.701	4.023	213.724	1	PA_without_intermediate	test	ward_and_allport	89	11.0	4.023	to_hand	poldrack-single-stim	s603	False
0.1	213.725	1.195	214.92	0	PA_without_intermediate	test	ward_and_allport	71	11.0	1.195	to_board	poldrack-single-stim	s603	False
0.1	214.924	1.118	216.042	0	PA_without_intermediate	test	ward_and_allport	89	11.0	1.118	to_hand	poldrack-single-stim	s603	False
0.1	216.043	0.625	216.668	0	PA_without_intermediate	test	ward_and_allport	82	11.0	0.625	to_board	poldrack-single-stim	s603	False
0.1	216.672	0.706	217.378	0	PA_without_intermediate	test	ward_and_allport	89	11.0	0.706	to_hand	poldrack-single-stim	s603	False
0.1	217.379	0.486	217.865	0	PA_without_intermediate	test	ward_and_allport	71	11.0	0.486	to_board	poldrack-single-stim	s603	False
1.0	217.87	2.408	217.869	0	PA_without_intermediate	test	ward_and_allport	-1	11.0	n/a	feedback	poldrack-single-stim	s603	False
4.406	220.282	4.406	224.688	1	PA_with_intermediate	test	ward_and_allport	89	12.0	4.406	to_hand	poldrack-single-stim	s603	False
0.1	224.689	4.144	228.833	0	PA_with_intermediate	test	ward_and_allport	71	12.0	4.144	to_board	poldrack-single-stim	s603	False
0.1	228.838	0.86	229.698	0	PA_with_intermediate	test	ward_and_allport	89	12.0	0.86	to_hand	poldrack-single-stim	s603	False
0.1	229.7	0.411	230.111	0	PA_with_intermediate	test	ward_and_allport	82	12.0	0.411	to_board	poldrack-single-stim	s603	False
0.1	230.116	1.417	231.533	0	PA_with_intermediate	test	ward_and_allport	71	12.0	1.417	to_hand	poldrack-single-stim	s603	False
0.1	231.534	0.433	231.967	0	PA_with_intermediate	test	ward_and_allport	89	12.0	0.433	to_board	poldrack-single-stim	s603	False
1.0	231.973	3.768	231.972	0	PA_with_intermediate	test	ward_and_allport	-1	12.0	n/a	feedback	poldrack-single-stim	s603	False
4.6	235.745	4.6	240.345	1	PA_with_intermediate	test	ward_and_allport	89	13.0	4.6	to_hand	poldrack-single-stim	s603	False
0.1	240.346	0.433	240.779	0	PA_with_intermediate	test	ward_and_allport	71	13.0	0.433	to_board	poldrack-single-stim	s603	False
0.1	240.783	0.944	241.727	0	PA_with_intermediate	test	ward_and_allport	89	13.0	0.944	to_hand	poldrack-single-stim	s603	False
0.1	241.728	0.536	242.264	0	PA_with_intermediate	test	ward_and_allport	82	13.0	0.536	to_board	poldrack-single-stim	s603	False
0.1	242.269	0.453	242.722	0	PA_with_intermediate	test	ward_and_allport	71	13.0	0.453	to_hand	poldrack-single-stim	s603	False
0.1	242.723	0.56	243.283	0	PA_with_intermediate	test	ward_and_allport	82	13.0	0.56	to_board	poldrack-single-stim	s603	False
1.0	243.289	2.68	243.288	0	PA_with_intermediate	test	ward_and_allport	-1	13.0	n/a	feedback	poldrack-single-stim	s603	False
3.13	245.972	3.13	249.102	1	PA_without_intermediate	test	ward_and_allport	89	14.0	3.13	to_hand	poldrack-single-stim	s603	False
0.1	249.103	0.628	249.731	0	PA_without_intermediate	test	ward_and_allport	71	14.0	0.628	to_board	poldrack-single-stim	s603	False
0.1	249.735	0.95	250.685	0	PA_without_intermediate	test	ward_and_allport	89	14.0	0.95	to_hand	poldrack-single-stim	s603	False
0.1	250.686	0.509	251.195	0	PA_without_intermediate	test	ward_and_allport	71	14.0	0.509	to_board	poldrack-single-stim	s603	False
0.1	251.199	0.652	251.851	0	PA_without_intermediate	test	ward_and_allport	89	14.0	0.652	to_hand	poldrack-single-stim	s603	False
0.1	251.852	0.733	252.585	0	PA_without_intermediate	test	ward_and_allport	82	14.0	0.733	to_board	poldrack-single-stim	s603	False
1.0	252.59	3.224	252.589	0	PA_without_intermediate	test	ward_and_allport	-1	14.0	n/a	feedback	poldrack-single-stim	s603	False
5.96	260.82	5.96	266.78	1	PA_without_intermediate	test	ward_and_allport	89	15.0	5.96	to_hand	poldrack-single-stim	s603	False
0.1	266.781	0.545	267.326	0	PA_without_intermediate	test	ward_and_allport	82	15.0	0.545	to_board	poldrack-single-stim	s603	False
0.1	267.331	1.145	268.476	0	PA_without_intermediate	test	ward_and_allport	89	15.0	1.145	to_hand	poldrack-single-stim	s603	False
0.1	268.477	0.449	268.926	0	PA_without_intermediate	test	ward_and_allport	71	15.0	0.449	to_board	poldrack-single-stim	s603	False
0.1	268.93	0.682	269.612	0	PA_without_intermediate	test	ward_and_allport	89	15.0	0.682	to_hand	poldrack-single-stim	s603	False
0.1	269.614	0.498	270.112	0	PA_without_intermediate	test	ward_and_allport	82	15.0	0.498	to_board	poldrack-single-stim	s603	False
1.0	270.116	3.36	270.115	0	PA_without_intermediate	test	ward_and_allport	-1	15.0	n/a	feedback	poldrack-single-stim	s603	False
4.27	273.48	4.27	277.75	1	PA_without_intermediate	test	ward_and_allport	71	16.0	4.27	to_hand	poldrack-single-stim	s603	False
0.1	277.752	0.265	278.017	0	PA_without_intermediate	test	ward_and_allport	89	16.0	0.265	to_board	poldrack-single-stim	s603	False
0.1	278.023	0.933	278.956	0	PA_without_intermediate	test	ward_and_allport	71	16.0	0.933	to_hand	poldrack-single-stim	s603	False
0.1	278.957	0.403	279.36	0	PA_without_intermediate	test	ward_and_allport	82	16.0	0.403	to_board	poldrack-single-stim	s603	False
0.1	279.365	0.499	279.864	0	PA_without_intermediate	test	ward_and_allport	71	16.0	0.499	to_hand	poldrack-single-stim	s603	False
0.1	279.865	0.249	280.114	0	PA_without_intermediate	test	ward_and_allport	89	16.0	0.249	to_board	poldrack-single-stim	s603	False
1.0	280.118	2.0	280.117	0	PA_without_intermediate	test	ward_and_allport	-1	16.0	n/a	feedback	poldrack-single-stim	s603	False
4.73	282.122	4.73	286.852	1	PA_without_intermediate	test	ward_and_allport	89	17.0	4.73	to_hand	poldrack-single-stim	s603	False
0.1	286.853	0.581	287.434	0	PA_without_intermediate	test	ward_and_allport	71	17.0	0.581	to_board	poldrack-single-stim	s603	False
0.1	287.439	0.775	288.214	0	PA_without_intermediate	test	ward_and_allport	89	17.0	0.775	to_hand	poldrack-single-stim	s603	False
0.1	288.216	0.737	288.953	0	PA_without_intermediate	test	ward_and_allport	71	17.0	0.737	to_board	poldrack-single-stim	s603	False
0.1	288.958	0.316	289.274	0	PA_without_intermediate	test	ward_and_allport	89	17.0	0.316	to_hand	poldrack-single-stim	s603	False
0.1	289.275	0.472	289.747	0	PA_without_intermediate	test	ward_and_allport	82	17.0	0.472	to_board	poldrack-single-stim	s603	False
1.0	289.753	2.408	289.752	0	PA_without_intermediate	test	ward_and_allport	-1	17.0	n/a	feedback	poldrack-single-stim	s603	False
2.667	292.165	2.667	294.832	1	PA_with_intermediate	test	ward_and_allport	89	18.0	2.667	to_hand	poldrack-single-stim	s603	False
0.1	294.834	1.119	295.953	0	PA_with_intermediate	test	ward_and_allport	71	18.0	1.119	to_board	poldrack-single-stim	s603	False
0.1	295.958	0.404	296.362	0	PA_with_intermediate	test	ward_and_allport	89	18.0	0.404	to_hand	poldrack-single-stim	s603	False
0.1	296.363	0.628	296.991	0	PA_with_intermediate	test	ward_and_allport	82	18.0	0.628	to_board	poldrack-single-stim	s603	False
0.1	296.995	1.408	298.403	0	PA_with_intermediate	test	ward_and_allport	71	18.0	1.408	to_hand	poldrack-single-stim	s603	False
0.1	298.404	0.322	298.726	0	PA_with_intermediate	test	ward_and_allport	89	18.0	0.322	to_board	poldrack-single-stim	s603	False
1.0	298.733	2.136	298.732	0	PA_with_intermediate	test	ward_and_allport	-1	18.0	n/a	feedback	poldrack-single-stim	s603	False
1.81	300.874	1.81	302.684	1	PA_without_intermediate	test	ward_and_allport	71	19.0	1.81	to_hand	poldrack-single-stim	s603	False
0.1	302.686	0.308	302.994	0	PA_without_intermediate	test	ward_and_allport	89	19.0	0.308	to_board	poldrack-single-stim	s603	False
0.1	302.999	0.389	303.388	0	PA_without_intermediate	test	ward_and_allport	71	19.0	0.389	to_hand	poldrack-single-stim	s603	False
0.1	303.388	0.316	303.704	0	PA_without_intermediate	test	ward_and_allport	82	19.0	0.316	to_board	poldrack-single-stim	s603	False
0.1	303.71	0.273	303.983	0	PA_without_intermediate	test	ward_and_allport	71	19.0	0.273	to_hand	poldrack-single-stim	s603	False
0.1	303.984	0.34	304.324	0	PA_without_intermediate	test	ward_and_allport	89	19.0	0.34	to_board	poldrack-single-stim	s603	False
1.0	304.334	5.128	304.333	0	PA_without_intermediate	test	ward_and_allport	-1	19.0	n/a	feedback	poldrack-single-stim	s603	False
2.891	309.467	2.891	312.358	1	PA_without_intermediate	test	ward_and_allport	82	20.0	2.891	to_hand	poldrack-single-stim	s603	False
0.1	312.36	0.245	312.605	0	PA_without_intermediate	test	ward_and_allport	89	20.0	0.245	to_board	poldrack-single-stim	s603	False
0.1	312.61	1.893	314.503	0	PA_without_intermediate	test	ward_and_allport	82	20.0	1.893	to_hand	poldrack-single-stim	s603	False
0.1	314.504	0.429	314.933	0	PA_without_intermediate	test	ward_and_allport	71	20.0	0.429	to_board	poldrack-single-stim	s603	False
0.1	314.938	2.453	317.391	0	PA_without_intermediate	test	ward_and_allport	82	20.0	2.453	to_hand	poldrack-single-stim	s603	False
0.1	317.393	0.453	317.846	0	PA_without_intermediate	test	ward_and_allport	89	20.0	0.453	to_board	poldrack-single-stim	s603	False
1.0	317.854	2.136	317.853	0	PA_without_intermediate	test	ward_and_allport	-1	20.0	n/a	feedback	poldrack-single-stim	s603	False
1.3	319.995	1.3	321.295	1	PA_without_intermediate	test	ward_and_allport	71	21.0	1.3	to_hand	poldrack-single-stim	s603	False
0.1	321.296	0.543	321.839	0	PA_without_intermediate	test	ward_and_allport	82	21.0	0.543	to_board	poldrack-single-stim	s603	False
0.1	321.844	0.627	322.471	0	PA_without_intermediate	test	ward_and_allport	71	21.0	0.627	to_hand	poldrack-single-stim	s603	False
0.1	322.472	0.416	322.888	0	PA_without_intermediate	test	ward_and_allport	82	21.0	0.416	to_board	poldrack-single-stim	s603	False
0.1	322.894	1.337	324.231	0	PA_without_intermediate	test	ward_and_allport	71	21.0	1.337	to_hand	poldrack-single-stim	s603	False
0.1	324.232	0.216	324.448	0	PA_without_intermediate	test	ward_and_allport	89	21.0	0.216	to_board	poldrack-single-stim	s603	False
1.0	324.454	5.264	324.453	0	PA_without_intermediate	test	ward_and_allport	-1	21.0	n/a	feedback	poldrack-single-stim	s603	False
1.887	329.724	1.887	331.611	1	PA_with_intermediate	test	ward_and_allport	71	22.0	1.887	to_hand	poldrack-single-stim	s603	False
0.1	331.613	0.621	332.234	0	PA_with_intermediate	test	ward_and_allport	82	22.0	0.621	to_board	poldrack-single-stim	s603	False
0.1	332.24	0.363	332.603	0	PA_with_intermediate	test	ward_and_allport	71	22.0	0.363	to_hand	poldrack-single-stim	s603	False
0.1	332.604	0.277	332.881	0	PA_with_intermediate	test	ward_and_allport	89	22.0	0.277	to_board	poldrack-single-stim	s603	False
0.1	332.887	0.817	333.704	0	PA_with_intermediate	test	ward_and_allport	82	22.0	0.817	to_hand	poldrack-single-stim	s603	False
0.1	333.705	0.078	333.783	0	PA_with_intermediate	test	ward_and_allport	71	22.0	0.078	to_board	poldrack-single-stim	s603	False
1.0	333.789	4.04	333.788	0	PA_with_intermediate	test	ward_and_allport	-1	22.0	n/a	feedback	poldrack-single-stim	s603	False
3.011	337.835	3.011	340.846	1	PA_with_intermediate	test	ward_and_allport	71	23.0	3.011	to_hand	poldrack-single-stim	s603	False
0.1	340.847	0.446	341.293	0	PA_with_intermediate	test	ward_and_allport	89	23.0	0.446	to_board	poldrack-single-stim	s603	False
0.1	341.299	0.32	341.619	0	PA_with_intermediate	test	ward_and_allport	71	23.0	0.32	to_hand	poldrack-single-stim	s603	False
0.1	341.62	0.256	341.876	0	PA_with_intermediate	test	ward_and_allport	82	23.0	0.256	to_board	poldrack-single-stim	s603	False
0.1	341.882	0.991	342.873	0	PA_with_intermediate	test	ward_and_allport	89	23.0	0.991	to_hand	poldrack-single-stim	s603	False
0.1	342.874	0.417	343.291	0	PA_with_intermediate	test	ward_and_allport	82	23.0	0.417	to_board	poldrack-single-stim	s603	False
1.0	343.298	2.136	343.297	0	PA_with_intermediate	test	ward_and_allport	-1	23.0	n/a	feedback	poldrack-single-stim	s603	False
3.018	345.443	3.018	348.461	1	PA_with_intermediate	test	ward_and_allport	82	24.0	3.018	to_hand	poldrack-single-stim	s603	False
0.1	348.461	1.19	349.651	0	PA_with_intermediate	test	ward_and_allport	71	24.0	1.19	to_board	poldrack-single-stim	s603	False
0.1	349.66	1.808	351.468	0	PA_with_intermediate	test	ward_and_allport	82	24.0	1.808	to_hand	poldrack-single-stim	s603	False
0.1	351.469	0.486	351.955	0	PA_with_intermediate	test	ward_and_allport	89	24.0	0.486	to_board	poldrack-single-stim	s603	False
0.1	351.961	2.971	354.932	0	PA_with_intermediate	test	ward_and_allport	71	24.0	2.971	to_hand	poldrack-single-stim	s603	False
0.1	354.933	0.257	355.19	0	PA_with_intermediate	test	ward_and_allport	82	24.0	0.257	to_board	poldrack-single-stim	s603	False
1.0	355.197	2.408	355.196	0	PA_with_intermediate	test	ward_and_allport	-1	24.0	n/a	feedback	poldrack-single-stim	s603	False
2.52	357.612	2.52	360.132	1	PA_without_intermediate	test	ward_and_allport	89	25.0	2.52	to_hand	poldrack-single-stim	s603	False
0.1	360.133	0.245	360.378	0	PA_without_intermediate	test	ward_and_allport	82	25.0	0.245	to_board	poldrack-single-stim	s603	False
0.1	360.384	0.892	361.276	0	PA_without_intermediate	test	ward_and_allport	89	25.0	0.892	to_hand	poldrack-single-stim	s603	False
0.1	361.277	0.898	362.175	0	PA_without_intermediate	test	ward_and_allport	82	25.0	0.898	to_board	poldrack-single-stim	s603	False
0.1	362.18	0.702	362.882	0	PA_without_intermediate	test	ward_and_allport	89	25.0	0.702	to_hand	poldrack-single-stim	s603	False
0.1	362.884	0.495	363.379	0	PA_without_intermediate	test	ward_and_allport	71	25.0	0.495	to_board	poldrack-single-stim	s603	False
1.0	363.386	2.68	363.385	0	PA_without_intermediate	test	ward_and_allport	-1	25.0	n/a	feedback	poldrack-single-stim	s603	False
2.756	366.073	2.756	368.829	1	PA_with_intermediate	test	ward_and_allport	89	26.0	2.756	to_hand	poldrack-single-stim	s603	False
0.1	368.83	0.331	369.161	0	PA_with_intermediate	test	ward_and_allport	71	26.0	0.331	to_board	poldrack-single-stim	s603	False
0.1	369.168	0.647	369.815	0	PA_with_intermediate	test	ward_and_allport	89	26.0	0.647	to_hand	poldrack-single-stim	s603	False
0.1	369.816	0.36	370.176	0	PA_with_intermediate	test	ward_and_allport	82	26.0	0.36	to_board	poldrack-single-stim	s603	False
0.1	370.183	2.841	373.024	0	PA_with_intermediate	test	ward_and_allport	71	26.0	2.841	to_hand	poldrack-single-stim	s603	False
0.1	373.026	0.478	373.504	0	PA_with_intermediate	test	ward_and_allport	82	26.0	0.478	to_board	poldrack-single-stim	s603	False
1.0	373.51	4.72	373.509	0	PA_with_intermediate	test	ward_and_allport	-1	26.0	n/a	feedback	poldrack-single-stim	s603	False
3.148	378.237	3.148	381.385	1	PA_without_intermediate	test	ward_and_allport	82	27.0	3.148	to_hand	poldrack-single-stim	s603	False
0.1	381.386	0.267	381.653	0	PA_without_intermediate	test	ward_and_allport	71	27.0	0.267	to_board	poldrack-single-stim	s603	False
0.1	381.66	1.51	383.17	0	PA_without_intermediate	test	ward_and_allport	82	27.0	1.51	to_hand	poldrack-single-stim	s603	False
0.1	383.171	0.202	383.373	0	PA_without_intermediate	test	ward_and_allport	89	27.0	0.202	to_board	poldrack-single-stim	s603	False
0.1	383.38	0.994	384.374	0	PA_without_intermediate	test	ward_and_allport	82	27.0	0.994	to_hand	poldrack-single-stim	s603	False
0.1	384.375	0.761	385.136	0	PA_without_intermediate	test	ward_and_allport	71	27.0	0.761	to_board	poldrack-single-stim	s603	False
1.0	385.145	3.224	385.144	0	PA_without_intermediate	test	ward_and_allport	-1	27.0	n/a	feedback	poldrack-single-stim	s603	False
1.889	388.376	1.889	390.265	1	PA_without_intermediate	test	ward_and_allport	89	28.0	1.889	to_hand	poldrack-single-stim	s603	False
0.1	390.266	0.458	390.724	0	PA_without_intermediate	test	ward_and_allport	71	28.0	0.458	to_board	poldrack-single-stim	s603	False
0.1	390.732	0.809	391.541	0	PA_without_intermediate	test	ward_and_allport	89	28.0	0.809	to_hand	poldrack-single-stim	s603	False
0.1	391.543	0.248	391.791	0	PA_without_intermediate	test	ward_and_allport	82	28.0	0.248	to_board	poldrack-single-stim	s603	False
0.1	391.798	0.495	392.293	0	PA_without_intermediate	test	ward_and_allport	89	28.0	0.495	to_hand	poldrack-single-stim	s603	False
0.1	392.295	0.235	392.53	0	PA_without_intermediate	test	ward_and_allport	71	28.0	0.235	to_board	poldrack-single-stim	s603	False
1.0	392.539	2.272	392.538	0	PA_without_intermediate	test	ward_and_allport	-1	28.0	n/a	feedback	poldrack-single-stim	s603	False
2.742	394.826	2.742	397.568	1	PA_with_intermediate	test	ward_and_allport	89	29.0	2.742	to_hand	poldrack-single-stim	s603	False
0.1	397.57	0.766	398.336	0	PA_with_intermediate	test	ward_and_allport	82	29.0	0.766	to_board	poldrack-single-stim	s603	False
0.1	398.343	0.765	399.108	0	PA_with_intermediate	test	ward_and_allport	89	29.0	0.765	to_hand	poldrack-single-stim	s603	False
0.1	399.109	0.355	399.464	0	PA_with_intermediate	test	ward_and_allport	71	29.0	0.355	to_board	poldrack-single-stim	s603	False
0.1	399.471	1.265	400.736	0	PA_with_intermediate	test	ward_and_allport	82	29.0	1.265	to_hand	poldrack-single-stim	s603	False
0.1	400.738	0.257	400.995	0	PA_with_intermediate	test	ward_and_allport	71	29.0	0.257	to_board	poldrack-single-stim	s603	False
1.0	401.003	3.632	401.002	0	PA_with_intermediate	test	ward_and_allport	-1	29.0	n/a	feedback	poldrack-single-stim	s603	False
2.328	409.645	2.328	411.973	1	PA_without_intermediate	test	ward_and_allport	71	30.0	2.328	to_hand	poldrack-single-stim	s603	False
0.1	411.975	0.794	412.769	0	PA_without_intermediate	test	ward_and_allport	82	30.0	0.794	to_board	poldrack-single-stim	s603	False
0.1	412.776	0.52	413.296	0	PA_without_intermediate	test	ward_and_allport	71	30.0	0.52	to_hand	poldrack-single-stim	s603	False
0.1	413.298	0.27	413.568	0	PA_without_intermediate	test	ward_and_allport	82	30.0	0.27	to_board	poldrack-single-stim	s603	False
0.1	413.575	1.171	414.746	0	PA_without_intermediate	test	ward_and_allport	71	30.0	1.171	to_hand	poldrack-single-stim	s603	False
0.1	414.746	0.236	414.982	0	PA_without_intermediate	test	ward_and_allport	89	30.0	0.236	to_board	poldrack-single-stim	s603	False
1.0	414.99	2.408	414.989	0	PA_without_intermediate	test	ward_and_allport	-1	30.0	n/a	feedback	poldrack-single-stim	s603	False
3.015	417.405	3.015	420.42	1	PA_without_intermediate	test	ward_and_allport	82	31.0	3.015	to_hand	poldrack-single-stim	s603	False
0.1	420.421	0.194	420.615	0	PA_without_intermediate	test	ward_and_allport	89	31.0	0.194	to_board	poldrack-single-stim	s603	False
0.1	420.623	1.174	421.797	0	PA_without_intermediate	test	ward_and_allport	82	31.0	1.174	to_hand	poldrack-single-stim	s603	False
0.1	421.799	0.207	422.006	0	PA_without_intermediate	test	ward_and_allport	71	31.0	0.207	to_board	poldrack-single-stim	s603	False
0.1	422.016	0.075	422.091	0	PA_without_intermediate	test	ward_and_allport	89	31.0	0.075	to_hand	poldrack-single-stim	s603	False
0.1	422.092	1.21	423.302	0	PA_without_intermediate	test	ward_and_allport	89	31.0	1.21	to_board	poldrack-single-stim	s603	False
0.1	423.313	0.737	424.05	0	PA_without_intermediate	test	ward_and_allport	71	31.0	0.737	to_hand	poldrack-single-stim	s603	False
0.1	424.051	0.417	424.468	0	PA_without_intermediate	test	ward_and_allport	89	31.0	0.417	to_board	poldrack-single-stim	s603	False
0.1	424.475	1.238	425.713	0	PA_without_intermediate	test	ward_and_allport	82	31.0	1.238	to_hand	poldrack-single-stim	s603	False
0.1	425.715	0.789	426.504	0	PA_without_intermediate	test	ward_and_allport	71	31.0	0.789	to_board	poldrack-single-stim	s603	False
1.0	426.513	2.0	426.512	0	PA_without_intermediate	test	ward_and_allport	-1	31.0	n/a	feedback	poldrack-single-stim	s603	False
1.605	428.522	1.605	430.127	1	PA_with_intermediate	test	ward_and_allport	71	32.0	1.605	to_hand	poldrack-single-stim	s603	False
0.1	430.128	1.511	431.639	0	PA_with_intermediate	test	ward_and_allport	89	32.0	1.511	to_board	poldrack-single-stim	s603	False
0.1	431.647	0.366	432.013	0	PA_with_intermediate	test	ward_and_allport	71	32.0	0.366	to_hand	poldrack-single-stim	s603	False
0.1	432.014	0.24	432.254	0	PA_with_intermediate	test	ward_and_allport	82	32.0	0.24	to_board	poldrack-single-stim	s603	False
0.1	432.263	1.021	433.284	0	PA_with_intermediate	test	ward_and_allport	89	32.0	1.021	to_hand	poldrack-single-stim	s603	False
0.1	433.284	0.243	433.527	0	PA_with_intermediate	test	ward_and_allport	71	32.0	0.243	to_board	poldrack-single-stim	s603	False
1.0	433.537	2.0	433.536	0	PA_with_intermediate	test	ward_and_allport	-1	32.0	n/a	feedback	poldrack-single-stim	s603	False
3.399	435.543	3.399	438.942	1	PA_with_intermediate	test	ward_and_allport	82	33.0	3.399	to_hand	poldrack-single-stim	s603	False
0.1	438.944	0.756	439.7	0	PA_with_intermediate	test	ward_and_allport	71	33.0	0.756	to_board	poldrack-single-stim	s603	False
0.1	439.706	1.021	440.727	0	PA_with_intermediate	test	ward_and_allport	82	33.0	1.021	to_hand	poldrack-single-stim	s603	False
0.1	440.728	0.47	441.198	0	PA_with_intermediate	test	ward_and_allport	89	33.0	0.47	to_board	poldrack-single-stim	s603	False
0.1	441.206	0.781	441.987	0	PA_with_intermediate	test	ward_and_allport	71	33.0	0.781	to_hand	poldrack-single-stim	s603	False
0.1	441.988	0.43	442.418	0	PA_with_intermediate	test	ward_and_allport	89	33.0	0.43	to_board	poldrack-single-stim	s603	False
1.0	442.427	2.0	442.426	0	PA_with_intermediate	test	ward_and_allport	-1	33.0	n/a	feedback	poldrack-single-stim	s603	False
3.548	444.438	3.548	447.986	1	PA_with_intermediate	test	ward_and_allport	89	34.0	3.548	to_hand	poldrack-single-stim	s603	False
0.1	447.987	1.495	449.482	0	PA_with_intermediate	test	ward_and_allport	82	34.0	1.495	to_board	poldrack-single-stim	s603	False
0.1	449.49	0.612	450.102	0	PA_with_intermediate	test	ward_and_allport	89	34.0	0.612	to_hand	poldrack-single-stim	s603	False
0.1	450.104	0.385	450.489	0	PA_with_intermediate	test	ward_and_allport	71	34.0	0.385	to_board	poldrack-single-stim	s603	False
0.1	450.498	0.533	451.031	0	PA_with_intermediate	test	ward_and_allport	82	34.0	0.533	to_hand	poldrack-single-stim	s603	False
0.1	451.033	0.268	451.301	0	PA_with_intermediate	test	ward_and_allport	89	34.0	0.268	to_board	poldrack-single-stim	s603	False
1.0	451.315	2.408	451.314	0	PA_with_intermediate	test	ward_and_allport	-1	34.0	n/a	feedback	poldrack-single-stim	s603	False
2.739	453.731	2.739	456.47	1	PA_without_intermediate	test	ward_and_allport	82	35.0	2.739	to_hand	poldrack-single-stim	s603	False
0.1	456.471	0.943	457.414	0	PA_without_intermediate	test	ward_and_allport	71	35.0	0.943	to_board	poldrack-single-stim	s603	False
0.1	457.423	0.418	457.841	0	PA_without_intermediate	test	ward_and_allport	82	35.0	0.418	to_hand	poldrack-single-stim	s603	False
0.1	457.843	0.507	458.35	0	PA_without_intermediate	test	ward_and_allport	71	35.0	0.507	to_board	poldrack-single-stim	s603	False
0.1	458.358	0.572	458.93	0	PA_without_intermediate	test	ward_and_allport	82	35.0	0.572	to_hand	poldrack-single-stim	s603	False
0.1	458.931	0.255	459.186	0	PA_without_intermediate	test	ward_and_allport	89	35.0	0.255	to_board	poldrack-single-stim	s603	False
1.0	459.195	2.816	459.194	0	PA_without_intermediate	test	ward_and_allport	-1	35.0	n/a	feedback	poldrack-single-stim	s603	False
3.172	462.02	3.172	465.192	1	PA_with_intermediate	test	ward_and_allport	89	36.0	3.172	to_hand	poldrack-single-stim	s603	False
0.1	465.193	0.282	465.475	0	PA_with_intermediate	test	ward_and_allport	82	36.0	0.282	to_board	poldrack-single-stim	s603	False
0.1	465.481	0.64	466.121	0	PA_with_intermediate	test	ward_and_allport	89	36.0	0.64	to_hand	poldrack-single-stim	s603	False
0.1	466.122	0.443	466.565	0	PA_with_intermediate	test	ward_and_allport	71	36.0	0.443	to_board	poldrack-single-stim	s603	False
0.1	466.572	0.303	466.875	0	PA_with_intermediate	test	ward_and_allport	89	36.0	0.303	to_hand	poldrack-single-stim	s603	False
0.1	466.877	1.583	468.46	0	PA_with_intermediate	test	ward_and_allport	89	36.0	1.583	to_board	poldrack-single-stim	s603	False
0.1	468.469	0.848	469.317	0	PA_with_intermediate	test	ward_and_allport	82	36.0	0.848	to_hand	poldrack-single-stim	s603	False
0.1	469.32	1.008	470.328	0	PA_with_intermediate	test	ward_and_allport	71	36.0	1.008	to_board	poldrack-single-stim	s603	False
1.0	470.34	4.176	470.339	0	PA_with_intermediate	test	ward_and_allport	-1	36.0	n/a	feedback	poldrack-single-stim	s603	False
2.109	474.525	2.109	476.634	1	PA_with_intermediate	test	ward_and_allport	71	37.0	2.109	to_hand	poldrack-single-stim	s603	False
0.1	476.636	0.53	477.166	0	PA_with_intermediate	test	ward_and_allport	82	37.0	0.53	to_board	poldrack-single-stim	s603	False
0.1	477.173	0.495	477.668	0	PA_with_intermediate	test	ward_and_allport	71	37.0	0.495	to_hand	poldrack-single-stim	s603	False
0.1	477.669	0.48	478.149	0	PA_with_intermediate	test	ward_and_allport	89	37.0	0.48	to_board	poldrack-single-stim	s603	False
0.1	478.157	0.762	478.919	0	PA_with_intermediate	test	ward_and_allport	82	37.0	0.762	to_hand	poldrack-single-stim	s603	False
0.1	478.921	0.722	479.643	0	PA_with_intermediate	test	ward_and_allport	89	37.0	0.722	to_board	poldrack-single-stim	s603	False
1.0	479.654	3.36	479.653	0	PA_with_intermediate	test	ward_and_allport	-1	37.0	n/a	feedback	poldrack-single-stim	s603	False
4.219	483.021	4.219	487.24	1	PA_with_intermediate	test	ward_and_allport	82	38.0	4.219	to_hand	poldrack-single-stim	s603	False
0.1	487.241	0.29	487.531	0	PA_with_intermediate	test	ward_and_allport	89	38.0	0.29	to_board	poldrack-single-stim	s603	False
0.1	487.537	1.567	489.104	0	PA_with_intermediate	test	ward_and_allport	82	38.0	1.567	to_hand	poldrack-single-stim	s603	False
0.1	489.105	0.449	489.554	0	PA_with_intermediate	test	ward_and_allport	71	38.0	0.449	to_board	poldrack-single-stim	s603	False
0.1	489.562	1.106	490.668	0	PA_with_intermediate	test	ward_and_allport	89	38.0	1.106	to_hand	poldrack-single-stim	s603	False
0.1	490.668	0.417	491.085	0	PA_with_intermediate	test	ward_and_allport	71	38.0	0.417	to_board	poldrack-single-stim	s603	False
0.1	491.094	1.188	492.282	0	PA_with_intermediate	test	ward_and_allport	71	38.0	1.188	to_hand	poldrack-single-stim	s603	False
0.1	492.283	0.484	492.767	0	PA_with_intermediate	test	ward_and_allport	82	38.0	0.484	to_board	poldrack-single-stim	s603	False
1.0	492.779	2.0	492.778	0	PA_with_intermediate	test	ward_and_allport	-1	38.0	n/a	feedback	poldrack-single-stim	s603	False
4.078	494.789	4.078	498.867	1	PA_without_intermediate	test	ward_and_allport	82	39.0	4.078	to_hand	poldrack-single-stim	s603	False
0.1	498.869	0.375	499.244	0	PA_without_intermediate	test	ward_and_allport	71	39.0	0.375	to_board	poldrack-single-stim	s603	False
0.1	499.252	1.555	500.807	0	PA_without_intermediate	test	ward_and_allport	82	39.0	1.555	to_hand	poldrack-single-stim	s603	False
0.1	500.808	0.492	501.3	0	PA_without_intermediate	test	ward_and_allport	71	39.0	0.492	to_board	poldrack-single-stim	s603	False
0.1	501.307	0.512	501.819	0	PA_without_intermediate	test	ward_and_allport	82	39.0	0.512	to_hand	poldrack-single-stim	s603	False
0.1	501.821	0.357	502.178	0	PA_without_intermediate	test	ward_and_allport	89	39.0	0.357	to_board	poldrack-single-stim	s603	False
1.0	502.19	2.408	502.189	0	PA_without_intermediate	test	ward_and_allport	-1	39.0	n/a	feedback	poldrack-single-stim	s603	False
5.094	504.607	5.094	509.701	1	PA_with_intermediate	test	ward_and_allport	71	40.0	5.094	to_hand	poldrack-single-stim	s603	False
0.1	509.703	0.397	510.1	0	PA_with_intermediate	test	ward_and_allport	82	40.0	0.397	to_board	poldrack-single-stim	s603	False
0.1	510.109	1.287	511.396	0	PA_with_intermediate	test	ward_and_allport	71	40.0	1.287	to_hand	poldrack-single-stim	s603	False
0.1	511.397	0.263	511.66	0	PA_with_intermediate	test	ward_and_allport	89	40.0	0.263	to_board	poldrack-single-stim	s603	False
0.1	511.669	0.717	512.386	0	PA_with_intermediate	test	ward_and_allport	82	40.0	0.717	to_hand	poldrack-single-stim	s603	False
0.1	512.387	0.274	512.661	0	PA_with_intermediate	test	ward_and_allport	89	40.0	0.274	to_board	poldrack-single-stim	s603	False
1.0	512.672	2.816	512.671	0	PA_with_intermediate	test	ward_and_allport	-1	40.0	n/a	feedback	poldrack-single-stim	s603	False
2.073	515.497	2.073	517.57	1	PA_without_intermediate	test	ward_and_allport	71	41.0	2.073	to_hand	poldrack-single-stim	s603	False
0.1	517.572	0.944	518.516	0	PA_without_intermediate	test	ward_and_allport	82	41.0	0.944	to_board	poldrack-single-stim	s603	False
0.1	518.523	0.859	519.382	0	PA_without_intermediate	test	ward_and_allport	71	41.0	0.859	to_hand	poldrack-single-stim	s603	False
0.1	519.383	0.26	519.643	0	PA_without_intermediate	test	ward_and_allport	89	41.0	0.26	to_board	poldrack-single-stim	s603	False
0.1	519.651	0.601	520.252	0	PA_without_intermediate	test	ward_and_allport	71	41.0	0.601	to_hand	poldrack-single-stim	s603	False
0.1	520.253	0.245	520.498	0	PA_without_intermediate	test	ward_and_allport	82	41.0	0.245	to_board	poldrack-single-stim	s603	False
1.0	520.507	3.088	520.506	0	PA_without_intermediate	test	ward_and_allport	-1	41.0	n/a	feedback	poldrack-single-stim	s603	False
2.375	523.604	2.375	525.979	1	PA_without_intermediate	test	ward_and_allport	82	42.0	2.375	to_hand	poldrack-single-stim	s603	False
0.1	525.98	0.416	526.396	0	PA_without_intermediate	test	ward_and_allport	71	42.0	0.416	to_board	poldrack-single-stim	s603	False
0.1	526.403	1.253	527.656	0	PA_without_intermediate	test	ward_and_allport	82	42.0	1.253	to_hand	poldrack-single-stim	s603	False
0.1	527.657	0.508	528.165	0	PA_without_intermediate	test	ward_and_allport	89	42.0	0.508	to_board	poldrack-single-stim	s603	False
0.1	528.172	0.738	528.91	0	PA_without_intermediate	test	ward_and_allport	71	42.0	0.738	to_hand	poldrack-single-stim	s603	False
0.1	528.912	0.944	529.856	0	PA_without_intermediate	test	ward_and_allport	71	42.0	0.944	to_board	poldrack-single-stim	s603	False
0.1	529.866	0.421	530.287	0	PA_without_intermediate	test	ward_and_allport	82	42.0	0.421	to_hand	poldrack-single-stim	s603	False
0.1	530.288	0.233	530.521	0	PA_without_intermediate	test	ward_and_allport	71	42.0	0.233	to_board	poldrack-single-stim	s603	False
1.0	530.537	2.136	530.536	0	PA_without_intermediate	test	ward_and_allport	-1	42.0	n/a	feedback	poldrack-single-stim	s603	False
1.303	532.68	1.303	533.983	1	PA_without_intermediate	test	ward_and_allport	71	43.0	1.303	to_hand	poldrack-single-stim	s603	False
0.1	533.984	0.845	534.829	0	PA_without_intermediate	test	ward_and_allport	89	43.0	0.845	to_board	poldrack-single-stim	s603	False
0.1	534.837	1.057	535.894	0	PA_without_intermediate	test	ward_and_allport	71	43.0	1.057	to_hand	poldrack-single-stim	s603	False
0.1	535.896	0.415	536.311	0	PA_without_intermediate	test	ward_and_allport	89	43.0	0.415	to_board	poldrack-single-stim	s603	False
0.1	536.318	1.02	537.338	0	PA_without_intermediate	test	ward_and_allport	71	43.0	1.02	to_hand	poldrack-single-stim	s603	False
0.1	537.339	0.557	537.896	0	PA_without_intermediate	test	ward_and_allport	82	43.0	0.557	to_board	poldrack-single-stim	s603	False
1.0	537.905	7.168	537.904	0	PA_without_intermediate	test	ward_and_allport	-1	43.0	n/a	feedback	poldrack-single-stim	s603	False
1.861	545.084	1.861	546.945	1	PA_without_intermediate	test	ward_and_allport	71	44.0	1.861	to_hand	poldrack-single-stim	s603	False
0.1	546.947	0.387	547.334	0	PA_without_intermediate	test	ward_and_allport	89	44.0	0.387	to_board	poldrack-single-stim	s603	False
0.1	547.345	0.628	547.973	0	PA_without_intermediate	test	ward_and_allport	71	44.0	0.628	to_hand	poldrack-single-stim	s603	False
0.1	547.975	0.386	548.361	0	PA_without_intermediate	test	ward_and_allport	89	44.0	0.386	to_board	poldrack-single-stim	s603	False
0.1	548.373	0.358	548.731	0	PA_without_intermediate	test	ward_and_allport	71	44.0	0.358	to_hand	poldrack-single-stim	s603	False
0.1	548.733	0.348	549.081	0	PA_without_intermediate	test	ward_and_allport	82	44.0	0.348	to_board	poldrack-single-stim	s603	False
1.0	549.094	2.816	549.093	0	PA_without_intermediate	test	ward_and_allport	-1	44.0	n/a	feedback	poldrack-single-stim	s603	False
3.798	556.92	3.798	560.718	1	PA_with_intermediate	test	ward_and_allport	82	45.0	3.798	to_hand	poldrack-single-stim	s603	False
0.1	560.72	0.732	561.452	0	PA_with_intermediate	test	ward_and_allport	89	45.0	0.732	to_board	poldrack-single-stim	s603	False
0.1	561.462	2.01	563.472	0	PA_with_intermediate	test	ward_and_allport	82	45.0	2.01	to_hand	poldrack-single-stim	s603	False
0.1	563.473	0.411	563.884	0	PA_with_intermediate	test	ward_and_allport	71	45.0	0.411	to_board	poldrack-single-stim	s603	False
0.1	563.894	1.172	565.066	0	PA_with_intermediate	test	ward_and_allport	89	45.0	1.172	to_hand	poldrack-single-stim	s603	False
0.1	565.068	0.367	565.435	0	PA_with_intermediate	test	ward_and_allport	82	45.0	0.367	to_board	poldrack-single-stim	s603	False
1.0	565.449	2.952	565.448	0	PA_with_intermediate	test	ward_and_allport	-1	45.0	n/a	feedback	poldrack-single-stim	s603	False
