onset	duration	movement_onset	EV	action	block_duration	experiment_exp_id	gain_amount	gain_probability	key_press	loss_amount	loss_probability	num_cards	num_click_in_round	num_loss_cards	risk	response_time	total_cards	trial_id	trial_type	worker_id	junk	feedback
3.013	7.923	10.936	-1.0000258321924986	draw_card	7.923	columbia_card_task_fmri	12.0	0.8333333333333334	89.0	-70.0	0.1666666666666666	6.0	1.0	1.0	-1.1475359108266474	7.923	1.0	stim	poldrack-single-stim	s603	False	0
11.694	1.5	10.943	n/a	-1.0	2.454	columbia_card_task_fmri	n/a	n/a	-1.0	n/a	n/a	n/a	n/a	n/a	n/a	n/a	n/a	ITI	poldrack-single-stim	s603	False	0
13.401	5.429	18.83	-0.1666924988591647	draw_card	5.429	columbia_card_task_fmri	14.0	0.8333333333333334	89.0	-75.0	0.1666666666666666	6.0	1.0	1.0	1.4606383590190395	5.429	1.0	stim	poldrack-single-stim	s603	False	0
19.586	1.5	18.835	n/a	-1.0	2.454	columbia_card_task_fmri	n/a	n/a	-1.0	n/a	n/a	n/a	n/a	n/a	n/a	n/a	n/a	ITI	poldrack-single-stim	s603	False	0
21.291	2.573	23.864	1.4999741678075014	draw_card	2.573	columbia_card_task_fmri	15.0	0.8333333333333334	89.0	-70.0	0.1666666666666666	6.0	1.0	1.0	-0.029758464380837	2.573	n/a	stim	poldrack-single-stim	s603	False	1
23.866	2.718	26.584	-1.3333591655258326	draw_card	2.718	columbia_card_task_fmri	15.0	0.8	89.0	-70.0	0.2	6.0	2.0	1.0	2.292132872465178	2.718	n/a	stim	poldrack-single-stim	s603	False	1
26.586	2.491	29.077	-5.583359165525833	end_round	2.491	columbia_card_task_fmri	15.0	0.75	71.0	-70.0	0.25	6.0	3.0	1.0	5.097714407029233	2.491	2.0	stim	poldrack-single-stim	s603	False	1
29.829	1.5	29.078	n/a	-1.0	2.522	columbia_card_task_fmri	n/a	n/a	-1.0	n/a	n/a	n/a	n/a	n/a	n/a	n/a	n/a	ITI	poldrack-single-stim	s603	False	0
31.602	4.88	36.482	2.333307501140835	draw_card	4.88	columbia_card_task_fmri	17.0	0.8333333333333334	89.0	-75.0	0.1666666666666666	6.0	1.0	1.0	2.5784539560395494	4.88	n/a	stim	poldrack-single-stim	s603	False	1
36.484	2.456	38.94	-0.7333591655258311	draw_card	2.456	columbia_card_task_fmri	17.0	0.8	89.0	-75.0	0.2	6.0	2.0	1.0	5.09163574333704	2.456	n/a	stim	poldrack-single-stim	s603	False	1
38.942	2.452	41.394	-5.333359165525833	draw_card	2.452	columbia_card_task_fmri	17.0	0.75	89.0	-75.0	0.25	6.0	3.0	1.0	8.128344074082552	2.452	n/a	stim	poldrack-single-stim	s603	False	1
41.396	2.649	44.045	-13.0000258321925	end_round	2.649	columbia_card_task_fmri	17.0	0.6666666666666667	71.0	-75.0	0.3333333333333333	6.0	4.0	1.0	11.659937234520068	2.649	3.0	stim	poldrack-single-stim	s603	False	1
44.798	1.5	44.047	n/a	-1.0	2.454	columbia_card_task_fmri	n/a	n/a	-1.0	n/a	n/a	n/a	n/a	n/a	n/a	n/a	n/a	ITI	poldrack-single-stim	s603	False	0
46.504	2.462	48.966	3.666640834474167	draw_card	2.462	columbia_card_task_fmri	24.0	0.75	89.0	-60.0	0.25	8.0	1.0	2.0	4.664773558461523	2.462	1.0	stim	poldrack-single-stim	s603	False	0
49.72	1.5	48.969	n/a	-1.0	2.658	columbia_card_task_fmri	n/a	n/a	-1.0	n/a	n/a	n/a	n/a	n/a	n/a	n/a	n/a	ITI	poldrack-single-stim	s603	False	0
51.629	1.065	52.694	3.666640834474167	draw_card	1.065	columbia_card_task_fmri	29.0	0.75	89.0	-75.0	0.25	8.0	1.0	2.0	13.323853021032104	1.065	1.0	stim	poldrack-single-stim	s603	False	0
53.447	1.5	52.696	n/a	-1.0	2.386	columbia_card_task_fmri	n/a	n/a	-1.0	n/a	n/a	n/a	n/a	n/a	n/a	n/a	n/a	ITI	poldrack-single-stim	s603	False	0
55.085	1.972	57.057	-0.5555813877480522	draw_card	1.972	columbia_card_task_fmri	17.0	0.7777777777777778	89.0	-65.0	0.2222222222222222	9.0	1.0	2.0	2.3827716885787176	1.972	1.0	stim	poldrack-single-stim	s603	False	0
57.813	1.5	57.062	n/a	-1.0	2.522	columbia_card_task_fmri	n/a	n/a	-1.0	n/a	n/a	n/a	n/a	n/a	n/a	n/a	n/a	ITI	poldrack-single-stim	s603	False	0
59.587	3.544	63.131	3.766640834474167	draw_card	3.544	columbia_card_task_fmri	14.0	0.9	89.0	-95.0	0.1	10.0	1.0	1.0	0.9923926133240464	3.544	n/a	stim	poldrack-single-stim	s603	False	1
63.133	2.316	65.449	2.5555297233630547	draw_card	2.316	columbia_card_task_fmri	14.0	0.8888888888888888	89.0	-95.0	0.1111111111111111	10.0	2.0	1.0	2.5474793381268164	2.316	n/a	stim	poldrack-single-stim	s603	False	1
65.451	4.344	69.795	1.0416408344741674	draw_card	4.344	columbia_card_task_fmri	14.0	0.875	89.0	-95.0	0.125	10.0	3.0	1.0	4.340123226036344	4.344	n/a	stim	poldrack-single-stim	s603	False	1
69.797	2.388	72.185	-0.9047877369544036	draw_card	2.388	columbia_card_task_fmri	14.0	0.8571428571428572	89.0	-95.0	0.1428571428571428	10.0	4.0	1.0	6.433477902473999	2.388	n/a	stim	poldrack-single-stim	s603	False	1
72.187	5.724	77.911	-3.500025832192497	draw_card	5.724	columbia_card_task_fmri	14.0	0.8333333333333334	89.0	-95.0	0.1666666666666666	10.0	5.0	1.0	8.912969361013413	5.724	n/a	stim	poldrack-single-stim	s603	False	1
77.913	3.496	81.409	-7.133359165525832	end_round	3.496	columbia_card_task_fmri	14.0	0.8	71.0	-95.0	0.2	10.0	6.0	1.0	11.890694206403264	3.496	5.0	stim	poldrack-single-stim	s603	False	1
82.161	1.5	81.41	n/a	-1.0	2.59	columbia_card_task_fmri	n/a	n/a	-1.0	n/a	n/a	n/a	n/a	n/a	n/a	n/a	n/a	ITI	poldrack-single-stim	s603	False	0
84.003	3.458	87.461	-0.3333591655258325	draw_card	3.458	columbia_card_task_fmri	15.0	0.8	89.0	-65.0	0.2	10.0	1.0	2.0	0.2925412122973192	3.458	1.0	stim	poldrack-single-stim	s603	False	0
88.216	1.5	87.465	n/a	-1.0	2.386	columbia_card_task_fmri	n/a	n/a	-1.0	n/a	n/a	n/a	n/a	n/a	n/a	n/a	n/a	ITI	poldrack-single-stim	s603	False	0
89.854	1.397	91.251	1.2666408344741689	draw_card	1.397	columbia_card_task_fmri	17.0	0.8	89.0	-65.0	0.2	10.0	1.0	2.0	1.0923719025039027	1.397	1.0	stim	poldrack-single-stim	s603	False	0
92.004	1.5	91.253	n/a	-1.0	2.59	columbia_card_task_fmri	n/a	n/a	-1.0	n/a	n/a	n/a	n/a	n/a	n/a	n/a	n/a	ITI	poldrack-single-stim	s603	False	0
93.846	1.94	95.786	-0.1666924988591647	draw_card	1.94	columbia_card_task_fmri	13.0	0.8333333333333334	89.0	-70.0	0.1666666666666666	12.0	1.0	2.0	-0.7749454885440059	1.94	n/a	stim	poldrack-single-stim	s603	False	1
95.788	1.668	97.456	-1.424268256434926	draw_card	1.668	columbia_card_task_fmri	13.0	0.8181818181818181	89.0	-70.0	0.1818181818181818	12.0	2.0	2.0	0.305190926083501	1.668	n/a	stim	poldrack-single-stim	s603	False	1
97.458	2.884	100.342	-2.9333591655258324	draw_card	2.884	columbia_card_task_fmri	13.0	0.8	89.0	-70.0	0.2	12.0	3.0	2.0	1.4922903064824986	2.884	n/a	stim	poldrack-single-stim	s603	False	1
100.344	5.76	106.104	-4.777803609970277	draw_card	5.76	columbia_card_task_fmri	13.0	0.7777777777777778	89.0	-70.0	0.2222222222222222	12.0	4.0	2.0	2.798432889601319	5.76	n/a	stim	poldrack-single-stim	s603	False	1
106.106	3.965	110.071	-7.083359165525833	draw_card	3.965	columbia_card_task_fmri	13.0	0.75	89.0	-70.0	0.25	12.0	5.0	2.0	4.23183444085787	3.965	n/a	stim	poldrack-single-stim	s603	False	1
110.073	5.302	115.375	-10.047644879811546	end_round	5.302	columbia_card_task_fmri	13.0	0.7142857142857143	71.0	-70.0	0.2857142857142857	12.0	6.0	2.0	5.787101727094818	5.302	5.0	stim	poldrack-single-stim	s603	False	1
116.129	1.5	115.378	n/a	-1.0	2.318	columbia_card_task_fmri	n/a	n/a	-1.0	n/a	n/a	n/a	n/a	n/a	n/a	n/a	n/a	ITI	poldrack-single-stim	s603	False	0
117.699	1.522	119.221	-0.1666924988591647	draw_card	1.522	columbia_card_task_fmri	15.0	0.8333333333333334	89.0	-80.0	0.1666666666666666	12.0	1.0	2.0	3.696283342433208	1.522	n/a	stim	poldrack-single-stim	s603	False	1
119.223	1.686	120.909	-1.6060864382531077	draw_card	1.686	columbia_card_task_fmri	15.0	0.8181818181818181	89.0	-80.0	0.1818181818181818	12.0	2.0	2.0	4.932649693365239	1.686	n/a	stim	poldrack-single-stim	s603	False	1
120.911	1.133	122.044	-3.333359165525833	draw_card	1.133	columbia_card_task_fmri	15.0	0.8	89.0	-80.0	0.2	12.0	3.0	2.0	6.291445109440094	1.133	n/a	stim	poldrack-single-stim	s603	False	1
122.046	1.874	123.92	-5.444470276636945	draw_card	1.874	columbia_card_task_fmri	15.0	0.7777777777777778	89.0	-80.0	0.2222222222222222	12.0	4.0	2.0	7.786496190967579	1.874	4.0	stim	poldrack-single-stim	s603	False	0
124.677	1.5	123.926	n/a	-1.0	2.25	columbia_card_task_fmri	n/a	n/a	-1.0	n/a	n/a	n/a	n/a	n/a	n/a	n/a	n/a	ITI	poldrack-single-stim	s603	False	0
126.179	2.111	128.29	-1.1333591655258315	draw_card	2.111	columbia_card_task_fmri	14.0	0.8	89.0	-65.0	0.2	15.0	1.0	3.0	-0.107370919118118	2.111	n/a	stim	poldrack-single-stim	s603	False	1
128.292	1.551	129.843	-2.26193059409726	draw_card	1.551	columbia_card_task_fmri	14.0	0.7857142857142857	89.0	-65.0	0.2142857142857142	15.0	2.0	3.0	0.7081985448264696	1.551	n/a	stim	poldrack-single-stim	s603	False	1
129.845	4.249	134.094	-3.5641283962950645	draw_card	4.249	columbia_card_task_fmri	14.0	0.7692307692307692	89.0	-65.0	0.2307692307692307	15.0	3.0	3.0	1.5769517789114893	4.249	3.0	stim	poldrack-single-stim	s603	False	0
134.846	1.5	134.095	n/a	-1.0	2.454	columbia_card_task_fmri	n/a	n/a	-1.0	n/a	n/a	n/a	n/a	n/a	n/a	n/a	n/a	ITI	poldrack-single-stim	s603	False	0
136.552	1.898	138.45	-1.2083591655258326	draw_card	1.898	columbia_card_task_fmri	1.0	0.9375	89.0	-45.0	0.0625	16.0	1.0	1.0	-20.55963681537586	1.898	1.0	stim	poldrack-single-stim	s603	False	0
139.204	1.5	138.453	n/a	-1.0	3.27	columbia_card_task_fmri	n/a	n/a	-1.0	n/a	n/a	n/a	n/a	n/a	n/a	n/a	n/a	ITI	poldrack-single-stim	s603	False	0
141.725	1.38	143.105	-0.2708591655258325	draw_card	1.38	columbia_card_task_fmri	15.0	0.8125	89.0	-70.0	0.1875	16.0	1.0	3.0	1.468846901887613	1.38	n/a	stim	poldrack-single-stim	s603	False	1
143.107	1.098	144.205	-1.3333591655258326	draw_card	1.098	columbia_card_task_fmri	15.0	0.8	89.0	-70.0	0.2	16.0	2.0	3.0	2.292132872465178	1.098	n/a	stim	poldrack-single-stim	s603	False	1
144.207	2.262	146.469	-2.547644879811548	draw_card	2.262	columbia_card_task_fmri	15.0	0.7857142857142857	89.0	-70.0	0.2142857142857142	16.0	3.0	3.0	3.1696702360339977	2.262	n/a	stim	poldrack-single-stim	s603	False	1
146.471	2.189	148.66	-3.9487437809104495	draw_card	2.189	columbia_card_task_fmri	15.0	0.7692307692307692	89.0	-70.0	0.2307692307692307	16.0	4.0	3.0	4.104430936671523	2.189	n/a	stim	poldrack-single-stim	s603	False	1
148.662	4.704	153.366	-5.583359165525833	end_round	4.704	columbia_card_task_fmri	15.0	0.75	71.0	-70.0	0.25	16.0	5.0	3.0	5.097714407029233	4.704	4.0	stim	poldrack-single-stim	s603	False	1
154.122	1.5	153.371	n/a	-1.0	2.25	columbia_card_task_fmri	n/a	n/a	-1.0	n/a	n/a	n/a	n/a	n/a	n/a	n/a	n/a	ITI	poldrack-single-stim	s603	False	0
155.624	0.938	156.562	6.666640834474167	draw_card	0.938	columbia_card_task_fmri	30.0	0.7	89.0	-50.0	0.3	10.0	1.0	3.0	4.952264256252885	0.938	n/a	stim	poldrack-single-stim	s603	False	1
156.563	2.869	159.432	3.9999741678075065	draw_card	2.869	columbia_card_task_fmri	30.0	0.6666666666666667	89.0	-50.0	0.3333333333333333	10.0	2.0	3.0	6.003851362188929	2.869	n/a	stim	poldrack-single-stim	s603	False	1
159.435	3.453	162.888	0.6666408344741674	draw_card	3.453	columbia_card_task_fmri	30.0	0.625	89.0	-50.0	0.375	10.0	3.0	3.0	7.021168404895459	3.453	n/a	stim	poldrack-single-stim	s603	False	1
162.89	3.004	165.894	-3.6190734512401175	end_round	3.004	columbia_card_task_fmri	30.0	0.5714285714285714	71.0	-50.0	0.4285714285714285	10.0	4.0	3.0	7.88094309850889	3.004	3.0	stim	poldrack-single-stim	s603	False	1
166.65	1.5	165.899	n/a	-1.0	2.25	columbia_card_task_fmri	n/a	n/a	-1.0	n/a	n/a	n/a	n/a	n/a	n/a	n/a	n/a	ITI	poldrack-single-stim	s603	False	0
168.152	0.923	169.075	6.066640834474168	draw_card	0.923	columbia_card_task_fmri	17.0	0.8666666666666667	89.0	-70.0	0.1333333333333333	15.0	1.0	2.0	-2.1325762702071707	0.923	n/a	stim	poldrack-single-stim	s603	False	1
169.077	1.522	170.599	5.23806940590274	draw_card	1.522	columbia_card_task_fmri	17.0	0.8571428571428572	89.0	-70.0	0.1428571428571428	15.0	2.0	2.0	-1.2634456908552458	1.522	2.0	stim	poldrack-single-stim	s603	False	0
171.353	1.5	170.602	n/a	-1.0	2.318	columbia_card_task_fmri	n/a	n/a	-1.0	n/a	n/a	n/a	n/a	n/a	n/a	n/a	n/a	ITI	poldrack-single-stim	s603	False	0
172.923	0.772	173.695	1.2916408344741674	draw_card	0.772	columbia_card_task_fmri	7.0	0.9375	89.0	-95.0	0.0625	16.0	1.0	1.0	-7.015135048747844	0.772	n/a	stim	poldrack-single-stim	s603	False	1
173.698	2.691	176.389	0.8666408344741676	draw_card	2.691	columbia_card_task_fmri	7.0	0.9333333333333332	89.0	-95.0	0.0666666666666666	16.0	2.0	1.0	-6.2623998583526514	2.691	n/a	stim	poldrack-single-stim	s603	False	1
176.391	1.453	177.844	0.3809265487598818	draw_card	1.453	columbia_card_task_fmri	7.0	0.9285714285714286	89.0	-95.0	0.0714285714285714	16.0	3.0	1.0	-5.436928042139417	1.453	n/a	stim	poldrack-single-stim	s603	False	1
177.846	1.786	179.632	-0.1795130116796792	draw_card	1.786	columbia_card_task_fmri	7.0	0.9230769230769232	89.0	-95.0	0.0769230769230769	16.0	4.0	1.0	-4.526353608209686	1.786	n/a	stim	poldrack-single-stim	s603	False	1
179.635	3.214	182.849	-0.8333591655258326	draw_card	3.214	columbia_card_task_fmri	7.0	0.9166666666666666	89.0	-95.0	0.0833333333333333	16.0	5.0	1.0	-3.5152102856266687	3.214	n/a	stim	poldrack-single-stim	s603	False	1
182.851	3.006	185.857	-1.606086438253106	draw_card	3.006	columbia_card_task_fmri	7.0	0.9090909090909092	89.0	-95.0	0.0909090909090909	16.0	6.0	1.0	-2.3838867603753684	3.006	n/a	stim	poldrack-single-stim	s603	False	1
185.859	1.911	187.77	-2.533359165525833	end_round	1.911	columbia_card_task_fmri	7.0	0.9	71.0	-95.0	0.1	16.0	7.0	1.0	-1.1071412008145565	1.911	6.0	stim	poldrack-single-stim	s603	False	1
188.526	1.5	187.775	n/a	-1.0	2.726	columbia_card_task_fmri	n/a	n/a	-1.0	n/a	n/a	n/a	n/a	n/a	n/a	n/a	n/a	ITI	poldrack-single-stim	s603	False	0
190.505	3.505	194.01	2.854140834474167	draw_card	3.505	columbia_card_task_fmri	9.0	0.9375	89.0	-100.0	0.0625	16.0	1.0	1.0	-5.321282501161864	3.505	n/a	stim	poldrack-single-stim	s603	False	1
194.012	3.324	197.336	2.3999741678075006	draw_card	3.324	columbia_card_task_fmri	9.0	0.9333333333333332	89.0	-100.0	0.0666666666666666	16.0	2.0	1.0	-4.516853664763929	3.324	n/a	stim	poldrack-single-stim	s603	False	1
197.338	2.492	199.83	1.8809265487598827	draw_card	2.492	columbia_card_task_fmri	9.0	0.9285714285714286	89.0	-100.0	0.0714285714285714	16.0	3.0	1.0	-3.634695385900496	2.492	n/a	stim	poldrack-single-stim	s603	False	1
199.832	3.25	203.082	1.2820254498587833	draw_card	3.25	columbia_card_task_fmri	9.0	0.9230769230769232	89.0	-100.0	0.0769230769230769	16.0	4.0	1.0	-2.661592923762832	3.25	n/a	stim	poldrack-single-stim	s603	False	1
203.085	1.949	205.034	0.5833075011408353	draw_card	1.949	columbia_card_task_fmri	9.0	0.9166666666666666	89.0	-100.0	0.0833333333333333	16.0	5.0	1.0	-1.5810184783626546	1.949	n/a	stim	poldrack-single-stim	s603	False	1
205.036	3.9	208.936	-0.2424500746167426	end_round	3.9	columbia_card_task_fmri	9.0	0.9090909090909092	71.0	-100.0	0.0909090909090909	16.0	6.0	1.0	-0.3720147239364202	3.9	5.0	stim	poldrack-single-stim	s603	False	1
209.693	1.5	208.942	n/a	-1.0	2.386	columbia_card_task_fmri	n/a	n/a	-1.0	n/a	n/a	n/a	n/a	n/a	n/a	n/a	n/a	ITI	poldrack-single-stim	s603	False	0
211.332	2.625	213.957	3.791640834474167	draw_card	2.625	columbia_card_task_fmri	15.0	0.875	89.0	-80.0	0.125	16.0	1.0	2.0	-0.2890334464522937	2.625	n/a	stim	poldrack-single-stim	s603	False	1
213.958	0.929	214.887	2.999974167807501	draw_card	0.929	columbia_card_task_fmri	15.0	0.8666666666666667	89.0	-80.0	0.1333333333333333	16.0	2.0	2.0	0.5862683137709332	0.929	n/a	stim	poldrack-single-stim	s603	False	1
214.889	1.669	216.558	2.095212263045598	draw_card	1.669	columbia_card_task_fmri	15.0	0.8571428571428572	89.0	-80.0	0.1428571428571428	16.0	3.0	2.0	1.535356717302502	1.669	n/a	stim	poldrack-single-stim	s603	False	1
216.56	3.051	219.611	1.0512562190895507	draw_card	3.051	columbia_card_task_fmri	15.0	0.8461538461538461	89.0	-80.0	0.1538461538461538	16.0	4.0	2.0	2.5681954084640037	3.051	n/a	stim	poldrack-single-stim	s603	False	1
219.614	1.938	221.552	-0.1666924988591647	draw_card	1.938	columbia_card_task_fmri	15.0	0.8333333333333334	89.0	-80.0	0.1666666666666666	16.0	5.0	2.0	3.696283342433208	1.938	n/a	stim	poldrack-single-stim	s603	False	1
221.554	1.72	223.274	-1.6060864382531077	draw_card	1.72	columbia_card_task_fmri	15.0	0.8181818181818181	89.0	-80.0	0.1818181818181818	16.0	6.0	2.0	4.932649693365239	1.72	n/a	stim	poldrack-single-stim	s603	False	1
223.276	1.551	224.827	-3.333359165525833	draw_card	1.551	columbia_card_task_fmri	15.0	0.8	89.0	-80.0	0.2	16.0	7.0	2.0	6.291445109440094	1.551	n/a	stim	poldrack-single-stim	s603	False	1
224.83	1.206	226.036	-5.444470276636945	draw_card	1.206	columbia_card_task_fmri	15.0	0.7777777777777778	89.0	-80.0	0.2222222222222222	16.0	8.0	2.0	7.786496190967579	1.206	n/a	stim	poldrack-single-stim	s603	False	1
226.038	1.727	227.765	-8.083359165525833	end_round	1.727	columbia_card_task_fmri	15.0	0.75	71.0	-80.0	0.25	16.0	9.0	2.0	9.42720607355182	1.727	8.0	stim	poldrack-single-stim	s603	False	1
228.518	1.5	227.767	n/a	-1.0	2.318	columbia_card_task_fmri	n/a	n/a	-1.0	n/a	n/a	n/a	n/a	n/a	n/a	n/a	n/a	ITI	poldrack-single-stim	s603	False	0
230.089	2.625	232.714	5.916640834474167	draw_card	2.625	columbia_card_task_fmri	16.0	0.875	89.0	-70.0	0.125	16.0	1.0	2.0	-3.2647638059269326	2.625	n/a	stim	poldrack-single-stim	s603	False	1
232.717	1.797	234.514	5.1999741678075	draw_card	1.797	columbia_card_task_fmri	16.0	0.8666666666666667	89.0	-70.0	0.1333333333333333	16.0	2.0	2.0	-2.472423572464568	1.797	n/a	stim	poldrack-single-stim	s603	False	1
234.517	0.849	235.366	4.3809265487598825	draw_card	0.849	columbia_card_task_fmri	16.0	0.8571428571428572	89.0	-70.0	0.1428571428571428	16.0	3.0	2.0	-1.6132879569849692	0.849	3.0	stim	poldrack-single-stim	s603	False	0
236.122	1.5	235.371	n/a	-1.0	2.25	columbia_card_task_fmri	n/a	n/a	-1.0	n/a	n/a	n/a	n/a	n/a	n/a	n/a	n/a	ITI	poldrack-single-stim	s603	False	0
237.625	0.644	238.269	7.229140834474167	draw_card	0.644	columbia_card_task_fmri	30.0	0.6875	89.0	-45.0	0.3125	16.0	1.0	5.0	3.0554197981146025	0.644	n/a	stim	poldrack-single-stim	s603	False	1
238.271	5.844	244.115	5.666640834474171	draw_card	5.844	columbia_card_task_fmri	30.0	0.6666666666666667	89.0	-45.0	0.3333333333333333	16.0	2.0	5.0	3.64722146658843	5.844	n/a	stim	poldrack-single-stim	s603	False	1
244.118	5.72	249.838	3.880926548759879	draw_card	5.72	columbia_card_task_fmri	30.0	0.6428571428571428	89.0	-45.0	0.3571428571428571	16.0	3.0	5.0	4.228587523609836	5.72	n/a	stim	poldrack-single-stim	s603	False	1
249.84	5.19	255.03	1.8204869883203207	draw_card	5.19	columbia_card_task_fmri	30.0	0.6153846153846154	89.0	-45.0	0.3846153846153846	16.0	4.0	5.0	4.779506547489444	5.19	n/a	stim	poldrack-single-stim	s603	False	1
255.032	4.644	259.676	-0.5833591655258361	draw_card	4.644	columbia_card_task_fmri	30.0	0.5833333333333333	89.0	-45.0	0.4166666666666667	16.0	5.0	5.0	5.2671057354175055	4.644	n/a	stim	poldrack-single-stim	s603	False	1
259.679	2.306	261.985	-3.4242682564349227	end_round	2.306	columbia_card_task_fmri	30.0	0.5454545454545454	71.0	-45.0	0.4545454545454545	16.0	6.0	5.0	5.636267520131053	2.306	5.0	stim	poldrack-single-stim	s603	False	1
262.741	1.5	261.99	n/a	-1.0	2.25	columbia_card_task_fmri	n/a	n/a	-1.0	n/a	n/a	n/a	n/a	n/a	n/a	n/a	n/a	ITI	poldrack-single-stim	s603	False	0
264.243	1.862	266.105	-1.0000258321924986	draw_card	1.862	columbia_card_task_fmri	13.0	0.8333333333333334	89.0	-75.0	0.1666666666666666	6.0	1.0	1.0	1.0880364679714454	1.862	n/a	stim	poldrack-single-stim	s603	False	1
266.107	5.26	271.367	-3.933359165525832	draw_card	5.26	columbia_card_task_fmri	13.0	0.8	89.0	-75.0	0.2	6.0	2.0	1.0	3.491910135388057	5.26	n/a	stim	poldrack-single-stim	s603	False	1
271.371	2.81	274.181	-8.333359165525833	end_round	2.81	columbia_card_task_fmri	13.0	0.75	71.0	-75.0	0.25	6.0	3.0	1.0	6.396546748602301	2.81	2.0	stim	poldrack-single-stim	s603	False	1
274.934	1.5	274.183	n/a	-1.0	2.454	columbia_card_task_fmri	n/a	n/a	-1.0	n/a	n/a	n/a	n/a	n/a	n/a	n/a	n/a	ITI	poldrack-single-stim	s603	False	0
276.641	0.684	277.325	0.6666408344741692	draw_card	0.684	columbia_card_task_fmri	14.0	0.8333333333333334	89.0	-70.0	0.1666666666666666	6.0	1.0	1.0	-0.4023529818843734	0.684	n/a	stim	poldrack-single-stim	s603	False	1
277.328	2.284	279.612	-2.133359165525832	draw_card	2.284	columbia_card_task_fmri	14.0	0.8	89.0	-70.0	0.2	6.0	2.0	1.0	1.8922106526431897	2.284	2.0	stim	poldrack-single-stim	s603	False	0
280.365	1.5	279.614	n/a	-1.0	2.454	columbia_card_task_fmri	n/a	n/a	-1.0	n/a	n/a	n/a	n/a	n/a	n/a	n/a	n/a	ITI	poldrack-single-stim	s603	False	0
282.072	0.459	282.531	0.6666408344741692	draw_card	0.459	columbia_card_task_fmri	16.0	0.8333333333333334	89.0	-80.0	0.1666666666666666	6.0	1.0	1.0	4.068895978844108	0.459	n/a	stim	poldrack-single-stim	s603	False	1
282.533	3.662	286.195	-2.533359165525832	end_round	3.662	columbia_card_task_fmri	16.0	0.8	71.0	-80.0	0.2	6.0	2.0	1.0	6.691384211891712	3.662	1.0	stim	poldrack-single-stim	s603	False	1
286.949	1.5	286.198	n/a	-1.0	2.522	columbia_card_task_fmri	n/a	n/a	-1.0	n/a	n/a	n/a	n/a	n/a	n/a	n/a	n/a	ITI	poldrack-single-stim	s603	False	0
288.725	0.533	289.258	3.166640834474169	draw_card	0.533	columbia_card_task_fmri	17.0	0.8333333333333334	89.0	-70.0	0.1666666666666666	6.0	1.0	1.0	0.7154363259204892	0.533	n/a	stim	poldrack-single-stim	s603	False	1
289.262	4.5	293.762	0.2666408344741688	end_round	4.5	columbia_card_task_fmri	17.0	0.8	71.0	-70.0	0.2	6.0	2.0	1.0	3.091982674754409	4.5	1.0	stim	poldrack-single-stim	s603	False	1
294.514	1.5	293.763	n/a	-1.0	2.386	columbia_card_task_fmri	n/a	n/a	-1.0	n/a	n/a	n/a	n/a	n/a	n/a	n/a	n/a	ITI	poldrack-single-stim	s603	False	0
296.153	0.692	296.845	3.166640834474167	draw_card	0.692	columbia_card_task_fmri	25.0	0.75	89.0	-65.0	0.25	8.0	1.0	2.0	7.262442595492917	0.692	n/a	stim	poldrack-single-stim	s603	False	1
296.848	3.903	300.751	-0.0476448798115443	end_round	3.903	columbia_card_task_fmri	25.0	0.7142857142857143	71.0	-65.0	0.2857142857142857	8.0	2.0	2.0	8.94891856424881	3.903	1.0	stim	poldrack-single-stim	s603	False	1
301.507	1.5	300.756	n/a	-1.0	2.454	columbia_card_task_fmri	n/a	n/a	-1.0	n/a	n/a	n/a	n/a	n/a	n/a	n/a	n/a	ITI	poldrack-single-stim	s603	False	0
303.215	0.557	303.772	3.166640834474167	draw_card	0.557	columbia_card_task_fmri	30.0	0.75	89.0	-80.0	0.25	8.0	1.0	2.0	15.921660134137207	0.557	n/a	stim	poldrack-single-stim	s603	False	1
303.773	1.76	305.533	-0.761930594097256	draw_card	1.76	columbia_card_task_fmri	30.0	0.7142857142857143	89.0	-80.0	0.2857142857142857	8.0	2.0	2.0	17.983004079127557	1.76	n/a	stim	poldrack-single-stim	s603	False	1
305.536	4.895	310.431	-6.0000258321924935	draw_card	4.895	columbia_card_task_fmri	30.0	0.6666666666666667	89.0	-80.0	0.3333333333333333	8.0	3.0	2.0	20.144380332761056	4.895	3.0	stim	poldrack-single-stim	s603	False	0
311.184	1.5	310.433	n/a	-1.0	2.522	columbia_card_task_fmri	n/a	n/a	-1.0	n/a	n/a	n/a	n/a	n/a	n/a	n/a	n/a	ITI	poldrack-single-stim	s603	False	0
312.958	0.508	313.466	2.8666408344741683	draw_card	0.508	columbia_card_task_fmri	13.0	0.9	89.0	-95.0	0.1	10.0	1.0	1.0	0.692455512610163	0.508	n/a	stim	poldrack-single-stim	s603	False	1
313.47	2.877	316.347	1.6666408344741674	draw_card	2.877	columbia_card_task_fmri	13.0	0.8888888888888888	89.0	-95.0	0.1111111111111111	10.0	2.0	1.0	2.233269702566215	2.877	n/a	stim	poldrack-single-stim	s603	False	1
316.349	1.829	318.178	0.1666408344741674	end_round	1.829	columbia_card_task_fmri	13.0	0.875	71.0	-95.0	0.125	10.0	3.0	1.0	4.009461372201297	1.829	2.0	stim	poldrack-single-stim	s603	False	1
318.933	1.5	318.182	n/a	-1.0	2.522	columbia_card_task_fmri	n/a	n/a	-1.0	n/a	n/a	n/a	n/a	n/a	n/a	n/a	n/a	ITI	poldrack-single-stim	s603	False	0
320.708	1.195	321.903	4.266640834474167	draw_card	1.195	columbia_card_task_fmri	14.0	0.9	89.0	-90.0	0.1	10.0	1.0	1.0	-0.5072807982543708	1.195	n/a	stim	poldrack-single-stim	s603	False	1
321.906	5.534	327.44	3.11108527891861	draw_card	5.534	columbia_card_task_fmri	14.0	0.8888888888888888	89.0	-90.0	0.1111111111111111	10.0	2.0	1.0	0.9764427039307826	5.534	n/a	stim	poldrack-single-stim	s603	False	1
327.443	2.581	330.024	1.6666408344741674	draw_card	2.581	columbia_card_task_fmri	14.0	0.875	89.0	-90.0	0.125	10.0	3.0	1.0	2.686824926942069	2.581	n/a	stim	poldrack-single-stim	s603	False	1
330.026	1.01	331.036	-0.1905020226686884	end_round	1.01	columbia_card_task_fmri	14.0	0.8571428571428572	71.0	-90.0	0.1428571428571428	10.0	4.0	1.0	4.68412238741114	1.01	3.0	stim	poldrack-single-stim	s603	False	1
331.79	1.5	331.039	n/a	-1.0	2.59	columbia_card_task_fmri	n/a	n/a	-1.0	n/a	n/a	n/a	n/a	n/a	n/a	n/a	n/a	ITI	poldrack-single-stim	s603	False	0
333.632	0.814	334.446	-0.5333591655258318	draw_card	0.814	columbia_card_task_fmri	16.0	0.8	89.0	-70.0	0.2	10.0	1.0	2.0	2.692056900613185	0.814	1.0	stim	poldrack-single-stim	s603	False	0
335.203	1.5	334.452	n/a	-1.0	2.454	columbia_card_task_fmri	n/a	n/a	-1.0	n/a	n/a	n/a	n/a	n/a	n/a	n/a	n/a	ITI	poldrack-single-stim	s603	False	0
336.91	1.659	338.569	-1.2500258321924986	end_round	1.659	columbia_card_task_fmri	7.0	0.9166666666666666	71.0	-100.0	0.0833333333333333	12.0	1.0	1.0	-2.1336514619119846	1.659	0.0	stim	poldrack-single-stim	s603	False	1
339.324	1.5	338.573	n/a	-1.0	2.318	columbia_card_task_fmri	n/a	n/a	-1.0	n/a	n/a	n/a	n/a	n/a	n/a	n/a	n/a	ITI	poldrack-single-stim	s603	False	0
340.894	3.134	344.028	-1.0000258321924969	draw_card	3.134	columbia_card_task_fmri	14.0	0.8333333333333334	89.0	-80.0	0.1666666666666666	12.0	1.0	2.0	3.323672096283562	3.134	n/a	stim	poldrack-single-stim	s603	False	1
344.032	1.5	345.532	-2.4242682564349263	draw_card	1.5	columbia_card_task_fmri	14.0	0.8181818181818181	89.0	-80.0	0.1818181818181818	12.0	2.0	2.0	4.547019583980205	1.5	n/a	stim	poldrack-single-stim	s603	False	1
345.535	1.238	346.773	-4.133359165525832	draw_card	1.238	columbia_card_task_fmri	14.0	0.8	89.0	-80.0	0.2	12.0	3.0	2.0	5.891507302378802	1.238	3.0	stim	poldrack-single-stim	s603	False	0
347.53	1.5	346.779	n/a	-1.0	2.25	columbia_card_task_fmri	n/a	n/a	-1.0	n/a	n/a	n/a	n/a	n/a	n/a	n/a	n/a	ITI	poldrack-single-stim	s603	False	0
349.035	0.98	350.015	0.6666408344741674	draw_card	0.98	columbia_card_task_fmri	15.0	0.8333333333333334	89.0	-75.0	0.1666666666666666	12.0	1.0	2.0	1.8332419407867957	0.98	n/a	stim	poldrack-single-stim	s603	False	1
350.018	0.52	350.538	-0.6969955291621976	draw_card	0.52	columbia_card_task_fmri	15.0	0.8181818181818181	89.0	-75.0	0.1818181818181818	12.0	2.0	2.0	3.004513475610164	0.52	n/a	stim	poldrack-single-stim	s603	False	1
350.541	0.61	351.151	-2.333359165525833	draw_card	0.61	columbia_card_task_fmri	15.0	0.8	89.0	-75.0	0.2	12.0	3.0	2.0	4.291769891346089	0.61	n/a	stim	poldrack-single-stim	s603	False	1
351.154	2.116	353.27	-4.333359165525831	draw_card	2.116	columbia_card_task_fmri	15.0	0.7777777777777778	89.0	-75.0	0.2222222222222222	12.0	4.0	2.0	5.708110134235543	2.116	4.0	stim	poldrack-single-stim	s603	False	0
354.024	1.5	353.273	n/a	-1.0	2.658	columbia_card_task_fmri	n/a	n/a	-1.0	n/a	n/a	n/a	n/a	n/a	n/a	n/a	n/a	ITI	poldrack-single-stim	s603	False	0
355.935	1.893	357.828	-0.3333591655258325	draw_card	1.893	columbia_card_task_fmri	15.0	0.8	89.0	-65.0	0.2	15.0	1.0	3.0	0.2925412122973192	1.893	n/a	stim	poldrack-single-stim	s603	False	1
357.831	0.991	358.822	-1.476216308382975	draw_card	0.991	columbia_card_task_fmri	15.0	0.7857142857142857	89.0	-65.0	0.2142857142857142	15.0	2.0	3.0	1.1184387893874366	0.991	n/a	stim	poldrack-single-stim	s603	False	1
358.826	0.782	359.608	-2.794897627064296	draw_card	0.782	columbia_card_task_fmri	15.0	0.7692307692307692	89.0	-65.0	0.2307692307692307	15.0	3.0	3.0	1.9981933992505567	0.782	n/a	stim	poldrack-single-stim	s603	False	1
359.611	2.321	361.932	-4.333359165525833	draw_card	2.321	columbia_card_task_fmri	15.0	0.75	89.0	-65.0	0.25	15.0	4.0	3.0	2.93302812271099	2.321	4.0	stim	poldrack-single-stim	s603	False	0
362.686	1.5	361.935	n/a	-1.0	2.454	columbia_card_task_fmri	n/a	n/a	-1.0	n/a	n/a	n/a	n/a	n/a	n/a	n/a	n/a	ITI	poldrack-single-stim	s603	False	0
364.393	0.463	364.856	-1.0833591655258326	draw_card	0.463	columbia_card_task_fmri	14.0	0.8125	89.0	-70.0	0.1875	16.0	1.0	3.0	1.0786142365156728	0.463	1.0	stim	poldrack-single-stim	s603	False	0
365.613	1.5	364.862	n/a	-1.0	2.386	columbia_card_task_fmri	n/a	n/a	-1.0	n/a	n/a	n/a	n/a	n/a	n/a	n/a	n/a	ITI	poldrack-single-stim	s603	False	0
367.252	0.435	367.687	-1.1458591655258326	draw_card	0.435	columbia_card_task_fmri	11.0	0.6875	89.0	-30.0	0.3125	16.0	1.0	5.0	-12.6987043792006	0.435	1.0	stim	poldrack-single-stim	s603	False	0
368.444	1.5	367.693	n/a	-1.0	2.59	columbia_card_task_fmri	n/a	n/a	-1.0	n/a	n/a	n/a	n/a	n/a	n/a	n/a	n/a	ITI	poldrack-single-stim	s603	False	0
370.287	3.762	374.049	3.666640834474167	draw_card	3.762	columbia_card_task_fmri	15.0	0.8666666666666667	89.0	-75.0	0.1333333333333333	15.0	1.0	2.0	-1.1130227234272425	3.762	n/a	stim	poldrack-single-stim	s603	False	1
374.052	0.938	374.99	2.809497977331312	draw_card	0.938	columbia_card_task_fmri	15.0	0.8571428571428572	89.0	-75.0	0.1428571428571428	15.0	2.0	2.0	-0.213907584370812	0.938	2.0	stim	poldrack-single-stim	s603	False	0
375.747	1.5	374.996	n/a	-1.0	2.318	columbia_card_task_fmri	n/a	n/a	-1.0	n/a	n/a	n/a	n/a	n/a	n/a	n/a	n/a	ITI	poldrack-single-stim	s603	False	0
377.318	1.821	379.139	5.3999741678075015	draw_card	1.821	columbia_card_task_fmri	17.0	0.8666666666666667	89.0	-75.0	0.1333333333333333	15.0	1.0	2.0	-0.433311291211897	1.821	n/a	stim	poldrack-single-stim	s603	False	1
379.142	3.227	382.369	4.523783691617027	draw_card	3.227	columbia_card_task_fmri	17.0	0.8571428571428572	89.0	-75.0	0.1428571428571428	15.0	2.0	2.0	0.4857932957343642	3.227	n/a	stim	poldrack-single-stim	s603	False	1
382.372	2.495	384.867	3.512794680628014	draw_card	2.495	columbia_card_task_fmri	17.0	0.8461538461538461	89.0	-75.0	0.1538461538461538	15.0	3.0	2.0	1.4860031051152056	2.495	3.0	stim	poldrack-single-stim	s603	False	0
385.624	1.5	384.873	n/a	-1.0	2.59	columbia_card_task_fmri	n/a	n/a	-1.0	n/a	n/a	n/a	n/a	n/a	n/a	n/a	n/a	ITI	poldrack-single-stim	s603	False	0
387.467	0.551	388.018	0.9791408344741674	draw_card	0.551	columbia_card_task_fmri	2.0	0.9375	89.0	-25.0	0.0625	16.0	1.0	1.0	-25.144831654024053	0.551	n/a	stim	poldrack-single-stim	s603	False	1
388.021	2.517	390.538	0.8666408344741674	draw_card	2.517	columbia_card_task_fmri	2.0	0.9333333333333332	89.0	-25.0	0.0666666666666666	16.0	2.0	1.0	-24.9465064035661	2.517	n/a	stim	poldrack-single-stim	s603	False	1
390.541	4.108	394.649	0.7380694059027391	draw_card	4.108	columbia_card_task_fmri	2.0	0.9285714285714286	89.0	-25.0	0.0714285714285714	16.0	3.0	1.0	-24.72895629866232	4.108	n/a	stim	poldrack-single-stim	s603	False	1
394.652	1.661	396.313	0.5897177575510906	draw_card	1.661	columbia_card_task_fmri	2.0	0.9230769230769232	89.0	-25.0	0.0769230769230769	16.0	4.0	1.0	-24.48891070404476	1.661	n/a	stim	poldrack-single-stim	s603	False	1
396.316	2.753	399.069	0.4166408344741676	end_round	2.753	columbia_card_task_fmri	2.0	0.9166666666666666	71.0	-25.0	0.0833333333333333	16.0	5.0	1.0	-24.22227874353557	2.753	4.0	stim	poldrack-single-stim	s603	False	1
399.826	1.5	399.075	n/a	-1.0	2.386	columbia_card_task_fmri	n/a	n/a	-1.0	n/a	n/a	n/a	n/a	n/a	n/a	n/a	n/a	ITI	poldrack-single-stim	s603	False	0
401.466	2.062	403.528	3.166640834474167	draw_card	2.062	columbia_card_task_fmri	9.0	0.9375	89.0	-95.0	0.0625	16.0	1.0	1.0	-6.531185108852668	2.062	n/a	stim	poldrack-single-stim	s603	False	1
403.531	2.124	405.655	2.7333075011408345	draw_card	2.124	columbia_card_task_fmri	9.0	0.9333333333333332	89.0	-95.0	0.0666666666666666	16.0	2.0	1.0	-5.763680071061721	2.124	n/a	stim	poldrack-single-stim	s603	False	1
405.658	0.994	406.652	2.2380694059027397	draw_card	0.994	columbia_card_task_fmri	9.0	0.9285714285714286	89.0	-95.0	0.0714285714285714	16.0	3.0	1.0	-4.922011881175088	0.994	n/a	stim	poldrack-single-stim	s603	False	1
406.655	0.945	407.6	1.6666408344741674	draw_card	0.945	columbia_card_task_fmri	9.0	0.9230769230769232	89.0	-95.0	0.0769230769230769	16.0	4.0	1.0	-3.9935720469251343	0.945	n/a	stim	poldrack-single-stim	s603	False	1
407.603	1.118	408.721	0.9999741678075014	draw_card	1.118	columbia_card_task_fmri	9.0	0.9166666666666666	89.0	-95.0	0.0833333333333333	16.0	5.0	1.0	-2.962591002574243	1.118	5.0	stim	poldrack-single-stim	s603	False	0
409.478	1.5	408.727	n/a	-1.0	2.318	columbia_card_task_fmri	n/a	n/a	-1.0	n/a	n/a	n/a	n/a	n/a	n/a	n/a	n/a	ITI	poldrack-single-stim	s603	False	0
411.05	0.432	411.482	4.729140834474167	draw_card	0.432	columbia_card_task_fmri	11.0	0.9375	89.0	-100.0	0.0625	16.0	1.0	1.0	-4.837311254584421	0.432	n/a	stim	poldrack-single-stim	s603	False	1
411.485	1.754	413.239	4.266640834474168	draw_card	1.754	columbia_card_task_fmri	11.0	0.9333333333333332	89.0	-100.0	0.0666666666666666	16.0	2.0	1.0	-4.018113200155639	1.754	n/a	stim	poldrack-single-stim	s603	False	1
413.243	2.672	415.915	3.73806940590274	draw_card	2.672	columbia_card_task_fmri	11.0	0.9285714285714286	89.0	-100.0	0.0714285714285714	16.0	3.0	1.0	-3.1197591964202616	2.672	n/a	stim	poldrack-single-stim	s603	False	1
415.918	3.29	419.208	3.12817929601263	end_round	3.29	columbia_card_task_fmri	11.0	0.9230769230769232	71.0	-100.0	0.0769230769230769	16.0	4.0	1.0	-2.1287920040285577	3.29	3.0	stim	poldrack-single-stim	s603	False	1
419.963	1.5	419.212	n/a	-1.0	2.318	columbia_card_task_fmri	n/a	n/a	-1.0	n/a	n/a	n/a	n/a	n/a	n/a	n/a	n/a	ITI	poldrack-single-stim	s603	False	0
421.534	1.545	423.079	5.291640834474167	draw_card	1.545	columbia_card_task_fmri	16.0	0.875	89.0	-75.0	0.125	16.0	1.0	2.0	-1.6115983337370814	1.545	n/a	stim	poldrack-single-stim	s603	False	1
423.083	1.618	424.701	4.533307501140834	draw_card	1.618	columbia_card_task_fmri	16.0	0.8666666666666667	89.0	-75.0	0.1333333333333333	16.0	2.0	2.0	-0.7731678742498183	1.618	n/a	stim	poldrack-single-stim	s603	False	1
424.704	1.699	426.403	3.666640834474169	draw_card	1.699	columbia_card_task_fmri	16.0	0.8571428571428572	89.0	-75.0	0.1428571428571428	16.0	3.0	2.0	0.1359420134744446	1.699	n/a	stim	poldrack-single-stim	s603	False	1
426.406	2.015	428.421	2.666640834474167	draw_card	2.015	columbia_card_task_fmri	16.0	0.8461538461538461	89.0	-75.0	0.1538461538461538	16.0	4.0	2.0	1.1252754328541492	2.015	4.0	stim	poldrack-single-stim	s603	False	0
429.18	1.5	428.429	n/a	-1.0	2.318	columbia_card_task_fmri	n/a	n/a	-1.0	n/a	n/a	n/a	n/a	n/a	n/a	n/a	n/a	ITI	poldrack-single-stim	s603	False	0
430.751	0.521	431.272	5.541640834474167	draw_card	0.521	columbia_card_task_fmri	17.0	0.875	89.0	-80.0	0.125	16.0	1.0	2.0	0.3722586053773149	0.521	1.0	stim	poldrack-single-stim	s603	False	0
432.029	1.5	431.278	n/a	-1.0	2.386	columbia_card_task_fmri	n/a	n/a	-1.0	n/a	n/a	n/a	n/a	n/a	n/a	n/a	n/a	ITI	poldrack-single-stim	s603	False	0
444.678	3.207	447.885	-0.1666924988591647	draw_card	3.207	columbia_card_task_fmri	13.0	0.8333333333333334	89.0	-70.0	0.1666666666666666	6.0	1.0	1.0	-0.7749454885440059	3.207	n/a	stim	poldrack-single-stim	s603	False	1
447.888	3.207	451.095	-2.9333591655258324	end_round	3.207	columbia_card_task_fmri	13.0	0.8	71.0	-70.0	0.2	6.0	2.0	1.0	1.4922903064824986	3.207	1.0	stim	poldrack-single-stim	s603	False	1
451.853	1.5	451.102	n/a	-1.0	2.25	columbia_card_task_fmri	n/a	n/a	-1.0	n/a	n/a	n/a	n/a	n/a	n/a	n/a	n/a	ITI	poldrack-single-stim	s603	False	0
453.356	6.384	459.74	-0.1666924988591647	end_round	6.384	columbia_card_task_fmri	15.0	0.8333333333333334	71.0	-80.0	0.1666666666666666	6.0	1.0	1.0	3.696283342433208	6.384	0.0	stim	poldrack-single-stim	s603	False	1
460.493	1.5	459.742	n/a	-1.0	2.386	columbia_card_task_fmri	n/a	n/a	-1.0	n/a	n/a	n/a	n/a	n/a	n/a	n/a	n/a	ITI	poldrack-single-stim	s603	False	0
462.132	2.42	464.552	1.4999741678075014	draw_card	2.42	columbia_card_task_fmri	16.0	0.8333333333333334	89.0	-75.0	0.1666666666666666	6.0	1.0	1.0	2.2058471575585905	2.42	1.0	stim	poldrack-single-stim	s603	False	0
465.305	1.5	464.554	n/a	-1.0	2.59	columbia_card_task_fmri	n/a	n/a	-1.0	n/a	n/a	n/a	n/a	n/a	n/a	n/a	n/a	ITI	poldrack-single-stim	s603	False	0
467.149	3.365	470.514	2.666640834474167	draw_card	3.365	columbia_card_task_fmri	21.0	0.75	89.0	-55.0	0.25	8.0	1.0	2.0	1.201314821951808	3.365	n/a	stim	poldrack-single-stim	s603	False	1
470.518	1.73	472.248	-0.047644879811546	draw_card	1.73	columbia_card_task_fmri	21.0	0.7142857142857143	89.0	-55.0	0.2857142857142857	8.0	2.0	2.0	2.625369756314324	1.73	n/a	stim	poldrack-single-stim	s603	False	1
472.252	2.257	474.509	-3.666692498859163	end_round	2.257	columbia_card_task_fmri	21.0	0.6666666666666667	71.0	-55.0	0.3333333333333333	8.0	3.0	2.0	4.118543312996362	2.257	2.0	stim	poldrack-single-stim	s603	False	1
475.266	1.5	474.515	n/a	-1.0	2.658	columbia_card_task_fmri	n/a	n/a	-1.0	n/a	n/a	n/a	n/a	n/a	n/a	n/a	n/a	ITI	poldrack-single-stim	s603	False	0
477.176	0.791	477.967	3.916640834474167	draw_card	0.791	columbia_card_task_fmri	26.0	0.75	89.0	-65.0	0.25	8.0	1.0	2.0	7.695392654026211	0.791	n/a	stim	poldrack-single-stim	s603	False	1
477.971	2.826	480.797	0.666640834474171	draw_card	2.826	columbia_card_task_fmri	26.0	0.7142857142857143	89.0	-65.0	0.2857142857142857	8.0	2.0	2.0	9.400612470076414	2.826	2.0	stim	poldrack-single-stim	s603	False	0
481.554	1.5	480.803	n/a	-1.0	2.386	columbia_card_task_fmri	n/a	n/a	-1.0	n/a	n/a	n/a	n/a	n/a	n/a	n/a	n/a	ITI	poldrack-single-stim	s603	False	0
483.194	4.002	487.196	-1.0000258321924986	draw_card	4.002	columbia_card_task_fmri	15.0	0.7777777777777778	89.0	-60.0	0.2222222222222222	9.0	1.0	2.0	-0.5267981176824215	4.002	n/a	stim	poldrack-single-stim	s603	False	1
487.199	3.707	490.906	-3.083359165525833	draw_card	3.707	columbia_card_task_fmri	15.0	0.75	89.0	-60.0	0.25	9.0	2.0	2.0	0.7683921201433144	3.707	n/a	stim	poldrack-single-stim	s603	False	1
490.909	1.471	492.38	-5.76193059409726	end_round	1.471	columbia_card_task_fmri	15.0	0.7142857142857143	71.0	-60.0	0.2857142857142857	9.0	3.0	2.0	2.1737020734300323	1.471	2.0	stim	poldrack-single-stim	s603	False	1
493.133	1.5	492.382	n/a	-1.0	2.386	columbia_card_task_fmri	n/a	n/a	-1.0	n/a	n/a	n/a	n/a	n/a	n/a	n/a	n/a	ITI	poldrack-single-stim	s603	False	0
494.773	1.362	496.135	3.3666408344741683	draw_card	1.362	columbia_card_task_fmri	13.0	0.9	89.0	-90.0	0.1	10.0	1.0	1.0	-0.8072116769554682	1.362	n/a	stim	poldrack-single-stim	s603	False	1
496.138	2.981	499.119	2.2221963900297226	end_round	2.981	columbia_card_task_fmri	13.0	0.8888888888888888	71.0	-90.0	0.1111111111111111	10.0	2.0	1.0	0.6622390082151632	2.981	1.0	stim	poldrack-single-stim	s603	False	1
499.877	1.5	499.126	n/a	-1.0	2.25	columbia_card_task_fmri	n/a	n/a	-1.0	n/a	n/a	n/a	n/a	n/a	n/a	n/a	n/a	ITI	poldrack-single-stim	s603	False	0
501.38	1.153	502.533	4.666640834474167	draw_card	1.153	columbia_card_task_fmri	15.0	0.9	89.0	-95.0	0.1	10.0	1.0	1.0	1.2923308573081762	1.153	n/a	stim	poldrack-single-stim	s603	False	1
502.536	0.946	503.482	3.444418612251944	draw_card	0.946	columbia_card_task_fmri	15.0	0.8888888888888888	89.0	-95.0	0.1111111111111111	10.0	2.0	1.0	2.8616900651069024	0.946	2.0	stim	poldrack-single-stim	s603	False	0
504.237	1.5	503.486	n/a	-1.0	2.318	columbia_card_task_fmri	n/a	n/a	-1.0	n/a	n/a	n/a	n/a	n/a	n/a	n/a	n/a	ITI	poldrack-single-stim	s603	False	0
505.808	0.735	506.543	0.4666408344741681	draw_card	0.735	columbia_card_task_fmri	16.0	0.8	89.0	-65.0	0.2	10.0	1.0	2.0	0.692455512610163	0.735	n/a	stim	poldrack-single-stim	s603	False	1
506.546	1.649	508.195	-1.3333591655258308	draw_card	1.649	columbia_card_task_fmri	16.0	0.7777777777777778	89.0	-65.0	0.2222222222222222	10.0	2.0	2.0	1.967112425477868	1.649	n/a	stim	poldrack-single-stim	s603	False	1
508.198	1.132	509.33	-3.583359165525833	draw_card	1.132	columbia_card_task_fmri	16.0	0.75	89.0	-65.0	0.25	10.0	3.0	2.0	3.365961654891695	1.132	n/a	stim	poldrack-single-stim	s603	False	1
509.333	2.714	512.047	-6.476216308382973	draw_card	2.714	columbia_card_task_fmri	16.0	0.7142857142857143	89.0	-65.0	0.2857142857142857	10.0	4.0	2.0	4.883740113720034	2.714	n/a	stim	poldrack-single-stim	s603	False	1
512.051	2.799	514.85	-10.33335916552583	draw_card	2.799	columbia_card_task_fmri	16.0	0.6666666666666667	89.0	-65.0	0.3333333333333333	10.0	5.0	2.0	6.475183157839954	2.799	5.0	stim	poldrack-single-stim	s603	False	0
515.605	1.5	514.854	n/a	-1.0	2.25	columbia_card_task_fmri	n/a	n/a	-1.0	n/a	n/a	n/a	n/a	n/a	n/a	n/a	n/a	ITI	poldrack-single-stim	s603	False	0
517.108	0.937	518.045	-0.8333591655258326	draw_card	0.937	columbia_card_task_fmri	7.0	0.9166666666666666	89.0	-95.0	0.0833333333333333	12.0	1.0	1.0	-3.5152102856266687	0.937	n/a	stim	poldrack-single-stim	s603	False	1
518.049	2.303	520.352	-1.606086438253106	end_round	2.303	columbia_card_task_fmri	7.0	0.9090909090909092	71.0	-95.0	0.0909090909090909	12.0	2.0	1.0	-2.3838867603753684	2.303	1.0	stim	poldrack-single-stim	s603	False	1
521.109	1.5	520.358	n/a	-1.0	2.25	columbia_card_task_fmri	n/a	n/a	-1.0	n/a	n/a	n/a	n/a	n/a	n/a	n/a	n/a	ITI	poldrack-single-stim	s603	False	0
522.612	0.918	523.53	-0.1666924988591647	draw_card	0.918	columbia_card_task_fmri	14.0	0.8333333333333334	89.0	-75.0	0.1666666666666666	12.0	1.0	2.0	1.4606383590190395	0.918	n/a	stim	poldrack-single-stim	s603	False	1
523.534	1.666	525.2	-1.515177347344016	draw_card	1.666	columbia_card_task_fmri	14.0	0.8181818181818181	89.0	-75.0	0.1818181818181818	12.0	2.0	2.0	2.61889077222489	1.666	n/a	stim	poldrack-single-stim	s603	False	1
525.204	1.055	526.259	-3.133359165525832	draw_card	1.055	columbia_card_task_fmri	14.0	0.8	89.0	-75.0	0.2	12.0	3.0	2.0	3.8918392256863577	1.055	n/a	stim	poldrack-single-stim	s603	False	1
526.262	1.357	527.619	-5.111136943303608	draw_card	1.357	columbia_card_task_fmri	14.0	0.7777777777777778	89.0	-75.0	0.2222222222222222	12.0	4.0	2.0	5.292437135257263	1.357	n/a	stim	poldrack-single-stim	s603	False	1
527.624	4.007	531.631	-7.583359165525833	draw_card	4.007	columbia_card_task_fmri	14.0	0.75	89.0	-75.0	0.25	12.0	5.0	2.0	6.829493944363204	4.007	5.0	stim	poldrack-single-stim	s603	False	0
532.386	1.5	531.635	n/a	-1.0	2.386	columbia_card_task_fmri	n/a	n/a	-1.0	n/a	n/a	n/a	n/a	n/a	n/a	n/a	n/a	ITI	poldrack-single-stim	s603	False	0
534.026	0.672	534.698	1.4999741678075014	draw_card	0.672	columbia_card_task_fmri	15.0	0.8333333333333334	89.0	-70.0	0.1666666666666666	12.0	1.0	2.0	-0.029758464380837	0.672	n/a	stim	poldrack-single-stim	s603	False	1
534.702	2.157	536.859	0.2120953799287106	draw_card	2.157	columbia_card_task_fmri	15.0	0.8181818181818181	89.0	-70.0	0.1818181818181818	12.0	2.0	2.0	1.0764168723287604	2.157	n/a	stim	poldrack-single-stim	s603	False	1
536.862	0.681	537.543	-1.3333591655258326	draw_card	0.681	columbia_card_task_fmri	15.0	0.8	89.0	-70.0	0.2	12.0	3.0	2.0	2.292132872465178	0.681	n/a	stim	poldrack-single-stim	s603	False	1
537.547	1.452	538.999	-3.222248054414722	draw_card	1.452	columbia_card_task_fmri	15.0	0.7777777777777778	89.0	-70.0	0.2222222222222222	12.0	4.0	2.0	3.629760831922813	1.452	n/a	stim	poldrack-single-stim	s603	False	1
539.003	1.99	540.993	-5.583359165525833	end_round	1.99	columbia_card_task_fmri	15.0	0.75	71.0	-70.0	0.25	12.0	5.0	2.0	5.097714407029233	1.99	4.0	stim	poldrack-single-stim	s603	False	1
541.749	1.5	540.998	n/a	-1.0	2.386	columbia_card_task_fmri	n/a	n/a	-1.0	n/a	n/a	n/a	n/a	n/a	n/a	n/a	n/a	ITI	poldrack-single-stim	s603	False	0
543.388	0.729	544.117	-0.5333591655258318	draw_card	0.729	columbia_card_task_fmri	16.0	0.8	89.0	-70.0	0.2	15.0	1.0	3.0	2.692056900613185	0.729	n/a	stim	poldrack-single-stim	s603	False	1
544.121	2.033	546.154	-1.7619305940972614	draw_card	2.033	columbia_card_task_fmri	16.0	0.7857142857142857	89.0	-70.0	0.2142857142857142	15.0	2.0	3.0	3.5799220782988463	2.033	n/a	stim	poldrack-single-stim	s603	False	1
546.158	0.791	546.949	-3.1795130116796795	draw_card	0.791	columbia_card_task_fmri	16.0	0.7692307692307692	89.0	-70.0	0.2307692307692307	15.0	3.0	3.0	4.525683852283866	0.791	n/a	stim	poldrack-single-stim	s603	False	1
546.953	1.928	548.881	-4.833359165525833	draw_card	1.928	columbia_card_task_fmri	16.0	0.75	89.0	-70.0	0.25	15.0	4.0	3.0	5.530656926198216	1.928	n/a	stim	poldrack-single-stim	s603	False	1
548.885	2.184	551.069	-6.787904620071286	end_round	2.184	columbia_card_task_fmri	16.0	0.7272727272727273	71.0	-70.0	0.2727272727272727	15.0	5.0	3.0	6.5925114903007405	2.184	4.0	stim	poldrack-single-stim	s603	False	1
551.825	1.5	551.074	n/a	-1.0	2.726	columbia_card_task_fmri	n/a	n/a	-1.0	n/a	n/a	n/a	n/a	n/a	n/a	n/a	n/a	ITI	poldrack-single-stim	s603	False	0
553.803	0.902	554.705	-0.1458591655258325	draw_card	0.902	columbia_card_task_fmri	14.0	0.8125	89.0	-65.0	0.1875	16.0	1.0	3.0	-0.8725188310500513	0.902	n/a	stim	poldrack-single-stim	s603	False	1
554.709	3.187	557.896	-1.1333591655258315	draw_card	3.187	columbia_card_task_fmri	14.0	0.8	89.0	-65.0	0.2	16.0	2.0	3.0	-0.107370919118118	3.187	2.0	stim	poldrack-single-stim	s603	False	0
558.654	1.5	557.903	n/a	-1.0	2.454	columbia_card_task_fmri	n/a	n/a	-1.0	n/a	n/a	n/a	n/a	n/a	n/a	n/a	n/a	ITI	poldrack-single-stim	s603	False	0
560.362	0.47	560.832	-0.3958591655258325	draw_card	0.47	columbia_card_task_fmri	16.0	0.8125	89.0	-75.0	0.1875	16.0	1.0	3.0	3.810279672917229	0.47	n/a	stim	poldrack-single-stim	s603	False	1
560.836	5.61	566.446	-1.5333591655258318	end_round	5.61	columbia_card_task_fmri	16.0	0.8	71.0	-75.0	0.2	16.0	2.0	3.0	4.691702080449961	5.61	1.0	stim	poldrack-single-stim	s603	False	1
567.201	1.5	566.45	n/a	-1.0	2.318	columbia_card_task_fmri	n/a	n/a	-1.0	n/a	n/a	n/a	n/a	n/a	n/a	n/a	n/a	ITI	poldrack-single-stim	s603	False	0
568.773	1.451	570.224	3.866640834474168	draw_card	1.451	columbia_card_task_fmri	16.0	0.8666666666666667	89.0	-80.0	0.1333333333333333	15.0	1.0	2.0	0.9261312963527112	1.451	n/a	stim	poldrack-single-stim	s603	False	1
570.228	2.531	572.759	2.9523551201884555	draw_card	2.531	columbia_card_task_fmri	16.0	0.8571428571428572	89.0	-80.0	0.1428571428571428	15.0	2.0	2.0	1.8852142165929384	2.531	n/a	stim	poldrack-single-stim	s603	False	1
572.763	1.071	573.834	1.8974100652433972	draw_card	1.071	columbia_card_task_fmri	16.0	0.8461538461538461	89.0	-80.0	0.1538461538461538	15.0	3.0	2.0	2.9289291106050577	1.071	n/a	stim	poldrack-single-stim	s603	False	1
573.838	1.471	575.309	0.6666408344741692	draw_card	1.471	columbia_card_task_fmri	16.0	0.8333333333333334	89.0	-80.0	0.1666666666666666	15.0	4.0	2.0	4.068895978844108	1.471	4.0	stim	poldrack-single-stim	s603	False	0
576.065	1.5	575.314	n/a	-1.0	2.318	columbia_card_task_fmri	n/a	n/a	-1.0	n/a	n/a	n/a	n/a	n/a	n/a	n/a	n/a	ITI	poldrack-single-stim	s603	False	0
577.637	0.451	578.088	4.733307501140835	draw_card	0.451	columbia_card_task_fmri	17.0	0.8666666666666667	89.0	-80.0	0.1333333333333333	15.0	1.0	2.0	1.2659957558307973	0.451	n/a	stim	poldrack-single-stim	s603	False	1
578.093	2.362	580.455	3.809497977331313	draw_card	2.362	columbia_card_task_fmri	17.0	0.8571428571428572	89.0	-80.0	0.1428571428571428	15.0	2.0	2.0	2.2350731506561665	2.362	n/a	stim	poldrack-single-stim	s603	False	1
580.46	0.681	581.141	2.743563911397244	draw_card	0.681	columbia_card_task_fmri	17.0	0.8461538461538461	89.0	-80.0	0.1538461538461538	15.0	3.0	2.0	3.289664204325394	0.681	n/a	stim	poldrack-single-stim	s603	False	1
581.145	1.487	582.632	1.4999741678075031	end_round	1.487	columbia_card_task_fmri	17.0	0.8333333333333334	71.0	-80.0	0.1666666666666666	15.0	4.0	2.0	4.441509962533342	1.487	3.0	stim	poldrack-single-stim	s603	False	1
583.387	1.5	582.636	n/a	-1.0	2.59	columbia_card_task_fmri	n/a	n/a	-1.0	n/a	n/a	n/a	n/a	n/a	n/a	n/a	n/a	ITI	poldrack-single-stim	s603	False	0
585.231	0.393	585.624	0.6666408344741674	draw_card	0.393	columbia_card_task_fmri	1.0	0.9375	89.0	-15.0	0.0625	16.0	1.0	1.0	-27.784464281929605	0.393	n/a	stim	poldrack-single-stim	s603	False	1
585.628	3.479	589.107	0.5999741678075008	draw_card	3.479	columbia_card_task_fmri	1.0	0.9333333333333332	89.0	-15.0	0.0666666666666666	16.0	2.0	1.0	-27.668008621866576	3.479	n/a	stim	poldrack-single-stim	s603	False	1
589.111	3.111	592.222	0.5237836916170246	draw_card	3.111	columbia_card_task_fmri	1.0	0.9285714285714286	89.0	-15.0	0.0714285714285714	16.0	3.0	1.0	-27.54019520905222	3.111	n/a	stim	poldrack-single-stim	s603	False	1
592.226	2.199	594.425	0.4358716037049366	draw_card	2.199	columbia_card_task_fmri	1.0	0.9230769230769232	89.0	-15.0	0.0769230769230769	16.0	4.0	1.0	-27.399089113721494	2.199	n/a	stim	poldrack-single-stim	s603	False	1
594.43	1.46	595.89	0.3333075011408341	draw_card	1.46	columbia_card_task_fmri	1.0	0.9166666666666666	89.0	-15.0	0.0833333333333333	16.0	5.0	1.0	-27.24226983651002	1.46	n/a	stim	poldrack-single-stim	s603	False	1
595.894	0.853	596.747	0.2120953799287127	draw_card	0.853	columbia_card_task_fmri	1.0	0.9090909090909092	89.0	-15.0	0.0909090909090909	16.0	6.0	1.0	-27.06666756843396	0.853	n/a	stim	poldrack-single-stim	s603	False	1
596.751	1.003	597.754	0.0666408344741674	draw_card	1.003	columbia_card_task_fmri	1.0	0.9	89.0	-15.0	0.1	16.0	7.0	1.0	-26.86833033560209	1.003	n/a	stim	poldrack-single-stim	s603	False	1
597.758	0.701	598.459	-0.1111369433036102	end_round	0.701	columbia_card_task_fmri	1.0	0.8888888888888888	71.0	-15.0	0.1111111111111111	16.0	8.0	1.0	-26.64208879786279	0.701	7.0	stim	poldrack-single-stim	s603	False	1
599.214	1.5	598.463	n/a	-1.0	2.726	columbia_card_task_fmri	n/a	n/a	-1.0	n/a	n/a	n/a	n/a	n/a	n/a	n/a	n/a	ITI	poldrack-single-stim	s603	False	0
601.194	1.416	602.61	3.791640834474167	draw_card	1.416	columbia_card_task_fmri	10.0	0.9375	89.0	-100.0	0.0625	16.0	1.0	1.0	-5.079297566966012	1.416	n/a	stim	poldrack-single-stim	s603	False	1
602.614	1.585	604.199	3.333307501140834	draw_card	1.585	columbia_card_task_fmri	10.0	0.9333333333333332	89.0	-100.0	0.0666666666666666	16.0	2.0	1.0	-4.2674841011953895	1.585	n/a	stim	poldrack-single-stim	s603	False	1
604.203	0.768	604.971	2.809497977331312	draw_card	0.768	columbia_card_task_fmri	10.0	0.9285714285714286	89.0	-100.0	0.0714285714285714	16.0	3.0	1.0	-3.37722793891027	0.768	n/a	stim	poldrack-single-stim	s603	False	1
604.975	0.76	605.735	2.2051023729357064	draw_card	0.76	columbia_card_task_fmri	10.0	0.9230769230769232	89.0	-100.0	0.0769230769230769	16.0	4.0	1.0	-2.395193089972306	0.76	4.0	stim	poldrack-single-stim	s603	False	0
606.49	1.5	605.739	n/a	-1.0	2.522	columbia_card_task_fmri	n/a	n/a	-1.0	n/a	n/a	n/a	n/a	n/a	n/a	n/a	n/a	ITI	poldrack-single-stim	s603	False	0
608.267	0.586	608.853	4.416640834474167	draw_card	0.586	columbia_card_task_fmri	15.0	0.875	89.0	-75.0	0.125	16.0	1.0	2.0	-1.9422352409213168	0.586	n/a	stim	poldrack-single-stim	s603	False	1
608.857	2.348	611.205	3.666640834474167	draw_card	2.348	columbia_card_task_fmri	15.0	0.8666666666666667	89.0	-75.0	0.1333333333333333	16.0	2.0	2.0	-1.1130227234272425	2.348	n/a	stim	poldrack-single-stim	s603	False	1
611.209	1.136	612.345	2.809497977331312	draw_card	1.136	columbia_card_task_fmri	15.0	0.8571428571428572	89.0	-75.0	0.1428571428571428	16.0	3.0	2.0	-0.213907584370812	1.136	n/a	stim	poldrack-single-stim	s603	False	1
612.349	0.861	613.21	1.8204869883203207	draw_card	0.861	columbia_card_task_fmri	15.0	0.8461538461538461	89.0	-75.0	0.1538461538461538	16.0	4.0	2.0	0.7645493943053161	0.861	n/a	stim	poldrack-single-stim	s603	False	1
613.214	3.383	616.597	0.6666408344741674	draw_card	3.383	columbia_card_task_fmri	15.0	0.8333333333333334	89.0	-75.0	0.1666666666666666	16.0	5.0	2.0	1.8332419407867957	3.383	n/a	stim	poldrack-single-stim	s603	False	1
616.601	1.115	617.716	-0.6969955291621976	end_round	1.115	columbia_card_task_fmri	15.0	0.8181818181818181	71.0	-75.0	0.1818181818181818	16.0	6.0	2.0	3.004513475610164	1.115	5.0	stim	poldrack-single-stim	s603	False	1
618.47	1.5	617.719	n/a	-1.0	3.134	columbia_card_task_fmri	n/a	n/a	-1.0	n/a	n/a	n/a	n/a	n/a	n/a	n/a	n/a	ITI	poldrack-single-stim	s603	False	0
620.858	1.203	622.061	4.666640834474167	draw_card	1.203	columbia_card_task_fmri	16.0	0.875	89.0	-80.0	0.125	16.0	1.0	2.0	0.0416118204638138	1.203	n/a	stim	poldrack-single-stim	s603	False	1
622.065	1.638	623.703	3.866640834474168	draw_card	1.638	columbia_card_task_fmri	16.0	0.8666666666666667	89.0	-80.0	0.1333333333333333	16.0	2.0	2.0	0.9261312963527112	1.638	2.0	stim	poldrack-single-stim	s603	False	0
624.458	1.5	623.707	n/a	-1.0	2.386	columbia_card_task_fmri	n/a	n/a	-1.0	n/a	n/a	n/a	n/a	n/a	n/a	n/a	n/a	ITI	poldrack-single-stim	s603	False	0
626.098	0.423	626.521	1.8541408344741677	draw_card	0.423	columbia_card_task_fmri	4.0	0.6875	89.0	-5.0	0.3125	16.0	1.0	5.0	-27.489860101423904	0.423	n/a	stim	poldrack-single-stim	s603	False	1
626.525	4.274	630.799	1.666640834474168	draw_card	4.274	columbia_card_task_fmri	4.0	0.6666666666666667	89.0	-5.0	0.3333333333333333	16.0	2.0	5.0	-27.419706375029747	4.274	n/a	stim	poldrack-single-stim	s603	False	1
630.803	4.175	634.978	1.4523551201884528	draw_card	4.175	columbia_card_task_fmri	4.0	0.6428571428571428	89.0	-5.0	0.3571428571428571	16.0	3.0	5.0	-27.350762544818224	4.175	3.0	stim	poldrack-single-stim	s603	False	0
635.733	1.5	634.982	n/a	-1.0	2.386	columbia_card_task_fmri	n/a	n/a	-1.0	n/a	n/a	n/a	n/a	n/a	n/a	n/a	n/a	ITI	poldrack-single-stim	s603	False	0
637.373	0.921	638.294	-1.0000258321924969	draw_card	0.921	columbia_card_task_fmri	14.0	0.8333333333333334	89.0	-80.0	0.1666666666666666	6.0	1.0	1.0	3.323672096283562	0.921	1.0	stim	poldrack-single-stim	s603	False	0
639.051	1.5	638.3	n/a	-1.0	2.318	columbia_card_task_fmri	n/a	n/a	-1.0	n/a	n/a	n/a	n/a	n/a	n/a	n/a	n/a	ITI	poldrack-single-stim	s603	False	0
640.623	1.468	642.091	0.6666408344741674	draw_card	1.468	columbia_card_task_fmri	15.0	0.8333333333333334	89.0	-75.0	0.1666666666666666	6.0	1.0	1.0	1.8332419407867957	1.468	n/a	stim	poldrack-single-stim	s603	False	1
642.095	3.134	645.229	-2.333359165525833	end_round	3.134	columbia_card_task_fmri	15.0	0.8	71.0	-75.0	0.2	6.0	2.0	1.0	4.291769891346089	3.134	1.0	stim	poldrack-single-stim	s603	False	1
645.985	1.5	645.234	n/a	-1.0	2.318	columbia_card_task_fmri	n/a	n/a	-1.0	n/a	n/a	n/a	n/a	n/a	n/a	n/a	n/a	ITI	poldrack-single-stim	s603	False	0
647.557	2.267	649.824	2.333307501140835	draw_card	2.267	columbia_card_task_fmri	16.0	0.8333333333333334	89.0	-70.0	0.1666666666666666	6.0	1.0	1.0	0.3428379938517487	2.267	n/a	stim	poldrack-single-stim	s603	False	1
649.828	1.167	650.995	-0.5333591655258318	draw_card	1.167	columbia_card_task_fmri	16.0	0.8	89.0	-70.0	0.2	6.0	2.0	1.0	2.692056900613185	1.167	n/a	stim	poldrack-single-stim	s603	False	1
650.998	1.077	652.075	-4.833359165525833	end_round	1.077	columbia_card_task_fmri	16.0	0.75	71.0	-70.0	0.25	6.0	3.0	1.0	5.530656926198216	1.077	2.0	stim	poldrack-single-stim	s603	False	1
652.833	1.5	652.082	n/a	-1.0	2.862	columbia_card_task_fmri	n/a	n/a	-1.0	n/a	n/a	n/a	n/a	n/a	n/a	n/a	n/a	ITI	poldrack-single-stim	s603	False	0
654.949	0.513	655.462	2.916640834474167	draw_card	0.513	columbia_card_task_fmri	23.0	0.75	89.0	-60.0	0.25	8.0	1.0	2.0	4.23183444085787	0.513	1.0	stim	poldrack-single-stim	s603	False	0
656.219	1.5	655.468	n/a	-1.0	2.726	columbia_card_task_fmri	n/a	n/a	-1.0	n/a	n/a	n/a	n/a	n/a	n/a	n/a	n/a	ITI	poldrack-single-stim	s603	False	0
658.2	1.651	659.851	3.416640834474167	draw_card	1.651	columbia_card_task_fmri	27.0	0.75	89.0	-70.0	0.25	8.0	1.0	2.0	10.293120123785894	1.651	1.0	stim	poldrack-single-stim	s603	False	0
660.606	1.5	659.855	n/a	-1.0	2.25	columbia_card_task_fmri	n/a	n/a	-1.0	n/a	n/a	n/a	n/a	n/a	n/a	n/a	n/a	ITI	poldrack-single-stim	s603	False	0
662.11	1.849	663.959	-1.3333591655258308	end_round	1.849	columbia_card_task_fmri	16.0	0.7777777777777778	71.0	-65.0	0.2222222222222222	9.0	1.0	2.0	1.967112425477868	1.849	0.0	stim	poldrack-single-stim	s603	False	1
664.715	1.5	663.964	n/a	-1.0	2.318	columbia_card_task_fmri	n/a	n/a	-1.0	n/a	n/a	n/a	n/a	n/a	n/a	n/a	n/a	ITI	poldrack-single-stim	s603	False	0
666.287	1.403	667.69	3.866640834474168	end_round	1.403	columbia_card_task_fmri	13.0	0.9	71.0	-85.0	0.1	10.0	1.0	1.0	-2.3068449187465347	1.403	0.0	stim	poldrack-single-stim	s603	False	1
668.446	1.5	667.695	n/a	-1.0	2.454	columbia_card_task_fmri	n/a	n/a	-1.0	n/a	n/a	n/a	n/a	n/a	n/a	n/a	n/a	ITI	poldrack-single-stim	s603	False	0
670.155	1.041	671.196	-1.1333591655258315	draw_card	1.041	columbia_card_task_fmri	14.0	0.8	89.0	-65.0	0.2	10.0	1.0	2.0	-0.107370919118118	1.041	n/a	stim	poldrack-single-stim	s603	False	1
671.2	1.698	672.898	-2.8889147210813864	draw_card	1.698	columbia_card_task_fmri	14.0	0.7777777777777778	89.0	-65.0	0.2222222222222222	10.0	2.0	2.0	1.1358000072913548	1.698	n/a	stim	poldrack-single-stim	s603	False	1
672.902	1.383	674.285	-5.083359165525833	end_round	1.383	columbia_card_task_fmri	14.0	0.75	71.0	-65.0	0.25	10.0	3.0	2.0	2.5000965942631588	1.383	2.0	stim	poldrack-single-stim	s603	False	1
675.044	1.5	674.293	n/a	-1.0	2.522	columbia_card_task_fmri	n/a	n/a	-1.0	n/a	n/a	n/a	n/a	n/a	n/a	n/a	n/a	ITI	poldrack-single-stim	s603	False	0
676.82	1.024	677.844	0.2666408344741688	draw_card	1.024	columbia_card_task_fmri	17.0	0.8	89.0	-70.0	0.2	10.0	1.0	2.0	3.091982674754409	1.024	n/a	stim	poldrack-single-stim	s603	False	1
677.848	2.48	680.328	-1.6666924988591647	draw_card	2.48	columbia_card_task_fmri	17.0	0.7777777777777778	89.0	-70.0	0.2222222222222222	10.0	2.0	2.0	4.461095736886076	2.48	n/a	stim	poldrack-single-stim	s603	False	1
680.334	2.125	682.459	-4.083359165525833	draw_card	2.125	columbia_card_task_fmri	17.0	0.75	89.0	-70.0	0.25	10.0	3.0	2.0	5.96360105837989	2.125	3.0	stim	poldrack-single-stim	s603	False	0
683.217	1.5	682.466	n/a	-1.0	2.318	columbia_card_task_fmri	n/a	n/a	-1.0	n/a	n/a	n/a	n/a	n/a	n/a	n/a	n/a	ITI	poldrack-single-stim	s603	False	0
