onset	duration	movement_onset	CTI	block_duration	correct	correct_response	cue	cue_switch	experiment_exp_id	key_press	response_time	stim_color	stim_number	switch_type	task	task_switch	trial_id	trial_type	worker_id	first_trial_of_block	junk
3.62	1.0	4.692	0.1	3.224	True	89.0	Orange-Blue	stay	twobytwo	89.0	0.972	blue	4.0	cue_stay	color	stay	stim	poldrack-single-stim	s603	1	False
7.753	1.0	9.247	0.9	2.408	True	71.0	Magnitude	n/a	twobytwo	71.0	0.594	orange	7.0	task_switch	magnitude	switch	stim	poldrack-single-stim	s603	0	False
10.273	1.0	11.513	0.1	2.816	True	89.0	Color	n/a	twobytwo	89.0	1.14	blue	6.0	task_switch	color	switch	stim	poldrack-single-stim	s603	0	False
13.193	1.0	14.032	0.1	2.408	True	89.0	Magnitude	n/a	twobytwo	89.0	0.739	orange	1.0	task_switch	magnitude	switch	stim	poldrack-single-stim	s603	0	False
16.505	1.0	17.809	0.9	2.136	True	71.0	Color	n/a	twobytwo	71.0	0.404	orange	4.0	task_switch	color	switch	stim	poldrack-single-stim	s603	0	False
18.75	1.0	19.46	0.1	2.136	True	71.0	Color	stay	twobytwo	71.0	0.61	orange	7.0	cue_stay	color	stay	stim	poldrack-single-stim	s603	0	False
20.998	1.0	21.797	0.1	2.0	True	71.0	Orange-Blue	switch	twobytwo	71.0	0.699	orange	8.0	cue_switch	color	stay	stim	poldrack-single-stim	s603	0	False
23.905	1.0	25.624	0.9	2.0	True	71.0	Color	switch	twobytwo	71.0	0.819	orange	2.0	cue_switch	color	stay	stim	poldrack-single-stim	s603	0	False
26.009	1.0	26.902	0.1	2.272	True	89.0	Magnitude	n/a	twobytwo	89.0	0.793	orange	1.0	task_switch	magnitude	switch	stim	poldrack-single-stim	s603	0	False
29.188	1.0	30.611	0.9	2.408	True	71.0	Orange-Blue	n/a	twobytwo	71.0	0.523	orange	9.0	task_switch	color	switch	stim	poldrack-single-stim	s603	0	False
31.708	1.0	32.774	0.1	2.0	True	89.0	High-Low	n/a	twobytwo	89.0	0.966	orange	2.0	task_switch	magnitude	switch	stim	poldrack-single-stim	s603	0	False
34.611	1.0	36.101	0.9	2.136	True	71.0	Magnitude	switch	twobytwo	71.0	0.59	orange	8.0	cue_switch	magnitude	stay	stim	poldrack-single-stim	s603	0	False
37.654	1.0	39.658	0.9	2.0	True	71.0	Color	n/a	twobytwo	71.0	1.104	orange	3.0	task_switch	color	switch	stim	poldrack-single-stim	s603	0	False
39.76	1.0	40.854	0.1	2.408	True	89.0	High-Low	n/a	twobytwo	89.0	0.994	orange	1.0	task_switch	magnitude	switch	stim	poldrack-single-stim	s603	0	False
42.278	1.0	43.026	0.1	2.272	True	89.0	Magnitude	switch	twobytwo	89.0	0.648	blue	1.0	cue_switch	magnitude	stay	stim	poldrack-single-stim	s603	0	False
45.457	1.0	46.816	0.9	2.0	True	89.0	Color	n/a	twobytwo	89.0	0.459	blue	1.0	task_switch	color	switch	stim	poldrack-single-stim	s603	0	False
47.565	1.0	48.315	0.1	2.272	True	71.0	Orange-Blue	switch	twobytwo	71.0	0.65	orange	7.0	cue_switch	color	stay	stim	poldrack-single-stim	s603	0	False
49.947	1.0	50.888	0.1	2.0	True	89.0	High-Low	n/a	twobytwo	89.0	0.841	orange	4.0	task_switch	magnitude	switch	stim	poldrack-single-stim	s603	0	False
52.854	1.0	54.58	0.9	2.0	True	71.0	Color	n/a	twobytwo	71.0	0.826	orange	3.0	task_switch	color	switch	stim	poldrack-single-stim	s603	0	False
54.966	1.0	56.003	0.1	2.272	True	71.0	Color	stay	twobytwo	71.0	0.937	orange	6.0	cue_stay	color	stay	stim	poldrack-single-stim	s603	0	False
57.348	1.0	58.188	0.1	2.136	True	89.0	High-Low	n/a	twobytwo	89.0	0.74	orange	1.0	task_switch	magnitude	switch	stim	poldrack-single-stim	s603	0	False
59.59	1.0	60.793	0.1	2.0	True	71.0	Orange-Blue	n/a	twobytwo	71.0	1.103	orange	1.0	task_switch	color	switch	stim	poldrack-single-stim	s603	0	False
62.497	1.0	63.951	0.9	2.0	True	71.0	Orange-Blue	stay	twobytwo	71.0	0.554	orange	3.0	cue_stay	color	stay	stim	poldrack-single-stim	s603	0	False
64.604	1.0	66.032	0.1	2.0	True	89.0	High-Low	n/a	twobytwo	89.0	1.328	orange	3.0	task_switch	magnitude	switch	stim	poldrack-single-stim	s603	0	False
67.51	1.0	68.973	0.9	2.0	True	89.0	Magnitude	switch	twobytwo	89.0	0.563	orange	2.0	cue_switch	magnitude	stay	stim	poldrack-single-stim	s603	0	False
69.617	1.0	70.67	0.1	2.0	True	71.0	Magnitude	stay	twobytwo	71.0	0.953	orange	7.0	cue_stay	magnitude	stay	stim	poldrack-single-stim	s603	0	False
71.726	1.0	72.623	0.1	2.136	True	89.0	Orange-Blue	n/a	twobytwo	89.0	0.797	blue	3.0	task_switch	color	switch	stim	poldrack-single-stim	s603	0	False
73.965	1.0	74.705	0.1	2.0	True	89.0	Orange-Blue	stay	twobytwo	89.0	0.64	blue	2.0	cue_stay	color	stay	stim	poldrack-single-stim	s603	0	False
76.87	1.0	78.29	0.9	2.0	True	89.0	Magnitude	n/a	twobytwo	89.0	0.52	orange	3.0	task_switch	magnitude	switch	stim	poldrack-single-stim	s603	0	False
78.974	1.0	80.178	0.1	2.136	False	89.0	High-Low	switch	twobytwo	71.0	1.104	blue	4.0	cue_switch	magnitude	stay	stim	poldrack-single-stim	s603	0	False
81.217	1.0	82.349	0.1	2.0	True	89.0	Magnitude	switch	twobytwo	89.0	1.032	orange	1.0	cue_switch	magnitude	stay	stim	poldrack-single-stim	s603	0	False
84.121	1.0	85.795	0.9	2.136	True	89.0	Orange-Blue	n/a	twobytwo	89.0	0.774	blue	1.0	task_switch	color	switch	stim	poldrack-single-stim	s603	0	False
86.361	1.0	87.574	0.1	2.68	True	89.0	Magnitude	n/a	twobytwo	89.0	1.113	orange	4.0	task_switch	magnitude	switch	stim	poldrack-single-stim	s603	0	False
89.948	1.0	91.408	0.9	2.272	True	71.0	Magnitude	stay	twobytwo	71.0	0.56	orange	8.0	cue_stay	magnitude	stay	stim	poldrack-single-stim	s603	0	False
92.329	1.0	93.282	0.1	2.136	True	89.0	Magnitude	stay	twobytwo	89.0	0.853	orange	2.0	cue_stay	magnitude	stay	stim	poldrack-single-stim	s603	0	False
95.372	1.0	97.282	0.9	2.0	False	89.0	Orange-Blue	n/a	twobytwo	71.0	1.01	blue	8.0	task_switch	color	switch	stim	poldrack-single-stim	s603	0	False
98.278	1.0	99.599	0.9	2.136	True	89.0	Magnitude	n/a	twobytwo	89.0	0.421	blue	4.0	task_switch	magnitude	switch	stim	poldrack-single-stim	s603	0	False
100.521	1.0	101.773	0.1	2.68	True	71.0	Color	n/a	twobytwo	71.0	1.152	orange	8.0	task_switch	color	switch	stim	poldrack-single-stim	s603	0	False
103.308	1.0	104.032	0.1	2.272	True	89.0	Magnitude	n/a	twobytwo	89.0	0.624	blue	1.0	task_switch	magnitude	switch	stim	poldrack-single-stim	s603	0	False
106.486	1.0	107.969	0.9	2.0	False	89.0	High-Low	switch	twobytwo	71.0	0.583	blue	2.0	cue_switch	magnitude	stay	stim	poldrack-single-stim	s603	0	False
109.393	1.0	109.392	0.9	2.0	False	89.0	Color	n/a	twobytwo	-1.0	n/a	blue	7.0	task_switch	color	switch	stim	poldrack-single-stim	s603	0	False
112.297	1.0	113.682	0.9	2.136	True	89.0	Color	stay	twobytwo	89.0	0.485	blue	3.0	cue_stay	color	stay	stim	poldrack-single-stim	s603	0	False
114.54	1.0	115.549	0.1	2.0	True	89.0	Color	stay	twobytwo	89.0	0.909	blue	9.0	cue_stay	color	stay	stim	poldrack-single-stim	s603	0	False
117.446	1.0	118.862	0.9	2.0	True	89.0	Color	stay	twobytwo	89.0	0.516	blue	7.0	cue_stay	color	stay	stim	poldrack-single-stim	s603	0	False
119.553	1.0	120.502	0.1	2.0	True	71.0	Orange-Blue	switch	twobytwo	71.0	0.849	orange	7.0	cue_switch	color	stay	stim	poldrack-single-stim	s603	0	False
122.465	1.0	124.434	0.9	2.272	True	89.0	Magnitude	n/a	twobytwo	89.0	1.069	orange	4.0	task_switch	magnitude	switch	stim	poldrack-single-stim	s603	0	False
124.841	1.0	126.02	0.1	2.408	True	89.0	Color	n/a	twobytwo	89.0	1.079	blue	1.0	task_switch	color	switch	stim	poldrack-single-stim	s603	0	False
127.356	1.0	128.237	0.1	2.0	True	89.0	Color	stay	twobytwo	89.0	0.781	blue	7.0	cue_stay	color	stay	stim	poldrack-single-stim	s603	0	False
130.268	1.0	131.592	0.9	2.0	True	89.0	Color	stay	twobytwo	89.0	0.424	blue	8.0	cue_stay	color	stay	stim	poldrack-single-stim	s603	0	False
132.374	1.0	133.275	0.1	2.0	True	89.0	Magnitude	n/a	twobytwo	89.0	0.801	orange	3.0	task_switch	magnitude	switch	stim	poldrack-single-stim	s603	0	False
134.481	1.0	135.393	0.1	2.272	False	71.0	Color	n/a	twobytwo	89.0	0.812	orange	7.0	task_switch	color	switch	stim	poldrack-single-stim	s603	0	False
137.663	1.0	139.841	0.9	2.136	True	71.0	Color	stay	twobytwo	71.0	1.278	orange	4.0	cue_stay	color	stay	stim	poldrack-single-stim	s603	0	False
139.905	1.0	140.978	0.1	2.0	True	89.0	Magnitude	n/a	twobytwo	89.0	0.973	orange	3.0	task_switch	magnitude	switch	stim	poldrack-single-stim	s603	0	False
142.812	1.0	144.485	0.9	2.544	True	71.0	High-Low	switch	twobytwo	71.0	0.773	blue	9.0	cue_switch	magnitude	stay	stim	poldrack-single-stim	s603	0	False
145.462	1.0	146.32	0.1	2.272	False	71.0	Color	n/a	twobytwo	89.0	0.758	orange	3.0	task_switch	color	switch	stim	poldrack-single-stim	s603	0	False
148.64	1.0	150.144	0.9	2.272	True	71.0	Color	stay	twobytwo	71.0	0.604	orange	8.0	cue_stay	color	stay	stim	poldrack-single-stim	s603	0	False
151.82	1.0	153.86	0.9	2.0	True	71.0	Orange-Blue	switch	twobytwo	71.0	1.14	orange	8.0	cue_switch	color	stay	stim	poldrack-single-stim	s603	0	False
153.926	1.0	154.897	0.1	2.0	True	71.0	Orange-Blue	stay	twobytwo	71.0	0.871	orange	7.0	cue_stay	color	stay	stim	poldrack-single-stim	s603	0	False
156.032	1.0	157.594	0.1	2.136	True	71.0	Magnitude	n/a	twobytwo	71.0	1.462	blue	8.0	task_switch	magnitude	switch	stim	poldrack-single-stim	s603	0	False
159.078	1.0	160.925	0.9	2.0	False	71.0	Orange-Blue	n/a	twobytwo	89.0	0.947	orange	7.0	task_switch	color	switch	stim	poldrack-single-stim	s603	0	False
161.982	1.0	163.627	0.9	2.136	True	89.0	Color	switch	twobytwo	89.0	0.745	blue	7.0	cue_switch	color	stay	stim	poldrack-single-stim	s603	0	False
165.021	1.0	167.0	0.9	2.272	True	71.0	High-Low	n/a	twobytwo	71.0	1.079	orange	7.0	task_switch	magnitude	switch	stim	poldrack-single-stim	s603	0	False
167.401	1.0	168.682	0.1	2.136	False	71.0	Orange-Blue	n/a	twobytwo	89.0	1.181	orange	4.0	task_switch	color	switch	stim	poldrack-single-stim	s603	0	False
170.442	1.0	172.044	0.9	2.272	True	89.0	Orange-Blue	stay	twobytwo	89.0	0.702	blue	1.0	cue_stay	color	stay	stim	poldrack-single-stim	s603	0	False
172.822	1.0	173.628	0.1	2.0	True	89.0	Magnitude	n/a	twobytwo	89.0	0.706	orange	3.0	task_switch	magnitude	switch	stim	poldrack-single-stim	s603	0	False
175.729	1.0	177.862	0.9	2.816	True	71.0	Magnitude	stay	twobytwo	71.0	1.233	orange	7.0	cue_stay	magnitude	stay	stim	poldrack-single-stim	s603	0	False
179.449	1.0	180.92	0.9	2.408	True	89.0	High-Low	switch	twobytwo	89.0	0.571	blue	1.0	cue_switch	magnitude	stay	stim	poldrack-single-stim	s603	0	False
181.964	1.0	182.76	0.1	2.0	True	89.0	High-Low	stay	twobytwo	89.0	0.696	blue	1.0	cue_stay	magnitude	stay	stim	poldrack-single-stim	s603	0	False
184.075	1.0	184.933	0.1	2.544	True	89.0	High-Low	stay	twobytwo	89.0	0.758	orange	3.0	cue_stay	magnitude	stay	stim	poldrack-single-stim	s603	0	False
187.524	1.0	189.292	0.9	2.136	True	89.0	Orange-Blue	n/a	twobytwo	89.0	0.868	blue	8.0	task_switch	color	switch	stim	poldrack-single-stim	s603	0	False
190.566	1.0	192.726	0.9	2.0	True	89.0	High-Low	n/a	twobytwo	89.0	1.26	blue	3.0	task_switch	magnitude	switch	stim	poldrack-single-stim	s603	0	False
193.473	1.0	194.949	0.9	2.0	True	89.0	High-Low	stay	twobytwo	89.0	0.576	orange	4.0	cue_stay	magnitude	stay	stim	poldrack-single-stim	s603	0	False
195.582	1.0	196.487	0.1	2.136	True	71.0	Magnitude	switch	twobytwo	71.0	0.805	blue	7.0	cue_switch	magnitude	stay	stim	poldrack-single-stim	s603	0	False
197.822	1.0	198.712	0.1	2.136	True	71.0	Magnitude	stay	twobytwo	71.0	0.79	orange	8.0	cue_stay	magnitude	stay	stim	poldrack-single-stim	s603	0	False
200.864	1.0	202.257	0.9	2.272	True	71.0	Color	n/a	twobytwo	71.0	0.493	orange	8.0	task_switch	color	switch	stim	poldrack-single-stim	s603	0	False
204.042	1.0	205.718	0.9	3.224	True	71.0	Orange-Blue	switch	twobytwo	71.0	0.776	orange	2.0	cue_switch	color	stay	stim	poldrack-single-stim	s603	0	False
208.175	1.0	209.646	0.9	2.0	True	89.0	Color	switch	twobytwo	89.0	0.571	blue	1.0	cue_switch	color	stay	stim	poldrack-single-stim	s603	0	False
210.284	1.0	211.29	0.1	2.0	True	89.0	Magnitude	n/a	twobytwo	89.0	0.906	blue	4.0	task_switch	magnitude	switch	stim	poldrack-single-stim	s603	0	False
212.39	1.0	213.69	0.1	2.272	True	89.0	Color	n/a	twobytwo	89.0	1.2	blue	8.0	task_switch	color	switch	stim	poldrack-single-stim	s603	0	False
215.566	1.0	217.314	0.9	2.136	True	89.0	Magnitude	n/a	twobytwo	89.0	0.848	orange	3.0	task_switch	magnitude	switch	stim	poldrack-single-stim	s603	0	False
231.324	1.0	232.144	0.1	2.0	True	89.0	Magnitude	stay	twobytwo	89.0	0.72	blue	4.0	cue_stay	magnitude	stay	stim	poldrack-single-stim	s603	1	False
234.23	1.0	235.699	0.9	2.0	True	71.0	Orange-Blue	n/a	twobytwo	71.0	0.569	orange	7.0	task_switch	color	switch	stim	poldrack-single-stim	s603	0	False
236.337	1.0	237.567	0.1	2.0	True	71.0	High-Low	n/a	twobytwo	71.0	1.13	blue	6.0	task_switch	magnitude	switch	stim	poldrack-single-stim	s603	0	False
238.441	1.0	239.289	0.1	2.68	False	71.0	Orange-Blue	n/a	twobytwo	89.0	0.748	orange	1.0	task_switch	color	switch	stim	poldrack-single-stim	s603	0	False
242.033	1.0	243.893	0.9	2.0	True	89.0	Magnitude	n/a	twobytwo	89.0	0.96	orange	4.0	task_switch	magnitude	switch	stim	poldrack-single-stim	s603	0	False
244.136	1.0	244.921	0.1	2.272	True	71.0	Magnitude	stay	twobytwo	71.0	0.685	orange	7.0	cue_stay	magnitude	stay	stim	poldrack-single-stim	s603	0	False
246.518	1.0	247.372	0.1	2.0	True	71.0	High-Low	switch	twobytwo	71.0	0.754	orange	8.0	cue_switch	magnitude	stay	stim	poldrack-single-stim	s603	0	False
249.425	1.0	250.881	0.9	2.272	True	89.0	Magnitude	switch	twobytwo	89.0	0.556	orange	2.0	cue_switch	magnitude	stay	stim	poldrack-single-stim	s603	0	False
251.806	1.0	252.625	0.1	2.952	False	71.0	Color	n/a	twobytwo	89.0	0.719	orange	1.0	task_switch	color	switch	stim	poldrack-single-stim	s603	0	False
255.662	1.0	257.313	0.9	2.0	True	71.0	High-Low	n/a	twobytwo	71.0	0.751	orange	9.0	task_switch	magnitude	switch	stim	poldrack-single-stim	s603	0	False
257.767	1.0	259.336	0.1	2.0	False	71.0	Orange-Blue	n/a	twobytwo	89.0	1.469	orange	2.0	task_switch	color	switch	stim	poldrack-single-stim	s603	0	False
260.678	1.0	262.638	0.9	2.0	True	71.0	Color	switch	twobytwo	71.0	1.06	orange	8.0	cue_switch	color	stay	stim	poldrack-single-stim	s603	0	False
263.585	1.0	265.135	0.9	2.0	True	89.0	Magnitude	n/a	twobytwo	89.0	0.65	orange	3.0	task_switch	magnitude	switch	stim	poldrack-single-stim	s603	0	False
265.694	1.0	267.048	0.1	2.136	True	71.0	Orange-Blue	n/a	twobytwo	71.0	1.254	orange	1.0	task_switch	color	switch	stim	poldrack-single-stim	s603	0	False
267.937	1.0	268.758	0.1	2.0	True	89.0	Color	switch	twobytwo	89.0	0.721	blue	1.0	cue_switch	color	stay	stim	poldrack-single-stim	s603	0	False
270.848	1.0	272.302	0.9	2.0	True	89.0	High-Low	n/a	twobytwo	89.0	0.554	blue	1.0	task_switch	magnitude	switch	stim	poldrack-single-stim	s603	0	False
272.955	1.0	274.016	0.1	2.0	True	71.0	Magnitude	switch	twobytwo	71.0	0.961	orange	7.0	cue_switch	magnitude	stay	stim	poldrack-single-stim	s603	0	False
275.062	1.0	276.046	0.1	2.272	False	71.0	Orange-Blue	n/a	twobytwo	89.0	0.884	orange	4.0	task_switch	color	switch	stim	poldrack-single-stim	s603	0	False
278.244	1.0	279.668	0.9	2.136	True	89.0	High-Low	n/a	twobytwo	89.0	0.524	orange	3.0	task_switch	magnitude	switch	stim	poldrack-single-stim	s603	0	False
280.486	1.0	281.812	0.1	2.0	True	71.0	High-Low	stay	twobytwo	71.0	1.226	orange	6.0	cue_stay	magnitude	stay	stim	poldrack-single-stim	s603	0	False
282.596	1.0	283.815	0.1	2.136	True	71.0	Orange-Blue	n/a	twobytwo	71.0	1.119	orange	1.0	task_switch	color	switch	stim	poldrack-single-stim	s603	0	False
284.841	1.0	286.093	0.1	2.816	True	89.0	High-Low	n/a	twobytwo	89.0	1.152	orange	1.0	task_switch	magnitude	switch	stim	poldrack-single-stim	s603	0	False
288.564	1.0	290.154	0.9	2.408	True	89.0	High-Low	stay	twobytwo	89.0	0.69	orange	3.0	cue_stay	magnitude	stay	stim	poldrack-single-stim	s603	0	False
291.077	1.0	292.057	0.1	2.0	True	71.0	Orange-Blue	n/a	twobytwo	71.0	0.88	orange	3.0	task_switch	color	switch	stim	poldrack-single-stim	s603	0	False
293.988	1.0	295.968	0.9	2.136	True	71.0	Color	switch	twobytwo	71.0	1.08	orange	2.0	cue_switch	color	stay	stim	poldrack-single-stim	s603	0	False
296.227	1.0	297.143	0.1	2.136	True	71.0	Color	stay	twobytwo	71.0	0.816	orange	7.0	cue_stay	color	stay	stim	poldrack-single-stim	s603	0	False
298.468	1.0	299.799	0.1	2.136	True	89.0	Magnitude	n/a	twobytwo	89.0	1.231	blue	3.0	task_switch	magnitude	switch	stim	poldrack-single-stim	s603	0	False
300.716	1.0	301.641	0.1	2.544	True	89.0	Magnitude	stay	twobytwo	89.0	0.825	blue	2.0	cue_stay	magnitude	stay	stim	poldrack-single-stim	s603	0	False
304.169	1.0	305.6	0.9	2.136	True	71.0	Color	n/a	twobytwo	71.0	0.531	orange	3.0	task_switch	color	switch	stim	poldrack-single-stim	s603	0	False
306.41	1.0	308.149	0.1	2.0	True	89.0	Orange-Blue	switch	twobytwo	89.0	1.639	blue	4.0	cue_switch	color	stay	stim	poldrack-single-stim	s603	0	False
308.518	1.0	309.456	0.1	2.0	True	71.0	Color	switch	twobytwo	71.0	0.838	orange	1.0	cue_switch	color	stay	stim	poldrack-single-stim	s603	0	False
311.425	1.0	312.769	0.9	2.0	True	89.0	Magnitude	n/a	twobytwo	89.0	0.444	blue	1.0	task_switch	magnitude	switch	stim	poldrack-single-stim	s603	0	False
313.532	1.0	314.868	0.1	2.0	False	71.0	Orange-Blue	n/a	twobytwo	89.0	1.236	orange	4.0	task_switch	color	switch	stim	poldrack-single-stim	s603	0	False
316.435	1.0	317.921	0.9	2.136	True	71.0	Orange-Blue	stay	twobytwo	71.0	0.586	orange	8.0	cue_stay	color	stay	stim	poldrack-single-stim	s603	0	False
318.677	1.0	319.823	0.1	2.0	True	71.0	Orange-Blue	stay	twobytwo	71.0	1.046	orange	2.0	cue_stay	color	stay	stim	poldrack-single-stim	s603	0	False
321.585	1.0	323.193	0.9	2.0	True	71.0	High-Low	n/a	twobytwo	71.0	0.708	blue	8.0	task_switch	magnitude	switch	stim	poldrack-single-stim	s603	0	False
324.492	1.0	326.357	0.9	2.0	False	89.0	Orange-Blue	n/a	twobytwo	71.0	0.965	blue	4.0	task_switch	color	switch	stim	poldrack-single-stim	s603	0	False
326.601	1.0	327.799	0.1	2.136	True	71.0	Magnitude	n/a	twobytwo	71.0	1.098	orange	8.0	task_switch	magnitude	switch	stim	poldrack-single-stim	s603	0	False
328.846	1.0	329.83	0.1	2.136	True	89.0	Orange-Blue	n/a	twobytwo	89.0	0.884	blue	1.0	task_switch	color	switch	stim	poldrack-single-stim	s603	0	False
331.892	1.0	333.753	0.9	2.136	True	89.0	Color	switch	twobytwo	89.0	0.961	blue	2.0	cue_switch	color	stay	stim	poldrack-single-stim	s603	0	False
334.931	1.0	336.741	0.9	2.136	True	71.0	High-Low	n/a	twobytwo	71.0	0.91	blue	7.0	task_switch	magnitude	switch	stim	poldrack-single-stim	s603	0	False
337.971	1.0	339.731	0.9	2.68	True	89.0	High-Low	stay	twobytwo	89.0	0.86	blue	3.0	cue_stay	magnitude	stay	stim	poldrack-single-stim	s603	0	False
340.758	1.0	342.139	0.1	2.544	True	71.0	High-Low	stay	twobytwo	71.0	1.281	blue	9.0	cue_stay	magnitude	stay	stim	poldrack-single-stim	s603	0	False
344.214	1.0	345.72	0.9	2.272	True	71.0	High-Low	stay	twobytwo	71.0	0.606	blue	7.0	cue_stay	magnitude	stay	stim	poldrack-single-stim	s603	0	False
346.593	1.0	347.429	0.1	2.272	True	71.0	Magnitude	switch	twobytwo	71.0	0.736	orange	7.0	cue_switch	magnitude	stay	stim	poldrack-single-stim	s603	0	False
349.769	1.0	351.352	0.9	2.408	True	71.0	Orange-Blue	n/a	twobytwo	71.0	0.683	orange	4.0	task_switch	color	switch	stim	poldrack-single-stim	s603	0	False
352.281	1.0	353.68	0.1	2.136	True	89.0	Magnitude	n/a	twobytwo	89.0	1.299	blue	1.0	task_switch	magnitude	switch	stim	poldrack-single-stim	s603	0	False
354.529	1.0	355.39	0.1	2.272	True	71.0	Magnitude	stay	twobytwo	71.0	0.761	blue	7.0	cue_stay	magnitude	stay	stim	poldrack-single-stim	s603	0	False
357.706	1.0	359.157	0.9	2.0	True	71.0	Magnitude	stay	twobytwo	71.0	0.551	blue	8.0	cue_stay	magnitude	stay	stim	poldrack-single-stim	s603	0	False
359.811	1.0	360.729	0.1	2.136	False	71.0	Color	n/a	twobytwo	89.0	0.818	orange	3.0	task_switch	color	switch	stim	poldrack-single-stim	s603	0	False
362.052	1.0	363.234	0.1	2.272	True	71.0	Magnitude	n/a	twobytwo	71.0	1.082	orange	7.0	task_switch	magnitude	switch	stim	poldrack-single-stim	s603	0	False
365.233	1.0	367.055	0.9	2.0	True	89.0	Magnitude	stay	twobytwo	89.0	0.922	orange	4.0	cue_stay	magnitude	stay	stim	poldrack-single-stim	s603	0	False
367.342	1.0	368.44	0.1	2.68	True	71.0	Color	n/a	twobytwo	71.0	0.998	orange	3.0	task_switch	color	switch	stim	poldrack-single-stim	s603	0	False
370.929	1.0	372.72	0.9	2.0	True	89.0	Orange-Blue	switch	twobytwo	89.0	0.891	blue	9.0	cue_switch	color	stay	stim	poldrack-single-stim	s603	0	False
373.036	1.0	374.42	0.1	2.0	False	89.0	Magnitude	n/a	twobytwo	71.0	1.284	orange	3.0	task_switch	magnitude	switch	stim	poldrack-single-stim	s603	0	False
375.942	1.0	377.629	0.9	2.0	True	71.0	Magnitude	stay	twobytwo	71.0	0.787	orange	8.0	cue_stay	magnitude	stay	stim	poldrack-single-stim	s603	0	False
378.846	1.0	380.978	0.9	2.272	True	71.0	High-Low	switch	twobytwo	71.0	1.232	orange	8.0	cue_switch	magnitude	stay	stim	poldrack-single-stim	s603	0	False
381.228	1.0	382.496	0.1	2.0	True	71.0	High-Low	stay	twobytwo	71.0	1.168	orange	7.0	cue_stay	magnitude	stay	stim	poldrack-single-stim	s603	0	False
383.334	1.0	384.475	0.1	2.0	False	89.0	Orange-Blue	n/a	twobytwo	71.0	1.041	blue	8.0	task_switch	color	switch	stim	poldrack-single-stim	s603	0	False
386.241	1.0	387.897	0.9	2.0	True	71.0	Magnitude	n/a	twobytwo	71.0	0.756	orange	7.0	task_switch	magnitude	switch	stim	poldrack-single-stim	s603	0	False
389.145	1.0	390.891	0.9	2.68	True	71.0	High-Low	switch	twobytwo	71.0	0.846	blue	7.0	cue_switch	magnitude	stay	stim	poldrack-single-stim	s603	0	False
392.732	1.0	394.387	0.9	2.0	True	71.0	Orange-Blue	n/a	twobytwo	71.0	0.755	orange	7.0	task_switch	color	switch	stim	poldrack-single-stim	s603	0	False
394.841	1.0	396.149	0.1	2.136	True	89.0	High-Low	n/a	twobytwo	89.0	1.208	orange	4.0	task_switch	magnitude	switch	stim	poldrack-single-stim	s603	0	False
397.886	1.0	399.321	0.9	2.408	True	89.0	High-Low	stay	twobytwo	89.0	0.535	blue	1.0	cue_stay	magnitude	stay	stim	poldrack-single-stim	s603	0	False
400.403	1.0	401.607	0.1	2.136	True	71.0	Color	n/a	twobytwo	71.0	1.104	orange	3.0	task_switch	color	switch	stim	poldrack-single-stim	s603	0	False
403.446	1.0	405.093	0.9	2.0	False	71.0	Color	stay	twobytwo	89.0	0.747	orange	7.0	cue_stay	color	stay	stim	poldrack-single-stim	s603	0	False
406.358	1.0	408.585	0.9	2.0	True	89.0	Orange-Blue	switch	twobytwo	89.0	1.327	blue	1.0	cue_switch	color	stay	stim	poldrack-single-stim	s603	0	False
408.465	1.0	409.247	0.1	2.544	True	89.0	Orange-Blue	stay	twobytwo	89.0	0.682	blue	1.0	cue_stay	color	stay	stim	poldrack-single-stim	s603	0	False
411.113	1.0	412.536	0.1	2.136	True	71.0	Orange-Blue	stay	twobytwo	71.0	1.323	orange	3.0	cue_stay	color	stay	stim	poldrack-single-stim	s603	0	False
414.159	1.0	415.679	0.9	2.544	True	71.0	Magnitude	n/a	twobytwo	71.0	0.62	blue	8.0	task_switch	magnitude	switch	stim	poldrack-single-stim	s603	0	False
417.609	1.0	419.375	0.9	2.68	True	89.0	Color	n/a	twobytwo	89.0	0.866	blue	3.0	task_switch	color	switch	stim	poldrack-single-stim	s603	0	False
421.201	1.0	423.053	0.9	2.0	True	71.0	Color	stay	twobytwo	71.0	0.952	orange	4.0	cue_stay	color	stay	stim	poldrack-single-stim	s603	0	False
423.304	1.0	424.673	0.1	2.272	True	89.0	Orange-Blue	switch	twobytwo	89.0	1.269	blue	7.0	cue_switch	color	stay	stim	poldrack-single-stim	s603	0	False
425.681	1.0	426.606	0.1	3.088	True	71.0	Orange-Blue	stay	twobytwo	71.0	0.825	orange	8.0	cue_stay	color	stay	stim	poldrack-single-stim	s603	0	False
429.676	1.0	431.207	0.9	2.0	True	71.0	Magnitude	n/a	twobytwo	71.0	0.631	orange	8.0	task_switch	magnitude	switch	stim	poldrack-single-stim	s603	0	False
432.58	1.0	434.087	0.9	2.136	True	89.0	High-Low	switch	twobytwo	89.0	0.607	orange	2.0	cue_switch	magnitude	stay	stim	poldrack-single-stim	s603	0	False
435.62	1.0	437.073	0.9	2.136	True	89.0	Magnitude	switch	twobytwo	89.0	0.553	blue	1.0	cue_switch	magnitude	stay	stim	poldrack-single-stim	s603	0	False
437.859	1.0	439.113	0.1	2.0	True	89.0	Orange-Blue	n/a	twobytwo	89.0	1.154	blue	4.0	task_switch	color	switch	stim	poldrack-single-stim	s603	0	False
439.964	1.0	441.9	0.1	2.272	False	71.0	Magnitude	n/a	twobytwo	89.0	1.836	blue	8.0	task_switch	magnitude	switch	stim	poldrack-single-stim	s603	0	False
443.142	1.0	445.241	0.9	2.0	False	71.0	Orange-Blue	n/a	twobytwo	89.0	1.199	orange	3.0	task_switch	color	switch	stim	poldrack-single-stim	s603	0	False
458.766	1.0	459.851	0.1	2.136	True	89.0	High-Low	stay	twobytwo	89.0	0.985	blue	4.0	cue_stay	magnitude	stay	stim	poldrack-single-stim	s603	1	False
461.805	1.0	463.319	0.9	2.136	True	71.0	Orange-Blue	n/a	twobytwo	71.0	0.614	orange	7.0	task_switch	color	switch	stim	poldrack-single-stim	s603	0	False
464.049	1.0	465.282	0.1	2.544	True	71.0	High-Low	n/a	twobytwo	71.0	1.133	blue	6.0	task_switch	magnitude	switch	stim	poldrack-single-stim	s603	0	False
466.705	1.0	467.479	0.1	2.0	False	71.0	Orange-Blue	n/a	twobytwo	89.0	0.674	orange	1.0	task_switch	color	switch	stim	poldrack-single-stim	s603	0	False
469.609	1.0	472.019	0.9	2.136	True	89.0	Magnitude	n/a	twobytwo	89.0	1.51	orange	4.0	task_switch	magnitude	switch	stim	poldrack-single-stim	s603	0	False
471.854	1.0	473.505	0.1	2.136	True	71.0	Magnitude	stay	twobytwo	71.0	1.551	orange	7.0	cue_stay	magnitude	stay	stim	poldrack-single-stim	s603	0	False
474.099	1.0	475.651	0.1	2.136	True	71.0	High-Low	switch	twobytwo	71.0	1.452	orange	8.0	cue_switch	magnitude	stay	stim	poldrack-single-stim	s603	0	False
477.147	1.0	478.595	0.9	2.0	True	89.0	Magnitude	switch	twobytwo	89.0	0.548	orange	2.0	cue_switch	magnitude	stay	stim	poldrack-single-stim	s603	0	False
479.256	1.0	480.517	0.1	2.136	True	71.0	Orange-Blue	n/a	twobytwo	71.0	1.161	orange	1.0	task_switch	color	switch	stim	poldrack-single-stim	s603	0	False
482.3	1.0	483.905	0.9	2.0	True	71.0	Magnitude	n/a	twobytwo	71.0	0.705	orange	9.0	task_switch	magnitude	switch	stim	poldrack-single-stim	s603	0	False
484.408	1.0	485.534	0.1	2.136	True	71.0	Color	n/a	twobytwo	71.0	1.026	orange	2.0	task_switch	color	switch	stim	poldrack-single-stim	s603	0	False
487.448	1.0	488.904	0.9	2.816	True	71.0	Orange-Blue	switch	twobytwo	71.0	0.556	orange	8.0	cue_switch	color	stay	stim	poldrack-single-stim	s603	0	False
491.175	1.0	492.718	0.9	2.136	True	89.0	Magnitude	n/a	twobytwo	89.0	0.643	orange	3.0	task_switch	magnitude	switch	stim	poldrack-single-stim	s603	0	False
493.417	1.0	494.481	0.1	2.0	True	71.0	Color	n/a	twobytwo	71.0	0.964	orange	1.0	task_switch	color	switch	stim	poldrack-single-stim	s603	0	False
495.526	1.0	497.261	0.1	2.0	True	89.0	Orange-Blue	switch	twobytwo	89.0	1.635	blue	1.0	cue_switch	color	stay	stim	poldrack-single-stim	s603	0	False
498.433	1.0	500.61	0.9	2.272	True	89.0	Magnitude	n/a	twobytwo	89.0	1.277	blue	1.0	task_switch	magnitude	switch	stim	poldrack-single-stim	s603	0	False
500.811	1.0	501.764	0.1	2.0	True	71.0	High-Low	switch	twobytwo	71.0	0.853	orange	7.0	cue_switch	magnitude	stay	stim	poldrack-single-stim	s603	0	False
502.918	1.0	503.732	0.1	2.0	False	71.0	Color	n/a	twobytwo	89.0	0.714	orange	4.0	task_switch	color	switch	stim	poldrack-single-stim	s603	0	False
505.83	1.0	507.964	0.9	2.0	True	89.0	High-Low	n/a	twobytwo	89.0	1.234	orange	3.0	task_switch	magnitude	switch	stim	poldrack-single-stim	s603	0	False
507.94	1.0	509.087	0.1	2.408	True	71.0	High-Low	stay	twobytwo	71.0	1.047	orange	6.0	cue_stay	magnitude	stay	stim	poldrack-single-stim	s603	0	False
510.457	1.0	511.766	0.1	2.272	False	71.0	Orange-Blue	n/a	twobytwo	89.0	1.209	orange	1.0	task_switch	color	switch	stim	poldrack-single-stim	s603	0	False
512.836	1.0	512.835	0.1	2.136	False	89.0	High-Low	n/a	twobytwo	-1.0	n/a	orange	1.0	task_switch	magnitude	switch	stim	poldrack-single-stim	s603	0	False
515.878	1.0	518.03	0.9	2.0	True	89.0	High-Low	stay	twobytwo	89.0	1.252	orange	3.0	cue_stay	magnitude	stay	stim	poldrack-single-stim	s603	0	False
517.985	1.0	519.2	0.1	2.0	True	71.0	Orange-Blue	n/a	twobytwo	71.0	1.115	orange	3.0	task_switch	color	switch	stim	poldrack-single-stim	s603	0	False
520.889	1.0	522.604	0.9	2.136	True	71.0	Color	switch	twobytwo	71.0	0.815	orange	2.0	cue_switch	color	stay	stim	poldrack-single-stim	s603	0	False
523.132	1.0	523.95	0.1	2.0	True	71.0	Color	stay	twobytwo	71.0	0.718	orange	7.0	cue_stay	color	stay	stim	poldrack-single-stim	s603	0	False
525.238	1.0	526.19	0.1	2.136	True	89.0	Magnitude	n/a	twobytwo	89.0	0.852	blue	3.0	task_switch	magnitude	switch	stim	poldrack-single-stim	s603	0	False
527.48	1.0	528.258	0.1	2.408	True	89.0	Magnitude	stay	twobytwo	89.0	0.678	blue	2.0	cue_stay	magnitude	stay	stim	poldrack-single-stim	s603	0	False
530.793	1.0	532.374	0.9	2.136	True	71.0	Orange-Blue	n/a	twobytwo	71.0	0.681	orange	3.0	task_switch	color	switch	stim	poldrack-single-stim	s603	0	False
533.036	1.0	534.675	0.1	2.0	True	89.0	Color	switch	twobytwo	89.0	1.539	blue	4.0	cue_switch	color	stay	stim	poldrack-single-stim	s603	0	False
535.145	1.0	536.952	0.1	2.136	True	71.0	Orange-Blue	switch	twobytwo	71.0	1.707	orange	1.0	cue_switch	color	stay	stim	poldrack-single-stim	s603	0	False
538.188	1.0	539.896	0.9	2.272	True	89.0	Magnitude	n/a	twobytwo	89.0	0.808	blue	1.0	task_switch	magnitude	switch	stim	poldrack-single-stim	s603	0	False
540.566	1.0	541.511	0.1	2.0	True	71.0	Orange-Blue	n/a	twobytwo	71.0	0.845	orange	4.0	task_switch	color	switch	stim	poldrack-single-stim	s603	0	False
543.47	1.0	544.871	0.9	2.408	True	71.0	Orange-Blue	stay	twobytwo	71.0	0.501	orange	8.0	cue_stay	color	stay	stim	poldrack-single-stim	s603	0	False
545.985	1.0	547.207	0.1	2.0	True	71.0	Orange-Blue	stay	twobytwo	71.0	1.122	orange	2.0	cue_stay	color	stay	stim	poldrack-single-stim	s603	0	False
548.894	1.0	550.707	0.9	2.136	False	71.0	Magnitude	n/a	twobytwo	89.0	0.913	blue	8.0	task_switch	magnitude	switch	stim	poldrack-single-stim	s603	0	False
551.94	1.0	554.811	0.9	2.408	True	89.0	Orange-Blue	n/a	twobytwo	89.0	1.971	blue	4.0	task_switch	color	switch	stim	poldrack-single-stim	s603	0	False
554.457	1.0	555.648	0.1	2.136	True	71.0	High-Low	n/a	twobytwo	71.0	1.091	orange	8.0	task_switch	magnitude	switch	stim	poldrack-single-stim	s603	0	False
556.702	1.0	558.036	0.1	2.408	True	89.0	Orange-Blue	n/a	twobytwo	89.0	1.234	blue	1.0	task_switch	color	switch	stim	poldrack-single-stim	s603	0	False
560.014	1.0	561.703	0.9	2.136	True	89.0	Color	switch	twobytwo	89.0	0.789	blue	2.0	cue_switch	color	stay	stim	poldrack-single-stim	s603	0	False
563.057	1.0	564.736	0.9	2.0	True	71.0	High-Low	n/a	twobytwo	71.0	0.779	blue	7.0	task_switch	magnitude	switch	stim	poldrack-single-stim	s603	0	False
565.969	1.0	567.699	0.9	2.272	True	89.0	High-Low	stay	twobytwo	89.0	0.83	blue	3.0	cue_stay	magnitude	stay	stim	poldrack-single-stim	s603	0	False
568.348	1.0	569.642	0.1	2.0	True	71.0	High-Low	stay	twobytwo	71.0	1.194	blue	9.0	cue_stay	magnitude	stay	stim	poldrack-single-stim	s603	0	False
571.259	1.0	572.968	0.9	2.272	True	71.0	High-Low	stay	twobytwo	71.0	0.809	blue	7.0	cue_stay	magnitude	stay	stim	poldrack-single-stim	s603	0	False
573.638	1.0	574.861	0.1	2.272	False	71.0	Magnitude	switch	twobytwo	89.0	1.123	orange	7.0	cue_switch	magnitude	stay	stim	poldrack-single-stim	s603	0	False
576.818	1.0	579.175	0.9	2.952	True	71.0	Color	n/a	twobytwo	71.0	1.457	orange	4.0	task_switch	color	switch	stim	poldrack-single-stim	s603	0	False
579.876	1.0	580.846	0.1	2.68	True	89.0	Magnitude	n/a	twobytwo	89.0	0.87	blue	1.0	task_switch	magnitude	switch	stim	poldrack-single-stim	s603	0	False
582.664	1.0	583.7	0.1	2.136	True	71.0	Magnitude	stay	twobytwo	71.0	0.936	blue	7.0	cue_stay	magnitude	stay	stim	poldrack-single-stim	s603	0	False
585.707	1.0	587.107	0.9	2.272	True	71.0	Magnitude	stay	twobytwo	71.0	0.5	blue	8.0	cue_stay	magnitude	stay	stim	poldrack-single-stim	s603	0	False
588.086	1.0	588.907	0.1	2.272	False	71.0	Orange-Blue	n/a	twobytwo	89.0	0.721	orange	3.0	task_switch	color	switch	stim	poldrack-single-stim	s603	0	False
590.462	1.0	590.461	0.1	2.136	False	71.0	High-Low	n/a	twobytwo	-1.0	n/a	orange	7.0	task_switch	magnitude	switch	stim	poldrack-single-stim	s603	0	False
593.502	1.0	593.501	0.9	2.408	False	89.0	High-Low	stay	twobytwo	-1.0	n/a	orange	4.0	cue_stay	magnitude	stay	stim	poldrack-single-stim	s603	0	False
596.019	1.0	596.565	0.1	2.136	True	71.0	Color	n/a	twobytwo	71.0	0.446	orange	3.0	task_switch	color	switch	stim	poldrack-single-stim	s603	0	False
599.06	1.0	600.859	0.9	2.136	False	89.0	Orange-Blue	switch	twobytwo	71.0	0.899	blue	9.0	cue_switch	color	stay	stim	poldrack-single-stim	s603	0	False
601.307	1.0	602.301	0.1	2.0	True	89.0	Magnitude	n/a	twobytwo	89.0	0.894	orange	3.0	task_switch	magnitude	switch	stim	poldrack-single-stim	s603	0	False
604.216	1.0	605.672	0.9	2.0	True	71.0	Magnitude	stay	twobytwo	71.0	0.556	orange	8.0	cue_stay	magnitude	stay	stim	poldrack-single-stim	s603	0	False
607.126	1.0	608.964	0.9	2.0	True	71.0	High-Low	switch	twobytwo	71.0	0.938	orange	8.0	cue_switch	magnitude	stay	stim	poldrack-single-stim	s603	0	False
609.233	1.0	610.348	0.1	2.0	True	71.0	High-Low	stay	twobytwo	71.0	1.015	orange	7.0	cue_stay	magnitude	stay	stim	poldrack-single-stim	s603	0	False
611.34	1.0	612.184	0.1	2.0	True	89.0	Orange-Blue	n/a	twobytwo	89.0	0.744	blue	8.0	task_switch	color	switch	stim	poldrack-single-stim	s603	0	False
614.252	1.0	615.899	0.9	2.272	True	71.0	Magnitude	n/a	twobytwo	71.0	0.747	orange	7.0	task_switch	magnitude	switch	stim	poldrack-single-stim	s603	0	False
617.433	1.0	618.937	0.9	2.408	True	71.0	High-Low	switch	twobytwo	71.0	0.604	blue	7.0	cue_switch	magnitude	stay	stim	poldrack-single-stim	s603	0	False
620.748	1.0	622.344	0.9	2.0	True	71.0	Color	n/a	twobytwo	71.0	0.696	orange	7.0	task_switch	color	switch	stim	poldrack-single-stim	s603	0	False
622.857	1.0	623.782	0.1	2.136	True	89.0	Magnitude	n/a	twobytwo	89.0	0.825	orange	4.0	task_switch	magnitude	switch	stim	poldrack-single-stim	s603	0	False
625.905	1.0	627.637	0.9	2.0	True	89.0	Magnitude	stay	twobytwo	89.0	0.832	blue	1.0	cue_stay	magnitude	stay	stim	poldrack-single-stim	s603	0	False
628.014	1.0	629.476	0.1	2.136	True	71.0	Orange-Blue	n/a	twobytwo	71.0	1.362	orange	3.0	task_switch	color	switch	stim	poldrack-single-stim	s603	0	False
631.062	1.0	632.597	0.9	2.544	True	71.0	Orange-Blue	stay	twobytwo	71.0	0.635	orange	7.0	cue_stay	color	stay	stim	poldrack-single-stim	s603	0	False
634.516	1.0	636.07	0.9	2.68	True	89.0	Color	switch	twobytwo	89.0	0.654	blue	1.0	cue_switch	color	stay	stim	poldrack-single-stim	s603	0	False
637.308	1.0	638.164	0.1	3.088	True	89.0	Color	stay	twobytwo	89.0	0.756	blue	1.0	cue_stay	color	stay	stim	poldrack-single-stim	s603	0	False
640.505	1.0	641.36	0.1	2.136	True	71.0	Color	stay	twobytwo	71.0	0.755	orange	3.0	cue_stay	color	stay	stim	poldrack-single-stim	s603	0	False
643.551	1.0	645.248	0.9	2.544	True	71.0	Magnitude	n/a	twobytwo	71.0	0.797	blue	8.0	task_switch	magnitude	switch	stim	poldrack-single-stim	s603	0	False
647.003	1.0	648.579	0.9	2.0	True	89.0	Color	n/a	twobytwo	89.0	0.676	blue	3.0	task_switch	color	switch	stim	poldrack-single-stim	s603	0	False
649.909	1.0	651.423	0.9	2.136	True	71.0	Color	stay	twobytwo	71.0	0.614	orange	4.0	cue_stay	color	stay	stim	poldrack-single-stim	s603	0	False
652.153	1.0	653.525	0.1	2.0	True	89.0	Orange-Blue	switch	twobytwo	89.0	1.272	blue	7.0	cue_switch	color	stay	stim	poldrack-single-stim	s603	0	False
654.26	1.0	655.984	0.1	2.408	True	71.0	Orange-Blue	stay	twobytwo	71.0	1.624	orange	8.0	cue_stay	color	stay	stim	poldrack-single-stim	s603	0	False
657.574	1.0	659.364	0.9	2.0	True	71.0	Magnitude	n/a	twobytwo	71.0	0.89	orange	8.0	task_switch	magnitude	switch	stim	poldrack-single-stim	s603	0	False
660.481	1.0	662.683	0.9	2.0	True	89.0	High-Low	switch	twobytwo	89.0	1.302	orange	2.0	cue_switch	magnitude	stay	stim	poldrack-single-stim	s603	0	False
663.39	1.0	665.034	0.9	2.0	True	89.0	Magnitude	switch	twobytwo	89.0	0.744	blue	1.0	cue_switch	magnitude	stay	stim	poldrack-single-stim	s603	0	False
665.497	1.0	666.645	0.1	2.68	False	89.0	Orange-Blue	n/a	twobytwo	71.0	1.048	blue	4.0	task_switch	color	switch	stim	poldrack-single-stim	s603	0	False
668.284	1.0	669.592	0.1	2.272	True	71.0	Magnitude	n/a	twobytwo	71.0	1.208	blue	8.0	task_switch	magnitude	switch	stim	poldrack-single-stim	s603	0	False
671.465	1.0	673.411	0.9	2.408	False	71.0	Orange-Blue	n/a	twobytwo	89.0	1.046	orange	3.0	task_switch	color	switch	stim	poldrack-single-stim	s603	0	False
