onset	duration	movement_onset	EV	action	block_duration	experiment_exp_id	gain_amount	gain_probability	key_press	loss_amount	loss_probability	num_cards	num_click_in_round	num_loss_cards	risk	response_time	total_cards	trial_id	trial_type	worker_id	junk	feedback
3.015	7.111	10.126	-0.6063037488944747	draw_card	7.111	columbia_card_task_fmri	12.0	0.8333333333333334	89.0	-70.0	0.1666666666666666	6.0	1.0	1.0	-2.544862878054204	7.111	n/a	stim	poldrack-single-stim	s604	False	1
10.128	1.251	11.379	-3.3396370822278074	draw_card	1.251	columbia_card_task_fmri	12.0	0.8	89.0	-70.0	0.2	6.0	2.0	1.0	-0.3057140749170983	1.251	n/a	stim	poldrack-single-stim	s604	False	1
11.38	0.788	12.168	-7.439637082227809	draw_card	0.788	columbia_card_task_fmri	12.0	0.75	89.0	-70.0	0.25	6.0	3.0	1.0	2.40002169824448	0.788	3.0	stim	poldrack-single-stim	s604	False	0
12.924	1.5	12.173	n/a	-1.0	2.318	columbia_card_task_fmri	n/a	n/a	-1.0	n/a	n/a	n/a	n/a	n/a	n/a	n/a	n/a	ITI	poldrack-single-stim	s604	False	0
14.494	2.811	17.305	0.2270295844388592	draw_card	2.811	columbia_card_task_fmri	14.0	0.8333333333333334	89.0	-75.0	0.1666666666666666	6.0	1.0	1.0	0.0624373977618404	2.811	1.0	stim	poldrack-single-stim	s604	False	0
18.061	1.5	17.31	n/a	-1.0	2.318	columbia_card_task_fmri	n/a	n/a	-1.0	n/a	n/a	n/a	n/a	n/a	n/a	n/a	n/a	ITI	poldrack-single-stim	s604	False	0
19.63	1.016	20.646	1.8936962511055253	draw_card	1.016	columbia_card_task_fmri	15.0	0.8333333333333334	89.0	-70.0	0.1666666666666666	6.0	1.0	1.0	-1.427477606657142	1.016	n/a	stim	poldrack-single-stim	s604	False	1
20.647	0.682	21.329	-0.9396370822278086	draw_card	0.682	columbia_card_task_fmri	15.0	0.8	89.0	-70.0	0.2	6.0	2.0	1.0	0.8936814489412725	0.682	n/a	stim	poldrack-single-stim	s604	False	1
21.33	0.583	21.913	-5.189637082227809	draw_card	0.583	columbia_card_task_fmri	15.0	0.75	89.0	-70.0	0.25	6.0	3.0	1.0	3.698501350875127	0.583	n/a	stim	poldrack-single-stim	s604	False	1
21.914	0.845	22.759	-12.272970415561138	draw_card	0.845	columbia_card_task_fmri	15.0	0.6666666666666667	89.0	-70.0	0.3333333333333333	6.0	4.0	1.0	6.960562715442649	0.845	4.0	stim	poldrack-single-stim	s604	False	0
23.512	1.5	22.761	n/a	-1.0	2.862	columbia_card_task_fmri	n/a	n/a	-1.0	n/a	n/a	n/a	n/a	n/a	n/a	n/a	n/a	ITI	poldrack-single-stim	s604	False	0
25.625	1.703	27.328	2.727029584438859	draw_card	1.703	columbia_card_task_fmri	17.0	0.8333333333333334	89.0	-75.0	0.1666666666666666	6.0	1.0	1.0	1.1799190970904192	1.703	n/a	stim	poldrack-single-stim	s604	False	1
27.329	0.646	27.975	-0.3396370822278072	draw_card	0.646	columbia_card_task_fmri	17.0	0.8	89.0	-75.0	0.2	6.0	2.0	1.0	3.692424211895208	0.646	n/a	stim	poldrack-single-stim	s604	False	1
27.977	0.709	28.686	-4.939637082227809	draw_card	0.709	columbia_card_task_fmri	17.0	0.75	89.0	-75.0	0.25	6.0	3.0	1.0	6.728428763325731	0.709	3.0	stim	poldrack-single-stim	s604	False	0
29.443	1.5	28.692	n/a	-1.0	2.726	columbia_card_task_fmri	n/a	n/a	-1.0	n/a	n/a	n/a	n/a	n/a	n/a	n/a	n/a	ITI	poldrack-single-stim	s604	False	0
31.419	1.142	32.561	4.060362917772191	draw_card	1.142	columbia_card_task_fmri	24.0	0.75	89.0	-60.0	0.25	8.0	1.0	2.0	3.265670370665937	1.142	n/a	stim	poldrack-single-stim	s604	False	1
32.562	0.532	33.094	1.0603629177721914	draw_card	0.532	columbia_card_task_fmri	24.0	0.7142857142857143	89.0	-60.0	0.2857142857142857	8.0	2.0	2.0	4.839294522183742	0.532	n/a	stim	poldrack-single-stim	s604	False	1
33.095	0.388	33.483	-2.939637082227809	draw_card	0.388	columbia_card_task_fmri	24.0	0.6666666666666667	89.0	-60.0	0.3333333333333333	8.0	3.0	2.0	6.489325133094773	0.388	n/a	stim	poldrack-single-stim	s604	False	1
33.485	0.42	33.905	-8.53963708222781	draw_card	0.42	columbia_card_task_fmri	24.0	0.6	89.0	-60.0	0.4	8.0	4.0	2.0	8.042237400684726	0.42	4.0	stim	poldrack-single-stim	s604	False	0
34.659	1.5	33.908	n/a	-1.0	2.25	columbia_card_task_fmri	n/a	n/a	-1.0	n/a	n/a	n/a	n/a	n/a	n/a	n/a	n/a	ITI	poldrack-single-stim	s604	False	0
36.16	0.934	37.094	4.060362917772191	draw_card	0.934	columbia_card_task_fmri	29.0	0.75	89.0	-75.0	0.25	8.0	1.0	2.0	11.922953639536374	0.934	n/a	stim	poldrack-single-stim	s604	False	1
37.096	0.5	37.596	0.3460772034864796	draw_card	0.5	columbia_card_task_fmri	29.0	0.7142857142857143	89.0	-75.0	0.2857142857142857	8.0	2.0	2.0	13.8715259053168	0.5	n/a	stim	poldrack-single-stim	s604	False	1
37.597	0.386	37.983	-4.606303748894473	draw_card	0.386	columbia_card_task_fmri	29.0	0.6666666666666667	89.0	-75.0	0.3333333333333333	8.0	3.0	2.0	15.914686500633138	0.386	3.0	stim	poldrack-single-stim	s604	False	0
38.738	1.5	37.987	n/a	-1.0	2.318	columbia_card_task_fmri	n/a	n/a	-1.0	n/a	n/a	n/a	n/a	n/a	n/a	n/a	n/a	ITI	poldrack-single-stim	s604	False	0
40.307	1.177	41.484	-0.1618593044500282	draw_card	1.177	columbia_card_task_fmri	17.0	0.7777777777777778	89.0	-65.0	0.2222222222222222	9.0	1.0	2.0	0.984293700926635	1.177	n/a	stim	poldrack-single-stim	s604	False	1
41.485	0.409	41.894	-2.439637082227809	draw_card	0.409	columbia_card_task_fmri	17.0	0.75	89.0	-65.0	0.25	9.0	2.0	2.0	2.40002169824448	0.409	2.0	stim	poldrack-single-stim	s604	False	0
42.648	1.5	41.897	n/a	-1.0	2.454	columbia_card_task_fmri	n/a	n/a	-1.0	n/a	n/a	n/a	n/a	n/a	n/a	n/a	n/a	ITI	poldrack-single-stim	s604	False	0
44.353	1.743	46.096	4.160362917772191	draw_card	1.743	columbia_card_task_fmri	14.0	0.9	89.0	-95.0	0.1	10.0	1.0	1.0	-0.4056617008645986	1.743	n/a	stim	poldrack-single-stim	s604	False	1
46.097	1.051	47.148	2.9492518066610787	draw_card	1.051	columbia_card_task_fmri	14.0	0.8888888888888888	89.0	-95.0	0.1111111111111111	10.0	2.0	1.0	1.1489534380986797	1.051	n/a	stim	poldrack-single-stim	s604	False	1
47.149	1.283	48.432	1.4353629177721914	draw_card	1.283	columbia_card_task_fmri	14.0	0.875	89.0	-95.0	0.125	10.0	3.0	1.0	2.9411041559542923	1.283	n/a	stim	poldrack-single-stim	s604	False	1
48.433	1.18	49.613	-0.5110656536563798	end_round	1.18	columbia_card_task_fmri	14.0	0.8571428571428572	71.0	-95.0	0.1428571428571428	10.0	4.0	1.0	5.033941577592323	1.18	3.0	stim	poldrack-single-stim	s604	False	1
50.369	1.5	49.618	n/a	-1.0	2.522	columbia_card_task_fmri	n/a	n/a	-1.0	n/a	n/a	n/a	n/a	n/a	n/a	n/a	n/a	ITI	poldrack-single-stim	s604	False	0
52.142	1.311	53.453	0.0603629177721913	draw_card	1.311	columbia_card_task_fmri	15.0	0.8	89.0	-65.0	0.2	10.0	1.0	2.0	-1.1052859244632316	1.311	1.0	stim	poldrack-single-stim	s604	False	0
54.206	1.5	53.455	n/a	-1.0	2.318	columbia_card_task_fmri	n/a	n/a	-1.0	n/a	n/a	n/a	n/a	n/a	n/a	n/a	n/a	ITI	poldrack-single-stim	s604	False	0
55.775	1.078	56.853	1.6603629177721928	draw_card	1.078	columbia_card_task_fmri	17.0	0.8	89.0	-65.0	0.2	10.0	1.0	2.0	-0.3057140749170983	1.078	n/a	stim	poldrack-single-stim	s604	False	1
56.855	0.751	57.606	-0.1618593044500282	draw_card	0.751	columbia_card_task_fmri	17.0	0.7777777777777778	89.0	-65.0	0.2222222222222222	10.0	2.0	2.0	0.984293700926635	0.751	n/a	stim	poldrack-single-stim	s604	False	1
57.607	0.624	58.231	-2.439637082227809	draw_card	0.624	columbia_card_task_fmri	17.0	0.75	89.0	-65.0	0.25	10.0	3.0	2.0	2.40002169824448	0.624	n/a	stim	poldrack-single-stim	s604	False	1
58.232	2.403	60.635	-5.368208510799236	draw_card	2.403	columbia_card_task_fmri	17.0	0.7142857142857143	89.0	-65.0	0.2857142857142857	10.0	4.0	2.0	3.936147740889993	2.403	n/a	stim	poldrack-single-stim	s604	False	1
60.636	1.546	62.182	-9.272970415561138	end_round	1.546	columbia_card_task_fmri	17.0	0.6666666666666667	71.0	-65.0	0.3333333333333333	10.0	5.0	2.0	5.546862176653768	1.546	4.0	stim	poldrack-single-stim	s604	False	1
62.935	1.5	62.184	n/a	-1.0	2.522	columbia_card_task_fmri	n/a	n/a	-1.0	n/a	n/a	n/a	n/a	n/a	n/a	n/a	n/a	ITI	poldrack-single-stim	s604	False	0
64.708	1.281	65.989	0.2270295844388592	draw_card	1.281	columbia_card_task_fmri	13.0	0.8333333333333334	89.0	-70.0	0.1666666666666666	12.0	1.0	2.0	-2.172406326932922	1.281	n/a	stim	poldrack-single-stim	s604	False	1
65.99	0.649	66.639	-1.030546173136902	draw_card	0.649	columbia_card_task_fmri	13.0	0.8181818181818181	89.0	-70.0	0.1818181818181818	12.0	2.0	2.0	-1.0926404049598943	0.649	n/a	stim	poldrack-single-stim	s604	False	1
66.641	0.616	67.257	-2.5396370822278085	draw_card	0.616	columbia_card_task_fmri	13.0	0.8	89.0	-70.0	0.2	12.0	3.0	2.0	0.0940795815026902	0.616	n/a	stim	poldrack-single-stim	s604	False	1
67.258	1.35	68.608	-4.3840815266722535	draw_card	1.35	columbia_card_task_fmri	13.0	0.7777777777777778	89.0	-70.0	0.2222222222222222	12.0	4.0	2.0	1.399834867647563	1.35	n/a	stim	poldrack-single-stim	s604	False	1
68.609	1.323	69.932	-6.689637082227809	draw_card	1.323	columbia_card_task_fmri	13.0	0.75	89.0	-70.0	0.25	12.0	5.0	2.0	2.8328437664697432	1.323	n/a	stim	poldrack-single-stim	s604	False	1
69.933	1.626	71.559	-9.65392279651352	draw_card	1.626	columbia_card_task_fmri	13.0	0.7142857142857143	89.0	-70.0	0.2857142857142857	12.0	6.0	2.0	4.387718957409476	1.626	6.0	stim	poldrack-single-stim	s604	False	0
72.314	1.5	71.563	n/a	-1.0	2.998	columbia_card_task_fmri	n/a	n/a	-1.0	n/a	n/a	n/a	n/a	n/a	n/a	n/a	n/a	ITI	poldrack-single-stim	s604	False	0
74.563	1.044	75.607	0.2270295844388592	draw_card	1.044	columbia_card_task_fmri	15.0	0.8333333333333334	89.0	-80.0	0.1666666666666666	12.0	1.0	2.0	2.2974356536278577	1.044	n/a	stim	poldrack-single-stim	s604	False	1
75.609	0.436	76.045	-1.2123643549550838	draw_card	0.436	columbia_card_task_fmri	15.0	0.8181818181818181	89.0	-80.0	0.1818181818181818	12.0	2.0	2.0	3.5334782199740005	0.436	n/a	stim	poldrack-single-stim	s604	False	1
76.047	0.52	76.567	-2.939637082227809	draw_card	0.52	columbia_card_task_fmri	15.0	0.8	89.0	-80.0	0.2	12.0	3.0	2.0	4.891942078724206	0.52	n/a	stim	poldrack-single-stim	s604	False	1
76.569	2.938	79.507	-5.050748193338921	draw_card	2.938	columbia_card_task_fmri	15.0	0.7777777777777778	89.0	-80.0	0.2222222222222222	12.0	4.0	2.0	6.386654702757006	2.938	4.0	stim	poldrack-single-stim	s604	False	0
80.263	1.5	79.512	n/a	-1.0	2.318	columbia_card_task_fmri	n/a	n/a	-1.0	n/a	n/a	n/a	n/a	n/a	n/a	n/a	n/a	ITI	poldrack-single-stim	s604	False	0
81.834	1.307	83.141	-0.7396370822278076	draw_card	1.307	columbia_card_task_fmri	14.0	0.8	89.0	-65.0	0.2	15.0	1.0	3.0	-1.5050637265434013	1.307	n/a	stim	poldrack-single-stim	s604	False	1
83.143	0.571	83.714	-1.868208510799236	draw_card	0.571	columbia_card_task_fmri	14.0	0.7857142857142857	89.0	-65.0	0.2142857142857142	15.0	2.0	3.0	-0.6897646997591451	0.571	2.0	stim	poldrack-single-stim	s604	False	0
84.47	1.5	83.719	n/a	-1.0	2.25	columbia_card_task_fmri	n/a	n/a	-1.0	n/a	n/a	n/a	n/a	n/a	n/a	n/a	n/a	ITI	poldrack-single-stim	s604	False	0
85.971	1.779	87.75	-0.8146370822278086	end_round	1.779	columbia_card_task_fmri	1.0	0.9375	71.0	-45.0	0.0625	16.0	1.0	1.0	-21.9376473453253	1.779	0.0	stim	poldrack-single-stim	s604	False	1
88.506	1.5	87.755	n/a	-1.0	2.454	columbia_card_task_fmri	n/a	n/a	-1.0	n/a	n/a	n/a	n/a	n/a	n/a	n/a	n/a	ITI	poldrack-single-stim	s604	False	0
90.211	0.855	91.066	0.1228629177721913	draw_card	0.855	columbia_card_task_fmri	15.0	0.8125	89.0	-70.0	0.1875	16.0	1.0	3.0	0.0706434067411194	0.855	n/a	stim	poldrack-single-stim	s604	False	1
91.068	0.482	91.55	-0.9396370822278086	draw_card	0.482	columbia_card_task_fmri	15.0	0.8	89.0	-70.0	0.2	16.0	2.0	3.0	0.8936814489412725	0.482	n/a	stim	poldrack-single-stim	s604	False	1
91.552	0.576	92.128	-2.153922796513524	draw_card	0.576	columbia_card_task_fmri	15.0	0.7857142857142857	89.0	-70.0	0.2142857142857142	16.0	3.0	3.0	1.770967425732671	0.576	3.0	stim	poldrack-single-stim	s604	False	0
92.881	1.5	92.13	n/a	-1.0	2.318	columbia_card_task_fmri	n/a	n/a	-1.0	n/a	n/a	n/a	n/a	n/a	n/a	n/a	n/a	ITI	poldrack-single-stim	s604	False	0
94.451	1.267	95.718	7.060362917772191	draw_card	1.267	columbia_card_task_fmri	30.0	0.7	89.0	-50.0	0.3	10.0	1.0	3.0	3.5530878220076616	1.267	n/a	stim	poldrack-single-stim	s604	False	1
95.719	0.454	96.173	4.39369625110553	draw_card	0.454	columbia_card_task_fmri	30.0	0.6666666666666667	89.0	-50.0	0.3333333333333333	10.0	2.0	3.0	4.6044165144629545	0.454	n/a	stim	poldrack-single-stim	s604	False	1
96.175	0.802	96.977	1.0603629177721914	draw_card	0.802	columbia_card_task_fmri	30.0	0.625	89.0	-50.0	0.375	10.0	3.0	3.0	5.621496912754004	0.802	3.0	stim	poldrack-single-stim	s604	False	0
97.73	1.5	96.979	n/a	-1.0	2.318	columbia_card_task_fmri	n/a	n/a	-1.0	n/a	n/a	n/a	n/a	n/a	n/a	n/a	n/a	ITI	poldrack-single-stim	s604	False	0
99.3	0.788	100.088	6.460362917772192	draw_card	0.788	columbia_card_task_fmri	17.0	0.8666666666666667	89.0	-70.0	0.1333333333333333	15.0	1.0	2.0	-3.5295330801858142	0.788	n/a	stim	poldrack-single-stim	s604	False	1
100.089	0.426	100.515	5.631791489200764	draw_card	0.426	columbia_card_task_fmri	17.0	0.8571428571428572	89.0	-70.0	0.1428571428571428	15.0	2.0	2.0	-2.6607303441466748	0.426	n/a	stim	poldrack-single-stim	s604	False	1
100.516	0.604	101.12	4.675747533156806	draw_card	0.604	columbia_card_task_fmri	17.0	0.8461538461538461	89.0	-70.0	0.1538461538461538	15.0	3.0	2.0	-1.7152391701376963	0.604	n/a	stim	poldrack-single-stim	s604	False	1
101.121	0.535	101.656	3.560362917772193	draw_card	0.535	columbia_card_task_fmri	17.0	0.8333333333333334	89.0	-70.0	0.1666666666666666	15.0	4.0	2.0	-0.6825292578001978	0.535	n/a	stim	poldrack-single-stim	s604	False	1
101.658	0.712	102.37	2.242181099590371	draw_card	0.712	columbia_card_task_fmri	17.0	0.8181818181818181	89.0	-70.0	0.1818181818181818	15.0	5.0	2.0	0.4493312430027103	0.712	n/a	stim	poldrack-single-stim	s604	False	1
102.372	2.118	104.49	0.6603629177721928	draw_card	2.118	columbia_card_task_fmri	17.0	0.8	89.0	-70.0	0.2	15.0	6.0	2.0	1.6933016082857009	2.118	n/a	stim	poldrack-single-stim	s604	False	1
104.492	1.283	105.775	-1.2729704155611408	end_round	1.283	columbia_card_task_fmri	17.0	0.7777777777777778	71.0	-70.0	0.2222222222222222	15.0	7.0	2.0	3.0620451461156577	1.283	6.0	stim	poldrack-single-stim	s604	False	1
106.53	1.5	105.779	n/a	-1.0	2.59	columbia_card_task_fmri	n/a	n/a	-1.0	n/a	n/a	n/a	n/a	n/a	n/a	n/a	n/a	ITI	poldrack-single-stim	s604	False	0
108.371	1.409	109.78	1.6853629177721914	draw_card	1.409	columbia_card_task_fmri	7.0	0.9375	89.0	-95.0	0.0625	16.0	1.0	1.0	-8.409821548433388	1.409	n/a	stim	poldrack-single-stim	s604	False	1
109.781	1.977	111.758	1.2603629177721916	end_round	1.977	columbia_card_task_fmri	7.0	0.9333333333333332	71.0	-95.0	0.0666666666666666	16.0	2.0	1.0	-7.65749311690373	1.977	1.0	stim	poldrack-single-stim	s604	False	1
112.513	1.5	111.762	n/a	-1.0	2.25	columbia_card_task_fmri	n/a	n/a	-1.0	n/a	n/a	n/a	n/a	n/a	n/a	n/a	n/a	ITI	poldrack-single-stim	s604	False	0
114.015	1.662	115.677	3.247862917772191	draw_card	1.662	columbia_card_task_fmri	9.0	0.9375	89.0	-100.0	0.0625	16.0	1.0	1.0	-6.71685170220519	1.662	n/a	stim	poldrack-single-stim	s604	False	1
115.679	0.474	116.153	2.793696251105525	draw_card	0.474	columbia_card_task_fmri	9.0	0.9333333333333332	89.0	-100.0	0.0666666666666666	16.0	2.0	1.0	-5.912803591087073	0.474	n/a	stim	poldrack-single-stim	s604	False	1
116.155	0.98	117.135	2.2746486320579065	end_round	0.98	columbia_card_task_fmri	9.0	0.9285714285714286	71.0	-100.0	0.0714285714285714	16.0	3.0	1.0	-5.031037764874853	0.98	2.0	stim	poldrack-single-stim	s604	False	1
117.889	1.5	117.138	n/a	-1.0	2.25	columbia_card_task_fmri	n/a	n/a	-1.0	n/a	n/a	n/a	n/a	n/a	n/a	n/a	n/a	ITI	poldrack-single-stim	s604	False	0
119.391	0.906	120.297	4.185362917772191	draw_card	0.906	columbia_card_task_fmri	15.0	0.875	89.0	-80.0	0.125	16.0	1.0	2.0	-1.686664105267777	0.906	n/a	stim	poldrack-single-stim	s604	False	1
120.298	0.638	120.936	3.393696251105525	draw_card	0.638	columbia_card_task_fmri	15.0	0.8666666666666667	89.0	-80.0	0.1333333333333333	16.0	2.0	2.0	-0.811655367409891	0.638	n/a	stim	poldrack-single-stim	s604	False	1
120.938	0.72	121.658	2.4889343463436218	draw_card	0.72	columbia_card_task_fmri	15.0	0.8571428571428572	89.0	-80.0	0.1428571428571428	16.0	3.0	2.0	0.1371327374033981	0.72	3.0	stim	poldrack-single-stim	s604	False	0
122.412	1.5	121.661	n/a	-1.0	2.522	columbia_card_task_fmri	n/a	n/a	-1.0	n/a	n/a	n/a	n/a	n/a	n/a	n/a	n/a	ITI	poldrack-single-stim	s604	False	0
124.185	0.846	125.031	6.310362917772191	draw_card	0.846	columbia_card_task_fmri	16.0	0.875	89.0	-70.0	0.125	16.0	1.0	2.0	-4.661263520865386	0.846	n/a	stim	poldrack-single-stim	s604	False	1
125.033	0.351	125.384	5.593696251105524	draw_card	0.351	columbia_card_task_fmri	16.0	0.8666666666666667	89.0	-70.0	0.1333333333333333	16.0	2.0	2.0	-3.869246892296896	0.351	n/a	stim	poldrack-single-stim	s604	False	1
125.386	0.817	126.203	4.7746486320579065	draw_card	0.817	columbia_card_task_fmri	16.0	0.8571428571428572	89.0	-70.0	0.1428571428571428	16.0	3.0	2.0	-3.0104429221313893	0.817	n/a	stim	poldrack-single-stim	s604	False	1
126.204	0.757	126.961	3.82959368700296	draw_card	0.757	columbia_card_task_fmri	16.0	0.8461538461538461	89.0	-70.0	0.1538461538461538	16.0	4.0	2.0	-2.0758323085611643	0.757	4.0	stim	poldrack-single-stim	s604	False	0
127.716	1.5	126.965	n/a	-1.0	2.454	columbia_card_task_fmri	n/a	n/a	-1.0	n/a	n/a	n/a	n/a	n/a	n/a	n/a	n/a	ITI	poldrack-single-stim	s604	False	0
129.423	0.775	130.198	7.622862917772191	draw_card	0.775	columbia_card_task_fmri	30.0	0.6875	89.0	-45.0	0.3125	16.0	1.0	5.0	1.6567489987763082	0.775	1.0	stim	poldrack-single-stim	s604	False	0
130.956	1.5	130.205	n/a	-1.0	2.25	columbia_card_task_fmri	n/a	n/a	-1.0	n/a	n/a	n/a	n/a	n/a	n/a	n/a	n/a	ITI	poldrack-single-stim	s604	False	0
132.457	1.293	133.75	-0.6063037488944747	draw_card	1.293	columbia_card_task_fmri	13.0	0.8333333333333334	89.0	-75.0	0.1666666666666666	6.0	1.0	1.0	-0.3100481404279804	1.293	n/a	stim	poldrack-single-stim	s604	False	1
133.752	1.841	135.593	-3.5396370822278085	draw_card	1.841	columbia_card_task_fmri	13.0	0.8	89.0	-75.0	0.2	6.0	2.0	1.0	2.0931181580431044	1.841	2.0	stim	poldrack-single-stim	s604	False	0
136.346	1.5	135.595	n/a	-1.0	2.454	columbia_card_task_fmri	n/a	n/a	-1.0	n/a	n/a	n/a	n/a	n/a	n/a	n/a	n/a	ITI	poldrack-single-stim	s604	False	0
138.052	1.025	139.077	1.0603629177721932	draw_card	1.025	columbia_card_task_fmri	14.0	0.8333333333333334	89.0	-70.0	0.1666666666666666	6.0	1.0	1.0	-1.7999445078957097	1.025	n/a	stim	poldrack-single-stim	s604	False	1
139.08	1.67	140.75	-1.7396370822278076	draw_card	1.67	columbia_card_task_fmri	14.0	0.8	89.0	-70.0	0.2	6.0	2.0	1.0	0.4938781471540139	1.67	n/a	stim	poldrack-single-stim	s604	False	1
140.751	0.763	141.514	-5.939637082227809	end_round	0.763	columbia_card_task_fmri	14.0	0.75	71.0	-70.0	0.25	6.0	3.0	1.0	3.265670370665937	0.763	2.0	stim	poldrack-single-stim	s604	False	1
142.271	1.5	141.52	n/a	-1.0	2.454	columbia_card_task_fmri	n/a	n/a	-1.0	n/a	n/a	n/a	n/a	n/a	n/a	n/a	n/a	ITI	poldrack-single-stim	s604	False	0
143.977	0.992	144.969	1.0603629177721932	draw_card	0.992	columbia_card_task_fmri	16.0	0.8333333333333334	89.0	-80.0	0.1666666666666666	6.0	1.0	1.0	2.669948354216338	0.992	n/a	stim	poldrack-single-stim	s604	False	1
144.97	1.187	146.157	-2.139637082227808	draw_card	1.187	columbia_card_task_fmri	16.0	0.8	89.0	-80.0	0.2	6.0	2.0	1.0	5.291788060065585	1.187	2.0	stim	poldrack-single-stim	s604	False	0
146.913	1.5	146.162	n/a	-1.0	2.522	columbia_card_task_fmri	n/a	n/a	-1.0	n/a	n/a	n/a	n/a	n/a	n/a	n/a	n/a	ITI	poldrack-single-stim	s604	False	0
148.687	0.754	149.441	3.560362917772193	draw_card	0.754	columbia_card_task_fmri	17.0	0.8333333333333334	89.0	-70.0	0.1666666666666666	6.0	1.0	1.0	-0.6825292578001978	0.754	n/a	stim	poldrack-single-stim	s604	False	1
149.443	0.636	150.079	0.6603629177721928	draw_card	0.636	columbia_card_task_fmri	17.0	0.8	89.0	-70.0	0.2	6.0	2.0	1.0	1.6933016082857009	0.636	n/a	stim	poldrack-single-stim	s604	False	1
150.081	1.132	151.213	-3.689637082227809	end_round	1.132	columbia_card_task_fmri	17.0	0.75	71.0	-70.0	0.25	6.0	3.0	1.0	4.564175836235158	1.132	2.0	stim	poldrack-single-stim	s604	False	1
151.97	1.5	151.219	n/a	-1.0	2.454	columbia_card_task_fmri	n/a	n/a	-1.0	n/a	n/a	n/a	n/a	n/a	n/a	n/a	n/a	ITI	poldrack-single-stim	s604	False	0
153.675	0.831	154.506	3.560362917772191	draw_card	0.831	columbia_card_task_fmri	25.0	0.75	89.0	-65.0	0.25	8.0	1.0	2.0	5.8627167907468944	0.831	n/a	stim	poldrack-single-stim	s604	False	1
154.507	0.442	154.949	0.3460772034864796	draw_card	0.442	columbia_card_task_fmri	25.0	0.7142857142857143	89.0	-65.0	0.2857142857142857	8.0	2.0	2.0	7.548831113303628	0.442	2.0	stim	poldrack-single-stim	s604	False	0
155.705	1.5	154.954	n/a	-1.0	2.658	columbia_card_task_fmri	n/a	n/a	-1.0	n/a	n/a	n/a	n/a	n/a	n/a	n/a	n/a	ITI	poldrack-single-stim	s604	False	0
157.615	0.928	158.543	3.560362917772191	draw_card	0.928	columbia_card_task_fmri	30.0	0.75	89.0	-80.0	0.25	8.0	1.0	2.0	14.52034918688836	0.928	n/a	stim	poldrack-single-stim	s604	False	1
158.546	0.429	158.975	-0.3682085107992321	draw_card	0.429	columbia_card_task_fmri	30.0	0.7142857142857143	89.0	-80.0	0.2857142857142857	8.0	2.0	2.0	16.581397166881672	0.429	2.0	stim	poldrack-single-stim	s604	False	0
159.732	1.5	158.981	n/a	-1.0	2.386	columbia_card_task_fmri	n/a	n/a	-1.0	n/a	n/a	n/a	n/a	n/a	n/a	n/a	n/a	ITI	poldrack-single-stim	s604	False	0
161.369	1.284	162.653	3.260362917772192	draw_card	1.284	columbia_card_task_fmri	13.0	0.9	89.0	-95.0	0.1	10.0	1.0	1.0	-0.7055026404730071	1.284	1.0	stim	poldrack-single-stim	s604	False	0
163.409	1.5	162.658	n/a	-1.0	2.522	columbia_card_task_fmri	n/a	n/a	-1.0	n/a	n/a	n/a	n/a	n/a	n/a	n/a	n/a	ITI	poldrack-single-stim	s604	False	0
165.183	1.26	166.443	4.660362917772191	draw_card	1.26	columbia_card_task_fmri	14.0	0.9	89.0	-90.0	0.1	10.0	1.0	1.0	-1.9048358361095372	1.26	n/a	stim	poldrack-single-stim	s604	False	1
166.445	0.999	167.444	3.504807362216634	end_round	0.999	columbia_card_task_fmri	14.0	0.8888888888888888	71.0	-90.0	0.1111111111111111	10.0	2.0	1.0	-0.4216065410502736	0.999	1.0	stim	poldrack-single-stim	s604	False	1
168.2	1.5	167.449	n/a	-1.0	2.59	columbia_card_task_fmri	n/a	n/a	-1.0	n/a	n/a	n/a	n/a	n/a	n/a	n/a	n/a	ITI	poldrack-single-stim	s604	False	0
170.041	0.802	170.843	-0.1396370822278079	draw_card	0.802	columbia_card_task_fmri	16.0	0.8	89.0	-70.0	0.2	10.0	1.0	2.0	1.2934893218100711	0.802	n/a	stim	poldrack-single-stim	s604	False	1
170.846	0.491	171.337	-2.05074819333892	draw_card	0.491	columbia_card_task_fmri	16.0	0.7777777777777778	89.0	-70.0	0.2222222222222222	10.0	2.0	2.0	2.6464860526965523	0.491	n/a	stim	poldrack-single-stim	s604	False	1
171.339	0.867	172.206	-4.439637082227809	draw_card	0.867	columbia_card_task_fmri	16.0	0.75	89.0	-70.0	0.25	10.0	3.0	2.0	4.131336554571583	0.867	3.0	stim	poldrack-single-stim	s604	False	0
172.963	1.5	172.212	n/a	-1.0	2.386	columbia_card_task_fmri	n/a	n/a	-1.0	n/a	n/a	n/a	n/a	n/a	n/a	n/a	n/a	ITI	poldrack-single-stim	s604	False	0
174.601	1.764	176.365	-0.8563037488944747	end_round	1.764	columbia_card_task_fmri	7.0	0.9166666666666666	71.0	-100.0	0.0833333333333333	12.0	1.0	1.0	-3.5306078543951323	1.764	0.0	stim	poldrack-single-stim	s604	False	1
177.122	1.5	176.371	n/a	-1.0	2.59	columbia_card_task_fmri	n/a	n/a	-1.0	n/a	n/a	n/a	n/a	n/a	n/a	n/a	n/a	ITI	poldrack-single-stim	s604	False	0
178.964	3.12	182.084	-0.6063037488944729	draw_card	3.12	columbia_card_task_fmri	14.0	0.8333333333333334	89.0	-80.0	0.1666666666666666	12.0	1.0	2.0	1.9249264675789632	3.12	n/a	stim	poldrack-single-stim	s604	False	1
182.086	0.722	182.808	-2.0305461731369023	draw_card	0.722	columbia_card_task_fmri	14.0	0.8181818181818181	89.0	-80.0	0.1818181818181818	12.0	2.0	2.0	3.147946732519074	0.722	n/a	stim	poldrack-single-stim	s604	False	1
182.81	0.733	183.543	-3.739637082227808	draw_card	0.733	columbia_card_task_fmri	14.0	0.8	89.0	-80.0	0.2	12.0	3.0	2.0	4.4920993724427305	0.733	n/a	stim	poldrack-single-stim	s604	False	1
183.545	3.937	187.482	-5.828525971116698	draw_card	3.937	columbia_card_task_fmri	14.0	0.7777777777777778	89.0	-80.0	0.2222222222222222	12.0	4.0	2.0	5.971066338398849	3.937	n/a	stim	poldrack-single-stim	s604	False	1
187.484	0.697	188.181	-8.439637082227808	end_round	0.697	columbia_card_task_fmri	14.0	0.75	71.0	-80.0	0.25	12.0	5.0	2.0	7.594154066468626	0.697	4.0	stim	poldrack-single-stim	s604	False	1
188.934	1.5	188.183	n/a	-1.0	2.318	columbia_card_task_fmri	n/a	n/a	-1.0	n/a	n/a	n/a	n/a	n/a	n/a	n/a	n/a	ITI	poldrack-single-stim	s604	False	0
190.506	0.926	191.432	1.0603629177721914	draw_card	0.926	columbia_card_task_fmri	15.0	0.8333333333333334	89.0	-75.0	0.1666666666666666	12.0	1.0	2.0	0.4349272095583174	0.926	n/a	stim	poldrack-single-stim	s604	False	1
191.435	1.195	192.63	-0.3032734458641737	draw_card	1.195	columbia_card_task_fmri	15.0	0.8181818181818181	89.0	-75.0	0.1818181818181818	12.0	2.0	2.0	1.6058570071482592	1.195	2.0	stim	poldrack-single-stim	s604	False	0
193.387	1.5	192.636	n/a	-1.0	2.25	columbia_card_task_fmri	n/a	n/a	-1.0	n/a	n/a	n/a	n/a	n/a	n/a	n/a	n/a	ITI	poldrack-single-stim	s604	False	0
194.889	1.242	196.131	0.0603629177721913	draw_card	1.242	columbia_card_task_fmri	15.0	0.8	89.0	-65.0	0.2	15.0	1.0	3.0	-1.1052859244632316	1.242	n/a	stim	poldrack-single-stim	s604	False	1
196.133	0.443	196.576	-1.082494225084951	draw_card	0.443	columbia_card_task_fmri	15.0	0.7857142857142857	89.0	-65.0	0.2142857142857142	15.0	2.0	3.0	-0.2796554116848426	0.443	2.0	stim	poldrack-single-stim	s604	False	0
197.331	1.5	196.58	n/a	-1.0	2.454	columbia_card_task_fmri	n/a	n/a	-1.0	n/a	n/a	n/a	n/a	n/a	n/a	n/a	n/a	ITI	poldrack-single-stim	s604	False	0
199.038	0.79	199.828	-0.6896370822278086	draw_card	0.79	columbia_card_task_fmri	14.0	0.8125	89.0	-70.0	0.1875	16.0	1.0	3.0	-0.3194673953315501	0.79	n/a	stim	poldrack-single-stim	s604	False	1
199.83	0.39	200.22	-1.7396370822278076	draw_card	0.39	columbia_card_task_fmri	14.0	0.8	89.0	-70.0	0.2	16.0	2.0	3.0	0.4938781471540139	0.39	n/a	stim	poldrack-single-stim	s604	False	1
200.223	0.438	200.661	-2.939637082227809	draw_card	0.438	columbia_card_task_fmri	14.0	0.7857142857142857	89.0	-70.0	0.2142857142857142	16.0	3.0	3.0	1.360833277714292	0.438	3.0	stim	poldrack-single-stim	s604	False	0
201.418	1.5	200.667	n/a	-1.0	3.27	columbia_card_task_fmri	n/a	n/a	-1.0	n/a	n/a	n/a	n/a	n/a	n/a	n/a	n/a	ITI	poldrack-single-stim	s604	False	0
203.939	1.063	205.002	-0.7521370822278086	draw_card	1.063	columbia_card_task_fmri	11.0	0.6875	89.0	-30.0	0.3125	16.0	1.0	5.0	-14.089281313714324	1.063	n/a	stim	poldrack-single-stim	s604	False	1
205.005	0.588	205.593	-1.6063037488944747	draw_card	0.588	columbia_card_task_fmri	11.0	0.6666666666666667	89.0	-30.0	0.3333333333333333	16.0	2.0	5.0	-13.76619871051136	0.588	2.0	stim	poldrack-single-stim	s604	False	0
206.347	1.5	205.596	n/a	-1.0	2.25	columbia_card_task_fmri	n/a	n/a	-1.0	n/a	n/a	n/a	n/a	n/a	n/a	n/a	n/a	ITI	poldrack-single-stim	s604	False	0
207.849	1.676	209.525	4.060362917772191	draw_card	1.676	columbia_card_task_fmri	15.0	0.8666666666666667	89.0	-75.0	0.1333333333333333	15.0	1.0	2.0	-2.5103622281135785	1.676	n/a	stim	poldrack-single-stim	s604	False	1
209.527	0.413	209.94	3.2032200606293357	draw_card	0.413	columbia_card_task_fmri	15.0	0.8571428571428572	89.0	-75.0	0.1428571428571428	15.0	2.0	2.0	-1.6115640313914632	0.413	n/a	stim	poldrack-single-stim	s604	False	1
209.942	0.678	210.62	2.2142090716183445	draw_card	0.678	columbia_card_task_fmri	15.0	0.8461538461538461	89.0	-75.0	0.1538461538461538	15.0	3.0	2.0	-0.6334320344479494	0.678	n/a	stim	poldrack-single-stim	s604	False	1
210.622	0.902	211.524	1.0603629177721914	draw_card	0.902	columbia_card_task_fmri	15.0	0.8333333333333334	89.0	-75.0	0.1666666666666666	15.0	4.0	2.0	0.4349272095583174	0.902	n/a	stim	poldrack-single-stim	s604	False	1
211.526	0.938	212.464	-0.3032734458641737	draw_card	0.938	columbia_card_task_fmri	15.0	0.8181818181818181	89.0	-75.0	0.1818181818181818	15.0	5.0	2.0	1.6058570071482592	0.938	n/a	stim	poldrack-single-stim	s604	False	1
212.466	1.221	213.687	-1.9396370822278088	draw_card	1.221	columbia_card_task_fmri	15.0	0.8	89.0	-75.0	0.2	15.0	6.0	2.0	2.892763479471114	1.221	n/a	stim	poldrack-single-stim	s604	False	1
213.689	2.937	216.626	-3.939637082227807	draw_card	2.937	columbia_card_task_fmri	15.0	0.7777777777777778	89.0	-75.0	0.2222222222222222	15.0	7.0	2.0	4.308746493649998	2.937	n/a	stim	poldrack-single-stim	s604	False	1
216.629	4.599	221.228	-6.439637082227809	end_round	4.599	columbia_card_task_fmri	15.0	0.75	71.0	-75.0	0.25	15.0	8.0	2.0	5.8627167907468944	4.599	7.0	stim	poldrack-single-stim	s604	False	1
221.985	1.5	221.234	n/a	-1.0	2.25	columbia_card_task_fmri	n/a	n/a	-1.0	n/a	n/a	n/a	n/a	n/a	n/a	n/a	n/a	ITI	poldrack-single-stim	s604	False	0
223.487	1.256	224.743	5.793696251105525	draw_card	1.256	columbia_card_task_fmri	17.0	0.8666666666666667	89.0	-75.0	0.1333333333333333	15.0	1.0	2.0	-1.830892077060177	1.256	n/a	stim	poldrack-single-stim	s604	False	1
224.745	0.533	225.278	4.917505774915051	draw_card	0.533	columbia_card_task_fmri	17.0	0.8571428571428572	89.0	-75.0	0.1428571428571428	15.0	2.0	2.0	-0.9120975586701334	0.533	n/a	stim	poldrack-single-stim	s604	False	1
225.28	0.467	225.747	3.906516763926038	draw_card	0.467	columbia_card_task_fmri	17.0	0.8461538461538461	89.0	-75.0	0.1538461538461538	15.0	3.0	2.0	0.0877943180766038	0.467	n/a	stim	poldrack-single-stim	s604	False	1
225.75	0.659	226.409	2.727029584438859	draw_card	0.659	columbia_card_task_fmri	17.0	0.8333333333333334	89.0	-75.0	0.1666666666666666	15.0	4.0	2.0	1.1799190970904192	0.659	n/a	stim	poldrack-single-stim	s604	False	1
226.411	0.776	227.187	1.333090190499463	draw_card	0.776	columbia_card_task_fmri	17.0	0.8181818181818181	89.0	-75.0	0.1818181818181818	15.0	5.0	2.0	2.376894388906649	0.776	n/a	stim	poldrack-single-stim	s604	False	1
227.189	2.264	229.453	-0.3396370822278072	end_round	2.264	columbia_card_task_fmri	17.0	0.8	71.0	-75.0	0.2	15.0	6.0	2.0	3.692424211895208	2.264	5.0	stim	poldrack-single-stim	s604	False	1
230.211	1.5	229.46	n/a	-1.0	2.318	columbia_card_task_fmri	n/a	n/a	-1.0	n/a	n/a	n/a	n/a	n/a	n/a	n/a	n/a	ITI	poldrack-single-stim	s604	False	0
231.782	8.448	240.23	1.3728629177721914	end_round	8.448	columbia_card_task_fmri	2.0	0.9375	71.0	-25.0	0.0625	16.0	1.0	1.0	-26.501730645938924	8.448	0.0	stim	poldrack-single-stim	s604	False	1
240.986	1.5	240.235	n/a	-1.0	2.726	columbia_card_task_fmri	n/a	n/a	-1.0	n/a	n/a	n/a	n/a	n/a	n/a	n/a	n/a	ITI	poldrack-single-stim	s604	False	0
242.965	3.141	246.106	3.560362917772191	end_round	3.141	columbia_card_task_fmri	9.0	0.9375	71.0	-95.0	0.0625	16.0	1.0	1.0	-7.926135911662964	3.141	0.0	stim	poldrack-single-stim	s604	False	1
246.862	1.5	246.111	n/a	-1.0	2.386	columbia_card_task_fmri	n/a	n/a	-1.0	n/a	n/a	n/a	n/a	n/a	n/a	n/a	n/a	ITI	poldrack-single-stim	s604	False	0
248.501	4.162	252.663	5.122862917772191	draw_card	4.162	columbia_card_task_fmri	11.0	0.9375	89.0	-100.0	0.0625	16.0	1.0	1.0	-6.233112241801791	4.162	n/a	stim	poldrack-single-stim	s604	False	1
252.665	1.444	254.109	4.660362917772192	draw_card	1.444	columbia_card_task_fmri	11.0	0.9333333333333332	89.0	-100.0	0.0666666666666666	16.0	2.0	1.0	-5.414288074615364	1.444	n/a	stim	poldrack-single-stim	s604	False	1
254.113	3.411	257.524	4.131791489200764	draw_card	3.411	columbia_card_task_fmri	11.0	0.9285714285714286	89.0	-100.0	0.0714285714285714	16.0	3.0	1.0	-4.516319473510684	3.411	n/a	stim	poldrack-single-stim	s604	False	1
257.527	1.398	258.925	3.5219013793106537	draw_card	1.398	columbia_card_task_fmri	11.0	0.9230769230769232	89.0	-100.0	0.0769230769230769	16.0	4.0	1.0	-3.52575028319146	1.398	n/a	stim	poldrack-single-stim	s604	False	1
258.928	0.788	259.716	2.810362917772191	end_round	0.788	columbia_card_task_fmri	11.0	0.9166666666666666	71.0	-100.0	0.0833333333333333	16.0	5.0	1.0	-2.425750663269344	0.788	4.0	stim	poldrack-single-stim	s604	False	1
260.472	1.5	259.721	n/a	-1.0	2.318	columbia_card_task_fmri	n/a	n/a	-1.0	n/a	n/a	n/a	n/a	n/a	n/a	n/a	n/a	ITI	poldrack-single-stim	s604	False	0
262.043	0.976	263.019	5.685362917772191	draw_card	0.976	columbia_card_task_fmri	16.0	0.875	89.0	-75.0	0.125	16.0	1.0	2.0	-3.0087539324746224	0.976	n/a	stim	poldrack-single-stim	s604	False	1
263.021	2.158	265.179	4.927029584438858	draw_card	2.158	columbia_card_task_fmri	16.0	0.8666666666666667	89.0	-75.0	0.1333333333333333	16.0	2.0	2.0	-2.170629343609164	2.158	n/a	stim	poldrack-single-stim	s604	False	1
265.182	0.513	265.695	4.060362917772193	draw_card	0.513	columbia_card_task_fmri	16.0	0.8571428571428572	89.0	-75.0	0.1428571428571428	16.0	3.0	2.0	-1.26183292369754	0.513	n/a	stim	poldrack-single-stim	s604	False	1
265.697	0.681	266.378	3.060362917772191	draw_card	0.681	columbia_card_task_fmri	16.0	0.8461538461538461	89.0	-75.0	0.1538461538461538	16.0	4.0	2.0	-0.2728209229006921	0.681	n/a	stim	poldrack-single-stim	s604	False	1
266.38	0.959	267.339	1.8936962511055253	draw_card	0.959	columbia_card_task_fmri	16.0	0.8333333333333334	89.0	-75.0	0.1666666666666666	16.0	5.0	2.0	0.8074211542132375	0.959	n/a	stim	poldrack-single-stim	s604	False	1
267.342	0.709	268.051	0.5149083723176446	draw_card	0.709	columbia_card_task_fmri	16.0	0.8181818181818181	89.0	-75.0	0.1818181818181818	16.0	6.0	2.0	1.991373766195487	0.709	n/a	stim	poldrack-single-stim	s604	False	1
268.054	0.529	268.583	-1.139637082227808	draw_card	0.529	columbia_card_task_fmri	16.0	0.8	89.0	-75.0	0.2	16.0	7.0	2.0	3.292591982761202	0.529	n/a	stim	poldrack-single-stim	s604	False	1
268.586	0.547	269.133	-3.1618593044500285	draw_card	0.547	columbia_card_task_fmri	16.0	0.7777777777777778	89.0	-75.0	0.2222222222222222	16.0	8.0	2.0	4.724321191483789	0.547	8.0	stim	poldrack-single-stim	s604	False	0
269.889	1.5	269.138	n/a	-1.0	2.25	columbia_card_task_fmri	n/a	n/a	-1.0	n/a	n/a	n/a	n/a	n/a	n/a	n/a	n/a	ITI	poldrack-single-stim	s604	False	0
271.392	3.203	274.595	5.935362917772191	draw_card	3.203	columbia_card_task_fmri	17.0	0.875	89.0	-80.0	0.125	16.0	1.0	2.0	-1.0255949081670224	3.203	n/a	stim	poldrack-single-stim	s604	False	1
274.597	1.212	275.809	5.127029584438859	draw_card	1.212	columbia_card_task_fmri	17.0	0.8666666666666667	89.0	-80.0	0.1333333333333333	16.0	2.0	2.0	-0.1321447519544207	1.212	n/a	stim	poldrack-single-stim	s604	False	1
275.812	2.375	278.187	4.203220060629337	draw_card	2.375	columbia_card_task_fmri	17.0	0.8571428571428572	89.0	-80.0	0.1428571428571428	16.0	3.0	2.0	0.8366385227305742	2.375	3.0	stim	poldrack-single-stim	s604	False	0
278.945	1.5	278.194	n/a	-1.0	2.25	columbia_card_task_fmri	n/a	n/a	-1.0	n/a	n/a	n/a	n/a	n/a	n/a	n/a	n/a	ITI	poldrack-single-stim	s604	False	0
291.456	6.368	297.824	0.2270295844388592	draw_card	6.368	columbia_card_task_fmri	13.0	0.8333333333333334	89.0	-70.0	0.1666666666666666	6.0	1.0	1.0	-2.172406326932922	6.368	n/a	stim	poldrack-single-stim	s604	False	1
297.827	2.084	299.911	-2.5396370822278085	draw_card	2.084	columbia_card_task_fmri	13.0	0.8	89.0	-70.0	0.2	6.0	2.0	1.0	0.0940795815026902	2.084	n/a	stim	poldrack-single-stim	s604	False	1
299.913	6.232	306.145	-6.689637082227809	end_round	6.232	columbia_card_task_fmri	13.0	0.75	71.0	-70.0	0.25	6.0	3.0	1.0	2.8328437664697432	6.232	2.0	stim	poldrack-single-stim	s604	False	1
306.9	1.5	306.149	n/a	-1.0	2.454	columbia_card_task_fmri	n/a	n/a	-1.0	n/a	n/a	n/a	n/a	n/a	n/a	n/a	n/a	ITI	poldrack-single-stim	s604	False	0
308.606	9.201	317.807	0.2270295844388592	draw_card	9.201	columbia_card_task_fmri	15.0	0.8333333333333334	89.0	-80.0	0.1666666666666666	6.0	1.0	1.0	2.2974356536278577	9.201	n/a	stim	poldrack-single-stim	s604	False	1
317.809	1.471	319.28	-2.939637082227809	draw_card	1.471	columbia_card_task_fmri	15.0	0.8	89.0	-80.0	0.2	6.0	2.0	1.0	4.891942078724206	1.471	n/a	stim	poldrack-single-stim	s604	False	1
319.283	0.761	320.044	-7.689637082227809	end_round	0.761	columbia_card_task_fmri	15.0	0.75	71.0	-80.0	0.25	6.0	3.0	1.0	8.02702145407737	0.761	2.0	stim	poldrack-single-stim	s604	False	1
320.798	1.5	320.047	n/a	-1.0	2.454	columbia_card_task_fmri	n/a	n/a	-1.0	n/a	n/a	n/a	n/a	n/a	n/a	n/a	n/a	ITI	poldrack-single-stim	s604	False	0
322.504	1.312	323.816	1.8936962511055253	draw_card	1.312	columbia_card_task_fmri	16.0	0.8333333333333334	89.0	-75.0	0.1666666666666666	6.0	1.0	1.0	0.8074211542132375	1.312	n/a	stim	poldrack-single-stim	s604	False	1
323.819	0.514	324.333	-1.139637082227808	draw_card	0.514	columbia_card_task_fmri	16.0	0.8	89.0	-75.0	0.2	6.0	2.0	1.0	3.292591982761202	0.514	n/a	stim	poldrack-single-stim	s604	False	1
324.335	0.629	324.964	-5.689637082227809	draw_card	0.629	columbia_card_task_fmri	16.0	0.75	89.0	-75.0	0.25	6.0	3.0	1.0	6.295571055821604	0.629	n/a	stim	poldrack-single-stim	s604	False	1
324.967	1.679	326.646	-13.27297041556114	end_round	1.679	columbia_card_task_fmri	16.0	0.6666666666666667	71.0	-75.0	0.3333333333333333	6.0	4.0	1.0	9.788065220945406	1.679	3.0	stim	poldrack-single-stim	s604	False	1
327.404	1.5	326.653	n/a	-1.0	2.522	columbia_card_task_fmri	n/a	n/a	-1.0	n/a	n/a	n/a	n/a	n/a	n/a	n/a	n/a	ITI	poldrack-single-stim	s604	False	0
329.178	6.848	336.026	3.060362917772191	draw_card	6.848	columbia_card_task_fmri	21.0	0.75	89.0	-55.0	0.25	8.0	1.0	2.0	-0.1968054385772859	6.848	n/a	stim	poldrack-single-stim	s604	False	1
336.029	1.435	337.464	0.3460772034864778	draw_card	1.435	columbia_card_task_fmri	21.0	0.7142857142857143	89.0	-55.0	0.2857142857142857	8.0	2.0	2.0	1.2268213584737282	1.435	2.0	stim	poldrack-single-stim	s604	False	0
338.217	1.5	337.466	n/a	-1.0	2.386	columbia_card_task_fmri	n/a	n/a	-1.0	n/a	n/a	n/a	n/a	n/a	n/a	n/a	n/a	ITI	poldrack-single-stim	s604	False	0
339.855	1.429	341.284	4.310362917772191	draw_card	1.429	columbia_card_task_fmri	26.0	0.75	89.0	-65.0	0.25	8.0	1.0	2.0	6.295571055821604	1.429	n/a	stim	poldrack-single-stim	s604	False	1
341.287	0.599	341.886	1.060362917772195	draw_card	0.599	columbia_card_task_fmri	26.0	0.7142857142857143	89.0	-65.0	0.2857142857142857	8.0	2.0	2.0	8.000433194001289	0.599	2.0	stim	poldrack-single-stim	s604	False	0
342.643	1.5	341.892	n/a	-1.0	2.454	columbia_card_task_fmri	n/a	n/a	-1.0	n/a	n/a	n/a	n/a	n/a	n/a	n/a	n/a	ITI	poldrack-single-stim	s604	False	0
344.349	1.808	346.157	-0.6063037488944747	draw_card	1.808	columbia_card_task_fmri	15.0	0.7777777777777778	89.0	-60.0	0.2222222222222222	9.0	1.0	2.0	-1.924346341413642	1.808	n/a	stim	poldrack-single-stim	s604	False	1
346.16	0.404	346.564	-2.689637082227809	end_round	0.404	columbia_card_task_fmri	15.0	0.75	71.0	-60.0	0.25	9.0	2.0	2.0	-0.6295905463436497	0.404	1.0	stim	poldrack-single-stim	s604	False	1
347.322	1.5	346.571	n/a	-1.0	2.522	columbia_card_task_fmri	n/a	n/a	-1.0	n/a	n/a	n/a	n/a	n/a	n/a	n/a	n/a	ITI	poldrack-single-stim	s604	False	0
349.097	1.458	350.555	3.760362917772192	draw_card	1.458	columbia_card_task_fmri	13.0	0.9	89.0	-90.0	0.1	10.0	1.0	1.0	-2.2046610497391192	1.458	n/a	stim	poldrack-single-stim	s604	False	1
350.558	0.428	350.986	2.6159184733277465	draw_card	0.428	columbia_card_task_fmri	13.0	0.8888888888888888	89.0	-90.0	0.1111111111111111	10.0	2.0	1.0	-0.7357093585899861	0.428	n/a	stim	poldrack-single-stim	s604	False	1
350.989	0.582	351.571	1.1853629177721914	draw_card	0.582	columbia_card_task_fmri	13.0	0.875	89.0	-90.0	0.125	10.0	3.0	1.0	0.9576985122586592	0.582	n/a	stim	poldrack-single-stim	s604	False	1
351.574	0.677	352.251	-0.6539227965135204	draw_card	0.677	columbia_card_task_fmri	13.0	0.8571428571428572	89.0	-90.0	0.1428571428571428	10.0	4.0	1.0	2.935237010340316	0.677	n/a	stim	poldrack-single-stim	s604	False	1
352.254	1.668	353.922	-3.106303748894475	draw_card	1.668	columbia_card_task_fmri	13.0	0.8333333333333334	89.0	-90.0	0.1666666666666666	10.0	5.0	1.0	5.2776270737350615	1.668	n/a	stim	poldrack-single-stim	s604	False	1
353.924	4.114	358.038	-6.5396370822278085	end_round	4.114	columbia_card_task_fmri	13.0	0.8	71.0	-90.0	0.2	10.0	6.0	1.0	8.09079362400383	4.114	5.0	stim	poldrack-single-stim	s604	False	1
358.796	1.5	358.045	n/a	-1.0	2.522	columbia_card_task_fmri	n/a	n/a	-1.0	n/a	n/a	n/a	n/a	n/a	n/a	n/a	n/a	ITI	poldrack-single-stim	s604	False	0
360.57	1.715	362.285	5.060362917772191	draw_card	1.715	columbia_card_task_fmri	15.0	0.9	89.0	-95.0	0.1	10.0	1.0	1.0	-0.1058178715070283	1.715	n/a	stim	poldrack-single-stim	s604	False	1
362.289	0.992	363.281	3.838140695549968	draw_card	0.992	columbia_card_task_fmri	15.0	0.8888888888888888	89.0	-95.0	0.1111111111111111	10.0	2.0	1.0	1.4630740287130308	0.992	n/a	stim	poldrack-single-stim	s604	False	1
363.283	9.02	372.303	2.310362917772191	draw_card	9.02	columbia_card_task_fmri	15.0	0.875	89.0	-95.0	0.125	10.0	3.0	1.0	3.271681385550828	9.02	n/a	stim	poldrack-single-stim	s604	False	1
372.306	0.515	372.821	0.3460772034864778	end_round	0.515	columbia_card_task_fmri	15.0	0.8571428571428572	71.0	-95.0	0.1428571428571428	10.0	4.0	1.0	5.383734767561492	0.515	3.0	stim	poldrack-single-stim	s604	False	1
373.579	1.5	372.828	n/a	-1.0	2.59	columbia_card_task_fmri	n/a	n/a	-1.0	n/a	n/a	n/a	n/a	n/a	n/a	n/a	n/a	ITI	poldrack-single-stim	s604	False	0
375.421	3.207	378.628	0.8603629177721921	draw_card	3.207	columbia_card_task_fmri	16.0	0.8	89.0	-65.0	0.2	10.0	1.0	2.0	-0.7055026404730071	3.207	n/a	stim	poldrack-single-stim	s604	False	1
378.633	0.994	379.627	-0.9396370822278068	draw_card	0.994	columbia_card_task_fmri	16.0	0.7777777777777778	89.0	-65.0	0.2222222222222222	10.0	2.0	2.0	0.5687574329018759	0.994	n/a	stim	poldrack-single-stim	s604	False	1
379.631	7.24	386.871	-3.189637082227809	draw_card	7.24	columbia_card_task_fmri	16.0	0.75	89.0	-65.0	0.25	10.0	3.0	2.0	1.967204333838417	7.24	3.0	stim	poldrack-single-stim	s604	False	0
387.625	1.5	386.874	n/a	-1.0	2.454	columbia_card_task_fmri	n/a	n/a	-1.0	n/a	n/a	n/a	n/a	n/a	n/a	n/a	n/a	ITI	poldrack-single-stim	s604	False	0
389.332	1.636	390.968	-0.4396370822278086	draw_card	1.636	columbia_card_task_fmri	7.0	0.9166666666666666	89.0	-95.0	0.0833333333333333	12.0	1.0	1.0	-4.911603933972341	1.636	n/a	stim	poldrack-single-stim	s604	False	1
390.972	0.576	391.548	-1.212364354955082	draw_card	0.576	columbia_card_task_fmri	7.0	0.9090909090909092	89.0	-95.0	0.0909090909090909	12.0	2.0	1.0	-3.78074515477833	0.576	n/a	stim	poldrack-single-stim	s604	False	1
391.55	1.746	393.296	-2.139637082227809	end_round	1.746	columbia_card_task_fmri	7.0	0.9	71.0	-95.0	0.1	12.0	3.0	1.0	-2.504482839238364	1.746	2.0	stim	poldrack-single-stim	s604	False	1
394.052	1.5	393.301	n/a	-1.0	2.318	columbia_card_task_fmri	n/a	n/a	-1.0	n/a	n/a	n/a	n/a	n/a	n/a	n/a	n/a	ITI	poldrack-single-stim	s604	False	0
395.623	1.982	397.605	0.2270295844388592	draw_card	1.982	columbia_card_task_fmri	14.0	0.8333333333333334	89.0	-75.0	0.1666666666666666	12.0	1.0	2.0	0.0624373977618404	1.982	1.0	stim	poldrack-single-stim	s604	False	0
398.363	1.5	397.612	n/a	-1.0	2.25	columbia_card_task_fmri	n/a	n/a	-1.0	n/a	n/a	n/a	n/a	n/a	n/a	n/a	n/a	ITI	poldrack-single-stim	s604	False	0
399.865	3.217	403.082	1.8936962511055253	draw_card	3.217	columbia_card_task_fmri	15.0	0.8333333333333334	89.0	-70.0	0.1666666666666666	12.0	1.0	2.0	-1.427477606657142	3.217	n/a	stim	poldrack-single-stim	s604	False	1
403.085	2.255	405.34	0.6058174632267346	draw_card	2.255	columbia_card_task_fmri	15.0	0.8181818181818181	89.0	-70.0	0.1818181818181818	12.0	2.0	2.0	-0.3216640651090898	2.255	n/a	stim	poldrack-single-stim	s604	False	1
405.343	11.078	416.421	-0.9396370822278086	draw_card	11.078	columbia_card_task_fmri	15.0	0.8	89.0	-70.0	0.2	12.0	3.0	2.0	0.8936814489412725	11.078	n/a	stim	poldrack-single-stim	s604	False	1
416.425	5.173	421.598	-2.828525971116698	draw_card	5.173	columbia_card_task_fmri	15.0	0.7777777777777778	89.0	-70.0	0.2222222222222222	12.0	4.0	2.0	2.230931206236491	5.173	n/a	stim	poldrack-single-stim	s604	False	1
421.6	6.669	428.269	-5.189637082227809	draw_card	6.669	columbia_card_task_fmri	15.0	0.75	89.0	-70.0	0.25	12.0	5.0	2.0	3.698501350875127	6.669	5.0	stim	poldrack-single-stim	s604	False	0
429.028	1.5	428.277	n/a	-1.0	2.658	columbia_card_task_fmri	n/a	n/a	-1.0	n/a	n/a	n/a	n/a	n/a	n/a	n/a	n/a	ITI	poldrack-single-stim	s604	False	0
430.939	1.343	432.282	-0.1396370822278079	draw_card	1.343	columbia_card_task_fmri	16.0	0.8	89.0	-70.0	0.2	15.0	1.0	3.0	1.2934893218100711	1.343	n/a	stim	poldrack-single-stim	s604	False	1
432.285	1.188	433.473	-1.3682085107992374	draw_card	1.188	columbia_card_task_fmri	16.0	0.7857142857142857	89.0	-70.0	0.2142857142857142	15.0	2.0	3.0	2.181106030123616	1.188	n/a	stim	poldrack-single-stim	s604	False	1
433.476	1.223	434.699	-2.7857909283816555	draw_card	1.223	columbia_card_task_fmri	16.0	0.7692307692307692	89.0	-70.0	0.2307692307692307	15.0	3.0	3.0	3.1266165185224537	1.223	n/a	stim	poldrack-single-stim	s604	False	1
434.703	1.676	436.379	-4.439637082227809	draw_card	1.676	columbia_card_task_fmri	16.0	0.75	89.0	-70.0	0.25	15.0	4.0	3.0	4.131336554571583	1.676	n/a	stim	poldrack-single-stim	s604	False	1
436.383	7.197	443.58	-6.394182536773262	end_round	7.197	columbia_card_task_fmri	16.0	0.7272727272727273	71.0	-70.0	0.2727272727272727	15.0	5.0	3.0	5.192938178954243	7.197	4.0	stim	poldrack-single-stim	s604	False	1
444.335	1.5	443.584	n/a	-1.0	2.454	columbia_card_task_fmri	n/a	n/a	-1.0	n/a	n/a	n/a	n/a	n/a	n/a	n/a	n/a	ITI	poldrack-single-stim	s604	False	0
446.042	3.564	449.606	0.2478629177721913	draw_card	3.564	columbia_card_task_fmri	14.0	0.8125	89.0	-65.0	0.1875	16.0	1.0	3.0	-2.269944923932144	3.564	n/a	stim	poldrack-single-stim	s604	False	1
449.609	9.108	458.717	-0.7396370822278076	draw_card	9.108	columbia_card_task_fmri	14.0	0.8	89.0	-65.0	0.2	16.0	2.0	3.0	-1.5050637265434013	9.108	n/a	stim	poldrack-single-stim	s604	False	1
458.721	1.467	460.188	-1.868208510799236	draw_card	1.467	columbia_card_task_fmri	14.0	0.7857142857142857	89.0	-65.0	0.2142857142857142	16.0	3.0	3.0	-0.6897646997591451	1.467	3.0	stim	poldrack-single-stim	s604	False	0
460.942	1.5	460.191	n/a	-1.0	2.386	columbia_card_task_fmri	n/a	n/a	-1.0	n/a	n/a	n/a	n/a	n/a	n/a	n/a	n/a	ITI	poldrack-single-stim	s604	False	0
462.582	2.07	464.652	-0.0021370822278086	draw_card	2.07	columbia_card_task_fmri	16.0	0.8125	89.0	-75.0	0.1875	16.0	1.0	3.0	2.4114011874682646	2.07	n/a	stim	poldrack-single-stim	s604	False	1
464.655	0.594	465.249	-1.139637082227808	draw_card	0.594	columbia_card_task_fmri	16.0	0.8	89.0	-75.0	0.2	16.0	2.0	3.0	3.292591982761202	0.594	2.0	stim	poldrack-single-stim	s604	False	0
466.003	1.5	465.252	n/a	-1.0	2.59	columbia_card_task_fmri	n/a	n/a	-1.0	n/a	n/a	n/a	n/a	n/a	n/a	n/a	n/a	ITI	poldrack-single-stim	s604	False	0
467.847	1.402	469.249	4.260362917772192	draw_card	1.402	columbia_card_task_fmri	16.0	0.8666666666666667	89.0	-80.0	0.1333333333333333	15.0	1.0	2.0	-0.4719019261888348	1.402	n/a	stim	poldrack-single-stim	s604	False	1
469.253	1.906	471.159	3.3460772034864794	draw_card	1.906	columbia_card_task_fmri	16.0	0.8571428571428572	89.0	-80.0	0.1428571428571428	15.0	2.0	2.0	0.4868838166984943	1.906	n/a	stim	poldrack-single-stim	s604	False	1
471.162	1.774	472.936	2.291132148541421	draw_card	1.774	columbia_card_task_fmri	16.0	0.8461538461538461	89.0	-80.0	0.1538461538461538	15.0	3.0	2.0	1.5302939979087142	1.774	n/a	stim	poldrack-single-stim	s604	False	1
472.94	0.54	473.48	1.0603629177721932	end_round	0.54	columbia_card_task_fmri	16.0	0.8333333333333334	71.0	-80.0	0.1666666666666666	15.0	4.0	2.0	2.669948354216338	0.54	3.0	stim	poldrack-single-stim	s604	False	1
474.237	1.5	473.486	n/a	-1.0	2.318	columbia_card_task_fmri	n/a	n/a	-1.0	n/a	n/a	n/a	n/a	n/a	n/a	n/a	n/a	ITI	poldrack-single-stim	s604	False	0
475.808	2.032	477.84	5.127029584438859	draw_card	2.032	columbia_card_task_fmri	17.0	0.8666666666666667	89.0	-80.0	0.1333333333333333	15.0	1.0	2.0	-0.1321447519544207	2.032	n/a	stim	poldrack-single-stim	s604	False	1
477.843	0.418	478.261	4.203220060629337	draw_card	0.418	columbia_card_task_fmri	17.0	0.8571428571428572	89.0	-80.0	0.1428571428571428	15.0	2.0	2.0	0.8366385227305742	0.418	n/a	stim	poldrack-single-stim	s604	False	1
478.266	0.413	478.679	3.137285994695268	draw_card	0.413	columbia_card_task_fmri	17.0	0.8461538461538461	89.0	-80.0	0.1538461538461538	15.0	3.0	2.0	1.8909279987146377	0.413	n/a	stim	poldrack-single-stim	s604	False	1
478.682	0.48	479.162	1.893696251105527	draw_card	0.48	columbia_card_task_fmri	17.0	0.8333333333333334	89.0	-80.0	0.1666666666666666	15.0	4.0	2.0	3.0424644607422024	0.48	4.0	stim	poldrack-single-stim	s604	False	0
479.917	1.5	479.166	n/a	-1.0	2.59	columbia_card_task_fmri	n/a	n/a	-1.0	n/a	n/a	n/a	n/a	n/a	n/a	n/a	n/a	ITI	poldrack-single-stim	s604	False	0
481.76	2.991	484.751	1.0603629177721914	draw_card	2.991	columbia_card_task_fmri	1.0	0.9375	89.0	-15.0	0.0625	16.0	1.0	1.0	-29.107333282233107	2.991	n/a	stim	poldrack-single-stim	s604	False	1
484.754	1.842	486.596	0.9936962511055248	draw_card	1.842	columbia_card_task_fmri	1.0	0.9333333333333332	89.0	-15.0	0.0666666666666666	16.0	2.0	1.0	-28.993290272696576	1.842	n/a	stim	poldrack-single-stim	s604	False	1
486.599	1.32	487.919	0.9175057749150486	draw_card	1.32	columbia_card_task_fmri	1.0	0.9285714285714286	89.0	-15.0	0.0714285714285714	16.0	3.0	1.0	-28.86797436785257	1.32	n/a	stim	poldrack-single-stim	s604	False	1
487.922	1.813	489.735	0.8295936870029605	draw_card	1.813	columbia_card_task_fmri	1.0	0.9230769230769232	89.0	-15.0	0.0769230769230769	16.0	4.0	1.0	-28.729458397439316	1.813	n/a	stim	poldrack-single-stim	s604	False	1
489.74	0.751	490.491	0.727029584438858	draw_card	0.751	columbia_card_task_fmri	1.0	0.9166666666666666	89.0	-15.0	0.0833333333333333	16.0	5.0	1.0	-28.57533081611919	0.751	n/a	stim	poldrack-single-stim	s604	False	1
490.495	9.104	499.599	0.6058174632267367	draw_card	9.104	columbia_card_task_fmri	1.0	0.9090909090909092	89.0	-15.0	0.0909090909090909	16.0	6.0	1.0	-28.40253219497127	9.104	n/a	stim	poldrack-single-stim	s604	False	1
499.603	3.641	503.244	0.4603629177721914	draw_card	3.641	columbia_card_task_fmri	1.0	0.9	89.0	-15.0	0.1	16.0	7.0	1.0	-28.20712262451691	3.641	n/a	stim	poldrack-single-stim	s604	False	1
503.247	19.589	522.836	0.2825851399944137	end_round	19.589	columbia_card_task_fmri	1.0	0.8888888888888888	71.0	-15.0	0.1111111111111111	16.0	8.0	1.0	-27.983946758560624	19.589	7.0	stim	poldrack-single-stim	s604	False	1
523.593	1.5	522.842	n/a	-1.0	2.386	columbia_card_task_fmri	n/a	n/a	-1.0	n/a	n/a	n/a	n/a	n/a	n/a	n/a	n/a	ITI	poldrack-single-stim	s604	False	0
525.232	2.906	528.138	4.185362917772191	draw_card	2.906	columbia_card_task_fmri	10.0	0.9375	89.0	-100.0	0.0625	16.0	1.0	1.0	-6.474983712923574	2.906	n/a	stim	poldrack-single-stim	s604	False	1
528.142	3.131	531.273	3.727029584438858	draw_card	3.131	columbia_card_task_fmri	10.0	0.9333333333333332	89.0	-100.0	0.0666666666666666	16.0	2.0	1.0	-5.663547522482279	3.131	n/a	stim	poldrack-single-stim	s604	False	1
531.276	5.512	536.788	3.2032200606293357	draw_card	5.512	columbia_card_task_fmri	10.0	0.9285714285714286	89.0	-100.0	0.0714285714285714	16.0	3.0	1.0	-4.773680255938153	5.512	n/a	stim	poldrack-single-stim	s604	False	1
536.791	0.431	537.222	2.5988244562337304	draw_card	0.431	columbia_card_task_fmri	10.0	0.9230769230769232	89.0	-100.0	0.0769230769230769	16.0	4.0	1.0	-3.792047017073301	0.431	n/a	stim	poldrack-single-stim	s604	False	1
537.225	0.44	537.665	1.8936962511055253	draw_card	0.44	columbia_card_task_fmri	10.0	0.9166666666666666	89.0	-100.0	0.0833333333333333	16.0	5.0	1.0	-2.7019696231734933	0.44	n/a	stim	poldrack-single-stim	s604	False	1
537.668	0.631	538.299	1.0603629177721896	draw_card	0.631	columbia_card_task_fmri	10.0	0.9090909090909092	89.0	-100.0	0.0909090909090909	16.0	6.0	1.0	-1.4822999279439344	0.631	n/a	stim	poldrack-single-stim	s604	False	1
538.302	0.685	538.987	0.0603629177721913	draw_card	0.685	columbia_card_task_fmri	10.0	0.9	89.0	-100.0	0.1	16.0	7.0	1.0	-0.1058178715070283	0.685	n/a	stim	poldrack-single-stim	s604	False	1
538.99	0.788	539.778	-1.16185930445003	draw_card	0.788	columbia_card_task_fmri	10.0	0.8888888888888888	89.0	-100.0	0.1111111111111111	16.0	8.0	1.0	1.4630740287130308	0.788	n/a	stim	poldrack-single-stim	s604	False	1
539.781	0.642	540.423	-2.689637082227809	draw_card	0.642	columbia_card_task_fmri	10.0	0.875	89.0	-100.0	0.125	16.0	9.0	1.0	3.271681385550828	0.642	n/a	stim	poldrack-single-stim	s604	False	1
540.426	1.155	541.581	-4.653922796513521	draw_card	1.155	columbia_card_task_fmri	10.0	0.8571428571428572	89.0	-100.0	0.1428571428571428	16.0	10.0	1.0	5.383734767561492	1.155	n/a	stim	poldrack-single-stim	s604	False	1
541.585	3.86	545.445	-7.272970415561139	draw_card	3.86	columbia_card_task_fmri	10.0	0.8333333333333334	89.0	-100.0	0.1666666666666666	16.0	11.0	1.0	7.885441552643265	3.86	n/a	stim	poldrack-single-stim	s604	False	1
545.448	2.53	547.978	-10.939637082227808	draw_card	2.53	columbia_card_task_fmri	10.0	0.8	89.0	-100.0	0.2	16.0	12.0	1.0	10.889925693508602	2.53	n/a	stim	poldrack-single-stim	s604	False	1
547.982	2.454	550.436	-16.439637082227808	end_round	2.454	columbia_card_task_fmri	10.0	0.75	71.0	-100.0	0.25	16.0	13.0	1.0	14.52034918688836	2.454	12.0	stim	poldrack-single-stim	s604	False	1
551.194	1.5	550.443	n/a	-1.0	2.318	columbia_card_task_fmri	n/a	n/a	-1.0	n/a	n/a	n/a	n/a	n/a	n/a	n/a	n/a	ITI	poldrack-single-stim	s604	False	0
552.765	4.459	557.224	4.810362917772191	draw_card	4.459	columbia_card_task_fmri	15.0	0.875	89.0	-75.0	0.125	16.0	1.0	2.0	-3.339265485150925	4.459	n/a	stim	poldrack-single-stim	s604	False	1
557.227	1.007	558.234	4.060362917772191	draw_card	1.007	columbia_card_task_fmri	15.0	0.8666666666666667	89.0	-75.0	0.1333333333333333	16.0	2.0	2.0	-2.5103622281135785	1.007	n/a	stim	poldrack-single-stim	s604	False	1
558.238	1.292	559.53	3.2032200606293357	draw_card	1.292	columbia_card_task_fmri	15.0	0.8571428571428572	89.0	-75.0	0.1428571428571428	16.0	3.0	2.0	-1.6115640313914632	1.292	n/a	stim	poldrack-single-stim	s604	False	1
559.533	0.579	560.112	2.2142090716183445	draw_card	0.579	columbia_card_task_fmri	15.0	0.8461538461538461	89.0	-75.0	0.1538461538461538	16.0	4.0	2.0	-0.6334320344479494	0.579	n/a	stim	poldrack-single-stim	s604	False	1
560.117	1.566	561.683	1.0603629177721914	draw_card	1.566	columbia_card_task_fmri	15.0	0.8333333333333334	89.0	-75.0	0.1666666666666666	16.0	5.0	2.0	0.4349272095583174	1.566	5.0	stim	poldrack-single-stim	s604	False	0
562.44	1.5	561.689	n/a	-1.0	2.318	columbia_card_task_fmri	n/a	n/a	-1.0	n/a	n/a	n/a	n/a	n/a	n/a	n/a	n/a	ITI	poldrack-single-stim	s604	False	0
564.013	1.876	565.889	5.060362917772191	draw_card	1.876	columbia_card_task_fmri	16.0	0.875	89.0	-80.0	0.125	16.0	1.0	2.0	-1.356131425064106	1.876	n/a	stim	poldrack-single-stim	s604	False	1
565.892	0.325	566.217	4.260362917772192	draw_card	0.325	columbia_card_task_fmri	16.0	0.8666666666666667	89.0	-80.0	0.1333333333333333	16.0	2.0	2.0	-0.4719019261888348	0.325	n/a	stim	poldrack-single-stim	s604	False	1
566.221	0.517	566.738	3.3460772034864794	draw_card	0.517	columbia_card_task_fmri	16.0	0.8571428571428572	89.0	-80.0	0.1428571428571428	16.0	3.0	2.0	0.4868838166984943	0.517	n/a	stim	poldrack-single-stim	s604	False	1
566.741	1.228	567.969	2.291132148541421	draw_card	1.228	columbia_card_task_fmri	16.0	0.8461538461538461	89.0	-80.0	0.1538461538461538	16.0	4.0	2.0	1.5302939979087142	1.228	4.0	stim	poldrack-single-stim	s604	False	0
568.725	1.5	567.974	n/a	-1.0	2.318	columbia_card_task_fmri	n/a	n/a	-1.0	n/a	n/a	n/a	n/a	n/a	n/a	n/a	n/a	ITI	poldrack-single-stim	s604	False	0
570.297	4.702	574.999	2.247862917772191	draw_card	4.702	columbia_card_task_fmri	4.0	0.6875	89.0	-5.0	0.3125	16.0	1.0	5.0	-28.818582510667365	4.702	1.0	stim	poldrack-single-stim	s604	False	0
575.753	1.5	575.002	n/a	-1.0	2.386	columbia_card_task_fmri	n/a	n/a	-1.0	n/a	n/a	n/a	n/a	n/a	n/a	n/a	n/a	ITI	poldrack-single-stim	s604	False	0
577.392	1.283	578.675	-0.6063037488944729	draw_card	1.283	columbia_card_task_fmri	14.0	0.8333333333333334	89.0	-80.0	0.1666666666666666	6.0	1.0	1.0	1.9249264675789632	1.283	n/a	stim	poldrack-single-stim	s604	False	1
578.679	17.096	595.775	-3.739637082227808	draw_card	17.096	columbia_card_task_fmri	14.0	0.8	89.0	-80.0	0.2	6.0	2.0	1.0	4.4920993724427305	17.096	n/a	stim	poldrack-single-stim	s604	False	1
595.778	0.697	596.475	-8.439637082227808	end_round	0.697	columbia_card_task_fmri	14.0	0.75	71.0	-80.0	0.25	6.0	3.0	1.0	7.594154066468626	0.697	2.0	stim	poldrack-single-stim	s604	False	1
597.233	1.5	596.482	n/a	-1.0	2.25	columbia_card_task_fmri	n/a	n/a	-1.0	n/a	n/a	n/a	n/a	n/a	n/a	n/a	n/a	ITI	poldrack-single-stim	s604	False	0
598.736	9.834	608.57	1.0603629177721914	draw_card	9.834	columbia_card_task_fmri	15.0	0.8333333333333334	89.0	-75.0	0.1666666666666666	6.0	1.0	1.0	0.4349272095583174	9.834	n/a	stim	poldrack-single-stim	s604	False	1
608.573	0.676	609.249	-1.9396370822278088	end_round	0.676	columbia_card_task_fmri	15.0	0.8	71.0	-75.0	0.2	6.0	2.0	1.0	2.892763479471114	0.676	1.0	stim	poldrack-single-stim	s604	False	1
610.004	1.5	609.253	n/a	-1.0	2.386	columbia_card_task_fmri	n/a	n/a	-1.0	n/a	n/a	n/a	n/a	n/a	n/a	n/a	n/a	ITI	poldrack-single-stim	s604	False	0
611.643	1.553	613.196	2.727029584438859	draw_card	1.553	columbia_card_task_fmri	16.0	0.8333333333333334	89.0	-70.0	0.1666666666666666	6.0	1.0	1.0	-1.055005800306006	1.553	n/a	stim	poldrack-single-stim	s604	False	1
613.199	0.779	613.978	-0.1396370822278079	draw_card	0.779	columbia_card_task_fmri	16.0	0.8	89.0	-70.0	0.2	6.0	2.0	1.0	1.2934893218100711	0.779	2.0	stim	poldrack-single-stim	s604	False	0
614.737	1.5	613.986	n/a	-1.0	2.59	columbia_card_task_fmri	n/a	n/a	-1.0	n/a	n/a	n/a	n/a	n/a	n/a	n/a	n/a	ITI	poldrack-single-stim	s604	False	0
616.581	0.924	617.505	3.310362917772191	draw_card	0.924	columbia_card_task_fmri	23.0	0.75	89.0	-60.0	0.25	8.0	1.0	2.0	2.8328437664697432	0.924	n/a	stim	poldrack-single-stim	s604	False	1
617.509	0.947	618.456	0.3460772034864796	draw_card	0.947	columbia_card_task_fmri	23.0	0.7142857142857143	89.0	-60.0	0.2857142857142857	8.0	2.0	2.0	4.387718957409476	0.947	n/a	stim	poldrack-single-stim	s604	False	1
618.459	0.631	619.09	-3.606303748894473	end_round	0.631	columbia_card_task_fmri	23.0	0.6666666666666667	71.0	-60.0	0.3333333333333333	8.0	3.0	2.0	6.018091571171787	0.631	2.0	stim	poldrack-single-stim	s604	False	1
619.849	1.5	619.098	n/a	-1.0	2.658	columbia_card_task_fmri	n/a	n/a	-1.0	n/a	n/a	n/a	n/a	n/a	n/a	n/a	n/a	ITI	poldrack-single-stim	s604	False	0
621.76	1.634	623.394	3.810362917772191	draw_card	1.634	columbia_card_task_fmri	27.0	0.75	89.0	-70.0	0.25	8.0	1.0	2.0	8.8927652134375	1.634	1.0	stim	poldrack-single-stim	s604	False	0
624.153	1.5	623.402	n/a	-1.0	2.386	columbia_card_task_fmri	n/a	n/a	-1.0	n/a	n/a	n/a	n/a	n/a	n/a	n/a	n/a	ITI	poldrack-single-stim	s604	False	0
625.792	15.345	641.137	-0.9396370822278068	draw_card	15.345	columbia_card_task_fmri	16.0	0.7777777777777778	89.0	-65.0	0.2222222222222222	9.0	1.0	2.0	0.5687574329018759	15.345	n/a	stim	poldrack-single-stim	s604	False	1
641.141	0.53	641.671	-3.189637082227809	draw_card	0.53	columbia_card_task_fmri	16.0	0.75	89.0	-65.0	0.25	9.0	2.0	2.0	1.967204333838417	0.53	2.0	stim	poldrack-single-stim	s604	False	0
642.43	1.5	641.679	n/a	-1.0	2.386	columbia_card_task_fmri	n/a	n/a	-1.0	n/a	n/a	n/a	n/a	n/a	n/a	n/a	n/a	ITI	poldrack-single-stim	s604	False	0
644.07	3.82	647.89	4.260362917772192	draw_card	3.82	columbia_card_task_fmri	13.0	0.9	89.0	-85.0	0.1	10.0	1.0	1.0	-3.7037336621501673	3.82	n/a	stim	poldrack-single-stim	s604	False	1
647.893	0.517	648.41	3.171474028883302	draw_card	0.517	columbia_card_task_fmri	13.0	0.8888888888888888	89.0	-85.0	0.1111111111111111	10.0	2.0	1.0	-2.306172409540192	0.517	n/a	stim	poldrack-single-stim	s604	False	1
648.414	14.914	663.328	1.8103629177721916	draw_card	14.914	columbia_card_task_fmri	13.0	0.875	89.0	-85.0	0.125	10.0	3.0	1.0	-0.6950546718987738	14.914	n/a	stim	poldrack-single-stim	s604	False	1
663.331	1.722	665.053	0.0603629177721931	draw_card	1.722	columbia_card_task_fmri	13.0	0.8571428571428572	89.0	-85.0	0.1428571428571428	10.0	4.0	1.0	1.1863967445847765	1.722	n/a	stim	poldrack-single-stim	s604	False	1
665.057	0.617	665.674	-2.272970415561141	end_round	0.617	columbia_card_task_fmri	13.0	0.8333333333333334	71.0	-85.0	0.1666666666666666	10.0	5.0	1.0	3.414983869031275	0.617	4.0	stim	poldrack-single-stim	s604	False	1
666.433	1.5	665.682	n/a	-1.0	2.25	columbia_card_task_fmri	n/a	n/a	-1.0	n/a	n/a	n/a	n/a	n/a	n/a	n/a	n/a	ITI	poldrack-single-stim	s604	False	0
667.936	2.06	669.996	-0.7396370822278076	draw_card	2.06	columbia_card_task_fmri	14.0	0.8	89.0	-65.0	0.2	10.0	1.0	2.0	-1.5050637265434013	2.06	n/a	stim	poldrack-single-stim	s604	False	1
669.999	0.748	670.747	-2.4951926377833624	draw_card	0.748	columbia_card_task_fmri	14.0	0.7777777777777778	89.0	-65.0	0.2222222222222222	10.0	2.0	2.0	-0.2622996637070329	0.748	n/a	stim	poldrack-single-stim	s604	False	1
670.752	1.41	672.162	-4.689637082227809	end_round	1.41	columbia_card_task_fmri	14.0	0.75	71.0	-65.0	0.25	10.0	3.0	2.0	1.1015844303209334	1.41	2.0	stim	poldrack-single-stim	s604	False	1
672.92	1.5	672.169	n/a	-1.0	2.318	columbia_card_task_fmri	n/a	n/a	-1.0	n/a	n/a	n/a	n/a	n/a	n/a	n/a	n/a	ITI	poldrack-single-stim	s604	False	0
674.491	1.334	675.825	0.6603629177721928	draw_card	1.334	columbia_card_task_fmri	17.0	0.8	89.0	-70.0	0.2	10.0	1.0	2.0	1.6933016082857009	1.334	n/a	stim	poldrack-single-stim	s604	False	1
675.831	0.912	676.743	-1.2729704155611408	draw_card	0.912	columbia_card_task_fmri	17.0	0.7777777777777778	89.0	-70.0	0.2222222222222222	10.0	2.0	2.0	3.0620451461156577	0.912	n/a	stim	poldrack-single-stim	s604	False	1
676.747	0.712	677.459	-3.689637082227809	draw_card	0.712	columbia_card_task_fmri	17.0	0.75	89.0	-70.0	0.25	10.0	3.0	2.0	4.564175836235158	0.712	n/a	stim	poldrack-single-stim	s604	False	1
677.462	0.662	678.124	-6.7967799393706665	end_round	0.662	columbia_card_task_fmri	17.0	0.7142857142857143	71.0	-70.0	0.2857142857142857	10.0	4.0	2.0	6.194045807767097	0.662	3.0	stim	poldrack-single-stim	s604	False	1
678.881	1.5	678.13	n/a	-1.0	2.25	columbia_card_task_fmri	n/a	n/a	-1.0	n/a	n/a	n/a	n/a	n/a	n/a	n/a	n/a	ITI	poldrack-single-stim	s604	False	0
