duration	onset	block_duration	movement_onset	planning	condition	exp_stage	experiment_exp_id	key_press	problem_id	response_time	trial_id	trial_type	worker_id	junk
6.031	3.015	6.031	9.046	1	UA_with_intermediate	practice	ward_and_allport	71	0.0	6.031	to_hand	poldrack-single-stim	s604	False
0.1	9.047	0.673	9.72	0	UA_with_intermediate	practice	ward_and_allport	82	0.0	0.673	to_board	poldrack-single-stim	s604	False
0.1	9.722	0.693	10.415	0	UA_with_intermediate	practice	ward_and_allport	71	0.0	0.693	to_hand	poldrack-single-stim	s604	False
0.1	10.416	0.591	11.007	0	UA_with_intermediate	practice	ward_and_allport	89	0.0	0.591	to_board	poldrack-single-stim	s604	False
0.1	11.008	0.599	11.607	0	UA_with_intermediate	practice	ward_and_allport	82	0.0	0.599	to_hand	poldrack-single-stim	s604	False
0.1	11.607	0.421	12.028	0	UA_with_intermediate	practice	ward_and_allport	89	0.0	0.421	to_board	poldrack-single-stim	s604	False
1.0	12.031	2.5	12.03	0	UA_with_intermediate	practice	ward_and_allport	-1	0.0	n/a	feedback	poldrack-single-stim	s604	False
3.345	14.533	3.345	17.878	1	UA_with_intermediate	practice	ward_and_allport	89	1.0	3.345	to_hand	poldrack-single-stim	s604	False
0.1	17.879	1.107	18.986	0	UA_with_intermediate	practice	ward_and_allport	82	1.0	1.107	to_board	poldrack-single-stim	s604	False
0.1	18.987	0.529	19.516	0	UA_with_intermediate	practice	ward_and_allport	71	1.0	0.529	to_hand	poldrack-single-stim	s604	False
0.1	19.517	0.402	19.919	0	UA_with_intermediate	practice	ward_and_allport	89	1.0	0.402	to_board	poldrack-single-stim	s604	False
0.1	19.92	0.435	20.355	0	UA_with_intermediate	practice	ward_and_allport	82	1.0	0.435	to_hand	poldrack-single-stim	s604	False
0.1	20.356	0.465	20.821	0	UA_with_intermediate	practice	ward_and_allport	89	1.0	0.465	to_board	poldrack-single-stim	s604	False
1.0	20.828	2.1	20.827	0	UA_with_intermediate	practice	ward_and_allport	-1	1.0	n/a	feedback	poldrack-single-stim	s604	False
5.916	22.929	5.916	28.845	1	UA_without_intermediate	practice	ward_and_allport	82	2.0	5.916	to_hand	poldrack-single-stim	s604	False
0.1	28.846	0.438	29.284	0	UA_without_intermediate	practice	ward_and_allport	89	2.0	0.438	to_board	poldrack-single-stim	s604	False
0.1	29.286	0.825	30.111	0	UA_without_intermediate	practice	ward_and_allport	71	2.0	0.825	to_hand	poldrack-single-stim	s604	False
0.1	30.112	1.615	31.727	0	UA_without_intermediate	practice	ward_and_allport	89	2.0	1.615	to_board	poldrack-single-stim	s604	False
0.1	31.729	0.433	32.162	0	UA_without_intermediate	practice	ward_and_allport	71	2.0	0.433	to_hand	poldrack-single-stim	s604	False
0.1	32.163	0.425	32.588	0	UA_without_intermediate	practice	ward_and_allport	89	2.0	0.425	to_board	poldrack-single-stim	s604	False
1.0	32.594	2.2	32.593	0	UA_without_intermediate	practice	ward_and_allport	-1	2.0	n/a	feedback	poldrack-single-stim	s604	False
4.08	34.795	4.08	38.875	1	UA_without_intermediate	practice	ward_and_allport	71	3.0	4.08	to_hand	poldrack-single-stim	s604	False
0.1	38.877	0.463	39.34	0	UA_without_intermediate	practice	ward_and_allport	89	3.0	0.463	to_board	poldrack-single-stim	s604	False
0.1	39.341	0.722	40.063	0	UA_without_intermediate	practice	ward_and_allport	82	3.0	0.722	to_hand	poldrack-single-stim	s604	False
0.1	40.063	0.706	40.769	0	UA_without_intermediate	practice	ward_and_allport	89	3.0	0.706	to_board	poldrack-single-stim	s604	False
0.1	40.77	0.406	41.176	0	UA_without_intermediate	practice	ward_and_allport	71	3.0	0.406	to_hand	poldrack-single-stim	s604	False
0.1	41.177	0.361	41.538	0	UA_without_intermediate	practice	ward_and_allport	89	3.0	0.361	to_board	poldrack-single-stim	s604	False
1.0	41.542	2.0	41.541	0	UA_without_intermediate	practice	ward_and_allport	-1	3.0	n/a	feedback	poldrack-single-stim	s604	False
3.883	45.548	3.883	49.431	1	PA_with_intermediate	test	ward_and_allport	71	0.0	3.883	to_hand	poldrack-single-stim	s604	False
0.1	49.432	0.688	50.12	0	PA_with_intermediate	test	ward_and_allport	89	0.0	0.688	to_board	poldrack-single-stim	s604	False
0.1	50.121	0.393	50.514	0	PA_with_intermediate	test	ward_and_allport	71	0.0	0.393	to_hand	poldrack-single-stim	s604	False
0.1	50.516	0.318	50.834	0	PA_with_intermediate	test	ward_and_allport	82	0.0	0.318	to_board	poldrack-single-stim	s604	False
0.1	50.836	0.385	51.221	0	PA_with_intermediate	test	ward_and_allport	89	0.0	0.385	to_hand	poldrack-single-stim	s604	False
0.1	51.222	0.309	51.531	0	PA_with_intermediate	test	ward_and_allport	71	0.0	0.309	to_board	poldrack-single-stim	s604	False
1.0	51.536	4.176	51.535	0	PA_with_intermediate	test	ward_and_allport	-1	0.0	n/a	feedback	poldrack-single-stim	s604	False
3.353	55.713	3.353	59.066	1	PA_with_intermediate	test	ward_and_allport	82	1.0	3.353	to_hand	poldrack-single-stim	s604	False
0.1	59.067	0.437	59.504	0	PA_with_intermediate	test	ward_and_allport	71	1.0	0.437	to_board	poldrack-single-stim	s604	False
0.1	59.505	1.813	61.318	0	PA_with_intermediate	test	ward_and_allport	82	1.0	1.813	to_hand	poldrack-single-stim	s604	False
0.1	61.319	0.763	62.082	0	PA_with_intermediate	test	ward_and_allport	89	1.0	0.763	to_board	poldrack-single-stim	s604	False
0.1	62.085	0.831	62.916	0	PA_with_intermediate	test	ward_and_allport	71	1.0	0.831	to_hand	poldrack-single-stim	s604	False
0.1	62.916	0.402	63.318	0	PA_with_intermediate	test	ward_and_allport	82	1.0	0.402	to_board	poldrack-single-stim	s604	False
1.0	63.321	3.36	63.32	0	PA_with_intermediate	test	ward_and_allport	-1	1.0	n/a	feedback	poldrack-single-stim	s604	False
4.236	66.683	4.236	70.919	1	PA_with_intermediate	test	ward_and_allport	82	2.0	4.236	to_hand	poldrack-single-stim	s604	False
0.1	70.92	0.648	71.568	0	PA_with_intermediate	test	ward_and_allport	89	2.0	0.648	to_board	poldrack-single-stim	s604	False
0.1	71.571	1.111	72.682	0	PA_with_intermediate	test	ward_and_allport	82	2.0	1.111	to_hand	poldrack-single-stim	s604	False
0.1	72.682	0.396	73.078	0	PA_with_intermediate	test	ward_and_allport	71	2.0	0.396	to_board	poldrack-single-stim	s604	False
0.1	73.08	0.379	73.459	0	PA_with_intermediate	test	ward_and_allport	89	2.0	0.379	to_hand	poldrack-single-stim	s604	False
0.1	73.46	0.439	73.899	0	PA_with_intermediate	test	ward_and_allport	71	2.0	0.439	to_board	poldrack-single-stim	s604	False
1.0	73.906	2.0	73.905	0	PA_with_intermediate	test	ward_and_allport	-1	2.0	n/a	feedback	poldrack-single-stim	s604	False
3.262	75.909	3.262	79.171	1	PA_without_intermediate	test	ward_and_allport	71	3.0	3.262	to_hand	poldrack-single-stim	s604	False
0.1	79.171	0.458	79.629	0	PA_without_intermediate	test	ward_and_allport	89	3.0	0.458	to_board	poldrack-single-stim	s604	False
0.1	79.631	1.419	81.05	0	PA_without_intermediate	test	ward_and_allport	71	3.0	1.419	to_hand	poldrack-single-stim	s604	False
0.1	81.051	0.473	81.524	0	PA_without_intermediate	test	ward_and_allport	89	3.0	0.473	to_board	poldrack-single-stim	s604	False
0.1	81.527	0.558	82.085	0	PA_without_intermediate	test	ward_and_allport	71	3.0	0.558	to_hand	poldrack-single-stim	s604	False
0.1	82.086	0.646	82.732	0	PA_without_intermediate	test	ward_and_allport	82	3.0	0.646	to_board	poldrack-single-stim	s604	False
1.0	82.735	2.408	82.734	0	PA_without_intermediate	test	ward_and_allport	-1	3.0	n/a	feedback	poldrack-single-stim	s604	False
2.634	85.146	2.634	87.78	1	PA_with_intermediate	test	ward_and_allport	82	4.0	2.634	to_hand	poldrack-single-stim	s604	False
0.1	87.78	0.876	88.656	0	PA_with_intermediate	test	ward_and_allport	71	4.0	0.876	to_board	poldrack-single-stim	s604	False
0.1	88.658	0.873	89.531	0	PA_with_intermediate	test	ward_and_allport	82	4.0	0.873	to_hand	poldrack-single-stim	s604	False
0.1	89.532	0.413	89.945	0	PA_with_intermediate	test	ward_and_allport	89	4.0	0.413	to_board	poldrack-single-stim	s604	False
0.1	89.947	0.391	90.338	0	PA_with_intermediate	test	ward_and_allport	71	4.0	0.391	to_hand	poldrack-single-stim	s604	False
0.1	90.339	0.437	90.776	0	PA_with_intermediate	test	ward_and_allport	82	4.0	0.437	to_board	poldrack-single-stim	s604	False
1.0	90.783	2.816	90.782	0	PA_with_intermediate	test	ward_and_allport	-1	4.0	n/a	feedback	poldrack-single-stim	s604	False
2.855	93.602	2.855	96.457	1	PA_without_intermediate	test	ward_and_allport	89	5.0	2.855	to_hand	poldrack-single-stim	s604	False
0.1	96.458	0.651	97.109	0	PA_without_intermediate	test	ward_and_allport	82	5.0	0.651	to_board	poldrack-single-stim	s604	False
0.1	97.112	1.584	98.696	0	PA_without_intermediate	test	ward_and_allport	89	5.0	1.584	to_hand	poldrack-single-stim	s604	False
0.1	98.697	0.54	99.237	0	PA_without_intermediate	test	ward_and_allport	71	5.0	0.54	to_board	poldrack-single-stim	s604	False
0.1	99.24	0.562	99.802	0	PA_without_intermediate	test	ward_and_allport	89	5.0	0.562	to_hand	poldrack-single-stim	s604	False
0.1	99.803	0.525	100.328	0	PA_without_intermediate	test	ward_and_allport	82	5.0	0.525	to_board	poldrack-single-stim	s604	False
1.0	100.335	3.088	100.334	0	PA_without_intermediate	test	ward_and_allport	-1	5.0	n/a	feedback	poldrack-single-stim	s604	False
2.818	103.425	2.818	106.243	1	PA_without_intermediate	test	ward_and_allport	82	6.0	2.818	to_hand	poldrack-single-stim	s604	False
0.1	106.244	0.779	107.023	0	PA_without_intermediate	test	ward_and_allport	89	6.0	0.779	to_board	poldrack-single-stim	s604	False
0.1	107.026	1.636	108.662	0	PA_without_intermediate	test	ward_and_allport	82	6.0	1.636	to_hand	poldrack-single-stim	s604	False
0.1	108.663	0.744	109.407	0	PA_without_intermediate	test	ward_and_allport	89	6.0	0.744	to_board	poldrack-single-stim	s604	False
0.1	109.409	0.506	109.915	0	PA_without_intermediate	test	ward_and_allport	82	6.0	0.506	to_hand	poldrack-single-stim	s604	False
0.1	109.916	0.898	110.814	0	PA_without_intermediate	test	ward_and_allport	71	6.0	0.898	to_board	poldrack-single-stim	s604	False
1.0	110.822	2.136	110.821	0	PA_without_intermediate	test	ward_and_allport	-1	6.0	n/a	feedback	poldrack-single-stim	s604	False
2.789	112.96	2.789	115.749	1	PA_without_intermediate	test	ward_and_allport	89	7.0	2.789	to_hand	poldrack-single-stim	s604	False
0.1	115.75	0.517	116.267	0	PA_without_intermediate	test	ward_and_allport	82	7.0	0.517	to_board	poldrack-single-stim	s604	False
0.1	116.27	0.954	117.224	0	PA_without_intermediate	test	ward_and_allport	89	7.0	0.954	to_hand	poldrack-single-stim	s604	False
0.1	117.225	0.428	117.653	0	PA_without_intermediate	test	ward_and_allport	71	7.0	0.428	to_board	poldrack-single-stim	s604	False
0.1	117.656	0.344	118.0	0	PA_without_intermediate	test	ward_and_allport	89	7.0	0.344	to_hand	poldrack-single-stim	s604	False
0.1	118.001	0.544	118.545	0	PA_without_intermediate	test	ward_and_allport	82	7.0	0.544	to_board	poldrack-single-stim	s604	False
1.0	118.553	7.168	118.552	0	PA_without_intermediate	test	ward_and_allport	-1	7.0	n/a	feedback	poldrack-single-stim	s604	False
2.624	125.724	2.624	128.348	1	PA_without_intermediate	test	ward_and_allport	71	8.0	2.624	to_hand	poldrack-single-stim	s604	False
0.1	128.348	0.529	128.877	0	PA_without_intermediate	test	ward_and_allport	89	8.0	0.529	to_board	poldrack-single-stim	s604	False
0.1	128.881	0.974	129.855	0	PA_without_intermediate	test	ward_and_allport	71	8.0	0.974	to_hand	poldrack-single-stim	s604	False
0.1	129.855	0.327	130.182	0	PA_without_intermediate	test	ward_and_allport	82	8.0	0.327	to_board	poldrack-single-stim	s604	False
0.1	130.184	0.529	130.713	0	PA_without_intermediate	test	ward_and_allport	71	8.0	0.529	to_hand	poldrack-single-stim	s604	False
0.1	130.714	0.413	131.127	0	PA_without_intermediate	test	ward_and_allport	89	8.0	0.413	to_board	poldrack-single-stim	s604	False
1.0	131.136	2.816	131.135	0	PA_without_intermediate	test	ward_and_allport	-1	8.0	n/a	feedback	poldrack-single-stim	s604	False
4.374	133.954	4.374	138.328	1	PA_with_intermediate	test	ward_and_allport	89	9.0	4.374	to_hand	poldrack-single-stim	s604	False
0.1	138.329	0.62	138.949	0	PA_with_intermediate	test	ward_and_allport	71	9.0	0.62	to_board	poldrack-single-stim	s604	False
0.1	138.952	0.545	139.497	0	PA_with_intermediate	test	ward_and_allport	89	9.0	0.545	to_hand	poldrack-single-stim	s604	False
0.1	139.499	0.43	139.929	0	PA_with_intermediate	test	ward_and_allport	82	9.0	0.43	to_board	poldrack-single-stim	s604	False
0.1	139.932	0.465	140.397	0	PA_with_intermediate	test	ward_and_allport	71	9.0	0.465	to_hand	poldrack-single-stim	s604	False
0.1	140.399	0.48	140.879	0	PA_with_intermediate	test	ward_and_allport	89	9.0	0.48	to_board	poldrack-single-stim	s604	False
1.0	140.883	2.952	140.882	0	PA_with_intermediate	test	ward_and_allport	-1	9.0	n/a	feedback	poldrack-single-stim	s604	False
4.402	143.837	4.402	148.239	1	PA_with_intermediate	test	ward_and_allport	82	10.0	4.402	to_hand	poldrack-single-stim	s604	False
0.1	148.24	1.264	149.504	0	PA_with_intermediate	test	ward_and_allport	89	10.0	1.264	to_board	poldrack-single-stim	s604	False
0.1	149.508	0.558	150.066	0	PA_with_intermediate	test	ward_and_allport	82	10.0	0.558	to_hand	poldrack-single-stim	s604	False
0.1	150.067	0.469	150.536	0	PA_with_intermediate	test	ward_and_allport	71	10.0	0.469	to_board	poldrack-single-stim	s604	False
0.1	150.539	0.604	151.143	0	PA_with_intermediate	test	ward_and_allport	89	10.0	0.604	to_hand	poldrack-single-stim	s604	False
0.1	151.144	0.461	151.605	0	PA_with_intermediate	test	ward_and_allport	71	10.0	0.461	to_board	poldrack-single-stim	s604	False
1.0	151.614	2.136	151.613	0	PA_with_intermediate	test	ward_and_allport	-1	10.0	n/a	feedback	poldrack-single-stim	s604	False
2.552	153.752	2.552	156.304	1	PA_without_intermediate	test	ward_and_allport	82	11.0	2.552	to_hand	poldrack-single-stim	s604	False
0.1	156.306	0.436	156.742	0	PA_without_intermediate	test	ward_and_allport	89	11.0	0.436	to_board	poldrack-single-stim	s604	False
0.1	156.745	1.539	158.284	0	PA_without_intermediate	test	ward_and_allport	82	11.0	1.539	to_hand	poldrack-single-stim	s604	False
0.1	158.285	0.551	158.836	0	PA_without_intermediate	test	ward_and_allport	71	11.0	0.551	to_board	poldrack-single-stim	s604	False
0.1	158.839	0.977	159.816	0	PA_without_intermediate	test	ward_and_allport	82	11.0	0.977	to_hand	poldrack-single-stim	s604	False
0.1	159.818	0.389	160.207	0	PA_without_intermediate	test	ward_and_allport	89	11.0	0.389	to_board	poldrack-single-stim	s604	False
1.0	160.214	2.68	160.213	0	PA_without_intermediate	test	ward_and_allport	-1	11.0	n/a	feedback	poldrack-single-stim	s604	False
2.828	162.897	2.828	165.725	1	PA_without_intermediate	test	ward_and_allport	71	12.0	2.828	to_hand	poldrack-single-stim	s604	False
0.1	165.726	0.373	166.099	0	PA_without_intermediate	test	ward_and_allport	82	12.0	0.373	to_board	poldrack-single-stim	s604	False
0.1	166.103	0.424	166.527	0	PA_without_intermediate	test	ward_and_allport	71	12.0	0.424	to_hand	poldrack-single-stim	s604	False
0.1	166.528	0.417	166.945	0	PA_without_intermediate	test	ward_and_allport	89	12.0	0.417	to_board	poldrack-single-stim	s604	False
0.1	166.949	0.427	167.376	0	PA_without_intermediate	test	ward_and_allport	71	12.0	0.427	to_hand	poldrack-single-stim	s604	False
0.1	167.377	0.366	167.743	0	PA_without_intermediate	test	ward_and_allport	82	12.0	0.366	to_board	poldrack-single-stim	s604	False
1.0	167.752	3.088	167.751	0	PA_without_intermediate	test	ward_and_allport	-1	12.0	n/a	feedback	poldrack-single-stim	s604	False
3.714	170.844	3.714	174.558	1	PA_with_intermediate	test	ward_and_allport	82	13.0	3.714	to_hand	poldrack-single-stim	s604	False
0.1	174.559	0.32	174.879	0	PA_with_intermediate	test	ward_and_allport	71	13.0	0.32	to_board	poldrack-single-stim	s604	False
0.1	174.884	0.647	175.531	0	PA_with_intermediate	test	ward_and_allport	82	13.0	0.647	to_hand	poldrack-single-stim	s604	False
0.1	175.532	0.263	175.795	0	PA_with_intermediate	test	ward_and_allport	89	13.0	0.263	to_board	poldrack-single-stim	s604	False
0.1	175.798	0.554	176.352	0	PA_with_intermediate	test	ward_and_allport	71	13.0	0.554	to_hand	poldrack-single-stim	s604	False
0.1	176.354	0.2	176.554	0	PA_with_intermediate	test	ward_and_allport	89	13.0	0.2	to_board	poldrack-single-stim	s604	False
1.0	176.558	2.0	176.557	0	PA_with_intermediate	test	ward_and_allport	-1	13.0	n/a	feedback	poldrack-single-stim	s604	False
2.533	178.56	2.533	181.093	1	PA_without_intermediate	test	ward_and_allport	71	14.0	2.533	to_hand	poldrack-single-stim	s604	False
0.1	181.095	0.391	181.486	0	PA_without_intermediate	test	ward_and_allport	89	14.0	0.391	to_board	poldrack-single-stim	s604	False
0.1	181.49	0.678	182.168	0	PA_without_intermediate	test	ward_and_allport	71	14.0	0.678	to_hand	poldrack-single-stim	s604	False
0.1	182.17	0.295	182.465	0	PA_without_intermediate	test	ward_and_allport	89	14.0	0.295	to_board	poldrack-single-stim	s604	False
0.1	182.468	0.438	182.906	0	PA_without_intermediate	test	ward_and_allport	71	14.0	0.438	to_hand	poldrack-single-stim	s604	False
0.1	182.907	0.372	183.279	0	PA_without_intermediate	test	ward_and_allport	82	14.0	0.372	to_board	poldrack-single-stim	s604	False
1.0	183.288	2.0	183.287	0	PA_without_intermediate	test	ward_and_allport	-1	14.0	n/a	feedback	poldrack-single-stim	s604	False
2.766	190.296	2.766	193.062	1	PA_without_intermediate	test	ward_and_allport	82	15.0	2.766	to_hand	poldrack-single-stim	s604	False
0.1	193.062	0.391	193.453	0	PA_without_intermediate	test	ward_and_allport	71	15.0	0.391	to_board	poldrack-single-stim	s604	False
0.1	193.456	0.418	193.874	0	PA_without_intermediate	test	ward_and_allport	82	15.0	0.418	to_hand	poldrack-single-stim	s604	False
0.1	193.875	0.905	194.78	0	PA_without_intermediate	test	ward_and_allport	71	15.0	0.905	to_board	poldrack-single-stim	s604	False
0.1	194.784	0.504	195.288	0	PA_without_intermediate	test	ward_and_allport	82	15.0	0.504	to_hand	poldrack-single-stim	s604	False
0.1	195.289	0.282	195.571	0	PA_without_intermediate	test	ward_and_allport	89	15.0	0.282	to_board	poldrack-single-stim	s604	False
1.0	195.577	2.0	195.576	0	PA_without_intermediate	test	ward_and_allport	-1	15.0	n/a	feedback	poldrack-single-stim	s604	False
2.785	197.581	2.785	200.366	1	PA_with_intermediate	test	ward_and_allport	89	16.0	2.785	to_hand	poldrack-single-stim	s604	False
0.1	200.367	0.293	200.66	0	PA_with_intermediate	test	ward_and_allport	82	16.0	0.293	to_board	poldrack-single-stim	s604	False
0.1	200.663	0.644	201.307	0	PA_with_intermediate	test	ward_and_allport	89	16.0	0.644	to_hand	poldrack-single-stim	s604	False
0.1	201.309	0.44	201.749	0	PA_with_intermediate	test	ward_and_allport	71	16.0	0.44	to_board	poldrack-single-stim	s604	False
0.1	201.752	0.473	202.225	0	PA_with_intermediate	test	ward_and_allport	82	16.0	0.473	to_hand	poldrack-single-stim	s604	False
0.1	202.226	0.274	202.5	0	PA_with_intermediate	test	ward_and_allport	71	16.0	0.274	to_board	poldrack-single-stim	s604	False
1.0	202.508	2.544	202.507	0	PA_with_intermediate	test	ward_and_allport	-1	16.0	n/a	feedback	poldrack-single-stim	s604	False
2.219	205.055	2.219	207.274	1	PA_without_intermediate	test	ward_and_allport	89	17.0	2.219	to_hand	poldrack-single-stim	s604	False
0.1	207.275	0.25	207.525	0	PA_without_intermediate	test	ward_and_allport	71	17.0	0.25	to_board	poldrack-single-stim	s604	False
0.1	207.529	0.461	207.99	0	PA_without_intermediate	test	ward_and_allport	89	17.0	0.461	to_hand	poldrack-single-stim	s604	False
0.1	207.99	0.324	208.314	0	PA_without_intermediate	test	ward_and_allport	71	17.0	0.324	to_board	poldrack-single-stim	s604	False
0.1	208.319	0.293	208.612	0	PA_without_intermediate	test	ward_and_allport	89	17.0	0.293	to_hand	poldrack-single-stim	s604	False
0.1	208.613	0.232	208.845	0	PA_without_intermediate	test	ward_and_allport	82	17.0	0.232	to_board	poldrack-single-stim	s604	False
1.0	208.854	2.272	208.853	0	PA_without_intermediate	test	ward_and_allport	-1	17.0	n/a	feedback	poldrack-single-stim	s604	False
3.486	211.129	3.486	214.615	1	PA_with_intermediate	test	ward_and_allport	82	18.0	3.486	to_hand	poldrack-single-stim	s604	False
0.1	214.617	0.539	215.156	0	PA_with_intermediate	test	ward_and_allport	71	18.0	0.539	to_board	poldrack-single-stim	s604	False
0.1	215.16	0.834	215.994	0	PA_with_intermediate	test	ward_and_allport	82	18.0	0.834	to_hand	poldrack-single-stim	s604	False
0.1	215.995	0.244	216.239	0	PA_with_intermediate	test	ward_and_allport	89	18.0	0.244	to_board	poldrack-single-stim	s604	False
0.1	216.243	0.432	216.675	0	PA_with_intermediate	test	ward_and_allport	71	18.0	0.432	to_hand	poldrack-single-stim	s604	False
0.1	216.676	0.21	216.886	0	PA_with_intermediate	test	ward_and_allport	89	18.0	0.21	to_board	poldrack-single-stim	s604	False
1.0	216.895	4.04	216.894	0	PA_with_intermediate	test	ward_and_allport	-1	18.0	n/a	feedback	poldrack-single-stim	s604	False
1.838	220.939	1.838	222.777	1	PA_with_intermediate	test	ward_and_allport	89	19.0	1.838	to_hand	poldrack-single-stim	s604	False
0.1	222.777	0.379	223.156	0	PA_with_intermediate	test	ward_and_allport	82	19.0	0.379	to_board	poldrack-single-stim	s604	False
0.1	223.16	0.476	223.636	0	PA_with_intermediate	test	ward_and_allport	89	19.0	0.476	to_hand	poldrack-single-stim	s604	False
0.1	223.638	0.324	223.962	0	PA_with_intermediate	test	ward_and_allport	71	19.0	0.324	to_board	poldrack-single-stim	s604	False
0.1	223.966	0.322	224.288	0	PA_with_intermediate	test	ward_and_allport	82	19.0	0.322	to_hand	poldrack-single-stim	s604	False
0.1	224.289	0.324	224.613	0	PA_with_intermediate	test	ward_and_allport	89	19.0	0.324	to_board	poldrack-single-stim	s604	False
1.0	224.622	2.272	224.621	0	PA_with_intermediate	test	ward_and_allport	-1	19.0	n/a	feedback	poldrack-single-stim	s604	False
2.65	226.898	2.65	229.548	1	PA_with_intermediate	test	ward_and_allport	89	20.0	2.65	to_hand	poldrack-single-stim	s604	False
0.1	229.55	0.615	230.165	0	PA_with_intermediate	test	ward_and_allport	71	20.0	0.615	to_board	poldrack-single-stim	s604	False
0.1	230.17	0.356	230.526	0	PA_with_intermediate	test	ward_and_allport	89	20.0	0.356	to_hand	poldrack-single-stim	s604	False
0.1	230.526	0.316	230.842	0	PA_with_intermediate	test	ward_and_allport	82	20.0	0.316	to_board	poldrack-single-stim	s604	False
0.1	230.846	0.505	231.351	0	PA_with_intermediate	test	ward_and_allport	71	20.0	0.505	to_hand	poldrack-single-stim	s604	False
0.1	231.352	0.306	231.658	0	PA_with_intermediate	test	ward_and_allport	89	20.0	0.306	to_board	poldrack-single-stim	s604	False
1.0	231.668	2.136	231.667	0	PA_with_intermediate	test	ward_and_allport	-1	20.0	n/a	feedback	poldrack-single-stim	s604	False
1.874	233.807	1.874	235.681	1	PA_with_intermediate	test	ward_and_allport	82	21.0	1.874	to_hand	poldrack-single-stim	s604	False
0.1	235.682	0.379	236.061	0	PA_with_intermediate	test	ward_and_allport	89	21.0	0.379	to_board	poldrack-single-stim	s604	False
0.1	236.065	0.324	236.389	0	PA_with_intermediate	test	ward_and_allport	82	21.0	0.324	to_hand	poldrack-single-stim	s604	False
0.1	236.39	0.334	236.724	0	PA_with_intermediate	test	ward_and_allport	71	21.0	0.334	to_board	poldrack-single-stim	s604	False
0.1	236.73	0.297	237.027	0	PA_with_intermediate	test	ward_and_allport	89	21.0	0.297	to_hand	poldrack-single-stim	s604	False
0.1	237.028	0.264	237.292	0	PA_with_intermediate	test	ward_and_allport	82	21.0	0.264	to_board	poldrack-single-stim	s604	False
1.0	237.301	2.0	237.3	0	PA_with_intermediate	test	ward_and_allport	-1	21.0	n/a	feedback	poldrack-single-stim	s604	False
3.209	239.305	3.209	242.514	1	PA_with_intermediate	test	ward_and_allport	71	22.0	3.209	to_hand	poldrack-single-stim	s604	False
0.1	242.515	0.409	242.924	0	PA_with_intermediate	test	ward_and_allport	82	22.0	0.409	to_board	poldrack-single-stim	s604	False
0.1	242.93	0.516	243.446	0	PA_with_intermediate	test	ward_and_allport	71	22.0	0.516	to_hand	poldrack-single-stim	s604	False
0.1	243.447	0.367	243.814	0	PA_with_intermediate	test	ward_and_allport	89	22.0	0.367	to_board	poldrack-single-stim	s604	False
0.1	243.82	0.307	244.127	0	PA_with_intermediate	test	ward_and_allport	82	22.0	0.307	to_hand	poldrack-single-stim	s604	False
0.1	244.128	0.317	244.445	0	PA_with_intermediate	test	ward_and_allport	89	22.0	0.317	to_board	poldrack-single-stim	s604	False
1.0	244.452	2.0	244.451	0	PA_with_intermediate	test	ward_and_allport	-1	22.0	n/a	feedback	poldrack-single-stim	s604	False
1.821	246.456	1.821	248.277	1	PA_without_intermediate	test	ward_and_allport	82	23.0	1.821	to_hand	poldrack-single-stim	s604	False
0.1	248.279	0.375	248.654	0	PA_without_intermediate	test	ward_and_allport	89	23.0	0.375	to_board	poldrack-single-stim	s604	False
0.1	248.658	2.235	250.893	0	PA_without_intermediate	test	ward_and_allport	82	23.0	2.235	to_hand	poldrack-single-stim	s604	False
0.1	250.894	0.28	251.174	0	PA_without_intermediate	test	ward_and_allport	71	23.0	0.28	to_board	poldrack-single-stim	s604	False
0.1	251.179	0.35	251.529	0	PA_without_intermediate	test	ward_and_allport	82	23.0	0.35	to_hand	poldrack-single-stim	s604	False
0.1	251.531	0.367	251.898	0	PA_without_intermediate	test	ward_and_allport	89	23.0	0.367	to_board	poldrack-single-stim	s604	False
1.0	251.904	2.408	251.903	0	PA_without_intermediate	test	ward_and_allport	-1	23.0	n/a	feedback	poldrack-single-stim	s604	False
2.968	254.317	2.968	257.285	1	PA_with_intermediate	test	ward_and_allport	71	24.0	2.968	to_hand	poldrack-single-stim	s604	False
0.1	257.286	0.366	257.652	0	PA_with_intermediate	test	ward_and_allport	89	24.0	0.366	to_board	poldrack-single-stim	s604	False
0.1	257.657	0.316	257.973	0	PA_with_intermediate	test	ward_and_allport	71	24.0	0.316	to_hand	poldrack-single-stim	s604	False
0.1	257.974	0.267	258.241	0	PA_with_intermediate	test	ward_and_allport	82	24.0	0.267	to_board	poldrack-single-stim	s604	False
0.1	258.246	0.258	258.504	0	PA_with_intermediate	test	ward_and_allport	89	24.0	0.258	to_hand	poldrack-single-stim	s604	False
0.1	258.505	0.202	258.707	0	PA_with_intermediate	test	ward_and_allport	82	24.0	0.202	to_board	poldrack-single-stim	s604	False
1.0	258.715	3.768	258.714	0	PA_with_intermediate	test	ward_and_allport	-1	24.0	n/a	feedback	poldrack-single-stim	s604	False
3.117	262.49	3.117	265.607	1	PA_with_intermediate	test	ward_and_allport	89	25.0	3.117	to_hand	poldrack-single-stim	s604	False
0.1	265.608	0.23	265.838	0	PA_with_intermediate	test	ward_and_allport	71	25.0	0.23	to_board	poldrack-single-stim	s604	False
0.1	265.843	0.584	266.427	0	PA_with_intermediate	test	ward_and_allport	89	25.0	0.584	to_hand	poldrack-single-stim	s604	False
0.1	266.429	0.264	266.693	0	PA_with_intermediate	test	ward_and_allport	82	25.0	0.264	to_board	poldrack-single-stim	s604	False
0.1	266.7	0.41	267.11	0	PA_with_intermediate	test	ward_and_allport	71	25.0	0.41	to_hand	poldrack-single-stim	s604	False
0.1	267.111	0.196	267.307	0	PA_with_intermediate	test	ward_and_allport	82	25.0	0.196	to_board	poldrack-single-stim	s604	False
1.0	267.318	2.68	267.317	0	PA_with_intermediate	test	ward_and_allport	-1	25.0	n/a	feedback	poldrack-single-stim	s604	False
3.989	270.004	3.989	273.993	1	PA_without_intermediate	test	ward_and_allport	89	26.0	3.989	to_hand	poldrack-single-stim	s604	False
0.1	273.994	0.235	274.229	0	PA_without_intermediate	test	ward_and_allport	82	26.0	0.235	to_board	poldrack-single-stim	s604	False
0.1	274.236	0.634	274.87	0	PA_without_intermediate	test	ward_and_allport	89	26.0	0.634	to_hand	poldrack-single-stim	s604	False
0.1	274.871	0.213	275.084	0	PA_without_intermediate	test	ward_and_allport	82	26.0	0.213	to_board	poldrack-single-stim	s604	False
0.1	275.091	0.396	275.487	0	PA_without_intermediate	test	ward_and_allport	89	26.0	0.396	to_hand	poldrack-single-stim	s604	False
0.1	275.488	0.227	275.715	0	PA_without_intermediate	test	ward_and_allport	71	26.0	0.227	to_board	poldrack-single-stim	s604	False
1.0	275.726	3.224	275.725	0	PA_without_intermediate	test	ward_and_allport	-1	26.0	n/a	feedback	poldrack-single-stim	s604	False
2.451	278.955	2.451	281.406	1	PA_without_intermediate	test	ward_and_allport	82	27.0	2.451	to_hand	poldrack-single-stim	s604	False
0.1	281.407	0.512	281.919	0	PA_without_intermediate	test	ward_and_allport	71	27.0	0.512	to_board	poldrack-single-stim	s604	False
0.1	281.925	1.013	282.938	0	PA_without_intermediate	test	ward_and_allport	82	27.0	1.013	to_hand	poldrack-single-stim	s604	False
0.1	282.939	0.316	283.255	0	PA_without_intermediate	test	ward_and_allport	89	27.0	0.316	to_board	poldrack-single-stim	s604	False
0.1	283.26	0.321	283.581	0	PA_without_intermediate	test	ward_and_allport	82	27.0	0.321	to_hand	poldrack-single-stim	s604	False
0.1	283.582	0.322	283.904	0	PA_without_intermediate	test	ward_and_allport	71	27.0	0.322	to_board	poldrack-single-stim	s604	False
1.0	283.919	3.36	283.918	0	PA_without_intermediate	test	ward_and_allport	-1	27.0	n/a	feedback	poldrack-single-stim	s604	False
2.081	287.284	2.081	289.365	1	PA_without_intermediate	test	ward_and_allport	71	28.0	2.081	to_hand	poldrack-single-stim	s604	False
0.1	289.366	0.372	289.738	0	PA_without_intermediate	test	ward_and_allport	82	28.0	0.372	to_board	poldrack-single-stim	s604	False
0.1	289.743	0.341	290.084	0	PA_without_intermediate	test	ward_and_allport	71	28.0	0.341	to_hand	poldrack-single-stim	s604	False
0.1	290.085	0.346	290.431	0	PA_without_intermediate	test	ward_and_allport	82	28.0	0.346	to_board	poldrack-single-stim	s604	False
0.1	290.437	0.379	290.816	0	PA_without_intermediate	test	ward_and_allport	71	28.0	0.379	to_hand	poldrack-single-stim	s604	False
0.1	290.818	0.296	291.114	0	PA_without_intermediate	test	ward_and_allport	89	28.0	0.296	to_board	poldrack-single-stim	s604	False
1.0	291.128	2.0	291.127	0	PA_without_intermediate	test	ward_and_allport	-1	28.0	n/a	feedback	poldrack-single-stim	s604	False
1.721	293.135	1.721	294.856	1	PA_without_intermediate	test	ward_and_allport	89	29.0	1.721	to_hand	poldrack-single-stim	s604	False
0.1	294.857	0.38	295.237	0	PA_without_intermediate	test	ward_and_allport	71	29.0	0.38	to_board	poldrack-single-stim	s604	False
0.1	295.243	0.506	295.749	0	PA_without_intermediate	test	ward_and_allport	89	29.0	0.506	to_hand	poldrack-single-stim	s604	False
0.1	295.751	0.51	296.261	0	PA_without_intermediate	test	ward_and_allport	71	29.0	0.51	to_board	poldrack-single-stim	s604	False
0.1	296.267	0.46	296.727	0	PA_without_intermediate	test	ward_and_allport	89	29.0	0.46	to_hand	poldrack-single-stim	s604	False
0.1	296.729	0.32	297.049	0	PA_without_intermediate	test	ward_and_allport	82	29.0	0.32	to_board	poldrack-single-stim	s604	False
1.0	297.06	2.408	297.059	0	PA_without_intermediate	test	ward_and_allport	-1	29.0	n/a	feedback	poldrack-single-stim	s604	False
2.875	304.479	2.875	307.354	1	PA_with_intermediate	test	ward_and_allport	71	30.0	2.875	to_hand	poldrack-single-stim	s604	False
0.1	307.355	0.294	307.649	0	PA_with_intermediate	test	ward_and_allport	89	30.0	0.294	to_board	poldrack-single-stim	s604	False
0.1	307.655	0.309	307.964	0	PA_with_intermediate	test	ward_and_allport	71	30.0	0.309	to_hand	poldrack-single-stim	s604	False
0.1	307.965	0.255	308.22	0	PA_with_intermediate	test	ward_and_allport	82	30.0	0.255	to_board	poldrack-single-stim	s604	False
0.1	308.226	0.286	308.512	0	PA_with_intermediate	test	ward_and_allport	89	30.0	0.286	to_hand	poldrack-single-stim	s604	False
0.1	308.513	0.261	308.774	0	PA_with_intermediate	test	ward_and_allport	71	30.0	0.261	to_board	poldrack-single-stim	s604	False
1.0	308.785	2.136	308.784	0	PA_with_intermediate	test	ward_and_allport	-1	30.0	n/a	feedback	poldrack-single-stim	s604	False
4.018	310.927	4.018	314.945	1	PA_without_intermediate	test	ward_and_allport	89	31.0	4.018	to_hand	poldrack-single-stim	s604	False
0.1	314.947	0.408	315.355	0	PA_without_intermediate	test	ward_and_allport	71	31.0	0.408	to_board	poldrack-single-stim	s604	False
0.1	315.362	0.529	315.891	0	PA_without_intermediate	test	ward_and_allport	89	31.0	0.529	to_hand	poldrack-single-stim	s604	False
0.1	315.891	0.408	316.299	0	PA_without_intermediate	test	ward_and_allport	82	31.0	0.408	to_board	poldrack-single-stim	s604	False
0.1	316.305	0.247	316.552	0	PA_without_intermediate	test	ward_and_allport	89	31.0	0.247	to_hand	poldrack-single-stim	s604	False
0.1	316.553	0.207	316.76	0	PA_without_intermediate	test	ward_and_allport	71	31.0	0.207	to_board	poldrack-single-stim	s604	False
1.0	316.769	5.128	316.768	0	PA_without_intermediate	test	ward_and_allport	-1	31.0	n/a	feedback	poldrack-single-stim	s604	False
1.924	321.903	1.924	323.827	1	PA_without_intermediate	test	ward_and_allport	71	32.0	1.924	to_hand	poldrack-single-stim	s604	False
0.1	323.828	0.381	324.209	0	PA_without_intermediate	test	ward_and_allport	82	32.0	0.381	to_board	poldrack-single-stim	s604	False
0.1	324.217	0.691	324.908	0	PA_without_intermediate	test	ward_and_allport	71	32.0	0.691	to_hand	poldrack-single-stim	s604	False
0.1	324.909	0.246	325.155	0	PA_without_intermediate	test	ward_and_allport	89	32.0	0.246	to_board	poldrack-single-stim	s604	False
0.1	325.162	0.251	325.413	0	PA_without_intermediate	test	ward_and_allport	71	32.0	0.251	to_hand	poldrack-single-stim	s604	False
0.1	325.414	0.253	325.667	0	PA_without_intermediate	test	ward_and_allport	82	32.0	0.253	to_board	poldrack-single-stim	s604	False
1.0	325.681	2.136	325.68	0	PA_without_intermediate	test	ward_and_allport	-1	32.0	n/a	feedback	poldrack-single-stim	s604	False
2.855	327.824	2.855	330.679	1	PA_without_intermediate	test	ward_and_allport	82	33.0	2.855	to_hand	poldrack-single-stim	s604	False
0.1	330.68	0.272	330.952	0	PA_without_intermediate	test	ward_and_allport	71	33.0	0.272	to_board	poldrack-single-stim	s604	False
0.1	330.957	0.434	331.391	0	PA_without_intermediate	test	ward_and_allport	82	33.0	0.434	to_hand	poldrack-single-stim	s604	False
0.1	331.392	0.252	331.644	0	PA_without_intermediate	test	ward_and_allport	71	33.0	0.252	to_board	poldrack-single-stim	s604	False
0.1	331.651	0.487	332.138	0	PA_without_intermediate	test	ward_and_allport	82	33.0	0.487	to_hand	poldrack-single-stim	s604	False
0.1	332.139	0.357	332.496	0	PA_without_intermediate	test	ward_and_allport	89	33.0	0.357	to_board	poldrack-single-stim	s604	False
1.0	332.507	5.264	332.506	0	PA_without_intermediate	test	ward_and_allport	-1	33.0	n/a	feedback	poldrack-single-stim	s604	False
2.504	337.776	2.504	340.28	1	PA_with_intermediate	test	ward_and_allport	82	34.0	2.504	to_hand	poldrack-single-stim	s604	False
0.1	340.281	0.302	340.583	0	PA_with_intermediate	test	ward_and_allport	89	34.0	0.302	to_board	poldrack-single-stim	s604	False
0.1	340.589	0.525	341.114	0	PA_with_intermediate	test	ward_and_allport	82	34.0	0.525	to_hand	poldrack-single-stim	s604	False
0.1	341.115	0.306	341.421	0	PA_with_intermediate	test	ward_and_allport	71	34.0	0.306	to_board	poldrack-single-stim	s604	False
0.1	341.428	0.704	342.132	0	PA_with_intermediate	test	ward_and_allport	89	34.0	0.704	to_hand	poldrack-single-stim	s604	False
0.1	342.133	0.393	342.526	0	PA_with_intermediate	test	ward_and_allport	82	34.0	0.393	to_board	poldrack-single-stim	s604	False
1.0	342.539	4.04	342.538	0	PA_with_intermediate	test	ward_and_allport	-1	34.0	n/a	feedback	poldrack-single-stim	s604	False
2.41	346.586	2.41	348.996	1	PA_with_intermediate	test	ward_and_allport	71	35.0	2.41	to_hand	poldrack-single-stim	s604	False
0.1	348.996	0.291	349.287	0	PA_with_intermediate	test	ward_and_allport	82	35.0	0.291	to_board	poldrack-single-stim	s604	False
0.1	349.295	0.296	349.591	0	PA_with_intermediate	test	ward_and_allport	71	35.0	0.296	to_hand	poldrack-single-stim	s604	False
0.1	349.592	0.343	349.935	0	PA_with_intermediate	test	ward_and_allport	89	35.0	0.343	to_board	poldrack-single-stim	s604	False
0.1	349.943	0.34	350.283	0	PA_with_intermediate	test	ward_and_allport	82	35.0	0.34	to_hand	poldrack-single-stim	s604	False
0.1	350.284	0.316	350.6	0	PA_with_intermediate	test	ward_and_allport	71	35.0	0.316	to_board	poldrack-single-stim	s604	False
1.0	350.611	2.136	350.61	0	PA_with_intermediate	test	ward_and_allport	-1	35.0	n/a	feedback	poldrack-single-stim	s604	False
3.367	352.752	3.367	356.119	1	PA_with_intermediate	test	ward_and_allport	71	36.0	3.367	to_hand	poldrack-single-stim	s604	False
0.1	356.12	0.596	356.716	0	PA_with_intermediate	test	ward_and_allport	82	36.0	0.596	to_board	poldrack-single-stim	s604	False
0.1	356.721	0.481	357.202	0	PA_with_intermediate	test	ward_and_allport	71	36.0	0.481	to_hand	poldrack-single-stim	s604	False
0.1	357.204	0.316	357.52	0	PA_with_intermediate	test	ward_and_allport	89	36.0	0.316	to_board	poldrack-single-stim	s604	False
0.1	357.528	0.503	358.031	0	PA_with_intermediate	test	ward_and_allport	82	36.0	0.503	to_hand	poldrack-single-stim	s604	False
0.1	358.032	0.266	358.298	0	PA_with_intermediate	test	ward_and_allport	89	36.0	0.266	to_board	poldrack-single-stim	s604	False
1.0	358.312	2.408	358.311	0	PA_with_intermediate	test	ward_and_allport	-1	36.0	n/a	feedback	poldrack-single-stim	s604	False
2.915	360.727	2.915	363.642	1	PA_without_intermediate	test	ward_and_allport	89	37.0	2.915	to_hand	poldrack-single-stim	s604	False
0.1	363.643	0.29	363.933	0	PA_without_intermediate	test	ward_and_allport	71	37.0	0.29	to_board	poldrack-single-stim	s604	False
0.1	363.939	0.48	364.419	0	PA_without_intermediate	test	ward_and_allport	89	37.0	0.48	to_hand	poldrack-single-stim	s604	False
0.1	364.421	0.372	364.793	0	PA_without_intermediate	test	ward_and_allport	82	37.0	0.372	to_board	poldrack-single-stim	s604	False
0.1	364.803	0.459	365.262	0	PA_without_intermediate	test	ward_and_allport	89	37.0	0.459	to_hand	poldrack-single-stim	s604	False
0.1	365.264	0.263	365.527	0	PA_without_intermediate	test	ward_and_allport	71	37.0	0.263	to_board	poldrack-single-stim	s604	False
1.0	365.539	2.68	365.538	0	PA_without_intermediate	test	ward_and_allport	-1	37.0	n/a	feedback	poldrack-single-stim	s604	False
2.123	368.224	2.123	370.347	1	PA_with_intermediate	test	ward_and_allport	89	38.0	2.123	to_hand	poldrack-single-stim	s604	False
0.1	370.348	0.283	370.631	0	PA_with_intermediate	test	ward_and_allport	82	38.0	0.283	to_board	poldrack-single-stim	s604	False
0.1	370.637	0.414	371.051	0	PA_with_intermediate	test	ward_and_allport	89	38.0	0.414	to_hand	poldrack-single-stim	s604	False
0.1	371.052	0.279	371.331	0	PA_with_intermediate	test	ward_and_allport	71	38.0	0.279	to_board	poldrack-single-stim	s604	False
0.1	371.338	0.293	371.631	0	PA_with_intermediate	test	ward_and_allport	82	38.0	0.293	to_hand	poldrack-single-stim	s604	False
0.1	371.632	0.287	371.919	0	PA_with_intermediate	test	ward_and_allport	89	38.0	0.287	to_board	poldrack-single-stim	s604	False
1.0	371.928	4.72	371.927	0	PA_with_intermediate	test	ward_and_allport	-1	38.0	n/a	feedback	poldrack-single-stim	s604	False
1.825	376.655	1.825	378.48	1	PA_without_intermediate	test	ward_and_allport	71	39.0	1.825	to_hand	poldrack-single-stim	s604	False
0.1	378.482	0.303	378.785	0	PA_without_intermediate	test	ward_and_allport	89	39.0	0.303	to_board	poldrack-single-stim	s604	False
0.1	378.793	0.286	379.079	0	PA_without_intermediate	test	ward_and_allport	71	39.0	0.286	to_hand	poldrack-single-stim	s604	False
0.1	379.081	0.258	379.339	0	PA_without_intermediate	test	ward_and_allport	82	39.0	0.258	to_board	poldrack-single-stim	s604	False
0.1	379.346	0.43	379.776	0	PA_without_intermediate	test	ward_and_allport	71	39.0	0.43	to_hand	poldrack-single-stim	s604	False
0.1	379.777	0.379	380.156	0	PA_without_intermediate	test	ward_and_allport	89	39.0	0.379	to_board	poldrack-single-stim	s604	False
1.0	380.166	3.224	380.165	0	PA_without_intermediate	test	ward_and_allport	-1	39.0	n/a	feedback	poldrack-single-stim	s604	False
2.346	383.395	2.346	385.741	1	PA_without_intermediate	test	ward_and_allport	89	40.0	2.346	to_hand	poldrack-single-stim	s604	False
0.1	385.742	0.264	386.006	0	PA_without_intermediate	test	ward_and_allport	82	40.0	0.264	to_board	poldrack-single-stim	s604	False
0.1	386.013	0.309	386.322	0	PA_without_intermediate	test	ward_and_allport	89	40.0	0.309	to_hand	poldrack-single-stim	s604	False
0.1	386.324	0.252	386.576	0	PA_without_intermediate	test	ward_and_allport	82	40.0	0.252	to_board	poldrack-single-stim	s604	False
0.1	386.584	0.363	386.947	0	PA_without_intermediate	test	ward_and_allport	89	40.0	0.363	to_hand	poldrack-single-stim	s604	False
0.1	386.948	0.246	387.194	0	PA_without_intermediate	test	ward_and_allport	71	40.0	0.246	to_board	poldrack-single-stim	s604	False
1.0	387.207	2.272	387.206	0	PA_without_intermediate	test	ward_and_allport	-1	40.0	n/a	feedback	poldrack-single-stim	s604	False
3.207	389.487	3.207	392.694	1	PA_with_intermediate	test	ward_and_allport	71	41.0	3.207	to_hand	poldrack-single-stim	s604	False
0.1	392.694	0.452	393.146	0	PA_with_intermediate	test	ward_and_allport	82	41.0	0.452	to_board	poldrack-single-stim	s604	False
0.1	393.152	0.341	393.493	0	PA_with_intermediate	test	ward_and_allport	71	41.0	0.341	to_hand	poldrack-single-stim	s604	False
0.1	393.494	0.349	393.843	0	PA_with_intermediate	test	ward_and_allport	89	41.0	0.349	to_board	poldrack-single-stim	s604	False
0.1	393.85	0.371	394.221	0	PA_with_intermediate	test	ward_and_allport	82	41.0	0.371	to_hand	poldrack-single-stim	s604	False
0.1	394.222	0.344	394.566	0	PA_with_intermediate	test	ward_and_allport	71	41.0	0.344	to_board	poldrack-single-stim	s604	False
1.0	394.581	3.632	394.58	0	PA_with_intermediate	test	ward_and_allport	-1	41.0	n/a	feedback	poldrack-single-stim	s604	False
4.402	398.22	4.402	402.622	1	PA_without_intermediate	test	ward_and_allport	82	42.0	4.402	to_hand	poldrack-single-stim	s604	False
0.1	402.623	0.382	403.005	0	PA_without_intermediate	test	ward_and_allport	89	42.0	0.382	to_board	poldrack-single-stim	s604	False
0.1	403.015	0.404	403.419	0	PA_without_intermediate	test	ward_and_allport	82	42.0	0.404	to_hand	poldrack-single-stim	s604	False
0.1	403.421	0.618	404.039	0	PA_without_intermediate	test	ward_and_allport	89	42.0	0.618	to_board	poldrack-single-stim	s604	False
0.1	404.048	0.479	404.527	0	PA_without_intermediate	test	ward_and_allport	82	42.0	0.479	to_hand	poldrack-single-stim	s604	False
0.1	404.528	0.205	404.733	0	PA_without_intermediate	test	ward_and_allport	71	42.0	0.205	to_board	poldrack-single-stim	s604	False
1.0	404.746	2.408	404.745	0	PA_without_intermediate	test	ward_and_allport	-1	42.0	n/a	feedback	poldrack-single-stim	s604	False
2.064	407.161	2.064	409.225	1	PA_without_intermediate	test	ward_and_allport	71	43.0	2.064	to_hand	poldrack-single-stim	s604	False
0.1	409.226	0.382	409.608	0	PA_without_intermediate	test	ward_and_allport	82	43.0	0.382	to_board	poldrack-single-stim	s604	False
0.1	409.613	0.382	409.995	0	PA_without_intermediate	test	ward_and_allport	71	43.0	0.382	to_hand	poldrack-single-stim	s604	False
0.1	409.996	1.022	411.018	0	PA_without_intermediate	test	ward_and_allport	82	43.0	1.022	to_board	poldrack-single-stim	s604	False
0.1	411.026	0.515	411.541	0	PA_without_intermediate	test	ward_and_allport	71	43.0	0.515	to_hand	poldrack-single-stim	s604	False
0.1	411.541	0.396	411.937	0	PA_without_intermediate	test	ward_and_allport	89	43.0	0.396	to_board	poldrack-single-stim	s604	False
1.0	411.945	2.0	411.944	0	PA_without_intermediate	test	ward_and_allport	-1	43.0	n/a	feedback	poldrack-single-stim	s604	False
2.97	413.952	2.97	416.922	1	PA_with_intermediate	test	ward_and_allport	71	44.0	2.97	to_hand	poldrack-single-stim	s604	False
0.1	416.923	0.279	417.202	0	PA_with_intermediate	test	ward_and_allport	89	44.0	0.279	to_board	poldrack-single-stim	s604	False
0.1	417.207	0.264	417.471	0	PA_with_intermediate	test	ward_and_allport	71	44.0	0.264	to_hand	poldrack-single-stim	s604	False
0.1	417.472	0.393	417.865	0	PA_with_intermediate	test	ward_and_allport	82	44.0	0.393	to_board	poldrack-single-stim	s604	False
0.1	417.871	0.291	418.162	0	PA_with_intermediate	test	ward_and_allport	89	44.0	0.291	to_hand	poldrack-single-stim	s604	False
0.1	418.163	0.213	418.376	0	PA_with_intermediate	test	ward_and_allport	82	44.0	0.213	to_board	poldrack-single-stim	s604	False
1.0	418.383	2.0	418.382	0	PA_with_intermediate	test	ward_and_allport	-1	44.0	n/a	feedback	poldrack-single-stim	s604	False
2.259	425.394	2.259	427.653	1	PA_with_intermediate	test	ward_and_allport	89	45.0	2.259	to_hand	poldrack-single-stim	s604	False
0.1	427.654	0.252	427.906	0	PA_with_intermediate	test	ward_and_allport	82	45.0	0.252	to_board	poldrack-single-stim	s604	False
0.1	427.914	0.344	428.258	0	PA_with_intermediate	test	ward_and_allport	89	45.0	0.344	to_hand	poldrack-single-stim	s604	False
0.1	428.259	0.249	428.508	0	PA_with_intermediate	test	ward_and_allport	71	45.0	0.249	to_board	poldrack-single-stim	s604	False
0.1	428.516	0.258	428.774	0	PA_with_intermediate	test	ward_and_allport	82	45.0	0.258	to_hand	poldrack-single-stim	s604	False
0.1	428.775	0.194	428.969	0	PA_with_intermediate	test	ward_and_allport	71	45.0	0.194	to_board	poldrack-single-stim	s604	False
1.0	428.982	2.0	428.981	0	PA_with_intermediate	test	ward_and_allport	-1	45.0	n/a	feedback	poldrack-single-stim	s604	False
3.803	430.99	3.803	434.793	1	PA_with_intermediate	test	ward_and_allport	89	46.0	3.803	to_hand	poldrack-single-stim	s604	False
0.1	434.794	0.184	434.978	0	PA_with_intermediate	test	ward_and_allport	71	46.0	0.184	to_board	poldrack-single-stim	s604	False
0.1	434.984	0.337	435.321	0	PA_with_intermediate	test	ward_and_allport	89	46.0	0.337	to_hand	poldrack-single-stim	s604	False
0.1	435.322	0.266	435.588	0	PA_with_intermediate	test	ward_and_allport	82	46.0	0.266	to_board	poldrack-single-stim	s604	False
0.1	435.595	0.353	435.948	0	PA_with_intermediate	test	ward_and_allport	71	46.0	0.353	to_hand	poldrack-single-stim	s604	False
0.1	435.949	0.209	436.158	0	PA_with_intermediate	test	ward_and_allport	82	46.0	0.209	to_board	poldrack-single-stim	s604	False
1.0	436.169	2.408	436.168	0	PA_with_intermediate	test	ward_and_allport	-1	46.0	n/a	feedback	poldrack-single-stim	s604	False
2.349	438.584	2.349	440.933	1	PA_without_intermediate	test	ward_and_allport	82	47.0	2.349	to_hand	poldrack-single-stim	s604	False
0.1	440.934	0.501	441.435	0	PA_without_intermediate	test	ward_and_allport	71	47.0	0.501	to_board	poldrack-single-stim	s604	False
0.1	441.441	0.659	442.1	0	PA_without_intermediate	test	ward_and_allport	82	47.0	0.659	to_hand	poldrack-single-stim	s604	False
0.1	442.102	0.498	442.6	0	PA_without_intermediate	test	ward_and_allport	89	47.0	0.498	to_board	poldrack-single-stim	s604	False
0.1	442.607	0.348	442.955	0	PA_without_intermediate	test	ward_and_allport	82	47.0	0.348	to_hand	poldrack-single-stim	s604	False
0.1	442.955	0.239	443.194	0	PA_without_intermediate	test	ward_and_allport	71	47.0	0.239	to_board	poldrack-single-stim	s604	False
1.0	443.202	2.816	443.201	0	PA_without_intermediate	test	ward_and_allport	-1	47.0	n/a	feedback	poldrack-single-stim	s604	False
