onset	duration	movement_onset	CTI	block_duration	correct	correct_response	cue	cue_switch	experiment_exp_id	key_press	response_time	stim_color	stim_number	switch_type	task	task_switch	trial_id	trial_type	worker_id	first_trial_of_block	junk
3.62	1.0	4.415	0.1	2.136	True	71.0	Color	n/a	twobytwo	71.0	0.695	blue	6.0	task_switch	color	switch	stim	poldrack-single-stim	s605	1	False
5.866	1.0	6.53	0.1	2.68	True	71.0	Color	stay	twobytwo	71.0	0.564	blue	6.0	cue_stay	color	stay	stim	poldrack-single-stim	s605	0	False
8.658	1.0	9.674	0.1	2.544	True	89.0	Orange-Blue	switch	twobytwo	89.0	0.916	orange	8.0	cue_switch	color	stay	stim	poldrack-single-stim	s605	0	False
11.305	1.0	11.938	0.1	2.272	True	89.0	Color	switch	twobytwo	89.0	0.533	orange	3.0	cue_switch	color	stay	stim	poldrack-single-stim	s605	0	False
13.687	1.0	14.476	0.1	2.272	False	71.0	Orange-Blue	switch	twobytwo	89.0	0.689	blue	2.0	cue_switch	color	stay	stim	poldrack-single-stim	s605	0	False
16.863	1.0	18.243	0.9	2.408	True	71.0	Magnitude	n/a	twobytwo	71.0	0.48	blue	7.0	task_switch	magnitude	switch	stim	poldrack-single-stim	s605	0	False
20.175	1.0	21.609	0.9	2.136	True	71.0	Magnitude	stay	twobytwo	71.0	0.534	blue	9.0	cue_stay	magnitude	stay	stim	poldrack-single-stim	s605	0	False
23.216	1.0	24.574	0.9	2.272	True	71.0	Color	n/a	twobytwo	71.0	0.458	blue	9.0	task_switch	color	switch	stim	poldrack-single-stim	s605	0	False
26.397	1.0	27.757	0.9	2.0	True	71.0	Orange-Blue	switch	twobytwo	71.0	0.46	blue	4.0	cue_switch	color	stay	stim	poldrack-single-stim	s605	0	False
28.507	1.0	29.36	0.1	2.136	True	89.0	Color	switch	twobytwo	89.0	0.753	orange	9.0	cue_switch	color	stay	stim	poldrack-single-stim	s605	0	False
30.754	1.0	31.459	0.1	2.272	True	89.0	Color	stay	twobytwo	89.0	0.605	orange	7.0	cue_stay	color	stay	stim	poldrack-single-stim	s605	0	False
33.932	1.0	35.436	0.9	2.0	True	71.0	Magnitude	n/a	twobytwo	71.0	0.604	orange	6.0	task_switch	magnitude	switch	stim	poldrack-single-stim	s605	0	False
36.836	1.0	38.259	0.9	2.68	True	71.0	Orange-Blue	n/a	twobytwo	71.0	0.523	blue	8.0	task_switch	color	switch	stim	poldrack-single-stim	s605	0	False
39.624	1.0	40.291	0.1	2.0	True	89.0	Color	switch	twobytwo	89.0	0.567	orange	4.0	cue_switch	color	stay	stim	poldrack-single-stim	s605	0	False
42.53	1.0	43.847	0.9	2.0	True	89.0	High-Low	n/a	twobytwo	89.0	0.417	blue	2.0	task_switch	magnitude	switch	stim	poldrack-single-stim	s605	0	False
44.638	1.0	45.616	0.1	2.0	True	71.0	High-Low	stay	twobytwo	71.0	0.878	orange	6.0	cue_stay	magnitude	stay	stim	poldrack-single-stim	s605	0	False
47.543	1.0	49.222	0.9	2.272	True	89.0	Color	n/a	twobytwo	89.0	0.779	orange	9.0	task_switch	color	switch	stim	poldrack-single-stim	s605	0	False
50.722	1.0	52.443	0.9	2.0	False	71.0	High-Low	n/a	twobytwo	89.0	0.821	orange	6.0	task_switch	magnitude	switch	stim	poldrack-single-stim	s605	0	False
52.83	1.0	53.815	0.1	2.0	True	89.0	Color	n/a	twobytwo	89.0	0.885	orange	7.0	task_switch	color	switch	stim	poldrack-single-stim	s605	0	False
54.941	1.0	55.795	0.1	2.0	True	89.0	High-Low	n/a	twobytwo	89.0	0.754	blue	4.0	task_switch	magnitude	switch	stim	poldrack-single-stim	s605	0	False
57.844	1.0	59.232	0.9	2.68	True	89.0	High-Low	stay	twobytwo	89.0	0.488	blue	4.0	cue_stay	magnitude	stay	stim	poldrack-single-stim	s605	0	False
61.432	1.0	62.795	0.9	2.0	True	89.0	High-Low	stay	twobytwo	89.0	0.463	blue	2.0	cue_stay	magnitude	stay	stim	poldrack-single-stim	s605	0	False
64.341	1.0	66.235	0.9	2.136	True	71.0	Color	n/a	twobytwo	71.0	0.994	blue	4.0	task_switch	color	switch	stim	poldrack-single-stim	s605	0	False
66.582	1.0	67.461	0.1	2.408	True	89.0	Orange-Blue	switch	twobytwo	89.0	0.779	orange	2.0	cue_switch	color	stay	stim	poldrack-single-stim	s605	0	False
69.894	1.0	71.154	0.9	2.136	True	71.0	Orange-Blue	stay	twobytwo	71.0	0.36	blue	7.0	cue_stay	color	stay	stim	poldrack-single-stim	s605	0	False
72.133	1.0	73.03	0.1	2.0	True	71.0	Orange-Blue	stay	twobytwo	71.0	0.797	blue	2.0	cue_stay	color	stay	stim	poldrack-single-stim	s605	0	False
74.243	1.0	75.062	0.1	2.0	False	89.0	High-Low	n/a	twobytwo	71.0	0.719	blue	1.0	task_switch	magnitude	switch	stim	poldrack-single-stim	s605	0	False
76.35	1.0	77.279	0.1	2.544	True	89.0	Color	n/a	twobytwo	89.0	0.829	orange	8.0	task_switch	color	switch	stim	poldrack-single-stim	s605	0	False
79.804	1.0	81.291	0.9	2.136	True	71.0	Color	stay	twobytwo	71.0	0.587	blue	8.0	cue_stay	color	stay	stim	poldrack-single-stim	s605	0	False
82.852	1.0	84.33	0.9	2.544	True	89.0	Color	stay	twobytwo	89.0	0.578	orange	7.0	cue_stay	color	stay	stim	poldrack-single-stim	s605	0	False
85.504	1.0	86.28	0.1	2.68	True	89.0	Magnitude	n/a	twobytwo	89.0	0.676	orange	2.0	task_switch	magnitude	switch	stim	poldrack-single-stim	s605	0	False
88.292	1.0	89.235	0.1	2.0	True	89.0	High-Low	switch	twobytwo	89.0	0.843	blue	1.0	cue_switch	magnitude	stay	stim	poldrack-single-stim	s605	0	False
90.399	1.0	91.182	0.1	2.272	True	71.0	Color	n/a	twobytwo	71.0	0.683	blue	7.0	task_switch	color	switch	stim	poldrack-single-stim	s605	0	False
92.783	1.0	93.671	0.1	3.088	False	71.0	High-Low	n/a	twobytwo	89.0	0.788	orange	7.0	task_switch	magnitude	switch	stim	poldrack-single-stim	s605	0	False
96.777	1.0	98.497	0.9	2.0	True	89.0	Color	n/a	twobytwo	89.0	0.82	orange	6.0	task_switch	color	switch	stim	poldrack-single-stim	s605	0	False
99.681	1.0	101.05	0.9	2.136	True	89.0	Color	stay	twobytwo	89.0	0.469	orange	1.0	cue_stay	color	stay	stim	poldrack-single-stim	s605	0	False
101.922	1.0	102.978	0.1	2.136	True	89.0	Magnitude	n/a	twobytwo	89.0	0.956	blue	1.0	task_switch	magnitude	switch	stim	poldrack-single-stim	s605	0	False
104.964	1.0	106.397	0.9	2.0	True	71.0	Magnitude	stay	twobytwo	71.0	0.533	blue	9.0	cue_stay	magnitude	stay	stim	poldrack-single-stim	s605	0	False
107.071	1.0	107.899	0.1	2.272	True	89.0	High-Low	switch	twobytwo	89.0	0.728	orange	1.0	cue_switch	magnitude	stay	stim	poldrack-single-stim	s605	0	False
109.45	1.0	110.225	0.1	2.0	False	89.0	Color	n/a	twobytwo	71.0	0.675	orange	8.0	task_switch	color	switch	stim	poldrack-single-stim	s605	0	False
111.559	1.0	112.689	0.1	2.136	True	71.0	Magnitude	n/a	twobytwo	71.0	1.03	orange	7.0	task_switch	magnitude	switch	stim	poldrack-single-stim	s605	0	False
113.803	1.0	114.695	0.1	2.136	True	71.0	Color	n/a	twobytwo	71.0	0.792	blue	1.0	task_switch	color	switch	stim	poldrack-single-stim	s605	0	False
116.045	1.0	116.783	0.1	2.544	True	71.0	Color	stay	twobytwo	71.0	0.638	blue	2.0	cue_stay	color	stay	stim	poldrack-single-stim	s605	0	False
118.698	1.0	119.424	0.1	2.0	True	71.0	Magnitude	n/a	twobytwo	71.0	0.626	blue	9.0	task_switch	magnitude	switch	stim	poldrack-single-stim	s605	0	False
120.807	1.0	121.565	0.1	2.136	True	89.0	Magnitude	stay	twobytwo	89.0	0.658	blue	3.0	cue_stay	magnitude	stay	stim	poldrack-single-stim	s605	0	False
123.853	1.0	125.206	0.9	2.136	False	71.0	Color	n/a	twobytwo	89.0	0.453	blue	2.0	task_switch	color	switch	stim	poldrack-single-stim	s605	0	False
126.097	1.0	127.189	0.1	2.136	True	71.0	Magnitude	n/a	twobytwo	71.0	0.992	blue	7.0	task_switch	magnitude	switch	stim	poldrack-single-stim	s605	0	False
129.141	1.0	130.436	0.9	2.0	True	89.0	Color	n/a	twobytwo	89.0	0.395	orange	9.0	task_switch	color	switch	stim	poldrack-single-stim	s605	0	False
131.244	1.0	132.231	0.1	2.136	True	89.0	Magnitude	n/a	twobytwo	89.0	0.887	orange	4.0	task_switch	magnitude	switch	stim	poldrack-single-stim	s605	0	False
134.289	1.0	135.725	0.9	2.0	True	71.0	Magnitude	stay	twobytwo	71.0	0.536	blue	7.0	cue_stay	magnitude	stay	stim	poldrack-single-stim	s605	0	False
136.399	1.0	137.255	0.1	2.136	True	89.0	High-Low	switch	twobytwo	89.0	0.756	orange	4.0	cue_switch	magnitude	stay	stim	poldrack-single-stim	s605	0	False
138.642	1.0	139.65	0.1	2.816	True	89.0	Orange-Blue	n/a	twobytwo	89.0	0.908	orange	9.0	task_switch	color	switch	stim	poldrack-single-stim	s605	0	False
141.565	1.0	142.277	0.1	2.136	True	89.0	Orange-Blue	stay	twobytwo	89.0	0.612	orange	4.0	cue_stay	color	stay	stim	poldrack-single-stim	s605	0	False
143.808	1.0	144.591	0.1	2.0	True	71.0	Orange-Blue	stay	twobytwo	71.0	0.683	blue	3.0	cue_stay	color	stay	stim	poldrack-single-stim	s605	0	False
145.912	1.0	146.872	0.1	2.0	False	71.0	High-Low	n/a	twobytwo	89.0	0.86	orange	8.0	task_switch	magnitude	switch	stim	poldrack-single-stim	s605	0	False
148.821	1.0	150.288	0.9	2.272	True	89.0	High-Low	stay	twobytwo	89.0	0.567	blue	4.0	cue_stay	magnitude	stay	stim	poldrack-single-stim	s605	0	False
151.2	1.0	152.106	0.1	2.0	True	89.0	Orange-Blue	n/a	twobytwo	89.0	0.806	orange	4.0	task_switch	color	switch	stim	poldrack-single-stim	s605	0	False
153.307	1.0	154.176	0.1	2.0	True	71.0	Magnitude	n/a	twobytwo	71.0	0.769	orange	8.0	task_switch	magnitude	switch	stim	poldrack-single-stim	s605	0	False
156.213	1.0	157.632	0.9	2.0	True	89.0	Orange-Blue	n/a	twobytwo	89.0	0.519	orange	2.0	task_switch	color	switch	stim	poldrack-single-stim	s605	0	False
159.117	1.0	160.611	0.9	2.408	True	71.0	Magnitude	n/a	twobytwo	71.0	0.594	blue	8.0	task_switch	magnitude	switch	stim	poldrack-single-stim	s605	0	False
161.629	1.0	162.505	0.1	2.272	True	71.0	Magnitude	stay	twobytwo	71.0	0.776	orange	7.0	cue_stay	magnitude	stay	stim	poldrack-single-stim	s605	0	False
164.009	1.0	164.713	0.1	2.136	True	89.0	Color	n/a	twobytwo	89.0	0.604	orange	3.0	task_switch	color	switch	stim	poldrack-single-stim	s605	0	False
167.051	1.0	168.423	0.9	2.0	True	71.0	Orange-Blue	switch	twobytwo	71.0	0.472	blue	4.0	cue_switch	color	stay	stim	poldrack-single-stim	s605	0	False
169.958	1.0	171.707	0.9	2.0	False	71.0	Magnitude	n/a	twobytwo	89.0	0.849	orange	7.0	task_switch	magnitude	switch	stim	poldrack-single-stim	s605	0	False
172.062	1.0	172.784	0.1	2.136	True	89.0	Orange-Blue	n/a	twobytwo	89.0	0.622	orange	2.0	task_switch	color	switch	stim	poldrack-single-stim	s605	0	False
174.305	1.0	175.096	0.1	2.0	True	89.0	Magnitude	n/a	twobytwo	89.0	0.691	orange	3.0	task_switch	magnitude	switch	stim	poldrack-single-stim	s605	0	False
177.209	1.0	178.793	0.9	2.136	True	71.0	Orange-Blue	n/a	twobytwo	71.0	0.684	blue	2.0	task_switch	color	switch	stim	poldrack-single-stim	s605	0	False
179.454	1.0	180.224	0.1	2.408	True	71.0	Orange-Blue	stay	twobytwo	71.0	0.67	blue	6.0	cue_stay	color	stay	stim	poldrack-single-stim	s605	0	False
182.767	1.0	184.199	0.9	2.136	True	71.0	Magnitude	n/a	twobytwo	71.0	0.532	blue	8.0	task_switch	magnitude	switch	stim	poldrack-single-stim	s605	0	False
185.005	1.0	186.052	0.1	2.0	True	89.0	Orange-Blue	n/a	twobytwo	89.0	0.947	orange	6.0	task_switch	color	switch	stim	poldrack-single-stim	s605	0	False
187.113	1.0	187.984	0.1	2.136	True	89.0	High-Low	n/a	twobytwo	89.0	0.771	blue	2.0	task_switch	magnitude	switch	stim	poldrack-single-stim	s605	0	False
190.156	1.0	191.619	0.9	2.272	True	71.0	High-Low	stay	twobytwo	71.0	0.563	orange	8.0	cue_stay	magnitude	stay	stim	poldrack-single-stim	s605	0	False
192.535	1.0	193.231	0.1	2.0	False	89.0	Color	n/a	twobytwo	71.0	0.596	orange	8.0	task_switch	color	switch	stim	poldrack-single-stim	s605	0	False
194.644	1.0	195.655	0.1	2.408	True	71.0	Magnitude	n/a	twobytwo	71.0	0.911	orange	9.0	task_switch	magnitude	switch	stim	poldrack-single-stim	s605	0	False
197.159	1.0	197.864	0.1	2.0	True	89.0	High-Low	switch	twobytwo	89.0	0.605	orange	3.0	cue_switch	magnitude	stay	stim	poldrack-single-stim	s605	0	False
200.069	1.0	201.615	0.9	2.136	True	89.0	Color	n/a	twobytwo	89.0	0.646	orange	4.0	task_switch	color	switch	stim	poldrack-single-stim	s605	0	False
203.114	1.0	204.519	0.9	2.408	True	89.0	High-Low	n/a	twobytwo	89.0	0.505	orange	2.0	task_switch	magnitude	switch	stim	poldrack-single-stim	s605	0	False
205.631	1.0	206.461	0.1	2.136	True	71.0	Orange-Blue	n/a	twobytwo	71.0	0.73	blue	4.0	task_switch	color	switch	stim	poldrack-single-stim	s605	0	False
208.671	1.0	210.308	0.9	2.408	True	71.0	High-Low	n/a	twobytwo	71.0	0.737	orange	6.0	task_switch	magnitude	switch	stim	poldrack-single-stim	s605	0	False
211.983	1.0	213.583	0.9	2.136	False	89.0	Color	n/a	twobytwo	71.0	0.7	orange	9.0	task_switch	color	switch	stim	poldrack-single-stim	s605	0	False
227.746	1.0	228.61	0.1	2.0	True	71.0	High-Low	n/a	twobytwo	71.0	0.764	blue	6.0	task_switch	magnitude	switch	stim	poldrack-single-stim	s605	1	False
229.853	1.0	230.579	0.1	2.272	True	71.0	High-Low	stay	twobytwo	71.0	0.626	blue	6.0	cue_stay	magnitude	stay	stim	poldrack-single-stim	s605	0	False
232.232	1.0	233.053	0.1	2.0	True	71.0	Magnitude	switch	twobytwo	71.0	0.721	orange	8.0	cue_switch	magnitude	stay	stim	poldrack-single-stim	s605	0	False
234.338	1.0	235.098	0.1	2.272	True	89.0	High-Low	switch	twobytwo	89.0	0.66	orange	3.0	cue_switch	magnitude	stay	stim	poldrack-single-stim	s605	0	False
236.718	1.0	237.464	0.1	2.272	True	89.0	Magnitude	switch	twobytwo	89.0	0.646	blue	2.0	cue_switch	magnitude	stay	stim	poldrack-single-stim	s605	0	False
239.898	1.0	241.356	0.9	2.952	True	71.0	Orange-Blue	n/a	twobytwo	71.0	0.558	blue	7.0	task_switch	color	switch	stim	poldrack-single-stim	s605	0	False
243.755	1.0	245.095	0.9	2.68	True	71.0	Orange-Blue	stay	twobytwo	71.0	0.44	blue	9.0	cue_stay	color	stay	stim	poldrack-single-stim	s605	0	False
247.339	1.0	248.702	0.9	2.136	True	71.0	High-Low	n/a	twobytwo	71.0	0.463	blue	9.0	task_switch	magnitude	switch	stim	poldrack-single-stim	s605	0	False
250.382	1.0	251.772	0.9	2.272	True	89.0	Magnitude	switch	twobytwo	89.0	0.49	blue	4.0	cue_switch	magnitude	stay	stim	poldrack-single-stim	s605	0	False
252.757	1.0	253.627	0.1	2.272	True	71.0	High-Low	switch	twobytwo	71.0	0.77	orange	9.0	cue_switch	magnitude	stay	stim	poldrack-single-stim	s605	0	False
255.137	1.0	256.141	0.1	2.136	True	71.0	High-Low	stay	twobytwo	71.0	0.904	orange	7.0	cue_stay	magnitude	stay	stim	poldrack-single-stim	s605	0	False
258.177	1.0	259.604	0.9	2.408	True	89.0	Color	n/a	twobytwo	89.0	0.527	orange	6.0	task_switch	color	switch	stim	poldrack-single-stim	s605	0	False
261.489	1.0	262.959	0.9	2.136	True	71.0	Magnitude	n/a	twobytwo	71.0	0.57	blue	8.0	task_switch	magnitude	switch	stim	poldrack-single-stim	s605	0	False
263.729	1.0	264.572	0.1	2.136	True	89.0	High-Low	switch	twobytwo	89.0	0.743	orange	4.0	cue_switch	magnitude	stay	stim	poldrack-single-stim	s605	0	False
266.777	1.0	268.278	0.9	2.0	False	71.0	Orange-Blue	n/a	twobytwo	89.0	0.601	blue	2.0	task_switch	color	switch	stim	poldrack-single-stim	s605	0	False
268.882	1.0	269.748	0.1	2.0	True	89.0	Orange-Blue	stay	twobytwo	89.0	0.766	orange	6.0	cue_stay	color	stay	stim	poldrack-single-stim	s605	0	False
271.79	1.0	273.506	0.9	2.0	True	71.0	High-Low	n/a	twobytwo	71.0	0.816	orange	9.0	task_switch	magnitude	switch	stim	poldrack-single-stim	s605	0	False
274.696	1.0	276.459	0.9	2.0	True	89.0	Orange-Blue	n/a	twobytwo	89.0	0.863	orange	6.0	task_switch	color	switch	stim	poldrack-single-stim	s605	0	False
276.801	1.0	277.614	0.1	2.0	True	71.0	Magnitude	n/a	twobytwo	71.0	0.713	orange	7.0	task_switch	magnitude	switch	stim	poldrack-single-stim	s605	0	False
278.908	1.0	279.791	0.1	2.272	True	71.0	Color	n/a	twobytwo	71.0	0.783	blue	4.0	task_switch	color	switch	stim	poldrack-single-stim	s605	0	False
282.087	1.0	283.358	0.9	2.408	True	71.0	Color	stay	twobytwo	71.0	0.371	blue	4.0	cue_stay	color	stay	stim	poldrack-single-stim	s605	0	False
285.401	1.0	286.916	0.9	2.0	True	71.0	Color	stay	twobytwo	71.0	0.615	blue	2.0	cue_stay	color	stay	stim	poldrack-single-stim	s605	0	False
288.306	1.0	289.972	0.9	2.136	True	89.0	High-Low	n/a	twobytwo	89.0	0.766	blue	4.0	task_switch	magnitude	switch	stim	poldrack-single-stim	s605	0	False
290.554	1.0	291.415	0.1	2.0	True	89.0	Magnitude	switch	twobytwo	89.0	0.761	orange	2.0	cue_switch	magnitude	stay	stim	poldrack-single-stim	s605	0	False
293.458	1.0	294.778	0.9	2.136	True	71.0	Magnitude	stay	twobytwo	71.0	0.42	blue	7.0	cue_stay	magnitude	stay	stim	poldrack-single-stim	s605	0	False
295.697	1.0	296.421	0.1	2.544	True	89.0	Magnitude	stay	twobytwo	89.0	0.624	blue	2.0	cue_stay	magnitude	stay	stim	poldrack-single-stim	s605	0	False
298.349	1.0	299.232	0.1	2.68	True	71.0	Orange-Blue	n/a	twobytwo	71.0	0.783	blue	1.0	task_switch	color	switch	stim	poldrack-single-stim	s605	0	False
301.135	1.0	301.911	0.1	3.088	True	71.0	Magnitude	n/a	twobytwo	71.0	0.676	orange	8.0	task_switch	magnitude	switch	stim	poldrack-single-stim	s605	0	False
305.127	1.0	306.466	0.9	2.136	True	71.0	Magnitude	stay	twobytwo	71.0	0.439	blue	8.0	cue_stay	magnitude	stay	stim	poldrack-single-stim	s605	0	False
308.17	1.0	309.601	0.9	2.544	True	71.0	Magnitude	stay	twobytwo	71.0	0.531	orange	7.0	cue_stay	magnitude	stay	stim	poldrack-single-stim	s605	0	False
310.817	1.0	311.559	0.1	2.0	True	89.0	Orange-Blue	n/a	twobytwo	89.0	0.642	orange	2.0	task_switch	color	switch	stim	poldrack-single-stim	s605	0	False
312.924	1.0	313.759	0.1	2.136	False	71.0	Color	switch	twobytwo	89.0	0.735	blue	1.0	cue_switch	color	stay	stim	poldrack-single-stim	s605	0	False
315.167	1.0	315.878	0.1	2.0	True	71.0	High-Low	n/a	twobytwo	71.0	0.611	blue	7.0	task_switch	magnitude	switch	stim	poldrack-single-stim	s605	0	False
317.276	1.0	318.074	0.1	2.408	True	89.0	Color	n/a	twobytwo	89.0	0.698	orange	7.0	task_switch	color	switch	stim	poldrack-single-stim	s605	0	False
320.591	1.0	321.977	0.9	2.0	True	71.0	Magnitude	n/a	twobytwo	71.0	0.486	orange	6.0	task_switch	magnitude	switch	stim	poldrack-single-stim	s605	0	False
323.498	1.0	325.099	0.9	2.0	True	89.0	Magnitude	stay	twobytwo	89.0	0.701	orange	1.0	cue_stay	magnitude	stay	stim	poldrack-single-stim	s605	0	False
325.605	1.0	326.365	0.1	2.0	True	71.0	Color	n/a	twobytwo	71.0	0.66	blue	1.0	task_switch	color	switch	stim	poldrack-single-stim	s605	0	False
328.509	1.0	330.125	0.9	2.68	True	71.0	Color	stay	twobytwo	71.0	0.716	blue	9.0	cue_stay	color	stay	stim	poldrack-single-stim	s605	0	False
331.296	1.0	331.984	0.1	2.272	True	89.0	Orange-Blue	switch	twobytwo	89.0	0.588	orange	1.0	cue_switch	color	stay	stim	poldrack-single-stim	s605	0	False
333.672	1.0	334.867	0.1	2.408	True	71.0	Magnitude	n/a	twobytwo	71.0	1.095	orange	8.0	task_switch	magnitude	switch	stim	poldrack-single-stim	s605	0	False
336.184	1.0	336.919	0.1	3.224	False	89.0	Orange-Blue	n/a	twobytwo	71.0	0.635	orange	7.0	task_switch	color	switch	stim	poldrack-single-stim	s605	0	False
339.512	1.0	340.155	0.1	2.408	True	89.0	Magnitude	n/a	twobytwo	89.0	0.543	blue	1.0	task_switch	magnitude	switch	stim	poldrack-single-stim	s605	0	False
342.027	1.0	342.737	0.1	2.816	True	89.0	Magnitude	stay	twobytwo	89.0	0.61	blue	2.0	cue_stay	magnitude	stay	stim	poldrack-single-stim	s605	0	False
344.949	1.0	345.647	0.1	2.408	True	71.0	Orange-Blue	n/a	twobytwo	71.0	0.598	blue	9.0	task_switch	color	switch	stim	poldrack-single-stim	s605	0	False
347.464	1.0	348.3	0.1	2.136	False	71.0	Orange-Blue	stay	twobytwo	89.0	0.736	blue	3.0	cue_stay	color	stay	stim	poldrack-single-stim	s605	0	False
350.505	1.0	351.839	0.9	2.136	True	89.0	Magnitude	n/a	twobytwo	89.0	0.434	blue	2.0	task_switch	magnitude	switch	stim	poldrack-single-stim	s605	0	False
352.747	1.0	353.387	0.1	2.0	True	71.0	Orange-Blue	n/a	twobytwo	71.0	0.54	blue	7.0	task_switch	color	switch	stim	poldrack-single-stim	s605	0	False
355.654	1.0	357.254	0.9	2.0	False	71.0	Magnitude	n/a	twobytwo	89.0	0.7	orange	9.0	task_switch	magnitude	switch	stim	poldrack-single-stim	s605	0	False
357.761	1.0	358.506	0.1	2.272	True	89.0	Color	n/a	twobytwo	89.0	0.645	orange	4.0	task_switch	color	switch	stim	poldrack-single-stim	s605	0	False
360.938	1.0	362.464	0.9	2.408	True	71.0	Color	stay	twobytwo	71.0	0.626	blue	7.0	cue_stay	color	stay	stim	poldrack-single-stim	s605	0	False
363.454	1.0	364.201	0.1	2.0	True	89.0	Orange-Blue	switch	twobytwo	89.0	0.647	orange	4.0	cue_switch	color	stay	stim	poldrack-single-stim	s605	0	False
365.561	1.0	366.257	0.1	2.136	True	71.0	Magnitude	n/a	twobytwo	71.0	0.596	orange	9.0	task_switch	magnitude	switch	stim	poldrack-single-stim	s605	0	False
367.808	1.0	368.641	0.1	2.0	True	89.0	Magnitude	stay	twobytwo	89.0	0.733	orange	4.0	cue_stay	magnitude	stay	stim	poldrack-single-stim	s605	0	False
369.913	1.0	370.702	0.1	2.408	True	89.0	Magnitude	stay	twobytwo	89.0	0.689	blue	3.0	cue_stay	magnitude	stay	stim	poldrack-single-stim	s605	0	False
372.426	1.0	373.46	0.1	2.272	False	89.0	Color	n/a	twobytwo	71.0	0.934	orange	8.0	task_switch	color	switch	stim	poldrack-single-stim	s605	0	False
375.607	1.0	377.085	0.9	2.0	False	71.0	Color	stay	twobytwo	89.0	0.578	blue	4.0	cue_stay	color	stay	stim	poldrack-single-stim	s605	0	False
377.713	1.0	378.503	0.1	2.272	True	89.0	High-Low	n/a	twobytwo	89.0	0.69	orange	4.0	task_switch	magnitude	switch	stim	poldrack-single-stim	s605	0	False
380.092	1.0	381.035	0.1	2.0	True	89.0	Orange-Blue	n/a	twobytwo	89.0	0.843	orange	8.0	task_switch	color	switch	stim	poldrack-single-stim	s605	0	False
382.999	1.0	384.659	0.9	2.0	True	89.0	High-Low	n/a	twobytwo	89.0	0.76	orange	2.0	task_switch	magnitude	switch	stim	poldrack-single-stim	s605	0	False
385.906	1.0	387.241	0.9	2.272	True	71.0	Orange-Blue	n/a	twobytwo	71.0	0.435	blue	8.0	task_switch	color	switch	stim	poldrack-single-stim	s605	0	False
388.282	1.0	389.465	0.1	2.136	True	89.0	Orange-Blue	stay	twobytwo	89.0	1.083	orange	7.0	cue_stay	color	stay	stim	poldrack-single-stim	s605	0	False
390.524	1.0	391.258	0.1	2.0	True	89.0	Magnitude	n/a	twobytwo	89.0	0.634	orange	3.0	task_switch	magnitude	switch	stim	poldrack-single-stim	s605	0	False
393.431	1.0	395.326	0.9	2.0	False	89.0	High-Low	switch	twobytwo	71.0	0.995	blue	4.0	cue_switch	magnitude	stay	stim	poldrack-single-stim	s605	0	False
396.343	1.0	397.949	0.9	2.0	True	89.0	Color	n/a	twobytwo	89.0	0.706	orange	7.0	task_switch	color	switch	stim	poldrack-single-stim	s605	0	False
398.446	1.0	399.2	0.1	2.0	True	89.0	Magnitude	n/a	twobytwo	89.0	0.654	orange	2.0	task_switch	magnitude	switch	stim	poldrack-single-stim	s605	0	False
400.551	1.0	401.434	0.1	2.0	True	89.0	Color	n/a	twobytwo	89.0	0.783	orange	3.0	task_switch	color	switch	stim	poldrack-single-stim	s605	0	False
403.456	1.0	405.173	0.9	2.136	False	89.0	High-Low	n/a	twobytwo	71.0	0.817	blue	2.0	task_switch	magnitude	switch	stim	poldrack-single-stim	s605	0	False
405.698	1.0	406.473	0.1	2.0	True	71.0	High-Low	stay	twobytwo	71.0	0.675	blue	6.0	cue_stay	magnitude	stay	stim	poldrack-single-stim	s605	0	False
408.611	1.0	410.088	0.9	2.0	True	71.0	Color	n/a	twobytwo	71.0	0.577	blue	8.0	task_switch	color	switch	stim	poldrack-single-stim	s605	0	False
410.72	1.0	411.656	0.1	2.136	True	71.0	High-Low	n/a	twobytwo	71.0	0.836	orange	6.0	task_switch	magnitude	switch	stim	poldrack-single-stim	s605	0	False
412.963	1.0	413.888	0.1	2.0	True	71.0	Orange-Blue	n/a	twobytwo	71.0	0.825	blue	2.0	task_switch	color	switch	stim	poldrack-single-stim	s605	0	False
415.872	1.0	417.247	0.9	2.136	True	89.0	Orange-Blue	stay	twobytwo	89.0	0.475	orange	8.0	cue_stay	color	stay	stim	poldrack-single-stim	s605	0	False
418.112	1.0	418.863	0.1	2.68	True	71.0	Magnitude	n/a	twobytwo	71.0	0.651	orange	8.0	task_switch	magnitude	switch	stim	poldrack-single-stim	s605	0	False
420.899	1.0	421.683	0.1	2.272	True	89.0	Orange-Blue	n/a	twobytwo	89.0	0.684	orange	9.0	task_switch	color	switch	stim	poldrack-single-stim	s605	0	False
423.276	1.0	423.929	0.1	2.136	True	89.0	Color	switch	twobytwo	89.0	0.553	orange	3.0	cue_switch	color	stay	stim	poldrack-single-stim	s605	0	False
426.32	1.0	427.648	0.9	2.0	True	89.0	Magnitude	n/a	twobytwo	89.0	0.428	orange	4.0	task_switch	magnitude	switch	stim	poldrack-single-stim	s605	0	False
429.227	1.0	430.555	0.9	2.136	True	89.0	Color	n/a	twobytwo	89.0	0.428	orange	2.0	task_switch	color	switch	stim	poldrack-single-stim	s605	0	False
431.467	1.0	432.548	0.1	2.68	True	89.0	Magnitude	n/a	twobytwo	89.0	0.981	blue	4.0	task_switch	magnitude	switch	stim	poldrack-single-stim	s605	0	False
435.054	1.0	436.642	0.9	2.272	True	89.0	Orange-Blue	n/a	twobytwo	89.0	0.688	orange	6.0	task_switch	color	switch	stim	poldrack-single-stim	s605	0	False
438.233	1.0	439.692	0.9	2.0	True	71.0	High-Low	n/a	twobytwo	71.0	0.559	orange	9.0	task_switch	magnitude	switch	stim	poldrack-single-stim	s605	0	False
453.86	1.0	454.633	0.1	2.0	True	71.0	Magnitude	n/a	twobytwo	71.0	0.673	blue	6.0	task_switch	magnitude	switch	stim	poldrack-single-stim	s605	1	False
455.969	1.0	456.893	0.1	2.136	True	71.0	Magnitude	stay	twobytwo	71.0	0.824	blue	6.0	cue_stay	magnitude	stay	stim	poldrack-single-stim	s605	0	False
458.211	1.0	459.267	0.1	2.0	False	71.0	High-Low	switch	twobytwo	89.0	0.956	orange	8.0	cue_switch	magnitude	stay	stim	poldrack-single-stim	s605	0	False
460.318	1.0	461.28	0.1	2.0	True	89.0	Magnitude	switch	twobytwo	89.0	0.862	orange	3.0	cue_switch	magnitude	stay	stim	poldrack-single-stim	s605	0	False
462.425	1.0	463.117	0.1	2.0	True	89.0	High-Low	switch	twobytwo	89.0	0.592	blue	2.0	cue_switch	magnitude	stay	stim	poldrack-single-stim	s605	0	False
465.328	1.0	466.809	0.9	2.272	True	71.0	Color	n/a	twobytwo	71.0	0.581	blue	7.0	task_switch	color	switch	stim	poldrack-single-stim	s605	0	False
468.508	1.0	469.852	0.9	2.408	True	71.0	Color	stay	twobytwo	71.0	0.444	blue	9.0	cue_stay	color	stay	stim	poldrack-single-stim	s605	0	False
471.823	1.0	473.244	0.9	2.0	True	71.0	Magnitude	n/a	twobytwo	71.0	0.521	blue	9.0	task_switch	magnitude	switch	stim	poldrack-single-stim	s605	0	False
474.729	1.0	476.09	0.9	2.0	False	89.0	High-Low	switch	twobytwo	71.0	0.461	blue	4.0	cue_switch	magnitude	stay	stim	poldrack-single-stim	s605	0	False
476.836	1.0	477.929	0.1	2.0	True	71.0	Magnitude	switch	twobytwo	71.0	0.993	orange	9.0	cue_switch	magnitude	stay	stim	poldrack-single-stim	s605	0	False
478.943	1.0	479.662	0.1	2.272	True	71.0	Magnitude	stay	twobytwo	71.0	0.619	orange	7.0	cue_stay	magnitude	stay	stim	poldrack-single-stim	s605	0	False
482.123	1.0	483.672	0.9	2.136	True	89.0	Orange-Blue	n/a	twobytwo	89.0	0.649	orange	6.0	task_switch	color	switch	stim	poldrack-single-stim	s605	0	False
485.167	1.0	486.557	0.9	2.0	True	71.0	Magnitude	n/a	twobytwo	71.0	0.49	blue	8.0	task_switch	magnitude	switch	stim	poldrack-single-stim	s605	0	False
487.274	1.0	488.112	0.1	2.544	True	89.0	High-Low	switch	twobytwo	89.0	0.738	orange	4.0	cue_switch	magnitude	stay	stim	poldrack-single-stim	s605	0	False
490.724	1.0	492.08	0.9	2.272	False	71.0	Color	n/a	twobytwo	89.0	0.456	blue	2.0	task_switch	color	switch	stim	poldrack-single-stim	s605	0	False
493.104	1.0	493.991	0.1	2.272	True	89.0	Color	stay	twobytwo	89.0	0.787	orange	6.0	cue_stay	color	stay	stim	poldrack-single-stim	s605	0	False
496.28	1.0	497.651	0.9	2.0	True	71.0	Magnitude	n/a	twobytwo	71.0	0.471	orange	9.0	task_switch	magnitude	switch	stim	poldrack-single-stim	s605	0	False
499.183	1.0	500.802	0.9	2.0	True	89.0	Orange-Blue	n/a	twobytwo	89.0	0.719	orange	6.0	task_switch	color	switch	stim	poldrack-single-stim	s605	0	False
501.288	1.0	502.221	0.1	2.136	True	71.0	High-Low	n/a	twobytwo	71.0	0.833	orange	7.0	task_switch	magnitude	switch	stim	poldrack-single-stim	s605	0	False
503.528	1.0	504.458	0.1	2.0	True	71.0	Orange-Blue	n/a	twobytwo	71.0	0.83	blue	4.0	task_switch	color	switch	stim	poldrack-single-stim	s605	0	False
506.435	1.0	508.064	0.9	2.136	True	71.0	Orange-Blue	stay	twobytwo	71.0	0.729	blue	4.0	cue_stay	color	stay	stim	poldrack-single-stim	s605	0	False
509.483	1.0	511.017	0.9	2.272	True	71.0	Orange-Blue	stay	twobytwo	71.0	0.634	blue	2.0	cue_stay	color	stay	stim	poldrack-single-stim	s605	0	False
512.664	1.0	514.457	0.9	2.136	False	89.0	High-Low	n/a	twobytwo	71.0	0.893	blue	4.0	task_switch	magnitude	switch	stim	poldrack-single-stim	s605	0	False
514.91	1.0	515.608	0.1	2.272	True	89.0	Magnitude	switch	twobytwo	89.0	0.598	orange	2.0	cue_switch	magnitude	stay	stim	poldrack-single-stim	s605	0	False
518.086	1.0	519.565	0.9	2.0	True	71.0	Magnitude	stay	twobytwo	71.0	0.579	blue	7.0	cue_stay	magnitude	stay	stim	poldrack-single-stim	s605	0	False
520.198	1.0	520.852	0.1	2.816	True	89.0	Magnitude	stay	twobytwo	89.0	0.554	blue	2.0	cue_stay	magnitude	stay	stim	poldrack-single-stim	s605	0	False
523.117	1.0	523.848	0.1	2.408	True	71.0	Orange-Blue	n/a	twobytwo	71.0	0.631	blue	1.0	task_switch	color	switch	stim	poldrack-single-stim	s605	0	False
525.633	1.0	526.342	0.1	2.0	True	71.0	Magnitude	n/a	twobytwo	71.0	0.609	orange	8.0	task_switch	magnitude	switch	stim	poldrack-single-stim	s605	0	False
528.535	1.0	529.938	0.9	2.544	True	71.0	Magnitude	stay	twobytwo	71.0	0.503	blue	8.0	cue_stay	magnitude	stay	stim	poldrack-single-stim	s605	0	False
531.987	1.0	533.511	0.9	2.136	True	71.0	Magnitude	stay	twobytwo	71.0	0.624	orange	7.0	cue_stay	magnitude	stay	stim	poldrack-single-stim	s605	0	False
534.226	1.0	534.925	0.1	2.0	True	89.0	Orange-Blue	n/a	twobytwo	89.0	0.599	orange	2.0	task_switch	color	switch	stim	poldrack-single-stim	s605	0	False
536.331	1.0	537.152	0.1	2.0	True	71.0	Color	switch	twobytwo	71.0	0.721	blue	1.0	cue_switch	color	stay	stim	poldrack-single-stim	s605	0	False
538.435	1.0	539.136	0.1	2.136	True	71.0	Magnitude	n/a	twobytwo	71.0	0.601	blue	7.0	task_switch	magnitude	switch	stim	poldrack-single-stim	s605	0	False
540.681	1.0	541.403	0.1	2.136	True	89.0	Orange-Blue	n/a	twobytwo	89.0	0.622	orange	7.0	task_switch	color	switch	stim	poldrack-single-stim	s605	0	False
543.724	1.0	545.21	0.9	2.272	True	71.0	Magnitude	n/a	twobytwo	71.0	0.586	orange	6.0	task_switch	magnitude	switch	stim	poldrack-single-stim	s605	0	False
546.905	1.0	548.426	0.9	3.224	True	89.0	Magnitude	stay	twobytwo	89.0	0.621	orange	1.0	cue_stay	magnitude	stay	stim	poldrack-single-stim	s605	0	False
550.236	1.0	551.009	0.1	2.0	True	71.0	Orange-Blue	n/a	twobytwo	71.0	0.673	blue	1.0	task_switch	color	switch	stim	poldrack-single-stim	s605	0	False
553.148	1.0	554.622	0.9	2.0	True	71.0	Orange-Blue	stay	twobytwo	71.0	0.574	blue	9.0	cue_stay	color	stay	stim	poldrack-single-stim	s605	0	False
555.255	1.0	555.947	0.1	2.272	True	89.0	Color	switch	twobytwo	89.0	0.592	orange	1.0	cue_switch	color	stay	stim	poldrack-single-stim	s605	0	False
557.63	1.0	558.29	0.1	2.136	True	71.0	Magnitude	n/a	twobytwo	71.0	0.56	orange	8.0	task_switch	magnitude	switch	stim	poldrack-single-stim	s605	0	False
559.873	1.0	560.56	0.1	2.0	False	89.0	Color	n/a	twobytwo	71.0	0.587	orange	7.0	task_switch	color	switch	stim	poldrack-single-stim	s605	0	False
561.98	1.0	562.858	0.1	2.0	True	89.0	Magnitude	n/a	twobytwo	89.0	0.778	blue	1.0	task_switch	magnitude	switch	stim	poldrack-single-stim	s605	0	False
564.087	1.0	564.775	0.1	2.0	True	89.0	Magnitude	stay	twobytwo	89.0	0.588	blue	2.0	cue_stay	magnitude	stay	stim	poldrack-single-stim	s605	0	False
566.191	1.0	566.913	0.1	2.68	True	71.0	Color	n/a	twobytwo	71.0	0.622	blue	9.0	task_switch	color	switch	stim	poldrack-single-stim	s605	0	False
568.978	1.0	569.941	0.1	2.0	True	71.0	Color	stay	twobytwo	71.0	0.863	blue	3.0	cue_stay	color	stay	stim	poldrack-single-stim	s605	0	False
571.884	1.0	573.209	0.9	2.272	True	89.0	Magnitude	n/a	twobytwo	89.0	0.425	blue	2.0	task_switch	magnitude	switch	stim	poldrack-single-stim	s605	0	False
574.263	1.0	574.894	0.1	2.0	True	71.0	Orange-Blue	n/a	twobytwo	71.0	0.531	blue	7.0	task_switch	color	switch	stim	poldrack-single-stim	s605	0	False
577.17	1.0	578.761	0.9	2.272	True	71.0	Magnitude	n/a	twobytwo	71.0	0.691	orange	9.0	task_switch	magnitude	switch	stim	poldrack-single-stim	s605	0	False
579.546	1.0	580.51	0.1	2.952	True	89.0	Orange-Blue	n/a	twobytwo	89.0	0.864	orange	4.0	task_switch	color	switch	stim	poldrack-single-stim	s605	0	False
583.406	1.0	584.736	0.9	2.0	True	71.0	Orange-Blue	stay	twobytwo	71.0	0.43	blue	7.0	cue_stay	color	stay	stim	poldrack-single-stim	s605	0	False
585.511	1.0	586.616	0.1	2.0	True	89.0	Color	switch	twobytwo	89.0	1.005	orange	4.0	cue_switch	color	stay	stim	poldrack-single-stim	s605	0	False
587.617	1.0	588.834	0.1	2.0	True	71.0	Magnitude	n/a	twobytwo	71.0	1.117	orange	9.0	task_switch	magnitude	switch	stim	poldrack-single-stim	s605	0	False
589.725	1.0	590.517	0.1	2.0	True	89.0	Magnitude	stay	twobytwo	89.0	0.692	orange	4.0	cue_stay	magnitude	stay	stim	poldrack-single-stim	s605	0	False
591.834	1.0	592.839	0.1	2.136	True	89.0	Magnitude	stay	twobytwo	89.0	0.905	blue	3.0	cue_stay	magnitude	stay	stim	poldrack-single-stim	s605	0	False
594.077	1.0	594.752	0.1	2.0	False	89.0	Orange-Blue	n/a	twobytwo	71.0	0.575	orange	8.0	task_switch	color	switch	stim	poldrack-single-stim	s605	0	False
596.984	1.0	598.273	0.9	2.0	True	71.0	Orange-Blue	stay	twobytwo	71.0	0.389	blue	4.0	cue_stay	color	stay	stim	poldrack-single-stim	s605	0	False
599.09	1.0	599.819	0.1	2.0	True	89.0	Magnitude	n/a	twobytwo	89.0	0.629	orange	4.0	task_switch	magnitude	switch	stim	poldrack-single-stim	s605	0	False
601.197	1.0	601.916	0.1	2.272	False	89.0	Orange-Blue	n/a	twobytwo	71.0	0.619	orange	8.0	task_switch	color	switch	stim	poldrack-single-stim	s605	0	False
604.373	1.0	605.973	0.9	2.136	True	89.0	High-Low	n/a	twobytwo	89.0	0.7	orange	2.0	task_switch	magnitude	switch	stim	poldrack-single-stim	s605	0	False
607.416	1.0	608.865	0.9	2.0	True	71.0	Orange-Blue	n/a	twobytwo	71.0	0.549	blue	8.0	task_switch	color	switch	stim	poldrack-single-stim	s605	0	False
609.526	1.0	610.316	0.1	2.136	True	89.0	Orange-Blue	stay	twobytwo	89.0	0.69	orange	7.0	cue_stay	color	stay	stim	poldrack-single-stim	s605	0	False
611.773	1.0	612.5	0.1	2.816	True	89.0	High-Low	n/a	twobytwo	89.0	0.627	orange	3.0	task_switch	magnitude	switch	stim	poldrack-single-stim	s605	0	False
615.494	1.0	617.056	0.9	2.408	True	89.0	Magnitude	switch	twobytwo	89.0	0.662	blue	4.0	cue_switch	magnitude	stay	stim	poldrack-single-stim	s605	0	False
618.808	1.0	620.468	0.9	2.0	True	89.0	Orange-Blue	n/a	twobytwo	89.0	0.76	orange	7.0	task_switch	color	switch	stim	poldrack-single-stim	s605	0	False
620.913	1.0	621.578	0.1	2.136	True	89.0	Magnitude	n/a	twobytwo	89.0	0.565	orange	2.0	task_switch	magnitude	switch	stim	poldrack-single-stim	s605	0	False
623.153	1.0	623.915	0.1	2.136	True	89.0	Orange-Blue	n/a	twobytwo	89.0	0.662	orange	3.0	task_switch	color	switch	stim	poldrack-single-stim	s605	0	False
626.192	1.0	627.587	0.9	2.136	True	89.0	Magnitude	n/a	twobytwo	89.0	0.495	blue	2.0	task_switch	magnitude	switch	stim	poldrack-single-stim	s605	0	False
628.435	1.0	629.107	0.1	2.544	True	71.0	Magnitude	stay	twobytwo	71.0	0.572	blue	6.0	cue_stay	magnitude	stay	stim	poldrack-single-stim	s605	0	False
631.884	1.0	633.244	0.9	2.136	True	71.0	Color	n/a	twobytwo	71.0	0.46	blue	8.0	task_switch	color	switch	stim	poldrack-single-stim	s605	0	False
634.131	1.0	635.14	0.1	2.0	False	71.0	High-Low	n/a	twobytwo	89.0	0.909	orange	6.0	task_switch	magnitude	switch	stim	poldrack-single-stim	s605	0	False
636.238	1.0	636.94	0.1	2.0	False	71.0	Orange-Blue	n/a	twobytwo	89.0	0.602	blue	2.0	task_switch	color	switch	stim	poldrack-single-stim	s605	0	False
639.145	1.0	640.682	0.9	2.0	True	89.0	Orange-Blue	stay	twobytwo	89.0	0.637	orange	8.0	cue_stay	color	stay	stim	poldrack-single-stim	s605	0	False
641.25	1.0	642.165	0.1	2.0	True	71.0	Magnitude	n/a	twobytwo	71.0	0.815	orange	8.0	task_switch	magnitude	switch	stim	poldrack-single-stim	s605	0	False
643.356	1.0	644.05	0.1	2.136	False	89.0	Color	n/a	twobytwo	71.0	0.594	orange	9.0	task_switch	color	switch	stim	poldrack-single-stim	s605	0	False
645.598	1.0	646.796	0.1	2.0	True	89.0	Orange-Blue	switch	twobytwo	89.0	1.098	orange	3.0	cue_switch	color	stay	stim	poldrack-single-stim	s605	0	False
648.505	1.0	649.885	0.9	2.0	True	89.0	High-Low	n/a	twobytwo	89.0	0.48	orange	4.0	task_switch	magnitude	switch	stim	poldrack-single-stim	s605	0	False
651.412	1.0	653.049	0.9	2.0	True	89.0	Color	n/a	twobytwo	89.0	0.737	orange	2.0	task_switch	color	switch	stim	poldrack-single-stim	s605	0	False
653.521	1.0	654.43	0.1	2.136	True	89.0	High-Low	n/a	twobytwo	89.0	0.809	blue	4.0	task_switch	magnitude	switch	stim	poldrack-single-stim	s605	0	False
656.566	1.0	658.213	0.9	2.136	True	89.0	Orange-Blue	n/a	twobytwo	89.0	0.747	orange	6.0	task_switch	color	switch	stim	poldrack-single-stim	s605	0	False
659.61	1.0	661.379	0.9	2.136	False	71.0	High-Low	n/a	twobytwo	89.0	0.869	orange	9.0	task_switch	magnitude	switch	stim	poldrack-single-stim	s605	0	False
