onset	duration	movement_onset	EV	action	block_duration	experiment_exp_id	gain_amount	gain_probability	key_press	loss_amount	loss_probability	num_cards	num_click_in_round	num_loss_cards	risk	response_time	total_cards	trial_id	trial_type	worker_id	junk	feedback
3.013	1.494	4.507	-0.708854748040141	draw_card	1.494	columbia_card_task_fmri	12.0	0.8333333333333334	89.0	-70.0	0.1666666666666666	6.0	1.0	1.0	-1.298651068907855	1.494	1.0	stim	poldrack-single-stim	s605	False	0
5.266	1.5	4.515	n/a	-1.0	2.25	columbia_card_task_fmri	n/a	n/a	-1.0	n/a	n/a	n/a	n/a	n/a	n/a	n/a	n/a	ITI	poldrack-single-stim	s605	False	0
6.768	1.662	8.43	0.1244785852931928	draw_card	1.662	columbia_card_task_fmri	14.0	0.8333333333333334	89.0	-75.0	0.1666666666666666	6.0	1.0	1.0	1.308915139683975	1.662	n/a	stim	poldrack-single-stim	s605	False	1
8.432	1.536	9.968	-2.842188081373474	draw_card	1.536	columbia_card_task_fmri	14.0	0.8	89.0	-75.0	0.2	6.0	2.0	1.0	3.739629399782928	1.536	n/a	stim	poldrack-single-stim	s605	False	1
9.97	2.726	12.696	-7.292188081373474	draw_card	2.726	columbia_card_task_fmri	14.0	0.75	89.0	-75.0	0.25	6.0	3.0	1.0	6.676778023669293	2.726	3.0	stim	poldrack-single-stim	s605	False	0
13.45	1.5	12.699	n/a	-1.0	2.386	columbia_card_task_fmri	n/a	n/a	-1.0	n/a	n/a	n/a	n/a	n/a	n/a	n/a	n/a	ITI	poldrack-single-stim	s605	False	0
15.087	0.773	15.86	1.791145251959859	draw_card	0.773	columbia_card_task_fmri	15.0	0.8333333333333334	89.0	-70.0	0.1666666666666666	6.0	1.0	1.0	-0.1811464711245385	0.773	n/a	stim	poldrack-single-stim	s605	False	1
15.862	2.867	18.729	-1.042188081373475	draw_card	2.867	columbia_card_task_fmri	15.0	0.8	89.0	-70.0	0.2	6.0	2.0	1.0	2.1402354025158346	2.867	n/a	stim	poldrack-single-stim	s605	False	1
18.73	0.812	19.542	-5.2921880813734745	end_round	0.812	columbia_card_task_fmri	15.0	0.75	71.0	-70.0	0.25	6.0	3.0	1.0	4.945287064122908	0.812	2.0	stim	poldrack-single-stim	s605	False	1
20.294	1.5	19.543	n/a	-1.0	2.59	columbia_card_task_fmri	n/a	n/a	-1.0	n/a	n/a	n/a	n/a	n/a	n/a	n/a	n/a	ITI	poldrack-single-stim	s605	False	0
22.136	1.987	24.123	2.624478585293193	draw_card	1.987	columbia_card_task_fmri	17.0	0.8333333333333334	89.0	-75.0	0.1666666666666666	6.0	1.0	1.0	2.4264984389888085	1.987	n/a	stim	poldrack-single-stim	s605	False	1
24.125	2.934	27.059	-0.4421880813734735	draw_card	2.934	columbia_card_task_fmri	17.0	0.8	89.0	-75.0	0.2	6.0	2.0	1.0	4.93920946117305	2.934	n/a	stim	poldrack-single-stim	s605	False	1
27.061	1.354	28.415	-5.0421880813734745	draw_card	1.354	columbia_card_task_fmri	17.0	0.75	89.0	-75.0	0.25	6.0	3.0	1.0	7.975428176799149	1.354	3.0	stim	poldrack-single-stim	s605	False	0
29.168	1.5	28.417	n/a	-1.0	2.658	columbia_card_task_fmri	n/a	n/a	-1.0	n/a	n/a	n/a	n/a	n/a	n/a	n/a	n/a	ITI	poldrack-single-stim	s605	False	0
31.079	1.156	32.235	3.957811918626525	draw_card	1.156	columbia_card_task_fmri	24.0	0.75	89.0	-60.0	0.25	8.0	1.0	2.0	4.512422651076079	1.156	n/a	stim	poldrack-single-stim	s605	False	1
32.237	1.183	33.42	0.957811918626525	draw_card	1.183	columbia_card_task_fmri	24.0	0.7142857142857143	89.0	-60.0	0.2857142857142857	8.0	2.0	2.0	6.086164699772681	1.183	n/a	stim	poldrack-single-stim	s605	False	1
33.422	0.972	34.394	-3.042188081373475	draw_card	0.972	columbia_card_task_fmri	24.0	0.6666666666666667	89.0	-60.0	0.3333333333333333	8.0	3.0	2.0	7.73630887087964	0.972	3.0	stim	poldrack-single-stim	s605	False	0
35.147	1.5	34.396	n/a	-1.0	2.386	columbia_card_task_fmri	n/a	n/a	-1.0	n/a	n/a	n/a	n/a	n/a	n/a	n/a	n/a	ITI	poldrack-single-stim	s605	False	0
36.785	1.137	37.922	3.957811918626525	draw_card	1.137	columbia_card_task_fmri	29.0	0.75	89.0	-75.0	0.25	8.0	1.0	2.0	13.170252524630335	1.137	n/a	stim	poldrack-single-stim	s605	False	1
37.924	2.113	40.037	0.2435262043408133	draw_card	2.113	columbia_card_task_fmri	29.0	0.7142857142857143	89.0	-75.0	0.2857142857142857	8.0	2.0	2.0	15.11892005178794	2.113	n/a	stim	poldrack-single-stim	s605	False	1
40.038	0.972	41.01	-4.708854748040139	end_round	0.972	columbia_card_task_fmri	29.0	0.6666666666666667	71.0	-75.0	0.3333333333333333	8.0	3.0	2.0	17.1621724013023	0.972	2.0	stim	poldrack-single-stim	s605	False	1
41.765	1.5	41.014	n/a	-1.0	2.386	columbia_card_task_fmri	n/a	n/a	-1.0	n/a	n/a	n/a	n/a	n/a	n/a	n/a	n/a	ITI	poldrack-single-stim	s605	False	0
43.402	1.628	45.03	-0.2644103035956946	draw_card	1.628	columbia_card_task_fmri	17.0	0.7777777777777778	89.0	-65.0	0.2222222222222222	9.0	1.0	2.0	2.230855737608749	1.628	n/a	stim	poldrack-single-stim	s605	False	1
45.033	1.523	46.556	-2.542188081373475	draw_card	1.523	columbia_card_task_fmri	17.0	0.75	89.0	-65.0	0.25	9.0	2.0	2.0	3.6467046695845937	1.523	n/a	stim	poldrack-single-stim	s605	False	1
46.557	1.115	47.672	-5.470759509944902	draw_card	1.115	columbia_card_task_fmri	17.0	0.7142857142857143	89.0	-65.0	0.2857142857142857	9.0	3.0	2.0	5.182951478335262	1.115	3.0	stim	poldrack-single-stim	s605	False	0
48.426	1.5	47.675	n/a	-1.0	2.25	columbia_card_task_fmri	n/a	n/a	-1.0	n/a	n/a	n/a	n/a	n/a	n/a	n/a	n/a	ITI	poldrack-single-stim	s605	False	0
49.928	0.994	50.922	4.057811918626525	draw_card	0.994	columbia_card_task_fmri	14.0	0.9	89.0	-95.0	0.1	10.0	1.0	1.0	0.8407714192610172	0.994	n/a	stim	poldrack-single-stim	s605	False	1
50.924	1.211	52.135	2.8467008075154125	draw_card	1.211	columbia_card_task_fmri	14.0	0.8888888888888888	89.0	-95.0	0.1111111111111111	10.0	2.0	1.0	2.3955300539067608	1.211	n/a	stim	poldrack-single-stim	s605	False	1
52.137	0.604	52.741	1.332811918626525	end_round	0.604	columbia_card_task_fmri	14.0	0.875	71.0	-95.0	0.125	10.0	3.0	1.0	4.187830839566004	0.604	2.0	stim	poldrack-single-stim	s605	False	1
53.493	1.5	52.742	n/a	-1.0	2.318	columbia_card_task_fmri	n/a	n/a	-1.0	n/a	n/a	n/a	n/a	n/a	n/a	n/a	n/a	ITI	poldrack-single-stim	s605	False	0
55.063	1.154	56.217	-0.0421880813734749	draw_card	1.154	columbia_card_task_fmri	15.0	0.8	89.0	-65.0	0.2	10.0	1.0	2.0	0.1410780708999723	1.154	n/a	stim	poldrack-single-stim	s605	False	1
56.219	1.38	57.599	-1.819965859151252	draw_card	1.38	columbia_card_task_fmri	15.0	0.7777777777777778	89.0	-65.0	0.2222222222222222	10.0	2.0	2.0	1.399712498131933	1.38	n/a	stim	poldrack-single-stim	s605	False	1
57.6	1.794	59.394	-4.0421880813734745	end_round	1.794	columbia_card_task_fmri	15.0	0.75	71.0	-65.0	0.25	10.0	3.0	2.0	2.7810020506117183	1.794	2.0	stim	poldrack-single-stim	s605	False	1
60.148	1.5	59.397	n/a	-1.0	2.25	columbia_card_task_fmri	n/a	n/a	-1.0	n/a	n/a	n/a	n/a	n/a	n/a	n/a	n/a	ITI	poldrack-single-stim	s605	False	0
61.65	1.133	62.783	1.5578119186265265	draw_card	1.133	columbia_card_task_fmri	17.0	0.8	89.0	-65.0	0.2	10.0	1.0	2.0	0.940728679667444	1.133	n/a	stim	poldrack-single-stim	s605	False	1
62.785	1.51	64.295	-0.2644103035956946	draw_card	1.51	columbia_card_task_fmri	17.0	0.7777777777777778	89.0	-65.0	0.2222222222222222	10.0	2.0	2.0	2.230855737608749	1.51	n/a	stim	poldrack-single-stim	s605	False	1
64.297	1.228	65.525	-2.542188081373475	draw_card	1.228	columbia_card_task_fmri	17.0	0.75	89.0	-65.0	0.25	10.0	3.0	2.0	3.6467046695845937	1.228	3.0	stim	poldrack-single-stim	s605	False	0
66.28	1.5	65.529	n/a	-1.0	2.25	columbia_card_task_fmri	n/a	n/a	-1.0	n/a	n/a	n/a	n/a	n/a	n/a	n/a	n/a	ITI	poldrack-single-stim	s605	False	0
67.783	0.717	68.5	0.1244785852931928	draw_card	0.717	columbia_card_task_fmri	13.0	0.8333333333333334	89.0	-70.0	0.1666666666666666	12.0	1.0	2.0	-0.926153785406136	0.717	n/a	stim	poldrack-single-stim	s605	False	1
68.502	1.177	69.679	-1.1330971722825685	draw_card	1.177	columbia_card_task_fmri	13.0	0.8181818181818181	89.0	-70.0	0.1818181818181818	12.0	2.0	2.0	0.1537248666159811	1.177	n/a	stim	poldrack-single-stim	s605	False	1
69.681	1.53	71.211	-2.6421880813734746	end_round	1.53	columbia_card_task_fmri	13.0	0.8	71.0	-70.0	0.2	12.0	3.0	2.0	1.340560294346794	1.53	2.0	stim	poldrack-single-stim	s605	False	1
71.964	1.5	71.213	n/a	-1.0	2.386	columbia_card_task_fmri	n/a	n/a	-1.0	n/a	n/a	n/a	n/a	n/a	n/a	n/a	n/a	ITI	poldrack-single-stim	s605	False	0
73.602	0.744	74.346	0.1244785852931928	draw_card	0.744	columbia_card_task_fmri	15.0	0.8333333333333334	89.0	-80.0	0.1666666666666666	12.0	1.0	2.0	3.5441101867557663	0.744	n/a	stim	poldrack-single-stim	s605	False	1
74.347	0.799	75.146	-1.31491535410075	draw_card	0.799	columbia_card_task_fmri	15.0	0.8181818181818181	89.0	-80.0	0.1818181818181818	12.0	2.0	2.0	4.780251279601721	0.799	n/a	stim	poldrack-single-stim	s605	False	1
75.148	1.351	76.499	-3.042188081373475	end_round	1.351	columbia_card_task_fmri	15.0	0.8	71.0	-80.0	0.2	12.0	3.0	2.0	6.138816031950547	1.351	2.0	stim	poldrack-single-stim	s605	False	1
77.252	1.5	76.501	n/a	-1.0	2.386	columbia_card_task_fmri	n/a	n/a	-1.0	n/a	n/a	n/a	n/a	n/a	n/a	n/a	n/a	ITI	poldrack-single-stim	s605	False	0
78.889	1.198	80.087	-0.8421880813734739	draw_card	1.198	columbia_card_task_fmri	14.0	0.8	89.0	-65.0	0.2	15.0	1.0	3.0	-0.2587406039656414	1.198	n/a	stim	poldrack-single-stim	s605	False	1
80.09	1.026	81.116	-1.970759509944902	draw_card	1.026	columbia_card_task_fmri	14.0	0.7857142857142857	89.0	-65.0	0.2142857142857142	15.0	2.0	3.0	0.5566407099009609	1.026	n/a	stim	poldrack-single-stim	s605	False	1
81.118	3.098	84.216	-3.2729573121427067	draw_card	3.098	columbia_card_task_fmri	14.0	0.7692307692307692	89.0	-65.0	0.2307692307692307	15.0	3.0	3.0	1.4252036610998573	3.098	n/a	stim	poldrack-single-stim	s605	False	1
84.219	1.088	85.307	-4.7921880813734745	end_round	1.088	columbia_card_task_fmri	14.0	0.75	71.0	-65.0	0.25	15.0	4.0	3.0	2.3481568664086154	1.088	3.0	stim	poldrack-single-stim	s605	False	1
86.061	1.5	85.31	n/a	-1.0	2.726	columbia_card_task_fmri	n/a	n/a	-1.0	n/a	n/a	n/a	n/a	n/a	n/a	n/a	n/a	ITI	poldrack-single-stim	s605	False	0
88.04	1.058	89.098	-0.917188081373475	draw_card	1.058	columbia_card_task_fmri	1.0	0.9375	89.0	-45.0	0.0625	16.0	1.0	1.0	-20.6973067194238	1.058	n/a	stim	poldrack-single-stim	s605	False	1
89.101	1.318	90.419	-1.1088547480401414	draw_card	1.318	columbia_card_task_fmri	1.0	0.9333333333333332	89.0	-45.0	0.0666666666666666	16.0	2.0	1.0	-20.358930510793385	1.318	n/a	stim	poldrack-single-stim	s605	False	1
90.421	1.662	92.083	-1.3279023670877603	draw_card	1.662	columbia_card_task_fmri	1.0	0.9285714285714286	89.0	-45.0	0.0714285714285714	16.0	3.0	1.0	-19.98778545237466	1.662	n/a	stim	poldrack-single-stim	s605	False	1
92.085	1.229	93.314	-1.5806496198350133	end_round	1.229	columbia_card_task_fmri	1.0	0.9230769230769232	71.0	-45.0	0.0769230769230769	16.0	4.0	1.0	-19.57829791120689	1.229	3.0	stim	poldrack-single-stim	s605	False	1
94.069	1.5	93.318	n/a	-1.0	2.454	columbia_card_task_fmri	n/a	n/a	-1.0	n/a	n/a	n/a	n/a	n/a	n/a	n/a	n/a	ITI	poldrack-single-stim	s605	False	0
95.775	2.896	98.671	0.020311918626525	draw_card	2.896	columbia_card_task_fmri	15.0	0.8125	89.0	-70.0	0.1875	16.0	1.0	3.0	1.317121919679181	2.896	n/a	stim	poldrack-single-stim	s605	False	1
98.674	1.201	99.875	-1.042188081373475	draw_card	1.201	columbia_card_task_fmri	15.0	0.8	89.0	-70.0	0.2	16.0	2.0	3.0	2.1402354025158346	1.201	n/a	stim	poldrack-single-stim	s605	False	1
99.878	1.646	101.524	-2.2564737956591903	draw_card	1.646	columbia_card_task_fmri	15.0	0.7857142857142857	89.0	-70.0	0.2142857142857142	16.0	3.0	3.0	3.017597873451244	1.646	n/a	stim	poldrack-single-stim	s605	False	1
101.527	1.095	102.622	-3.657572696758092	draw_card	1.095	columbia_card_task_fmri	15.0	0.7692307692307692	89.0	-70.0	0.2307692307692307	16.0	4.0	3.0	3.9521817001433055	1.095	4.0	stim	poldrack-single-stim	s605	False	0
103.377	1.5	102.626	n/a	-1.0	2.318	columbia_card_task_fmri	n/a	n/a	-1.0	n/a	n/a	n/a	n/a	n/a	n/a	n/a	n/a	ITI	poldrack-single-stim	s605	False	0
104.947	1.707	106.654	6.9578119186265255	draw_card	1.707	columbia_card_task_fmri	30.0	0.7	89.0	-50.0	0.3	10.0	1.0	3.0	4.799862391219925	1.707	1.0	stim	poldrack-single-stim	s605	False	0
107.409	1.5	106.658	n/a	-1.0	2.318	columbia_card_task_fmri	n/a	n/a	-1.0	n/a	n/a	n/a	n/a	n/a	n/a	n/a	n/a	ITI	poldrack-single-stim	s605	False	0
108.978	1.858	110.836	6.357811918626526	draw_card	1.858	columbia_card_task_fmri	17.0	0.8666666666666667	89.0	-70.0	0.1333333333333333	15.0	1.0	2.0	-2.2834338951811475	1.858	n/a	stim	poldrack-single-stim	s605	False	1
110.839	1.056	111.895	5.529240490055098	draw_card	1.056	columbia_card_task_fmri	17.0	0.8571428571428572	89.0	-70.0	0.1428571428571428	15.0	2.0	2.0	-1.4145314095954866	1.056	n/a	stim	poldrack-single-stim	s605	False	1
111.898	0.57	112.468	4.5731965340111405	end_round	0.57	columbia_card_task_fmri	17.0	0.8461538461538461	71.0	-70.0	0.1538461538461538	15.0	3.0	2.0	-0.4689379530114763	0.57	2.0	stim	poldrack-single-stim	s605	False	1
113.222	1.5	112.471	n/a	-1.0	2.59	columbia_card_task_fmri	n/a	n/a	-1.0	n/a	n/a	n/a	n/a	n/a	n/a	n/a	n/a	ITI	poldrack-single-stim	s605	False	0
115.064	1.484	116.548	1.582811918626525	draw_card	1.484	columbia_card_task_fmri	7.0	0.9375	89.0	-95.0	0.0625	16.0	1.0	1.0	-7.164413060758385	1.484	n/a	stim	poldrack-single-stim	s605	False	1
116.551	1.886	118.437	1.1578119186265252	draw_card	1.886	columbia_card_task_fmri	7.0	0.9333333333333332	89.0	-95.0	0.0666666666666666	16.0	2.0	1.0	-6.411960889940051	1.886	n/a	stim	poldrack-single-stim	s605	False	1
118.439	0.948	119.387	0.6720976329122395	draw_card	0.948	columbia_card_task_fmri	7.0	0.9285714285714286	89.0	-95.0	0.0714285714285714	16.0	3.0	1.0	-5.586780810826774	0.948	n/a	stim	poldrack-single-stim	s605	False	1
119.39	0.629	120.019	0.1116580724726783	end_round	0.629	columbia_card_task_fmri	7.0	0.9230769230769232	71.0	-95.0	0.0769230769230769	16.0	4.0	1.0	-4.676507652160801	0.629	3.0	stim	poldrack-single-stim	s605	False	1
120.772	1.5	120.021	n/a	-1.0	2.726	columbia_card_task_fmri	n/a	n/a	-1.0	n/a	n/a	n/a	n/a	n/a	n/a	n/a	n/a	ITI	poldrack-single-stim	s605	False	0
122.75	0.905	123.655	3.145311918626525	draw_card	0.905	columbia_card_task_fmri	9.0	0.9375	89.0	-100.0	0.0625	16.0	1.0	1.0	-5.471174684512068	0.905	n/a	stim	poldrack-single-stim	s605	False	1
123.657	0.936	124.593	2.6911452519598584	draw_card	0.936	columbia_card_task_fmri	9.0	0.9333333333333332	89.0	-100.0	0.0666666666666666	16.0	2.0	1.0	-4.667010745613528	0.936	n/a	stim	poldrack-single-stim	s605	False	1
124.596	0.955	125.551	2.1720976329122403	draw_card	0.955	columbia_card_task_fmri	9.0	0.9285714285714286	89.0	-100.0	0.0714285714285714	16.0	3.0	1.0	-3.7851255202706575	0.955	n/a	stim	poldrack-single-stim	s605	False	1
125.553	1.581	127.134	1.573196534011141	draw_card	1.581	columbia_card_task_fmri	9.0	0.9230769230769232	89.0	-100.0	0.0769230769230769	16.0	4.0	1.0	-2.812305035554832	1.581	n/a	stim	poldrack-single-stim	s605	False	1
127.136	2.537	129.673	0.8744785852931929	end_round	2.537	columbia_card_task_fmri	9.0	0.9166666666666666	71.0	-100.0	0.0833333333333333	16.0	5.0	1.0	-1.7320223785276063	2.537	4.0	stim	poldrack-single-stim	s605	False	1
130.427	1.5	129.676	n/a	-1.0	2.522	columbia_card_task_fmri	n/a	n/a	-1.0	n/a	n/a	n/a	n/a	n/a	n/a	n/a	n/a	ITI	poldrack-single-stim	s605	False	0
132.202	1.627	133.829	4.0828119186265255	draw_card	1.627	columbia_card_task_fmri	15.0	0.875	89.0	-80.0	0.125	16.0	1.0	2.0	-0.4403598927095586	1.627	n/a	stim	poldrack-single-stim	s605	False	1
133.832	0.933	134.765	3.291145251959859	draw_card	0.933	columbia_card_task_fmri	15.0	0.8666666666666667	89.0	-80.0	0.1333333333333333	16.0	2.0	2.0	0.4347380040319137	0.933	2.0	stim	poldrack-single-stim	s605	False	0
135.521	1.5	134.77	n/a	-1.0	3.134	columbia_card_task_fmri	n/a	n/a	-1.0	n/a	n/a	n/a	n/a	n/a	n/a	n/a	n/a	ITI	poldrack-single-stim	s605	False	0
137.909	0.848	138.757	6.2078119186265255	draw_card	0.848	columbia_card_task_fmri	16.0	0.875	89.0	-70.0	0.125	16.0	1.0	2.0	-3.4153034076494286	0.848	n/a	stim	poldrack-single-stim	s605	False	1
138.76	1.721	140.481	5.491145251959859	draw_card	1.721	columbia_card_task_fmri	16.0	0.8666666666666667	89.0	-70.0	0.1333333333333333	16.0	2.0	2.0	-2.6231883223226227	1.721	n/a	stim	poldrack-single-stim	s605	False	1
140.483	1.568	142.051	4.672097632912241	draw_card	1.568	columbia_card_task_fmri	16.0	0.8571428571428572	89.0	-70.0	0.1428571428571428	16.0	3.0	2.0	-1.7642834467431143	1.568	n/a	stim	poldrack-single-stim	s605	False	1
142.054	0.91	142.964	3.727042687857293	end_round	0.91	columbia_card_task_fmri	16.0	0.8461538461538461	71.0	-70.0	0.1538461538461538	16.0	4.0	2.0	-0.8295693651409302	0.91	3.0	stim	poldrack-single-stim	s605	False	1
143.72	1.5	142.969	n/a	-1.0	2.386	columbia_card_task_fmri	n/a	n/a	-1.0	n/a	n/a	n/a	n/a	n/a	n/a	n/a	n/a	ITI	poldrack-single-stim	s605	False	0
145.358	0.773	146.131	7.520311918626525	draw_card	0.773	columbia_card_task_fmri	30.0	0.6875	89.0	-45.0	0.3125	16.0	1.0	5.0	2.903369705857507	0.773	n/a	stim	poldrack-single-stim	s605	False	1
146.133	3.249	149.382	5.957811918626529	draw_card	3.249	columbia_card_task_fmri	30.0	0.6666666666666667	89.0	-45.0	0.3333333333333333	16.0	2.0	5.0	3.4950575745141066	3.249	n/a	stim	poldrack-single-stim	s605	False	1
149.385	2.102	151.487	4.172097632912237	end_round	2.102	columbia_card_task_fmri	30.0	0.6428571428571428	71.0	-45.0	0.3571428571428571	16.0	3.0	5.0	4.076315486295336	2.102	2.0	stim	poldrack-single-stim	s605	False	1
152.244	1.5	151.493	n/a	-1.0	2.386	columbia_card_task_fmri	n/a	n/a	-1.0	n/a	n/a	n/a	n/a	n/a	n/a	n/a	n/a	ITI	poldrack-single-stim	s605	False	0
153.882	2.324	156.206	-0.708854748040141	draw_card	2.324	columbia_card_task_fmri	13.0	0.8333333333333334	89.0	-75.0	0.1666666666666666	6.0	1.0	1.0	0.9363941975915466	2.324	n/a	stim	poldrack-single-stim	s605	False	1
156.209	1.856	158.065	-3.6421880813734746	end_round	1.856	columbia_card_task_fmri	13.0	0.8	71.0	-75.0	0.2	6.0	2.0	1.0	3.3397757385592257	1.856	1.0	stim	poldrack-single-stim	s605	False	1
158.818	1.5	158.067	n/a	-1.0	2.318	columbia_card_task_fmri	n/a	n/a	-1.0	n/a	n/a	n/a	n/a	n/a	n/a	n/a	n/a	ITI	poldrack-single-stim	s605	False	0
160.389	0.851	161.24	0.9578119186265268	draw_card	0.851	columbia_card_task_fmri	14.0	0.8333333333333334	89.0	-70.0	0.1666666666666666	6.0	1.0	1.0	-0.5536522022748578	0.851	n/a	stim	poldrack-single-stim	s605	False	1
161.243	1.133	162.376	-1.842188081373474	draw_card	1.133	columbia_card_task_fmri	14.0	0.8	89.0	-70.0	0.2	6.0	2.0	1.0	1.7403959157292237	1.133	n/a	stim	poldrack-single-stim	s605	False	1
162.379	1.322	163.701	-6.0421880813734745	end_round	1.322	columbia_card_task_fmri	14.0	0.75	71.0	-70.0	0.25	6.0	3.0	1.0	4.512422651076079	1.322	2.0	stim	poldrack-single-stim	s605	False	1
164.455	1.5	163.704	n/a	-1.0	2.318	columbia_card_task_fmri	n/a	n/a	-1.0	n/a	n/a	n/a	n/a	n/a	n/a	n/a	n/a	ITI	poldrack-single-stim	s605	False	0
166.027	0.686	166.713	0.9578119186265268	draw_card	0.686	columbia_card_task_fmri	16.0	0.8333333333333334	89.0	-80.0	0.1666666666666666	6.0	1.0	1.0	3.916653297262535	0.686	n/a	stim	poldrack-single-stim	s605	False	1
166.715	1.277	167.992	-2.2421880813734743	end_round	1.277	columbia_card_task_fmri	16.0	0.8	71.0	-80.0	0.2	6.0	2.0	1.0	6.538690350577021	1.277	1.0	stim	poldrack-single-stim	s605	False	1
168.749	1.5	167.998	n/a	-1.0	2.862	columbia_card_task_fmri	n/a	n/a	-1.0	n/a	n/a	n/a	n/a	n/a	n/a	n/a	n/a	ITI	poldrack-single-stim	s605	False	0
170.864	1.005	171.869	3.457811918626527	draw_card	1.005	columbia_card_task_fmri	17.0	0.8333333333333334	89.0	-70.0	0.1666666666666666	6.0	1.0	1.0	0.5638768636049392	1.005	n/a	stim	poldrack-single-stim	s605	False	1
171.871	0.861	172.732	0.5578119186265265	draw_card	0.861	columbia_card_task_fmri	17.0	0.8	89.0	-70.0	0.2	6.0	2.0	1.0	2.939925439556852	0.861	n/a	stim	poldrack-single-stim	s605	False	1
172.734	3.344	176.078	-3.792188081373475	end_round	3.344	columbia_card_task_fmri	17.0	0.75	71.0	-70.0	0.25	6.0	3.0	1.0	5.811026111980446	3.344	2.0	stim	poldrack-single-stim	s605	False	1
176.835	1.5	176.084	n/a	-1.0	2.726	columbia_card_task_fmri	n/a	n/a	-1.0	n/a	n/a	n/a	n/a	n/a	n/a	n/a	n/a	ITI	poldrack-single-stim	s605	False	0
178.813	3.739	182.552	3.457811918626525	draw_card	3.739	columbia_card_task_fmri	25.0	0.75	89.0	-65.0	0.25	8.0	1.0	2.0	7.109658535619971	3.739	n/a	stim	poldrack-single-stim	s605	False	1
182.554	0.914	183.468	0.2435262043408133	draw_card	0.914	columbia_card_task_fmri	25.0	0.7142857142857143	89.0	-65.0	0.2857142857142857	8.0	2.0	2.0	8.795882911278007	0.914	2.0	stim	poldrack-single-stim	s605	False	0
184.226	1.5	183.475	n/a	-1.0	2.25	columbia_card_task_fmri	n/a	n/a	-1.0	n/a	n/a	n/a	n/a	n/a	n/a	n/a	n/a	ITI	poldrack-single-stim	s605	False	0
185.728	1.705	187.433	3.457811918626525	draw_card	1.705	columbia_card_task_fmri	30.0	0.75	89.0	-80.0	0.25	8.0	1.0	2.0	15.767773323495376	1.705	n/a	stim	poldrack-single-stim	s605	False	1
187.436	1.65	189.086	-0.4707595099448984	draw_card	1.65	columbia_card_task_fmri	30.0	0.7142857142857143	89.0	-80.0	0.2857142857142857	8.0	2.0	2.0	17.82891137570926	1.65	n/a	stim	poldrack-single-stim	s605	False	1
189.091	2.051	191.142	-5.708854748040135	end_round	2.051	columbia_card_task_fmri	30.0	0.6666666666666667	71.0	-80.0	0.3333333333333333	8.0	3.0	2.0	19.990089321512546	2.051	2.0	stim	poldrack-single-stim	s605	False	1
191.897	1.5	191.146	n/a	-1.0	2.318	columbia_card_task_fmri	n/a	n/a	-1.0	n/a	n/a	n/a	n/a	n/a	n/a	n/a	n/a	ITI	poldrack-single-stim	s605	False	0
193.468	1.052	194.52	3.157811918626526	draw_card	1.052	columbia_card_task_fmri	13.0	0.9	89.0	-95.0	0.1	10.0	1.0	1.0	0.5409012199603183	1.052	n/a	stim	poldrack-single-stim	s605	False	1
194.523	2.735	197.258	1.957811918626525	draw_card	2.735	columbia_card_task_fmri	13.0	0.8888888888888888	89.0	-95.0	0.1111111111111111	10.0	2.0	1.0	2.0813842875047754	2.735	n/a	stim	poldrack-single-stim	s605	False	1
197.261	1.604	198.865	0.457811918626525	end_round	1.604	columbia_card_task_fmri	13.0	0.875	71.0	-95.0	0.125	10.0	3.0	1.0	3.857229683346688	1.604	2.0	stim	poldrack-single-stim	s605	False	1
199.622	1.5	198.871	n/a	-1.0	2.454	columbia_card_task_fmri	n/a	n/a	-1.0	n/a	n/a	n/a	n/a	n/a	n/a	n/a	n/a	ITI	poldrack-single-stim	s605	False	0
201.329	2.323	203.652	4.557811918626525	draw_card	2.323	columbia_card_task_fmri	14.0	0.9	89.0	-90.0	0.1	10.0	1.0	1.0	-0.658554632711116	2.323	n/a	stim	poldrack-single-stim	s605	False	1
203.655	1.167	204.822	3.402256363070968	draw_card	1.167	columbia_card_task_fmri	14.0	0.8888888888888888	89.0	-90.0	0.1111111111111111	10.0	2.0	1.0	0.8248250366233592	1.167	n/a	stim	poldrack-single-stim	s605	False	1
204.826	1.141	205.967	1.957811918626525	draw_card	1.141	columbia_card_task_fmri	14.0	0.875	89.0	-90.0	0.125	10.0	3.0	1.0	2.534847691375667	1.141	n/a	stim	poldrack-single-stim	s605	False	1
205.97	0.884	206.854	0.1006690614836691	end_round	0.884	columbia_card_task_fmri	14.0	0.8571428571428572	71.0	-90.0	0.1428571428571428	10.0	4.0	1.0	4.531768025192697	0.884	3.0	stim	poldrack-single-stim	s605	False	1
207.607	1.5	206.856	n/a	-1.0	2.522	columbia_card_task_fmri	n/a	n/a	-1.0	n/a	n/a	n/a	n/a	n/a	n/a	n/a	n/a	ITI	poldrack-single-stim	s605	False	0
209.382	3.398	212.78	-0.2421880813734742	draw_card	3.398	columbia_card_task_fmri	16.0	0.8	89.0	-70.0	0.2	10.0	1.0	2.0	2.5400786199732863	3.398	n/a	stim	poldrack-single-stim	s605	False	1
212.783	2.178	214.961	-2.1532991924845857	draw_card	2.178	columbia_card_task_fmri	16.0	0.7777777777777778	89.0	-70.0	0.2222222222222222	10.0	2.0	2.0	3.893189099100411	2.178	n/a	stim	poldrack-single-stim	s605	False	1
214.964	1.69	216.654	-4.5421880813734745	draw_card	1.69	columbia_card_task_fmri	16.0	0.75	89.0	-70.0	0.25	10.0	3.0	2.0	5.378154924017252	1.69	3.0	stim	poldrack-single-stim	s605	False	0
217.41	1.5	216.659	n/a	-1.0	2.318	columbia_card_task_fmri	n/a	n/a	-1.0	n/a	n/a	n/a	n/a	n/a	n/a	n/a	n/a	ITI	poldrack-single-stim	s605	False	0
218.98	0.629	219.609	-0.958854748040141	draw_card	0.629	columbia_card_task_fmri	7.0	0.9166666666666666	89.0	-100.0	0.0833333333333333	12.0	1.0	1.0	-2.2845087964161124	0.629	n/a	stim	poldrack-single-stim	s605	False	1
219.614	1.928	221.542	-1.7694608086462034	draw_card	1.928	columbia_card_task_fmri	7.0	0.9090909090909092	89.0	-100.0	0.0909090909090909	12.0	2.0	1.0	-1.098007405494016	1.928	n/a	stim	poldrack-single-stim	s605	False	1
221.545	1.128	222.673	-2.742188081373475	end_round	1.128	columbia_card_task_fmri	7.0	0.9	71.0	-100.0	0.1	12.0	3.0	1.0	0.2410334452370577	1.128	2.0	stim	poldrack-single-stim	s605	False	1
223.427	1.5	222.676	n/a	-1.0	2.522	columbia_card_task_fmri	n/a	n/a	-1.0	n/a	n/a	n/a	n/a	n/a	n/a	n/a	n/a	ITI	poldrack-single-stim	s605	False	0
225.203	1.047	226.25	-0.7088547480401393	draw_card	1.047	columbia_card_task_fmri	14.0	0.8333333333333334	89.0	-80.0	0.1666666666666666	12.0	1.0	2.0	3.171569944567288	1.047	1.0	stim	poldrack-single-stim	s605	False	0
227.004	1.5	226.253	n/a	-1.0	2.998	columbia_card_task_fmri	n/a	n/a	-1.0	n/a	n/a	n/a	n/a	n/a	n/a	n/a	n/a	ITI	poldrack-single-stim	s605	False	0
229.256	1.039	230.295	0.957811918626525	draw_card	1.039	columbia_card_task_fmri	15.0	0.8333333333333334	89.0	-75.0	0.1666666666666666	12.0	1.0	2.0	1.6814395697117206	1.039	n/a	stim	poldrack-single-stim	s605	False	1
230.298	1.146	231.444	-0.40582444500984	draw_card	1.146	columbia_card_task_fmri	15.0	0.8181818181818181	89.0	-75.0	0.1818181818181818	12.0	2.0	2.0	2.8524733534835534	1.146	n/a	stim	poldrack-single-stim	s605	False	1
231.449	2.165	233.614	-2.042188081373475	end_round	2.165	columbia_card_task_fmri	15.0	0.8	71.0	-75.0	0.2	12.0	3.0	2.0	4.139486311234549	2.165	2.0	stim	poldrack-single-stim	s605	False	1
234.369	1.5	233.618	n/a	-1.0	2.318	columbia_card_task_fmri	n/a	n/a	-1.0	n/a	n/a	n/a	n/a	n/a	n/a	n/a	n/a	ITI	poldrack-single-stim	s605	False	0
235.941	1.272	237.213	-0.0421880813734749	draw_card	1.272	columbia_card_task_fmri	15.0	0.8	89.0	-65.0	0.2	15.0	1.0	3.0	0.1410780708999723	1.272	1.0	stim	poldrack-single-stim	s605	False	0
237.966	1.5	237.215	n/a	-1.0	2.25	columbia_card_task_fmri	n/a	n/a	-1.0	n/a	n/a	n/a	n/a	n/a	n/a	n/a	n/a	ITI	poldrack-single-stim	s605	False	0
239.47	1.306	240.776	-0.792188081373475	draw_card	1.306	columbia_card_task_fmri	14.0	0.8125	89.0	-70.0	0.1875	16.0	1.0	3.0	0.9269740369846816	1.306	n/a	stim	poldrack-single-stim	s605	False	1
240.779	1.266	242.045	-1.842188081373474	draw_card	1.266	columbia_card_task_fmri	14.0	0.8	89.0	-70.0	0.2	16.0	2.0	3.0	1.7403959157292237	1.266	n/a	stim	poldrack-single-stim	s605	False	1
242.049	0.936	242.985	-3.042188081373475	draw_card	0.936	columbia_card_task_fmri	14.0	0.7857142857142857	89.0	-70.0	0.2142857142857142	16.0	3.0	3.0	2.607428448685617	0.936	n/a	stim	poldrack-single-stim	s605	False	1
242.989	1.581	244.57	-4.42680346598886	draw_card	1.581	columbia_card_task_fmri	14.0	0.7692307692307692	89.0	-70.0	0.2307692307692307	16.0	4.0	3.0	3.531009053918837	1.581	n/a	stim	poldrack-single-stim	s605	False	1
244.574	2.291	246.865	-6.0421880813734745	end_round	2.291	columbia_card_task_fmri	14.0	0.75	71.0	-70.0	0.25	16.0	5.0	3.0	4.512422651076079	2.291	4.0	stim	poldrack-single-stim	s605	False	1
247.623	1.5	246.872	n/a	-1.0	2.454	columbia_card_task_fmri	n/a	n/a	-1.0	n/a	n/a	n/a	n/a	n/a	n/a	n/a	n/a	ITI	poldrack-single-stim	s605	False	0
249.329	1.412	250.741	-0.854688081373475	draw_card	1.412	columbia_card_task_fmri	11.0	0.6875	89.0	-30.0	0.3125	16.0	1.0	5.0	-12.845122728638966	1.412	1.0	stim	poldrack-single-stim	s605	False	0
251.499	1.5	250.748	n/a	-1.0	2.318	columbia_card_task_fmri	n/a	n/a	-1.0	n/a	n/a	n/a	n/a	n/a	n/a	n/a	n/a	ITI	poldrack-single-stim	s605	False	0
253.07	1.594	254.664	3.957811918626525	draw_card	1.594	columbia_card_task_fmri	15.0	0.8666666666666667	89.0	-75.0	0.1333333333333333	15.0	1.0	2.0	-1.2641466042663687	1.594	1.0	stim	poldrack-single-stim	s605	False	0
255.419	1.5	254.668	n/a	-1.0	2.318	columbia_card_task_fmri	n/a	n/a	-1.0	n/a	n/a	n/a	n/a	n/a	n/a	n/a	n/a	ITI	poldrack-single-stim	s605	False	0
256.99	1.152	258.142	5.69114525195986	draw_card	1.152	columbia_card_task_fmri	17.0	0.8666666666666667	89.0	-75.0	0.1333333333333333	15.0	1.0	2.0	-0.5846030393430617	1.152	1.0	stim	poldrack-single-stim	s605	False	0
258.896	1.5	258.145	n/a	-1.0	2.59	columbia_card_task_fmri	n/a	n/a	-1.0	n/a	n/a	n/a	n/a	n/a	n/a	n/a	n/a	ITI	poldrack-single-stim	s605	False	0
260.74	0.589	261.329	1.270311918626525	draw_card	0.589	columbia_card_task_fmri	2.0	0.9375	89.0	-25.0	0.0625	16.0	1.0	1.0	-25.267782130419377	0.589	n/a	stim	poldrack-single-stim	s605	False	1
261.333	1.197	262.53	1.157811918626525	draw_card	1.197	columbia_card_task_fmri	2.0	0.9333333333333332	89.0	-25.0	0.0666666666666666	16.0	2.0	1.0	-25.070503438332278	1.197	n/a	stim	poldrack-single-stim	s605	False	1
262.533	3.308	265.841	1.0292404900550969	draw_card	3.308	columbia_card_task_fmri	2.0	0.9285714285714286	89.0	-25.0	0.0714285714285714	16.0	3.0	1.0	-24.85403350285205	3.308	n/a	stim	poldrack-single-stim	s605	False	1
265.846	4.284	270.13	0.8808888417034482	end_round	4.284	columbia_card_task_fmri	2.0	0.9230769230769232	71.0	-25.0	0.0769230769230769	16.0	4.0	1.0	-24.615104815408767	4.284	3.0	stim	poldrack-single-stim	s605	False	1
270.885	1.5	270.134	n/a	-1.0	2.25	columbia_card_task_fmri	n/a	n/a	-1.0	n/a	n/a	n/a	n/a	n/a	n/a	n/a	n/a	ITI	poldrack-single-stim	s605	False	0
272.389	3.103	275.492	3.457811918626525	end_round	3.103	columbia_card_task_fmri	9.0	0.9375	71.0	-95.0	0.0625	16.0	1.0	1.0	-6.680647021346946	3.103	0.0	stim	poldrack-single-stim	s605	False	1
276.249	1.5	275.498	n/a	-1.0	2.25	columbia_card_task_fmri	n/a	n/a	-1.0	n/a	n/a	n/a	n/a	n/a	n/a	n/a	n/a	ITI	poldrack-single-stim	s605	False	0
277.753	1.163	278.916	5.0203119186265255	draw_card	1.163	columbia_card_task_fmri	11.0	0.9375	89.0	-100.0	0.0625	16.0	1.0	1.0	-4.987364708374802	1.163	n/a	stim	poldrack-single-stim	s605	False	1
278.92	1.344	280.264	4.557811918626525	draw_card	1.344	columbia_card_task_fmri	11.0	0.9333333333333332	89.0	-100.0	0.0666666666666666	16.0	2.0	1.0	-4.168426791733847	1.344	n/a	stim	poldrack-single-stim	s605	False	1
280.268	2.915	283.183	4.029240490055098	end_round	2.915	columbia_card_task_fmri	11.0	0.9285714285714286	71.0	-100.0	0.0714285714285714	16.0	3.0	1.0	-3.270340934441577	2.915	2.0	stim	poldrack-single-stim	s605	False	1
283.94	1.5	283.189	n/a	-1.0	2.522	columbia_card_task_fmri	n/a	n/a	-1.0	n/a	n/a	n/a	n/a	n/a	n/a	n/a	n/a	ITI	poldrack-single-stim	s605	False	0
285.716	2.569	288.285	5.5828119186265255	draw_card	2.569	columbia_card_task_fmri	16.0	0.875	89.0	-75.0	0.125	16.0	1.0	2.0	-1.7625942643095556	2.569	n/a	stim	poldrack-single-stim	s605	False	1
288.288	1.864	290.152	4.824478585293193	draw_card	1.864	columbia_card_task_fmri	16.0	0.8666666666666667	89.0	-75.0	0.1333333333333333	16.0	2.0	2.0	-0.9243766100989496	1.864	n/a	stim	poldrack-single-stim	s605	False	1
290.157	1.181	291.338	3.957811918626527	draw_card	1.181	columbia_card_task_fmri	16.0	0.8571428571428572	89.0	-75.0	0.1428571428571428	16.0	3.0	2.0	-0.0154848113008121	1.181	n/a	stim	poldrack-single-stim	s605	False	1
291.342	2.316	293.658	2.957811918626525	draw_card	2.316	columbia_card_task_fmri	16.0	0.8461538461538461	89.0	-75.0	0.1538461538461538	16.0	4.0	2.0	0.9736249895978446	2.316	n/a	stim	poldrack-single-stim	s605	False	1
293.662	4.137	297.799	1.791145251959859	end_round	4.137	columbia_card_task_fmri	16.0	0.8333333333333334	71.0	-75.0	0.1666666666666666	16.0	5.0	2.0	2.053967372781095	4.137	4.0	stim	poldrack-single-stim	s605	False	1
298.553	1.5	297.802	n/a	-1.0	2.454	columbia_card_task_fmri	n/a	n/a	-1.0	n/a	n/a	n/a	n/a	n/a	n/a	n/a	n/a	ITI	poldrack-single-stim	s605	False	0
300.261	3.286	303.547	5.8328119186265255	draw_card	3.286	columbia_card_task_fmri	17.0	0.875	89.0	-80.0	0.125	16.0	1.0	2.0	0.2207771129806488	3.286	1.0	stim	poldrack-single-stim	s605	False	0
304.304	1.5	303.553	n/a	-1.0	2.25	columbia_card_task_fmri	n/a	n/a	-1.0	n/a	n/a	n/a	n/a	n/a	n/a	n/a	n/a	ITI	poldrack-single-stim	s605	False	0
316.816	1.408	318.224	0.1244785852931928	draw_card	1.408	columbia_card_task_fmri	13.0	0.8333333333333334	89.0	-70.0	0.1666666666666666	6.0	1.0	1.0	-0.926153785406136	1.408	n/a	stim	poldrack-single-stim	s605	False	1
318.227	1.748	319.975	-2.6421880813734746	draw_card	1.748	columbia_card_task_fmri	13.0	0.8	89.0	-70.0	0.2	6.0	2.0	1.0	1.340560294346794	1.748	n/a	stim	poldrack-single-stim	s605	False	1
319.979	0.752	320.731	-6.7921880813734745	end_round	0.752	columbia_card_task_fmri	13.0	0.75	71.0	-70.0	0.25	6.0	3.0	1.0	4.079561809374752	0.752	2.0	stim	poldrack-single-stim	s605	False	1
321.486	1.5	320.735	n/a	-1.0	2.454	columbia_card_task_fmri	n/a	n/a	-1.0	n/a	n/a	n/a	n/a	n/a	n/a	n/a	n/a	ITI	poldrack-single-stim	s605	False	0
323.193	0.915	324.108	0.1244785852931928	draw_card	0.915	columbia_card_task_fmri	15.0	0.8333333333333334	89.0	-80.0	0.1666666666666666	6.0	1.0	1.0	3.5441101867557663	0.915	n/a	stim	poldrack-single-stim	s605	False	1
324.111	2.41	326.521	-3.042188081373475	draw_card	2.41	columbia_card_task_fmri	15.0	0.8	89.0	-80.0	0.2	6.0	2.0	1.0	6.138816031950547	2.41	n/a	stim	poldrack-single-stim	s605	False	1
326.525	1.148	327.673	-7.792188081373474	end_round	1.148	columbia_card_task_fmri	15.0	0.75	71.0	-80.0	0.25	6.0	3.0	1.0	9.2741028219055	1.148	2.0	stim	poldrack-single-stim	s605	False	1
328.43	1.5	327.679	n/a	-1.0	2.454	columbia_card_task_fmri	n/a	n/a	-1.0	n/a	n/a	n/a	n/a	n/a	n/a	n/a	n/a	ITI	poldrack-single-stim	s605	False	0
330.139	0.676	330.815	1.791145251959859	draw_card	0.676	columbia_card_task_fmri	16.0	0.8333333333333334	89.0	-75.0	0.1666666666666666	6.0	1.0	1.0	2.053967372781095	0.676	n/a	stim	poldrack-single-stim	s605	False	1
330.819	1.415	332.234	-1.2421880813734745	draw_card	1.415	columbia_card_task_fmri	16.0	0.8	89.0	-75.0	0.2	6.0	2.0	1.0	4.539346365839116	1.415	n/a	stim	poldrack-single-stim	s605	False	1
332.239	0.926	333.165	-5.7921880813734745	draw_card	0.926	columbia_card_task_fmri	16.0	0.75	89.0	-75.0	0.25	6.0	3.0	1.0	7.542541951542972	0.926	n/a	stim	poldrack-single-stim	s605	False	1
333.17	2.206	335.376	-13.375521414706808	draw_card	2.206	columbia_card_task_fmri	16.0	0.6666666666666667	89.0	-75.0	0.3333333333333333	6.0	4.0	1.0	11.035249803292125	2.206	n/a	stim	poldrack-single-stim	s605	False	1
335.38	1.589	336.969	-28.542188081373475	end_round	1.589	columbia_card_task_fmri	16.0	0.5	71.0	-75.0	0.5	6.0	5.0	1.0	13.636827090077247	1.589	4.0	stim	poldrack-single-stim	s605	False	1
337.723	1.5	336.972	n/a	-1.0	2.522	columbia_card_task_fmri	n/a	n/a	-1.0	n/a	n/a	n/a	n/a	n/a	n/a	n/a	n/a	ITI	poldrack-single-stim	s605	False	0
339.499	0.89	340.389	2.957811918626525	draw_card	0.89	columbia_card_task_fmri	21.0	0.75	89.0	-55.0	0.25	8.0	1.0	2.0	1.0496477476614103	0.89	n/a	stim	poldrack-single-stim	s605	False	1
340.392	0.974	341.366	0.2435262043408115	draw_card	0.974	columbia_card_task_fmri	21.0	0.7142857142857143	89.0	-55.0	0.2857142857142857	8.0	2.0	2.0	2.473404820094366	0.974	2.0	stim	poldrack-single-stim	s605	False	0
342.122	1.5	341.371	n/a	-1.0	2.454	columbia_card_task_fmri	n/a	n/a	-1.0	n/a	n/a	n/a	n/a	n/a	n/a	n/a	n/a	ITI	poldrack-single-stim	s605	False	0
343.83	0.804	344.634	4.2078119186265255	draw_card	0.804	columbia_card_task_fmri	26.0	0.75	89.0	-65.0	0.25	8.0	1.0	2.0	7.542541951542972	0.804	n/a	stim	poldrack-single-stim	s605	False	1
344.639	1.467	346.106	0.9578119186265286	draw_card	1.467	columbia_card_task_fmri	26.0	0.7142857142857143	89.0	-65.0	0.2857142857142857	8.0	2.0	2.0	9.247512935748354	1.467	n/a	stim	poldrack-single-stim	s605	False	1
346.11	1.158	347.268	-3.375521414706804	draw_card	1.158	columbia_card_task_fmri	26.0	0.6666666666666667	89.0	-65.0	0.3333333333333333	8.0	3.0	2.0	11.035249803292125	1.158	n/a	stim	poldrack-single-stim	s605	False	1
347.272	1.272	348.544	-9.442188081373477	draw_card	1.272	columbia_card_task_fmri	26.0	0.6	89.0	-65.0	0.4	8.0	4.0	2.0	12.717748223175905	1.272	n/a	stim	poldrack-single-stim	s605	False	1
348.548	1.061	349.609	-18.542188081373475	end_round	1.061	columbia_card_task_fmri	26.0	0.5	71.0	-65.0	0.5	8.0	5.0	2.0	13.636827090077247	1.061	4.0	stim	poldrack-single-stim	s605	False	1
350.366	1.5	349.615	n/a	-1.0	2.658	columbia_card_task_fmri	n/a	n/a	-1.0	n/a	n/a	n/a	n/a	n/a	n/a	n/a	n/a	ITI	poldrack-single-stim	s605	False	0
352.278	0.802	353.08	-0.708854748040141	draw_card	0.802	columbia_card_task_fmri	15.0	0.7777777777777778	89.0	-60.0	0.2222222222222222	9.0	1.0	2.0	-0.6780672113403199	0.802	n/a	stim	poldrack-single-stim	s605	False	1
353.083	1.406	354.489	-2.792188081373475	draw_card	1.406	columbia_card_task_fmri	15.0	0.75	89.0	-60.0	0.25	9.0	2.0	2.0	0.6168207729577944	1.406	2.0	stim	poldrack-single-stim	s605	False	0
355.247	1.5	354.496	n/a	-1.0	2.386	columbia_card_task_fmri	n/a	n/a	-1.0	n/a	n/a	n/a	n/a	n/a	n/a	n/a	n/a	ITI	poldrack-single-stim	s605	False	0
356.885	0.761	357.646	3.657811918626526	draw_card	0.761	columbia_card_task_fmri	13.0	0.9	89.0	-90.0	0.1	10.0	1.0	1.0	-0.9584119968153112	0.761	n/a	stim	poldrack-single-stim	s605	False	1
357.65	1.615	359.265	2.5133674741820804	draw_card	1.615	columbia_card_task_fmri	13.0	0.8888888888888888	89.0	-90.0	0.1111111111111111	10.0	2.0	1.0	0.5106915241060506	1.615	2.0	stim	poldrack-single-stim	s605	False	0
360.021	1.5	359.27	n/a	-1.0	2.522	columbia_card_task_fmri	n/a	n/a	-1.0	n/a	n/a	n/a	n/a	n/a	n/a	n/a	n/a	ITI	poldrack-single-stim	s605	False	0
361.797	0.574	362.371	4.9578119186265255	draw_card	0.574	columbia_card_task_fmri	15.0	0.9	89.0	-95.0	0.1	10.0	1.0	1.0	1.1406439770707235	0.574	n/a	stim	poldrack-single-stim	s605	False	1
362.375	1.253	363.628	3.735589696404302	draw_card	1.253	columbia_card_task_fmri	15.0	0.8888888888888888	89.0	-95.0	0.1111111111111111	10.0	2.0	1.0	2.7096780719846407	1.253	2.0	stim	poldrack-single-stim	s605	False	0
364.386	1.5	363.635	n/a	-1.0	2.59	columbia_card_task_fmri	n/a	n/a	-1.0	n/a	n/a	n/a	n/a	n/a	n/a	n/a	n/a	ITI	poldrack-single-stim	s605	False	0
366.23	0.355	366.585	0.7578119186265257	draw_card	0.355	columbia_card_task_fmri	16.0	0.8	89.0	-65.0	0.2	10.0	1.0	2.0	0.5409012199603254	0.355	n/a	stim	poldrack-single-stim	s605	False	1
366.589	1.078	367.667	-1.0421880813734732	draw_card	1.078	columbia_card_task_fmri	16.0	0.7777777777777778	89.0	-65.0	0.2222222222222222	10.0	2.0	2.0	1.8152820439446629	1.078	n/a	stim	poldrack-single-stim	s605	False	1
367.673	1.117	368.79	-3.292188081373475	draw_card	1.117	columbia_card_task_fmri	16.0	0.75	89.0	-65.0	0.25	10.0	3.0	2.0	3.2138513687130867	1.117	3.0	stim	poldrack-single-stim	s605	False	0
369.545	1.5	368.794	n/a	-1.0	2.386	columbia_card_task_fmri	n/a	n/a	-1.0	n/a	n/a	n/a	n/a	n/a	n/a	n/a	n/a	ITI	poldrack-single-stim	s605	False	0
371.185	0.569	371.754	-0.542188081373475	draw_card	0.569	columbia_card_task_fmri	7.0	0.9166666666666666	89.0	-95.0	0.0833333333333333	12.0	1.0	1.0	-3.665676091001764	0.569	n/a	stim	poldrack-single-stim	s605	False	1
371.759	1.968	373.727	-1.3149153541007483	draw_card	1.968	columbia_card_task_fmri	7.0	0.9090909090909092	89.0	-95.0	0.0909090909090909	12.0	2.0	1.0	-2.53467591323156	1.968	n/a	stim	poldrack-single-stim	s605	False	1
373.732	1.072	374.804	-2.242188081373475	draw_card	1.072	columbia_card_task_fmri	7.0	0.9	89.0	-95.0	0.1	12.0	3.0	1.0	-1.2582665661707289	1.072	n/a	stim	poldrack-single-stim	s605	False	1
374.808	1.64	376.448	-3.375521414706809	end_round	1.64	columbia_card_task_fmri	7.0	0.8888888888888888	71.0	-95.0	0.1111111111111111	12.0	4.0	1.0	0.196560679780589	1.64	3.0	stim	poldrack-single-stim	s605	False	1
377.203	1.5	376.452	n/a	-1.0	2.59	columbia_card_task_fmri	n/a	n/a	-1.0	n/a	n/a	n/a	n/a	n/a	n/a	n/a	n/a	ITI	poldrack-single-stim	s605	False	0
379.047	0.644	379.691	0.1244785852931928	draw_card	0.644	columbia_card_task_fmri	14.0	0.8333333333333334	89.0	-75.0	0.1666666666666666	12.0	1.0	2.0	1.308915139683975	0.644	n/a	stim	poldrack-single-stim	s605	False	1
379.696	1.061	380.757	-1.2240062631916584	draw_card	1.061	columbia_card_task_fmri	14.0	0.8181818181818181	89.0	-75.0	0.1818181818181818	12.0	2.0	2.0	2.4669271352430044	1.061	n/a	stim	poldrack-single-stim	s605	False	1
380.761	2.546	383.307	-2.842188081373474	end_round	2.546	columbia_card_task_fmri	14.0	0.8	71.0	-75.0	0.2	12.0	3.0	2.0	3.739629399782928	2.546	2.0	stim	poldrack-single-stim	s605	False	1
384.067	1.5	383.316	n/a	-1.0	2.318	columbia_card_task_fmri	n/a	n/a	-1.0	n/a	n/a	n/a	n/a	n/a	n/a	n/a	n/a	ITI	poldrack-single-stim	s605	False	0
385.638	0.602	386.24	1.791145251959859	end_round	0.602	columbia_card_task_fmri	15.0	0.8333333333333334	71.0	-70.0	0.1666666666666666	12.0	1.0	2.0	-0.1811464711245385	0.602	0.0	stim	poldrack-single-stim	s605	False	1
387.0	1.5	386.249	n/a	-1.0	2.25	columbia_card_task_fmri	n/a	n/a	-1.0	n/a	n/a	n/a	n/a	n/a	n/a	n/a	n/a	ITI	poldrack-single-stim	s605	False	0
388.503	0.543	389.046	-0.2421880813734742	draw_card	0.543	columbia_card_task_fmri	16.0	0.8	89.0	-70.0	0.2	15.0	1.0	3.0	2.5400786199732863	0.543	1.0	stim	poldrack-single-stim	s605	False	0
389.804	1.5	389.053	n/a	-1.0	2.454	columbia_card_task_fmri	n/a	n/a	-1.0	n/a	n/a	n/a	n/a	n/a	n/a	n/a	n/a	ITI	poldrack-single-stim	s605	False	0
391.511	1.167	392.678	0.145311918626525	draw_card	1.167	columbia_card_task_fmri	14.0	0.8125	89.0	-65.0	0.1875	16.0	1.0	3.0	-1.0237029543010792	1.167	n/a	stim	poldrack-single-stim	s605	False	1
392.683	1.208	393.891	-0.8421880813734739	draw_card	1.208	columbia_card_task_fmri	14.0	0.8	89.0	-65.0	0.2	16.0	2.0	3.0	-0.2587406039656414	1.208	n/a	stim	poldrack-single-stim	s605	False	1
393.895	2.036	395.931	-1.970759509944902	draw_card	2.036	columbia_card_task_fmri	14.0	0.7857142857142857	89.0	-65.0	0.2142857142857142	16.0	3.0	3.0	0.5566407099009609	2.036	n/a	stim	poldrack-single-stim	s605	False	1
395.935	1.412	397.347	-3.2729573121427067	draw_card	1.412	columbia_card_task_fmri	14.0	0.7692307692307692	89.0	-65.0	0.2307692307692307	16.0	4.0	3.0	1.4252036610998573	1.412	n/a	stim	poldrack-single-stim	s605	False	1
397.351	1.257	398.608	-4.7921880813734745	draw_card	1.257	columbia_card_task_fmri	14.0	0.75	89.0	-65.0	0.25	16.0	5.0	3.0	2.3481568664086154	1.257	n/a	stim	poldrack-single-stim	s605	False	1
398.613	1.26	399.873	-6.58764262682802	end_round	1.26	columbia_card_task_fmri	14.0	0.7272727272727273	71.0	-65.0	0.2727272727272727	16.0	6.0	3.0	3.323361758642065	1.26	5.0	stim	poldrack-single-stim	s605	False	1
400.628	1.5	399.877	n/a	-1.0	3.27	columbia_card_task_fmri	n/a	n/a	-1.0	n/a	n/a	n/a	n/a	n/a	n/a	n/a	n/a	ITI	poldrack-single-stim	s605	False	0
403.153	1.577	404.73	-0.1046880813734749	draw_card	1.577	columbia_card_task_fmri	16.0	0.8125	89.0	-75.0	0.1875	16.0	1.0	3.0	3.658085091825555	1.577	n/a	stim	poldrack-single-stim	s605	False	1
404.735	1.478	406.213	-1.2421880813734745	draw_card	1.478	columbia_card_task_fmri	16.0	0.8	89.0	-75.0	0.2	16.0	2.0	3.0	4.539346365839116	1.478	n/a	stim	poldrack-single-stim	s605	False	1
406.218	2.131	408.349	-2.542188081373473	draw_card	2.131	columbia_card_task_fmri	16.0	0.7857142857142857	89.0	-75.0	0.2142857142857142	16.0	3.0	3.0	5.478686605473037	2.131	3.0	stim	poldrack-single-stim	s605	False	0
409.107	1.5	408.356	n/a	-1.0	2.25	columbia_card_task_fmri	n/a	n/a	-1.0	n/a	n/a	n/a	n/a	n/a	n/a	n/a	n/a	ITI	poldrack-single-stim	s605	False	0
410.611	0.99	411.601	4.157811918626527	draw_card	0.99	columbia_card_task_fmri	16.0	0.8666666666666667	89.0	-80.0	0.1333333333333333	15.0	1.0	2.0	0.774524776200785	0.99	n/a	stim	poldrack-single-stim	s605	False	1
411.607	1.298	412.905	3.2435262043408133	draw_card	1.298	columbia_card_task_fmri	16.0	0.8571428571428572	89.0	-80.0	0.1428571428571428	15.0	2.0	2.0	1.7334009445747682	1.298	n/a	stim	poldrack-single-stim	s605	False	1
412.91	1.248	414.158	2.188581149395755	draw_card	1.248	columbia_card_task_fmri	16.0	0.8461538461538461	89.0	-80.0	0.1538461538461538	15.0	3.0	2.0	2.7769038458998025	1.248	n/a	stim	poldrack-single-stim	s605	False	1
414.163	1.082	415.245	0.9578119186265268	draw_card	1.082	columbia_card_task_fmri	16.0	0.8333333333333334	89.0	-80.0	0.1666666666666666	15.0	4.0	2.0	3.916653297262535	1.082	n/a	stim	poldrack-single-stim	s605	False	1
415.25	1.517	416.767	-0.4967335359189317	end_round	1.517	columbia_card_task_fmri	16.0	0.8181818181818181	71.0	-80.0	0.1818181818181818	15.0	5.0	2.0	5.1658155492737805	1.517	4.0	stim	poldrack-single-stim	s605	False	1
417.525	1.5	416.774	n/a	-1.0	2.25	columbia_card_task_fmri	n/a	n/a	-1.0	n/a	n/a	n/a	n/a	n/a	n/a	n/a	n/a	ITI	poldrack-single-stim	s605	False	0
419.031	0.709	419.74	5.024478585293194	draw_card	0.709	columbia_card_task_fmri	17.0	0.8666666666666667	89.0	-80.0	0.1333333333333333	15.0	1.0	2.0	1.114314595124128	0.709	n/a	stim	poldrack-single-stim	s605	False	1
419.745	1.973	421.718	4.100669061483671	draw_card	1.973	columbia_card_task_fmri	17.0	0.8571428571428572	89.0	-80.0	0.1428571428571428	15.0	2.0	2.0	2.083187365636867	1.973	n/a	stim	poldrack-single-stim	s605	False	1
421.724	1.072	422.796	3.0347349955496017	draw_card	1.072	columbia_card_task_fmri	17.0	0.8461538461538461	89.0	-80.0	0.1538461538461538	15.0	3.0	2.0	3.1375686083341563	1.072	n/a	stim	poldrack-single-stim	s605	False	1
422.8	1.186	423.986	1.7911452519598607	draw_card	1.186	columbia_card_task_fmri	17.0	0.8333333333333334	89.0	-80.0	0.1666666666666666	15.0	4.0	2.0	4.289199187439927	1.186	n/a	stim	poldrack-single-stim	s605	False	1
423.992	1.075	425.067	0.3214482822628866	draw_card	1.075	columbia_card_task_fmri	17.0	0.8181818181818181	89.0	-80.0	0.1818181818181818	15.0	5.0	2.0	5.551382504998294	1.075	n/a	stim	poldrack-single-stim	s605	False	1
425.071	1.364	426.435	-1.4421880813734735	draw_card	1.364	columbia_card_task_fmri	17.0	0.8	89.0	-80.0	0.2	15.0	6.0	2.0	6.938567259375901	1.364	n/a	stim	poldrack-single-stim	s605	False	1
426.44	2.004	428.444	-3.5977436369290303	draw_card	2.004	columbia_card_task_fmri	17.0	0.7777777777777778	89.0	-80.0	0.2222222222222222	15.0	7.0	2.0	8.464871708039013	2.004	7.0	stim	poldrack-single-stim	s605	False	0
429.2	1.5	428.449	n/a	-1.0	2.318	columbia_card_task_fmri	n/a	n/a	-1.0	n/a	n/a	n/a	n/a	n/a	n/a	n/a	n/a	ITI	poldrack-single-stim	s605	False	0
430.774	0.978	431.752	0.957811918626525	draw_card	0.978	columbia_card_task_fmri	1.0	0.9375	89.0	-15.0	0.0625	16.0	1.0	1.0	-27.88359105243167	0.978	n/a	stim	poldrack-single-stim	s605	False	1
431.757	1.174	432.931	0.8911452519598584	draw_card	1.174	columbia_card_task_fmri	1.0	0.9333333333333332	89.0	-15.0	0.0666666666666666	16.0	2.0	1.0	-27.768829616649107	1.174	n/a	stim	poldrack-single-stim	s605	False	1
432.936	1.435	434.371	0.8149547757693822	draw_card	1.435	columbia_card_task_fmri	1.0	0.9285714285714286	89.0	-15.0	0.0714285714285714	16.0	3.0	1.0	-27.64276907741683	1.435	n/a	stim	poldrack-single-stim	s605	False	1
434.376	2.268	436.644	0.7270426878572942	end_round	2.268	columbia_card_task_fmri	1.0	0.9230769230769232	71.0	-15.0	0.0769230769230769	16.0	4.0	1.0	-27.50347987854848	2.268	3.0	stim	poldrack-single-stim	s605	False	1
437.4	1.5	436.649	n/a	-1.0	2.726	columbia_card_task_fmri	n/a	n/a	-1.0	n/a	n/a	n/a	n/a	n/a	n/a	n/a	n/a	ITI	poldrack-single-stim	s605	False	0
439.381	0.398	439.779	4.0828119186265255	draw_card	0.398	columbia_card_task_fmri	10.0	0.9375	89.0	-100.0	0.0625	16.0	1.0	1.0	-5.229271117528793	0.398	n/a	stim	poldrack-single-stim	s605	False	1
439.784	1.926	441.71	3.624478585293192	draw_card	1.926	columbia_card_task_fmri	10.0	0.9333333333333332	89.0	-100.0	0.0666666666666666	16.0	2.0	1.0	-4.417720147857505	1.926	n/a	stim	poldrack-single-stim	s605	False	1
441.715	1.176	442.891	3.100669061483669	draw_card	1.176	columbia_card_task_fmri	10.0	0.9285714285714286	89.0	-100.0	0.0714285714285714	16.0	3.0	1.0	-3.527734563337294	1.176	n/a	stim	poldrack-single-stim	s605	False	1
442.896	1.204	444.1	2.4962734570880643	draw_card	1.204	columbia_card_task_fmri	10.0	0.9230769230769232	89.0	-100.0	0.0769230769230769	16.0	4.0	1.0	-2.545979134721751	1.204	n/a	stim	poldrack-single-stim	s605	False	1
444.106	1.398	445.504	1.791145251959859	draw_card	1.398	columbia_card_task_fmri	10.0	0.9166666666666666	89.0	-100.0	0.0833333333333333	16.0	5.0	1.0	-1.4557752945872195	1.398	n/a	stim	poldrack-single-stim	s605	False	1
445.51	0.884	446.394	0.9578119186265232	end_round	0.884	columbia_card_task_fmri	10.0	0.9090909090909092	71.0	-100.0	0.0909090909090909	16.0	6.0	1.0	-0.2359744502878946	0.884	5.0	stim	poldrack-single-stim	s605	False	1
447.153	1.5	446.402	n/a	-1.0	2.386	columbia_card_task_fmri	n/a	n/a	-1.0	n/a	n/a	n/a	n/a	n/a	n/a	n/a	n/a	ITI	poldrack-single-stim	s605	False	0
448.795	0.789	449.584	4.7078119186265255	draw_card	0.789	columbia_card_task_fmri	15.0	0.875	89.0	-75.0	0.125	16.0	1.0	2.0	-2.0931439572526145	0.789	n/a	stim	poldrack-single-stim	s605	False	1
449.589	1.663	451.252	3.957811918626525	draw_card	1.663	columbia_card_task_fmri	15.0	0.8666666666666667	89.0	-75.0	0.1333333333333333	16.0	2.0	2.0	-1.2641466042663687	1.663	n/a	stim	poldrack-single-stim	s605	False	1
451.259	1.142	452.401	3.100669061483669	draw_card	1.142	columbia_card_task_fmri	15.0	0.8571428571428572	89.0	-75.0	0.1428571428571428	16.0	3.0	2.0	-0.3652519722397649	1.142	3.0	stim	poldrack-single-stim	s605	False	0
453.16	1.5	452.409	n/a	-1.0	2.318	columbia_card_task_fmri	n/a	n/a	-1.0	n/a	n/a	n/a	n/a	n/a	n/a	n/a	n/a	ITI	poldrack-single-stim	s605	False	0
454.734	0.874	455.608	4.9578119186265255	draw_card	0.874	columbia_card_task_fmri	16.0	0.875	89.0	-80.0	0.125	16.0	1.0	2.0	-0.1097929555774399	0.874	n/a	stim	poldrack-single-stim	s605	False	1
455.612	1.57	457.182	4.157811918626527	draw_card	1.57	columbia_card_task_fmri	16.0	0.8666666666666667	89.0	-80.0	0.1333333333333333	16.0	2.0	2.0	0.774524776200785	1.57	n/a	stim	poldrack-single-stim	s605	False	1
457.187	1.052	458.239	3.2435262043408133	draw_card	1.052	columbia_card_task_fmri	16.0	0.8571428571428572	89.0	-80.0	0.1428571428571428	16.0	3.0	2.0	1.7334009445747682	1.052	n/a	stim	poldrack-single-stim	s605	False	1
458.244	0.856	459.1	2.188581149395755	end_round	0.856	columbia_card_task_fmri	16.0	0.8461538461538461	71.0	-80.0	0.1538461538461538	16.0	4.0	2.0	2.7769038458998025	0.856	3.0	stim	poldrack-single-stim	s605	False	1
459.861	1.5	459.11	n/a	-1.0	2.25	columbia_card_task_fmri	n/a	n/a	-1.0	n/a	n/a	n/a	n/a	n/a	n/a	n/a	n/a	ITI	poldrack-single-stim	s605	False	0
461.365	0.76	462.125	2.145311918626525	draw_card	0.76	columbia_card_task_fmri	4.0	0.6875	89.0	-5.0	0.3125	16.0	1.0	5.0	-27.59309574618732	0.76	n/a	stim	poldrack-single-stim	s605	False	1
462.128	1.09	463.218	1.9578119186265253	draw_card	1.09	columbia_card_task_fmri	4.0	0.6666666666666667	89.0	-5.0	0.3333333333333333	16.0	2.0	5.0	-27.52383897667872	1.09	n/a	stim	poldrack-single-stim	s605	False	1
463.224	1.131	464.355	1.7435262043408104	draw_card	1.131	columbia_card_task_fmri	4.0	0.6428571428571428	89.0	-5.0	0.3571428571428571	16.0	3.0	5.0	-27.45574905534663	1.131	n/a	stim	poldrack-single-stim	s605	False	1
464.359	1.083	465.442	1.4962734570880636	draw_card	1.083	columbia_card_task_fmri	4.0	0.6153846153846154	89.0	-5.0	0.3846153846153846	16.0	4.0	5.0	-27.391177594679373	1.083	n/a	stim	poldrack-single-stim	s605	False	1
465.447	1.16	466.607	1.2078119186265246	draw_card	1.16	columbia_card_task_fmri	4.0	0.5833333333333333	89.0	-5.0	0.4166666666666667	16.0	5.0	5.0	-27.333990693366907	1.16	n/a	stim	poldrack-single-stim	s605	False	1
466.612	0.937	467.549	0.8669028277174342	end_round	0.937	columbia_card_task_fmri	4.0	0.5454545454545454	71.0	-5.0	0.4545454545454545	16.0	6.0	5.0	-27.29067218747517	0.937	5.0	stim	poldrack-single-stim	s605	False	1
468.308	1.5	467.557	n/a	-1.0	2.25	columbia_card_task_fmri	n/a	n/a	-1.0	n/a	n/a	n/a	n/a	n/a	n/a	n/a	n/a	ITI	poldrack-single-stim	s605	False	0
469.813	0.655	470.468	-0.7088547480401393	draw_card	0.655	columbia_card_task_fmri	14.0	0.8333333333333334	89.0	-80.0	0.1666666666666666	6.0	1.0	1.0	3.171569944567288	0.655	1.0	stim	poldrack-single-stim	s605	False	0
471.225	1.5	470.474	n/a	-1.0	2.454	columbia_card_task_fmri	n/a	n/a	-1.0	n/a	n/a	n/a	n/a	n/a	n/a	n/a	n/a	ITI	poldrack-single-stim	s605	False	0
472.935	0.5	473.435	0.957811918626525	draw_card	0.5	columbia_card_task_fmri	15.0	0.8333333333333334	89.0	-75.0	0.1666666666666666	6.0	1.0	1.0	1.6814395697117206	0.5	1.0	stim	poldrack-single-stim	s605	False	0
474.193	1.5	473.442	n/a	-1.0	2.454	columbia_card_task_fmri	n/a	n/a	-1.0	n/a	n/a	n/a	n/a	n/a	n/a	n/a	n/a	ITI	poldrack-single-stim	s605	False	0
475.902	0.518	476.42	2.624478585293193	draw_card	0.518	columbia_card_task_fmri	16.0	0.8333333333333334	89.0	-70.0	0.1666666666666666	6.0	1.0	1.0	0.1913632634779176	0.518	n/a	stim	poldrack-single-stim	s605	False	1
476.425	1.283	477.708	-0.2421880813734742	draw_card	1.283	columbia_card_task_fmri	16.0	0.8	89.0	-70.0	0.2	6.0	2.0	1.0	2.5400786199732863	1.283	n/a	stim	poldrack-single-stim	s605	False	1
477.713	1.929	479.642	-4.5421880813734745	draw_card	1.929	columbia_card_task_fmri	16.0	0.75	89.0	-70.0	0.25	6.0	3.0	1.0	5.378154924017252	1.929	n/a	stim	poldrack-single-stim	s605	False	1
479.647	1.225	480.872	-11.70885474804014	draw_card	1.225	columbia_card_task_fmri	16.0	0.6666666666666667	89.0	-70.0	0.3333333333333333	6.0	4.0	1.0	8.678848633225137	1.225	n/a	stim	poldrack-single-stim	s605	False	1
480.877	1.07	481.947	-26.042188081373475	end_round	1.07	columbia_card_task_fmri	16.0	0.5	71.0	-70.0	0.5	6.0	5.0	1.0	11.13741300933748	1.07	4.0	stim	poldrack-single-stim	s605	False	1
482.703	1.5	481.952	n/a	-1.0	2.522	columbia_card_task_fmri	n/a	n/a	-1.0	n/a	n/a	n/a	n/a	n/a	n/a	n/a	n/a	ITI	poldrack-single-stim	s605	False	0
484.48	0.869	485.349	3.207811918626525	draw_card	0.869	columbia_card_task_fmri	23.0	0.75	89.0	-60.0	0.25	8.0	1.0	2.0	4.079561809374752	0.869	1.0	stim	poldrack-single-stim	s605	False	0
486.109	1.5	485.358	n/a	-1.0	2.386	columbia_card_task_fmri	n/a	n/a	-1.0	n/a	n/a	n/a	n/a	n/a	n/a	n/a	n/a	ITI	poldrack-single-stim	s605	False	0
487.751	0.473	488.224	3.707811918626525	draw_card	0.473	columbia_card_task_fmri	27.0	0.75	89.0	-70.0	0.25	8.0	1.0	2.0	10.139898403705786	0.473	1.0	stim	poldrack-single-stim	s605	False	0
488.979	1.5	488.228	n/a	-1.0	2.454	columbia_card_task_fmri	n/a	n/a	-1.0	n/a	n/a	n/a	n/a	n/a	n/a	n/a	n/a	ITI	poldrack-single-stim	s605	False	0
490.688	0.091	490.779	-1.0421880813734732	draw_card	0.091	columbia_card_task_fmri	16.0	0.7777777777777778	89.0	-65.0	0.2222222222222222	9.0	1.0	2.0	1.8152820439446629	0.091	n/a	stim	poldrack-single-stim	s605	False	1
490.784	0.7	491.484	-3.292188081373475	draw_card	0.7	columbia_card_task_fmri	16.0	0.75	89.0	-65.0	0.25	9.0	2.0	2.0	3.2138513687130867	0.7	n/a	stim	poldrack-single-stim	s605	False	1
491.488	2.224	493.712	-6.185045224230615	draw_card	2.224	columbia_card_task_fmri	16.0	0.7142857142857143	89.0	-65.0	0.2857142857142857	9.0	3.0	2.0	4.731350321923067	2.224	n/a	stim	poldrack-single-stim	s605	False	1
493.717	2.864	496.581	-10.042188081373473	end_round	2.864	columbia_card_task_fmri	16.0	0.6666666666666667	71.0	-65.0	0.3333333333333333	9.0	4.0	2.0	6.322524149232095	2.864	3.0	stim	poldrack-single-stim	s605	False	1
497.339	1.5	496.588	n/a	-1.0	2.522	columbia_card_task_fmri	n/a	n/a	-1.0	n/a	n/a	n/a	n/a	n/a	n/a	n/a	n/a	ITI	poldrack-single-stim	s605	False	0
499.117	1.941	501.058	4.157811918626527	draw_card	1.941	columbia_card_task_fmri	13.0	0.9	89.0	-85.0	0.1	10.0	1.0	1.0	-2.4576551867821728	1.941	n/a	stim	poldrack-single-stim	s605	False	1
501.063	1.218	502.281	3.068923029737636	draw_card	1.218	columbia_card_task_fmri	13.0	0.8888888888888888	89.0	-85.0	0.1111111111111111	10.0	2.0	1.0	-1.059934383537012	1.218	n/a	stim	poldrack-single-stim	s605	False	1
502.286	1.104	503.39	1.707811918626525	draw_card	1.104	columbia_card_task_fmri	13.0	0.875	89.0	-85.0	0.125	10.0	3.0	1.0	0.551350217189686	1.104	n/a	stim	poldrack-single-stim	s605	False	1
503.395	1.259	504.654	-0.0421880813734731	draw_card	1.259	columbia_card_task_fmri	13.0	0.8571428571428572	89.0	-85.0	0.1428571428571428	10.0	4.0	1.0	2.4329766561263853	1.259	n/a	stim	poldrack-single-stim	s605	False	1
504.66	1.433	506.093	-2.375521414706807	draw_card	1.433	columbia_card_task_fmri	13.0	0.8333333333333334	89.0	-85.0	0.1666666666666666	10.0	5.0	1.0	4.661747772255396	1.433	5.0	stim	poldrack-single-stim	s605	False	0
506.848	1.5	506.097	n/a	-1.0	2.522	columbia_card_task_fmri	n/a	n/a	-1.0	n/a	n/a	n/a	n/a	n/a	n/a	n/a	n/a	ITI	poldrack-single-stim	s605	False	0
508.627	0.553	509.18	-0.8421880813734739	draw_card	0.553	columbia_card_task_fmri	14.0	0.8	89.0	-65.0	0.2	10.0	1.0	2.0	-0.2587406039656414	0.553	1.0	stim	poldrack-single-stim	s605	False	0
509.938	1.5	509.187	n/a	-1.0	2.59	columbia_card_task_fmri	n/a	n/a	-1.0	n/a	n/a	n/a	n/a	n/a	n/a	n/a	n/a	ITI	poldrack-single-stim	s605	False	0
511.783	0.617	512.4	0.5578119186265265	draw_card	0.617	columbia_card_task_fmri	17.0	0.8	89.0	-70.0	0.2	10.0	1.0	2.0	2.939925439556852	0.617	n/a	stim	poldrack-single-stim	s605	False	1
512.405	1.535	513.94	-1.375521414706807	draw_card	1.535	columbia_card_task_fmri	17.0	0.7777777777777778	89.0	-70.0	0.2222222222222222	10.0	2.0	2.0	4.308781421375187	1.535	n/a	stim	poldrack-single-stim	s605	False	1
513.945	1.113	515.058	-3.792188081373475	draw_card	1.113	columbia_card_task_fmri	17.0	0.75	89.0	-70.0	0.25	10.0	3.0	2.0	5.811026111980446	1.113	3.0	stim	poldrack-single-stim	s605	False	0
515.818	1.5	515.067	n/a	-1.0	2.454	columbia_card_task_fmri	n/a	n/a	-1.0	n/a	n/a	n/a	n/a	n/a	n/a	n/a	n/a	ITI	poldrack-single-stim	s605	False	0
517.527	0.581	518.108	-0.708854748040141	draw_card	0.581	columbia_card_task_fmri	13.0	0.8333333333333334	89.0	-75.0	0.1666666666666666	12.0	1.0	2.0	0.9363941975915466	0.581	n/a	stim	poldrack-single-stim	s605	False	1
518.113	1.874	519.987	-2.0421880813734767	draw_card	1.874	columbia_card_task_fmri	13.0	0.8181818181818181	89.0	-75.0	0.1818181818181818	12.0	2.0	2.0	2.0813842875047825	1.874	n/a	stim	poldrack-single-stim	s605	False	1
519.993	1.133	521.126	-3.6421880813734746	draw_card	1.133	columbia_card_task_fmri	13.0	0.8	89.0	-75.0	0.2	12.0	3.0	2.0	3.3397757385592257	1.133	3.0	stim	poldrack-single-stim	s605	False	0
521.883	1.5	521.132	n/a	-1.0	2.318	columbia_card_task_fmri	n/a	n/a	-1.0	n/a	n/a	n/a	n/a	n/a	n/a	n/a	n/a	ITI	poldrack-single-stim	s605	False	0
523.456	0.716	524.172	0.9578119186265268	draw_card	0.716	columbia_card_task_fmri	14.0	0.8333333333333334	89.0	-70.0	0.1666666666666666	12.0	1.0	2.0	-0.5536522022748578	0.716	n/a	stim	poldrack-single-stim	s605	False	1
524.177	1.24	525.417	-0.3149153541007501	draw_card	1.24	columbia_card_task_fmri	14.0	0.8181818181818181	89.0	-70.0	0.1818181818181818	12.0	2.0	2.0	0.539249007062935	1.24	n/a	stim	poldrack-single-stim	s605	False	1
525.422	0.945	526.367	-1.842188081373474	draw_card	0.945	columbia_card_task_fmri	14.0	0.8	89.0	-70.0	0.2	12.0	3.0	2.0	1.7403959157292237	0.945	n/a	stim	poldrack-single-stim	s605	False	1
526.372	1.467	527.839	-3.708854748040141	end_round	1.467	columbia_card_task_fmri	14.0	0.7777777777777778	71.0	-70.0	0.2222222222222222	12.0	4.0	2.0	3.062014976398615	1.467	3.0	stim	poldrack-single-stim	s605	False	1
528.598	1.5	527.847	n/a	-1.0	2.25	columbia_card_task_fmri	n/a	n/a	-1.0	n/a	n/a	n/a	n/a	n/a	n/a	n/a	n/a	ITI	poldrack-single-stim	s605	False	0
530.102	0.869	530.971	0.9578119186265268	draw_card	0.869	columbia_card_task_fmri	16.0	0.8333333333333334	89.0	-80.0	0.1666666666666666	12.0	1.0	2.0	3.916653297262535	0.869	n/a	stim	poldrack-single-stim	s605	False	1
530.976	0.971	531.947	-0.4967335359189317	draw_card	0.971	columbia_card_task_fmri	16.0	0.8181818181818181	89.0	-80.0	0.1818181818181818	12.0	2.0	2.0	5.1658155492737805	0.971	2.0	stim	poldrack-single-stim	s605	False	0
532.703	1.5	531.952	n/a	-1.0	2.658	columbia_card_task_fmri	n/a	n/a	-1.0	n/a	n/a	n/a	n/a	n/a	n/a	n/a	n/a	ITI	poldrack-single-stim	s605	False	0
534.616	0.692	535.308	0.7578119186265257	draw_card	0.692	columbia_card_task_fmri	16.0	0.8	89.0	-65.0	0.2	15.0	1.0	3.0	0.5409012199603254	0.692	1.0	stim	poldrack-single-stim	s605	False	0
536.064	1.5	535.313	n/a	-1.0	2.454	columbia_card_task_fmri	n/a	n/a	-1.0	n/a	n/a	n/a	n/a	n/a	n/a	n/a	n/a	ITI	poldrack-single-stim	s605	False	0
537.774	0.663	538.437	-0.917188081373475	draw_card	0.663	columbia_card_task_fmri	15.0	0.8125	89.0	-75.0	0.1875	16.0	1.0	3.0	3.267916132009425	0.663	n/a	stim	poldrack-single-stim	s605	False	1
538.442	1.098	539.54	-2.042188081373475	draw_card	1.098	columbia_card_task_fmri	15.0	0.8	89.0	-75.0	0.2	16.0	2.0	3.0	4.139486311234549	1.098	n/a	stim	poldrack-single-stim	s605	False	1
539.546	1.258	540.804	-3.32790236708776	draw_card	1.258	columbia_card_task_fmri	15.0	0.7857142857142857	89.0	-75.0	0.2142857142857142	16.0	3.0	3.0	5.068497129358583	1.258	n/a	stim	poldrack-single-stim	s605	False	1
540.81	0.962	541.772	-4.811418850604248	draw_card	0.962	columbia_card_task_fmri	15.0	0.7692307692307692	89.0	-75.0	0.2307692307692307	16.0	4.0	3.0	6.058095705254011	0.962	n/a	stim	poldrack-single-stim	s605	False	1
541.778	1.56	543.338	-6.5421880813734745	end_round	1.56	columbia_card_task_fmri	15.0	0.75	71.0	-75.0	0.25	16.0	5.0	3.0	7.109658535619978	1.56	4.0	stim	poldrack-single-stim	s605	False	1
544.095	1.5	543.344	n/a	-1.0	2.386	columbia_card_task_fmri	n/a	n/a	-1.0	n/a	n/a	n/a	n/a	n/a	n/a	n/a	n/a	ITI	poldrack-single-stim	s605	False	0
545.737	0.798	546.535	-0.3546880813734749	draw_card	0.798	columbia_card_task_fmri	14.0	0.6875	89.0	-35.0	0.3125	16.0	1.0	5.0	-9.140957900400302	0.798	n/a	stim	poldrack-single-stim	s605	False	1
546.54	1.242	547.782	-1.375521414706807	draw_card	1.242	columbia_card_task_fmri	14.0	0.6666666666666667	89.0	-35.0	0.3333333333333333	16.0	2.0	5.0	-8.754581926966477	1.242	n/a	stim	poldrack-single-stim	s605	False	1
547.788	1.275	549.063	-2.542188081373475	draw_card	1.275	columbia_card_task_fmri	14.0	0.6428571428571428	89.0	-35.0	0.3571428571428571	16.0	3.0	5.0	-8.375010586748918	1.275	n/a	stim	poldrack-single-stim	s605	False	1
549.069	1.722	550.791	-3.88834192752732	draw_card	1.722	columbia_card_task_fmri	14.0	0.6153846153846154	89.0	-35.0	0.3846153846153846	16.0	4.0	5.0	-8.015310505498174	1.722	n/a	stim	poldrack-single-stim	s605	False	1
550.799	1.176	551.975	-5.458854748040142	draw_card	1.176	columbia_card_task_fmri	14.0	0.5833333333333333	89.0	-35.0	0.4166666666666667	16.0	5.0	5.0	-7.696946723105562	1.176	5.0	stim	poldrack-single-stim	s605	False	0
552.731	1.5	551.98	n/a	-1.0	2.59	columbia_card_task_fmri	n/a	n/a	-1.0	n/a	n/a	n/a	n/a	n/a	n/a	n/a	n/a	ITI	poldrack-single-stim	s605	False	0
554.577	0.796	555.373	4.824478585293193	draw_card	0.796	columbia_card_task_fmri	16.0	0.8666666666666667	89.0	-75.0	0.1333333333333333	15.0	1.0	2.0	-0.9243766100989496	0.796	n/a	stim	poldrack-single-stim	s605	False	1
555.378	1.39	556.768	3.957811918626527	draw_card	1.39	columbia_card_task_fmri	16.0	0.8571428571428572	89.0	-75.0	0.1428571428571428	15.0	2.0	2.0	-0.0154848113008121	1.39	n/a	stim	poldrack-single-stim	s605	False	1
556.773	2.015	558.788	2.957811918626525	draw_card	2.015	columbia_card_task_fmri	16.0	0.8461538461538461	89.0	-75.0	0.1538461538461538	15.0	3.0	2.0	0.9736249895978446	2.015	n/a	stim	poldrack-single-stim	s605	False	1
558.794	1.344	560.138	1.791145251959859	end_round	1.344	columbia_card_task_fmri	16.0	0.8333333333333334	71.0	-75.0	0.1666666666666666	15.0	4.0	2.0	2.053967372781095	1.344	3.0	stim	poldrack-single-stim	s605	False	1
560.894	1.5	560.143	n/a	-1.0	2.318	columbia_card_task_fmri	n/a	n/a	-1.0	n/a	n/a	n/a	n/a	n/a	n/a	n/a	n/a	ITI	poldrack-single-stim	s605	False	0
562.467	0.767	563.234	5.491145251959859	draw_card	0.767	columbia_card_task_fmri	16.0	0.8666666666666667	89.0	-70.0	0.1333333333333333	15.0	1.0	2.0	-2.6231883223226227	0.767	n/a	stim	poldrack-single-stim	s605	False	1
563.24	1.16	564.4	4.672097632912241	draw_card	1.16	columbia_card_task_fmri	16.0	0.8571428571428572	89.0	-70.0	0.1428571428571428	15.0	2.0	2.0	-1.7642834467431143	1.16	2.0	stim	poldrack-single-stim	s605	False	0
565.156	1.5	564.405	n/a	-1.0	2.59	columbia_card_task_fmri	n/a	n/a	-1.0	n/a	n/a	n/a	n/a	n/a	n/a	n/a	n/a	ITI	poldrack-single-stim	s605	False	0
567.002	0.884	567.886	2.832811918626525	draw_card	0.884	columbia_card_task_fmri	8.0	0.9375	89.0	-90.0	0.0625	16.0	1.0	1.0	-8.131901491759354	0.884	n/a	stim	poldrack-single-stim	s605	False	1
567.891	3.31	571.201	2.424478585293192	end_round	3.31	columbia_card_task_fmri	8.0	0.9333333333333332	71.0	-90.0	0.0666666666666666	16.0	2.0	1.0	-7.409001152869951	3.31	1.0	stim	poldrack-single-stim	s605	False	1
571.957	1.5	571.206	n/a	-1.0	2.386	columbia_card_task_fmri	n/a	n/a	-1.0	n/a	n/a	n/a	n/a	n/a	n/a	n/a	n/a	ITI	poldrack-single-stim	s605	False	0
573.599	1.652	575.251	4.3953119186265255	draw_card	1.652	columbia_card_task_fmri	10.0	0.9375	89.0	-95.0	0.0625	16.0	1.0	1.0	-6.438758908865296	1.652	n/a	stim	poldrack-single-stim	s605	False	1
575.256	1.561	576.817	3.957811918626526	draw_card	1.561	columbia_card_task_fmri	10.0	0.9333333333333332	89.0	-95.0	0.0666666666666666	16.0	2.0	1.0	-5.664143978784626	1.561	n/a	stim	poldrack-single-stim	s605	False	1
576.823	1.283	578.106	3.457811918626526	draw_card	1.283	columbia_card_task_fmri	10.0	0.9285714285714286	89.0	-95.0	0.0714285714285714	16.0	3.0	1.0	-4.81466110339295	1.283	n/a	stim	poldrack-single-stim	s605	False	1
578.113	1.26	579.373	2.8808888417034484	draw_card	1.26	columbia_card_task_fmri	10.0	0.9230769230769232	89.0	-95.0	0.0769230769230769	16.0	4.0	1.0	-3.877581337616089	1.26	n/a	stim	poldrack-single-stim	s605	False	1
579.379	1.366	580.745	2.207811918626525	end_round	1.366	columbia_card_task_fmri	10.0	0.9166666666666666	71.0	-95.0	0.0833333333333333	16.0	5.0	1.0	-2.8369843894405307	1.366	4.0	stim	poldrack-single-stim	s605	False	1
581.502	1.5	580.751	n/a	-1.0	2.318	columbia_card_task_fmri	n/a	n/a	-1.0	n/a	n/a	n/a	n/a	n/a	n/a	n/a	n/a	ITI	poldrack-single-stim	s605	False	0
583.076	2.311	585.387	5.3328119186265255	draw_card	2.311	columbia_card_task_fmri	15.0	0.875	89.0	-70.0	0.125	16.0	1.0	2.0	-3.745832746776042	2.311	n/a	stim	poldrack-single-stim	s605	False	1
585.394	1.301	586.695	4.624478585293192	draw_card	1.301	columbia_card_task_fmri	15.0	0.8666666666666667	89.0	-70.0	0.1333333333333333	16.0	2.0	2.0	-2.962938512747769	1.301	n/a	stim	poldrack-single-stim	s605	False	1
586.701	1.854	588.555	3.814954775769383	draw_card	1.854	columbia_card_task_fmri	15.0	0.8571428571428572	89.0	-70.0	0.1428571428571428	16.0	3.0	2.0	-2.1140313677847367	1.854	n/a	stim	poldrack-single-stim	s605	False	1
588.56	1.296	589.856	2.8808888417034466	draw_card	1.296	columbia_card_task_fmri	15.0	0.8461538461538461	89.0	-70.0	0.1538461538461538	16.0	4.0	2.0	-1.190196784858898	1.296	n/a	stim	poldrack-single-stim	s605	False	1
589.861	1.347	591.208	1.791145251959859	draw_card	1.347	columbia_card_task_fmri	15.0	0.8333333333333334	89.0	-70.0	0.1666666666666666	16.0	5.0	2.0	-0.1811464711245385	1.347	5.0	stim	poldrack-single-stim	s605	False	0
591.967	1.5	591.216	n/a	-1.0	2.318	columbia_card_task_fmri	n/a	n/a	-1.0	n/a	n/a	n/a	n/a	n/a	n/a	n/a	n/a	ITI	poldrack-single-stim	s605	False	0
593.54	0.839	594.379	4.3328119186265255	draw_card	0.839	columbia_card_task_fmri	16.0	0.875	89.0	-85.0	0.125	16.0	1.0	2.0	1.5430868428077602	0.839	n/a	stim	poldrack-single-stim	s605	False	1
594.385	1.325	595.71	3.4911452519598583	draw_card	1.325	columbia_card_task_fmri	16.0	0.8666666666666667	89.0	-85.0	0.1333333333333333	16.0	2.0	2.0	2.4735025298715243	1.325	n/a	stim	poldrack-single-stim	s605	False	1
595.716	1.31	597.026	2.529240490055098	draw_card	1.31	columbia_card_task_fmri	16.0	0.8571428571428572	89.0	-85.0	0.1428571428571428	16.0	3.0	2.0	3.48236089249918	1.31	n/a	stim	poldrack-single-stim	s605	False	1
597.031	1.851	598.882	1.419350380164985	draw_card	1.851	columbia_card_task_fmri	16.0	0.8461538461538461	89.0	-85.0	0.1538461538461538	16.0	4.0	2.0	4.580254663419858	1.851	4.0	stim	poldrack-single-stim	s605	False	0
599.642	1.5	598.891	n/a	-1.0	2.318	columbia_card_task_fmri	n/a	n/a	-1.0	n/a	n/a	n/a	n/a	n/a	n/a	n/a	n/a	ITI	poldrack-single-stim	s605	False	0
