onset	duration	block_duration	choice	experiment_exp_id	key_press	large_amount	later_delay	response_time	small_amount	trial_id	trial_type	worker_id	junk
3.014	4.0	4.568	larger_later	discount_fixed	89	74.0	121.0	0.967	20.0	n/a	larger_later	s605	False
7.588	4.0	4.772	larger_later	discount_fixed	89	45.0	107.0	1.408	20.0	n/a	larger_later	s605	False
12.364	4.0	4.636	larger_later	discount_fixed	89	77.0	24.0	1.091	20.0	n/a	larger_later	s605	False
17.003	4.0	4.568	larger_later	discount_fixed	89	39.0	161.0	1.447	20.0	n/a	larger_later	s605	False
21.576	4.0	5.452	larger_later	discount_fixed	89	62.0	180.0	1.08	20.0	n/a	larger_later	s605	False
27.031	4.0	5.384	larger_later	discount_fixed	89	24.0	139.0	2.272	20.0	n/a	larger_later	s605	False
32.418	4.0	4.568	larger_later	discount_fixed	89	58.0	72.0	1.66	20.0	n/a	larger_later	s605	False
36.99	4.0	6.268	larger_later	discount_fixed	89	56.0	93.0	1.079	20.0	n/a	larger_later	s605	False
43.262	4.0	5.52	larger_later	discount_fixed	89	45.0	26.0	0.886	20.0	n/a	larger_later	s605	False
48.786	4.0	4.568	larger_later	discount_fixed	89	23.0	42.0	1.272	20.0	n/a	larger_later	s605	False
53.358	4.0	4.636	larger_later	discount_fixed	89	50.0	41.0	0.822	20.0	n/a	larger_later	s605	False
57.998	4.0	4.636	larger_later	discount_fixed	89	25.0	176.0	0.933	20.0	n/a	larger_later	s605	False
62.637	4.0	5.112	larger_later	discount_fixed	89	54.0	22.0	1.348	20.0	n/a	larger_later	s605	False
67.751	4.0	5.316	larger_later	discount_fixed	89	29.0	44.0	1.264	20.0	n/a	larger_later	s605	False
73.069	4.0	4.568	larger_later	discount_fixed	89	24.0	89.0	0.878	20.0	n/a	larger_later	s605	False
77.64	4.0	4.568	larger_later	discount_fixed	89	23.0	77.0	3.149	20.0	n/a	larger_later	s605	False
82.21	4.0	4.568	larger_later	discount_fixed	89	27.0	130.0	2.151	20.0	n/a	larger_later	s605	False
86.782	4.0	4.84	larger_later	discount_fixed	89	23.0	134.0	2.656	20.0	n/a	larger_later	s605	False
91.623	4.0	4.5	larger_later	discount_fixed	89	55.0	107.0	3.222	20.0	n/a	larger_later	s605	False
96.126	4.0	5.656	larger_later	discount_fixed	89	44.0	143.0	1.749	20.0	n/a	larger_later	s605	False
101.786	4.0	4.908	larger_later	discount_fixed	89	23.0	110.0	2.244	20.0	n/a	larger_later	s605	False
106.698	4.0	4.636	larger_later	discount_fixed	89	65.0	156.0	2.728	20.0	n/a	larger_later	s605	False
111.335	4.0	4.5	larger_later	discount_fixed	89	22.0	27.0	1.779	20.0	n/a	larger_later	s605	False
115.841	4.0	4.5	larger_later	discount_fixed	89	50.0	59.0	1.983	20.0	n/a	larger_later	s605	False
120.346	4.0	5.112	larger_later	discount_fixed	89	85.0	129.0	2.095	20.0	n/a	larger_later	s605	False
125.461	4.0	6.132	larger_later	discount_fixed	89	66.0	58.0	2.024	20.0	n/a	larger_later	s605	False
131.594	4.0	4.84	larger_later	discount_fixed	89	49.0	172.0	1.576	20.0	n/a	larger_later	s605	False
136.437	4.0	4.568	larger_later	discount_fixed	89	73.0	44.0	0.841	20.0	n/a	larger_later	s605	False
141.01	4.0	4.704	larger_later	discount_fixed	89	58.0	73.0	0.743	20.0	n/a	larger_later	s605	False
145.716	4.0	5.86	larger_later	discount_fixed	89	71.0	76.0	0.806	20.0	n/a	larger_later	s605	False
151.58	4.0	4.636	larger_later	discount_fixed	89	67.0	74.0	0.814	20.0	n/a	larger_later	s605	False
156.217	4.0	5.316	larger_later	discount_fixed	89	29.0	58.0	1.01	20.0	n/a	larger_later	s605	False
161.539	4.0	4.976	larger_later	discount_fixed	89	39.0	104.0	0.746	20.0	n/a	larger_later	s605	False
166.517	4.0	4.568	larger_later	discount_fixed	89	33.0	103.0	0.541	20.0	n/a	larger_later	s605	False
171.091	4.0	5.52	larger_later	discount_fixed	89	33.0	78.0	0.937	20.0	n/a	larger_later	s605	False
176.612	4.0	5.588	larger_later	discount_fixed	89	74.0	52.0	0.877	20.0	n/a	larger_later	s605	False
182.205	4.0	5.792	larger_later	discount_fixed	89	28.0	132.0	1.261	20.0	n/a	larger_later	s605	False
188.0	4.0	4.568	larger_later	discount_fixed	89	28.0	59.0	0.54	20.0	n/a	larger_later	s605	False
192.571	4.0	5.112	larger_later	discount_fixed	89	28.0	163.0	0.541	20.0	n/a	larger_later	s605	False
197.685	4.0	4.5	larger_later	discount_fixed	89	32.0	74.0	1.496	20.0	n/a	larger_later	s605	False
202.188	4.0	4.84	larger_later	discount_fixed	89	57.0	89.0	1.026	20.0	n/a	larger_later	s605	False
207.03	4.0	4.568	larger_later	discount_fixed	89	70.0	108.0	0.464	20.0	n/a	larger_later	s605	False
211.602	4.0	5.384	larger_later	discount_fixed	89	72.0	95.0	1.095	20.0	n/a	larger_later	s605	False
216.993	4.0	5.044	larger_later	discount_fixed	89	30.0	36.0	1.08	20.0	n/a	larger_later	s605	False
222.042	4.0	4.704	larger_later	discount_fixed	89	41.0	129.0	1.37	20.0	n/a	larger_later	s605	False
226.75	4.0	4.908	larger_later	discount_fixed	89	78.0	129.0	1.621	20.0	n/a	larger_later	s605	False
231.662	4.0	4.908	larger_later	discount_fixed	89	71.0	88.0	1.637	20.0	n/a	larger_later	s605	False
236.573	4.0	4.84	larger_later	discount_fixed	89	65.0	159.0	1.372	20.0	n/a	larger_later	s605	False
241.416	4.0	5.112	larger_later	discount_fixed	89	24.0	125.0	2.189	20.0	n/a	larger_later	s605	False
246.531	4.0	5.112	larger_later	discount_fixed	89	58.0	36.0	0.797	20.0	n/a	larger_later	s605	False
251.648	4.0	4.704	larger_later	discount_fixed	89	63.0	37.0	0.7	20.0	n/a	larger_later	s605	False
256.355	4.0	4.84	larger_later	discount_fixed	89	75.0	41.0	1.195	20.0	n/a	larger_later	s605	False
261.198	4.0	4.84	larger_later	discount_fixed	89	45.0	72.0	1.109	20.0	n/a	larger_later	s605	False
266.043	4.0	6.88	larger_later	discount_fixed	89	25.0	74.0	1.525	20.0	n/a	larger_later	s605	False
272.926	4.0	4.568	larger_later	discount_fixed	89	65.0	137.0	1.651	20.0	n/a	larger_later	s605	False
277.496	4.0	4.772	larger_later	discount_fixed	89	49.0	140.0	2.347	20.0	n/a	larger_later	s605	False
282.272	4.0	7.016	larger_later	discount_fixed	89	67.0	103.0	1.523	20.0	n/a	larger_later	s605	False
289.292	4.0	4.704	larger_later	discount_fixed	89	69.0	172.0	1.832	20.0	n/a	larger_later	s605	False
294.0	4.0	5.18	larger_later	discount_fixed	89	66.0	71.0	1.509	20.0	n/a	larger_later	s605	False
299.182	4.0	5.044	larger_later	discount_fixed	89	71.0	176.0	2.1	20.0	n/a	larger_later	s605	False
304.227	4.0	5.316	larger_later	discount_fixed	89	31.0	76.0	1.118	20.0	n/a	larger_later	s605	False
318.056	4.0	4.568	larger_later	discount_fixed	89	43.0	19.0	1.122	20.0	n/a	larger_later	s605	False
322.626	4.0	4.636	larger_later	discount_fixed	89	60.0	124.0	1.337	20.0	n/a	larger_later	s605	False
327.265	4.0	4.908	larger_later	discount_fixed	89	27.0	142.0	1.273	20.0	n/a	larger_later	s605	False
332.174	4.0	4.5	larger_later	discount_fixed	89	25.0	70.0	1.206	20.0	n/a	larger_later	s605	False
336.68	4.0	4.976	larger_later	discount_fixed	89	44.0	92.0	1.473	20.0	n/a	larger_later	s605	False
341.66	4.0	4.908	larger_later	discount_fixed	89	41.0	27.0	1.133	20.0	n/a	larger_later	s605	False
346.571	4.0	4.568	larger_later	discount_fixed	89	64.0	89.0	1.805	20.0	n/a	larger_later	s605	False
351.141	4.0	4.5	larger_later	discount_fixed	89	78.0	108.0	1.759	20.0	n/a	larger_later	s605	False
355.645	4.0	6.2	larger_later	discount_fixed	89	80.0	145.0	1.797	20.0	n/a	larger_later	s605	False
361.846	4.0	4.704	larger_later	discount_fixed	89	41.0	174.0	1.465	20.0	n/a	larger_later	s605	False
366.554	4.0	5.044	larger_later	discount_fixed	89	42.0	145.0	1.162	20.0	n/a	larger_later	s605	False
371.6	4.0	5.044	larger_later	discount_fixed	89	36.0	114.0	2.052	20.0	n/a	larger_later	s605	False
376.648	4.0	5.18	larger_later	discount_fixed	89	58.0	55.0	1.049	20.0	n/a	larger_later	s605	False
381.834	4.0	4.976	larger_later	discount_fixed	89	81.0	58.0	1.222	20.0	n/a	larger_later	s605	False
386.811	4.0	4.772	larger_later	discount_fixed	89	32.0	111.0	0.927	20.0	n/a	larger_later	s605	False
391.584	4.0	4.772	larger_later	discount_fixed	89	25.0	141.0	1.405	20.0	n/a	larger_later	s605	False
396.361	4.0	5.18	larger_later	discount_fixed	89	67.0	23.0	0.98	20.0	n/a	larger_later	s605	False
401.543	4.0	5.18	larger_later	discount_fixed	89	77.0	161.0	0.865	20.0	n/a	larger_later	s605	False
406.724	4.0	5.248	larger_later	discount_fixed	89	55.0	163.0	1.837	20.0	n/a	larger_later	s605	False
411.976	4.0	4.568	larger_later	discount_fixed	89	40.0	159.0	1.918	20.0	n/a	larger_later	s605	False
416.545	4.0	4.5	larger_later	discount_fixed	89	76.0	161.0	0.913	20.0	n/a	larger_later	s605	False
421.049	4.0	4.908	larger_later	discount_fixed	89	48.0	128.0	0.963	20.0	n/a	larger_later	s605	False
425.96	4.0	4.568	larger_later	discount_fixed	89	39.0	95.0	1.374	20.0	n/a	larger_later	s605	False
430.531	4.0	6.2	larger_later	discount_fixed	89	83.0	105.0	1.374	20.0	n/a	larger_later	s605	False
436.735	4.0	4.908	larger_later	discount_fixed	89	67.0	41.0	1.154	20.0	n/a	larger_later	s605	False
441.649	4.0	5.248	larger_later	discount_fixed	89	56.0	172.0	2.309	20.0	n/a	larger_later	s605	False
446.898	4.0	5.044	larger_later	discount_fixed	89	28.0	123.0	1.633	20.0	n/a	larger_later	s605	False
451.947	4.0	4.636	larger_later	discount_fixed	89	50.0	129.0	1.085	20.0	n/a	larger_later	s605	False
456.589	4.0	4.704	larger_later	discount_fixed	89	23.0	61.0	2.077	20.0	n/a	larger_later	s605	False
461.295	4.0	4.636	larger_later	discount_fixed	89	79.0	92.0	1.288	20.0	n/a	larger_later	s605	False
465.935	4.0	4.568	larger_later	discount_fixed	89	61.0	141.0	1.01	20.0	n/a	larger_later	s605	False
470.506	4.0	4.568	larger_later	discount_fixed	89	43.0	38.0	1.201	20.0	n/a	larger_later	s605	False
475.078	4.0	4.908	larger_later	discount_fixed	89	66.0	145.0	1.04	20.0	n/a	larger_later	s605	False
479.989	4.0	4.84	larger_later	discount_fixed	89	30.0	23.0	1.994	20.0	n/a	larger_later	s605	False
484.834	4.0	5.248	larger_later	discount_fixed	89	32.0	57.0	1.39	20.0	n/a	larger_later	s605	False
490.084	4.0	4.772	larger_later	discount_fixed	89	27.0	91.0	1.167	20.0	n/a	larger_later	s605	False
494.86	4.0	5.996	larger_later	discount_fixed	89	43.0	120.0	1.358	20.0	n/a	larger_later	s605	False
500.857	4.0	5.588	larger_later	discount_fixed	89	75.0	60.0	0.757	20.0	n/a	larger_later	s605	False
506.448	4.0	4.568	larger_later	discount_fixed	89	34.0	176.0	0.619	20.0	n/a	larger_later	s605	False
511.019	4.0	5.112	larger_later	discount_fixed	89	24.0	38.0	1.568	20.0	n/a	larger_later	s605	False
516.134	4.0	5.656	larger_later	discount_fixed	89	82.0	74.0	1.516	20.0	n/a	larger_later	s605	False
521.793	4.0	4.568	larger_later	discount_fixed	89	58.0	53.0	0.916	20.0	n/a	larger_later	s605	False
526.363	4.0	4.772	larger_later	discount_fixed	89	54.0	23.0	0.96	20.0	n/a	larger_later	s605	False
531.136	4.0	5.044	larger_later	discount_fixed	89	41.0	55.0	0.782	20.0	n/a	larger_later	s605	False
536.182	4.0	4.84	larger_later	discount_fixed	89	77.0	142.0	0.976	20.0	n/a	larger_later	s605	False
541.027	4.0	5.18	larger_later	discount_fixed	89	25.0	108.0	2.056	20.0	n/a	larger_later	s605	False
546.213	4.0	5.044	larger_later	discount_fixed	89	33.0	163.0	1.571	20.0	n/a	larger_later	s605	False
551.262	4.0	4.976	larger_later	discount_fixed	89	29.0	75.0	1.278	20.0	n/a	larger_later	s605	False
556.244	4.0	4.976	larger_later	discount_fixed	89	45.0	157.0	1.104	20.0	n/a	larger_later	s605	False
561.225	4.0	5.316	larger_later	discount_fixed	89	31.0	74.0	1.891	20.0	n/a	larger_later	s605	False
566.545	4.0	4.5	larger_later	discount_fixed	89	80.0	39.0	1.532	20.0	n/a	larger_later	s605	False
571.046	4.0	5.044	larger_later	discount_fixed	89	22.0	21.0	1.578	20.0	n/a	larger_later	s605	False
576.096	4.0	4.704	larger_later	discount_fixed	89	52.0	139.0	1.505	20.0	n/a	larger_later	s605	False
580.803	4.0	4.84	larger_later	discount_fixed	89	54.0	126.0	1.757	20.0	n/a	larger_later	s605	False
585.645	4.0	6.744	larger_later	discount_fixed	89	23.0	176.0	1.677	20.0	n/a	larger_later	s605	False
592.391	4.0	4.5	larger_later	discount_fixed	89	24.0	87.0	1.207	20.0	n/a	larger_later	s605	False
596.894	4.0	4.568	larger_later	discount_fixed	89	36.0	140.0	1.317	20.0	n/a	larger_later	s605	False
601.467	4.0	4.704	larger_later	discount_fixed	89	35.0	171.0	0.948	20.0	n/a	larger_later	s605	False
606.175	4.0	4.908	larger_later	discount_fixed	89	34.0	43.0	1.795	20.0	n/a	larger_later	s605	False
