onset	duration	movement_onset	block_duration	condition	correct	correct_response	experiment_exp_id	key_press	response_time	trial_id	trial_type	worker_id	junk
3.016	0.5	3.015	0.5	AY	n/a	n/a	dot_pattern_expectancy	-1.0	n/a	cue	AY	s606	False
5.528	0.5	6.249	1.636	AY	1.0	71.0	dot_pattern_expectancy	71.0	0.721	probe	AY	s606	False
7.169	0.5	7.168	0.5	AX	n/a	n/a	dot_pattern_expectancy	-1.0	n/a	cue	AX	s606	False
9.678	0.5	10.091	1.636	AX	1.0	89.0	dot_pattern_expectancy	89.0	0.413	probe	AX	s606	False
11.319	0.5	11.318	0.5	AX	n/a	n/a	dot_pattern_expectancy	-1.0	n/a	cue	AX	s606	False
13.824	0.5	14.365	1.5	AX	1.0	89.0	dot_pattern_expectancy	89.0	0.541	probe	AX	s606	False
15.331	0.5	15.33	0.5	AX	n/a	n/a	dot_pattern_expectancy	-1.0	n/a	cue	AX	s606	False
17.842	0.5	18.32	1.5	AX	1.0	89.0	dot_pattern_expectancy	89.0	0.478	probe	AX	s606	False
19.348	0.5	19.347	0.5	AX	n/a	n/a	dot_pattern_expectancy	-1.0	n/a	cue	AX	s606	False
21.858	0.5	22.23	1.908	AX	1.0	89.0	dot_pattern_expectancy	89.0	0.372	probe	AX	s606	False
23.772	0.5	23.771	0.5	BX	n/a	n/a	dot_pattern_expectancy	-1.0	n/a	cue	BX	s606	False
26.28	0.5	26.509	1.636	BX	1.0	71.0	dot_pattern_expectancy	71.0	0.229	probe	BX	s606	False
27.922	0.5	27.921	0.5	AX	n/a	n/a	dot_pattern_expectancy	-1.0	n/a	cue	AX	s606	False
30.431	0.5	31.152	2.044	AX	1.0	89.0	dot_pattern_expectancy	89.0	0.721	probe	AX	s606	False
32.479	0.5	32.478	0.5	AX	n/a	n/a	dot_pattern_expectancy	-1.0	n/a	cue	AX	s606	False
34.987	0.5	35.77	1.772	AX	1.0	89.0	dot_pattern_expectancy	89.0	0.783	probe	AX	s606	False
36.764	0.5	36.763	0.5	AX	n/a	n/a	dot_pattern_expectancy	-1.0	n/a	cue	AX	s606	False
39.272	0.5	39.827	1.5	AX	1.0	89.0	dot_pattern_expectancy	89.0	0.555	probe	AX	s606	False
40.779	0.5	40.778	0.5	AX	n/a	n/a	dot_pattern_expectancy	-1.0	n/a	cue	AX	s606	False
43.291	0.5	43.896	2.18	AX	1.0	89.0	dot_pattern_expectancy	89.0	0.605	probe	AX	s606	False
45.475	0.5	45.474	0.5	AX	n/a	n/a	dot_pattern_expectancy	-1.0	n/a	cue	AX	s606	False
47.987	0.5	48.466	1.5	AX	1.0	89.0	dot_pattern_expectancy	89.0	0.479	probe	AX	s606	False
49.489	0.5	49.488	0.5	BX	n/a	n/a	dot_pattern_expectancy	-1.0	n/a	cue	BX	s606	False
51.999	0.5	52.26	3.676	BX	1.0	71.0	dot_pattern_expectancy	71.0	0.261	probe	BX	s606	False
55.681	0.5	55.68	0.5	BY	n/a	n/a	dot_pattern_expectancy	-1.0	n/a	cue	BY	s606	False
58.193	0.5	58.511	1.636	BY	1.0	71.0	dot_pattern_expectancy	71.0	0.318	probe	BY	s606	False
59.836	0.5	59.835	0.5	BY	n/a	n/a	dot_pattern_expectancy	-1.0	n/a	cue	BY	s606	False
62.346	0.5	62.634	1.636	BY	1.0	71.0	dot_pattern_expectancy	71.0	0.288	probe	BY	s606	False
63.988	0.5	63.987	0.5	BX	n/a	n/a	dot_pattern_expectancy	-1.0	n/a	cue	BX	s606	False
66.496	0.5	66.761	1.5	BX	1.0	71.0	dot_pattern_expectancy	71.0	0.265	probe	BX	s606	False
68.0	0.5	67.999	0.5	AX	n/a	n/a	dot_pattern_expectancy	-1.0	n/a	cue	AX	s606	False
70.509	0.5	70.94	1.908	AX	1.0	89.0	dot_pattern_expectancy	89.0	0.431	probe	AX	s606	False
72.422	0.5	72.421	0.5	AX	n/a	n/a	dot_pattern_expectancy	-1.0	n/a	cue	AX	s606	False
74.928	0.5	75.368	1.636	AX	1.0	89.0	dot_pattern_expectancy	89.0	0.44	probe	AX	s606	False
76.569	0.5	76.568	0.5	BX	n/a	n/a	dot_pattern_expectancy	-1.0	n/a	cue	BX	s606	False
79.076	0.5	79.324	1.5	BX	1.0	71.0	dot_pattern_expectancy	71.0	0.248	probe	BX	s606	False
80.583	0.5	80.582	0.5	AX	n/a	n/a	dot_pattern_expectancy	-1.0	n/a	cue	AX	s606	False
83.09	0.5	83.519	1.908	AX	1.0	89.0	dot_pattern_expectancy	89.0	0.429	probe	AX	s606	False
85.003	0.5	85.002	0.5	BY	n/a	n/a	dot_pattern_expectancy	-1.0	n/a	cue	BY	s606	False
87.512	0.5	87.776	2.18	BY	1.0	71.0	dot_pattern_expectancy	71.0	0.264	probe	BY	s606	False
89.699	0.5	89.698	0.5	AX	n/a	n/a	dot_pattern_expectancy	-1.0	n/a	cue	AX	s606	False
92.207	0.5	92.717	1.772	AX	1.0	89.0	dot_pattern_expectancy	89.0	0.51	probe	AX	s606	False
93.983	0.5	93.982	0.5	AX	n/a	n/a	dot_pattern_expectancy	-1.0	n/a	cue	AX	s606	False
96.493	0.5	96.98	1.5	AX	1.0	89.0	dot_pattern_expectancy	89.0	0.487	probe	AX	s606	False
97.995	0.5	97.994	0.5	AX	n/a	n/a	dot_pattern_expectancy	-1.0	n/a	cue	AX	s606	False
100.505	0.5	101.02	1.5	AX	1.0	89.0	dot_pattern_expectancy	89.0	0.515	probe	AX	s606	False
102.006	0.5	102.005	0.5	AX	n/a	n/a	dot_pattern_expectancy	-1.0	n/a	cue	AX	s606	False
104.511	0.5	104.87	2.044	AX	1.0	89.0	dot_pattern_expectancy	89.0	0.359	probe	AX	s606	False
106.56	0.5	106.559	0.5	AX	n/a	n/a	dot_pattern_expectancy	-1.0	n/a	cue	AX	s606	False
109.072	0.5	109.486	2.86	AX	1.0	89.0	dot_pattern_expectancy	89.0	0.414	probe	AX	s606	False
111.938	0.5	111.937	0.5	BX	n/a	n/a	dot_pattern_expectancy	-1.0	n/a	cue	BX	s606	False
114.45	0.5	114.686	1.5	BX	1.0	71.0	dot_pattern_expectancy	71.0	0.236	probe	BX	s606	False
115.957	0.5	115.956	0.5	BY	n/a	n/a	dot_pattern_expectancy	-1.0	n/a	cue	BY	s606	False
118.465	0.5	118.717	1.772	BY	1.0	71.0	dot_pattern_expectancy	71.0	0.252	probe	BY	s606	False
120.24	0.5	120.239	0.5	AX	n/a	n/a	dot_pattern_expectancy	-1.0	n/a	cue	AX	s606	False
122.747	0.5	123.17	1.772	AX	1.0	89.0	dot_pattern_expectancy	89.0	0.423	probe	AX	s606	False
124.525	0.5	124.524	0.5	AX	n/a	n/a	dot_pattern_expectancy	-1.0	n/a	cue	AX	s606	False
127.034	0.5	127.533	2.86	AX	1.0	89.0	dot_pattern_expectancy	89.0	0.499	probe	AX	s606	False
129.9	0.5	129.899	0.5	AX	n/a	n/a	dot_pattern_expectancy	-1.0	n/a	cue	AX	s606	False
132.411	0.5	132.7	1.772	AX	1.0	89.0	dot_pattern_expectancy	89.0	0.289	probe	AX	s606	False
134.19	0.5	134.189	0.5	BX	n/a	n/a	dot_pattern_expectancy	-1.0	n/a	cue	BX	s606	False
136.7	0.5	136.932	1.636	BX	1.0	71.0	dot_pattern_expectancy	71.0	0.232	probe	BX	s606	False
138.339	0.5	138.338	0.5	BX	n/a	n/a	dot_pattern_expectancy	-1.0	n/a	cue	BX	s606	False
140.846	0.5	141.291	2.452	BX	1.0	71.0	dot_pattern_expectancy	71.0	0.445	probe	BX	s606	False
143.302	0.5	143.301	0.5	AX	n/a	n/a	dot_pattern_expectancy	-1.0	n/a	cue	AX	s606	False
145.81	0.5	146.27	1.636	AX	1.0	89.0	dot_pattern_expectancy	89.0	0.46	probe	AX	s606	False
147.451	0.5	147.45	0.5	BX	n/a	n/a	dot_pattern_expectancy	-1.0	n/a	cue	BX	s606	False
149.958	0.5	150.212	1.5	BX	1.0	71.0	dot_pattern_expectancy	71.0	0.254	probe	BX	s606	False
151.461	0.5	151.46	0.5	AX	n/a	n/a	dot_pattern_expectancy	-1.0	n/a	cue	AX	s606	False
153.97	0.5	154.748	1.636	AX	1.0	89.0	dot_pattern_expectancy	89.0	0.778	probe	AX	s606	False
155.608	0.5	155.607	0.5	AX	n/a	n/a	dot_pattern_expectancy	-1.0	n/a	cue	AX	s606	False
158.118	0.5	158.573	1.636	AX	1.0	89.0	dot_pattern_expectancy	89.0	0.455	probe	AX	s606	False
159.759	0.5	159.758	0.5	BY	n/a	n/a	dot_pattern_expectancy	-1.0	n/a	cue	BY	s606	False
162.266	0.5	162.61	2.18	BY	1.0	71.0	dot_pattern_expectancy	71.0	0.344	probe	BY	s606	False
164.448	0.5	164.447	0.5	AX	n/a	n/a	dot_pattern_expectancy	-1.0	n/a	cue	AX	s606	False
166.951	0.5	167.37	1.5	AX	1.0	89.0	dot_pattern_expectancy	89.0	0.419	probe	AX	s606	False
168.455	0.5	168.454	0.5	AY	n/a	n/a	dot_pattern_expectancy	-1.0	n/a	cue	AY	s606	False
170.963	0.5	171.682	1.636	AY	1.0	71.0	dot_pattern_expectancy	71.0	0.719	probe	AY	s606	False
172.606	0.5	172.605	0.5	AX	n/a	n/a	dot_pattern_expectancy	-1.0	n/a	cue	AX	s606	False
175.112	0.5	175.82	1.636	AX	1.0	89.0	dot_pattern_expectancy	89.0	0.708	probe	AX	s606	False
187.273	0.5	187.272	0.5	AX	n/a	n/a	dot_pattern_expectancy	-1.0	n/a	cue	AX	s606	False
189.784	0.5	190.138	2.18	AX	1.0	89.0	dot_pattern_expectancy	89.0	0.354	probe	AX	s606	False
191.968	0.5	191.967	0.5	AY	n/a	n/a	dot_pattern_expectancy	-1.0	n/a	cue	AY	s606	False
194.477	0.5	195.051	2.316	AY	1.0	71.0	dot_pattern_expectancy	71.0	0.574	probe	AY	s606	False
196.795	0.5	196.794	0.5	AY	n/a	n/a	dot_pattern_expectancy	-1.0	n/a	cue	AY	s606	False
199.307	0.5	199.925	1.636	AY	1.0	71.0	dot_pattern_expectancy	71.0	0.618	probe	AY	s606	False
200.945	0.5	200.944	0.5	BX	n/a	n/a	dot_pattern_expectancy	-1.0	n/a	cue	BX	s606	False
203.453	0.5	203.845	1.908	BX	1.0	71.0	dot_pattern_expectancy	71.0	0.392	probe	BX	s606	False
205.367	0.5	205.366	0.5	AX	n/a	n/a	dot_pattern_expectancy	-1.0	n/a	cue	AX	s606	False
207.879	0.5	208.27	3.54	AX	1.0	89.0	dot_pattern_expectancy	89.0	0.391	probe	AX	s606	False
211.425	0.5	211.424	0.5	BX	n/a	n/a	dot_pattern_expectancy	-1.0	n/a	cue	BX	s606	False
213.935	0.5	214.48	1.636	BX	1.0	71.0	dot_pattern_expectancy	71.0	0.545	probe	BX	s606	False
215.578	0.5	215.577	0.5	BY	n/a	n/a	dot_pattern_expectancy	-1.0	n/a	cue	BY	s606	False
218.086	0.5	218.382	1.5	BY	1.0	71.0	dot_pattern_expectancy	71.0	0.296	probe	BY	s606	False
219.588	0.5	219.587	0.5	AX	n/a	n/a	dot_pattern_expectancy	-1.0	n/a	cue	AX	s606	False
222.093	0.5	222.53	1.5	AX	1.0	89.0	dot_pattern_expectancy	89.0	0.437	probe	AX	s606	False
223.597	0.5	223.596	0.5	AX	n/a	n/a	dot_pattern_expectancy	-1.0	n/a	cue	AX	s606	False
226.104	0.5	226.613	1.772	AX	1.0	89.0	dot_pattern_expectancy	89.0	0.509	probe	AX	s606	False
227.879	0.5	227.878	0.5	BY	n/a	n/a	dot_pattern_expectancy	-1.0	n/a	cue	BY	s606	False
230.388	0.5	230.759	2.452	BY	1.0	71.0	dot_pattern_expectancy	71.0	0.371	probe	BY	s606	False
232.844	0.5	232.843	0.5	AX	n/a	n/a	dot_pattern_expectancy	-1.0	n/a	cue	AX	s606	False
235.35	0.5	235.883	1.908	AX	1.0	89.0	dot_pattern_expectancy	89.0	0.533	probe	AX	s606	False
237.263	0.5	237.262	0.5	BX	n/a	n/a	dot_pattern_expectancy	-1.0	n/a	cue	BX	s606	False
239.773	0.5	240.027	1.636	BX	1.0	71.0	dot_pattern_expectancy	71.0	0.254	probe	BX	s606	False
241.411	0.5	241.41	0.5	AX	n/a	n/a	dot_pattern_expectancy	-1.0	n/a	cue	AX	s606	False
243.92	0.5	244.276	1.5	AX	1.0	89.0	dot_pattern_expectancy	89.0	0.356	probe	AX	s606	False
245.423	0.5	245.422	0.5	AX	n/a	n/a	dot_pattern_expectancy	-1.0	n/a	cue	AX	s606	False
247.928	0.5	248.353	1.636	AX	1.0	89.0	dot_pattern_expectancy	89.0	0.425	probe	AX	s606	False
249.57	0.5	249.569	0.5	AX	n/a	n/a	dot_pattern_expectancy	-1.0	n/a	cue	AX	s606	False
252.074	0.5	252.533	1.636	AX	1.0	89.0	dot_pattern_expectancy	89.0	0.459	probe	AX	s606	False
253.715	0.5	253.714	0.5	BY	n/a	n/a	dot_pattern_expectancy	-1.0	n/a	cue	BY	s606	False
256.227	0.5	256.526	2.452	BY	1.0	71.0	dot_pattern_expectancy	71.0	0.299	probe	BY	s606	False
258.685	0.5	258.684	0.5	AX	n/a	n/a	dot_pattern_expectancy	-1.0	n/a	cue	AX	s606	False
261.197	0.5	261.449	1.5	AX	1.0	89.0	dot_pattern_expectancy	89.0	0.252	probe	AX	s606	False
262.7	0.5	262.699	0.5	BY	n/a	n/a	dot_pattern_expectancy	-1.0	n/a	cue	BY	s606	False
265.209	0.5	265.526	1.5	BY	1.0	71.0	dot_pattern_expectancy	71.0	0.317	probe	BY	s606	False
266.712	0.5	266.711	0.5	AX	n/a	n/a	dot_pattern_expectancy	-1.0	n/a	cue	AX	s606	False
269.22	0.5	269.797	1.636	AX	1.0	89.0	dot_pattern_expectancy	89.0	0.577	probe	AX	s606	False
270.863	0.5	270.862	0.5	AX	n/a	n/a	dot_pattern_expectancy	-1.0	n/a	cue	AX	s606	False
273.366	0.5	273.798	1.636	AX	1.0	89.0	dot_pattern_expectancy	89.0	0.432	probe	AX	s606	False
275.005	0.5	275.004	0.5	AY	n/a	n/a	dot_pattern_expectancy	-1.0	n/a	cue	AY	s606	False
277.513	0.5	277.907	1.636	AY	0.0	71.0	dot_pattern_expectancy	89.0	0.394	probe	AY	s606	False
279.153	0.5	279.152	0.5	AX	n/a	n/a	dot_pattern_expectancy	-1.0	n/a	cue	AX	s606	False
281.663	0.5	282.285	1.5	AX	1.0	89.0	dot_pattern_expectancy	89.0	0.622	probe	AX	s606	False
283.167	0.5	283.166	0.5	AX	n/a	n/a	dot_pattern_expectancy	-1.0	n/a	cue	AX	s606	False
285.675	0.5	286.255	1.5	AX	1.0	89.0	dot_pattern_expectancy	89.0	0.58	probe	AX	s606	False
287.178	0.5	287.177	0.5	AX	n/a	n/a	dot_pattern_expectancy	-1.0	n/a	cue	AX	s606	False
289.687	0.5	290.237	1.772	AX	1.0	89.0	dot_pattern_expectancy	89.0	0.55	probe	AX	s606	False
291.465	0.5	291.464	0.5	AX	n/a	n/a	dot_pattern_expectancy	-1.0	n/a	cue	AX	s606	False
293.977	0.5	294.352	2.18	AX	1.0	89.0	dot_pattern_expectancy	89.0	0.375	probe	AX	s606	False
296.163	0.5	296.162	0.5	BX	n/a	n/a	dot_pattern_expectancy	-1.0	n/a	cue	BX	s606	False
298.675	0.5	299.051	1.772	BX	1.0	71.0	dot_pattern_expectancy	71.0	0.376	probe	BX	s606	False
300.451	0.5	300.45	0.5	BY	n/a	n/a	dot_pattern_expectancy	-1.0	n/a	cue	BY	s606	False
302.962	0.5	303.279	1.5	BY	1.0	71.0	dot_pattern_expectancy	71.0	0.317	probe	BY	s606	False
304.465	0.5	304.464	0.5	AX	n/a	n/a	dot_pattern_expectancy	-1.0	n/a	cue	AX	s606	False
306.972	0.5	307.341	1.5	AX	1.0	89.0	dot_pattern_expectancy	89.0	0.369	probe	AX	s606	False
308.477	0.5	308.476	0.5	AX	n/a	n/a	dot_pattern_expectancy	-1.0	n/a	cue	AX	s606	False
310.984	0.5	311.5	1.636	AX	1.0	89.0	dot_pattern_expectancy	89.0	0.516	probe	AX	s606	False
312.623	0.5	312.622	0.5	AY	n/a	n/a	dot_pattern_expectancy	-1.0	n/a	cue	AY	s606	False
315.134	0.5	315.79	2.18	AY	1.0	71.0	dot_pattern_expectancy	71.0	0.656	probe	AY	s606	False
317.32	0.5	317.319	0.5	AY	n/a	n/a	dot_pattern_expectancy	-1.0	n/a	cue	AY	s606	False
319.826	0.5	320.473	2.316	AY	1.0	71.0	dot_pattern_expectancy	71.0	0.647	probe	AY	s606	False
322.148	0.5	322.147	0.5	BX	n/a	n/a	dot_pattern_expectancy	-1.0	n/a	cue	BX	s606	False
324.657	0.5	324.938	1.636	BX	1.0	71.0	dot_pattern_expectancy	71.0	0.281	probe	BX	s606	False
326.294	0.5	326.293	0.5	BX	n/a	n/a	dot_pattern_expectancy	-1.0	n/a	cue	BX	s606	False
328.799	0.5	329.065	2.18	BX	1.0	71.0	dot_pattern_expectancy	71.0	0.266	probe	BX	s606	False
330.981	0.5	330.98	0.5	AY	n/a	n/a	dot_pattern_expectancy	-1.0	n/a	cue	AY	s606	False
333.493	0.5	334.079	2.044	AY	1.0	71.0	dot_pattern_expectancy	71.0	0.586	probe	AY	s606	False
335.543	0.5	335.542	0.5	AX	n/a	n/a	dot_pattern_expectancy	-1.0	n/a	cue	AX	s606	False
338.051	0.5	338.796	1.772	AX	0.0	89.0	dot_pattern_expectancy	71.0	0.745	probe	AX	s606	False
339.826	0.5	339.825	0.5	AX	n/a	n/a	dot_pattern_expectancy	-1.0	n/a	cue	AX	s606	False
342.335	0.5	342.778	1.5	AX	1.0	89.0	dot_pattern_expectancy	89.0	0.443	probe	AX	s606	False
343.841	0.5	343.84	0.5	AX	n/a	n/a	dot_pattern_expectancy	-1.0	n/a	cue	AX	s606	False
346.35	0.5	346.874	2.18	AX	1.0	89.0	dot_pattern_expectancy	89.0	0.524	probe	AX	s606	False
348.536	0.5	348.535	0.5	AY	n/a	n/a	dot_pattern_expectancy	-1.0	n/a	cue	AY	s606	False
351.046	0.5	351.409	2.452	AY	0.0	71.0	dot_pattern_expectancy	89.0	0.363	probe	AY	s606	False
353.504	0.5	353.503	0.5	AX	n/a	n/a	dot_pattern_expectancy	-1.0	n/a	cue	AX	s606	False
356.015	0.5	356.575	1.636	AX	1.0	89.0	dot_pattern_expectancy	89.0	0.56	probe	AX	s606	False
357.657	0.5	357.656	0.5	AX	n/a	n/a	dot_pattern_expectancy	-1.0	n/a	cue	AX	s606	False
360.164	0.5	360.634	1.908	AX	1.0	89.0	dot_pattern_expectancy	89.0	0.47	probe	AX	s606	False
372.594	0.5	372.593	0.5	AX	n/a	n/a	dot_pattern_expectancy	-1.0	n/a	cue	AX	s606	False
375.096	0.5	375.489	1.772	AX	1.0	89.0	dot_pattern_expectancy	89.0	0.393	probe	AX	s606	False
376.872	0.5	376.871	0.5	AX	n/a	n/a	dot_pattern_expectancy	-1.0	n/a	cue	AX	s606	False
379.379	0.5	379.796	1.5	AX	1.0	89.0	dot_pattern_expectancy	89.0	0.417	probe	AX	s606	False
380.88	0.5	380.879	0.5	AY	n/a	n/a	dot_pattern_expectancy	-1.0	n/a	cue	AY	s606	False
383.392	0.5	384.076	2.452	AY	1.0	71.0	dot_pattern_expectancy	71.0	0.684	probe	AY	s606	False
385.849	0.5	385.848	0.5	AY	n/a	n/a	dot_pattern_expectancy	-1.0	n/a	cue	AY	s606	False
388.353	0.5	389.002	1.772	AY	1.0	71.0	dot_pattern_expectancy	71.0	0.649	probe	AY	s606	False
390.129	0.5	390.128	0.5	AX	n/a	n/a	dot_pattern_expectancy	-1.0	n/a	cue	AX	s606	False
392.636	0.5	393.402	1.908	AX	1.0	89.0	dot_pattern_expectancy	89.0	0.766	probe	AX	s606	False
394.55	0.5	394.549	0.5	AX	n/a	n/a	dot_pattern_expectancy	-1.0	n/a	cue	AX	s606	False
397.062	0.5	397.657	1.908	AX	1.0	89.0	dot_pattern_expectancy	89.0	0.595	probe	AX	s606	False
398.976	0.5	398.975	0.5	AX	n/a	n/a	dot_pattern_expectancy	-1.0	n/a	cue	AX	s606	False
401.485	0.5	401.935	2.588	AX	1.0	89.0	dot_pattern_expectancy	89.0	0.45	probe	AX	s606	False
404.075	0.5	404.074	0.5	AY	n/a	n/a	dot_pattern_expectancy	-1.0	n/a	cue	AY	s606	False
406.586	0.5	407.326	1.5	AY	1.0	71.0	dot_pattern_expectancy	71.0	0.74	probe	AY	s606	False
408.092	0.5	408.091	0.5	BY	n/a	n/a	dot_pattern_expectancy	-1.0	n/a	cue	BY	s606	False
410.599	0.5	410.926	1.5	BY	1.0	71.0	dot_pattern_expectancy	71.0	0.327	probe	BY	s606	False
412.103	0.5	412.102	0.5	BY	n/a	n/a	dot_pattern_expectancy	-1.0	n/a	cue	BY	s606	False
414.608	0.5	414.993	1.5	BY	1.0	71.0	dot_pattern_expectancy	71.0	0.385	probe	BY	s606	False
416.115	0.5	416.114	0.5	AX	n/a	n/a	dot_pattern_expectancy	-1.0	n/a	cue	AX	s606	False
418.62	0.5	419.277	1.636	AX	1.0	89.0	dot_pattern_expectancy	89.0	0.657	probe	AX	s606	False
420.259	0.5	420.258	0.5	BX	n/a	n/a	dot_pattern_expectancy	-1.0	n/a	cue	BX	s606	False
422.763	0.5	423.086	2.044	BX	1.0	71.0	dot_pattern_expectancy	71.0	0.323	probe	BX	s606	False
424.814	0.5	424.813	0.5	AX	n/a	n/a	dot_pattern_expectancy	-1.0	n/a	cue	AX	s606	False
427.323	0.5	427.721	1.772	AX	1.0	89.0	dot_pattern_expectancy	89.0	0.398	probe	AX	s606	False
429.1	0.5	429.099	0.5	BX	n/a	n/a	dot_pattern_expectancy	-1.0	n/a	cue	BX	s606	False
431.608	0.5	431.894	2.588	BX	1.0	71.0	dot_pattern_expectancy	71.0	0.286	probe	BX	s606	False
434.198	0.5	434.197	0.5	AY	n/a	n/a	dot_pattern_expectancy	-1.0	n/a	cue	AY	s606	False
436.71	0.5	437.326	1.5	AY	1.0	71.0	dot_pattern_expectancy	71.0	0.616	probe	AY	s606	False
438.214	0.5	438.213	0.5	AX	n/a	n/a	dot_pattern_expectancy	-1.0	n/a	cue	AX	s606	False
440.724	0.5	441.303	2.452	AX	1.0	89.0	dot_pattern_expectancy	89.0	0.579	probe	AX	s606	False
443.182	0.5	443.181	0.5	BY	n/a	n/a	dot_pattern_expectancy	-1.0	n/a	cue	BY	s606	False
445.688	0.5	445.926	1.636	BY	1.0	71.0	dot_pattern_expectancy	71.0	0.238	probe	BY	s606	False
447.327	0.5	447.326	0.5	AX	n/a	n/a	dot_pattern_expectancy	-1.0	n/a	cue	AX	s606	False
449.834	0.5	450.189	1.636	AX	1.0	89.0	dot_pattern_expectancy	89.0	0.355	probe	AX	s606	False
451.476	0.5	451.475	0.5	AX	n/a	n/a	dot_pattern_expectancy	-1.0	n/a	cue	AX	s606	False
453.989	0.5	454.599	1.5	AX	1.0	89.0	dot_pattern_expectancy	89.0	0.61	probe	AX	s606	False
455.493	0.5	455.492	0.5	BY	n/a	n/a	dot_pattern_expectancy	-1.0	n/a	cue	BY	s606	False
458.004	0.5	458.371	1.636	BY	1.0	71.0	dot_pattern_expectancy	71.0	0.367	probe	BY	s606	False
459.644	0.5	459.643	0.5	AX	n/a	n/a	dot_pattern_expectancy	-1.0	n/a	cue	AX	s606	False
462.152	0.5	462.689	1.5	AX	1.0	89.0	dot_pattern_expectancy	89.0	0.537	probe	AX	s606	False
463.659	0.5	463.658	0.5	AY	n/a	n/a	dot_pattern_expectancy	-1.0	n/a	cue	AY	s606	False
466.167	0.5	466.818	2.18	AY	1.0	71.0	dot_pattern_expectancy	71.0	0.651	probe	AY	s606	False
468.353	0.5	468.352	0.5	AX	n/a	n/a	dot_pattern_expectancy	-1.0	n/a	cue	AX	s606	False
470.862	0.5	471.543	1.5	AX	1.0	89.0	dot_pattern_expectancy	89.0	0.681	probe	AX	s606	False
472.365	0.5	472.364	0.5	AX	n/a	n/a	dot_pattern_expectancy	-1.0	n/a	cue	AX	s606	False
474.87	0.5	475.392	1.908	AX	0.0	89.0	dot_pattern_expectancy	71.0	0.522	probe	AX	s606	False
476.782	0.5	476.781	0.5	BY	n/a	n/a	dot_pattern_expectancy	-1.0	n/a	cue	BY	s606	False
479.294	0.5	479.605	1.636	BY	1.0	71.0	dot_pattern_expectancy	71.0	0.311	probe	BY	s606	False
480.932	0.5	480.931	0.5	BY	n/a	n/a	dot_pattern_expectancy	-1.0	n/a	cue	BY	s606	False
483.439	0.5	483.808	1.636	BY	1.0	71.0	dot_pattern_expectancy	71.0	0.369	probe	BY	s606	False
485.081	0.5	485.08	0.5	AX	n/a	n/a	dot_pattern_expectancy	-1.0	n/a	cue	AX	s606	False
487.593	0.5	488.145	1.636	AX	1.0	89.0	dot_pattern_expectancy	89.0	0.552	probe	AX	s606	False
489.232	0.5	489.231	0.5	AX	n/a	n/a	dot_pattern_expectancy	-1.0	n/a	cue	AX	s606	False
491.743	0.5	492.257	1.5	AX	1.0	89.0	dot_pattern_expectancy	89.0	0.514	probe	AX	s606	False
493.249	0.5	493.248	0.5	BY	n/a	n/a	dot_pattern_expectancy	-1.0	n/a	cue	BY	s606	False
495.761	0.5	496.144	2.044	BY	1.0	71.0	dot_pattern_expectancy	71.0	0.383	probe	BY	s606	False
497.808	0.5	497.807	0.5	AY	n/a	n/a	dot_pattern_expectancy	-1.0	n/a	cue	AY	s606	False
500.319	0.5	500.946	2.18	AY	1.0	71.0	dot_pattern_expectancy	71.0	0.627	probe	AY	s606	False
502.505	0.5	502.504	0.5	AY	n/a	n/a	dot_pattern_expectancy	-1.0	n/a	cue	AY	s606	False
505.013	0.5	505.577	1.636	AY	1.0	71.0	dot_pattern_expectancy	71.0	0.564	probe	AY	s606	False
506.655	0.5	506.654	0.5	AY	n/a	n/a	dot_pattern_expectancy	-1.0	n/a	cue	AY	s606	False
509.167	0.5	509.835	1.772	AY	1.0	71.0	dot_pattern_expectancy	71.0	0.668	probe	AY	s606	False
510.945	0.5	510.944	0.5	BY	n/a	n/a	dot_pattern_expectancy	-1.0	n/a	cue	BY	s606	False
513.456	0.5	513.735	1.5	BY	1.0	71.0	dot_pattern_expectancy	71.0	0.279	probe	BY	s606	False
514.961	0.5	514.96	0.5	BX	n/a	n/a	dot_pattern_expectancy	-1.0	n/a	cue	BX	s606	False
517.469	0.5	517.752	1.908	BX	1.0	71.0	dot_pattern_expectancy	71.0	0.283	probe	BX	s606	False
519.379	0.5	519.378	0.5	AX	n/a	n/a	dot_pattern_expectancy	-1.0	n/a	cue	AX	s606	False
521.891	0.5	522.489	2.044	AX	1.0	89.0	dot_pattern_expectancy	89.0	0.598	probe	AX	s606	False
523.941	0.5	523.94	0.5	AX	n/a	n/a	dot_pattern_expectancy	-1.0	n/a	cue	AX	s606	False
526.45	0.5	527.154	1.636	AX	1.0	89.0	dot_pattern_expectancy	89.0	0.704	probe	AX	s606	False
528.088	0.5	528.087	0.5	AX	n/a	n/a	dot_pattern_expectancy	-1.0	n/a	cue	AX	s606	False
530.598	0.5	531.053	1.772	AX	1.0	89.0	dot_pattern_expectancy	89.0	0.455	probe	AX	s606	False
532.375	0.5	532.374	0.5	AX	n/a	n/a	dot_pattern_expectancy	-1.0	n/a	cue	AX	s606	False
534.882	0.5	535.441	1.636	AX	1.0	89.0	dot_pattern_expectancy	89.0	0.559	probe	AX	s606	False
536.521	0.5	536.52	0.5	BX	n/a	n/a	dot_pattern_expectancy	-1.0	n/a	cue	BX	s606	False
539.029	0.5	539.319	1.772	BX	1.0	71.0	dot_pattern_expectancy	71.0	0.29	probe	BX	s606	False
540.807	0.5	540.806	0.5	AX	n/a	n/a	dot_pattern_expectancy	-1.0	n/a	cue	AX	s606	False
543.312	0.5	543.897	1.5	AX	1.0	89.0	dot_pattern_expectancy	89.0	0.585	probe	AX	s606	False
555.331	0.5	555.33	0.5	BY	n/a	n/a	dot_pattern_expectancy	-1.0	n/a	cue	BY	s606	False
557.84	0.5	558.253	1.636	BY	1.0	71.0	dot_pattern_expectancy	71.0	0.413	probe	BY	s606	False
559.482	0.5	559.481	0.5	AY	n/a	n/a	dot_pattern_expectancy	-1.0	n/a	cue	AY	s606	False
561.992	0.5	562.646	1.5	AY	1.0	71.0	dot_pattern_expectancy	71.0	0.654	probe	AY	s606	False
563.497	0.5	563.496	0.5	AX	n/a	n/a	dot_pattern_expectancy	-1.0	n/a	cue	AX	s606	False
566.005	0.5	566.653	2.044	AX	1.0	89.0	dot_pattern_expectancy	89.0	0.648	probe	AX	s606	False
568.05	0.5	568.049	0.5	BY	n/a	n/a	dot_pattern_expectancy	-1.0	n/a	cue	BY	s606	False
570.562	0.5	570.957	1.772	BY	1.0	71.0	dot_pattern_expectancy	71.0	0.395	probe	BY	s606	False
572.34	0.5	572.339	0.5	BX	n/a	n/a	dot_pattern_expectancy	-1.0	n/a	cue	BX	s606	False
574.842	0.5	575.373	1.636	BX	1.0	71.0	dot_pattern_expectancy	71.0	0.531	probe	BX	s606	False
576.484	0.5	576.483	0.5	AX	n/a	n/a	dot_pattern_expectancy	-1.0	n/a	cue	AX	s606	False
578.991	0.5	579.478	1.636	AX	1.0	89.0	dot_pattern_expectancy	89.0	0.487	probe	AX	s606	False
580.632	0.5	580.631	0.5	AX	n/a	n/a	dot_pattern_expectancy	-1.0	n/a	cue	AX	s606	False
583.136	0.5	583.69	1.5	AX	1.0	89.0	dot_pattern_expectancy	89.0	0.554	probe	AX	s606	False
584.641	0.5	584.64	0.5	AX	n/a	n/a	dot_pattern_expectancy	-1.0	n/a	cue	AX	s606	False
587.15	0.5	587.654	1.5	AX	1.0	89.0	dot_pattern_expectancy	89.0	0.504	probe	AX	s606	False
588.655	0.5	588.654	0.5	AY	n/a	n/a	dot_pattern_expectancy	-1.0	n/a	cue	AY	s606	False
591.163	0.5	591.603	2.044	AY	1.0	71.0	dot_pattern_expectancy	71.0	0.44	probe	AY	s606	False
593.21	0.5	593.209	0.5	AX	n/a	n/a	dot_pattern_expectancy	-1.0	n/a	cue	AX	s606	False
595.72	0.5	596.306	2.452	AX	1.0	89.0	dot_pattern_expectancy	89.0	0.586	probe	AX	s606	False
598.176	0.5	598.175	0.5	AX	n/a	n/a	dot_pattern_expectancy	-1.0	n/a	cue	AX	s606	False
600.683	0.5	601.035	1.908	AX	1.0	89.0	dot_pattern_expectancy	89.0	0.352	probe	AX	s606	False
602.595	0.5	602.594	0.5	AX	n/a	n/a	dot_pattern_expectancy	-1.0	n/a	cue	AX	s606	False
605.108	0.5	605.875	1.5	AX	0.0	89.0	dot_pattern_expectancy	71.0	0.767	probe	AX	s606	False
606.611	0.5	606.61	0.5	AX	n/a	n/a	dot_pattern_expectancy	-1.0	n/a	cue	AX	s606	False
609.119	0.5	609.496	1.908	AX	1.0	89.0	dot_pattern_expectancy	89.0	0.377	probe	AX	s606	False
611.034	0.5	611.033	0.5	BX	n/a	n/a	dot_pattern_expectancy	-1.0	n/a	cue	BX	s606	False
613.538	0.5	613.907	2.18	BX	1.0	71.0	dot_pattern_expectancy	71.0	0.369	probe	BX	s606	False
615.724	0.5	615.723	0.5	AX	n/a	n/a	dot_pattern_expectancy	-1.0	n/a	cue	AX	s606	False
618.233	0.5	618.624	1.5	AX	1.0	89.0	dot_pattern_expectancy	89.0	0.391	probe	AX	s606	False
619.735	0.5	619.734	0.5	BY	n/a	n/a	dot_pattern_expectancy	-1.0	n/a	cue	BY	s606	False
622.242	0.5	622.535	1.908	BY	1.0	71.0	dot_pattern_expectancy	71.0	0.293	probe	BY	s606	False
624.155	0.5	624.154	0.5	BX	n/a	n/a	dot_pattern_expectancy	-1.0	n/a	cue	BX	s606	False
626.662	0.5	626.661	2.316	BX	0.0	71.0	dot_pattern_expectancy	-1.0	n/a	probe	BX	s606	False
628.984	0.5	628.983	0.5	AY	n/a	n/a	dot_pattern_expectancy	-1.0	n/a	cue	AY	s606	False
631.489	0.5	631.955	2.316	AY	1.0	71.0	dot_pattern_expectancy	71.0	0.466	probe	AY	s606	False
633.811	0.5	633.81	0.5	BX	n/a	n/a	dot_pattern_expectancy	-1.0	n/a	cue	BX	s606	False
636.319	0.5	636.65	1.636	BX	1.0	71.0	dot_pattern_expectancy	71.0	0.331	probe	BX	s606	False
637.961	0.5	637.96	0.5	AY	n/a	n/a	dot_pattern_expectancy	-1.0	n/a	cue	AY	s606	False
640.466	0.5	640.98	1.5	AY	1.0	71.0	dot_pattern_expectancy	71.0	0.514	probe	AY	s606	False
641.973	0.5	641.972	0.5	BY	n/a	n/a	dot_pattern_expectancy	-1.0	n/a	cue	BY	s606	False
644.477	0.5	644.792	1.908	BY	1.0	71.0	dot_pattern_expectancy	71.0	0.315	probe	BY	s606	False
646.391	0.5	646.39	0.5	AX	n/a	n/a	dot_pattern_expectancy	-1.0	n/a	cue	AX	s606	False
648.898	0.5	649.443	1.5	AX	1.0	89.0	dot_pattern_expectancy	89.0	0.545	probe	AX	s606	False
650.405	0.5	650.404	0.5	AY	n/a	n/a	dot_pattern_expectancy	-1.0	n/a	cue	AY	s606	False
652.913	0.5	653.473	2.316	AY	1.0	71.0	dot_pattern_expectancy	71.0	0.56	probe	AY	s606	False
655.231	0.5	655.23	0.5	AX	n/a	n/a	dot_pattern_expectancy	-1.0	n/a	cue	AX	s606	False
657.741	0.5	658.125	1.5	AX	1.0	89.0	dot_pattern_expectancy	89.0	0.384	probe	AX	s606	False
659.244	0.5	659.243	0.5	AY	n/a	n/a	dot_pattern_expectancy	-1.0	n/a	cue	AY	s606	False
661.751	0.5	662.229	2.724	AY	1.0	71.0	dot_pattern_expectancy	71.0	0.478	probe	AY	s606	False
664.478	0.5	664.477	0.5	AX	n/a	n/a	dot_pattern_expectancy	-1.0	n/a	cue	AX	s606	False
666.985	0.5	667.44	1.5	AX	1.0	89.0	dot_pattern_expectancy	89.0	0.455	probe	AX	s606	False
668.487	0.5	668.486	0.5	AX	n/a	n/a	dot_pattern_expectancy	-1.0	n/a	cue	AX	s606	False
670.995	0.5	671.348	1.636	AX	1.0	89.0	dot_pattern_expectancy	89.0	0.353	probe	AX	s606	False
672.637	0.5	672.636	0.5	AX	n/a	n/a	dot_pattern_expectancy	-1.0	n/a	cue	AX	s606	False
675.147	0.5	675.587	1.636	AX	1.0	89.0	dot_pattern_expectancy	89.0	0.44	probe	AX	s606	False
676.785	0.5	676.784	0.5	AX	n/a	n/a	dot_pattern_expectancy	-1.0	n/a	cue	AX	s606	False
679.293	0.5	679.677	1.772	AX	1.0	89.0	dot_pattern_expectancy	89.0	0.384	probe	AX	s606	False
681.069	0.5	681.068	0.5	BY	n/a	n/a	dot_pattern_expectancy	-1.0	n/a	cue	BY	s606	False
683.574	0.5	683.825	1.772	BY	1.0	71.0	dot_pattern_expectancy	71.0	0.251	probe	BY	s606	False
685.353	0.5	685.352	0.5	AX	n/a	n/a	dot_pattern_expectancy	-1.0	n/a	cue	AX	s606	False
687.865	0.5	688.338	1.5	AX	1.0	89.0	dot_pattern_expectancy	89.0	0.473	probe	AX	s606	False
689.37	0.5	689.369	0.5	BY	n/a	n/a	dot_pattern_expectancy	-1.0	n/a	cue	BY	s606	False
691.878	0.5	692.213	2.452	BY	1.0	71.0	dot_pattern_expectancy	71.0	0.335	probe	BY	s606	False
694.336	0.5	694.335	0.5	AX	n/a	n/a	dot_pattern_expectancy	-1.0	n/a	cue	AX	s606	False
696.848	0.5	697.45	1.636	AX	1.0	89.0	dot_pattern_expectancy	89.0	0.602	probe	AX	s606	False
698.49	0.5	698.489	0.5	AX	n/a	n/a	dot_pattern_expectancy	-1.0	n/a	cue	AX	s606	False
700.995	0.5	701.535	1.636	AX	1.0	89.0	dot_pattern_expectancy	89.0	0.54	probe	AX	s606	False
702.637	0.5	702.636	0.5	BX	n/a	n/a	dot_pattern_expectancy	-1.0	n/a	cue	BX	s606	False
705.145	0.5	705.525	1.5	BX	1.0	71.0	dot_pattern_expectancy	71.0	0.38	probe	BX	s606	False
706.647	0.5	706.646	0.5	BX	n/a	n/a	dot_pattern_expectancy	-1.0	n/a	cue	BX	s606	False
709.155	0.5	709.473	1.5	BX	1.0	71.0	dot_pattern_expectancy	71.0	0.318	probe	BX	s606	False
710.661	0.5	710.66	0.5	AX	n/a	n/a	dot_pattern_expectancy	-1.0	n/a	cue	AX	s606	False
713.168	0.5	713.73	2.316	AX	1.0	89.0	dot_pattern_expectancy	89.0	0.562	probe	AX	s606	False
715.491	0.5	715.49	0.5	AY	n/a	n/a	dot_pattern_expectancy	-1.0	n/a	cue	AY	s606	False
717.999	0.5	718.447	2.044	AY	0.0	71.0	dot_pattern_expectancy	89.0	0.448	probe	AY	s606	False
720.046	0.5	720.045	0.5	AX	n/a	n/a	dot_pattern_expectancy	-1.0	n/a	cue	AX	s606	False
722.552	0.5	723.2	3.948	AX	1.0	89.0	dot_pattern_expectancy	89.0	0.648	probe	AX	s606	False
726.503	0.5	726.502	0.5	AX	n/a	n/a	dot_pattern_expectancy	-1.0	n/a	cue	AX	s606	False
729.014	0.5	729.584	1.636	AX	1.0	89.0	dot_pattern_expectancy	89.0	0.57	probe	AX	s606	False
