onset	duration	movement_onset	EV	action	block_duration	experiment_exp_id	gain_amount	gain_probability	key_press	loss_amount	loss_probability	num_cards	num_click_in_round	num_loss_cards	risk	response_time	total_cards	trial_id	trial_type	worker_id	junk	feedback
3.013	4.745	7.758	-0.6072504639609901	draw_card	4.745	columbia_card_task_fmri	12.0	0.8333333333333334	89.0	-70.0	0.1666666666666666	6.0	1.0	1.0	-2.6191119355204897	4.745	n/a	stim	poldrack-single-stim	s606	False	1
7.761	2.05	9.811	-3.340583797294322	draw_card	2.05	columbia_card_task_fmri	12.0	0.8	89.0	-70.0	0.2	6.0	2.0	1.0	-0.3799608933840801	2.05	n/a	stim	poldrack-single-stim	s606	False	1
9.813	0.986	10.799	-7.440583797294324	draw_card	0.986	columbia_card_task_fmri	12.0	0.75	89.0	-70.0	0.25	6.0	3.0	1.0	2.3257772087111874	0.986	3.0	stim	poldrack-single-stim	s606	False	0
11.553	1.5	10.802	n/a	-1.0	2.454	columbia_card_task_fmri	n/a	n/a	-1.0	n/a	n/a	n/a	n/a	n/a	n/a	n/a	n/a	ITI	poldrack-single-stim	s606	False	0
13.26	5.513	18.773	0.2260828693723438	draw_card	5.513	columbia_card_task_fmri	14.0	0.8333333333333334	89.0	-75.0	0.1666666666666666	6.0	1.0	1.0	-0.0118090815012621	5.513	n/a	stim	poldrack-single-stim	s606	False	1
18.775	0.934	19.709	-2.740583797294323	draw_card	0.934	columbia_card_task_fmri	14.0	0.8	89.0	-75.0	0.2	6.0	2.0	1.0	2.418694411665306	0.934	2.0	stim	poldrack-single-stim	s606	False	0
20.464	1.5	19.713	n/a	-1.0	2.454	columbia_card_task_fmri	n/a	n/a	-1.0	n/a	n/a	n/a	n/a	n/a	n/a	n/a	n/a	ITI	poldrack-single-stim	s606	False	0
22.17	1.531	23.701	1.8927495360390096	draw_card	1.531	columbia_card_task_fmri	15.0	0.8333333333333334	89.0	-70.0	0.1666666666666666	6.0	1.0	1.0	-1.5017255072688087	1.531	1.0	stim	poldrack-single-stim	s606	False	0
24.457	1.5	23.706	n/a	-1.0	2.522	columbia_card_task_fmri	n/a	n/a	-1.0	n/a	n/a	n/a	n/a	n/a	n/a	n/a	n/a	ITI	poldrack-single-stim	s606	False	0
26.23	4.164	30.394	2.726082869372344	draw_card	4.164	columbia_card_task_fmri	17.0	0.8333333333333334	89.0	-75.0	0.1666666666666666	6.0	1.0	1.0	1.1056736028498193	4.164	n/a	stim	poldrack-single-stim	s606	False	1
30.396	1.308	31.704	-0.3405837972943226	draw_card	1.308	columbia_card_task_fmri	17.0	0.8	89.0	-75.0	0.2	6.0	2.0	1.0	3.6181807139746662	1.308	2.0	stim	poldrack-single-stim	s606	False	0
32.459	1.5	31.708	n/a	-1.0	2.386	columbia_card_task_fmri	n/a	n/a	-1.0	n/a	n/a	n/a	n/a	n/a	n/a	n/a	n/a	ITI	poldrack-single-stim	s606	False	0
34.096	2.364	36.46	4.059416202705676	draw_card	2.364	columbia_card_task_fmri	24.0	0.75	89.0	-60.0	0.25	8.0	1.0	2.0	3.1914265531022394	2.364	1.0	stim	poldrack-single-stim	s606	False	0
37.213	1.5	36.462	n/a	-1.0	2.454	columbia_card_task_fmri	n/a	n/a	-1.0	n/a	n/a	n/a	n/a	n/a	n/a	n/a	n/a	ITI	poldrack-single-stim	s606	False	0
38.92	4.227	43.147	4.059416202705676	draw_card	4.227	columbia_card_task_fmri	29.0	0.75	89.0	-75.0	0.25	8.0	1.0	2.0	11.84871512157416	4.227	n/a	stim	poldrack-single-stim	s606	False	1
43.147	1.427	44.574	0.3451304884199642	draw_card	1.427	columbia_card_task_fmri	29.0	0.7142857142857143	89.0	-75.0	0.2857142857142857	8.0	2.0	2.0	13.797288310981372	1.427	n/a	stim	poldrack-single-stim	s606	False	1
44.576	3.966	48.542	-4.607250463960988	draw_card	3.966	columbia_card_task_fmri	29.0	0.6666666666666667	89.0	-75.0	0.3333333333333333	8.0	3.0	2.0	15.840449795925151	3.966	n/a	stim	poldrack-single-stim	s606	False	1
48.544	5.789	54.333	-11.540583797294325	end_round	5.789	columbia_card_task_fmri	29.0	0.6	71.0	-75.0	0.4	8.0	4.0	2.0	17.76333432553068	5.789	3.0	stim	poldrack-single-stim	s606	False	1
55.087	1.5	54.336	n/a	-1.0	2.522	columbia_card_task_fmri	n/a	n/a	-1.0	n/a	n/a	n/a	n/a	n/a	n/a	n/a	n/a	ITI	poldrack-single-stim	s606	False	0
56.86	2.303	59.163	-0.1628060195165437	draw_card	2.303	columbia_card_task_fmri	17.0	0.7777777777777778	89.0	-65.0	0.2222222222222222	9.0	1.0	2.0	0.9100480389095154	2.303	n/a	stim	poldrack-single-stim	s606	False	1
59.165	0.599	59.764	-2.440583797294324	draw_card	0.599	columbia_card_task_fmri	17.0	0.75	89.0	-65.0	0.25	9.0	2.0	2.0	2.3257772087111874	0.599	n/a	stim	poldrack-single-stim	s606	False	1
59.766	2.951	62.717	-5.369155225865751	draw_card	2.951	columbia_card_task_fmri	17.0	0.7142857142857143	89.0	-65.0	0.2857142857142857	9.0	3.0	2.0	3.861904422218202	2.951	3.0	stim	poldrack-single-stim	s606	False	0
63.471	1.5	62.72	n/a	-1.0	2.522	columbia_card_task_fmri	n/a	n/a	-1.0	n/a	n/a	n/a	n/a	n/a	n/a	n/a	n/a	ITI	poldrack-single-stim	s606	False	0
65.244	2.661	67.905	4.159416202705676	draw_card	2.661	columbia_card_task_fmri	14.0	0.9	89.0	-95.0	0.1	10.0	1.0	1.0	-0.4799086127379155	2.661	n/a	stim	poldrack-single-stim	s606	False	1
67.908	0.515	68.423	2.9483050915945634	draw_card	0.515	columbia_card_task_fmri	14.0	0.8888888888888888	89.0	-95.0	0.1111111111111111	10.0	2.0	1.0	1.0747079174282277	0.515	n/a	stim	poldrack-single-stim	s606	False	1
68.425	0.984	69.409	1.434416202705676	draw_card	0.984	columbia_card_task_fmri	14.0	0.875	89.0	-95.0	0.125	10.0	3.0	1.0	2.866860090222474	0.984	3.0	stim	poldrack-single-stim	s606	False	0
70.161	1.5	69.41	n/a	-1.0	2.59	columbia_card_task_fmri	n/a	n/a	-1.0	n/a	n/a	n/a	n/a	n/a	n/a	n/a	n/a	ITI	poldrack-single-stim	s606	False	0
72.003	0.98	72.983	0.0594162027056759	draw_card	0.98	columbia_card_task_fmri	15.0	0.8	89.0	-65.0	0.2	10.0	1.0	2.0	-1.1795335065005972	0.98	n/a	stim	poldrack-single-stim	s606	False	1
72.985	1.785	74.77	-1.7183615750721009	draw_card	1.785	columbia_card_task_fmri	15.0	0.7777777777777778	89.0	-65.0	0.2222222222222222	10.0	2.0	2.0	0.0789798503246075	1.785	n/a	stim	poldrack-single-stim	s606	False	1
74.772	2.367	77.139	-3.940583797294324	draw_card	2.367	columbia_card_task_fmri	15.0	0.75	89.0	-65.0	0.25	10.0	3.0	2.0	1.4601466544272697	2.367	3.0	stim	poldrack-single-stim	s606	False	0
77.892	1.5	77.141	n/a	-1.0	2.454	columbia_card_task_fmri	n/a	n/a	-1.0	n/a	n/a	n/a	n/a	n/a	n/a	n/a	n/a	ITI	poldrack-single-stim	s606	False	0
79.598	4.106	83.704	1.6594162027056774	draw_card	4.106	columbia_card_task_fmri	17.0	0.8	89.0	-65.0	0.2	10.0	1.0	2.0	-0.3799608933840801	4.106	1.0	stim	poldrack-single-stim	s606	False	0
84.459	1.5	83.708	n/a	-1.0	2.318	columbia_card_task_fmri	n/a	n/a	-1.0	n/a	n/a	n/a	n/a	n/a	n/a	n/a	n/a	ITI	poldrack-single-stim	s606	False	0
86.029	0.9	86.929	0.2260828693723438	draw_card	0.9	columbia_card_task_fmri	13.0	0.8333333333333334	89.0	-70.0	0.1666666666666666	12.0	1.0	2.0	-2.246654989505277	0.9	n/a	stim	poldrack-single-stim	s606	False	1
86.931	0.699	87.63	-1.0314928882034176	draw_card	0.699	columbia_card_task_fmri	13.0	0.8181818181818181	89.0	-70.0	0.1818181818181818	12.0	2.0	2.0	-1.166887974624423	0.699	n/a	stim	poldrack-single-stim	s606	False	1
87.633	1.469	89.102	-2.540583797294324	draw_card	1.469	columbia_card_task_fmri	13.0	0.8	89.0	-70.0	0.2	12.0	3.0	2.0	0.0198331310428727	1.469	n/a	stim	poldrack-single-stim	s606	False	1
89.104	2.231	91.335	-4.385028241738769	end_round	2.231	columbia_card_task_fmri	13.0	0.7777777777777778	71.0	-70.0	0.2222222222222222	12.0	4.0	2.0	1.3255895597456728	2.231	3.0	stim	poldrack-single-stim	s606	False	1
92.091	1.5	91.34	n/a	-1.0	2.25	columbia_card_task_fmri	n/a	n/a	-1.0	n/a	n/a	n/a	n/a	n/a	n/a	n/a	n/a	ITI	poldrack-single-stim	s606	False	0
93.592	2.538	96.13	0.2260828693723438	draw_card	2.538	columbia_card_task_fmri	15.0	0.8333333333333334	89.0	-80.0	0.1666666666666666	12.0	1.0	2.0	2.2231910822841456	2.538	n/a	stim	poldrack-single-stim	s606	False	1
96.133	0.388	96.521	-1.2133110700215992	draw_card	0.388	columbia_card_task_fmri	15.0	0.8181818181818181	89.0	-80.0	0.1818181818181818	12.0	2.0	2.0	3.459234603871004	0.388	n/a	stim	poldrack-single-stim	s606	False	1
96.523	0.46	96.983	-2.940583797294324	draw_card	0.46	columbia_card_task_fmri	15.0	0.8	89.0	-80.0	0.2	12.0	3.0	2.0	4.817699440819496	0.46	n/a	stim	poldrack-single-stim	s606	False	1
96.986	0.401	97.387	-5.051694908405437	draw_card	0.401	columbia_card_task_fmri	15.0	0.7777777777777778	89.0	-80.0	0.2222222222222222	12.0	4.0	2.0	6.312413063434562	0.401	n/a	stim	poldrack-single-stim	s606	False	1
97.389	0.652	98.041	-7.690583797294324	draw_card	0.652	columbia_card_task_fmri	15.0	0.75	89.0	-80.0	0.25	12.0	5.0	2.0	7.952780827152765	0.652	n/a	stim	poldrack-single-stim	s606	False	1
98.042	1.811	99.853	-11.083440940151462	end_round	1.811	columbia_card_task_fmri	15.0	0.7142857142857143	71.0	-80.0	0.2857142857142857	12.0	6.0	2.0	9.732633858510916	1.811	5.0	stim	poldrack-single-stim	s606	False	1
100.607	1.5	99.856	n/a	-1.0	2.658	columbia_card_task_fmri	n/a	n/a	-1.0	n/a	n/a	n/a	n/a	n/a	n/a	n/a	n/a	ITI	poldrack-single-stim	s606	False	0
102.516	2.651	105.167	-0.740583797294323	draw_card	2.651	columbia_card_task_fmri	14.0	0.8	89.0	-65.0	0.2	15.0	1.0	3.0	-1.579311704840087	2.651	n/a	stim	poldrack-single-stim	s606	False	1
105.17	0.194	105.364	-1.8691552258657511	draw_card	0.194	columbia_card_task_fmri	14.0	0.7857142857142857	89.0	-65.0	0.2142857142857142	15.0	2.0	3.0	-0.7640118802857288	0.194	n/a	stim	poldrack-single-stim	s606	False	1
105.367	1.918	107.285	-3.171353028063556	draw_card	1.918	columbia_card_task_fmri	14.0	0.7692307692307692	89.0	-65.0	0.2307692307692307	15.0	3.0	3.0	0.1044686557973264	1.918	n/a	stim	poldrack-single-stim	s606	False	1
107.288	1.455	108.743	-4.690583797294324	end_round	1.455	columbia_card_task_fmri	14.0	0.75	71.0	-65.0	0.25	15.0	4.0	3.0	1.0273388691274905	1.455	3.0	stim	poldrack-single-stim	s606	False	1
109.498	1.5	108.747	n/a	-1.0	2.454	columbia_card_task_fmri	n/a	n/a	-1.0	n/a	n/a	n/a	n/a	n/a	n/a	n/a	n/a	ITI	poldrack-single-stim	s606	False	0
111.204	11.202	122.406	-0.8155837972943241	draw_card	11.202	columbia_card_task_fmri	1.0	0.9375	89.0	-45.0	0.0625	16.0	1.0	1.0	-22.011953297250045	11.202	n/a	stim	poldrack-single-stim	s606	False	1
122.409	0.334	122.743	-1.0072504639609905	draw_card	0.334	columbia_card_task_fmri	1.0	0.9333333333333332	89.0	-45.0	0.0666666666666666	16.0	2.0	1.0	-21.67384623936638	0.334	n/a	stim	poldrack-single-stim	s606	False	1
122.746	0.368	123.114	-1.2262980830086097	draw_card	0.368	columbia_card_task_fmri	1.0	0.9285714285714286	89.0	-45.0	0.0714285714285714	16.0	3.0	1.0	-21.30297879305525	0.368	n/a	stim	poldrack-single-stim	s606	False	1
123.117	1.317	124.434	-1.4790453357558624	end_round	1.317	columbia_card_task_fmri	1.0	0.9230769230769232	71.0	-45.0	0.0769230769230769	16.0	4.0	1.0	-20.893778117027864	1.317	3.0	stim	poldrack-single-stim	s606	False	1
125.187	1.5	124.436	n/a	-1.0	2.386	columbia_card_task_fmri	n/a	n/a	-1.0	n/a	n/a	n/a	n/a	n/a	n/a	n/a	n/a	ITI	poldrack-single-stim	s606	False	0
126.825	2.447	129.272	0.1219162027056759	draw_card	2.447	columbia_card_task_fmri	15.0	0.8125	89.0	-70.0	0.1875	16.0	1.0	3.0	-0.0036030650469385	2.447	n/a	stim	poldrack-single-stim	s606	False	1
129.274	0.517	129.791	-0.940583797294324	draw_card	0.517	columbia_card_task_fmri	15.0	0.8	89.0	-70.0	0.2	16.0	2.0	3.0	0.8194357085573643	0.517	n/a	stim	poldrack-single-stim	s606	False	1
129.793	4.405	134.198	-2.15486951158004	end_round	4.405	columbia_card_task_fmri	15.0	0.7857142857142857	71.0	-70.0	0.2142857142857142	16.0	3.0	3.0	1.6967224269716823	4.405	2.0	stim	poldrack-single-stim	s606	False	1
134.952	1.5	134.201	n/a	-1.0	2.59	columbia_card_task_fmri	n/a	n/a	-1.0	n/a	n/a	n/a	n/a	n/a	n/a	n/a	n/a	ITI	poldrack-single-stim	s606	False	0
136.794	2.596	139.39	7.059416202705676	draw_card	2.596	columbia_card_task_fmri	30.0	0.7	89.0	-50.0	0.3	10.0	1.0	3.0	3.4788442205405588	2.596	n/a	stim	poldrack-single-stim	s606	False	1
139.393	0.953	140.346	4.392749536039015	draw_card	0.953	columbia_card_task_fmri	30.0	0.6666666666666667	89.0	-50.0	0.3333333333333333	10.0	2.0	3.0	4.5301736753948845	0.953	n/a	stim	poldrack-single-stim	s606	False	1
140.349	3.896	144.245	1.059416202705676	end_round	3.896	columbia_card_task_fmri	30.0	0.625	71.0	-50.0	0.375	10.0	3.0	3.0	5.54725477187327	3.896	2.0	stim	poldrack-single-stim	s606	False	1
145.0	1.5	144.249	n/a	-1.0	2.318	columbia_card_task_fmri	n/a	n/a	-1.0	n/a	n/a	n/a	n/a	n/a	n/a	n/a	n/a	ITI	poldrack-single-stim	s606	False	0
146.57	2.47	149.04	6.459416202705676	draw_card	2.47	columbia_card_task_fmri	17.0	0.8666666666666667	89.0	-70.0	0.1333333333333333	15.0	1.0	2.0	-3.603783229516985	2.47	1.0	stim	poldrack-single-stim	s606	False	0
149.795	1.5	149.044	n/a	-1.0	2.59	columbia_card_task_fmri	n/a	n/a	-1.0	n/a	n/a	n/a	n/a	n/a	n/a	n/a	n/a	ITI	poldrack-single-stim	s606	False	0
151.639	3.063	154.702	1.684416202705676	draw_card	3.063	columbia_card_task_fmri	7.0	0.9375	89.0	-95.0	0.0625	16.0	1.0	1.0	-8.484078393629822	3.063	n/a	stim	poldrack-single-stim	s606	False	1
154.705	0.356	155.061	1.259416202705676	draw_card	0.356	columbia_card_task_fmri	7.0	0.9333333333333332	89.0	-95.0	0.0666666666666666	16.0	2.0	1.0	-7.731748762565783	0.356	n/a	stim	poldrack-single-stim	s606	False	1
155.064	1.497	156.561	0.7737019169913903	end_round	1.497	columbia_card_task_fmri	7.0	0.9285714285714286	71.0	-95.0	0.0714285714285714	16.0	3.0	1.0	-6.906695003784076	1.497	2.0	stim	poldrack-single-stim	s606	False	1
157.317	1.5	156.566	n/a	-1.0	2.386	columbia_card_task_fmri	n/a	n/a	-1.0	n/a	n/a	n/a	n/a	n/a	n/a	n/a	n/a	ITI	poldrack-single-stim	s606	False	0
158.955	2.798	161.753	3.246916202705676	draw_card	2.798	columbia_card_task_fmri	9.0	0.9375	89.0	-100.0	0.0625	16.0	1.0	1.0	-6.791105944237263	2.798	n/a	stim	poldrack-single-stim	s606	False	1
161.756	0.406	162.162	2.7927495360390093	draw_card	0.406	columbia_card_task_fmri	9.0	0.9333333333333332	89.0	-100.0	0.0666666666666666	16.0	2.0	1.0	-5.987056710245224	0.406	n/a	stim	poldrack-single-stim	s606	False	1
162.164	6.581	168.745	2.2737019169913912	draw_card	6.581	columbia_card_task_fmri	9.0	0.9285714285714286	89.0	-100.0	0.0714285714285714	16.0	3.0	1.0	-5.1052897265223365	6.581	n/a	stim	poldrack-single-stim	s606	False	1
168.747	2.066	170.813	1.6748008180902918	draw_card	2.066	columbia_card_task_fmri	9.0	0.9230769230769232	89.0	-100.0	0.0769230769230769	16.0	4.0	1.0	-4.132591352969609	2.066	n/a	stim	poldrack-single-stim	s606	False	1
170.815	3.989	174.804	0.9760828693723438	end_round	3.989	columbia_card_task_fmri	9.0	0.9166666666666666	71.0	-100.0	0.0833333333333333	16.0	5.0	1.0	-3.0524350611281186	3.989	4.0	stim	poldrack-single-stim	s606	False	1
175.561	1.5	174.81	n/a	-1.0	2.318	columbia_card_task_fmri	n/a	n/a	-1.0	n/a	n/a	n/a	n/a	n/a	n/a	n/a	n/a	ITI	poldrack-single-stim	s606	False	0
177.132	1.804	178.936	4.184416202705676	draw_card	1.804	columbia_card_task_fmri	15.0	0.875	89.0	-80.0	0.125	16.0	1.0	2.0	-1.760912266895513	1.804	n/a	stim	poldrack-single-stim	s606	False	1
178.939	0.337	179.276	3.39274953603901	draw_card	0.337	columbia_card_task_fmri	15.0	0.8666666666666667	89.0	-80.0	0.1333333333333333	16.0	2.0	2.0	-0.8859026646469133	0.337	n/a	stim	poldrack-single-stim	s606	False	1
179.279	3.577	182.856	2.4879876312771065	draw_card	3.577	columbia_card_task_fmri	15.0	0.8571428571428572	89.0	-80.0	0.1428571428571428	16.0	3.0	2.0	0.0628863260460192	3.577	n/a	stim	poldrack-single-stim	s606	False	1
182.859	1.296	184.155	1.4440315873210592	draw_card	1.296	columbia_card_task_fmri	15.0	0.8461538461538461	89.0	-80.0	0.1538461538461538	16.0	4.0	2.0	1.0954180118575465	1.296	n/a	stim	poldrack-single-stim	s606	False	1
184.157	9.352	193.509	0.2260828693723438	draw_card	9.352	columbia_card_task_fmri	15.0	0.8333333333333334	89.0	-80.0	0.1666666666666666	16.0	5.0	2.0	2.2231910822841456	9.352	n/a	stim	poldrack-single-stim	s606	False	1
193.512	1.654	195.166	-1.2133110700215992	end_round	1.654	columbia_card_task_fmri	15.0	0.8181818181818181	71.0	-80.0	0.1818181818181818	16.0	6.0	2.0	3.459234603871004	1.654	5.0	stim	poldrack-single-stim	s606	False	1
195.92	1.5	195.169	n/a	-1.0	2.318	columbia_card_task_fmri	n/a	n/a	-1.0	n/a	n/a	n/a	n/a	n/a	n/a	n/a	n/a	ITI	poldrack-single-stim	s606	False	0
197.49	3.281	200.771	6.309416202705676	draw_card	3.281	columbia_card_task_fmri	16.0	0.875	89.0	-70.0	0.125	16.0	1.0	2.0	-4.735515018448169	3.281	n/a	stim	poldrack-single-stim	s606	False	1
200.773	0.601	201.374	5.592749536039009	draw_card	0.601	columbia_card_task_fmri	16.0	0.8666666666666667	89.0	-70.0	0.1333333333333333	16.0	2.0	2.0	-3.9434974353783474	0.601	n/a	stim	poldrack-single-stim	s606	False	1
201.377	1.325	202.702	4.773701916991391	draw_card	1.325	columbia_card_task_fmri	16.0	0.8571428571428572	89.0	-70.0	0.1428571428571428	16.0	3.0	2.0	-3.084692486962812	1.325	3.0	stim	poldrack-single-stim	s606	False	0
203.456	1.5	202.705	n/a	-1.0	2.318	columbia_card_task_fmri	n/a	n/a	-1.0	n/a	n/a	n/a	n/a	n/a	n/a	n/a	n/a	ITI	poldrack-single-stim	s606	False	0
205.027	1.895	206.922	7.621916202705676	draw_card	1.895	columbia_card_task_fmri	30.0	0.6875	89.0	-45.0	0.3125	16.0	1.0	5.0	1.5825039055780223	1.895	1.0	stim	poldrack-single-stim	s606	False	0
207.676	1.5	206.925	n/a	-1.0	2.386	columbia_card_task_fmri	n/a	n/a	-1.0	n/a	n/a	n/a	n/a	n/a	n/a	n/a	n/a	ITI	poldrack-single-stim	s606	False	0
209.315	1.883	211.198	-0.6072504639609901	draw_card	1.883	columbia_card_task_fmri	13.0	0.8333333333333334	89.0	-75.0	0.1666666666666666	6.0	1.0	1.0	-0.3842949629335663	1.883	1.0	stim	poldrack-single-stim	s606	False	0
211.956	1.5	211.205	n/a	-1.0	2.25	columbia_card_task_fmri	n/a	n/a	-1.0	n/a	n/a	n/a	n/a	n/a	n/a	n/a	n/a	ITI	poldrack-single-stim	s606	False	0
213.458	1.915	215.373	1.0594162027056775	draw_card	1.915	columbia_card_task_fmri	14.0	0.8333333333333334	89.0	-70.0	0.1666666666666666	6.0	1.0	1.0	-1.8741927849600264	1.915	n/a	stim	poldrack-single-stim	s606	False	1
215.376	0.981	216.357	-1.740583797294323	draw_card	0.981	columbia_card_task_fmri	14.0	0.8	89.0	-70.0	0.2	6.0	2.0	1.0	0.4196320559524835	0.981	n/a	stim	poldrack-single-stim	s606	False	1
216.359	3.338	219.697	-5.940583797294324	draw_card	3.338	columbia_card_task_fmri	14.0	0.75	89.0	-70.0	0.25	6.0	3.0	1.0	3.1914265531022394	3.338	3.0	stim	poldrack-single-stim	s606	False	0
220.454	1.5	219.703	n/a	-1.0	2.386	columbia_card_task_fmri	n/a	n/a	-1.0	n/a	n/a	n/a	n/a	n/a	n/a	n/a	n/a	ITI	poldrack-single-stim	s606	False	0
222.093	1.803	223.896	1.0594162027056775	draw_card	1.803	columbia_card_task_fmri	16.0	0.8333333333333334	89.0	-80.0	0.1666666666666666	6.0	1.0	1.0	2.5957040777040703	1.803	1.0	stim	poldrack-single-stim	s606	False	0
224.651	1.5	223.9	n/a	-1.0	2.59	columbia_card_task_fmri	n/a	n/a	-1.0	n/a	n/a	n/a	n/a	n/a	n/a	n/a	n/a	ITI	poldrack-single-stim	s606	False	0
226.493	2.831	229.324	3.5594162027056777	draw_card	2.831	columbia_card_task_fmri	17.0	0.8333333333333334	89.0	-70.0	0.1666666666666666	6.0	1.0	1.0	-0.7567764314264096	2.831	n/a	stim	poldrack-single-stim	s606	False	1
229.327	0.676	230.003	0.6594162027056774	end_round	0.676	columbia_card_task_fmri	17.0	0.8	71.0	-70.0	0.2	6.0	2.0	1.0	1.6190565453770134	0.676	1.0	stim	poldrack-single-stim	s606	False	1
230.76	1.5	230.009	n/a	-1.0	2.658	columbia_card_task_fmri	n/a	n/a	-1.0	n/a	n/a	n/a	n/a	n/a	n/a	n/a	n/a	ITI	poldrack-single-stim	s606	False	0
232.671	1.644	234.315	3.559416202705676	draw_card	1.644	columbia_card_task_fmri	25.0	0.75	89.0	-65.0	0.25	8.0	1.0	2.0	5.78847481010996	1.644	n/a	stim	poldrack-single-stim	s606	False	1
234.317	0.906	235.223	0.3451304884199642	draw_card	0.906	columbia_card_task_fmri	25.0	0.7142857142857143	89.0	-65.0	0.2857142857142857	8.0	2.0	2.0	7.474590199683782	0.906	n/a	stim	poldrack-single-stim	s606	False	1
235.226	1.918	237.144	-3.940583797294321	end_round	1.918	columbia_card_task_fmri	25.0	0.6666666666666667	71.0	-65.0	0.3333333333333333	8.0	3.0	2.0	9.242566360286688	1.918	2.0	stim	poldrack-single-stim	s606	False	1
237.9	1.5	237.149	n/a	-1.0	2.386	columbia_card_task_fmri	n/a	n/a	-1.0	n/a	n/a	n/a	n/a	n/a	n/a	n/a	n/a	ITI	poldrack-single-stim	s606	False	0
239.54	1.108	240.648	3.559416202705676	draw_card	1.108	columbia_card_task_fmri	30.0	0.75	89.0	-80.0	0.25	8.0	1.0	2.0	14.446111883329776	1.108	n/a	stim	poldrack-single-stim	s606	False	1
240.652	0.637	241.289	-0.3691552258657475	draw_card	0.637	columbia_card_task_fmri	30.0	0.7142857142857143	89.0	-80.0	0.2857142857142857	8.0	2.0	2.0	16.50716073664404	0.637	n/a	stim	poldrack-single-stim	s606	False	1
241.292	1.481	242.773	-5.607250463960985	end_round	1.481	columbia_card_task_fmri	30.0	0.6666666666666667	71.0	-80.0	0.3333333333333333	8.0	3.0	2.0	18.66825276807002	1.481	2.0	stim	poldrack-single-stim	s606	False	1
243.527	1.5	242.776	n/a	-1.0	2.386	columbia_card_task_fmri	n/a	n/a	-1.0	n/a	n/a	n/a	n/a	n/a	n/a	n/a	n/a	ITI	poldrack-single-stim	s606	False	0
245.166	2.318	247.484	3.259416202705677	draw_card	2.318	columbia_card_task_fmri	13.0	0.9	89.0	-95.0	0.1	10.0	1.0	1.0	-0.7797498360193345	2.318	n/a	stim	poldrack-single-stim	s606	False	1
247.487	0.858	248.345	2.059416202705676	draw_card	0.858	columbia_card_task_fmri	13.0	0.8888888888888888	89.0	-95.0	0.1111111111111111	10.0	2.0	1.0	0.7605898149065666	0.858	n/a	stim	poldrack-single-stim	s606	False	1
248.35	3.828	252.178	0.5594162027056759	draw_card	3.828	columbia_card_task_fmri	13.0	0.875	89.0	-95.0	0.125	10.0	3.0	1.0	2.5362852252954724	3.828	3.0	stim	poldrack-single-stim	s606	False	0
252.932	1.5	252.181	n/a	-1.0	2.25	columbia_card_task_fmri	n/a	n/a	-1.0	n/a	n/a	n/a	n/a	n/a	n/a	n/a	n/a	ITI	poldrack-single-stim	s606	False	0
254.435	1.361	255.796	4.659416202705676	draw_card	1.361	columbia_card_task_fmri	14.0	0.9	89.0	-90.0	0.1	10.0	1.0	1.0	-1.9790842208086976	1.361	n/a	stim	poldrack-single-stim	s606	False	1
255.8	0.373	256.173	3.503860647150119	draw_card	0.373	columbia_card_task_fmri	14.0	0.8888888888888888	89.0	-90.0	0.1111111111111111	10.0	2.0	1.0	-0.4958534678777013	0.373	n/a	stim	poldrack-single-stim	s606	False	1
256.176	0.966	257.142	2.059416202705676	end_round	0.966	columbia_card_task_fmri	14.0	0.875	71.0	-90.0	0.125	10.0	3.0	1.0	1.214013448159271	0.966	2.0	stim	poldrack-single-stim	s606	False	1
257.897	1.5	257.146	n/a	-1.0	2.318	columbia_card_task_fmri	n/a	n/a	-1.0	n/a	n/a	n/a	n/a	n/a	n/a	n/a	n/a	ITI	poldrack-single-stim	s606	False	0
259.468	1.954	261.422	-0.1405837972943233	draw_card	1.954	columbia_card_task_fmri	16.0	0.8	89.0	-70.0	0.2	10.0	1.0	2.0	1.219243924096979	1.954	n/a	stim	poldrack-single-stim	s606	False	1
261.425	0.394	261.819	-2.051694908405435	draw_card	0.394	columbia_card_task_fmri	16.0	0.7777777777777778	89.0	-70.0	0.2222222222222222	10.0	2.0	2.0	2.572241757795865	0.394	n/a	stim	poldrack-single-stim	s606	False	1
261.822	0.612	262.434	-4.440583797294324	end_round	0.612	columbia_card_task_fmri	16.0	0.75	71.0	-70.0	0.25	10.0	3.0	2.0	4.057093377761952	0.612	2.0	stim	poldrack-single-stim	s606	False	1
263.19	1.5	262.439	n/a	-1.0	2.25	columbia_card_task_fmri	n/a	n/a	-1.0	n/a	n/a	n/a	n/a	n/a	n/a	n/a	n/a	ITI	poldrack-single-stim	s606	False	0
264.692	2.44	267.132	-0.8572504639609901	draw_card	2.44	columbia_card_task_fmri	7.0	0.9166666666666666	89.0	-100.0	0.0833333333333333	12.0	1.0	1.0	-3.604858004957784	2.44	n/a	stim	poldrack-single-stim	s606	False	1
267.135	0.457	267.592	-1.6678565245670525	end_round	0.457	columbia_card_task_fmri	7.0	0.9090909090909092	71.0	-100.0	0.0909090909090909	12.0	2.0	1.0	-2.418490120987705	0.457	1.0	stim	poldrack-single-stim	s606	False	1
268.347	1.5	267.596	n/a	-1.0	2.25	columbia_card_task_fmri	n/a	n/a	-1.0	n/a	n/a	n/a	n/a	n/a	n/a	n/a	n/a	ITI	poldrack-single-stim	s606	False	0
269.85	2.662	272.512	-0.6072504639609884	draw_card	2.662	columbia_card_task_fmri	14.0	0.8333333333333334	89.0	-80.0	0.1666666666666666	12.0	1.0	2.0	1.8506815951393136	2.662	n/a	stim	poldrack-single-stim	s606	False	1
272.516	0.416	272.932	-2.0314928882034176	draw_card	0.416	columbia_card_task_fmri	14.0	0.8181818181818181	89.0	-80.0	0.1818181818181818	12.0	2.0	2.0	3.073702825455463	0.416	n/a	stim	poldrack-single-stim	s606	False	1
272.934	1.081	274.015	-3.740583797294323	draw_card	1.081	columbia_card_task_fmri	14.0	0.8	89.0	-80.0	0.2	12.0	3.0	2.0	4.417856453958187	1.081	n/a	stim	poldrack-single-stim	s606	False	1
274.02	1.193	275.213	-5.829472686183213	end_round	1.193	columbia_card_task_fmri	14.0	0.7777777777777778	71.0	-80.0	0.2222222222222222	12.0	4.0	2.0	5.896824429095567	1.193	3.0	stim	poldrack-single-stim	s606	False	1
275.967	1.5	275.216	n/a	-1.0	2.386	columbia_card_task_fmri	n/a	n/a	-1.0	n/a	n/a	n/a	n/a	n/a	n/a	n/a	n/a	ITI	poldrack-single-stim	s606	False	0
277.606	1.306	278.912	1.059416202705676	draw_card	1.306	columbia_card_task_fmri	15.0	0.8333333333333334	89.0	-75.0	0.1666666666666666	12.0	1.0	2.0	0.3606810659216251	1.306	n/a	stim	poldrack-single-stim	s606	False	1
278.916	0.31	279.226	-0.3042201609306891	draw_card	0.31	columbia_card_task_fmri	15.0	0.8181818181818181	89.0	-75.0	0.1818181818181818	12.0	2.0	2.0	1.5316118716717495	0.31	2.0	stim	poldrack-single-stim	s606	False	0
279.982	1.5	279.231	n/a	-1.0	2.386	columbia_card_task_fmri	n/a	n/a	-1.0	n/a	n/a	n/a	n/a	n/a	n/a	n/a	n/a	ITI	poldrack-single-stim	s606	False	0
281.622	2.049	283.671	0.0594162027056759	draw_card	2.049	columbia_card_task_fmri	15.0	0.8	89.0	-65.0	0.2	15.0	1.0	3.0	-1.1795335065005972	2.049	n/a	stim	poldrack-single-stim	s606	False	1
283.674	0.522	284.196	-1.0834409401514664	draw_card	0.522	columbia_card_task_fmri	15.0	0.7857142857142857	89.0	-65.0	0.2142857142857142	15.0	2.0	3.0	-0.3539022058920551	0.522	2.0	stim	poldrack-single-stim	s606	False	0
284.952	1.5	284.201	n/a	-1.0	2.726	columbia_card_task_fmri	n/a	n/a	-1.0	n/a	n/a	n/a	n/a	n/a	n/a	n/a	n/a	ITI	poldrack-single-stim	s606	False	0
286.931	1.182	288.113	-0.6905837972943241	draw_card	1.182	columbia_card_task_fmri	14.0	0.8125	89.0	-70.0	0.1875	16.0	1.0	3.0	-0.3937142266179592	1.182	n/a	stim	poldrack-single-stim	s606	False	1
288.117	0.426	288.543	-1.740583797294323	draw_card	0.426	columbia_card_task_fmri	14.0	0.8	89.0	-70.0	0.2	16.0	2.0	3.0	0.4196320559524835	0.426	n/a	stim	poldrack-single-stim	s606	False	1
288.547	0.92	289.467	-2.940583797294324	draw_card	0.92	columbia_card_task_fmri	14.0	0.7857142857142857	89.0	-70.0	0.2142857142857142	16.0	3.0	3.0	1.2865879369390072	0.92	n/a	stim	poldrack-single-stim	s606	False	1
289.471	1.312	290.783	-4.325199181909709	draw_card	1.312	columbia_card_task_fmri	14.0	0.7692307692307692	89.0	-70.0	0.2307692307692307	16.0	4.0	3.0	2.210091020031527	1.312	4.0	stim	poldrack-single-stim	s606	False	0
291.541	1.5	290.79	n/a	-1.0	2.454	columbia_card_task_fmri	n/a	n/a	-1.0	n/a	n/a	n/a	n/a	n/a	n/a	n/a	n/a	ITI	poldrack-single-stim	s606	False	0
293.247	3.974	297.221	-0.7530837972943241	draw_card	3.974	columbia_card_task_fmri	11.0	0.6875	89.0	-30.0	0.3125	16.0	1.0	5.0	-14.16355027443425	3.974	n/a	stim	poldrack-single-stim	s606	False	1
297.225	0.454	297.679	-1.60725046396099	draw_card	0.454	columbia_card_task_fmri	11.0	0.6666666666666667	89.0	-30.0	0.3333333333333333	16.0	2.0	5.0	-13.840466791307968	0.454	n/a	stim	poldrack-single-stim	s606	False	1
297.681	0.92	298.601	-2.583440940151468	draw_card	0.92	columbia_card_task_fmri	11.0	0.6428571428571428	89.0	-30.0	0.3571428571428571	16.0	3.0	5.0	-13.523066529579282	0.92	n/a	stim	poldrack-single-stim	s606	False	1
298.604	0.763	299.367	-3.709814566525092	end_round	0.763	columbia_card_task_fmri	11.0	0.6153846153846154	71.0	-30.0	0.3846153846153846	16.0	4.0	5.0	-13.22227688160336	0.763	3.0	stim	poldrack-single-stim	s606	False	1
300.125	1.5	299.374	n/a	-1.0	2.318	columbia_card_task_fmri	n/a	n/a	-1.0	n/a	n/a	n/a	n/a	n/a	n/a	n/a	n/a	ITI	poldrack-single-stim	s606	False	0
301.697	5.054	306.751	4.059416202705676	draw_card	5.054	columbia_card_task_fmri	15.0	0.8666666666666667	89.0	-75.0	0.1333333333333333	15.0	1.0	2.0	-2.584611248597014	5.054	n/a	stim	poldrack-single-stim	s606	False	1
306.754	0.386	307.14	3.20227334556282	draw_card	0.386	columbia_card_task_fmri	15.0	0.8571428571428572	89.0	-75.0	0.1428571428571428	15.0	2.0	2.0	-1.6858121169471758	0.386	n/a	stim	poldrack-single-stim	s606	False	1
307.144	1.087	308.231	2.213262356551829	draw_card	1.087	columbia_card_task_fmri	15.0	0.8461538461538461	89.0	-75.0	0.1538461538461538	15.0	3.0	2.0	-0.7076791613318321	1.087	n/a	stim	poldrack-single-stim	s606	False	1
308.234	1.088	309.322	1.059416202705676	end_round	1.088	columbia_card_task_fmri	15.0	0.8333333333333334	71.0	-75.0	0.1666666666666666	15.0	4.0	2.0	0.3606810659216251	1.088	3.0	stim	poldrack-single-stim	s606	False	1
310.077	1.5	309.326	n/a	-1.0	2.318	columbia_card_task_fmri	n/a	n/a	-1.0	n/a	n/a	n/a	n/a	n/a	n/a	n/a	n/a	ITI	poldrack-single-stim	s606	False	0
311.649	2.217	313.866	5.79274953603901	draw_card	2.217	columbia_card_task_fmri	17.0	0.8666666666666667	89.0	-75.0	0.1333333333333333	15.0	1.0	2.0	-1.9051403858064797	2.217	n/a	stim	poldrack-single-stim	s606	False	1
313.869	0.292	314.161	4.916559059848535	draw_card	0.292	columbia_card_task_fmri	17.0	0.8571428571428572	89.0	-75.0	0.1428571428571428	15.0	2.0	2.0	-0.9863449527444956	0.292	2.0	stim	poldrack-single-stim	s606	False	0
314.915	1.5	314.164	n/a	-1.0	2.59	columbia_card_task_fmri	n/a	n/a	-1.0	n/a	n/a	n/a	n/a	n/a	n/a	n/a	n/a	ITI	poldrack-single-stim	s606	False	0
316.759	3.452	320.211	1.371916202705676	end_round	3.452	columbia_card_task_fmri	2.0	0.9375	71.0	-25.0	0.0625	16.0	1.0	1.0	-26.576098437640084	3.452	0.0	stim	poldrack-single-stim	s606	False	1
320.966	1.5	320.215	n/a	-1.0	2.726	columbia_card_task_fmri	n/a	n/a	-1.0	n/a	n/a	n/a	n/a	n/a	n/a	n/a	n/a	ITI	poldrack-single-stim	s606	False	0
322.946	1.941	324.887	3.559416202705676	draw_card	1.941	columbia_card_task_fmri	9.0	0.9375	89.0	-95.0	0.0625	16.0	1.0	1.0	-8.000391977434475	1.941	n/a	stim	poldrack-single-stim	s606	False	1
324.89	0.468	325.358	3.1260828693723437	draw_card	0.468	columbia_card_task_fmri	9.0	0.9333333333333332	89.0	-95.0	0.0666666666666666	16.0	2.0	1.0	-7.23328472806757	0.468	n/a	stim	poldrack-single-stim	s606	False	1
325.362	0.74	326.102	2.630844774134248	draw_card	0.74	columbia_card_task_fmri	9.0	0.9285714285714286	89.0	-95.0	0.0714285714285714	16.0	3.0	1.0	-6.392026583479176	0.74	n/a	stim	poldrack-single-stim	s606	False	1
326.106	1.172	327.278	2.059416202705676	draw_card	1.172	columbia_card_task_fmri	9.0	0.9230769230769232	89.0	-95.0	0.0769230769230769	16.0	4.0	1.0	-5.464010205100809	1.172	n/a	stim	poldrack-single-stim	s606	False	1
327.282	0.761	328.043	1.39274953603901	draw_card	0.761	columbia_card_task_fmri	9.0	0.9166666666666666	89.0	-95.0	0.0833333333333333	16.0	5.0	1.0	-4.433467359934713	0.761	n/a	stim	poldrack-single-stim	s606	False	1
328.047	0.992	329.039	0.6048707481602209	draw_card	0.992	columbia_card_task_fmri	9.0	0.9090909090909092	89.0	-95.0	0.0909090909090909	16.0	6.0	1.0	-3.2804037045554217	0.992	n/a	stim	poldrack-single-stim	s606	False	1
329.044	1.803	330.847	-0.3405837972943244	end_round	1.803	columbia_card_task_fmri	9.0	0.9	71.0	-95.0	0.1	16.0	7.0	1.0	-1.9790842208086976	1.803	6.0	stim	poldrack-single-stim	s606	False	1
331.601	1.5	330.85	n/a	-1.0	2.522	columbia_card_task_fmri	n/a	n/a	-1.0	n/a	n/a	n/a	n/a	n/a	n/a	n/a	n/a	ITI	poldrack-single-stim	s606	False	0
333.377	1.393	334.77	5.121916202705676	draw_card	1.393	columbia_card_task_fmri	11.0	0.9375	89.0	-100.0	0.0625	16.0	1.0	1.0	-6.307365800232056	1.393	n/a	stim	poldrack-single-stim	s606	False	1
334.773	0.442	335.215	4.6594162027056765	draw_card	0.442	columbia_card_task_fmri	11.0	0.9333333333333332	89.0	-100.0	0.0666666666666666	16.0	2.0	1.0	-5.48854053031129	0.442	n/a	stim	poldrack-single-stim	s606	False	1
335.229	0.957	336.186	4.130844774134249	draw_card	0.957	columbia_card_task_fmri	11.0	0.9285714285714286	89.0	-100.0	0.0714285714285714	16.0	3.0	1.0	-4.590570792462476	0.957	n/a	stim	poldrack-single-stim	s606	False	1
336.19	1.229	337.419	3.5209546642441385	draw_card	1.229	columbia_card_task_fmri	11.0	0.9230769230769232	89.0	-100.0	0.0769230769230769	16.0	4.0	1.0	-3.600000428189009	1.229	n/a	stim	poldrack-single-stim	s606	False	1
337.423	0.686	338.109	2.809416202705676	end_round	0.686	columbia_card_task_fmri	11.0	0.9166666666666666	71.0	-100.0	0.0833333333333333	16.0	5.0	1.0	-2.499999593405644	0.686	4.0	stim	poldrack-single-stim	s606	False	1
338.868	1.5	338.117	n/a	-1.0	3.134	columbia_card_task_fmri	n/a	n/a	-1.0	n/a	n/a	n/a	n/a	n/a	n/a	n/a	n/a	ITI	poldrack-single-stim	s606	False	0
341.256	2.103	343.359	5.684416202705676	draw_card	2.103	columbia_card_task_fmri	16.0	0.875	89.0	-75.0	0.125	16.0	1.0	2.0	-3.083003495437115	2.103	n/a	stim	poldrack-single-stim	s606	False	1
343.364	0.434	343.798	4.926082869372343	draw_card	0.434	columbia_card_task_fmri	16.0	0.8666666666666667	89.0	-75.0	0.1333333333333333	16.0	2.0	2.0	-2.2448780043202667	0.434	n/a	stim	poldrack-single-stim	s606	False	1
343.802	0.696	344.498	4.059416202705678	draw_card	0.696	columbia_card_task_fmri	16.0	0.8571428571428572	89.0	-75.0	0.1428571428571428	16.0	3.0	2.0	-1.336080659719535	0.696	n/a	stim	poldrack-single-stim	s606	False	1
344.502	1.218	345.72	3.059416202705676	draw_card	1.218	columbia_card_task_fmri	16.0	0.8461538461538461	89.0	-75.0	0.1538461538461538	16.0	4.0	2.0	-0.3470677107515953	1.218	n/a	stim	poldrack-single-stim	s606	False	1
345.724	0.548	346.272	1.8927495360390096	end_round	0.548	columbia_card_task_fmri	16.0	0.8333333333333334	71.0	-75.0	0.1666666666666666	16.0	5.0	2.0	0.7331753388374835	0.548	4.0	stim	poldrack-single-stim	s606	False	1
347.029	1.5	346.278	n/a	-1.0	2.386	columbia_card_task_fmri	n/a	n/a	-1.0	n/a	n/a	n/a	n/a	n/a	n/a	n/a	n/a	ITI	poldrack-single-stim	s606	False	0
348.671	2.991	351.662	5.934416202705676	draw_card	2.991	columbia_card_task_fmri	17.0	0.875	89.0	-80.0	0.125	16.0	1.0	2.0	-1.0998424123946862	2.991	n/a	stim	poldrack-single-stim	s606	False	1
351.666	0.475	352.141	5.126082869372344	draw_card	0.475	columbia_card_task_fmri	17.0	0.8666666666666667	89.0	-80.0	0.1333333333333333	16.0	2.0	2.0	-0.2063914095565309	0.475	n/a	stim	poldrack-single-stim	s606	False	1
352.146	0.655	352.801	4.202273345562822	draw_card	0.655	columbia_card_task_fmri	17.0	0.8571428571428572	89.0	-80.0	0.1428571428571428	16.0	3.0	2.0	0.7623927327980979	0.655	n/a	stim	poldrack-single-stim	s606	False	1
352.805	0.647	353.452	3.1363392796287526	draw_card	0.647	columbia_card_task_fmri	17.0	0.8461538461538461	89.0	-80.0	0.1538461538461538	16.0	4.0	2.0	1.816683098475273	0.647	n/a	stim	poldrack-single-stim	s606	False	1
353.456	0.807	354.263	1.892749536039012	end_round	0.807	columbia_card_task_fmri	17.0	0.8333333333333334	71.0	-80.0	0.1666666666666666	16.0	5.0	2.0	2.9682204729903034	0.807	4.0	stim	poldrack-single-stim	s606	False	1
355.019	1.5	354.268	n/a	-1.0	2.386	columbia_card_task_fmri	n/a	n/a	-1.0	n/a	n/a	n/a	n/a	n/a	n/a	n/a	n/a	ITI	poldrack-single-stim	s606	False	0
367.668	1.469	369.137	0.2260828693723438	draw_card	1.469	columbia_card_task_fmri	13.0	0.8333333333333334	89.0	-70.0	0.1666666666666666	6.0	1.0	1.0	-2.246654989505277	1.469	1.0	stim	poldrack-single-stim	s606	False	0
369.891	1.5	369.14	n/a	-1.0	2.318	columbia_card_task_fmri	n/a	n/a	-1.0	n/a	n/a	n/a	n/a	n/a	n/a	n/a	n/a	ITI	poldrack-single-stim	s606	False	0
371.463	1.395	372.858	0.2260828693723438	draw_card	1.395	columbia_card_task_fmri	15.0	0.8333333333333334	89.0	-80.0	0.1666666666666666	6.0	1.0	1.0	2.2231910822841456	1.395	n/a	stim	poldrack-single-stim	s606	False	1
372.862	0.542	373.404	-2.940583797294324	draw_card	0.542	columbia_card_task_fmri	15.0	0.8	89.0	-80.0	0.2	6.0	2.0	1.0	4.817699440819496	0.542	2.0	stim	poldrack-single-stim	s606	False	0
374.158	1.5	373.407	n/a	-1.0	2.318	columbia_card_task_fmri	n/a	n/a	-1.0	n/a	n/a	n/a	n/a	n/a	n/a	n/a	n/a	ITI	poldrack-single-stim	s606	False	0
375.73	1.14	376.87	1.8927495360390096	draw_card	1.14	columbia_card_task_fmri	16.0	0.8333333333333334	89.0	-75.0	0.1666666666666666	6.0	1.0	1.0	0.7331753388374835	1.14	n/a	stim	poldrack-single-stim	s606	False	1
376.874	0.966	377.84	-1.1405837972943234	end_round	0.966	columbia_card_task_fmri	16.0	0.8	71.0	-75.0	0.2	6.0	2.0	1.0	3.218348185583473	0.966	1.0	stim	poldrack-single-stim	s606	False	1
378.596	1.5	377.845	n/a	-1.0	2.862	columbia_card_task_fmri	n/a	n/a	-1.0	n/a	n/a	n/a	n/a	n/a	n/a	n/a	n/a	ITI	poldrack-single-stim	s606	False	0
380.712	1.666	382.378	3.059416202705676	draw_card	1.666	columbia_card_task_fmri	21.0	0.75	89.0	-55.0	0.25	8.0	1.0	2.0	-0.2710521559089969	1.666	n/a	stim	poldrack-single-stim	s606	False	1
382.382	0.424	382.806	0.3451304884199624	draw_card	0.424	columbia_card_task_fmri	21.0	0.7142857142857143	89.0	-55.0	0.2857142857142857	8.0	2.0	2.0	1.152575904174448	0.424	n/a	stim	poldrack-single-stim	s606	False	1
382.81	0.605	383.415	-3.2739171306276544	end_round	0.605	columbia_card_task_fmri	21.0	0.6666666666666667	71.0	-55.0	0.3333333333333333	8.0	3.0	2.0	2.64533829196381	0.605	2.0	stim	poldrack-single-stim	s606	False	1
384.172	1.5	383.421	n/a	-1.0	2.726	columbia_card_task_fmri	n/a	n/a	-1.0	n/a	n/a	n/a	n/a	n/a	n/a	n/a	n/a	ITI	poldrack-single-stim	s606	False	0
386.153	1.125	387.278	4.309416202705676	draw_card	1.125	columbia_card_task_fmri	26.0	0.75	89.0	-65.0	0.25	8.0	1.0	2.0	6.221329357815129	1.125	n/a	stim	poldrack-single-stim	s606	False	1
387.282	0.704	387.986	1.0594162027056797	draw_card	0.704	columbia_card_task_fmri	26.0	0.7142857142857143	89.0	-65.0	0.2857142857142857	8.0	2.0	2.0	7.926192551310962	0.704	n/a	stim	poldrack-single-stim	s606	False	1
387.99	1.659	389.649	-3.2739171306276527	draw_card	1.659	columbia_card_task_fmri	26.0	0.6666666666666667	89.0	-65.0	0.3333333333333333	8.0	3.0	2.0	9.713825594744485	1.659	n/a	stim	poldrack-single-stim	s606	False	1
389.653	0.835	390.488	-9.340583797294324	end_round	0.835	columbia_card_task_fmri	26.0	0.6	71.0	-65.0	0.4	8.0	4.0	2.0	11.396233906035327	0.835	3.0	stim	poldrack-single-stim	s606	False	1
391.247	1.5	390.496	n/a	-1.0	2.25	columbia_card_task_fmri	n/a	n/a	-1.0	n/a	n/a	n/a	n/a	n/a	n/a	n/a	n/a	ITI	poldrack-single-stim	s606	False	0
392.749	1.629	394.378	-0.6072504639609901	draw_card	1.629	columbia_card_task_fmri	15.0	0.7777777777777778	89.0	-60.0	0.2222222222222222	9.0	1.0	2.0	-1.9985947462134452	1.629	1.0	stim	poldrack-single-stim	s606	False	0
395.135	1.5	394.384	n/a	-1.0	2.318	columbia_card_task_fmri	n/a	n/a	-1.0	n/a	n/a	n/a	n/a	n/a	n/a	n/a	n/a	ITI	poldrack-single-stim	s606	False	0
396.706	1.238	397.944	3.759416202705677	draw_card	1.238	columbia_card_task_fmri	13.0	0.9	89.0	-90.0	0.1	10.0	1.0	1.0	-2.278909746132989	1.238	n/a	stim	poldrack-single-stim	s606	False	1
397.949	0.484	398.433	2.6149717582612317	draw_card	0.484	columbia_card_task_fmri	13.0	0.8888888888888888	89.0	-90.0	0.1111111111111111	10.0	2.0	1.0	-0.8099565830054729	0.484	n/a	stim	poldrack-single-stim	s606	False	1
398.437	0.422	398.859	1.184416202705676	draw_card	0.422	columbia_card_task_fmri	13.0	0.875	89.0	-90.0	0.125	10.0	3.0	1.0	0.883452827283655	0.422	n/a	stim	poldrack-single-stim	s606	False	1
398.863	0.562	399.425	-0.6548695115800358	draw_card	0.562	columbia_card_task_fmri	13.0	0.8571428571428572	89.0	-90.0	0.1428571428571428	10.0	4.0	1.0	2.8609929400812817	0.562	n/a	stim	poldrack-single-stim	s606	False	1
399.429	0.677	400.106	-3.10725046396099	draw_card	0.677	columbia_card_task_fmri	13.0	0.8333333333333334	89.0	-90.0	0.1666666666666666	10.0	5.0	1.0	5.20338470093899	0.677	n/a	stim	poldrack-single-stim	s606	False	1
400.11	1.079	401.189	-6.540583797294324	draw_card	1.079	columbia_card_task_fmri	13.0	0.8	89.0	-90.0	0.2	10.0	6.0	1.0	8.016553034810556	1.079	n/a	stim	poldrack-single-stim	s606	False	1
401.193	2.496	403.689	-11.690583797294323	end_round	2.496	columbia_card_task_fmri	13.0	0.75	71.0	-90.0	0.25	10.0	7.0	1.0	11.41582335413696	2.496	6.0	stim	poldrack-single-stim	s606	False	1
404.445	1.5	403.694	n/a	-1.0	2.454	columbia_card_task_fmri	n/a	n/a	-1.0	n/a	n/a	n/a	n/a	n/a	n/a	n/a	n/a	ITI	poldrack-single-stim	s606	False	0
406.154	3.204	409.358	5.059416202705676	draw_card	3.204	columbia_card_task_fmri	15.0	0.9	89.0	-95.0	0.1	10.0	1.0	1.0	-0.1800645048569791	3.204	n/a	stim	poldrack-single-stim	s606	False	1
409.363	0.535	409.898	3.8371939804834527	draw_card	0.535	columbia_card_task_fmri	15.0	0.8888888888888888	89.0	-95.0	0.1111111111111111	10.0	2.0	1.0	1.3888287739561704	0.535	n/a	stim	poldrack-single-stim	s606	False	1
409.902	0.402	410.304	2.309416202705676	draw_card	0.402	columbia_card_task_fmri	15.0	0.875	89.0	-95.0	0.125	10.0	3.0	1.0	3.197437572541496	0.402	n/a	stim	poldrack-single-stim	s606	False	1
410.308	0.322	410.63	0.3451304884199624	draw_card	0.322	columbia_card_task_fmri	15.0	0.8571428571428572	89.0	-95.0	0.1428571428571428	10.0	4.0	1.0	5.309492466769257	0.322	n/a	stim	poldrack-single-stim	s606	False	1
410.635	0.892	411.527	-2.273917130627656	draw_card	0.892	columbia_card_task_fmri	15.0	0.8333333333333334	89.0	-95.0	0.1666666666666666	10.0	5.0	1.0	7.8112008415322975	0.892	n/a	stim	poldrack-single-stim	s606	False	1
411.532	0.935	412.467	-5.940583797294324	draw_card	0.935	columbia_card_task_fmri	15.0	0.8	89.0	-95.0	0.2	10.0	6.0	1.0	10.815686652717943	0.935	n/a	stim	poldrack-single-stim	s606	False	1
412.471	1.608	414.079	-11.440583797294323	draw_card	1.608	columbia_card_task_fmri	15.0	0.75	89.0	-95.0	0.25	10.0	7.0	1.0	14.446111883329776	1.608	n/a	stim	poldrack-single-stim	s606	False	1
414.084	1.928	416.012	-20.607250463960987	draw_card	1.928	columbia_card_task_fmri	15.0	0.6666666666666667	89.0	-95.0	0.3333333333333333	10.0	8.0	1.0	18.66825276807002	1.928	n/a	stim	poldrack-single-stim	s606	False	1
416.017	1.067	417.084	-38.94058379729432	end_round	1.067	columbia_card_task_fmri	15.0	0.5	71.0	-95.0	0.5	10.0	9.0	1.0	21.813136730127	1.067	8.0	stim	poldrack-single-stim	s606	False	1
417.839	1.5	417.088	n/a	-1.0	2.522	columbia_card_task_fmri	n/a	n/a	-1.0	n/a	n/a	n/a	n/a	n/a	n/a	n/a	n/a	ITI	poldrack-single-stim	s606	False	0
419.616	2.239	421.855	0.8594162027056766	draw_card	2.239	columbia_card_task_fmri	16.0	0.8	89.0	-65.0	0.2	10.0	1.0	2.0	-0.7797498360193416	2.239	n/a	stim	poldrack-single-stim	s606	False	1
421.859	0.449	422.308	-0.9405837972943224	draw_card	0.449	columbia_card_task_fmri	16.0	0.7777777777777778	89.0	-65.0	0.2222222222222222	10.0	2.0	2.0	0.4945114080387469	0.449	2.0	stim	poldrack-single-stim	s606	False	0
423.067	1.5	422.316	n/a	-1.0	2.318	columbia_card_task_fmri	n/a	n/a	-1.0	n/a	n/a	n/a	n/a	n/a	n/a	n/a	n/a	ITI	poldrack-single-stim	s606	False	0
424.639	2.955	427.594	-0.440583797294324	draw_card	2.955	columbia_card_task_fmri	7.0	0.9166666666666666	89.0	-95.0	0.0833333333333333	12.0	1.0	1.0	-4.985855744400926	2.955	n/a	stim	poldrack-single-stim	s606	False	1
427.599	0.307	427.906	-1.2133110700215974	draw_card	0.307	columbia_card_task_fmri	7.0	0.9090909090909092	89.0	-95.0	0.0909090909090909	12.0	2.0	1.0	-3.854995594402314	0.307	n/a	stim	poldrack-single-stim	s606	False	1
427.909	0.483	428.392	-2.140583797294324	draw_card	0.483	columbia_card_task_fmri	7.0	0.9	89.0	-95.0	0.1	12.0	3.0	1.0	-2.578731853427719	0.483	n/a	stim	poldrack-single-stim	s606	False	1
428.396	1.101	429.497	-3.273917130627658	end_round	1.101	columbia_card_task_fmri	7.0	0.8888888888888888	71.0	-95.0	0.1111111111111111	12.0	4.0	1.0	-1.1240564347920738	1.101	3.0	stim	poldrack-single-stim	s606	False	1
430.256	1.5	429.505	n/a	-1.0	2.522	columbia_card_task_fmri	n/a	n/a	-1.0	n/a	n/a	n/a	n/a	n/a	n/a	n/a	n/a	ITI	poldrack-single-stim	s606	False	0
432.032	1.894	433.926	0.2260828693723438	draw_card	1.894	columbia_card_task_fmri	14.0	0.8333333333333334	89.0	-75.0	0.1666666666666666	12.0	1.0	2.0	-0.0118090815012621	1.894	n/a	stim	poldrack-single-stim	s606	False	1
433.93	0.265	434.195	-1.1224019791125075	draw_card	0.265	columbia_card_task_fmri	14.0	0.8181818181818181	89.0	-75.0	0.1818181818181818	12.0	2.0	2.0	1.146098782070105	0.265	2.0	stim	poldrack-single-stim	s606	False	0
434.953	1.5	434.202	n/a	-1.0	2.998	columbia_card_task_fmri	n/a	n/a	-1.0	n/a	n/a	n/a	n/a	n/a	n/a	n/a	n/a	ITI	poldrack-single-stim	s606	False	0
437.206	4.914	442.12	1.8927495360390096	draw_card	4.914	columbia_card_task_fmri	15.0	0.8333333333333334	89.0	-70.0	0.1666666666666666	12.0	1.0	2.0	-1.5017255072688087	4.914	n/a	stim	poldrack-single-stim	s606	False	1
442.125	0.441	442.566	0.6048707481602191	draw_card	0.441	columbia_card_task_fmri	15.0	0.8181818181818181	89.0	-70.0	0.1818181818181818	12.0	2.0	2.0	-0.3959108984440007	0.441	2.0	stim	poldrack-single-stim	s606	False	0
443.324	1.5	442.573	n/a	-1.0	2.318	columbia_card_task_fmri	n/a	n/a	-1.0	n/a	n/a	n/a	n/a	n/a	n/a	n/a	n/a	ITI	poldrack-single-stim	s606	False	0
444.896	1.219	446.115	-0.1405837972943233	draw_card	1.219	columbia_card_task_fmri	16.0	0.8	89.0	-70.0	0.2	15.0	1.0	3.0	1.219243924096979	1.219	n/a	stim	poldrack-single-stim	s606	False	1
446.12	0.397	446.517	-1.369155225865753	draw_card	0.397	columbia_card_task_fmri	16.0	0.7857142857142857	89.0	-70.0	0.2142857142857142	15.0	2.0	3.0	2.1068613654339856	0.397	n/a	stim	poldrack-single-stim	s606	False	1
446.522	1.184	447.706	-2.7867376434481708	draw_card	1.184	columbia_card_task_fmri	16.0	0.7692307692307692	89.0	-70.0	0.2307692307692307	15.0	3.0	3.0	3.052372595180252	1.184	n/a	stim	poldrack-single-stim	s606	False	1
447.713	0.767	448.48	-4.440583797294324	draw_card	0.767	columbia_card_task_fmri	16.0	0.75	89.0	-70.0	0.25	15.0	4.0	3.0	4.057093377761952	0.767	n/a	stim	poldrack-single-stim	s606	False	1
448.485	1.764	450.249	-6.395129251839777	end_round	1.764	columbia_card_task_fmri	16.0	0.7272727272727273	71.0	-70.0	0.2727272727272727	15.0	5.0	3.0	5.118695748402793	1.764	4.0	stim	poldrack-single-stim	s606	False	1
451.008	1.5	450.257	n/a	-1.0	2.25	columbia_card_task_fmri	n/a	n/a	-1.0	n/a	n/a	n/a	n/a	n/a	n/a	n/a	n/a	ITI	poldrack-single-stim	s606	False	0
452.512	4.582	457.094	0.2469162027056759	draw_card	4.582	columbia_card_task_fmri	14.0	0.8125	89.0	-65.0	0.1875	16.0	1.0	3.0	-2.3441936889974926	4.582	n/a	stim	poldrack-single-stim	s606	False	1
457.099	0.376	457.475	-0.740583797294323	draw_card	0.376	columbia_card_task_fmri	14.0	0.8	89.0	-65.0	0.2	16.0	2.0	3.0	-1.579311704840087	0.376	n/a	stim	poldrack-single-stim	s606	False	1
457.48	0.776	458.256	-1.8691552258657511	draw_card	0.776	columbia_card_task_fmri	14.0	0.7857142857142857	89.0	-65.0	0.2142857142857142	16.0	3.0	3.0	-0.7640118802857288	0.776	n/a	stim	poldrack-single-stim	s606	False	1
458.261	0.812	459.073	-3.171353028063556	draw_card	0.812	columbia_card_task_fmri	14.0	0.7692307692307692	89.0	-65.0	0.2307692307692307	16.0	4.0	3.0	0.1044686557973264	0.812	4.0	stim	poldrack-single-stim	s606	False	0
459.833	1.5	459.082	n/a	-1.0	2.454	columbia_card_task_fmri	n/a	n/a	-1.0	n/a	n/a	n/a	n/a	n/a	n/a	n/a	n/a	ITI	poldrack-single-stim	s606	False	0
461.542	3.324	464.866	-0.003083797294324	draw_card	3.324	columbia_card_task_fmri	16.0	0.8125	89.0	-75.0	0.1875	16.0	1.0	3.0	2.337156706980778	3.324	n/a	stim	poldrack-single-stim	s606	False	1
464.871	0.328	465.199	-1.1405837972943234	draw_card	0.328	columbia_card_task_fmri	16.0	0.8	89.0	-75.0	0.2	16.0	2.0	3.0	3.218348185583473	0.328	2.0	stim	poldrack-single-stim	s606	False	0
465.954	1.5	465.203	n/a	-1.0	2.318	columbia_card_task_fmri	n/a	n/a	-1.0	n/a	n/a	n/a	n/a	n/a	n/a	n/a	n/a	ITI	poldrack-single-stim	s606	False	0
467.527	1.298	468.825	4.259416202705677	draw_card	1.298	columbia_card_task_fmri	16.0	0.8666666666666667	89.0	-80.0	0.1333333333333333	15.0	1.0	2.0	-0.5461489002822333	1.298	n/a	stim	poldrack-single-stim	s606	False	1
468.831	1.72	470.551	3.345130488419964	draw_card	1.72	columbia_card_task_fmri	16.0	0.8571428571428572	89.0	-80.0	0.1428571428571428	15.0	2.0	2.0	0.4126377192853354	1.72	n/a	stim	poldrack-single-stim	s606	False	1
470.556	0.712	471.268	2.290185433474906	draw_card	0.712	columbia_card_task_fmri	16.0	0.8461538461538461	89.0	-80.0	0.1538461538461538	15.0	3.0	2.0	1.4560487994296023	0.712	n/a	stim	poldrack-single-stim	s606	False	1
471.273	1.5	472.773	1.0594162027056775	draw_card	1.5	columbia_card_task_fmri	16.0	0.8333333333333334	89.0	-80.0	0.1666666666666666	15.0	4.0	2.0	2.5957040777040703	1.5	n/a	stim	poldrack-single-stim	s606	False	1
472.778	1.516	474.294	-0.3951292518397808	end_round	1.516	columbia_card_task_fmri	16.0	0.8181818181818181	71.0	-80.0	0.1818181818181818	15.0	5.0	2.0	3.8447697724645664	1.516	4.0	stim	poldrack-single-stim	s606	False	1
475.053	1.5	474.302	n/a	-1.0	2.318	columbia_card_task_fmri	n/a	n/a	-1.0	n/a	n/a	n/a	n/a	n/a	n/a	n/a	n/a	ITI	poldrack-single-stim	s606	False	0
476.626	2.027	478.653	5.126082869372344	draw_card	2.027	columbia_card_task_fmri	17.0	0.8666666666666667	89.0	-80.0	0.1333333333333333	15.0	1.0	2.0	-0.2063914095565309	2.027	n/a	stim	poldrack-single-stim	s606	False	1
478.659	0.88	479.539	4.202273345562822	draw_card	0.88	columbia_card_task_fmri	17.0	0.8571428571428572	89.0	-80.0	0.1428571428571428	15.0	2.0	2.0	0.7623927327980979	0.88	n/a	stim	poldrack-single-stim	s606	False	1
479.545	0.956	480.501	3.1363392796287526	draw_card	0.956	columbia_card_task_fmri	17.0	0.8461538461538461	89.0	-80.0	0.1538461538461538	15.0	3.0	2.0	1.816683098475273	0.956	n/a	stim	poldrack-single-stim	s606	False	1
480.506	0.649	481.155	1.892749536039012	draw_card	0.649	columbia_card_task_fmri	17.0	0.8333333333333334	89.0	-80.0	0.1666666666666666	15.0	4.0	2.0	2.9682204729903034	0.649	n/a	stim	poldrack-single-stim	s606	False	1
481.161	1.348	482.509	0.4230525663420375	draw_card	1.348	columbia_card_task_fmri	17.0	0.8181818181818181	89.0	-80.0	0.1818181818181818	15.0	5.0	2.0	4.230308226470605	1.348	n/a	stim	poldrack-single-stim	s606	False	1
482.514	1.118	483.632	-1.3405837972943226	draw_card	1.118	columbia_card_task_fmri	17.0	0.8	89.0	-80.0	0.2	15.0	6.0	2.0	5.6173951211724	1.118	n/a	stim	poldrack-single-stim	s606	False	1
483.638	1.508	485.146	-3.4961393528498794	draw_card	1.508	columbia_card_task_fmri	17.0	0.7777777777777778	89.0	-80.0	0.2222222222222222	15.0	7.0	2.0	7.143599672057363	1.508	n/a	stim	poldrack-single-stim	s606	False	1
485.15	1.51	486.66	-6.190583797294324	draw_card	1.51	columbia_card_task_fmri	17.0	0.75	89.0	-80.0	0.25	15.0	8.0	2.0	8.818525088960122	1.51	8.0	stim	poldrack-single-stim	s606	False	0
487.416	1.5	486.665	n/a	-1.0	2.59	columbia_card_task_fmri	n/a	n/a	-1.0	n/a	n/a	n/a	n/a	n/a	n/a	n/a	n/a	ITI	poldrack-single-stim	s606	False	0
489.26	2.606	491.866	1.059416202705676	draw_card	2.606	columbia_card_task_fmri	1.0	0.9375	89.0	-15.0	0.0625	16.0	1.0	1.0	-29.181799416610048	2.606	n/a	stim	poldrack-single-stim	s606	False	1
491.87	0.583	492.453	0.9927495360390092	draw_card	0.583	columbia_card_task_fmri	1.0	0.9333333333333332	89.0	-15.0	0.0666666666666666	16.0	2.0	1.0	-29.06774950558218	0.583	n/a	stim	poldrack-single-stim	s606	False	1
492.458	1.222	493.68	0.9165590598485333	end_round	1.222	columbia_card_task_fmri	1.0	0.9285714285714286	71.0	-15.0	0.0714285714285714	16.0	3.0	1.0	-28.942426443708484	1.222	2.0	stim	poldrack-single-stim	s606	False	1
494.439	1.5	493.688	n/a	-1.0	2.25	columbia_card_task_fmri	n/a	n/a	-1.0	n/a	n/a	n/a	n/a	n/a	n/a	n/a	n/a	ITI	poldrack-single-stim	s606	False	0
495.945	1.762	497.707	4.184416202705676	draw_card	1.762	columbia_card_task_fmri	10.0	0.9375	89.0	-100.0	0.0625	16.0	1.0	1.0	-6.549237610054838	1.762	n/a	stim	poldrack-single-stim	s606	False	1
497.712	0.529	498.241	3.726082869372343	draw_card	0.529	columbia_card_task_fmri	10.0	0.9333333333333332	89.0	-100.0	0.0666666666666666	16.0	2.0	1.0	-5.737800306900319	0.529	n/a	stim	poldrack-single-stim	s606	False	1
498.246	1.408	499.654	3.20227334556282	draw_card	1.408	columbia_card_task_fmri	10.0	0.9285714285714286	89.0	-100.0	0.0714285714285714	16.0	3.0	1.0	-4.847931893322571	1.408	n/a	stim	poldrack-single-stim	s606	False	1
499.659	1.079	500.738	2.597877741167215	draw_card	1.079	columbia_card_task_fmri	10.0	0.9230769230769232	89.0	-100.0	0.0769230769230769	16.0	4.0	1.0	-3.866297469874251	1.079	n/a	stim	poldrack-single-stim	s606	False	1
500.742	0.799	501.541	1.8927495360390096	draw_card	0.799	columbia_card_task_fmri	10.0	0.9166666666666666	89.0	-100.0	0.0833333333333333	16.0	5.0	1.0	-2.776218850110542	0.799	n/a	stim	poldrack-single-stim	s606	False	1
501.546	7.723	509.269	1.0594162027056742	end_round	7.723	columbia_card_task_fmri	10.0	0.9090909090909092	71.0	-100.0	0.0909090909090909	16.0	6.0	1.0	-1.5565478834083102	7.723	5.0	stim	poldrack-single-stim	s606	False	1
510.029	1.5	509.278	n/a	-1.0	2.25	columbia_card_task_fmri	n/a	n/a	-1.0	n/a	n/a	n/a	n/a	n/a	n/a	n/a	n/a	ITI	poldrack-single-stim	s606	False	0
511.534	2.126	513.66	4.809416202705676	draw_card	2.126	columbia_card_task_fmri	15.0	0.875	89.0	-75.0	0.125	16.0	1.0	2.0	-3.413515417873903	2.126	n/a	stim	poldrack-single-stim	s606	False	1
513.666	5.166	518.832	4.059416202705676	draw_card	5.166	columbia_card_task_fmri	15.0	0.8666666666666667	89.0	-75.0	0.1333333333333333	16.0	2.0	2.0	-2.584611248597014	5.166	n/a	stim	poldrack-single-stim	s606	False	1
518.836	1.066	519.902	3.20227334556282	draw_card	1.066	columbia_card_task_fmri	15.0	0.8571428571428572	89.0	-75.0	0.1428571428571428	16.0	3.0	2.0	-1.6858121169471758	1.066	n/a	stim	poldrack-single-stim	s606	False	1
519.908	1.423	521.331	2.213262356551829	draw_card	1.423	columbia_card_task_fmri	15.0	0.8461538461538461	89.0	-75.0	0.1538461538461538	16.0	4.0	2.0	-0.7076791613318321	1.423	n/a	stim	poldrack-single-stim	s606	False	1
521.337	0.823	522.16	1.059416202705676	draw_card	0.823	columbia_card_task_fmri	15.0	0.8333333333333334	89.0	-75.0	0.1666666666666666	16.0	5.0	2.0	0.3606810659216251	0.823	n/a	stim	poldrack-single-stim	s606	False	1
522.163	1.773	523.936	-0.3042201609306891	draw_card	1.773	columbia_card_task_fmri	15.0	0.8181818181818181	89.0	-75.0	0.1818181818181818	16.0	6.0	2.0	1.5316118716717495	1.773	n/a	stim	poldrack-single-stim	s606	False	1
523.941	1.642	525.583	-1.940583797294324	draw_card	1.642	columbia_card_task_fmri	15.0	0.8	89.0	-75.0	0.2	16.0	7.0	2.0	2.818519376394597	1.642	7.0	stim	poldrack-single-stim	s606	False	0
526.338	1.5	525.587	n/a	-1.0	2.522	columbia_card_task_fmri	n/a	n/a	-1.0	n/a	n/a	n/a	n/a	n/a	n/a	n/a	n/a	ITI	poldrack-single-stim	s606	False	0
528.116	2.618	530.734	5.059416202705676	draw_card	2.618	columbia_card_task_fmri	16.0	0.875	89.0	-80.0	0.125	16.0	1.0	2.0	-1.4303792545735623	2.618	n/a	stim	poldrack-single-stim	s606	False	1
530.739	0.533	531.272	4.259416202705677	draw_card	0.533	columbia_card_task_fmri	16.0	0.8666666666666667	89.0	-80.0	0.1333333333333333	16.0	2.0	2.0	-0.5461489002822333	0.533	n/a	stim	poldrack-single-stim	s606	False	1
531.279	0.474	531.753	3.345130488419964	draw_card	0.474	columbia_card_task_fmri	16.0	0.8571428571428572	89.0	-80.0	0.1428571428571428	16.0	3.0	2.0	0.4126377192853354	0.474	n/a	stim	poldrack-single-stim	s606	False	1
531.757	0.702	532.459	2.290185433474906	draw_card	0.702	columbia_card_task_fmri	16.0	0.8461538461538461	89.0	-80.0	0.1538461538461538	16.0	4.0	2.0	1.4560487994296023	0.702	4.0	stim	poldrack-single-stim	s606	False	0
533.217	1.5	532.466	n/a	-1.0	2.454	columbia_card_task_fmri	n/a	n/a	-1.0	n/a	n/a	n/a	n/a	n/a	n/a	n/a	n/a	ITI	poldrack-single-stim	s606	False	0
534.926	4.38	539.306	2.246916202705676	draw_card	4.38	columbia_card_task_fmri	4.0	0.6875	89.0	-5.0	0.3125	16.0	1.0	5.0	-28.893031880167065	4.38	1.0	stim	poldrack-single-stim	s606	False	0
540.062	1.5	539.311	n/a	-1.0	2.25	columbia_card_task_fmri	n/a	n/a	-1.0	n/a	n/a	n/a	n/a	n/a	n/a	n/a	n/a	ITI	poldrack-single-stim	s606	False	0
541.567	1.902	543.469	-0.6072504639609884	draw_card	1.902	columbia_card_task_fmri	14.0	0.8333333333333334	89.0	-80.0	0.1666666666666666	6.0	1.0	1.0	1.8506815951393136	1.902	n/a	stim	poldrack-single-stim	s606	False	1
543.475	1.168	544.643	-3.740583797294323	end_round	1.168	columbia_card_task_fmri	14.0	0.8	71.0	-80.0	0.2	6.0	2.0	1.0	4.417856453958187	1.168	1.0	stim	poldrack-single-stim	s606	False	1
545.399	1.5	544.648	n/a	-1.0	2.454	columbia_card_task_fmri	n/a	n/a	-1.0	n/a	n/a	n/a	n/a	n/a	n/a	n/a	n/a	ITI	poldrack-single-stim	s606	False	0
547.109	2.312	549.421	1.059416202705676	draw_card	2.312	columbia_card_task_fmri	15.0	0.8333333333333334	89.0	-75.0	0.1666666666666666	6.0	1.0	1.0	0.3606810659216251	2.312	n/a	stim	poldrack-single-stim	s606	False	1
549.426	1.929	551.355	-1.940583797294324	end_round	1.929	columbia_card_task_fmri	15.0	0.8	71.0	-75.0	0.2	6.0	2.0	1.0	2.818519376394597	1.929	1.0	stim	poldrack-single-stim	s606	False	1
552.111	1.5	551.36	n/a	-1.0	2.454	columbia_card_task_fmri	n/a	n/a	-1.0	n/a	n/a	n/a	n/a	n/a	n/a	n/a	n/a	ITI	poldrack-single-stim	s606	False	0
553.819	2.658	556.477	2.726082869372344	draw_card	2.658	columbia_card_task_fmri	16.0	0.8333333333333334	89.0	-70.0	0.1666666666666666	6.0	1.0	1.0	-1.129253333205206	2.658	n/a	stim	poldrack-single-stim	s606	False	1
556.483	0.926	557.409	-0.1405837972943233	draw_card	0.926	columbia_card_task_fmri	16.0	0.8	89.0	-70.0	0.2	6.0	2.0	1.0	1.219243924096979	0.926	n/a	stim	poldrack-single-stim	s606	False	1
557.414	1.967	559.381	-4.440583797294324	draw_card	1.967	columbia_card_task_fmri	16.0	0.75	89.0	-70.0	0.25	6.0	3.0	1.0	4.057093377761952	1.967	n/a	stim	poldrack-single-stim	s606	False	1
559.386	0.573	559.959	-11.607250463960987	end_round	0.573	columbia_card_task_fmri	16.0	0.6666666666666667	71.0	-70.0	0.3333333333333333	6.0	4.0	1.0	7.3575631932534336	0.573	3.0	stim	poldrack-single-stim	s606	False	1
560.718	1.5	559.967	n/a	-1.0	2.522	columbia_card_task_fmri	n/a	n/a	-1.0	n/a	n/a	n/a	n/a	n/a	n/a	n/a	n/a	ITI	poldrack-single-stim	s606	False	0
562.496	1.408	563.904	3.309416202705676	draw_card	1.408	columbia_card_task_fmri	23.0	0.75	89.0	-60.0	0.25	8.0	1.0	2.0	2.758599616963984	1.408	n/a	stim	poldrack-single-stim	s606	False	1
563.909	1.06	564.969	0.3451304884199642	draw_card	1.06	columbia_card_task_fmri	23.0	0.7142857142857143	89.0	-60.0	0.2857142857142857	8.0	2.0	2.0	4.313475964693943	1.06	n/a	stim	poldrack-single-stim	s606	False	1
564.975	1.485	566.46	-3.607250463960989	end_round	1.485	columbia_card_task_fmri	23.0	0.6666666666666667	71.0	-60.0	0.3333333333333333	8.0	3.0	2.0	5.943849692705413	1.485	2.0	stim	poldrack-single-stim	s606	False	1
567.219	1.5	566.468	n/a	-1.0	2.454	columbia_card_task_fmri	n/a	n/a	-1.0	n/a	n/a	n/a	n/a	n/a	n/a	n/a	n/a	ITI	poldrack-single-stim	s606	False	0
568.928	2.772	571.7	3.809416202705676	draw_card	2.772	columbia_card_task_fmri	27.0	0.75	89.0	-70.0	0.25	8.0	1.0	2.0	8.818525088960122	2.772	1.0	stim	poldrack-single-stim	s606	False	0
572.455	1.5	571.704	n/a	-1.0	2.658	columbia_card_task_fmri	n/a	n/a	-1.0	n/a	n/a	n/a	n/a	n/a	n/a	n/a	n/a	ITI	poldrack-single-stim	s606	False	0
574.369	3.973	578.342	-0.9405837972943224	draw_card	3.973	columbia_card_task_fmri	16.0	0.7777777777777778	89.0	-65.0	0.2222222222222222	9.0	1.0	2.0	0.4945114080387469	3.973	1.0	stim	poldrack-single-stim	s606	False	0
579.101	1.5	578.35	n/a	-1.0	2.386	columbia_card_task_fmri	n/a	n/a	-1.0	n/a	n/a	n/a	n/a	n/a	n/a	n/a	n/a	ITI	poldrack-single-stim	s606	False	0
580.743	1.018	581.761	4.259416202705677	draw_card	1.018	columbia_card_task_fmri	13.0	0.9	89.0	-85.0	0.1	10.0	1.0	1.0	-3.777984012255125	1.018	n/a	stim	poldrack-single-stim	s606	False	1
581.765	2.09	583.855	3.1705273138167867	draw_card	2.09	columbia_card_task_fmri	13.0	0.8888888888888888	89.0	-85.0	0.1111111111111111	10.0	2.0	1.0	-2.3804212128384066	2.09	n/a	stim	poldrack-single-stim	s606	False	1
583.861	1.283	585.144	1.809416202705676	draw_card	1.283	columbia_card_task_fmri	13.0	0.875	89.0	-85.0	0.125	10.0	3.0	1.0	-0.7693018574722998	1.283	3.0	stim	poldrack-single-stim	s606	False	0
585.903	1.5	585.152	n/a	-1.0	2.522	columbia_card_task_fmri	n/a	n/a	-1.0	n/a	n/a	n/a	n/a	n/a	n/a	n/a	n/a	ITI	poldrack-single-stim	s606	False	0
587.68	6.409	594.089	-0.740583797294323	draw_card	6.409	columbia_card_task_fmri	14.0	0.8	89.0	-65.0	0.2	10.0	1.0	2.0	-1.579311704840087	6.409	n/a	stim	poldrack-single-stim	s606	False	1
594.094	0.658	594.752	-2.4961393528498776	draw_card	0.658	columbia_card_task_fmri	14.0	0.7777777777777778	89.0	-65.0	0.2222222222222222	10.0	2.0	2.0	-0.3365464417779549	0.658	2.0	stim	poldrack-single-stim	s606	False	0
595.512	1.5	594.761	n/a	-1.0	2.59	columbia_card_task_fmri	n/a	n/a	-1.0	n/a	n/a	n/a	n/a	n/a	n/a	n/a	n/a	ITI	poldrack-single-stim	s606	False	0
597.358	2.656	600.014	0.6594162027056774	draw_card	2.656	columbia_card_task_fmri	17.0	0.8	89.0	-70.0	0.2	10.0	1.0	2.0	1.6190565453770134	2.656	n/a	stim	poldrack-single-stim	s606	False	1
600.02	0.634	600.654	-1.2739171306276562	draw_card	0.634	columbia_card_task_fmri	17.0	0.7777777777777778	89.0	-70.0	0.2222222222222222	10.0	2.0	2.0	2.987801173377491	0.634	n/a	stim	poldrack-single-stim	s606	False	1
600.659	1.755	602.414	-3.690583797294324	draw_card	1.755	columbia_card_task_fmri	17.0	0.75	89.0	-70.0	0.25	10.0	3.0	2.0	4.489932968768386	1.755	n/a	stim	poldrack-single-stim	s606	False	1
602.421	2.336	604.757	-6.797726654437182	end_round	2.336	columbia_card_task_fmri	17.0	0.7142857142857143	71.0	-70.0	0.2857142857142857	10.0	4.0	2.0	6.119804044028754	2.336	3.0	stim	poldrack-single-stim	s606	False	1
605.517	1.5	604.766	n/a	-1.0	2.386	columbia_card_task_fmri	n/a	n/a	-1.0	n/a	n/a	n/a	n/a	n/a	n/a	n/a	n/a	ITI	poldrack-single-stim	s606	False	0
607.159	0.969	608.128	-0.6072504639609901	draw_card	0.969	columbia_card_task_fmri	13.0	0.8333333333333334	89.0	-75.0	0.1666666666666666	12.0	1.0	2.0	-0.3842949629335663	0.969	n/a	stim	poldrack-single-stim	s606	False	1
608.135	0.409	608.544	-1.9405837972943256	draw_card	0.409	columbia_card_task_fmri	13.0	0.8181818181818181	89.0	-75.0	0.1818181818181818	12.0	2.0	2.0	0.7605898149065737	0.409	n/a	stim	poldrack-single-stim	s606	False	1
608.549	0.658	609.207	-3.540583797294324	draw_card	0.658	columbia_card_task_fmri	13.0	0.8	89.0	-75.0	0.2	12.0	3.0	2.0	2.0188734223400786	0.658	n/a	stim	poldrack-single-stim	s606	False	1
609.212	0.775	609.987	-5.496139352849878	draw_card	0.775	columbia_card_task_fmri	13.0	0.7777777777777778	89.0	-75.0	0.2222222222222222	12.0	4.0	2.0	3.4033646839465703	0.775	n/a	stim	poldrack-single-stim	s606	False	1
609.993	0.992	610.985	-7.940583797294324	end_round	0.992	columbia_card_task_fmri	13.0	0.75	71.0	-75.0	0.25	12.0	5.0	2.0	4.922776491807511	0.992	4.0	stim	poldrack-single-stim	s606	False	1
611.741	1.5	610.99	n/a	-1.0	2.59	columbia_card_task_fmri	n/a	n/a	-1.0	n/a	n/a	n/a	n/a	n/a	n/a	n/a	n/a	ITI	poldrack-single-stim	s606	False	0
613.587	1.583	615.17	1.0594162027056775	draw_card	1.583	columbia_card_task_fmri	14.0	0.8333333333333334	89.0	-70.0	0.1666666666666666	12.0	1.0	2.0	-1.8741927849600264	1.583	n/a	stim	poldrack-single-stim	s606	False	1
615.175	2.055	617.23	-0.2133110700215992	draw_card	2.055	columbia_card_task_fmri	14.0	0.8181818181818181	89.0	-70.0	0.1818181818181818	12.0	2.0	2.0	-0.7814018877808522	2.055	n/a	stim	poldrack-single-stim	s606	False	1
617.237	2.472	619.709	-1.740583797294323	draw_card	2.472	columbia_card_task_fmri	14.0	0.8	89.0	-70.0	0.2	12.0	3.0	2.0	0.4196320559524835	2.472	n/a	stim	poldrack-single-stim	s606	False	1
619.714	2.24	621.954	-3.60725046396099	draw_card	2.24	columbia_card_task_fmri	14.0	0.7777777777777778	89.0	-70.0	0.2222222222222222	12.0	4.0	2.0	1.7411357960691305	2.24	4.0	stim	poldrack-single-stim	s606	False	0
622.711	1.5	621.96	n/a	-1.0	2.318	columbia_card_task_fmri	n/a	n/a	-1.0	n/a	n/a	n/a	n/a	n/a	n/a	n/a	n/a	ITI	poldrack-single-stim	s606	False	0
624.283	2.877	627.16	1.0594162027056775	draw_card	2.877	columbia_card_task_fmri	16.0	0.8333333333333334	89.0	-80.0	0.1666666666666666	12.0	1.0	2.0	2.5957040777040703	2.877	n/a	stim	poldrack-single-stim	s606	False	1
627.165	0.366	627.531	-0.3951292518397808	draw_card	0.366	columbia_card_task_fmri	16.0	0.8181818181818181	89.0	-80.0	0.1818181818181818	12.0	2.0	2.0	3.8447697724645664	0.366	n/a	stim	poldrack-single-stim	s606	False	1
627.536	0.531	628.067	-2.140583797294324	draw_card	0.531	columbia_card_task_fmri	16.0	0.8	89.0	-80.0	0.2	12.0	3.0	2.0	5.217545696902036	0.531	3.0	stim	poldrack-single-stim	s606	False	0
628.827	1.5	628.076	n/a	-1.0	2.25	columbia_card_task_fmri	n/a	n/a	-1.0	n/a	n/a	n/a	n/a	n/a	n/a	n/a	n/a	ITI	poldrack-single-stim	s606	False	0
630.332	2.0	632.332	0.8594162027056766	draw_card	2.0	columbia_card_task_fmri	16.0	0.8	89.0	-65.0	0.2	15.0	1.0	3.0	-0.7797498360193416	2.0	n/a	stim	poldrack-single-stim	s606	False	1
632.338	0.733	633.071	-0.2977266544371799	draw_card	0.733	columbia_card_task_fmri	16.0	0.7857142857142857	89.0	-65.0	0.2142857142857142	15.0	2.0	3.0	0.0562128033717428	0.733	n/a	stim	poldrack-single-stim	s606	False	1
633.076	0.453	633.529	-1.6328914896020177	draw_card	0.453	columbia_card_task_fmri	16.0	0.7692307692307692	89.0	-65.0	0.2307692307692307	15.0	3.0	3.0	0.9467027550425726	0.453	n/a	stim	poldrack-single-stim	s606	False	1
633.535	1.295	634.83	-3.190583797294324	draw_card	1.295	columbia_card_task_fmri	16.0	0.75	89.0	-65.0	0.25	15.0	4.0	3.0	1.8929594958931943	1.295	n/a	stim	poldrack-single-stim	s606	False	1
634.836	0.656	635.492	-5.031492888203414	end_round	0.656	columbia_card_task_fmri	16.0	0.7272727272727273	71.0	-65.0	0.2727272727272727	15.0	5.0	3.0	2.892790773912552	0.656	4.0	stim	poldrack-single-stim	s606	False	1
636.25	1.5	635.499	n/a	-1.0	2.454	columbia_card_task_fmri	n/a	n/a	-1.0	n/a	n/a	n/a	n/a	n/a	n/a	n/a	n/a	ITI	poldrack-single-stim	s606	False	0
637.96	1.127	639.087	-0.8155837972943241	draw_card	1.127	columbia_card_task_fmri	15.0	0.8125	89.0	-75.0	0.1875	16.0	1.0	3.0	1.9470197662200803	1.127	n/a	stim	poldrack-single-stim	s606	False	1
639.093	0.639	639.732	-1.940583797294324	draw_card	0.639	columbia_card_task_fmri	15.0	0.8	89.0	-75.0	0.2	16.0	2.0	3.0	2.818519376394597	0.639	n/a	stim	poldrack-single-stim	s606	False	1
639.738	0.662	640.4	-3.2262980830086088	draw_card	0.662	columbia_card_task_fmri	15.0	0.7857142857142857	89.0	-75.0	0.2142857142857142	16.0	3.0	3.0	3.74745864050589	0.662	n/a	stim	poldrack-single-stim	s606	False	1
640.407	1.273	641.68	-4.709814566525098	draw_card	1.273	columbia_card_task_fmri	15.0	0.7692307692307692	89.0	-75.0	0.2307692307692307	16.0	4.0	3.0	4.736984850713505	1.273	n/a	stim	poldrack-single-stim	s606	False	1
641.686	1.796	643.482	-6.440583797294324	end_round	1.796	columbia_card_task_fmri	15.0	0.75	71.0	-75.0	0.25	16.0	5.0	3.0	5.78847481010996	1.796	4.0	stim	poldrack-single-stim	s606	False	1
644.24	1.5	643.489	n/a	-1.0	3.27	columbia_card_task_fmri	n/a	n/a	-1.0	n/a	n/a	n/a	n/a	n/a	n/a	n/a	n/a	ITI	poldrack-single-stim	s606	False	0
646.766	2.152	648.918	-0.253083797294324	draw_card	2.152	columbia_card_task_fmri	14.0	0.6875	89.0	-35.0	0.3125	16.0	1.0	5.0	-10.460262713612307	2.152	1.0	stim	poldrack-single-stim	s606	False	0
649.676	1.5	648.925	n/a	-1.0	2.25	columbia_card_task_fmri	n/a	n/a	-1.0	n/a	n/a	n/a	n/a	n/a	n/a	n/a	n/a	ITI	poldrack-single-stim	s606	False	0
651.183	1.228	652.411	4.926082869372343	draw_card	1.228	columbia_card_task_fmri	16.0	0.8666666666666667	89.0	-75.0	0.1333333333333333	15.0	1.0	2.0	-2.2448780043202667	1.228	n/a	stim	poldrack-single-stim	s606	False	1
652.417	0.885	653.302	4.059416202705678	draw_card	0.885	columbia_card_task_fmri	16.0	0.8571428571428572	89.0	-75.0	0.1428571428571428	15.0	2.0	2.0	-1.336080659719535	0.885	n/a	stim	poldrack-single-stim	s606	False	1
653.308	0.654	653.962	3.059416202705676	draw_card	0.654	columbia_card_task_fmri	16.0	0.8461538461538461	89.0	-75.0	0.1538461538461538	15.0	3.0	2.0	-0.3470677107515953	0.654	n/a	stim	poldrack-single-stim	s606	False	1
653.968	0.98	654.948	1.8927495360390096	draw_card	0.98	columbia_card_task_fmri	16.0	0.8333333333333334	89.0	-75.0	0.1666666666666666	15.0	4.0	2.0	0.7331753388374835	0.98	n/a	stim	poldrack-single-stim	s606	False	1
654.954	0.67	655.624	0.5139616572511292	draw_card	0.67	columbia_card_task_fmri	16.0	0.8181818181818181	89.0	-75.0	0.1818181818181818	15.0	5.0	2.0	1.9171289479327456	0.67	n/a	stim	poldrack-single-stim	s606	False	1
655.63	1.308	656.938	-1.1405837972943234	end_round	1.308	columbia_card_task_fmri	16.0	0.8	71.0	-75.0	0.2	15.0	6.0	2.0	3.218348185583473	1.308	5.0	stim	poldrack-single-stim	s606	False	1
657.698	1.5	656.947	n/a	-1.0	2.25	columbia_card_task_fmri	n/a	n/a	-1.0	n/a	n/a	n/a	n/a	n/a	n/a	n/a	n/a	ITI	poldrack-single-stim	s606	False	0
659.204	1.701	660.905	5.592749536039009	draw_card	1.701	columbia_card_task_fmri	16.0	0.8666666666666667	89.0	-70.0	0.1333333333333333	15.0	1.0	2.0	-3.9434974353783474	1.701	n/a	stim	poldrack-single-stim	s606	False	1
660.91	0.718	661.628	4.773701916991391	draw_card	0.718	columbia_card_task_fmri	16.0	0.8571428571428572	89.0	-70.0	0.1428571428571428	15.0	2.0	2.0	-3.084692486962812	0.718	n/a	stim	poldrack-single-stim	s606	False	1
661.635	0.727	662.362	3.828646971936444	draw_card	0.727	columbia_card_task_fmri	16.0	0.8461538461538461	89.0	-70.0	0.1538461538461538	15.0	3.0	2.0	-2.1500808702885728	0.727	n/a	stim	poldrack-single-stim	s606	False	1
662.368	0.921	663.289	2.726082869372344	end_round	0.921	columbia_card_task_fmri	16.0	0.8333333333333334	71.0	-70.0	0.1666666666666666	15.0	4.0	2.0	-1.129253333205206	0.921	3.0	stim	poldrack-single-stim	s606	False	1
664.046	1.5	663.295	n/a	-1.0	2.318	columbia_card_task_fmri	n/a	n/a	-1.0	n/a	n/a	n/a	n/a	n/a	n/a	n/a	n/a	ITI	poldrack-single-stim	s606	False	0
665.621	0.622	666.243	2.934416202705676	draw_card	0.622	columbia_card_task_fmri	8.0	0.9375	89.0	-90.0	0.0625	16.0	1.0	1.0	-9.451397854020158	0.622	n/a	stim	poldrack-single-stim	s606	False	1
666.249	3.2	669.449	2.5260828693723427	draw_card	3.2	columbia_card_task_fmri	8.0	0.9333333333333332	89.0	-90.0	0.0666666666666666	16.0	2.0	1.0	-8.728625030674497	3.2	n/a	stim	poldrack-single-stim	s606	False	1
669.455	0.731	670.186	2.059416202705677	end_round	0.731	columbia_card_task_fmri	8.0	0.9285714285714286	71.0	-90.0	0.0714285714285714	16.0	3.0	1.0	-7.9359816636482385	0.731	2.0	stim	poldrack-single-stim	s606	False	1
670.943	1.5	670.192	n/a	-1.0	2.726	columbia_card_task_fmri	n/a	n/a	-1.0	n/a	n/a	n/a	n/a	n/a	n/a	n/a	n/a	ITI	poldrack-single-stim	s606	False	0
672.925	2.04	674.965	4.496916202705676	draw_card	2.04	columbia_card_task_fmri	10.0	0.9375	89.0	-95.0	0.0625	16.0	1.0	1.0	-7.758542541810762	2.04	n/a	stim	poldrack-single-stim	s606	False	1
674.972	0.723	675.695	4.059416202705677	draw_card	0.723	columbia_card_task_fmri	10.0	0.9333333333333332	89.0	-95.0	0.0666666666666666	16.0	2.0	1.0	-6.984046666657015	0.723	2.0	stim	poldrack-single-stim	s606	False	0
676.454	1.5	675.703	n/a	-1.0	2.386	columbia_card_task_fmri	n/a	n/a	-1.0	n/a	n/a	n/a	n/a	n/a	n/a	n/a	n/a	ITI	poldrack-single-stim	s606	False	0
678.097	2.401	680.498	5.434416202705676	draw_card	2.401	columbia_card_task_fmri	15.0	0.875	89.0	-70.0	0.125	16.0	1.0	2.0	-5.066002048829642	2.401	n/a	stim	poldrack-single-stim	s606	False	1
680.504	1.181	681.685	4.726082869372342	draw_card	1.181	columbia_card_task_fmri	15.0	0.8666666666666667	89.0	-70.0	0.1333333333333333	16.0	2.0	2.0	-4.283206459852323	1.181	n/a	stim	poldrack-single-stim	s606	False	1
681.692	0.724	682.416	3.9165590598485336	draw_card	0.724	columbia_card_task_fmri	15.0	0.8571428571428572	89.0	-70.0	0.1428571428571428	16.0	3.0	2.0	-3.4344004135098487	0.724	n/a	stim	poldrack-single-stim	s606	False	1
682.422	0.459	682.881	2.982493125782597	draw_card	0.459	columbia_card_task_fmri	15.0	0.8461538461538461	89.0	-70.0	0.1538461538461538	16.0	4.0	2.0	-2.5106694969651397	0.459	n/a	stim	poldrack-single-stim	s606	False	1
682.888	2.483	685.371	1.8927495360390096	draw_card	2.483	columbia_card_task_fmri	15.0	0.8333333333333334	89.0	-70.0	0.1666666666666666	16.0	5.0	2.0	-1.5017255072688087	2.483	n/a	stim	poldrack-single-stim	s606	False	1
685.379	0.717	686.096	0.6048707481602191	end_round	0.717	columbia_card_task_fmri	15.0	0.8181818181818181	71.0	-70.0	0.1818181818181818	16.0	6.0	2.0	-0.3959108984440007	0.717	5.0	stim	poldrack-single-stim	s606	False	1
686.857	1.5	686.106	n/a	-1.0	2.318	columbia_card_task_fmri	n/a	n/a	-1.0	n/a	n/a	n/a	n/a	n/a	n/a	n/a	n/a	ITI	poldrack-single-stim	s606	False	0
