duration	onset	block_duration	movement_onset	planning	condition	exp_stage	experiment_exp_id	key_press	problem_id	response_time	trial_id	trial_type	worker_id	junk
4.188	3.014	4.188	7.202	1	UA_with_intermediate	practice	ward_and_allport	71	0.0	4.188	to_hand	poldrack-single-stim	s607	False
0.1	7.204	0.439	7.643	0	UA_with_intermediate	practice	ward_and_allport	82	0.0	0.439	to_board	poldrack-single-stim	s607	False
0.1	7.644	0.746	8.39	0	UA_with_intermediate	practice	ward_and_allport	71	0.0	0.746	to_hand	poldrack-single-stim	s607	False
0.1	8.391	0.583	8.974	0	UA_with_intermediate	practice	ward_and_allport	89	0.0	0.583	to_board	poldrack-single-stim	s607	False
0.1	8.976	0.792	9.768	0	UA_with_intermediate	practice	ward_and_allport	82	0.0	0.792	to_hand	poldrack-single-stim	s607	False
0.1	9.769	0.436	10.205	0	UA_with_intermediate	practice	ward_and_allport	89	0.0	0.436	to_board	poldrack-single-stim	s607	False
1.0	10.209	2.5	10.208	0	UA_with_intermediate	practice	ward_and_allport	-1	0.0	n/a	feedback	poldrack-single-stim	s607	False
4.41	12.711	4.41	17.121	1	UA_with_intermediate	practice	ward_and_allport	71	1.0	4.41	to_hand	poldrack-single-stim	s607	False
0.1	17.122	1.284	18.406	0	UA_with_intermediate	practice	ward_and_allport	71	1.0	1.284	to_board	poldrack-single-stim	s607	False
0.1	18.408	0.846	19.254	0	UA_with_intermediate	practice	ward_and_allport	89	1.0	0.846	to_hand	poldrack-single-stim	s607	False
0.1	19.255	0.5	19.755	0	UA_with_intermediate	practice	ward_and_allport	82	1.0	0.5	to_board	poldrack-single-stim	s607	False
0.1	19.757	0.647	20.404	0	UA_with_intermediate	practice	ward_and_allport	71	1.0	0.647	to_hand	poldrack-single-stim	s607	False
0.1	20.405	0.359	20.764	0	UA_with_intermediate	practice	ward_and_allport	89	1.0	0.359	to_board	poldrack-single-stim	s607	False
0.1	20.766	0.58	21.346	0	UA_with_intermediate	practice	ward_and_allport	82	1.0	0.58	to_hand	poldrack-single-stim	s607	False
0.1	21.347	0.305	21.652	0	UA_with_intermediate	practice	ward_and_allport	89	1.0	0.305	to_board	poldrack-single-stim	s607	False
1.0	21.656	2.1	21.655	0	UA_with_intermediate	practice	ward_and_allport	-1	1.0	n/a	feedback	poldrack-single-stim	s607	False
2.461	23.759	2.461	26.22	1	UA_without_intermediate	practice	ward_and_allport	82	2.0	2.461	to_hand	poldrack-single-stim	s607	False
0.1	26.221	0.407	26.628	0	UA_without_intermediate	practice	ward_and_allport	89	2.0	0.407	to_board	poldrack-single-stim	s607	False
0.1	26.631	2.115	28.746	0	UA_without_intermediate	practice	ward_and_allport	71	2.0	2.115	to_hand	poldrack-single-stim	s607	False
0.1	28.747	0.298	29.045	0	UA_without_intermediate	practice	ward_and_allport	89	2.0	0.298	to_board	poldrack-single-stim	s607	False
0.1	29.047	0.636	29.683	0	UA_without_intermediate	practice	ward_and_allport	71	2.0	0.636	to_hand	poldrack-single-stim	s607	False
0.1	29.684	0.248	29.932	0	UA_without_intermediate	practice	ward_and_allport	89	2.0	0.248	to_board	poldrack-single-stim	s607	False
1.0	29.938	2.2	29.937	0	UA_without_intermediate	practice	ward_and_allport	-1	2.0	n/a	feedback	poldrack-single-stim	s607	False
2.37	32.14	2.37	34.51	1	UA_without_intermediate	practice	ward_and_allport	82	3.0	2.37	to_hand	poldrack-single-stim	s607	False
0.1	34.511	1.917	36.428	0	UA_without_intermediate	practice	ward_and_allport	82	3.0	1.917	to_board	poldrack-single-stim	s607	False
0.1	36.43	0.893	37.323	0	UA_without_intermediate	practice	ward_and_allport	71	3.0	0.893	to_hand	poldrack-single-stim	s607	False
0.1	37.324	0.324	37.648	0	UA_without_intermediate	practice	ward_and_allport	89	3.0	0.324	to_board	poldrack-single-stim	s607	False
0.1	37.65	1.016	38.666	0	UA_without_intermediate	practice	ward_and_allport	82	3.0	1.016	to_hand	poldrack-single-stim	s607	False
0.1	38.667	0.263	38.93	0	UA_without_intermediate	practice	ward_and_allport	89	3.0	0.263	to_board	poldrack-single-stim	s607	False
0.1	38.932	0.442	39.374	0	UA_without_intermediate	practice	ward_and_allport	71	3.0	0.442	to_hand	poldrack-single-stim	s607	False
0.1	39.375	0.333	39.708	0	UA_without_intermediate	practice	ward_and_allport	89	3.0	0.333	to_board	poldrack-single-stim	s607	False
1.0	39.712	2.0	39.711	0	UA_without_intermediate	practice	ward_and_allport	-1	3.0	n/a	feedback	poldrack-single-stim	s607	False
3.979	43.718	3.979	47.697	1	PA_without_intermediate	test	ward_and_allport	71	0.0	3.979	to_hand	poldrack-single-stim	s607	False
0.1	47.698	0.412	48.11	0	PA_without_intermediate	test	ward_and_allport	89	0.0	0.412	to_board	poldrack-single-stim	s607	False
0.1	48.112	0.807	48.919	0	PA_without_intermediate	test	ward_and_allport	71	0.0	0.807	to_hand	poldrack-single-stim	s607	False
0.1	48.92	0.292	49.212	0	PA_without_intermediate	test	ward_and_allport	89	0.0	0.292	to_board	poldrack-single-stim	s607	False
0.1	49.216	0.878	50.094	0	PA_without_intermediate	test	ward_and_allport	71	0.0	0.878	to_hand	poldrack-single-stim	s607	False
0.1	50.095	0.244	50.339	0	PA_without_intermediate	test	ward_and_allport	82	0.0	0.244	to_board	poldrack-single-stim	s607	False
1.0	50.345	3.088	50.344	0	PA_without_intermediate	test	ward_and_allport	-1	0.0	n/a	feedback	poldrack-single-stim	s607	False
2.521	53.435	2.521	55.956	1	PA_with_intermediate	test	ward_and_allport	71	1.0	2.521	to_hand	poldrack-single-stim	s607	False
0.1	55.957	0.451	56.408	0	PA_with_intermediate	test	ward_and_allport	82	1.0	0.451	to_board	poldrack-single-stim	s607	False
0.1	56.41	0.545	56.955	0	PA_with_intermediate	test	ward_and_allport	71	1.0	0.545	to_hand	poldrack-single-stim	s607	False
0.1	56.956	0.584	57.54	0	PA_with_intermediate	test	ward_and_allport	89	1.0	0.584	to_board	poldrack-single-stim	s607	False
0.1	57.542	1.307	58.849	0	PA_with_intermediate	test	ward_and_allport	82	1.0	1.307	to_hand	poldrack-single-stim	s607	False
0.1	58.85	0.541	59.391	0	PA_with_intermediate	test	ward_and_allport	71	1.0	0.541	to_board	poldrack-single-stim	s607	False
1.0	59.395	2.0	59.394	0	PA_with_intermediate	test	ward_and_allport	-1	1.0	n/a	feedback	poldrack-single-stim	s607	False
2.019	61.399	2.019	63.418	1	PA_without_intermediate	test	ward_and_allport	71	2.0	2.019	to_hand	poldrack-single-stim	s607	False
0.1	63.419	0.382	63.801	0	PA_without_intermediate	test	ward_and_allport	82	2.0	0.382	to_board	poldrack-single-stim	s607	False
0.1	63.803	1.039	64.842	0	PA_without_intermediate	test	ward_and_allport	71	2.0	1.039	to_hand	poldrack-single-stim	s607	False
0.1	64.843	0.357	65.2	0	PA_without_intermediate	test	ward_and_allport	89	2.0	0.357	to_board	poldrack-single-stim	s607	False
0.1	65.202	0.654	65.856	0	PA_without_intermediate	test	ward_and_allport	71	2.0	0.654	to_hand	poldrack-single-stim	s607	False
0.1	65.857	0.568	66.425	0	PA_without_intermediate	test	ward_and_allport	82	2.0	0.568	to_board	poldrack-single-stim	s607	False
1.0	66.431	2.0	66.43	0	PA_without_intermediate	test	ward_and_allport	-1	2.0	n/a	feedback	poldrack-single-stim	s607	False
3.153	68.434	3.153	71.587	1	PA_without_intermediate	test	ward_and_allport	89	3.0	3.153	to_hand	poldrack-single-stim	s607	False
0.1	71.588	0.382	71.97	0	PA_without_intermediate	test	ward_and_allport	71	3.0	0.382	to_board	poldrack-single-stim	s607	False
0.1	71.972	1.165	73.137	0	PA_without_intermediate	test	ward_and_allport	89	3.0	1.165	to_hand	poldrack-single-stim	s607	False
0.1	73.139	0.469	73.608	0	PA_without_intermediate	test	ward_and_allport	82	3.0	0.469	to_board	poldrack-single-stim	s607	False
0.1	73.61	1.09	74.7	0	PA_without_intermediate	test	ward_and_allport	89	3.0	1.09	to_hand	poldrack-single-stim	s607	False
0.1	74.7	0.314	75.014	0	PA_without_intermediate	test	ward_and_allport	71	3.0	0.314	to_board	poldrack-single-stim	s607	False
1.0	75.018	2.0	75.017	0	PA_without_intermediate	test	ward_and_allport	-1	3.0	n/a	feedback	poldrack-single-stim	s607	False
2.764	77.021	2.764	79.785	1	PA_with_intermediate	test	ward_and_allport	89	4.0	2.764	to_hand	poldrack-single-stim	s607	False
0.1	79.786	1.601	81.387	0	PA_with_intermediate	test	ward_and_allport	82	4.0	1.601	to_board	poldrack-single-stim	s607	False
0.1	81.389	1.071	82.46	0	PA_with_intermediate	test	ward_and_allport	89	4.0	1.071	to_hand	poldrack-single-stim	s607	False
0.1	82.461	0.328	82.789	0	PA_with_intermediate	test	ward_and_allport	71	4.0	0.328	to_board	poldrack-single-stim	s607	False
0.1	82.791	0.902	83.693	0	PA_with_intermediate	test	ward_and_allport	82	4.0	0.902	to_hand	poldrack-single-stim	s607	False
0.1	83.695	0.466	84.161	0	PA_with_intermediate	test	ward_and_allport	89	4.0	0.466	to_board	poldrack-single-stim	s607	False
1.0	84.165	2.544	84.164	0	PA_with_intermediate	test	ward_and_allport	-1	4.0	n/a	feedback	poldrack-single-stim	s607	False
1.43	86.712	1.43	88.142	1	PA_without_intermediate	test	ward_and_allport	71	5.0	1.43	to_hand	poldrack-single-stim	s607	False
0.1	88.142	0.788	88.93	0	PA_without_intermediate	test	ward_and_allport	82	5.0	0.788	to_board	poldrack-single-stim	s607	False
0.1	88.933	1.008	89.941	0	PA_without_intermediate	test	ward_and_allport	71	5.0	1.008	to_hand	poldrack-single-stim	s607	False
0.1	89.942	0.442	90.384	0	PA_without_intermediate	test	ward_and_allport	82	5.0	0.442	to_board	poldrack-single-stim	s607	False
0.1	90.386	0.659	91.045	0	PA_without_intermediate	test	ward_and_allport	71	5.0	0.659	to_hand	poldrack-single-stim	s607	False
0.1	91.047	0.321	91.368	0	PA_without_intermediate	test	ward_and_allport	89	5.0	0.321	to_board	poldrack-single-stim	s607	False
1.0	91.374	2.272	91.373	0	PA_without_intermediate	test	ward_and_allport	-1	5.0	n/a	feedback	poldrack-single-stim	s607	False
1.885	93.65	1.885	95.535	1	PA_with_intermediate	test	ward_and_allport	71	6.0	1.885	to_hand	poldrack-single-stim	s607	False
0.1	95.537	3.046	98.583	0	PA_with_intermediate	test	ward_and_allport	89	6.0	3.046	to_board	poldrack-single-stim	s607	False
0.1	98.584	0.49	99.074	0	PA_with_intermediate	test	ward_and_allport	71	6.0	0.49	to_hand	poldrack-single-stim	s607	False
0.1	99.076	0.4	99.476	0	PA_with_intermediate	test	ward_and_allport	82	6.0	0.4	to_board	poldrack-single-stim	s607	False
0.1	99.479	0.539	100.018	0	PA_with_intermediate	test	ward_and_allport	89	6.0	0.539	to_hand	poldrack-single-stim	s607	False
0.1	100.019	0.413	100.432	0	PA_with_intermediate	test	ward_and_allport	71	6.0	0.413	to_board	poldrack-single-stim	s607	False
1.0	100.434	4.04	100.433	0	PA_with_intermediate	test	ward_and_allport	-1	6.0	n/a	feedback	poldrack-single-stim	s607	False
2.181	104.478	2.181	106.659	1	PA_with_intermediate	test	ward_and_allport	82	7.0	2.181	to_hand	poldrack-single-stim	s607	False
0.1	106.66	1.669	108.329	0	PA_with_intermediate	test	ward_and_allport	71	7.0	1.669	to_board	poldrack-single-stim	s607	False
0.1	108.332	0.898	109.23	0	PA_with_intermediate	test	ward_and_allport	71	7.0	0.898	to_hand	poldrack-single-stim	s607	False
0.1	109.231	0.746	109.977	0	PA_with_intermediate	test	ward_and_allport	71	7.0	0.746	to_board	poldrack-single-stim	s607	False
0.1	109.98	0.362	110.342	0	PA_with_intermediate	test	ward_and_allport	82	7.0	0.362	to_hand	poldrack-single-stim	s607	False
0.1	110.344	0.446	110.79	0	PA_with_intermediate	test	ward_and_allport	89	7.0	0.446	to_board	poldrack-single-stim	s607	False
0.1	110.793	2.04	112.833	0	PA_with_intermediate	test	ward_and_allport	71	7.0	2.04	to_hand	poldrack-single-stim	s607	False
0.1	112.834	0.411	113.245	0	PA_with_intermediate	test	ward_and_allport	89	7.0	0.411	to_board	poldrack-single-stim	s607	False
1.0	113.247	2.272	113.246	0	PA_with_intermediate	test	ward_and_allport	-1	7.0	n/a	feedback	poldrack-single-stim	s607	False
1.383	115.523	1.383	116.906	1	PA_with_intermediate	test	ward_and_allport	71	8.0	1.383	to_hand	poldrack-single-stim	s607	False
0.1	116.907	1.33	118.237	0	PA_with_intermediate	test	ward_and_allport	89	8.0	1.33	to_board	poldrack-single-stim	s607	False
0.1	118.241	0.598	118.839	0	PA_with_intermediate	test	ward_and_allport	71	8.0	0.598	to_hand	poldrack-single-stim	s607	False
0.1	118.84	0.431	119.271	0	PA_with_intermediate	test	ward_and_allport	82	8.0	0.431	to_board	poldrack-single-stim	s607	False
0.1	119.274	0.604	119.878	0	PA_with_intermediate	test	ward_and_allport	89	8.0	0.604	to_hand	poldrack-single-stim	s607	False
0.1	119.879	0.456	120.335	0	PA_with_intermediate	test	ward_and_allport	82	8.0	0.456	to_board	poldrack-single-stim	s607	False
1.0	120.338	2.136	120.337	0	PA_with_intermediate	test	ward_and_allport	-1	8.0	n/a	feedback	poldrack-single-stim	s607	False
3.218	122.477	3.218	125.695	1	PA_with_intermediate	test	ward_and_allport	89	9.0	3.218	to_hand	poldrack-single-stim	s607	False
0.1	125.696	1.034	126.73	0	PA_with_intermediate	test	ward_and_allport	82	9.0	1.034	to_board	poldrack-single-stim	s607	False
0.1	126.733	0.449	127.182	0	PA_with_intermediate	test	ward_and_allport	89	9.0	0.449	to_hand	poldrack-single-stim	s607	False
0.1	127.184	0.651	127.835	0	PA_with_intermediate	test	ward_and_allport	71	9.0	0.651	to_board	poldrack-single-stim	s607	False
0.1	127.841	0.95	128.791	0	PA_with_intermediate	test	ward_and_allport	82	9.0	0.95	to_hand	poldrack-single-stim	s607	False
0.1	128.791	0.464	129.255	0	PA_with_intermediate	test	ward_and_allport	89	9.0	0.464	to_board	poldrack-single-stim	s607	False
1.0	129.26	2.0	129.259	0	PA_with_intermediate	test	ward_and_allport	-1	9.0	n/a	feedback	poldrack-single-stim	s607	False
3.426	131.264	3.426	134.69	1	PA_with_intermediate	test	ward_and_allport	71	10.0	3.426	to_hand	poldrack-single-stim	s607	False
0.1	134.691	0.67	135.361	0	PA_with_intermediate	test	ward_and_allport	89	10.0	0.67	to_board	poldrack-single-stim	s607	False
0.1	135.365	0.444	135.809	0	PA_with_intermediate	test	ward_and_allport	71	10.0	0.444	to_hand	poldrack-single-stim	s607	False
0.1	135.811	0.371	136.182	0	PA_with_intermediate	test	ward_and_allport	82	10.0	0.371	to_board	poldrack-single-stim	s607	False
0.1	136.186	0.456	136.642	0	PA_with_intermediate	test	ward_and_allport	89	10.0	0.456	to_hand	poldrack-single-stim	s607	False
0.1	136.643	0.312	136.955	0	PA_with_intermediate	test	ward_and_allport	82	10.0	0.312	to_board	poldrack-single-stim	s607	False
1.0	136.96	2.0	136.959	0	PA_with_intermediate	test	ward_and_allport	-1	10.0	n/a	feedback	poldrack-single-stim	s607	False
1.728	138.965	1.728	140.693	1	PA_without_intermediate	test	ward_and_allport	71	11.0	1.728	to_hand	poldrack-single-stim	s607	False
0.1	140.693	2.387	143.08	0	PA_without_intermediate	test	ward_and_allport	82	11.0	2.387	to_board	poldrack-single-stim	s607	False
0.1	143.084	0.695	143.779	0	PA_without_intermediate	test	ward_and_allport	71	11.0	0.695	to_hand	poldrack-single-stim	s607	False
0.1	143.78	0.463	144.243	0	PA_without_intermediate	test	ward_and_allport	82	11.0	0.463	to_board	poldrack-single-stim	s607	False
0.1	144.247	1.317	145.564	0	PA_without_intermediate	test	ward_and_allport	71	11.0	1.317	to_hand	poldrack-single-stim	s607	False
0.1	145.566	0.278	145.844	0	PA_without_intermediate	test	ward_and_allport	89	11.0	0.278	to_board	poldrack-single-stim	s607	False
1.0	145.848	2.408	145.847	0	PA_without_intermediate	test	ward_and_allport	-1	11.0	n/a	feedback	poldrack-single-stim	s607	False
2.925	148.26	2.925	151.185	1	PA_with_intermediate	test	ward_and_allport	89	12.0	2.925	to_hand	poldrack-single-stim	s607	False
0.1	151.186	2.33	153.516	0	PA_with_intermediate	test	ward_and_allport	82	12.0	2.33	to_board	poldrack-single-stim	s607	False
0.1	153.521	1.416	154.937	0	PA_with_intermediate	test	ward_and_allport	89	12.0	1.416	to_hand	poldrack-single-stim	s607	False
0.1	154.938	0.445	155.383	0	PA_with_intermediate	test	ward_and_allport	71	12.0	0.445	to_board	poldrack-single-stim	s607	False
0.1	155.386	0.409	155.795	0	PA_with_intermediate	test	ward_and_allport	82	12.0	0.409	to_hand	poldrack-single-stim	s607	False
0.1	155.797	0.55	156.347	0	PA_with_intermediate	test	ward_and_allport	71	12.0	0.55	to_board	poldrack-single-stim	s607	False
1.0	156.353	3.768	156.352	0	PA_with_intermediate	test	ward_and_allport	-1	12.0	n/a	feedback	poldrack-single-stim	s607	False
2.447	160.125	2.447	162.572	1	PA_with_intermediate	test	ward_and_allport	82	13.0	2.447	to_hand	poldrack-single-stim	s607	False
0.1	162.573	1.19	163.763	0	PA_with_intermediate	test	ward_and_allport	71	13.0	1.19	to_board	poldrack-single-stim	s607	False
0.1	163.767	0.58	164.347	0	PA_with_intermediate	test	ward_and_allport	82	13.0	0.58	to_hand	poldrack-single-stim	s607	False
0.1	164.348	0.436	164.784	0	PA_with_intermediate	test	ward_and_allport	89	13.0	0.436	to_board	poldrack-single-stim	s607	False
0.1	164.787	0.745	165.532	0	PA_with_intermediate	test	ward_and_allport	71	13.0	0.745	to_hand	poldrack-single-stim	s607	False
0.1	165.533	0.295	165.828	0	PA_with_intermediate	test	ward_and_allport	89	13.0	0.295	to_board	poldrack-single-stim	s607	False
1.0	165.837	2.68	165.836	0	PA_with_intermediate	test	ward_and_allport	-1	13.0	n/a	feedback	poldrack-single-stim	s607	False
2.414	168.521	2.414	170.935	1	PA_without_intermediate	test	ward_and_allport	82	14.0	2.414	to_hand	poldrack-single-stim	s607	False
0.1	170.935	1.105	172.04	0	PA_without_intermediate	test	ward_and_allport	71	14.0	1.105	to_board	poldrack-single-stim	s607	False
0.1	172.044	0.473	172.517	0	PA_without_intermediate	test	ward_and_allport	82	14.0	0.473	to_hand	poldrack-single-stim	s607	False
0.1	172.519	0.8	173.319	0	PA_without_intermediate	test	ward_and_allport	89	14.0	0.8	to_board	poldrack-single-stim	s607	False
0.1	173.323	0.453	173.776	0	PA_without_intermediate	test	ward_and_allport	82	14.0	0.453	to_hand	poldrack-single-stim	s607	False
0.1	173.776	0.385	174.161	0	PA_without_intermediate	test	ward_and_allport	71	14.0	0.385	to_board	poldrack-single-stim	s607	False
1.0	174.167	3.224	174.166	0	PA_without_intermediate	test	ward_and_allport	-1	14.0	n/a	feedback	poldrack-single-stim	s607	False
2.565	182.398	2.565	184.963	1	PA_without_intermediate	test	ward_and_allport	89	15.0	2.565	to_hand	poldrack-single-stim	s607	False
0.1	184.965	0.354	185.319	0	PA_without_intermediate	test	ward_and_allport	82	15.0	0.354	to_board	poldrack-single-stim	s607	False
0.1	185.322	1.037	186.359	0	PA_without_intermediate	test	ward_and_allport	89	15.0	1.037	to_hand	poldrack-single-stim	s607	False
0.1	186.361	0.517	186.878	0	PA_without_intermediate	test	ward_and_allport	71	15.0	0.517	to_board	poldrack-single-stim	s607	False
0.1	186.882	0.443	187.325	0	PA_without_intermediate	test	ward_and_allport	89	15.0	0.443	to_hand	poldrack-single-stim	s607	False
0.1	187.326	0.438	187.764	0	PA_without_intermediate	test	ward_and_allport	82	15.0	0.438	to_board	poldrack-single-stim	s607	False
1.0	187.77	3.36	187.769	0	PA_without_intermediate	test	ward_and_allport	-1	15.0	n/a	feedback	poldrack-single-stim	s607	False
1.899	191.134	1.899	193.033	1	PA_without_intermediate	test	ward_and_allport	82	16.0	1.899	to_hand	poldrack-single-stim	s607	False
0.1	193.033	0.782	193.815	0	PA_without_intermediate	test	ward_and_allport	89	16.0	0.782	to_board	poldrack-single-stim	s607	False
0.1	193.82	1.088	194.908	0	PA_without_intermediate	test	ward_and_allport	82	16.0	1.088	to_hand	poldrack-single-stim	s607	False
0.1	194.909	0.729	195.638	0	PA_without_intermediate	test	ward_and_allport	71	16.0	0.729	to_board	poldrack-single-stim	s607	False
0.1	195.642	0.536	196.178	0	PA_without_intermediate	test	ward_and_allport	82	16.0	0.536	to_hand	poldrack-single-stim	s607	False
0.1	196.18	0.563	196.743	0	PA_without_intermediate	test	ward_and_allport	89	16.0	0.563	to_board	poldrack-single-stim	s607	False
1.0	196.75	2.0	196.749	0	PA_without_intermediate	test	ward_and_allport	-1	16.0	n/a	feedback	poldrack-single-stim	s607	False
1.939	198.755	1.939	200.694	1	PA_without_intermediate	test	ward_and_allport	89	17.0	1.939	to_hand	poldrack-single-stim	s607	False
0.1	200.695	0.404	201.099	0	PA_without_intermediate	test	ward_and_allport	82	17.0	0.404	to_board	poldrack-single-stim	s607	False
0.1	201.103	0.754	201.857	0	PA_without_intermediate	test	ward_and_allport	89	17.0	0.754	to_hand	poldrack-single-stim	s607	False
0.1	201.858	0.775	202.633	0	PA_without_intermediate	test	ward_and_allport	82	17.0	0.775	to_board	poldrack-single-stim	s607	False
0.1	202.638	0.682	203.32	0	PA_without_intermediate	test	ward_and_allport	89	17.0	0.682	to_hand	poldrack-single-stim	s607	False
0.1	203.321	0.436	203.757	0	PA_without_intermediate	test	ward_and_allport	71	17.0	0.436	to_board	poldrack-single-stim	s607	False
1.0	203.761	2.408	203.76	0	PA_without_intermediate	test	ward_and_allport	-1	17.0	n/a	feedback	poldrack-single-stim	s607	False
1.138	206.177	1.138	207.315	1	PA_with_intermediate	test	ward_and_allport	71	18.0	1.138	to_hand	poldrack-single-stim	s607	False
0.1	207.316	2.04	209.356	0	PA_with_intermediate	test	ward_and_allport	89	18.0	2.04	to_board	poldrack-single-stim	s607	False
0.1	209.36	1.402	210.762	0	PA_with_intermediate	test	ward_and_allport	71	18.0	1.402	to_hand	poldrack-single-stim	s607	False
0.1	210.763	0.438	211.201	0	PA_with_intermediate	test	ward_and_allport	82	18.0	0.438	to_board	poldrack-single-stim	s607	False
0.1	211.207	0.411	211.618	0	PA_with_intermediate	test	ward_and_allport	89	18.0	0.411	to_hand	poldrack-single-stim	s607	False
0.1	211.619	0.403	212.022	0	PA_with_intermediate	test	ward_and_allport	71	18.0	0.403	to_board	poldrack-single-stim	s607	False
1.0	212.027	2.136	212.026	0	PA_with_intermediate	test	ward_and_allport	-1	18.0	n/a	feedback	poldrack-single-stim	s607	False
0.999	214.169	0.999	215.168	1	PA_without_intermediate	test	ward_and_allport	82	19.0	0.999	to_hand	poldrack-single-stim	s607	False
0.1	215.169	0.523	215.692	0	PA_without_intermediate	test	ward_and_allport	89	19.0	0.523	to_board	poldrack-single-stim	s607	False
0.1	215.696	1.198	216.894	0	PA_without_intermediate	test	ward_and_allport	82	19.0	1.198	to_hand	poldrack-single-stim	s607	False
0.1	216.895	0.677	217.572	0	PA_without_intermediate	test	ward_and_allport	89	19.0	0.677	to_board	poldrack-single-stim	s607	False
0.1	217.575	0.986	218.561	0	PA_without_intermediate	test	ward_and_allport	82	19.0	0.986	to_hand	poldrack-single-stim	s607	False
0.1	218.563	0.445	219.008	0	PA_without_intermediate	test	ward_and_allport	71	19.0	0.445	to_board	poldrack-single-stim	s607	False
1.0	219.015	5.128	219.014	0	PA_without_intermediate	test	ward_and_allport	-1	19.0	n/a	feedback	poldrack-single-stim	s607	False
2.017	224.148	2.017	226.165	1	PA_without_intermediate	test	ward_and_allport	89	20.0	2.017	to_hand	poldrack-single-stim	s607	False
0.1	226.166	0.599	226.765	0	PA_without_intermediate	test	ward_and_allport	71	20.0	0.599	to_board	poldrack-single-stim	s607	False
0.1	226.769	0.45	227.219	0	PA_without_intermediate	test	ward_and_allport	89	20.0	0.45	to_hand	poldrack-single-stim	s607	False
0.1	227.22	0.837	228.057	0	PA_without_intermediate	test	ward_and_allport	71	20.0	0.837	to_board	poldrack-single-stim	s607	False
0.1	228.062	0.345	228.407	0	PA_without_intermediate	test	ward_and_allport	89	20.0	0.345	to_hand	poldrack-single-stim	s607	False
0.1	228.408	0.43	228.838	0	PA_without_intermediate	test	ward_and_allport	82	20.0	0.43	to_board	poldrack-single-stim	s607	False
1.0	228.845	2.136	228.844	0	PA_without_intermediate	test	ward_and_allport	-1	20.0	n/a	feedback	poldrack-single-stim	s607	False
1.619	230.985	1.619	232.604	1	PA_without_intermediate	test	ward_and_allport	71	21.0	1.619	to_hand	poldrack-single-stim	s607	False
0.1	232.605	0.677	233.282	0	PA_without_intermediate	test	ward_and_allport	89	21.0	0.677	to_board	poldrack-single-stim	s607	False
0.1	233.286	0.732	234.018	0	PA_without_intermediate	test	ward_and_allport	71	21.0	0.732	to_hand	poldrack-single-stim	s607	False
0.1	234.02	0.292	234.312	0	PA_without_intermediate	test	ward_and_allport	82	21.0	0.292	to_board	poldrack-single-stim	s607	False
0.1	234.319	0.543	234.862	0	PA_without_intermediate	test	ward_and_allport	71	21.0	0.543	to_hand	poldrack-single-stim	s607	False
0.1	234.864	0.312	235.176	0	PA_without_intermediate	test	ward_and_allport	89	21.0	0.312	to_board	poldrack-single-stim	s607	False
1.0	235.184	5.264	235.183	0	PA_without_intermediate	test	ward_and_allport	-1	21.0	n/a	feedback	poldrack-single-stim	s607	False
1.071	240.455	1.071	241.526	1	PA_with_intermediate	test	ward_and_allport	89	22.0	1.071	to_hand	poldrack-single-stim	s607	False
0.1	241.527	1.8	243.327	0	PA_with_intermediate	test	ward_and_allport	71	22.0	1.8	to_board	poldrack-single-stim	s607	False
0.1	243.333	0.326	243.659	0	PA_with_intermediate	test	ward_and_allport	89	22.0	0.326	to_hand	poldrack-single-stim	s607	False
0.1	243.66	0.4	244.06	0	PA_with_intermediate	test	ward_and_allport	82	22.0	0.4	to_board	poldrack-single-stim	s607	False
0.1	244.066	0.408	244.474	0	PA_with_intermediate	test	ward_and_allport	89	22.0	0.408	to_hand	poldrack-single-stim	s607	False
0.1	244.475	0.723	245.198	0	PA_with_intermediate	test	ward_and_allport	89	22.0	0.723	to_board	poldrack-single-stim	s607	False
0.1	245.204	0.458	245.662	0	PA_with_intermediate	test	ward_and_allport	71	22.0	0.458	to_hand	poldrack-single-stim	s607	False
0.1	245.663	0.258	245.921	0	PA_with_intermediate	test	ward_and_allport	89	22.0	0.258	to_board	poldrack-single-stim	s607	False
1.0	245.929	4.04	245.928	0	PA_with_intermediate	test	ward_and_allport	-1	22.0	n/a	feedback	poldrack-single-stim	s607	False
1.703	249.975	1.703	251.678	1	PA_with_intermediate	test	ward_and_allport	89	23.0	1.703	to_hand	poldrack-single-stim	s607	False
0.1	251.679	0.37	252.049	0	PA_with_intermediate	test	ward_and_allport	71	23.0	0.37	to_board	poldrack-single-stim	s607	False
0.1	252.055	0.719	252.774	0	PA_with_intermediate	test	ward_and_allport	89	23.0	0.719	to_hand	poldrack-single-stim	s607	False
0.1	252.775	0.306	253.081	0	PA_with_intermediate	test	ward_and_allport	82	23.0	0.306	to_board	poldrack-single-stim	s607	False
0.1	253.085	1.168	254.253	0	PA_with_intermediate	test	ward_and_allport	71	23.0	1.168	to_hand	poldrack-single-stim	s607	False
0.1	254.255	0.306	254.561	0	PA_with_intermediate	test	ward_and_allport	89	23.0	0.306	to_board	poldrack-single-stim	s607	False
1.0	254.567	2.136	254.566	0	PA_with_intermediate	test	ward_and_allport	-1	23.0	n/a	feedback	poldrack-single-stim	s607	False
2.428	256.709	2.428	259.137	1	PA_with_intermediate	test	ward_and_allport	82	24.0	2.428	to_hand	poldrack-single-stim	s607	False
0.1	259.138	0.662	259.8	0	PA_with_intermediate	test	ward_and_allport	89	24.0	0.662	to_board	poldrack-single-stim	s607	False
0.1	259.806	0.466	260.272	0	PA_with_intermediate	test	ward_and_allport	82	24.0	0.466	to_hand	poldrack-single-stim	s607	False
0.1	260.273	0.475	260.748	0	PA_with_intermediate	test	ward_and_allport	71	24.0	0.475	to_board	poldrack-single-stim	s607	False
0.1	260.753	0.434	261.187	0	PA_with_intermediate	test	ward_and_allport	89	24.0	0.434	to_hand	poldrack-single-stim	s607	False
0.1	261.189	0.387	261.576	0	PA_with_intermediate	test	ward_and_allport	71	24.0	0.387	to_board	poldrack-single-stim	s607	False
1.0	261.586	2.408	261.585	0	PA_with_intermediate	test	ward_and_allport	-1	24.0	n/a	feedback	poldrack-single-stim	s607	False
1.646	264.0	1.646	265.646	1	PA_without_intermediate	test	ward_and_allport	82	25.0	1.646	to_hand	poldrack-single-stim	s607	False
0.1	265.647	0.737	266.384	0	PA_without_intermediate	test	ward_and_allport	71	25.0	0.737	to_board	poldrack-single-stim	s607	False
0.1	266.39	0.443	266.833	0	PA_without_intermediate	test	ward_and_allport	82	25.0	0.443	to_hand	poldrack-single-stim	s607	False
0.1	266.834	0.344	267.178	0	PA_without_intermediate	test	ward_and_allport	71	25.0	0.344	to_board	poldrack-single-stim	s607	False
0.1	267.184	0.88	268.064	0	PA_without_intermediate	test	ward_and_allport	82	25.0	0.88	to_hand	poldrack-single-stim	s607	False
0.1	268.065	0.286	268.351	0	PA_without_intermediate	test	ward_and_allport	89	25.0	0.286	to_board	poldrack-single-stim	s607	False
1.0	268.359	2.68	268.358	0	PA_without_intermediate	test	ward_and_allport	-1	25.0	n/a	feedback	poldrack-single-stim	s607	False
1.348	271.046	1.348	272.394	1	PA_with_intermediate	test	ward_and_allport	71	26.0	1.348	to_hand	poldrack-single-stim	s607	False
0.1	272.395	0.974	273.369	0	PA_with_intermediate	test	ward_and_allport	82	26.0	0.974	to_board	poldrack-single-stim	s607	False
0.1	273.375	0.822	274.197	0	PA_with_intermediate	test	ward_and_allport	71	26.0	0.822	to_hand	poldrack-single-stim	s607	False
0.1	274.197	0.577	274.774	0	PA_with_intermediate	test	ward_and_allport	89	26.0	0.577	to_board	poldrack-single-stim	s607	False
0.1	274.781	0.444	275.225	0	PA_with_intermediate	test	ward_and_allport	82	26.0	0.444	to_hand	poldrack-single-stim	s607	False
0.1	275.226	0.755	275.981	0	PA_with_intermediate	test	ward_and_allport	89	26.0	0.755	to_board	poldrack-single-stim	s607	False
1.0	275.989	4.72	275.988	0	PA_with_intermediate	test	ward_and_allport	-1	26.0	n/a	feedback	poldrack-single-stim	s607	False
1.335	280.715	1.335	282.05	1	PA_without_intermediate	test	ward_and_allport	71	27.0	1.335	to_hand	poldrack-single-stim	s607	False
0.1	282.051	0.365	282.416	0	PA_without_intermediate	test	ward_and_allport	82	27.0	0.365	to_board	poldrack-single-stim	s607	False
0.1	282.422	1.132	283.554	0	PA_without_intermediate	test	ward_and_allport	71	27.0	1.132	to_hand	poldrack-single-stim	s607	False
0.1	283.555	0.308	283.863	0	PA_without_intermediate	test	ward_and_allport	89	27.0	0.308	to_board	poldrack-single-stim	s607	False
0.1	283.871	0.471	284.342	0	PA_without_intermediate	test	ward_and_allport	71	27.0	0.471	to_hand	poldrack-single-stim	s607	False
0.1	284.343	0.308	284.651	0	PA_without_intermediate	test	ward_and_allport	82	27.0	0.308	to_board	poldrack-single-stim	s607	False
1.0	284.659	3.224	284.658	0	PA_without_intermediate	test	ward_and_allport	-1	27.0	n/a	feedback	poldrack-single-stim	s607	False
1.45	287.891	1.45	289.341	1	PA_without_intermediate	test	ward_and_allport	82	28.0	1.45	to_hand	poldrack-single-stim	s607	False
0.1	289.341	0.436	289.777	0	PA_without_intermediate	test	ward_and_allport	89	28.0	0.436	to_board	poldrack-single-stim	s607	False
0.1	289.785	0.786	290.571	0	PA_without_intermediate	test	ward_and_allport	82	28.0	0.786	to_hand	poldrack-single-stim	s607	False
0.1	290.572	0.39	290.962	0	PA_without_intermediate	test	ward_and_allport	89	28.0	0.39	to_board	poldrack-single-stim	s607	False
0.1	290.968	0.642	291.61	0	PA_without_intermediate	test	ward_and_allport	82	28.0	0.642	to_hand	poldrack-single-stim	s607	False
0.1	291.611	0.424	292.035	0	PA_without_intermediate	test	ward_and_allport	71	28.0	0.424	to_board	poldrack-single-stim	s607	False
1.0	292.047	2.272	292.046	0	PA_without_intermediate	test	ward_and_allport	-1	28.0	n/a	feedback	poldrack-single-stim	s607	False
1.365	294.326	1.365	295.691	1	PA_with_intermediate	test	ward_and_allport	89	29.0	1.365	to_hand	poldrack-single-stim	s607	False
0.1	295.691	0.978	296.669	0	PA_with_intermediate	test	ward_and_allport	82	29.0	0.978	to_board	poldrack-single-stim	s607	False
0.1	296.681	0.49	297.171	0	PA_with_intermediate	test	ward_and_allport	89	29.0	0.49	to_hand	poldrack-single-stim	s607	False
0.1	297.172	0.296	297.468	0	PA_with_intermediate	test	ward_and_allport	71	29.0	0.296	to_board	poldrack-single-stim	s607	False
0.1	297.475	0.431	297.906	0	PA_with_intermediate	test	ward_and_allport	82	29.0	0.431	to_hand	poldrack-single-stim	s607	False
0.1	297.907	0.396	298.303	0	PA_with_intermediate	test	ward_and_allport	71	29.0	0.396	to_board	poldrack-single-stim	s607	False
1.0	298.312	3.632	298.311	0	PA_with_intermediate	test	ward_and_allport	-1	29.0	n/a	feedback	poldrack-single-stim	s607	False
1.624	306.955	1.624	308.579	1	PA_without_intermediate	test	ward_and_allport	82	30.0	1.624	to_hand	poldrack-single-stim	s607	False
0.1	308.579	0.318	308.897	0	PA_without_intermediate	test	ward_and_allport	89	30.0	0.318	to_board	poldrack-single-stim	s607	False
0.1	308.903	1.2	310.103	0	PA_without_intermediate	test	ward_and_allport	82	30.0	1.2	to_hand	poldrack-single-stim	s607	False
0.1	310.105	0.375	310.48	0	PA_without_intermediate	test	ward_and_allport	71	30.0	0.375	to_board	poldrack-single-stim	s607	False
0.1	310.487	0.497	310.984	0	PA_without_intermediate	test	ward_and_allport	82	30.0	0.497	to_hand	poldrack-single-stim	s607	False
0.1	310.985	0.466	311.451	0	PA_without_intermediate	test	ward_and_allport	89	30.0	0.466	to_board	poldrack-single-stim	s607	False
1.0	311.463	2.408	311.462	0	PA_without_intermediate	test	ward_and_allport	-1	30.0	n/a	feedback	poldrack-single-stim	s607	False
1.261	313.88	1.261	315.141	1	PA_without_intermediate	test	ward_and_allport	71	31.0	1.261	to_hand	poldrack-single-stim	s607	False
0.1	315.141	0.32	315.461	0	PA_without_intermediate	test	ward_and_allport	89	31.0	0.32	to_board	poldrack-single-stim	s607	False
0.1	315.472	0.935	316.407	0	PA_without_intermediate	test	ward_and_allport	71	31.0	0.935	to_hand	poldrack-single-stim	s607	False
0.1	316.408	0.244	316.652	0	PA_without_intermediate	test	ward_and_allport	82	31.0	0.244	to_board	poldrack-single-stim	s607	False
0.1	316.66	0.394	317.054	0	PA_without_intermediate	test	ward_and_allport	71	31.0	0.394	to_hand	poldrack-single-stim	s607	False
0.1	317.056	0.267	317.323	0	PA_without_intermediate	test	ward_and_allport	89	31.0	0.267	to_board	poldrack-single-stim	s607	False
1.0	317.332	2.0	317.331	0	PA_without_intermediate	test	ward_and_allport	-1	31.0	n/a	feedback	poldrack-single-stim	s607	False
1.65	319.338	1.65	320.988	1	PA_with_intermediate	test	ward_and_allport	71	32.0	1.65	to_hand	poldrack-single-stim	s607	False
0.1	320.988	1.357	322.345	0	PA_with_intermediate	test	ward_and_allport	82	32.0	1.357	to_board	poldrack-single-stim	s607	False
0.1	322.351	0.403	322.754	0	PA_with_intermediate	test	ward_and_allport	71	32.0	0.403	to_hand	poldrack-single-stim	s607	False
0.1	322.754	0.281	323.035	0	PA_with_intermediate	test	ward_and_allport	89	32.0	0.281	to_board	poldrack-single-stim	s607	False
0.1	323.043	0.484	323.527	0	PA_with_intermediate	test	ward_and_allport	71	32.0	0.484	to_hand	poldrack-single-stim	s607	False
0.1	323.528	1.22	324.748	0	PA_with_intermediate	test	ward_and_allport	71	32.0	1.22	to_board	poldrack-single-stim	s607	False
0.1	324.759	0.373	325.132	0	PA_with_intermediate	test	ward_and_allport	82	32.0	0.373	to_hand	poldrack-single-stim	s607	False
0.1	325.134	0.268	325.402	0	PA_with_intermediate	test	ward_and_allport	71	32.0	0.268	to_board	poldrack-single-stim	s607	False
1.0	325.412	2.0	325.411	0	PA_with_intermediate	test	ward_and_allport	-1	32.0	n/a	feedback	poldrack-single-stim	s607	False
1.748	327.417	1.748	329.165	1	PA_with_intermediate	test	ward_and_allport	82	33.0	1.748	to_hand	poldrack-single-stim	s607	False
0.1	329.167	0.591	329.758	0	PA_with_intermediate	test	ward_and_allport	71	33.0	0.591	to_board	poldrack-single-stim	s607	False
0.1	329.763	0.479	330.242	0	PA_with_intermediate	test	ward_and_allport	82	33.0	0.479	to_hand	poldrack-single-stim	s607	False
0.1	330.242	0.399	330.641	0	PA_with_intermediate	test	ward_and_allport	89	33.0	0.399	to_board	poldrack-single-stim	s607	False
0.1	330.646	1.493	332.139	0	PA_with_intermediate	test	ward_and_allport	71	33.0	1.493	to_hand	poldrack-single-stim	s607	False
0.1	332.141	0.27	332.411	0	PA_with_intermediate	test	ward_and_allport	82	33.0	0.27	to_board	poldrack-single-stim	s607	False
1.0	332.421	2.0	332.42	0	PA_with_intermediate	test	ward_and_allport	-1	33.0	n/a	feedback	poldrack-single-stim	s607	False
1.714	334.43	1.714	336.144	1	PA_with_intermediate	test	ward_and_allport	82	34.0	1.714	to_hand	poldrack-single-stim	s607	False
0.1	336.145	1.249	337.394	0	PA_with_intermediate	test	ward_and_allport	89	34.0	1.249	to_board	poldrack-single-stim	s607	False
0.1	337.402	0.486	337.888	0	PA_with_intermediate	test	ward_and_allport	82	34.0	0.486	to_hand	poldrack-single-stim	s607	False
0.1	337.89	0.402	338.292	0	PA_with_intermediate	test	ward_and_allport	71	34.0	0.402	to_board	poldrack-single-stim	s607	False
0.1	338.298	0.436	338.734	0	PA_with_intermediate	test	ward_and_allport	89	34.0	0.436	to_hand	poldrack-single-stim	s607	False
0.1	338.734	0.403	339.137	0	PA_with_intermediate	test	ward_and_allport	82	34.0	0.403	to_board	poldrack-single-stim	s607	False
1.0	339.143	2.408	339.142	0	PA_with_intermediate	test	ward_and_allport	-1	34.0	n/a	feedback	poldrack-single-stim	s607	False
2.036	341.556	2.036	343.592	1	PA_without_intermediate	test	ward_and_allport	89	35.0	2.036	to_hand	poldrack-single-stim	s607	False
0.1	343.594	0.39	343.984	0	PA_without_intermediate	test	ward_and_allport	82	35.0	0.39	to_board	poldrack-single-stim	s607	False
0.1	343.992	0.512	344.504	0	PA_without_intermediate	test	ward_and_allport	89	35.0	0.512	to_hand	poldrack-single-stim	s607	False
0.1	344.505	0.723	345.228	0	PA_without_intermediate	test	ward_and_allport	71	35.0	0.723	to_board	poldrack-single-stim	s607	False
0.1	345.243	0.297	345.54	0	PA_without_intermediate	test	ward_and_allport	89	35.0	0.297	to_hand	poldrack-single-stim	s607	False
0.1	345.541	0.323	345.864	0	PA_without_intermediate	test	ward_and_allport	82	35.0	0.323	to_board	poldrack-single-stim	s607	False
1.0	345.877	2.816	345.876	0	PA_without_intermediate	test	ward_and_allport	-1	35.0	n/a	feedback	poldrack-single-stim	s607	False
2.432	348.699	2.432	351.131	1	PA_with_intermediate	test	ward_and_allport	82	36.0	2.432	to_hand	poldrack-single-stim	s607	False
0.1	351.131	0.475	351.606	0	PA_with_intermediate	test	ward_and_allport	89	36.0	0.475	to_board	poldrack-single-stim	s607	False
0.1	351.613	0.708	352.321	0	PA_with_intermediate	test	ward_and_allport	82	36.0	0.708	to_hand	poldrack-single-stim	s607	False
0.1	352.322	0.471	352.793	0	PA_with_intermediate	test	ward_and_allport	71	36.0	0.471	to_board	poldrack-single-stim	s607	False
0.1	352.8	0.65	353.45	0	PA_with_intermediate	test	ward_and_allport	89	36.0	0.65	to_hand	poldrack-single-stim	s607	False
0.1	353.451	0.324	353.775	0	PA_with_intermediate	test	ward_and_allport	82	36.0	0.324	to_board	poldrack-single-stim	s607	False
1.0	353.792	4.176	353.791	0	PA_with_intermediate	test	ward_and_allport	-1	36.0	n/a	feedback	poldrack-single-stim	s607	False
1.745	357.978	1.745	359.723	1	PA_with_intermediate	test	ward_and_allport	82	37.0	1.745	to_hand	poldrack-single-stim	s607	False
0.1	359.724	0.369	360.093	0	PA_with_intermediate	test	ward_and_allport	89	37.0	0.369	to_board	poldrack-single-stim	s607	False
0.1	360.101	0.486	360.587	0	PA_with_intermediate	test	ward_and_allport	82	37.0	0.486	to_hand	poldrack-single-stim	s607	False
0.1	360.589	0.407	360.996	0	PA_with_intermediate	test	ward_and_allport	71	37.0	0.407	to_board	poldrack-single-stim	s607	False
0.1	361.005	0.349	361.354	0	PA_with_intermediate	test	ward_and_allport	89	37.0	0.349	to_hand	poldrack-single-stim	s607	False
0.1	361.355	0.328	361.683	0	PA_with_intermediate	test	ward_and_allport	82	37.0	0.328	to_board	poldrack-single-stim	s607	False
0.1	361.689	1.155	362.844	0	PA_with_intermediate	test	ward_and_allport	71	37.0	1.155	to_hand	poldrack-single-stim	s607	False
0.1	362.846	0.851	363.697	0	PA_with_intermediate	test	ward_and_allport	71	37.0	0.851	to_board	poldrack-single-stim	s607	False
0.1	363.703	0.639	364.342	0	PA_with_intermediate	test	ward_and_allport	82	37.0	0.639	to_hand	poldrack-single-stim	s607	False
0.1	364.343	0.404	364.747	0	PA_with_intermediate	test	ward_and_allport	71	37.0	0.404	to_board	poldrack-single-stim	s607	False
1.0	364.757	3.36	364.756	0	PA_with_intermediate	test	ward_and_allport	-1	37.0	n/a	feedback	poldrack-single-stim	s607	False
1.447	368.123	1.447	369.57	1	PA_with_intermediate	test	ward_and_allport	89	38.0	1.447	to_hand	poldrack-single-stim	s607	False
0.1	369.571	0.579	370.15	0	PA_with_intermediate	test	ward_and_allport	71	38.0	0.579	to_board	poldrack-single-stim	s607	False
0.1	370.158	0.406	370.564	0	PA_with_intermediate	test	ward_and_allport	89	38.0	0.406	to_hand	poldrack-single-stim	s607	False
0.1	370.565	0.269	370.834	0	PA_with_intermediate	test	ward_and_allport	82	38.0	0.269	to_board	poldrack-single-stim	s607	False
0.1	370.845	0.485	371.33	0	PA_with_intermediate	test	ward_and_allport	71	38.0	0.485	to_hand	poldrack-single-stim	s607	False
0.1	371.332	0.39	371.722	0	PA_with_intermediate	test	ward_and_allport	82	38.0	0.39	to_board	poldrack-single-stim	s607	False
1.0	371.732	2.0	371.731	0	PA_with_intermediate	test	ward_and_allport	-1	38.0	n/a	feedback	poldrack-single-stim	s607	False
3.687	373.738	3.687	377.425	1	PA_without_intermediate	test	ward_and_allport	89	39.0	3.687	to_hand	poldrack-single-stim	s607	False
0.1	377.427	0.435	377.862	0	PA_without_intermediate	test	ward_and_allport	71	39.0	0.435	to_board	poldrack-single-stim	s607	False
0.1	377.87	0.54	378.41	0	PA_without_intermediate	test	ward_and_allport	89	39.0	0.54	to_hand	poldrack-single-stim	s607	False
0.1	378.411	0.698	379.109	0	PA_without_intermediate	test	ward_and_allport	82	39.0	0.698	to_board	poldrack-single-stim	s607	False
0.1	379.118	0.495	379.613	0	PA_without_intermediate	test	ward_and_allport	89	39.0	0.495	to_hand	poldrack-single-stim	s607	False
0.1	379.615	0.335	379.95	0	PA_without_intermediate	test	ward_and_allport	71	39.0	0.335	to_board	poldrack-single-stim	s607	False
1.0	379.963	2.408	379.962	0	PA_without_intermediate	test	ward_and_allport	-1	39.0	n/a	feedback	poldrack-single-stim	s607	False
1.786	382.381	1.786	384.167	1	PA_with_intermediate	test	ward_and_allport	82	40.0	1.786	to_hand	poldrack-single-stim	s607	False
0.1	384.168	0.418	384.586	0	PA_with_intermediate	test	ward_and_allport	71	40.0	0.418	to_board	poldrack-single-stim	s607	False
0.1	384.594	0.529	385.123	0	PA_with_intermediate	test	ward_and_allport	82	40.0	0.529	to_hand	poldrack-single-stim	s607	False
0.1	385.124	0.362	385.486	0	PA_with_intermediate	test	ward_and_allport	89	40.0	0.362	to_board	poldrack-single-stim	s607	False
0.1	385.492	0.668	386.16	0	PA_with_intermediate	test	ward_and_allport	71	40.0	0.668	to_hand	poldrack-single-stim	s607	False
0.1	386.161	0.46	386.621	0	PA_with_intermediate	test	ward_and_allport	82	40.0	0.46	to_board	poldrack-single-stim	s607	False
1.0	386.629	2.816	386.628	0	PA_with_intermediate	test	ward_and_allport	-1	40.0	n/a	feedback	poldrack-single-stim	s607	False
1.656	389.451	1.656	391.107	1	PA_without_intermediate	test	ward_and_allport	82	41.0	1.656	to_hand	poldrack-single-stim	s607	False
0.1	391.108	0.356	391.464	0	PA_without_intermediate	test	ward_and_allport	71	41.0	0.356	to_board	poldrack-single-stim	s607	False
0.1	391.47	0.618	392.088	0	PA_without_intermediate	test	ward_and_allport	82	41.0	0.618	to_hand	poldrack-single-stim	s607	False
0.1	392.089	0.618	392.707	0	PA_without_intermediate	test	ward_and_allport	89	41.0	0.618	to_board	poldrack-single-stim	s607	False
0.1	392.715	0.459	393.174	0	PA_without_intermediate	test	ward_and_allport	82	41.0	0.459	to_hand	poldrack-single-stim	s607	False
0.1	393.176	0.295	393.471	0	PA_without_intermediate	test	ward_and_allport	71	41.0	0.295	to_board	poldrack-single-stim	s607	False
1.0	393.482	3.088	393.481	0	PA_without_intermediate	test	ward_and_allport	-1	41.0	n/a	feedback	poldrack-single-stim	s607	False
1.227	396.578	1.227	397.805	1	PA_without_intermediate	test	ward_and_allport	82	42.0	1.227	to_hand	poldrack-single-stim	s607	False
0.1	397.806	0.286	398.092	0	PA_without_intermediate	test	ward_and_allport	71	42.0	0.286	to_board	poldrack-single-stim	s607	False
0.1	398.098	0.673	398.771	0	PA_without_intermediate	test	ward_and_allport	82	42.0	0.673	to_hand	poldrack-single-stim	s607	False
0.1	398.772	0.369	399.141	0	PA_without_intermediate	test	ward_and_allport	71	42.0	0.369	to_board	poldrack-single-stim	s607	False
0.1	399.148	0.461	399.609	0	PA_without_intermediate	test	ward_and_allport	82	42.0	0.461	to_hand	poldrack-single-stim	s607	False
0.1	399.609	0.451	400.06	0	PA_without_intermediate	test	ward_and_allport	89	42.0	0.451	to_board	poldrack-single-stim	s607	False
1.0	400.071	2.136	400.07	0	PA_without_intermediate	test	ward_and_allport	-1	42.0	n/a	feedback	poldrack-single-stim	s607	False
1.184	402.216	1.184	403.4	1	PA_without_intermediate	test	ward_and_allport	89	43.0	1.184	to_hand	poldrack-single-stim	s607	False
0.1	403.401	0.225	403.626	0	PA_without_intermediate	test	ward_and_allport	71	43.0	0.225	to_board	poldrack-single-stim	s607	False
0.1	403.631	0.516	404.147	0	PA_without_intermediate	test	ward_and_allport	89	43.0	0.516	to_hand	poldrack-single-stim	s607	False
0.1	404.149	0.413	404.562	0	PA_without_intermediate	test	ward_and_allport	71	43.0	0.413	to_board	poldrack-single-stim	s607	False
0.1	404.571	0.353	404.924	0	PA_without_intermediate	test	ward_and_allport	89	43.0	0.353	to_hand	poldrack-single-stim	s607	False
0.1	404.925	0.309	405.234	0	PA_without_intermediate	test	ward_and_allport	82	43.0	0.309	to_board	poldrack-single-stim	s607	False
1.0	405.242	7.168	405.241	0	PA_without_intermediate	test	ward_and_allport	-1	43.0	n/a	feedback	poldrack-single-stim	s607	False
1.319	412.418	1.319	413.737	1	PA_without_intermediate	test	ward_and_allport	71	44.0	1.319	to_hand	poldrack-single-stim	s607	False
0.1	413.737	0.477	414.214	0	PA_without_intermediate	test	ward_and_allport	89	44.0	0.477	to_board	poldrack-single-stim	s607	False
0.1	414.224	0.353	414.577	0	PA_without_intermediate	test	ward_and_allport	71	44.0	0.353	to_hand	poldrack-single-stim	s607	False
0.1	414.578	0.314	414.892	0	PA_without_intermediate	test	ward_and_allport	89	44.0	0.314	to_board	poldrack-single-stim	s607	False
0.1	414.902	0.446	415.348	0	PA_without_intermediate	test	ward_and_allport	71	44.0	0.446	to_hand	poldrack-single-stim	s607	False
0.1	415.349	0.37	415.719	0	PA_without_intermediate	test	ward_and_allport	82	44.0	0.37	to_board	poldrack-single-stim	s607	False
1.0	415.733	2.816	415.732	0	PA_without_intermediate	test	ward_and_allport	-1	44.0	n/a	feedback	poldrack-single-stim	s607	False
0.999	423.561	0.999	424.56	1	PA_with_intermediate	test	ward_and_allport	89	45.0	0.999	to_hand	poldrack-single-stim	s607	False
0.1	424.56	0.546	425.106	0	PA_with_intermediate	test	ward_and_allport	71	45.0	0.546	to_board	poldrack-single-stim	s607	False
0.1	425.123	0.578	425.701	0	PA_with_intermediate	test	ward_and_allport	89	45.0	0.578	to_hand	poldrack-single-stim	s607	False
0.1	425.702	0.329	426.031	0	PA_with_intermediate	test	ward_and_allport	82	45.0	0.329	to_board	poldrack-single-stim	s607	False
0.1	426.042	0.439	426.481	0	PA_with_intermediate	test	ward_and_allport	71	45.0	0.439	to_hand	poldrack-single-stim	s607	False
0.1	426.483	0.503	426.986	0	PA_with_intermediate	test	ward_and_allport	82	45.0	0.503	to_board	poldrack-single-stim	s607	False
1.0	426.999	2.952	426.998	0	PA_with_intermediate	test	ward_and_allport	-1	45.0	n/a	feedback	poldrack-single-stim	s607	False
1.44	429.959	1.44	431.399	1	PA_with_intermediate	test	ward_and_allport	71	46.0	1.44	to_hand	poldrack-single-stim	s607	False
0.1	431.401	0.76	432.161	0	PA_with_intermediate	test	ward_and_allport	82	46.0	0.76	to_board	poldrack-single-stim	s607	False
0.1	432.171	0.353	432.524	0	PA_with_intermediate	test	ward_and_allport	71	46.0	0.353	to_hand	poldrack-single-stim	s607	False
0.1	432.525	0.413	432.938	0	PA_with_intermediate	test	ward_and_allport	89	46.0	0.413	to_board	poldrack-single-stim	s607	False
0.1	432.948	0.775	433.723	0	PA_with_intermediate	test	ward_and_allport	82	46.0	0.775	to_hand	poldrack-single-stim	s607	False
0.1	433.724	0.399	434.123	0	PA_with_intermediate	test	ward_and_allport	89	46.0	0.399	to_board	poldrack-single-stim	s607	False
1.0	434.135	2.136	434.134	0	PA_with_intermediate	test	ward_and_allport	-1	46.0	n/a	feedback	poldrack-single-stim	s607	False
3.439	436.279	3.439	439.718	1	PA_without_intermediate	test	ward_and_allport	89	47.0	3.439	to_hand	poldrack-single-stim	s607	False
0.1	439.719	2.119	441.838	0	PA_without_intermediate	test	ward_and_allport	82	47.0	2.119	to_board	poldrack-single-stim	s607	False
0.1	441.846	0.772	442.618	0	PA_without_intermediate	test	ward_and_allport	89	47.0	0.772	to_hand	poldrack-single-stim	s607	False
0.1	442.619	0.751	443.37	0	PA_without_intermediate	test	ward_and_allport	82	47.0	0.751	to_board	poldrack-single-stim	s607	False
0.1	443.378	0.695	444.073	0	PA_without_intermediate	test	ward_and_allport	89	47.0	0.695	to_hand	poldrack-single-stim	s607	False
0.1	444.075	0.353	444.428	0	PA_without_intermediate	test	ward_and_allport	71	47.0	0.353	to_board	poldrack-single-stim	s607	False
1.0	444.439	2.68	444.438	0	PA_without_intermediate	test	ward_and_allport	-1	47.0	n/a	feedback	poldrack-single-stim	s607	False
