onset	duration	movement_onset	block_duration	condition	correct	correct_response	experiment_exp_id	key_press	response_time	trial_id	trial_type	worker_id	junk
3.013	0.5	3.012	0.5	BY	n/a	n/a	dot_pattern_expectancy	-1.0	n/a	cue	BY	s607	False
5.517	0.5	5.881	1.636	BY	1.0	71.0	dot_pattern_expectancy	71.0	0.364	probe	BY	s607	False
7.157	0.5	7.156	0.5	AY	n/a	n/a	dot_pattern_expectancy	-1.0	n/a	cue	AY	s607	False
9.664	0.5	10.361	1.5	AY	1.0	71.0	dot_pattern_expectancy	71.0	0.697	probe	AY	s607	False
11.166	0.5	11.165	0.5	AX	n/a	n/a	dot_pattern_expectancy	-1.0	n/a	cue	AX	s607	False
13.675	0.5	14.063	2.044	AX	1.0	89.0	dot_pattern_expectancy	89.0	0.388	probe	AX	s607	False
15.72	0.5	15.719	0.5	BY	n/a	n/a	dot_pattern_expectancy	-1.0	n/a	cue	BY	s607	False
18.229	0.5	18.605	1.772	BY	1.0	71.0	dot_pattern_expectancy	71.0	0.376	probe	BY	s607	False
20.003	0.5	20.002	0.5	BX	n/a	n/a	dot_pattern_expectancy	-1.0	n/a	cue	BX	s607	False
22.51	0.5	22.865	1.636	BX	1.0	71.0	dot_pattern_expectancy	71.0	0.355	probe	BX	s607	False
24.151	0.5	24.15	0.5	AX	n/a	n/a	dot_pattern_expectancy	-1.0	n/a	cue	AX	s607	False
26.659	0.5	27.092	1.636	AX	1.0	89.0	dot_pattern_expectancy	89.0	0.433	probe	AX	s607	False
28.296	0.5	28.295	0.5	AX	n/a	n/a	dot_pattern_expectancy	-1.0	n/a	cue	AX	s607	False
30.805	0.5	31.228	1.5	AX	1.0	89.0	dot_pattern_expectancy	89.0	0.423	probe	AX	s607	False
32.307	0.5	32.306	0.5	AX	n/a	n/a	dot_pattern_expectancy	-1.0	n/a	cue	AX	s607	False
34.818	0.5	35.342	1.5	AX	1.0	89.0	dot_pattern_expectancy	89.0	0.524	probe	AX	s607	False
36.323	0.5	36.322	0.5	AY	n/a	n/a	dot_pattern_expectancy	-1.0	n/a	cue	AY	s607	False
38.832	0.5	39.492	2.044	AY	1.0	71.0	dot_pattern_expectancy	71.0	0.66	probe	AY	s607	False
40.878	0.5	40.877	0.5	AX	n/a	n/a	dot_pattern_expectancy	-1.0	n/a	cue	AX	s607	False
43.384	0.5	43.722	2.452	AX	1.0	89.0	dot_pattern_expectancy	89.0	0.338	probe	AX	s607	False
45.843	0.5	45.842	0.5	AX	n/a	n/a	dot_pattern_expectancy	-1.0	n/a	cue	AX	s607	False
48.349	0.5	48.854	1.908	AX	1.0	89.0	dot_pattern_expectancy	89.0	0.505	probe	AX	s607	False
50.259	0.5	50.258	0.5	AX	n/a	n/a	dot_pattern_expectancy	-1.0	n/a	cue	AX	s607	False
52.77	0.5	53.318	1.5	AX	1.0	89.0	dot_pattern_expectancy	89.0	0.548	probe	AX	s607	False
54.274	0.5	54.273	0.5	AX	n/a	n/a	dot_pattern_expectancy	-1.0	n/a	cue	AX	s607	False
56.781	0.5	57.299	1.908	AX	1.0	89.0	dot_pattern_expectancy	89.0	0.518	probe	AX	s607	False
58.691	0.5	58.69	0.5	BX	n/a	n/a	dot_pattern_expectancy	-1.0	n/a	cue	BX	s607	False
61.197	0.5	61.55	2.18	BX	1.0	71.0	dot_pattern_expectancy	71.0	0.353	probe	BX	s607	False
63.379	0.5	63.378	0.5	AX	n/a	n/a	dot_pattern_expectancy	-1.0	n/a	cue	AX	s607	False
65.89	0.5	66.328	1.5	AX	1.0	89.0	dot_pattern_expectancy	89.0	0.438	probe	AX	s607	False
67.395	0.5	67.394	0.5	BY	n/a	n/a	dot_pattern_expectancy	-1.0	n/a	cue	BY	s607	False
69.905	0.5	70.211	1.908	BY	1.0	71.0	dot_pattern_expectancy	71.0	0.306	probe	BY	s607	False
71.816	0.5	71.815	0.5	BX	n/a	n/a	dot_pattern_expectancy	-1.0	n/a	cue	BX	s607	False
74.325	0.5	74.748	2.316	BX	1.0	71.0	dot_pattern_expectancy	71.0	0.423	probe	BX	s607	False
76.645	0.5	76.644	0.5	AY	n/a	n/a	dot_pattern_expectancy	-1.0	n/a	cue	AY	s607	False
79.152	0.5	79.727	2.316	AY	1.0	71.0	dot_pattern_expectancy	71.0	0.575	probe	AY	s607	False
81.47	0.5	81.469	0.5	BX	n/a	n/a	dot_pattern_expectancy	-1.0	n/a	cue	BX	s607	False
83.978	0.5	84.675	1.636	BX	1.0	71.0	dot_pattern_expectancy	71.0	0.697	probe	BX	s607	False
85.616	0.5	85.615	0.5	AY	n/a	n/a	dot_pattern_expectancy	-1.0	n/a	cue	AY	s607	False
88.123	0.5	88.72	1.5	AY	1.0	71.0	dot_pattern_expectancy	71.0	0.597	probe	AY	s607	False
89.624	0.5	89.623	0.5	BY	n/a	n/a	dot_pattern_expectancy	-1.0	n/a	cue	BY	s607	False
92.135	0.5	92.517	1.908	BY	1.0	71.0	dot_pattern_expectancy	71.0	0.382	probe	BY	s607	False
94.046	0.5	94.045	0.5	AX	n/a	n/a	dot_pattern_expectancy	-1.0	n/a	cue	AX	s607	False
96.555	0.5	96.942	1.5	AX	1.0	89.0	dot_pattern_expectancy	89.0	0.387	probe	AX	s607	False
98.058	0.5	98.057	0.5	AY	n/a	n/a	dot_pattern_expectancy	-1.0	n/a	cue	AY	s607	False
100.565	0.5	101.141	2.316	AY	1.0	71.0	dot_pattern_expectancy	71.0	0.576	probe	AY	s607	False
102.883	0.5	102.882	0.5	AX	n/a	n/a	dot_pattern_expectancy	-1.0	n/a	cue	AX	s607	False
105.394	0.5	105.846	1.5	AX	1.0	89.0	dot_pattern_expectancy	89.0	0.452	probe	AX	s607	False
106.899	0.5	106.898	0.5	AY	n/a	n/a	dot_pattern_expectancy	-1.0	n/a	cue	AY	s607	False
109.405	0.5	109.896	2.724	AY	1.0	71.0	dot_pattern_expectancy	71.0	0.491	probe	AY	s607	False
112.131	0.5	112.13	0.5	AX	n/a	n/a	dot_pattern_expectancy	-1.0	n/a	cue	AX	s607	False
114.64	0.5	115.097	1.5	AX	1.0	89.0	dot_pattern_expectancy	89.0	0.457	probe	AX	s607	False
116.142	0.5	116.141	0.5	AX	n/a	n/a	dot_pattern_expectancy	-1.0	n/a	cue	AX	s607	False
118.648	0.5	119.04	1.636	AX	1.0	89.0	dot_pattern_expectancy	89.0	0.392	probe	AX	s607	False
120.285	0.5	120.284	0.5	AX	n/a	n/a	dot_pattern_expectancy	-1.0	n/a	cue	AX	s607	False
122.792	0.5	123.286	1.636	AX	1.0	89.0	dot_pattern_expectancy	89.0	0.494	probe	AX	s607	False
124.429	0.5	124.428	0.5	AX	n/a	n/a	dot_pattern_expectancy	-1.0	n/a	cue	AX	s607	False
126.939	0.5	127.345	1.772	AX	1.0	89.0	dot_pattern_expectancy	89.0	0.406	probe	AX	s607	False
128.714	0.5	128.713	0.5	BY	n/a	n/a	dot_pattern_expectancy	-1.0	n/a	cue	BY	s607	False
131.221	0.5	131.625	1.772	BY	1.0	71.0	dot_pattern_expectancy	71.0	0.404	probe	BY	s607	False
132.995	0.5	132.994	0.5	AX	n/a	n/a	dot_pattern_expectancy	-1.0	n/a	cue	AX	s607	False
135.504	0.5	135.948	1.5	AX	1.0	89.0	dot_pattern_expectancy	89.0	0.444	probe	AX	s607	False
137.005	0.5	137.004	0.5	BY	n/a	n/a	dot_pattern_expectancy	-1.0	n/a	cue	BY	s607	False
139.512	0.5	139.965	2.452	BY	1.0	71.0	dot_pattern_expectancy	71.0	0.453	probe	BY	s607	False
141.965	0.5	141.964	0.5	AX	n/a	n/a	dot_pattern_expectancy	-1.0	n/a	cue	AX	s607	False
144.472	0.5	144.943	1.636	AX	1.0	89.0	dot_pattern_expectancy	89.0	0.471	probe	AX	s607	False
146.109	0.5	146.108	0.5	AX	n/a	n/a	dot_pattern_expectancy	-1.0	n/a	cue	AX	s607	False
148.616	0.5	149.005	1.636	AX	1.0	89.0	dot_pattern_expectancy	89.0	0.389	probe	AX	s607	False
150.255	0.5	150.254	0.5	BX	n/a	n/a	dot_pattern_expectancy	-1.0	n/a	cue	BX	s607	False
152.759	0.5	153.06	1.5	BX	1.0	71.0	dot_pattern_expectancy	71.0	0.301	probe	BX	s607	False
154.264	0.5	154.263	0.5	BX	n/a	n/a	dot_pattern_expectancy	-1.0	n/a	cue	BX	s607	False
156.773	0.5	157.112	1.5	BX	1.0	71.0	dot_pattern_expectancy	71.0	0.339	probe	BX	s607	False
158.276	0.5	158.275	0.5	AX	n/a	n/a	dot_pattern_expectancy	-1.0	n/a	cue	AX	s607	False
160.784	0.5	161.195	2.316	AX	1.0	89.0	dot_pattern_expectancy	89.0	0.411	probe	AX	s607	False
163.101	0.5	163.1	0.5	AY	n/a	n/a	dot_pattern_expectancy	-1.0	n/a	cue	AY	s607	False
165.612	0.5	166.195	2.044	AY	1.0	71.0	dot_pattern_expectancy	71.0	0.583	probe	AY	s607	False
167.658	0.5	167.657	0.5	AX	n/a	n/a	dot_pattern_expectancy	-1.0	n/a	cue	AX	s607	False
170.165	0.5	170.623	3.948	AX	1.0	89.0	dot_pattern_expectancy	89.0	0.458	probe	AX	s607	False
174.115	0.5	174.114	0.5	AX	n/a	n/a	dot_pattern_expectancy	-1.0	n/a	cue	AX	s607	False
176.621	0.5	177.054	1.636	AX	1.0	89.0	dot_pattern_expectancy	89.0	0.433	probe	AX	s607	False
188.773	0.5	188.772	0.5	AY	n/a	n/a	dot_pattern_expectancy	-1.0	n/a	cue	AY	s607	False
191.277	0.5	191.716	1.636	AY	1.0	71.0	dot_pattern_expectancy	71.0	0.439	probe	AY	s607	False
192.915	0.5	192.914	0.5	AX	n/a	n/a	dot_pattern_expectancy	-1.0	n/a	cue	AX	s607	False
195.421	0.5	195.768	1.636	AX	1.0	89.0	dot_pattern_expectancy	89.0	0.347	probe	AX	s607	False
197.059	0.5	197.058	0.5	AX	n/a	n/a	dot_pattern_expectancy	-1.0	n/a	cue	AX	s607	False
199.57	0.5	200.043	1.5	AX	1.0	89.0	dot_pattern_expectancy	89.0	0.473	probe	AX	s607	False
201.075	0.5	201.074	0.5	AX	n/a	n/a	dot_pattern_expectancy	-1.0	n/a	cue	AX	s607	False
203.586	0.5	204.148	1.5	AX	1.0	89.0	dot_pattern_expectancy	89.0	0.562	probe	AX	s607	False
205.091	0.5	205.09	0.5	AX	n/a	n/a	dot_pattern_expectancy	-1.0	n/a	cue	AX	s607	False
207.597	0.5	208.102	1.908	AX	1.0	89.0	dot_pattern_expectancy	89.0	0.505	probe	AX	s607	False
209.507	0.5	209.506	0.5	BX	n/a	n/a	dot_pattern_expectancy	-1.0	n/a	cue	BX	s607	False
212.016	0.5	212.491	1.636	BX	1.0	71.0	dot_pattern_expectancy	71.0	0.475	probe	BX	s607	False
213.656	0.5	213.655	0.5	AX	n/a	n/a	dot_pattern_expectancy	-1.0	n/a	cue	AX	s607	False
216.165	0.5	216.698	2.044	AX	1.0	89.0	dot_pattern_expectancy	89.0	0.533	probe	AX	s607	False
218.211	0.5	218.21	0.5	AX	n/a	n/a	dot_pattern_expectancy	-1.0	n/a	cue	AX	s607	False
220.72	0.5	221.131	1.772	AX	1.0	89.0	dot_pattern_expectancy	89.0	0.411	probe	AX	s607	False
222.493	0.5	222.492	0.5	AX	n/a	n/a	dot_pattern_expectancy	-1.0	n/a	cue	AX	s607	False
225.004	0.5	225.632	1.5	AX	1.0	89.0	dot_pattern_expectancy	89.0	0.628	probe	AX	s607	False
226.509	0.5	226.508	0.5	AX	n/a	n/a	dot_pattern_expectancy	-1.0	n/a	cue	AX	s607	False
229.016	0.5	229.502	2.18	AX	1.0	89.0	dot_pattern_expectancy	89.0	0.486	probe	AX	s607	False
231.197	0.5	231.196	0.5	AX	n/a	n/a	dot_pattern_expectancy	-1.0	n/a	cue	AX	s607	False
233.709	0.5	234.174	1.5	AX	1.0	89.0	dot_pattern_expectancy	89.0	0.465	probe	AX	s607	False
235.213	0.5	235.212	0.5	BX	n/a	n/a	dot_pattern_expectancy	-1.0	n/a	cue	BX	s607	False
237.721	0.5	238.13	3.676	BX	1.0	71.0	dot_pattern_expectancy	71.0	0.409	probe	BX	s607	False
241.4	0.5	241.399	0.5	BY	n/a	n/a	dot_pattern_expectancy	-1.0	n/a	cue	BY	s607	False
243.907	0.5	244.328	1.636	BY	1.0	71.0	dot_pattern_expectancy	71.0	0.421	probe	BY	s607	False
245.544	0.5	245.543	0.5	BY	n/a	n/a	dot_pattern_expectancy	-1.0	n/a	cue	BY	s607	False
248.051	0.5	248.608	1.636	BY	1.0	71.0	dot_pattern_expectancy	71.0	0.557	probe	BY	s607	False
249.688	0.5	249.687	0.5	BX	n/a	n/a	dot_pattern_expectancy	-1.0	n/a	cue	BX	s607	False
252.199	0.5	252.494	1.5	BX	1.0	71.0	dot_pattern_expectancy	71.0	0.295	probe	BX	s607	False
253.704	0.5	253.703	0.5	AX	n/a	n/a	dot_pattern_expectancy	-1.0	n/a	cue	AX	s607	False
256.211	0.5	256.571	1.908	AX	1.0	89.0	dot_pattern_expectancy	89.0	0.36	probe	AX	s607	False
258.121	0.5	258.12	0.5	AX	n/a	n/a	dot_pattern_expectancy	-1.0	n/a	cue	AX	s607	False
260.627	0.5	261.023	1.636	AX	1.0	89.0	dot_pattern_expectancy	89.0	0.396	probe	AX	s607	False
262.264	0.5	262.263	0.5	BX	n/a	n/a	dot_pattern_expectancy	-1.0	n/a	cue	BX	s607	False
264.773	0.5	265.124	1.5	BX	1.0	71.0	dot_pattern_expectancy	71.0	0.351	probe	BX	s607	False
266.275	0.5	266.274	0.5	AX	n/a	n/a	dot_pattern_expectancy	-1.0	n/a	cue	AX	s607	False
268.781	0.5	269.249	1.908	AX	1.0	89.0	dot_pattern_expectancy	89.0	0.468	probe	AX	s607	False
270.691	0.5	270.69	0.5	BY	n/a	n/a	dot_pattern_expectancy	-1.0	n/a	cue	BY	s607	False
273.197	0.5	273.686	2.18	BY	1.0	71.0	dot_pattern_expectancy	71.0	0.489	probe	BY	s607	False
275.379	0.5	275.378	0.5	AX	n/a	n/a	dot_pattern_expectancy	-1.0	n/a	cue	AX	s607	False
277.884	0.5	278.233	1.772	AX	1.0	89.0	dot_pattern_expectancy	89.0	0.349	probe	AX	s607	False
279.66	0.5	279.659	0.5	AX	n/a	n/a	dot_pattern_expectancy	-1.0	n/a	cue	AX	s607	False
282.166	0.5	282.609	1.5	AX	1.0	89.0	dot_pattern_expectancy	89.0	0.443	probe	AX	s607	False
283.672	0.5	283.671	0.5	AX	n/a	n/a	dot_pattern_expectancy	-1.0	n/a	cue	AX	s607	False
286.183	0.5	286.658	1.5	AX	1.0	89.0	dot_pattern_expectancy	89.0	0.475	probe	AX	s607	False
287.688	0.5	287.687	0.5	AX	n/a	n/a	dot_pattern_expectancy	-1.0	n/a	cue	AX	s607	False
290.197	0.5	290.701	2.044	AX	1.0	89.0	dot_pattern_expectancy	89.0	0.504	probe	AX	s607	False
292.243	0.5	292.242	0.5	AX	n/a	n/a	dot_pattern_expectancy	-1.0	n/a	cue	AX	s607	False
294.752	0.5	295.364	2.86	AX	1.0	89.0	dot_pattern_expectancy	89.0	0.612	probe	AX	s607	False
297.613	0.5	297.612	0.5	BX	n/a	n/a	dot_pattern_expectancy	-1.0	n/a	cue	BX	s607	False
300.125	0.5	300.763	1.5	BX	1.0	71.0	dot_pattern_expectancy	71.0	0.638	probe	BX	s607	False
301.629	0.5	301.628	0.5	BY	n/a	n/a	dot_pattern_expectancy	-1.0	n/a	cue	BY	s607	False
304.134	0.5	304.582	1.772	BY	1.0	71.0	dot_pattern_expectancy	71.0	0.448	probe	BY	s607	False
305.912	0.5	305.911	0.5	AX	n/a	n/a	dot_pattern_expectancy	-1.0	n/a	cue	AX	s607	False
308.423	0.5	308.862	1.772	AX	0.0	89.0	dot_pattern_expectancy	71.0	0.439	probe	AX	s607	False
310.2	0.5	310.199	0.5	AX	n/a	n/a	dot_pattern_expectancy	-1.0	n/a	cue	AX	s607	False
312.709	0.5	313.118	2.86	AX	1.0	89.0	dot_pattern_expectancy	89.0	0.409	probe	AX	s607	False
315.571	0.5	315.57	0.5	AX	n/a	n/a	dot_pattern_expectancy	-1.0	n/a	cue	AX	s607	False
318.08	0.5	318.462	1.772	AX	1.0	89.0	dot_pattern_expectancy	89.0	0.382	probe	AX	s607	False
319.854	0.5	319.853	0.5	BX	n/a	n/a	dot_pattern_expectancy	-1.0	n/a	cue	BX	s607	False
322.365	0.5	322.697	1.636	BX	1.0	71.0	dot_pattern_expectancy	71.0	0.332	probe	BX	s607	False
324.003	0.5	324.002	0.5	BX	n/a	n/a	dot_pattern_expectancy	-1.0	n/a	cue	BX	s607	False
326.513	0.5	326.974	2.452	BX	1.0	71.0	dot_pattern_expectancy	71.0	0.461	probe	BX	s607	False
328.968	0.5	328.967	0.5	AX	n/a	n/a	dot_pattern_expectancy	-1.0	n/a	cue	AX	s607	False
331.475	0.5	332.087	1.636	AX	1.0	89.0	dot_pattern_expectancy	89.0	0.612	probe	AX	s607	False
333.112	0.5	333.111	0.5	BX	n/a	n/a	dot_pattern_expectancy	-1.0	n/a	cue	BX	s607	False
335.623	0.5	336.609	1.5	BX	1.0	71.0	dot_pattern_expectancy	71.0	0.986	probe	BX	s607	False
337.128	0.5	337.127	0.5	AX	n/a	n/a	dot_pattern_expectancy	-1.0	n/a	cue	AX	s607	False
339.635	0.5	340.03	1.636	AX	1.0	89.0	dot_pattern_expectancy	89.0	0.395	probe	AX	s607	False
341.273	0.5	341.272	0.5	AX	n/a	n/a	dot_pattern_expectancy	-1.0	n/a	cue	AX	s607	False
343.779	0.5	344.192	1.636	AX	1.0	89.0	dot_pattern_expectancy	89.0	0.413	probe	AX	s607	False
345.416	0.5	345.415	0.5	BY	n/a	n/a	dot_pattern_expectancy	-1.0	n/a	cue	BY	s607	False
347.923	0.5	348.213	2.18	BY	1.0	71.0	dot_pattern_expectancy	71.0	0.29	probe	BY	s607	False
350.104	0.5	350.103	0.5	AX	n/a	n/a	dot_pattern_expectancy	-1.0	n/a	cue	AX	s607	False
352.611	0.5	353.015	1.5	AX	1.0	89.0	dot_pattern_expectancy	89.0	0.404	probe	AX	s607	False
354.117	0.5	354.116	0.5	AY	n/a	n/a	dot_pattern_expectancy	-1.0	n/a	cue	AY	s607	False
356.621	0.5	357.035	1.636	AY	0.0	71.0	dot_pattern_expectancy	89.0	0.414	probe	AY	s607	False
358.259	0.5	358.258	0.5	AX	n/a	n/a	dot_pattern_expectancy	-1.0	n/a	cue	AX	s607	False
360.765	0.5	361.301	1.636	AX	1.0	89.0	dot_pattern_expectancy	89.0	0.536	probe	AX	s607	False
372.917	0.5	372.916	0.5	AX	n/a	n/a	dot_pattern_expectancy	-1.0	n/a	cue	AX	s607	False
375.421	0.5	375.859	2.18	AX	1.0	89.0	dot_pattern_expectancy	89.0	0.438	probe	AX	s607	False
377.603	0.5	377.602	0.5	AY	n/a	n/a	dot_pattern_expectancy	-1.0	n/a	cue	AY	s607	False
380.107	0.5	380.566	2.316	AY	1.0	71.0	dot_pattern_expectancy	71.0	0.459	probe	AY	s607	False
382.424	0.5	382.423	0.5	AY	n/a	n/a	dot_pattern_expectancy	-1.0	n/a	cue	AY	s607	False
384.935	0.5	385.546	1.636	AY	1.0	71.0	dot_pattern_expectancy	71.0	0.611	probe	AY	s607	False
386.573	0.5	386.572	0.5	BX	n/a	n/a	dot_pattern_expectancy	-1.0	n/a	cue	BX	s607	False
389.079	0.5	389.545	1.908	BX	1.0	71.0	dot_pattern_expectancy	71.0	0.466	probe	BX	s607	False
390.99	0.5	390.989	0.5	AX	n/a	n/a	dot_pattern_expectancy	-1.0	n/a	cue	AX	s607	False
393.496	0.5	394.116	3.54	AX	1.0	89.0	dot_pattern_expectancy	89.0	0.62	probe	AX	s607	False
397.037	0.5	397.036	0.5	BX	n/a	n/a	dot_pattern_expectancy	-1.0	n/a	cue	BX	s607	False
399.544	0.5	399.98	1.636	BX	1.0	71.0	dot_pattern_expectancy	71.0	0.436	probe	BX	s607	False
401.181	0.5	401.18	0.5	BY	n/a	n/a	dot_pattern_expectancy	-1.0	n/a	cue	BY	s607	False
403.692	0.5	404.256	1.5	BY	1.0	71.0	dot_pattern_expectancy	71.0	0.564	probe	BY	s607	False
405.198	0.5	405.197	0.5	AX	n/a	n/a	dot_pattern_expectancy	-1.0	n/a	cue	AX	s607	False
407.708	0.5	408.181	1.5	AX	1.0	89.0	dot_pattern_expectancy	89.0	0.473	probe	AX	s607	False
409.213	0.5	409.212	0.5	AX	n/a	n/a	dot_pattern_expectancy	-1.0	n/a	cue	AX	s607	False
411.723	0.5	412.116	1.772	AX	1.0	89.0	dot_pattern_expectancy	89.0	0.393	probe	AX	s607	False
413.496	0.5	413.495	0.5	BY	n/a	n/a	dot_pattern_expectancy	-1.0	n/a	cue	BY	s607	False
416.007	0.5	416.341	2.452	BY	1.0	71.0	dot_pattern_expectancy	71.0	0.334	probe	BY	s607	False
418.462	0.5	418.461	0.5	AX	n/a	n/a	dot_pattern_expectancy	-1.0	n/a	cue	AX	s607	False
420.968	0.5	421.604	1.908	AX	1.0	89.0	dot_pattern_expectancy	89.0	0.636	probe	AX	s607	False
422.877	0.5	422.876	0.5	BX	n/a	n/a	dot_pattern_expectancy	-1.0	n/a	cue	BX	s607	False
425.384	0.5	425.383	1.636	BX	0.0	71.0	dot_pattern_expectancy	-1.0	n/a	probe	BX	s607	False
427.022	0.5	427.021	0.5	AX	n/a	n/a	dot_pattern_expectancy	-1.0	n/a	cue	AX	s607	False
429.532	0.5	429.923	1.5	AX	1.0	89.0	dot_pattern_expectancy	89.0	0.391	probe	AX	s607	False
431.037	0.5	431.036	0.5	AX	n/a	n/a	dot_pattern_expectancy	-1.0	n/a	cue	AX	s607	False
433.544	0.5	433.961	1.636	AX	1.0	89.0	dot_pattern_expectancy	89.0	0.417	probe	AX	s607	False
435.182	0.5	435.181	0.5	AX	n/a	n/a	dot_pattern_expectancy	-1.0	n/a	cue	AX	s607	False
437.69	0.5	438.015	1.636	AX	1.0	89.0	dot_pattern_expectancy	89.0	0.325	probe	AX	s607	False
439.331	0.5	439.33	0.5	BY	n/a	n/a	dot_pattern_expectancy	-1.0	n/a	cue	BY	s607	False
441.837	0.5	442.157	2.452	BY	1.0	71.0	dot_pattern_expectancy	71.0	0.32	probe	BY	s607	False
444.295	0.5	444.294	0.5	AX	n/a	n/a	dot_pattern_expectancy	-1.0	n/a	cue	AX	s607	False
446.802	0.5	447.129	1.5	AX	1.0	89.0	dot_pattern_expectancy	89.0	0.327	probe	AX	s607	False
448.303	0.5	448.302	0.5	BY	n/a	n/a	dot_pattern_expectancy	-1.0	n/a	cue	BY	s607	False
450.811	0.5	451.157	1.5	BY	1.0	71.0	dot_pattern_expectancy	71.0	0.346	probe	BY	s607	False
452.312	0.5	452.311	0.5	AX	n/a	n/a	dot_pattern_expectancy	-1.0	n/a	cue	AX	s607	False
454.819	0.5	455.184	1.636	AX	1.0	89.0	dot_pattern_expectancy	89.0	0.365	probe	AX	s607	False
456.456	0.5	456.455	0.5	AX	n/a	n/a	dot_pattern_expectancy	-1.0	n/a	cue	AX	s607	False
458.963	0.5	459.292	1.636	AX	1.0	89.0	dot_pattern_expectancy	89.0	0.329	probe	AX	s607	False
460.604	0.5	460.603	0.5	AY	n/a	n/a	dot_pattern_expectancy	-1.0	n/a	cue	AY	s607	False
463.107	0.5	463.498	1.636	AY	0.0	71.0	dot_pattern_expectancy	89.0	0.391	probe	AY	s607	False
464.746	0.5	464.745	0.5	AX	n/a	n/a	dot_pattern_expectancy	-1.0	n/a	cue	AX	s607	False
467.253	0.5	467.638	1.5	AX	1.0	89.0	dot_pattern_expectancy	89.0	0.385	probe	AX	s607	False
468.755	0.5	468.754	0.5	AX	n/a	n/a	dot_pattern_expectancy	-1.0	n/a	cue	AX	s607	False
471.264	0.5	471.76	1.5	AX	1.0	89.0	dot_pattern_expectancy	89.0	0.496	probe	AX	s607	False
472.765	0.5	472.764	0.5	AX	n/a	n/a	dot_pattern_expectancy	-1.0	n/a	cue	AX	s607	False
475.276	0.5	475.706	1.772	AX	1.0	89.0	dot_pattern_expectancy	89.0	0.43	probe	AX	s607	False
477.053	0.5	477.052	0.5	AX	n/a	n/a	dot_pattern_expectancy	-1.0	n/a	cue	AX	s607	False
479.56	0.5	479.989	2.18	AX	1.0	89.0	dot_pattern_expectancy	89.0	0.429	probe	AX	s607	False
481.741	0.5	481.74	0.5	BX	n/a	n/a	dot_pattern_expectancy	-1.0	n/a	cue	BX	s607	False
484.251	0.5	484.586	1.772	BX	1.0	71.0	dot_pattern_expectancy	71.0	0.335	probe	BX	s607	False
486.024	0.5	486.023	0.5	BY	n/a	n/a	dot_pattern_expectancy	-1.0	n/a	cue	BY	s607	False
488.534	0.5	488.948	1.5	BY	1.0	71.0	dot_pattern_expectancy	71.0	0.414	probe	BY	s607	False
490.04	0.5	490.039	0.5	AX	n/a	n/a	dot_pattern_expectancy	-1.0	n/a	cue	AX	s607	False
492.549	0.5	493.127	1.5	AX	1.0	89.0	dot_pattern_expectancy	89.0	0.578	probe	AX	s607	False
494.051	0.5	494.05	0.5	AX	n/a	n/a	dot_pattern_expectancy	-1.0	n/a	cue	AX	s607	False
496.563	0.5	496.914	1.636	AX	1.0	89.0	dot_pattern_expectancy	89.0	0.351	probe	AX	s607	False
498.2	0.5	498.199	0.5	AY	n/a	n/a	dot_pattern_expectancy	-1.0	n/a	cue	AY	s607	False
500.707	0.5	501.326	2.18	AY	1.0	71.0	dot_pattern_expectancy	71.0	0.619	probe	AY	s607	False
502.892	0.5	502.891	0.5	AY	n/a	n/a	dot_pattern_expectancy	-1.0	n/a	cue	AY	s607	False
505.399	0.5	505.903	2.316	AY	1.0	71.0	dot_pattern_expectancy	71.0	0.504	probe	AY	s607	False
507.719	0.5	507.718	0.5	BX	n/a	n/a	dot_pattern_expectancy	-1.0	n/a	cue	BX	s607	False
510.227	0.5	510.541	1.636	BX	1.0	71.0	dot_pattern_expectancy	71.0	0.314	probe	BX	s607	False
511.864	0.5	511.863	0.5	BX	n/a	n/a	dot_pattern_expectancy	-1.0	n/a	cue	BX	s607	False
514.37	0.5	514.709	2.18	BX	1.0	71.0	dot_pattern_expectancy	71.0	0.339	probe	BX	s607	False
516.552	0.5	516.551	0.5	AY	n/a	n/a	dot_pattern_expectancy	-1.0	n/a	cue	AY	s607	False
519.061	0.5	519.81	2.044	AY	1.0	71.0	dot_pattern_expectancy	71.0	0.749	probe	AY	s607	False
521.107	0.5	521.106	0.5	AX	n/a	n/a	dot_pattern_expectancy	-1.0	n/a	cue	AX	s607	False
523.616	0.5	524.074	1.772	AX	1.0	89.0	dot_pattern_expectancy	89.0	0.458	probe	AX	s607	False
525.389	0.5	525.388	0.5	AX	n/a	n/a	dot_pattern_expectancy	-1.0	n/a	cue	AX	s607	False
527.899	0.5	528.404	1.5	AX	1.0	89.0	dot_pattern_expectancy	89.0	0.505	probe	AX	s607	False
529.4	0.5	529.399	0.5	AX	n/a	n/a	dot_pattern_expectancy	-1.0	n/a	cue	AX	s607	False
531.909	0.5	532.352	2.18	AX	1.0	89.0	dot_pattern_expectancy	89.0	0.443	probe	AX	s607	False
534.094	0.5	534.093	0.5	AY	n/a	n/a	dot_pattern_expectancy	-1.0	n/a	cue	AY	s607	False
536.6	0.5	537.122	2.452	AY	1.0	71.0	dot_pattern_expectancy	71.0	0.522	probe	AY	s607	False
539.053	0.5	539.052	0.5	AX	n/a	n/a	dot_pattern_expectancy	-1.0	n/a	cue	AX	s607	False
541.563	0.5	542.216	1.636	AX	1.0	89.0	dot_pattern_expectancy	89.0	0.653	probe	AX	s607	False
543.203	0.5	543.202	0.5	AX	n/a	n/a	dot_pattern_expectancy	-1.0	n/a	cue	AX	s607	False
545.709	0.5	546.296	1.908	AX	1.0	89.0	dot_pattern_expectancy	89.0	0.587	probe	AX	s607	False
558.135	0.5	558.134	0.5	AX	n/a	n/a	dot_pattern_expectancy	-1.0	n/a	cue	AX	s607	False
560.645	0.5	561.07	1.772	AX	1.0	89.0	dot_pattern_expectancy	89.0	0.425	probe	AX	s607	False
562.419	0.5	562.418	0.5	AX	n/a	n/a	dot_pattern_expectancy	-1.0	n/a	cue	AX	s607	False
564.927	0.5	565.322	1.5	AX	1.0	89.0	dot_pattern_expectancy	89.0	0.395	probe	AX	s607	False
566.429	0.5	566.428	0.5	AY	n/a	n/a	dot_pattern_expectancy	-1.0	n/a	cue	AY	s607	False
568.936	0.5	569.423	2.452	AY	1.0	71.0	dot_pattern_expectancy	71.0	0.487	probe	AY	s607	False
571.394	0.5	571.393	0.5	AY	n/a	n/a	dot_pattern_expectancy	-1.0	n/a	cue	AY	s607	False
573.899	0.5	574.434	1.772	AY	1.0	71.0	dot_pattern_expectancy	71.0	0.535	probe	AY	s607	False
575.676	0.5	575.675	0.5	AX	n/a	n/a	dot_pattern_expectancy	-1.0	n/a	cue	AX	s607	False
578.179	0.5	578.557	1.908	AX	1.0	89.0	dot_pattern_expectancy	89.0	0.378	probe	AX	s607	False
580.088	0.5	580.087	0.5	AX	n/a	n/a	dot_pattern_expectancy	-1.0	n/a	cue	AX	s607	False
582.595	0.5	583.15	1.908	AX	1.0	89.0	dot_pattern_expectancy	89.0	0.555	probe	AX	s607	False
584.504	0.5	584.503	0.5	AX	n/a	n/a	dot_pattern_expectancy	-1.0	n/a	cue	AX	s607	False
587.013	0.5	587.471	2.588	AX	1.0	89.0	dot_pattern_expectancy	89.0	0.458	probe	AX	s607	False
589.603	0.5	589.602	0.5	AY	n/a	n/a	dot_pattern_expectancy	-1.0	n/a	cue	AY	s607	False
592.114	0.5	592.53	1.5	AY	1.0	71.0	dot_pattern_expectancy	71.0	0.416	probe	AY	s607	False
593.616	0.5	593.615	0.5	BY	n/a	n/a	dot_pattern_expectancy	-1.0	n/a	cue	BY	s607	False
596.123	0.5	596.56	1.5	BY	1.0	71.0	dot_pattern_expectancy	71.0	0.437	probe	BY	s607	False
597.624	0.5	597.623	0.5	BY	n/a	n/a	dot_pattern_expectancy	-1.0	n/a	cue	BY	s607	False
600.135	0.5	600.734	1.5	BY	1.0	71.0	dot_pattern_expectancy	71.0	0.599	probe	BY	s607	False
601.64	0.5	601.639	0.5	AX	n/a	n/a	dot_pattern_expectancy	-1.0	n/a	cue	AX	s607	False
604.147	0.5	604.717	1.636	AX	1.0	89.0	dot_pattern_expectancy	89.0	0.57	probe	AX	s607	False
605.784	0.5	605.783	0.5	BX	n/a	n/a	dot_pattern_expectancy	-1.0	n/a	cue	BX	s607	False
608.293	0.5	608.598	2.044	BX	1.0	71.0	dot_pattern_expectancy	71.0	0.305	probe	BX	s607	False
610.341	0.5	610.34	0.5	AX	n/a	n/a	dot_pattern_expectancy	-1.0	n/a	cue	AX	s607	False
612.848	0.5	613.237	1.772	AX	1.0	89.0	dot_pattern_expectancy	89.0	0.389	probe	AX	s607	False
614.622	0.5	614.621	0.5	BX	n/a	n/a	dot_pattern_expectancy	-1.0	n/a	cue	BX	s607	False
617.131	0.5	617.523	2.588	BX	1.0	71.0	dot_pattern_expectancy	71.0	0.392	probe	BX	s607	False
619.72	0.5	619.719	0.5	AY	n/a	n/a	dot_pattern_expectancy	-1.0	n/a	cue	AY	s607	False
622.229	0.5	622.891	1.5	AY	1.0	71.0	dot_pattern_expectancy	71.0	0.662	probe	AY	s607	False
623.731	0.5	623.73	0.5	AX	n/a	n/a	dot_pattern_expectancy	-1.0	n/a	cue	AX	s607	False
626.237	0.5	626.733	2.452	AX	1.0	89.0	dot_pattern_expectancy	89.0	0.496	probe	AX	s607	False
628.691	0.5	628.69	0.5	BY	n/a	n/a	dot_pattern_expectancy	-1.0	n/a	cue	BY	s607	False
631.197	0.5	631.523	1.636	BY	1.0	71.0	dot_pattern_expectancy	71.0	0.326	probe	BY	s607	False
632.835	0.5	632.834	0.5	AX	n/a	n/a	dot_pattern_expectancy	-1.0	n/a	cue	AX	s607	False
635.342	0.5	635.807	1.636	AX	1.0	89.0	dot_pattern_expectancy	89.0	0.465	probe	AX	s607	False
636.979	0.5	636.978	0.5	AX	n/a	n/a	dot_pattern_expectancy	-1.0	n/a	cue	AX	s607	False
639.488	0.5	640.156	1.5	AX	1.0	89.0	dot_pattern_expectancy	89.0	0.668	probe	AX	s607	False
640.989	0.5	640.988	0.5	BY	n/a	n/a	dot_pattern_expectancy	-1.0	n/a	cue	BY	s607	False
643.496	0.5	643.858	1.636	BY	1.0	71.0	dot_pattern_expectancy	71.0	0.362	probe	BY	s607	False
645.134	0.5	645.133	0.5	AX	n/a	n/a	dot_pattern_expectancy	-1.0	n/a	cue	AX	s607	False
647.643	0.5	648.174	1.5	AX	0.0	89.0	dot_pattern_expectancy	71.0	0.531	probe	AX	s607	False
649.144	0.5	649.143	0.5	AY	n/a	n/a	dot_pattern_expectancy	-1.0	n/a	cue	AY	s607	False
651.651	0.5	652.283	2.18	AY	1.0	71.0	dot_pattern_expectancy	71.0	0.632	probe	AY	s607	False
653.832	0.5	653.831	0.5	AX	n/a	n/a	dot_pattern_expectancy	-1.0	n/a	cue	AX	s607	False
656.343	0.5	656.632	1.5	AX	1.0	89.0	dot_pattern_expectancy	89.0	0.289	probe	AX	s607	False
657.848	0.5	657.847	0.5	AX	n/a	n/a	dot_pattern_expectancy	-1.0	n/a	cue	AX	s607	False
660.355	0.5	660.8	1.908	AX	1.0	89.0	dot_pattern_expectancy	89.0	0.445	probe	AX	s607	False
662.264	0.5	662.263	0.5	BY	n/a	n/a	dot_pattern_expectancy	-1.0	n/a	cue	BY	s607	False
664.771	0.5	665.008	1.636	BY	1.0	71.0	dot_pattern_expectancy	71.0	0.237	probe	BY	s607	False
666.408	0.5	666.407	0.5	BY	n/a	n/a	dot_pattern_expectancy	-1.0	n/a	cue	BY	s607	False
668.915	0.5	669.883	1.636	BY	1.0	71.0	dot_pattern_expectancy	71.0	0.968	probe	BY	s607	False
670.554	0.5	670.553	0.5	AX	n/a	n/a	dot_pattern_expectancy	-1.0	n/a	cue	AX	s607	False
673.062	0.5	673.478	1.636	AX	1.0	89.0	dot_pattern_expectancy	89.0	0.416	probe	AX	s607	False
674.703	0.5	674.702	0.5	AX	n/a	n/a	dot_pattern_expectancy	-1.0	n/a	cue	AX	s607	False
677.211	0.5	677.641	1.5	AX	1.0	89.0	dot_pattern_expectancy	89.0	0.43	probe	AX	s607	False
678.712	0.5	678.711	0.5	BY	n/a	n/a	dot_pattern_expectancy	-1.0	n/a	cue	BY	s607	False
681.22	0.5	681.609	2.044	BY	1.0	71.0	dot_pattern_expectancy	71.0	0.389	probe	BY	s607	False
683.267	0.5	683.266	0.5	AY	n/a	n/a	dot_pattern_expectancy	-1.0	n/a	cue	AY	s607	False
685.773	0.5	686.257	2.18	AY	1.0	71.0	dot_pattern_expectancy	71.0	0.484	probe	AY	s607	False
687.955	0.5	687.954	0.5	AY	n/a	n/a	dot_pattern_expectancy	-1.0	n/a	cue	AY	s607	False
690.465	0.5	690.98	1.636	AY	0.0	71.0	dot_pattern_expectancy	89.0	0.515	probe	AY	s607	False
692.104	0.5	692.103	0.5	AY	n/a	n/a	dot_pattern_expectancy	-1.0	n/a	cue	AY	s607	False
694.613	0.5	695.255	1.772	AY	1.0	71.0	dot_pattern_expectancy	71.0	0.642	probe	AY	s607	False
696.387	0.5	696.386	0.5	BY	n/a	n/a	dot_pattern_expectancy	-1.0	n/a	cue	BY	s607	False
698.893	0.5	699.201	1.5	BY	1.0	71.0	dot_pattern_expectancy	71.0	0.308	probe	BY	s607	False
700.397	0.5	700.396	0.5	BX	n/a	n/a	dot_pattern_expectancy	-1.0	n/a	cue	BX	s607	False
702.904	0.5	703.281	1.908	BX	1.0	71.0	dot_pattern_expectancy	71.0	0.377	probe	BX	s607	False
704.813	0.5	704.812	0.5	AX	n/a	n/a	dot_pattern_expectancy	-1.0	n/a	cue	AX	s607	False
707.322	0.5	707.774	2.044	AX	1.0	89.0	dot_pattern_expectancy	89.0	0.452	probe	AX	s607	False
709.368	0.5	709.367	0.5	AX	n/a	n/a	dot_pattern_expectancy	-1.0	n/a	cue	AX	s607	False
711.875	0.5	712.345	1.636	AX	1.0	89.0	dot_pattern_expectancy	89.0	0.47	probe	AX	s607	False
713.512	0.5	713.511	0.5	AX	n/a	n/a	dot_pattern_expectancy	-1.0	n/a	cue	AX	s607	False
716.016	0.5	716.513	1.772	AX	1.0	89.0	dot_pattern_expectancy	89.0	0.497	probe	AX	s607	False
717.791	0.5	717.79	0.5	AX	n/a	n/a	dot_pattern_expectancy	-1.0	n/a	cue	AX	s607	False
720.296	0.5	720.694	1.636	AX	1.0	89.0	dot_pattern_expectancy	89.0	0.398	probe	AX	s607	False
721.933	0.5	721.932	0.5	BX	n/a	n/a	dot_pattern_expectancy	-1.0	n/a	cue	BX	s607	False
724.44	0.5	724.781	1.772	BX	1.0	71.0	dot_pattern_expectancy	71.0	0.341	probe	BX	s607	False
726.216	0.5	726.215	0.5	AX	n/a	n/a	dot_pattern_expectancy	-1.0	n/a	cue	AX	s607	False
728.725	0.5	729.051	1.5	AX	1.0	89.0	dot_pattern_expectancy	89.0	0.326	probe	AX	s607	False
