onset	duration	block_duration	choice	experiment_exp_id	key_press	large_amount	later_delay	response_time	small_amount	trial_id	trial_type	worker_id	junk
3.013	4.0	5.316	smaller_sooner	discount_fixed	71	31.0	76.0	2.359	20.0	n/a	smaller_sooner	s607	False
8.334	4.0	4.568	smaller_sooner	discount_fixed	71	43.0	19.0	4.254	20.0	n/a	smaller_sooner	s607	False
12.903	4.0	4.636	smaller_sooner	discount_fixed	71	60.0	124.0	1.705	20.0	n/a	smaller_sooner	s607	False
17.542	4.0	4.908	smaller_sooner	discount_fixed	71	27.0	142.0	1.606	20.0	n/a	smaller_sooner	s607	False
22.455	4.0	4.5	smaller_sooner	discount_fixed	71	25.0	70.0	1.577	20.0	n/a	smaller_sooner	s607	False
26.958	4.0	4.976	smaller_sooner	discount_fixed	71	44.0	92.0	0.98	20.0	n/a	smaller_sooner	s607	False
31.938	4.0	4.908	smaller_sooner	discount_fixed	71	41.0	27.0	1.57	20.0	n/a	smaller_sooner	s607	False
36.849	4.0	4.568	smaller_sooner	discount_fixed	71	64.0	89.0	1.366	20.0	n/a	smaller_sooner	s607	False
41.418	4.0	4.5	smaller_sooner	discount_fixed	71	78.0	108.0	1.401	20.0	n/a	smaller_sooner	s607	False
45.921	4.0	6.2	smaller_sooner	discount_fixed	71	80.0	145.0	0.926	20.0	n/a	smaller_sooner	s607	False
52.126	4.0	4.704	smaller_sooner	discount_fixed	71	41.0	174.0	1.256	20.0	n/a	smaller_sooner	s607	False
56.832	4.0	5.044	smaller_sooner	discount_fixed	71	42.0	145.0	0.617	20.0	n/a	smaller_sooner	s607	False
61.877	4.0	5.044	smaller_sooner	discount_fixed	71	36.0	114.0	1.053	20.0	n/a	smaller_sooner	s607	False
66.923	4.0	5.18	larger_later	discount_fixed	89	58.0	55.0	1.527	20.0	n/a	larger_later	s607	False
72.107	4.0	4.976	smaller_sooner	discount_fixed	71	81.0	58.0	1.784	20.0	n/a	smaller_sooner	s607	False
77.088	4.0	4.772	smaller_sooner	discount_fixed	71	32.0	111.0	1.563	20.0	n/a	smaller_sooner	s607	False
81.865	4.0	4.772	smaller_sooner	discount_fixed	71	25.0	141.0	1.995	20.0	n/a	smaller_sooner	s607	False
86.639	4.0	5.18	smaller_sooner	discount_fixed	71	67.0	23.0	1.597	20.0	n/a	smaller_sooner	s607	False
91.822	4.0	5.18	smaller_sooner	discount_fixed	71	77.0	161.0	2.256	20.0	n/a	smaller_sooner	s607	False
97.006	4.0	5.248	smaller_sooner	discount_fixed	71	55.0	163.0	0.84	20.0	n/a	smaller_sooner	s607	False
102.257	4.0	4.568	smaller_sooner	discount_fixed	71	40.0	159.0	1.122	20.0	n/a	smaller_sooner	s607	False
106.83	4.0	4.5	smaller_sooner	discount_fixed	71	76.0	161.0	0.662	20.0	n/a	smaller_sooner	s607	False
111.335	4.0	4.908	smaller_sooner	discount_fixed	71	48.0	128.0	1.039	20.0	n/a	smaller_sooner	s607	False
116.246	4.0	4.568	smaller_sooner	discount_fixed	71	39.0	95.0	1.247	20.0	n/a	smaller_sooner	s607	False
120.817	4.0	6.2	smaller_sooner	discount_fixed	71	83.0	105.0	0.833	20.0	n/a	smaller_sooner	s607	False
127.018	4.0	4.908	larger_later	discount_fixed	89	67.0	41.0	1.132	20.0	n/a	larger_later	s607	False
131.928	4.0	5.248	smaller_sooner	discount_fixed	71	56.0	172.0	1.129	20.0	n/a	smaller_sooner	s607	False
137.182	4.0	5.044	smaller_sooner	discount_fixed	71	28.0	123.0	0.683	20.0	n/a	smaller_sooner	s607	False
142.232	4.0	4.636	smaller_sooner	discount_fixed	71	50.0	129.0	0.592	20.0	n/a	smaller_sooner	s607	False
146.872	4.0	4.704	smaller_sooner	discount_fixed	71	23.0	61.0	1.47	20.0	n/a	smaller_sooner	s607	False
151.582	4.0	4.636	larger_later	discount_fixed	89	79.0	92.0	1.34	20.0	n/a	larger_later	s607	False
156.222	4.0	4.568	smaller_sooner	discount_fixed	71	61.0	141.0	0.714	20.0	n/a	smaller_sooner	s607	False
160.795	4.0	4.568	larger_later	discount_fixed	89	43.0	38.0	0.912	20.0	n/a	larger_later	s607	False
165.368	4.0	4.908	smaller_sooner	discount_fixed	71	66.0	145.0	0.61	20.0	n/a	smaller_sooner	s607	False
170.278	4.0	4.84	larger_later	discount_fixed	89	30.0	23.0	1.396	20.0	n/a	larger_later	s607	False
175.123	4.0	5.248	larger_later	discount_fixed	89	32.0	57.0	0.742	20.0	n/a	larger_later	s607	False
180.373	4.0	4.772	smaller_sooner	discount_fixed	71	27.0	91.0	1.131	20.0	n/a	smaller_sooner	s607	False
185.149	4.0	5.996	smaller_sooner	discount_fixed	71	43.0	120.0	0.918	20.0	n/a	smaller_sooner	s607	False
191.146	4.0	5.588	larger_later	discount_fixed	89	75.0	60.0	1.17	20.0	n/a	larger_later	s607	False
196.736	4.0	4.568	smaller_sooner	discount_fixed	71	34.0	176.0	1.212	20.0	n/a	smaller_sooner	s607	False
201.308	4.0	5.112	smaller_sooner	discount_fixed	71	24.0	38.0	1.089	20.0	n/a	smaller_sooner	s607	False
206.422	4.0	5.656	larger_later	discount_fixed	89	82.0	74.0	1.344	20.0	n/a	larger_later	s607	False
212.081	4.0	4.568	larger_later	discount_fixed	89	58.0	53.0	1.085	20.0	n/a	larger_later	s607	False
216.655	4.0	4.772	larger_later	discount_fixed	89	54.0	23.0	1.154	20.0	n/a	larger_later	s607	False
221.429	4.0	5.044	larger_later	discount_fixed	89	41.0	55.0	1.128	20.0	n/a	larger_later	s607	False
226.476	4.0	4.84	smaller_sooner	discount_fixed	71	77.0	142.0	0.944	20.0	n/a	smaller_sooner	s607	False
231.319	4.0	5.18	smaller_sooner	discount_fixed	71	25.0	108.0	0.855	20.0	n/a	smaller_sooner	s607	False
236.501	4.0	5.044	smaller_sooner	discount_fixed	71	33.0	163.0	0.502	20.0	n/a	smaller_sooner	s607	False
241.55	4.0	4.976	smaller_sooner	discount_fixed	71	29.0	75.0	1.043	20.0	n/a	smaller_sooner	s607	False
246.532	4.0	4.976	smaller_sooner	discount_fixed	71	45.0	157.0	0.908	20.0	n/a	smaller_sooner	s607	False
251.509	4.0	5.316	smaller_sooner	discount_fixed	71	31.0	74.0	1.336	20.0	n/a	smaller_sooner	s607	False
256.826	4.0	4.5	larger_later	discount_fixed	89	80.0	39.0	1.473	20.0	n/a	larger_later	s607	False
261.328	4.0	5.044	smaller_sooner	discount_fixed	71	22.0	21.0	1.772	20.0	n/a	smaller_sooner	s607	False
266.377	4.0	4.704	smaller_sooner	discount_fixed	71	52.0	139.0	0.666	20.0	n/a	smaller_sooner	s607	False
271.084	4.0	4.84	smaller_sooner	discount_fixed	71	54.0	126.0	1.414	20.0	n/a	smaller_sooner	s607	False
275.926	4.0	6.744	smaller_sooner	discount_fixed	71	23.0	176.0	0.586	20.0	n/a	smaller_sooner	s607	False
282.677	4.0	4.5	smaller_sooner	discount_fixed	71	24.0	87.0	1.052	20.0	n/a	smaller_sooner	s607	False
287.18	4.0	4.568	smaller_sooner	discount_fixed	71	36.0	140.0	0.846	20.0	n/a	smaller_sooner	s607	False
291.753	4.0	4.704	smaller_sooner	discount_fixed	71	35.0	171.0	1.029	20.0	n/a	smaller_sooner	s607	False
296.461	4.0	4.908	smaller_sooner	discount_fixed	71	34.0	43.0	1.243	20.0	n/a	smaller_sooner	s607	False
301.372	4.0	4.568	smaller_sooner	discount_fixed	71	74.0	121.0	0.537	20.0	n/a	smaller_sooner	s607	False
314.453	4.0	4.772	smaller_sooner	discount_fixed	71	45.0	107.0	1.556	20.0	n/a	smaller_sooner	s607	False
319.229	4.0	4.636	larger_later	discount_fixed	89	77.0	24.0	0.887	20.0	n/a	larger_later	s607	False
323.867	4.0	4.568	smaller_sooner	discount_fixed	71	39.0	161.0	0.721	20.0	n/a	smaller_sooner	s607	False
328.436	4.0	5.452	smaller_sooner	discount_fixed	71	62.0	180.0	0.698	20.0	n/a	smaller_sooner	s607	False
333.89	4.0	5.384	smaller_sooner	discount_fixed	71	24.0	139.0	0.632	20.0	n/a	smaller_sooner	s607	False
339.278	4.0	4.568	smaller_sooner	discount_fixed	71	58.0	72.0	1.377	20.0	n/a	smaller_sooner	s607	False
343.848	4.0	6.268	smaller_sooner	discount_fixed	71	56.0	93.0	0.976	20.0	n/a	smaller_sooner	s607	False
350.119	4.0	5.52	larger_later	discount_fixed	89	45.0	26.0	1.249	20.0	n/a	larger_later	s607	False
355.644	4.0	4.568	smaller_sooner	discount_fixed	71	23.0	42.0	0.921	20.0	n/a	smaller_sooner	s607	False
360.216	4.0	4.636	smaller_sooner	discount_fixed	71	50.0	41.0	0.757	20.0	n/a	smaller_sooner	s607	False
364.855	4.0	4.636	smaller_sooner	discount_fixed	71	25.0	176.0	0.588	20.0	n/a	smaller_sooner	s607	False
369.494	4.0	5.112	smaller_sooner	discount_fixed	71	54.0	22.0	0.398	20.0	n/a	smaller_sooner	s607	False
374.608	4.0	5.316	smaller_sooner	discount_fixed	71	29.0	44.0	0.998	20.0	n/a	smaller_sooner	s607	False
379.926	4.0	4.568	smaller_sooner	discount_fixed	71	24.0	89.0	1.602	20.0	n/a	smaller_sooner	s607	False
384.497	4.0	4.568	smaller_sooner	discount_fixed	71	23.0	77.0	0.738	20.0	n/a	smaller_sooner	s607	False
389.066	4.0	4.568	smaller_sooner	discount_fixed	71	27.0	130.0	2.086	20.0	n/a	smaller_sooner	s607	False
393.636	4.0	4.84	smaller_sooner	discount_fixed	71	23.0	134.0	1.362	20.0	n/a	smaller_sooner	s607	False
398.478	4.0	4.5	smaller_sooner	discount_fixed	71	55.0	107.0	1.01	20.0	n/a	smaller_sooner	s607	False
402.982	4.0	5.656	smaller_sooner	discount_fixed	71	44.0	143.0	0.782	20.0	n/a	smaller_sooner	s607	False
408.642	4.0	4.908	smaller_sooner	discount_fixed	71	23.0	110.0	1.01	20.0	n/a	smaller_sooner	s607	False
413.551	4.0	4.636	smaller_sooner	discount_fixed	71	65.0	156.0	0.648	20.0	n/a	smaller_sooner	s607	False
418.191	4.0	4.5	smaller_sooner	discount_fixed	71	22.0	27.0	1.023	20.0	n/a	smaller_sooner	s607	False
422.693	4.0	4.5	smaller_sooner	discount_fixed	71	50.0	59.0	1.152	20.0	n/a	smaller_sooner	s607	False
427.195	4.0	5.112	smaller_sooner	discount_fixed	71	85.0	129.0	1.115	20.0	n/a	smaller_sooner	s607	False
432.309	4.0	6.132	larger_later	discount_fixed	89	66.0	58.0	1.256	20.0	n/a	larger_later	s607	False
438.444	4.0	4.84	smaller_sooner	discount_fixed	71	49.0	172.0	0.633	20.0	n/a	smaller_sooner	s607	False
443.286	4.0	4.568	larger_later	discount_fixed	89	73.0	44.0	0.893	20.0	n/a	larger_later	s607	False
447.858	4.0	4.704	smaller_sooner	discount_fixed	71	58.0	73.0	0.938	20.0	n/a	smaller_sooner	s607	False
452.565	4.0	5.86	smaller_sooner	discount_fixed	71	71.0	76.0	1.084	20.0	n/a	smaller_sooner	s607	False
458.426	4.0	4.636	smaller_sooner	discount_fixed	71	67.0	74.0	0.946	20.0	n/a	smaller_sooner	s607	False
463.064	4.0	5.316	smaller_sooner	discount_fixed	71	29.0	58.0	0.888	20.0	n/a	smaller_sooner	s607	False
468.382	4.0	4.976	smaller_sooner	discount_fixed	71	39.0	104.0	0.595	20.0	n/a	smaller_sooner	s607	False
473.361	4.0	4.568	smaller_sooner	discount_fixed	71	33.0	103.0	0.689	20.0	n/a	smaller_sooner	s607	False
477.934	4.0	5.52	smaller_sooner	discount_fixed	71	33.0	78.0	0.814	20.0	n/a	smaller_sooner	s607	False
483.457	4.0	5.588	smaller_sooner	discount_fixed	71	74.0	52.0	0.801	20.0	n/a	smaller_sooner	s607	False
489.049	4.0	5.792	smaller_sooner	discount_fixed	71	28.0	132.0	0.685	20.0	n/a	smaller_sooner	s607	False
494.843	4.0	4.568	smaller_sooner	discount_fixed	71	28.0	59.0	0.872	20.0	n/a	smaller_sooner	s607	False
499.414	4.0	5.112	smaller_sooner	discount_fixed	71	28.0	163.0	0.662	20.0	n/a	smaller_sooner	s607	False
504.528	4.0	4.5	smaller_sooner	discount_fixed	71	32.0	74.0	0.648	20.0	n/a	smaller_sooner	s607	False
509.03	4.0	4.84	larger_later	discount_fixed	89	57.0	89.0	1.395	20.0	n/a	larger_later	s607	False
513.873	4.0	4.568	smaller_sooner	discount_fixed	71	70.0	108.0	0.899	20.0	n/a	smaller_sooner	s607	False
518.444	4.0	5.384	smaller_sooner	discount_fixed	71	72.0	95.0	1.014	20.0	n/a	smaller_sooner	s607	False
523.829	4.0	5.044	smaller_sooner	discount_fixed	71	30.0	36.0	0.808	20.0	n/a	smaller_sooner	s607	False
528.878	4.0	4.704	smaller_sooner	discount_fixed	71	41.0	129.0	0.641	20.0	n/a	smaller_sooner	s607	False
533.586	4.0	4.908	smaller_sooner	discount_fixed	71	78.0	129.0	0.906	20.0	n/a	smaller_sooner	s607	False
538.499	4.0	4.908	smaller_sooner	discount_fixed	71	71.0	88.0	0.925	20.0	n/a	smaller_sooner	s607	False
543.408	4.0	4.84	smaller_sooner	discount_fixed	71	65.0	159.0	0.674	20.0	n/a	smaller_sooner	s607	False
548.252	4.0	5.112	smaller_sooner	discount_fixed	71	24.0	125.0	1.143	20.0	n/a	smaller_sooner	s607	False
553.366	4.0	5.112	smaller_sooner	discount_fixed	71	58.0	36.0	0.657	20.0	n/a	smaller_sooner	s607	False
558.484	4.0	4.704	larger_later	discount_fixed	89	63.0	37.0	0.856	20.0	n/a	larger_later	s607	False
563.19	4.0	4.84	smaller_sooner	discount_fixed	71	75.0	41.0	0.583	20.0	n/a	smaller_sooner	s607	False
568.033	4.0	4.84	smaller_sooner	discount_fixed	71	45.0	72.0	0.857	20.0	n/a	smaller_sooner	s607	False
572.878	4.0	6.88	smaller_sooner	discount_fixed	71	25.0	74.0	0.655	20.0	n/a	smaller_sooner	s607	False
579.761	4.0	4.568	smaller_sooner	discount_fixed	71	65.0	137.0	1.174	20.0	n/a	smaller_sooner	s607	False
584.33	4.0	4.772	smaller_sooner	discount_fixed	71	49.0	140.0	0.783	20.0	n/a	smaller_sooner	s607	False
589.103	4.0	7.016	smaller_sooner	discount_fixed	71	67.0	103.0	0.989	20.0	n/a	smaller_sooner	s607	False
596.121	4.0	4.704	smaller_sooner	discount_fixed	71	69.0	172.0	1.019	20.0	n/a	smaller_sooner	s607	False
600.828	4.0	5.18	smaller_sooner	discount_fixed	71	66.0	71.0	0.945	20.0	n/a	smaller_sooner	s607	False
606.01	4.0	5.044	smaller_sooner	discount_fixed	71	71.0	176.0	0.777	20.0	n/a	smaller_sooner	s607	False
