onset	duration	movement_onset	EV	action	block_duration	experiment_exp_id	gain_amount	gain_probability	key_press	loss_amount	loss_probability	num_cards	num_click_in_round	num_loss_cards	risk	response_time	total_cards	trial_id	trial_type	worker_id	junk	feedback
3.01	6.125	9.135	-1.2620861108819823	draw_card	6.125	columbia_card_task_fmri	12.0	0.8333333333333334	89.0	-70.0	0.1666666666666666	6.0	1.0	1.0	-1.552884018428859	6.125	n/a	stim	poldrack-single-stim	s608	False	1
9.138	3.738	12.876	-3.995419444215315	draw_card	3.738	columbia_card_task_fmri	12.0	0.8	89.0	-70.0	0.2	6.0	2.0	1.0	0.687337381498331	3.738	n/a	stim	poldrack-single-stim	s608	False	1
12.877	3.371	16.248	-8.095419444215317	draw_card	3.371	columbia_card_task_fmri	12.0	0.75	89.0	-70.0	0.25	6.0	3.0	1.0	3.3941887234234827	3.371	n/a	stim	poldrack-single-stim	s608	False	1
16.249	3.573	19.822	-14.928752777548649	end_round	3.573	columbia_card_task_fmri	12.0	0.6666666666666667	71.0	-70.0	0.3333333333333333	6.0	4.0	1.0	6.542130169985917	3.573	3.0	stim	poldrack-single-stim	s608	False	1
20.575	1.5	19.824	n/a	-1.0	2.318	columbia_card_task_fmri	n/a	n/a	-1.0	n/a	n/a	n/a	n/a	n/a	n/a	n/a	n/a	ITI	poldrack-single-stim	s608	False	0
22.146	6.284	28.43	-0.4287527775486483	draw_card	6.284	columbia_card_task_fmri	14.0	0.8333333333333334	89.0	-75.0	0.1666666666666666	6.0	1.0	1.0	1.0556513410799226	6.284	n/a	stim	poldrack-single-stim	s608	False	1
28.432	0.971	29.403	-3.395419444215315	draw_card	0.971	columbia_card_task_fmri	14.0	0.8	89.0	-75.0	0.2	6.0	2.0	1.0	3.487141150122632	0.971	2.0	stim	poldrack-single-stim	s608	False	0
30.155	1.5	29.404	n/a	-1.0	2.318	columbia_card_task_fmri	n/a	n/a	-1.0	n/a	n/a	n/a	n/a	n/a	n/a	n/a	n/a	ITI	poldrack-single-stim	s608	False	0
31.726	4.903	36.629	1.2379138891180177	draw_card	4.903	columbia_card_task_fmri	15.0	0.8333333333333334	89.0	-70.0	0.1666666666666666	6.0	1.0	1.0	-0.4349445400891305	4.903	n/a	stim	poldrack-single-stim	s608	False	1
36.631	2.102	38.733	-1.5954194442153162	draw_card	2.102	columbia_card_task_fmri	15.0	0.8	89.0	-70.0	0.2	6.0	2.0	1.0	1.887249325148808	2.102	n/a	stim	poldrack-single-stim	s608	False	1
38.734	1.839	40.573	-5.845419444215316	draw_card	1.839	columbia_card_task_fmri	15.0	0.75	89.0	-70.0	0.25	6.0	3.0	1.0	4.693145484815048	1.839	n/a	stim	poldrack-single-stim	s608	False	1
40.575	1.598	42.173	-12.928752777548649	end_round	1.598	columbia_card_task_fmri	15.0	0.6666666666666667	71.0	-70.0	0.3333333333333333	6.0	4.0	1.0	7.956269011764952	1.598	3.0	stim	poldrack-single-stim	s608	False	1
42.929	1.5	42.178	n/a	-1.0	2.862	columbia_card_task_fmri	n/a	n/a	-1.0	n/a	n/a	n/a	n/a	n/a	n/a	n/a	n/a	ITI	poldrack-single-stim	s608	False	0
45.042	5.067	50.109	2.071247222451352	draw_card	5.067	columbia_card_task_fmri	17.0	0.8333333333333334	89.0	-75.0	0.1666666666666666	6.0	1.0	1.0	2.173604876728483	5.067	n/a	stim	poldrack-single-stim	s608	False	1
50.112	2.005	52.117	-0.9954194442153148	draw_card	2.005	columbia_card_task_fmri	17.0	0.8	89.0	-75.0	0.2	6.0	2.0	1.0	4.6870661913032095	2.005	n/a	stim	poldrack-single-stim	s608	False	1
52.119	2.796	54.915	-5.595419444215316	end_round	2.796	columbia_card_task_fmri	17.0	0.75	71.0	-75.0	0.25	6.0	3.0	1.0	7.724065223821206	2.796	2.0	stim	poldrack-single-stim	s608	False	1
55.667	1.5	54.916	n/a	-1.0	2.726	columbia_card_task_fmri	n/a	n/a	-1.0	n/a	n/a	n/a	n/a	n/a	n/a	n/a	n/a	ITI	poldrack-single-stim	s608	False	0
57.645	3.556	61.201	3.404580555784684	draw_card	3.556	columbia_card_task_fmri	24.0	0.75	89.0	-60.0	0.25	8.0	1.0	2.0	4.260159252155113	3.556	n/a	stim	poldrack-single-stim	s608	False	1
61.203	0.703	61.906	0.4045805557846838	draw_card	0.703	columbia_card_task_fmri	24.0	0.7142857142857143	89.0	-60.0	0.2857142857142857	8.0	2.0	2.0	5.834330877328043	0.703	n/a	stim	poldrack-single-stim	s608	False	1
61.908	2.931	64.839	-3.595419444215316	draw_card	2.931	columbia_card_task_fmri	24.0	0.6666666666666667	89.0	-60.0	0.3333333333333333	8.0	3.0	2.0	7.484888804864639	2.931	3.0	stim	poldrack-single-stim	s608	False	0
65.595	1.5	64.844	n/a	-1.0	2.25	columbia_card_task_fmri	n/a	n/a	-1.0	n/a	n/a	n/a	n/a	n/a	n/a	n/a	n/a	ITI	poldrack-single-stim	s608	False	0
67.097	3.599	70.696	3.404580555784684	draw_card	3.599	columbia_card_task_fmri	29.0	0.75	89.0	-75.0	0.25	8.0	1.0	2.0	12.919980613101522	3.599	n/a	stim	poldrack-single-stim	s608	False	1
70.698	1.871	72.569	-0.3097051585010279	draw_card	1.871	columbia_card_task_fmri	29.0	0.7142857142857143	89.0	-75.0	0.2857142857142857	8.0	2.0	2.0	14.868995176746772	1.871	n/a	stim	poldrack-single-stim	s608	False	1
72.57	2.394	74.964	-5.26208611088198	draw_card	2.394	columbia_card_task_fmri	29.0	0.6666666666666667	89.0	-75.0	0.3333333333333333	8.0	3.0	2.0	16.912581776851567	2.394	n/a	stim	poldrack-single-stim	s608	False	1
74.966	3.734	78.7	-12.195419444215318	end_round	3.734	columbia_card_task_fmri	29.0	0.6	71.0	-75.0	0.4	8.0	4.0	2.0	18.835835249556418	3.734	3.0	stim	poldrack-single-stim	s608	False	1
79.452	1.5	78.701	n/a	-1.0	2.318	columbia_card_task_fmri	n/a	n/a	-1.0	n/a	n/a	n/a	n/a	n/a	n/a	n/a	n/a	ITI	poldrack-single-stim	s608	False	0
81.022	1.919	82.941	-0.8176416664375359	draw_card	1.919	columbia_card_task_fmri	17.0	0.7777777777777778	89.0	-65.0	0.2222222222222222	9.0	1.0	2.0	1.977899115207066	1.919	1.0	stim	poldrack-single-stim	s608	False	0
83.696	1.5	82.945	n/a	-1.0	2.454	columbia_card_task_fmri	n/a	n/a	-1.0	n/a	n/a	n/a	n/a	n/a	n/a	n/a	n/a	ITI	poldrack-single-stim	s608	False	0
85.402	3.223	88.625	3.5045805557846834	draw_card	3.223	columbia_card_task_fmri	14.0	0.9	89.0	-95.0	0.1	10.0	1.0	1.0	0.5873450112203642	3.223	n/a	stim	poldrack-single-stim	s608	False	1
88.626	1.393	90.019	2.2934694446735717	draw_card	1.393	columbia_card_task_fmri	14.0	0.8888888888888888	89.0	-95.0	0.1111111111111111	10.0	2.0	1.0	2.142626557813344	1.393	2.0	stim	poldrack-single-stim	s608	False	0
90.775	1.5	90.024	n/a	-1.0	2.522	columbia_card_task_fmri	n/a	n/a	-1.0	n/a	n/a	n/a	n/a	n/a	n/a	n/a	n/a	ITI	poldrack-single-stim	s608	False	0
92.548	2.963	95.511	-0.5954194442153162	draw_card	2.963	columbia_card_task_fmri	15.0	0.8	89.0	-65.0	0.2	10.0	1.0	2.0	-0.1126002456816834	2.963	1.0	stim	poldrack-single-stim	s608	False	0
96.264	1.5	95.513	n/a	-1.0	2.318	columbia_card_task_fmri	n/a	n/a	-1.0	n/a	n/a	n/a	n/a	n/a	n/a	n/a	n/a	ITI	poldrack-single-stim	s608	False	0
97.834	5.802	103.636	1.0045805557846852	draw_card	5.802	columbia_card_task_fmri	17.0	0.8	89.0	-65.0	0.2	10.0	1.0	2.0	0.687337381498331	5.802	n/a	stim	poldrack-single-stim	s608	False	1
103.639	0.92	104.559	-0.8176416664375359	draw_card	0.92	columbia_card_task_fmri	17.0	0.7777777777777778	89.0	-65.0	0.2222222222222222	10.0	2.0	2.0	1.977899115207066	0.92	2.0	stim	poldrack-single-stim	s608	False	0
105.314	1.5	104.563	n/a	-1.0	2.522	columbia_card_task_fmri	n/a	n/a	-1.0	n/a	n/a	n/a	n/a	n/a	n/a	n/a	n/a	ITI	poldrack-single-stim	s608	False	0
107.087	4.293	111.38	-0.4287527775486483	draw_card	4.293	columbia_card_task_fmri	13.0	0.8333333333333334	89.0	-70.0	0.1666666666666666	12.0	1.0	2.0	-1.1802382846716952	4.293	n/a	stim	poldrack-single-stim	s608	False	1
111.382	1.26	112.642	-1.6863285351244095	draw_card	1.26	columbia_card_task_fmri	13.0	0.8181818181818181	89.0	-70.0	0.1818181818181818	12.0	2.0	2.0	-0.0999487990479153	1.26	n/a	stim	poldrack-single-stim	s608	False	1
112.644	2.522	115.166	-3.195419444215316	end_round	2.522	columbia_card_task_fmri	13.0	0.8	71.0	-70.0	0.2	12.0	3.0	2.0	1.0873073221803722	2.522	2.0	stim	poldrack-single-stim	s608	False	1
115.921	1.5	115.17	n/a	-1.0	2.998	columbia_card_task_fmri	n/a	n/a	-1.0	n/a	n/a	n/a	n/a	n/a	n/a	n/a	n/a	ITI	poldrack-single-stim	s608	False	0
118.171	2.253	120.424	-0.4287527775486483	draw_card	2.253	columbia_card_task_fmri	15.0	0.8333333333333334	89.0	-80.0	0.1666666666666666	12.0	1.0	2.0	3.2915634931113686	2.253	n/a	stim	poldrack-single-stim	s608	False	1
120.426	0.658	121.084	-1.8681467169425916	draw_card	0.658	columbia_card_task_fmri	15.0	0.8181818181818181	89.0	-80.0	0.1818181818181818	12.0	2.0	2.0	4.528063594335904	0.658	n/a	stim	poldrack-single-stim	s608	False	1
121.086	0.576	121.662	-3.595419444215316	draw_card	0.576	columbia_card_task_fmri	15.0	0.8	89.0	-80.0	0.2	12.0	3.0	2.0	5.886995966309158	0.576	n/a	stim	poldrack-single-stim	s608	False	1
121.664	1.245	122.909	-5.706530555326428	end_round	1.245	columbia_card_task_fmri	15.0	0.7777777777777778	71.0	-80.0	0.2222222222222222	12.0	4.0	2.0	7.382186848755737	1.245	3.0	stim	poldrack-single-stim	s608	False	1
123.662	1.5	122.911	n/a	-1.0	2.318	columbia_card_task_fmri	n/a	n/a	-1.0	n/a	n/a	n/a	n/a	n/a	n/a	n/a	n/a	ITI	poldrack-single-stim	s608	False	0
125.232	2.719	127.951	-1.3954194442153152	draw_card	2.719	columbia_card_task_fmri	14.0	0.8	89.0	-65.0	0.2	15.0	1.0	3.0	-0.5125678751208405	2.719	n/a	stim	poldrack-single-stim	s608	False	1
127.954	1.601	129.555	-2.5239908727867437	draw_card	1.601	columbia_card_task_fmri	14.0	0.7857142857142857	89.0	-65.0	0.2142857142857142	15.0	2.0	3.0	0.3031133186453587	1.601	2.0	stim	poldrack-single-stim	s608	False	0
130.309	1.5	129.558	n/a	-1.0	2.25	columbia_card_task_fmri	n/a	n/a	-1.0	n/a	n/a	n/a	n/a	n/a	n/a	n/a	n/a	ITI	poldrack-single-stim	s608	False	0
131.812	3.194	135.006	-1.4704194442153162	draw_card	3.194	columbia_card_task_fmri	1.0	0.9375	89.0	-45.0	0.0625	16.0	1.0	1.0	-20.972982876554283	3.194	n/a	stim	poldrack-single-stim	s608	False	1
135.009	2.192	137.201	-1.6620861108819829	draw_card	2.192	columbia_card_task_fmri	1.0	0.9333333333333332	89.0	-45.0	0.0666666666666666	16.0	2.0	1.0	-20.63361133205529	2.192	n/a	stim	poldrack-single-stim	s608	False	1
137.202	1.632	138.834	-1.8811337299296016	end_round	1.632	columbia_card_task_fmri	1.0	0.9285714285714286	71.0	-45.0	0.0714285714285714	16.0	3.0	1.0	-20.261439990710954	1.632	2.0	stim	poldrack-single-stim	s608	False	1
139.59	1.5	138.839	n/a	-1.0	2.454	columbia_card_task_fmri	n/a	n/a	-1.0	n/a	n/a	n/a	n/a	n/a	n/a	n/a	n/a	ITI	poldrack-single-stim	s608	False	0
141.297	1.634	142.931	-0.5329194442153162	draw_card	1.634	columbia_card_task_fmri	15.0	0.8125	89.0	-70.0	0.1875	16.0	1.0	3.0	1.06386093076177	1.634	n/a	stim	poldrack-single-stim	s608	False	1
142.933	2.471	145.404	-1.5954194442153162	draw_card	2.471	columbia_card_task_fmri	15.0	0.8	89.0	-70.0	0.2	16.0	2.0	3.0	1.887249325148808	2.471	n/a	stim	poldrack-single-stim	s608	False	1
145.406	1.182	146.588	-2.8097051585010315	end_round	1.182	columbia_card_task_fmri	15.0	0.7857142857142857	71.0	-70.0	0.2142857142857142	16.0	3.0	3.0	2.764890538024652	1.182	2.0	stim	poldrack-single-stim	s608	False	1
147.343	1.5	146.592	n/a	-1.0	2.318	columbia_card_task_fmri	n/a	n/a	-1.0	n/a	n/a	n/a	n/a	n/a	n/a	n/a	n/a	ITI	poldrack-single-stim	s608	False	0
148.914	2.805	151.719	6.404580555784684	draw_card	2.805	columbia_card_task_fmri	30.0	0.7	89.0	-50.0	0.3	10.0	1.0	3.0	4.547680206434478	2.805	n/a	stim	poldrack-single-stim	s608	False	1
151.722	1.677	153.399	3.737913889118023	draw_card	1.677	columbia_card_task_fmri	30.0	0.6666666666666667	89.0	-50.0	0.3333333333333333	10.0	2.0	3.0	5.599374055230058	1.677	2.0	stim	poldrack-single-stim	s608	False	0
154.151	1.5	153.4	n/a	-1.0	2.318	columbia_card_task_fmri	n/a	n/a	-1.0	n/a	n/a	n/a	n/a	n/a	n/a	n/a	n/a	ITI	poldrack-single-stim	s608	False	0
155.722	1.841	157.563	5.804580555784685	draw_card	1.841	columbia_card_task_fmri	17.0	0.8666666666666667	89.0	-70.0	0.1333333333333333	15.0	1.0	2.0	-2.5380773208607827	1.841	n/a	stim	poldrack-single-stim	s608	False	1
157.566	0.456	158.022	4.976009127213257	draw_card	0.456	columbia_card_task_fmri	17.0	0.8571428571428572	89.0	-70.0	0.1428571428571428	15.0	2.0	2.0	-1.6688112814963034	0.456	n/a	stim	poldrack-single-stim	s608	False	1
158.025	2.686	160.711	4.019965171169299	draw_card	2.686	columbia_card_task_fmri	17.0	0.8461538461538461	89.0	-70.0	0.1538461538461538	15.0	3.0	2.0	-0.7228450563144655	2.686	3.0	stim	poldrack-single-stim	s608	False	0
161.466	1.5	160.715	n/a	-1.0	2.59	columbia_card_task_fmri	n/a	n/a	-1.0	n/a	n/a	n/a	n/a	n/a	n/a	n/a	n/a	ITI	poldrack-single-stim	s608	False	0
163.309	3.065	166.374	1.0295805557846838	draw_card	3.065	columbia_card_task_fmri	7.0	0.9375	89.0	-95.0	0.0625	16.0	1.0	1.0	-7.421574342574189	3.065	n/a	stim	poldrack-single-stim	s608	False	1
166.376	1.23	167.606	0.604580555784684	draw_card	1.23	columbia_card_task_fmri	7.0	0.9333333333333332	89.0	-95.0	0.0666666666666666	16.0	2.0	1.0	-6.668671027227791	1.23	n/a	stim	poldrack-single-stim	s608	False	1
167.608	1.9	169.508	0.1188662700703982	draw_card	1.9	columbia_card_task_fmri	7.0	0.9285714285714286	89.0	-95.0	0.0714285714285714	16.0	3.0	1.0	-5.843025916859638	1.9	n/a	stim	poldrack-single-stim	s608	False	1
169.512	1.085	170.597	-0.4415732903691629	end_round	1.085	columbia_card_task_fmri	7.0	0.9230769230769232	71.0	-95.0	0.0769230769230769	16.0	4.0	1.0	-4.932272532682152	1.085	3.0	stim	poldrack-single-stim	s608	False	1
171.353	1.5	170.602	n/a	-1.0	2.25	columbia_card_task_fmri	n/a	n/a	-1.0	n/a	n/a	n/a	n/a	n/a	n/a	n/a	n/a	ITI	poldrack-single-stim	s608	False	0
172.855	2.127	174.982	2.592080555784684	draw_card	2.127	columbia_card_task_fmri	9.0	0.9375	89.0	-100.0	0.0625	16.0	1.0	1.0	-5.727356963971253	2.127	n/a	stim	poldrack-single-stim	s608	False	1
174.984	1.113	176.097	2.137913889118017	draw_card	1.113	columbia_card_task_fmri	9.0	0.9333333333333332	89.0	-100.0	0.0666666666666666	16.0	2.0	1.0	-4.922770785440694	1.113	n/a	stim	poldrack-single-stim	s608	False	1
176.101	1.14	177.241	1.618866270070399	end_round	1.14	columbia_card_task_fmri	9.0	0.9285714285714286	71.0	-100.0	0.0714285714285714	16.0	3.0	1.0	-4.040450327650131	1.14	2.0	stim	poldrack-single-stim	s608	False	1
177.994	1.5	177.243	n/a	-1.0	2.25	columbia_card_task_fmri	n/a	n/a	-1.0	n/a	n/a	n/a	n/a	n/a	n/a	n/a	n/a	ITI	poldrack-single-stim	s608	False	0
179.496	1.678	181.174	3.529580555784684	draw_card	1.678	columbia_card_task_fmri	15.0	0.875	89.0	-80.0	0.125	16.0	1.0	2.0	-0.6942560794254078	1.678	n/a	stim	poldrack-single-stim	s608	False	1
181.176	0.68	181.856	2.7379138891180177	draw_card	0.68	columbia_card_task_fmri	15.0	0.8666666666666667	89.0	-80.0	0.1333333333333333	16.0	2.0	2.0	0.1811667424071643	0.68	n/a	stim	poldrack-single-stim	s608	False	1
181.859	1.14	182.999	1.8331519843561144	end_round	1.14	columbia_card_task_fmri	15.0	0.8571428571428572	71.0	-80.0	0.1428571428571428	16.0	3.0	2.0	1.1303792089296394	1.14	2.0	stim	poldrack-single-stim	s608	False	1
183.755	1.5	183.004	n/a	-1.0	2.522	columbia_card_task_fmri	n/a	n/a	-1.0	n/a	n/a	n/a	n/a	n/a	n/a	n/a	n/a	ITI	poldrack-single-stim	s608	False	0
185.53	2.63	188.16	5.654580555784684	draw_card	2.63	columbia_card_task_fmri	16.0	0.875	89.0	-70.0	0.125	16.0	1.0	2.0	-3.6704537321595545	2.63	1.0	stim	poldrack-single-stim	s608	False	0
188.916	1.5	188.165	n/a	-1.0	2.454	columbia_card_task_fmri	n/a	n/a	-1.0	n/a	n/a	n/a	n/a	n/a	n/a	n/a	n/a	ITI	poldrack-single-stim	s608	False	0
190.623	3.304	193.927	6.967080555784684	draw_card	3.304	columbia_card_task_fmri	30.0	0.6875	89.0	-45.0	0.3125	16.0	1.0	5.0	2.6506268763724066	3.304	n/a	stim	poldrack-single-stim	s608	False	1
193.93	2.409	196.339	5.404580555784688	end_round	2.409	columbia_card_task_fmri	30.0	0.6666666666666667	71.0	-45.0	0.3333333333333333	16.0	2.0	5.0	3.242496116780231	2.409	1.0	stim	poldrack-single-stim	s608	False	1
197.093	1.5	196.342	n/a	-1.0	2.25	columbia_card_task_fmri	n/a	n/a	-1.0	n/a	n/a	n/a	n/a	n/a	n/a	n/a	n/a	ITI	poldrack-single-stim	s608	False	0
198.595	2.124	200.719	-1.2620861108819823	draw_card	2.124	columbia_card_task_fmri	13.0	0.8333333333333334	89.0	-75.0	0.1666666666666666	6.0	1.0	1.0	0.6830013813802083	2.124	n/a	stim	poldrack-single-stim	s608	False	1
200.722	1.816	202.538	-4.195419444215315	draw_card	1.816	columbia_card_task_fmri	13.0	0.8	89.0	-75.0	0.2	6.0	2.0	1.0	3.087167272024999	1.816	n/a	stim	poldrack-single-stim	s608	False	1
202.54	1.704	204.244	-8.595419444215317	end_round	1.704	columbia_card_task_fmri	13.0	0.75	71.0	-75.0	0.25	6.0	3.0	1.0	5.992107791922045	1.704	2.0	stim	poldrack-single-stim	s608	False	1
205.001	1.5	204.25	n/a	-1.0	2.454	columbia_card_task_fmri	n/a	n/a	-1.0	n/a	n/a	n/a	n/a	n/a	n/a	n/a	n/a	ITI	poldrack-single-stim	s608	False	0
206.707	1.626	208.333	0.4045805557846856	draw_card	1.626	columbia_card_task_fmri	14.0	0.8333333333333334	89.0	-70.0	0.1666666666666666	6.0	1.0	1.0	-0.8075917828573189	1.626	n/a	stim	poldrack-single-stim	s608	False	1
208.336	1.463	209.799	-2.395419444215315	draw_card	1.463	columbia_card_task_fmri	14.0	0.8	89.0	-70.0	0.2	6.0	2.0	1.0	1.4872779784816998	1.463	n/a	stim	poldrack-single-stim	s608	False	1
209.8	0.869	210.669	-6.595419444215316	end_round	0.869	columbia_card_task_fmri	14.0	0.75	71.0	-70.0	0.25	6.0	3.0	1.0	4.260159252155113	0.869	2.0	stim	poldrack-single-stim	s608	False	1
211.426	1.5	210.675	n/a	-1.0	2.454	columbia_card_task_fmri	n/a	n/a	-1.0	n/a	n/a	n/a	n/a	n/a	n/a	n/a	n/a	ITI	poldrack-single-stim	s608	False	0
213.133	1.466	214.599	0.4045805557846856	draw_card	1.466	columbia_card_task_fmri	16.0	0.8333333333333334	89.0	-80.0	0.1666666666666666	6.0	1.0	1.0	3.664217411975237	1.466	n/a	stim	poldrack-single-stim	s608	False	1
214.601	1.194	215.795	-2.7954194442153155	draw_card	1.194	columbia_card_task_fmri	16.0	0.8	89.0	-80.0	0.2	6.0	2.0	1.0	6.286973533242289	1.194	n/a	stim	poldrack-single-stim	s608	False	1
215.797	1.154	216.951	-7.595419444215316	end_round	1.154	columbia_card_task_fmri	16.0	0.75	71.0	-80.0	0.25	6.0	3.0	1.0	9.456030436448655	1.154	2.0	stim	poldrack-single-stim	s608	False	1
217.706	1.5	216.955	n/a	-1.0	2.522	columbia_card_task_fmri	n/a	n/a	-1.0	n/a	n/a	n/a	n/a	n/a	n/a	n/a	n/a	ITI	poldrack-single-stim	s608	False	0
219.481	1.406	220.887	2.904580555784685	draw_card	1.406	columbia_card_task_fmri	17.0	0.8333333333333334	89.0	-70.0	0.1666666666666666	6.0	1.0	1.0	0.3103520661244872	1.406	n/a	stim	poldrack-single-stim	s608	False	1
220.89	2.11	223.0	0.0045805557846852	end_round	2.11	columbia_card_task_fmri	17.0	0.8	71.0	-70.0	0.2	6.0	2.0	1.0	2.687193994370688	2.11	1.0	stim	poldrack-single-stim	s608	False	1
223.753	1.5	223.002	n/a	-1.0	2.454	columbia_card_task_fmri	n/a	n/a	-1.0	n/a	n/a	n/a	n/a	n/a	n/a	n/a	n/a	ITI	poldrack-single-stim	s608	False	0
225.46	2.32	227.78	2.904580555784684	draw_card	2.32	columbia_card_task_fmri	25.0	0.75	89.0	-65.0	0.25	8.0	1.0	2.0	6.858085470448067	2.32	1.0	stim	poldrack-single-stim	s608	False	0
228.536	1.5	227.785	n/a	-1.0	2.658	columbia_card_task_fmri	n/a	n/a	-1.0	n/a	n/a	n/a	n/a	n/a	n/a	n/a	n/a	ITI	poldrack-single-stim	s608	False	0
230.447	1.889	232.336	2.904580555784684	draw_card	1.889	columbia_card_task_fmri	30.0	0.75	89.0	-80.0	0.25	8.0	1.0	2.0	15.517957700247706	1.889	n/a	stim	poldrack-single-stim	s608	False	1
232.339	1.204	233.543	-1.0239908727867395	end_round	1.204	columbia_card_task_fmri	30.0	0.7142857142857143	71.0	-80.0	0.2857142857142857	8.0	2.0	2.0	17.57942387303285	1.204	1.0	stim	poldrack-single-stim	s608	False	1
234.296	1.5	233.545	n/a	-1.0	2.386	columbia_card_task_fmri	n/a	n/a	-1.0	n/a	n/a	n/a	n/a	n/a	n/a	n/a	n/a	ITI	poldrack-single-stim	s608	False	0
235.935	5.79	241.725	2.604580555784685	draw_card	5.79	columbia_card_task_fmri	13.0	0.9	89.0	-95.0	0.1	10.0	1.0	1.0	0.2873681829359356	5.79	1.0	stim	poldrack-single-stim	s608	False	0
242.482	1.5	241.731	n/a	-1.0	2.522	columbia_card_task_fmri	n/a	n/a	-1.0	n/a	n/a	n/a	n/a	n/a	n/a	n/a	n/a	ITI	poldrack-single-stim	s608	False	0
244.258	1.655	245.913	4.004580555784684	draw_card	1.655	columbia_card_task_fmri	14.0	0.9	89.0	-90.0	0.1	10.0	1.0	1.0	-0.9125346746489632	1.655	n/a	stim	poldrack-single-stim	s608	False	1
245.916	1.468	247.384	2.849025000229126	draw_card	1.468	columbia_card_task_fmri	14.0	0.8888888888888888	89.0	-90.0	0.1111111111111111	10.0	2.0	1.0	0.5713930075696823	1.468	n/a	stim	poldrack-single-stim	s608	False	1
247.387	0.88	248.267	1.4045805557846838	end_round	0.88	columbia_card_task_fmri	14.0	0.875	71.0	-90.0	0.125	10.0	3.0	1.0	2.2819887438777755	0.88	2.0	stim	poldrack-single-stim	s608	False	1
249.02	1.5	248.269	n/a	-1.0	2.59	columbia_card_task_fmri	n/a	n/a	-1.0	n/a	n/a	n/a	n/a	n/a	n/a	n/a	n/a	ITI	poldrack-single-stim	s608	False	0
250.863	4.114	254.977	-0.7954194442153155	draw_card	4.114	columbia_card_task_fmri	16.0	0.8	89.0	-70.0	0.2	10.0	1.0	2.0	2.2872213381025475	4.114	n/a	stim	poldrack-single-stim	s608	False	1
254.982	0.818	255.8	-2.706530555326427	end_round	0.818	columbia_card_task_fmri	16.0	0.7777777777777778	71.0	-70.0	0.2222222222222222	10.0	2.0	2.0	3.6407463028228193	0.818	1.0	stim	poldrack-single-stim	s608	False	1
256.559	1.5	255.808	n/a	-1.0	2.386	columbia_card_task_fmri	n/a	n/a	-1.0	n/a	n/a	n/a	n/a	n/a	n/a	n/a	n/a	ITI	poldrack-single-stim	s608	False	0
258.196	2.373	260.569	-1.5120861108819823	draw_card	2.373	columbia_card_task_fmri	7.0	0.9166666666666666	89.0	-100.0	0.0833333333333333	12.0	1.0	1.0	-2.53915268507258	2.373	n/a	stim	poldrack-single-stim	s608	False	1
260.574	1.062	261.636	-2.3226921714880446	draw_card	1.062	columbia_card_task_fmri	7.0	0.9090909090909092	89.0	-100.0	0.0909090909090909	12.0	2.0	1.0	-1.3521599462950178	1.062	n/a	stim	poldrack-single-stim	s608	False	1
261.638	1.887	263.525	-3.2954194442153164	end_round	1.887	columbia_card_task_fmri	7.0	0.9	71.0	-100.0	0.1	12.0	3.0	1.0	-0.0126082122834247	1.887	2.0	stim	poldrack-single-stim	s608	False	1
264.28	1.5	263.529	n/a	-1.0	2.59	columbia_card_task_fmri	n/a	n/a	-1.0	n/a	n/a	n/a	n/a	n/a	n/a	n/a	n/a	ITI	poldrack-single-stim	s608	False	0
266.124	3.039	269.163	-1.2620861108819803	draw_card	3.039	columbia_card_task_fmri	14.0	0.8333333333333334	89.0	-80.0	0.1666666666666666	12.0	1.0	2.0	2.918910086481617	3.039	n/a	stim	poldrack-single-stim	s608	False	1
269.166	1.283	270.449	-2.6863285351244097	draw_card	1.283	columbia_card_task_fmri	14.0	0.8181818181818181	89.0	-80.0	0.1818181818181818	12.0	2.0	2.0	4.142392746329605	1.283	n/a	stim	poldrack-single-stim	s608	False	1
270.451	2.616	273.067	-4.395419444215315	end_round	2.616	columbia_card_task_fmri	14.0	0.8	71.0	-80.0	0.2	12.0	3.0	2.0	5.487018876634309	2.616	2.0	stim	poldrack-single-stim	s608	False	1
273.822	1.5	273.071	n/a	-1.0	2.318	columbia_card_task_fmri	n/a	n/a	-1.0	n/a	n/a	n/a	n/a	n/a	n/a	n/a	n/a	ITI	poldrack-single-stim	s608	False	0
275.393	4.287	279.68	0.4045805557846838	draw_card	4.287	columbia_card_task_fmri	15.0	0.8333333333333334	89.0	-75.0	0.1666666666666666	12.0	1.0	2.0	1.4283019237453445	4.287	n/a	stim	poldrack-single-stim	s608	False	1
279.683	1.135	280.818	-0.9590558078516812	draw_card	1.135	columbia_card_task_fmri	15.0	0.8181818181818181	89.0	-75.0	0.1818181818181818	12.0	2.0	2.0	2.599714633764414	1.135	n/a	stim	poldrack-single-stim	s608	False	1
280.822	2.293	283.115	-2.595419444215316	end_round	2.293	columbia_card_task_fmri	15.0	0.8	71.0	-75.0	0.2	12.0	3.0	2.0	3.887115608651392	2.293	2.0	stim	poldrack-single-stim	s608	False	1
283.869	1.5	283.118	n/a	-1.0	2.25	columbia_card_task_fmri	n/a	n/a	-1.0	n/a	n/a	n/a	n/a	n/a	n/a	n/a	n/a	ITI	poldrack-single-stim	s608	False	0
285.372	4.151	289.523	-0.5954194442153162	draw_card	4.151	columbia_card_task_fmri	15.0	0.8	89.0	-65.0	0.2	15.0	1.0	3.0	-0.1126002456816834	4.151	n/a	stim	poldrack-single-stim	s608	False	1
289.527	1.652	291.179	-1.7382765870724586	draw_card	1.652	columbia_card_task_fmri	15.0	0.7857142857142857	89.0	-65.0	0.2142857142857142	15.0	2.0	3.0	0.7134076658275461	1.652	n/a	stim	poldrack-single-stim	s608	False	1
291.184	1.173	292.357	-3.05695790575378	end_round	1.173	columbia_card_task_fmri	15.0	0.7692307692307692	71.0	-65.0	0.2307692307692307	15.0	3.0	3.0	1.5932738576492085	1.173	2.0	stim	poldrack-single-stim	s608	False	1
293.114	1.5	292.363	n/a	-1.0	2.454	columbia_card_task_fmri	n/a	n/a	-1.0	n/a	n/a	n/a	n/a	n/a	n/a	n/a	n/a	ITI	poldrack-single-stim	s608	False	0
294.821	3.145	297.966	-1.3454194442153162	draw_card	3.145	columbia_card_task_fmri	14.0	0.8125	89.0	-70.0	0.1875	16.0	1.0	3.0	0.6735779202172054	3.145	n/a	stim	poldrack-single-stim	s608	False	1
297.97	0.756	298.726	-2.395419444215315	draw_card	0.756	columbia_card_task_fmri	14.0	0.8	89.0	-70.0	0.2	16.0	2.0	3.0	1.4872779784816998	0.756	2.0	stim	poldrack-single-stim	s608	False	0
299.481	1.5	298.73	n/a	-1.0	3.27	columbia_card_task_fmri	n/a	n/a	-1.0	n/a	n/a	n/a	n/a	n/a	n/a	n/a	n/a	ITI	poldrack-single-stim	s608	False	0
302.004	2.887	304.891	-1.4079194442153162	draw_card	2.887	columbia_card_task_fmri	11.0	0.6875	89.0	-30.0	0.3125	16.0	1.0	5.0	-13.1068429903384	2.887	1.0	stim	poldrack-single-stim	s608	False	0
305.646	1.5	304.895	n/a	-1.0	2.25	columbia_card_task_fmri	n/a	n/a	-1.0	n/a	n/a	n/a	n/a	n/a	n/a	n/a	n/a	ITI	poldrack-single-stim	s608	False	0
307.149	2.521	309.67	3.404580555784684	draw_card	2.521	columbia_card_task_fmri	15.0	0.8666666666666667	89.0	-75.0	0.1333333333333333	15.0	1.0	2.0	-1.518365650891063	2.521	n/a	stim	poldrack-single-stim	s608	False	1
309.673	1.71	311.383	2.547437698641828	draw_card	1.71	columbia_card_task_fmri	15.0	0.8571428571428572	89.0	-75.0	0.1428571428571428	15.0	2.0	2.0	-0.6191195628079385	1.71	n/a	stim	poldrack-single-stim	s608	False	1
311.386	1.369	312.755	1.558426709630837	end_round	1.369	columbia_card_task_fmri	15.0	0.8461538461538461	71.0	-75.0	0.1538461538461538	15.0	3.0	2.0	0.359471680683356	1.369	2.0	stim	poldrack-single-stim	s608	False	1
313.512	1.5	312.761	n/a	-1.0	2.25	columbia_card_task_fmri	n/a	n/a	-1.0	n/a	n/a	n/a	n/a	n/a	n/a	n/a	n/a	ITI	poldrack-single-stim	s608	False	0
315.016	3.19	318.206	5.1379138891180185	draw_card	3.19	columbia_card_task_fmri	17.0	0.8666666666666667	89.0	-75.0	0.1333333333333333	15.0	1.0	2.0	-0.8385545295755179	3.19	n/a	stim	poldrack-single-stim	s608	False	1
318.21	1.492	319.702	4.261723412927544	draw_card	1.492	columbia_card_task_fmri	17.0	0.8571428571428572	89.0	-75.0	0.1428571428571428	15.0	2.0	2.0	0.0806781622869721	1.492	n/a	stim	poldrack-single-stim	s608	False	1
319.705	0.898	320.603	3.2507344019385305	end_round	0.898	columbia_card_task_fmri	17.0	0.8461538461538461	71.0	-75.0	0.1538461538461538	15.0	3.0	2.0	1.0810193202016976	0.898	2.0	stim	poldrack-single-stim	s608	False	1
321.359	1.5	320.608	n/a	-1.0	2.318	columbia_card_task_fmri	n/a	n/a	-1.0	n/a	n/a	n/a	n/a	n/a	n/a	n/a	n/a	ITI	poldrack-single-stim	s608	False	0
322.931	3.983	326.914	0.7170805557846838	draw_card	3.983	columbia_card_task_fmri	2.0	0.9375	89.0	-25.0	0.0625	16.0	1.0	1.0	-25.566987817816376	3.983	n/a	stim	poldrack-single-stim	s608	False	1
326.917	0.75	327.667	0.6045805557846837	draw_card	0.75	columbia_card_task_fmri	2.0	0.9333333333333332	89.0	-25.0	0.0666666666666666	16.0	2.0	1.0	-25.36803349448181	0.75	n/a	stim	poldrack-single-stim	s608	False	1
327.67	1.412	329.082	0.4760091272132554	draw_card	1.412	columbia_card_task_fmri	2.0	0.9285714285714286	89.0	-25.0	0.0714285714285714	16.0	3.0	1.0	-25.149834602778977	1.412	n/a	stim	poldrack-single-stim	s608	False	1
329.085	1.543	330.628	0.3276574788616069	end_round	1.543	columbia_card_task_fmri	2.0	0.9230769230769232	71.0	-25.0	0.0769230769230769	16.0	4.0	1.0	-24.90911866123443	1.543	3.0	stim	poldrack-single-stim	s608	False	1
331.382	1.5	330.631	n/a	-1.0	2.726	columbia_card_task_fmri	n/a	n/a	-1.0	n/a	n/a	n/a	n/a	n/a	n/a	n/a	n/a	ITI	poldrack-single-stim	s608	False	0
333.361	1.92	335.281	2.904580555784684	draw_card	1.92	columbia_card_task_fmri	9.0	0.9375	89.0	-95.0	0.0625	16.0	1.0	1.0	-6.937515157403361	1.92	n/a	stim	poldrack-single-stim	s608	False	1
335.284	0.712	335.996	2.471247222451351	draw_card	0.712	columbia_card_task_fmri	9.0	0.9333333333333332	89.0	-95.0	0.0666666666666666	16.0	2.0	1.0	-6.169845223274468	0.712	n/a	stim	poldrack-single-stim	s608	False	1
336.001	1.284	337.285	1.976009127213256	draw_card	1.284	columbia_card_task_fmri	9.0	0.9285714285714286	89.0	-95.0	0.0714285714285714	16.0	3.0	1.0	-5.328007067395873	1.284	n/a	stim	poldrack-single-stim	s608	False	1
337.289	1.864	339.153	1.4045805557846838	draw_card	1.864	columbia_card_task_fmri	9.0	0.9230769230769232	89.0	-95.0	0.0769230769230769	16.0	4.0	1.0	-4.39939171997905	1.864	4.0	stim	poldrack-single-stim	s608	False	0
339.91	1.5	339.159	n/a	-1.0	2.386	columbia_card_task_fmri	n/a	n/a	-1.0	n/a	n/a	n/a	n/a	n/a	n/a	n/a	n/a	ITI	poldrack-single-stim	s608	False	0
341.55	2.478	344.028	4.467080555784684	draw_card	2.478	columbia_card_task_fmri	11.0	0.9375	89.0	-100.0	0.0625	16.0	1.0	1.0	-5.243289926118077	2.478	n/a	stim	poldrack-single-stim	s608	False	1
344.032	0.915	344.947	4.004580555784685	draw_card	0.915	columbia_card_task_fmri	11.0	0.9333333333333332	89.0	-100.0	0.0666666666666666	16.0	2.0	1.0	-4.423937361042853	0.915	2.0	stim	poldrack-single-stim	s608	False	0
345.702	1.5	344.951	n/a	-1.0	2.318	columbia_card_task_fmri	n/a	n/a	-1.0	n/a	n/a	n/a	n/a	n/a	n/a	n/a	n/a	ITI	poldrack-single-stim	s608	False	0
347.274	1.769	349.043	5.029580555784684	draw_card	1.769	columbia_card_task_fmri	16.0	0.875	89.0	-75.0	0.125	16.0	1.0	2.0	-2.017017247064945	1.769	n/a	stim	poldrack-single-stim	s608	False	1
349.047	0.677	349.724	4.271247222451351	draw_card	0.677	columbia_card_task_fmri	16.0	0.8666666666666667	89.0	-75.0	0.1333333333333333	16.0	2.0	2.0	-1.1784604096822164	0.677	2.0	stim	poldrack-single-stim	s608	False	0
350.48	1.5	349.729	n/a	-1.0	2.25	columbia_card_task_fmri	n/a	n/a	-1.0	n/a	n/a	n/a	n/a	n/a	n/a	n/a	n/a	ITI	poldrack-single-stim	s608	False	0
351.982	1.512	353.494	5.279580555784684	draw_card	1.512	columbia_card_task_fmri	17.0	0.875	89.0	-80.0	0.125	16.0	1.0	2.0	-0.0328719551775549	1.512	n/a	stim	poldrack-single-stim	s608	False	1
353.498	1.392	354.89	4.471247222451352	draw_card	1.392	columbia_card_task_fmri	17.0	0.8666666666666667	89.0	-80.0	0.1333333333333333	16.0	2.0	2.0	0.8609837629445067	1.392	n/a	stim	poldrack-single-stim	s608	False	1
354.893	1.01	355.903	3.5474376986418297	draw_card	1.01	columbia_card_task_fmri	17.0	0.8571428571428572	89.0	-80.0	0.1428571428571428	16.0	3.0	2.0	1.8301826648675568	1.01	n/a	stim	poldrack-single-stim	s608	False	1
355.907	1.392	357.299	2.4815036327077604	end_round	1.392	columbia_card_task_fmri	17.0	0.8461538461538461	71.0	-80.0	0.1538461538461538	16.0	4.0	2.0	2.8848983018677643	1.392	3.0	stim	poldrack-single-stim	s608	False	1
358.058	1.5	357.307	n/a	-1.0	2.25	columbia_card_task_fmri	n/a	n/a	-1.0	n/a	n/a	n/a	n/a	n/a	n/a	n/a	n/a	ITI	poldrack-single-stim	s608	False	0
370.571	1.97	372.541	-0.4287527775486483	draw_card	1.97	columbia_card_task_fmri	13.0	0.8333333333333334	89.0	-70.0	0.1666666666666666	6.0	1.0	1.0	-1.1802382846716952	1.97	n/a	stim	poldrack-single-stim	s608	False	1
372.544	1.992	374.536	-3.195419444215316	draw_card	1.992	columbia_card_task_fmri	13.0	0.8	89.0	-70.0	0.2	6.0	2.0	1.0	1.0873073221803722	1.992	n/a	stim	poldrack-single-stim	s608	False	1
374.54	0.73	375.27	-7.345419444215316	end_round	0.73	columbia_card_task_fmri	13.0	0.75	71.0	-70.0	0.25	6.0	3.0	1.0	3.827173657248103	0.73	2.0	stim	poldrack-single-stim	s608	False	1
376.025	1.5	375.274	n/a	-1.0	2.454	columbia_card_task_fmri	n/a	n/a	-1.0	n/a	n/a	n/a	n/a	n/a	n/a	n/a	n/a	ITI	poldrack-single-stim	s608	False	0
377.733	1.217	378.95	-0.4287527775486483	draw_card	1.217	columbia_card_task_fmri	15.0	0.8333333333333334	89.0	-80.0	0.1666666666666666	6.0	1.0	1.0	3.2915634931113686	1.217	1.0	stim	poldrack-single-stim	s608	False	0
379.705	1.5	378.954	n/a	-1.0	2.454	columbia_card_task_fmri	n/a	n/a	-1.0	n/a	n/a	n/a	n/a	n/a	n/a	n/a	n/a	ITI	poldrack-single-stim	s608	False	0
381.413	3.077	384.49	1.2379138891180177	draw_card	3.077	columbia_card_task_fmri	16.0	0.8333333333333334	89.0	-75.0	0.1666666666666666	6.0	1.0	1.0	1.8009531088421014	3.077	n/a	stim	poldrack-single-stim	s608	False	1
384.494	0.895	385.389	-1.7954194442153155	draw_card	0.895	columbia_card_task_fmri	16.0	0.8	89.0	-75.0	0.2	6.0	2.0	1.0	4.287090628478566	0.895	n/a	stim	poldrack-single-stim	s608	False	1
385.393	0.921	386.314	-6.345419444215316	end_round	0.921	columbia_card_task_fmri	16.0	0.75	71.0	-75.0	0.25	6.0	3.0	1.0	7.291075096328036	0.921	2.0	stim	poldrack-single-stim	s608	False	1
387.072	1.5	386.321	n/a	-1.0	2.522	columbia_card_task_fmri	n/a	n/a	-1.0	n/a	n/a	n/a	n/a	n/a	n/a	n/a	n/a	ITI	poldrack-single-stim	s608	False	0
388.847	1.967	390.814	2.404580555784684	draw_card	1.967	columbia_card_task_fmri	21.0	0.75	89.0	-55.0	0.25	8.0	1.0	2.0	0.7962944643388283	1.967	n/a	stim	poldrack-single-stim	s608	False	1
390.818	2.103	392.921	-0.3097051585010297	draw_card	2.103	columbia_card_task_fmri	21.0	0.7142857142857143	89.0	-55.0	0.2857142857142857	8.0	2.0	2.0	2.220526270020599	2.103	2.0	stim	poldrack-single-stim	s608	False	0
393.678	1.5	392.927	n/a	-1.0	2.386	columbia_card_task_fmri	n/a	n/a	-1.0	n/a	n/a	n/a	n/a	n/a	n/a	n/a	n/a	ITI	poldrack-single-stim	s608	False	0
395.316	1.344	396.66	3.654580555784684	draw_card	1.344	columbia_card_task_fmri	26.0	0.75	89.0	-65.0	0.25	8.0	1.0	2.0	7.291075096328036	1.344	n/a	stim	poldrack-single-stim	s608	False	1
396.665	0.59	397.255	0.4045805557846874	draw_card	0.59	columbia_card_task_fmri	26.0	0.7142857142857143	89.0	-65.0	0.2857142857142857	8.0	2.0	2.0	8.996442647128191	0.59	n/a	stim	poldrack-single-stim	s608	False	1
397.258	1.303	398.561	-3.928752777548645	end_round	1.303	columbia_card_task_fmri	26.0	0.6666666666666667	71.0	-65.0	0.3333333333333333	8.0	3.0	2.0	10.784561474175568	1.303	2.0	stim	poldrack-single-stim	s608	False	1
399.318	1.5	398.567	n/a	-1.0	2.454	columbia_card_task_fmri	n/a	n/a	-1.0	n/a	n/a	n/a	n/a	n/a	n/a	n/a	n/a	ITI	poldrack-single-stim	s608	False	0
401.025	2.429	403.454	-1.2620861108819823	draw_card	2.429	columbia_card_task_fmri	15.0	0.7777777777777778	89.0	-60.0	0.2222222222222222	9.0	1.0	2.0	-0.9320548094040682	2.429	1.0	stim	poldrack-single-stim	s608	False	0
404.209	1.5	403.458	n/a	-1.0	2.522	columbia_card_task_fmri	n/a	n/a	-1.0	n/a	n/a	n/a	n/a	n/a	n/a	n/a	n/a	ITI	poldrack-single-stim	s608	False	0
405.984	3.386	409.37	3.104580555784685	draw_card	3.386	columbia_card_task_fmri	13.0	0.9	89.0	-90.0	0.1	10.0	1.0	1.0	-1.212509210281116	3.386	n/a	stim	poldrack-single-stim	s608	False	1
409.375	2.187	411.562	1.9601361113402391	end_round	2.187	columbia_card_task_fmri	13.0	0.8888888888888888	71.0	-90.0	0.1111111111111111	10.0	2.0	1.0	0.2571476354536983	2.187	1.0	stim	poldrack-single-stim	s608	False	1
412.316	1.5	411.565	n/a	-1.0	2.522	columbia_card_task_fmri	n/a	n/a	-1.0	n/a	n/a	n/a	n/a	n/a	n/a	n/a	n/a	ITI	poldrack-single-stim	s608	False	0
414.093	1.904	415.997	4.404580555784684	draw_card	1.904	columbia_card_task_fmri	15.0	0.9	89.0	-95.0	0.1	10.0	1.0	1.0	0.8873222607607829	1.904	n/a	stim	poldrack-single-stim	s608	False	1
416.001	0.713	416.714	3.182358333562461	draw_card	0.713	columbia_card_task_fmri	15.0	0.8888888888888888	89.0	-95.0	0.1111111111111111	10.0	2.0	1.0	2.456874520665714	0.713	2.0	stim	poldrack-single-stim	s608	False	0
417.469	1.5	416.718	n/a	-1.0	2.59	columbia_card_task_fmri	n/a	n/a	-1.0	n/a	n/a	n/a	n/a	n/a	n/a	n/a	n/a	ITI	poldrack-single-stim	s608	False	0
419.313	1.105	420.418	0.2045805557846845	draw_card	1.105	columbia_card_task_fmri	16.0	0.8	89.0	-65.0	0.2	10.0	1.0	2.0	0.2873681829359427	1.105	1.0	stim	poldrack-single-stim	s608	False	0
421.177	1.5	420.426	n/a	-1.0	2.454	columbia_card_task_fmri	n/a	n/a	-1.0	n/a	n/a	n/a	n/a	n/a	n/a	n/a	n/a	ITI	poldrack-single-stim	s608	False	0
422.884	1.595	424.479	-1.0954194442153162	draw_card	1.595	columbia_card_task_fmri	7.0	0.9166666666666666	89.0	-95.0	0.0833333333333333	12.0	1.0	1.0	-3.920944041303315	1.595	n/a	stim	poldrack-single-stim	s608	False	1
424.482	2.38	426.862	-1.8681467169425896	draw_card	2.38	columbia_card_task_fmri	7.0	0.9090909090909092	89.0	-95.0	0.0909090909090909	12.0	2.0	1.0	-2.7894284761243675	2.38	n/a	stim	poldrack-single-stim	s608	False	1
426.866	1.952	428.818	-2.7954194442153164	end_round	1.952	columbia_card_task_fmri	7.0	0.9	71.0	-95.0	0.1	12.0	3.0	1.0	-1.512483246676755	1.952	2.0	stim	poldrack-single-stim	s608	False	1
429.572	1.5	428.821	n/a	-1.0	2.318	columbia_card_task_fmri	n/a	n/a	-1.0	n/a	n/a	n/a	n/a	n/a	n/a	n/a	n/a	ITI	poldrack-single-stim	s608	False	0
431.145	4.439	435.584	-0.4287527775486483	draw_card	4.439	columbia_card_task_fmri	14.0	0.8333333333333334	89.0	-75.0	0.1666666666666666	12.0	1.0	2.0	1.0556513410799226	4.439	n/a	stim	poldrack-single-stim	s608	False	1
435.588	1.888	437.476	-1.7772376260334997	draw_card	1.888	columbia_card_task_fmri	14.0	0.8181818181818181	89.0	-75.0	0.1818181818181818	12.0	2.0	2.0	2.2140465144558164	1.888	n/a	stim	poldrack-single-stim	s608	False	1
437.48	1.056	438.536	-3.395419444215315	end_round	1.056	columbia_card_task_fmri	14.0	0.8	71.0	-75.0	0.2	12.0	3.0	2.0	3.487141150122632	1.056	2.0	stim	poldrack-single-stim	s608	False	1
439.292	1.5	438.541	n/a	-1.0	2.25	columbia_card_task_fmri	n/a	n/a	-1.0	n/a	n/a	n/a	n/a	n/a	n/a	n/a	n/a	ITI	poldrack-single-stim	s608	False	0
440.796	2.279	443.075	1.2379138891180177	draw_card	2.279	columbia_card_task_fmri	15.0	0.8333333333333334	89.0	-70.0	0.1666666666666666	12.0	1.0	2.0	-0.4349445400891305	2.279	n/a	stim	poldrack-single-stim	s608	False	1
443.079	1.054	444.133	-0.0499648987607729	draw_card	1.054	columbia_card_task_fmri	15.0	0.8181818181818181	89.0	-70.0	0.1818181818181818	12.0	2.0	2.0	0.6713802691478961	1.054	n/a	stim	poldrack-single-stim	s608	False	1
444.137	2.171	446.308	-1.5954194442153162	end_round	2.171	columbia_card_task_fmri	15.0	0.8	71.0	-70.0	0.2	12.0	3.0	2.0	1.887249325148808	2.171	2.0	stim	poldrack-single-stim	s608	False	1
447.066	1.5	446.315	n/a	-1.0	2.658	columbia_card_task_fmri	n/a	n/a	-1.0	n/a	n/a	n/a	n/a	n/a	n/a	n/a	n/a	ITI	poldrack-single-stim	s608	False	0
448.977	2.383	451.36	-0.7954194442153155	draw_card	2.383	columbia_card_task_fmri	16.0	0.8	89.0	-70.0	0.2	15.0	1.0	3.0	2.2872213381025475	2.383	n/a	stim	poldrack-single-stim	s608	False	1
451.364	1.583	452.947	-2.023990872786745	draw_card	1.583	columbia_card_task_fmri	16.0	0.7857142857142857	89.0	-70.0	0.2142857142857142	15.0	2.0	3.0	3.1751891584578047	1.583	n/a	stim	poldrack-single-stim	s608	False	1
452.952	0.692	453.644	-3.441573290369163	end_round	0.692	columbia_card_task_fmri	16.0	0.7692307692307692	71.0	-70.0	0.2307692307692307	15.0	3.0	3.0	4.121054735375068	0.692	2.0	stim	poldrack-single-stim	s608	False	1
454.401	1.5	453.65	n/a	-1.0	2.454	columbia_card_task_fmri	n/a	n/a	-1.0	n/a	n/a	n/a	n/a	n/a	n/a	n/a	n/a	ITI	poldrack-single-stim	s608	False	0
456.11	1.343	457.453	-0.4079194442153162	draw_card	1.343	columbia_card_task_fmri	14.0	0.8125	89.0	-65.0	0.1875	16.0	1.0	3.0	-1.2778259828618026	1.343	1.0	stim	poldrack-single-stim	s608	False	0
458.208	1.5	457.457	n/a	-1.0	2.386	columbia_card_task_fmri	n/a	n/a	-1.0	n/a	n/a	n/a	n/a	n/a	n/a	n/a	n/a	ITI	poldrack-single-stim	s608	False	0
459.848	2.339	462.187	-0.6579194442153162	draw_card	2.339	columbia_card_task_fmri	16.0	0.8125	89.0	-75.0	0.1875	16.0	1.0	3.0	3.4055725454222454	2.339	1.0	stim	poldrack-single-stim	s608	False	0
462.942	1.5	462.191	n/a	-1.0	2.59	columbia_card_task_fmri	n/a	n/a	-1.0	n/a	n/a	n/a	n/a	n/a	n/a	n/a	n/a	ITI	poldrack-single-stim	s608	False	0
464.786	2.167	466.953	3.604580555784685	draw_card	2.167	columbia_card_task_fmri	16.0	0.8666666666666667	89.0	-80.0	0.1333333333333333	15.0	1.0	2.0	0.5210749805825046	2.167	n/a	stim	poldrack-single-stim	s608	False	1
466.958	0.932	467.89	2.690294841498972	draw_card	0.932	columbia_card_task_fmri	16.0	0.8571428571428572	89.0	-80.0	0.1428571428571428	15.0	2.0	2.0	1.480280672571702	0.932	n/a	stim	poldrack-single-stim	s608	False	1
467.894	0.993	468.887	1.6353497865539135	end_round	0.993	columbia_card_task_fmri	16.0	0.8461538461538461	71.0	-80.0	0.1538461538461538	15.0	3.0	2.0	2.5241214466457365	0.993	2.0	stim	poldrack-single-stim	s608	False	1
469.644	1.5	468.893	n/a	-1.0	2.318	columbia_card_task_fmri	n/a	n/a	-1.0	n/a	n/a	n/a	n/a	n/a	n/a	n/a	n/a	ITI	poldrack-single-stim	s608	False	0
471.217	1.928	473.145	4.471247222451352	draw_card	1.928	columbia_card_task_fmri	17.0	0.8666666666666667	89.0	-80.0	0.1333333333333333	15.0	1.0	2.0	0.8609837629445067	1.928	n/a	stim	poldrack-single-stim	s608	False	1
473.15	1.751	474.901	3.5474376986418297	draw_card	1.751	columbia_card_task_fmri	17.0	0.8571428571428572	89.0	-80.0	0.1428571428571428	15.0	2.0	2.0	1.8301826648675568	1.751	n/a	stim	poldrack-single-stim	s608	False	1
474.905	2.907	477.812	2.4815036327077604	draw_card	2.907	columbia_card_task_fmri	17.0	0.8461538461538461	89.0	-80.0	0.1538461538461538	15.0	3.0	2.0	2.8848983018677643	2.907	n/a	stim	poldrack-single-stim	s608	False	1
477.817	1.311	479.128	1.2379138891180197	end_round	1.311	columbia_card_task_fmri	17.0	0.8333333333333334	71.0	-80.0	0.1666666666666666	15.0	4.0	2.0	4.036871827232929	1.311	3.0	stim	poldrack-single-stim	s608	False	1
479.887	1.5	479.136	n/a	-1.0	2.59	columbia_card_task_fmri	n/a	n/a	-1.0	n/a	n/a	n/a	n/a	n/a	n/a	n/a	n/a	ITI	poldrack-single-stim	s608	False	0
481.731	2.963	484.694	0.4045805557846838	draw_card	2.963	columbia_card_task_fmri	1.0	0.9375	89.0	-15.0	0.0625	16.0	1.0	1.0	-28.221100021179684	2.963	n/a	stim	poldrack-single-stim	s608	False	1
484.699	1.81	486.509	0.3379138891180172	draw_card	1.81	columbia_card_task_fmri	1.0	0.9333333333333332	89.0	-15.0	0.0666666666666666	16.0	2.0	1.0	-28.103602628930183	1.81	n/a	stim	poldrack-single-stim	s608	False	1
486.513	1.676	488.189	0.261723412927541	end_round	1.676	columbia_card_task_fmri	1.0	0.9285714285714286	71.0	-15.0	0.0714285714285714	16.0	3.0	1.0	-27.97471363821322	1.676	2.0	stim	poldrack-single-stim	s608	False	1
488.945	1.5	488.194	n/a	-1.0	2.386	columbia_card_task_fmri	n/a	n/a	-1.0	n/a	n/a	n/a	n/a	n/a	n/a	n/a	n/a	ITI	poldrack-single-stim	s608	False	0
490.585	2.6	493.185	3.529580555784684	draw_card	2.6	columbia_card_task_fmri	10.0	0.9375	89.0	-100.0	0.0625	16.0	1.0	1.0	-5.485323699002613	2.6	n/a	stim	poldrack-single-stim	s608	False	1
493.189	1.618	494.807	3.0712472224513507	end_round	1.618	columbia_card_task_fmri	10.0	0.9333333333333332	71.0	-100.0	0.0666666666666666	16.0	2.0	1.0	-4.6733543196887375	1.618	1.0	stim	poldrack-single-stim	s608	False	1
495.562	1.5	494.811	n/a	-1.0	2.318	columbia_card_task_fmri	n/a	n/a	-1.0	n/a	n/a	n/a	n/a	n/a	n/a	n/a	n/a	ITI	poldrack-single-stim	s608	False	0
497.135	1.529	498.664	4.154580555784684	draw_card	1.529	columbia_card_task_fmri	15.0	0.875	89.0	-75.0	0.125	16.0	1.0	2.0	-2.34770594908084	1.529	n/a	stim	poldrack-single-stim	s608	False	1
498.669	1.184	499.853	3.404580555784684	draw_card	1.184	columbia_card_task_fmri	15.0	0.8666666666666667	89.0	-75.0	0.1333333333333333	16.0	2.0	2.0	-1.518365650891063	1.184	2.0	stim	poldrack-single-stim	s608	False	0
500.608	1.5	499.857	n/a	-1.0	2.318	columbia_card_task_fmri	n/a	n/a	-1.0	n/a	n/a	n/a	n/a	n/a	n/a	n/a	n/a	ITI	poldrack-single-stim	s608	False	0
502.181	3.639	505.82	4.404580555784684	draw_card	3.639	columbia_card_task_fmri	16.0	0.875	89.0	-80.0	0.125	16.0	1.0	2.0	-0.3635642969732409	3.639	n/a	stim	poldrack-single-stim	s608	False	1
505.826	1.661	507.487	3.604580555784685	draw_card	1.661	columbia_card_task_fmri	16.0	0.8666666666666667	89.0	-80.0	0.1333333333333333	16.0	2.0	2.0	0.5210749805825046	1.661	n/a	stim	poldrack-single-stim	s608	False	1
507.492	0.733	508.225	2.690294841498972	end_round	0.733	columbia_card_task_fmri	16.0	0.8571428571428572	71.0	-80.0	0.1428571428571428	16.0	3.0	2.0	1.480280672571702	0.733	2.0	stim	poldrack-single-stim	s608	False	1
508.981	1.5	508.23	n/a	-1.0	2.318	columbia_card_task_fmri	n/a	n/a	-1.0	n/a	n/a	n/a	n/a	n/a	n/a	n/a	n/a	ITI	poldrack-single-stim	s608	False	0
510.553	2.418	512.971	1.5920805557846838	draw_card	2.418	columbia_card_task_fmri	4.0	0.6875	89.0	-5.0	0.3125	16.0	1.0	5.0	-27.923973029864094	2.418	n/a	stim	poldrack-single-stim	s608	False	1
512.976	1.325	514.301	1.4045805557846842	draw_card	1.325	columbia_card_task_fmri	4.0	0.6666666666666667	89.0	-5.0	0.3333333333333333	16.0	2.0	5.0	-27.853270185625032	1.325	2.0	stim	poldrack-single-stim	s608	False	0
515.057	1.5	514.306	n/a	-1.0	2.386	columbia_card_task_fmri	n/a	n/a	-1.0	n/a	n/a	n/a	n/a	n/a	n/a	n/a	n/a	ITI	poldrack-single-stim	s608	False	0
516.699	1.748	518.447	-1.2620861108819803	draw_card	1.748	columbia_card_task_fmri	14.0	0.8333333333333334	89.0	-80.0	0.1666666666666666	6.0	1.0	1.0	2.918910086481617	1.748	1.0	stim	poldrack-single-stim	s608	False	0
519.204	1.5	518.453	n/a	-1.0	2.25	columbia_card_task_fmri	n/a	n/a	-1.0	n/a	n/a	n/a	n/a	n/a	n/a	n/a	n/a	ITI	poldrack-single-stim	s608	False	0
520.708	2.655	523.363	0.4045805557846838	draw_card	2.655	columbia_card_task_fmri	15.0	0.8333333333333334	89.0	-75.0	0.1666666666666666	6.0	1.0	1.0	1.4283019237453445	2.655	n/a	stim	poldrack-single-stim	s608	False	1
523.369	1.087	524.456	-2.595419444215316	end_round	1.087	columbia_card_task_fmri	15.0	0.8	71.0	-75.0	0.2	6.0	2.0	1.0	3.887115608651392	1.087	1.0	stim	poldrack-single-stim	s608	False	1
525.212	1.5	524.461	n/a	-1.0	2.386	columbia_card_task_fmri	n/a	n/a	-1.0	n/a	n/a	n/a	n/a	n/a	n/a	n/a	n/a	ITI	poldrack-single-stim	s608	False	0
526.853	3.567	530.42	2.071247222451352	draw_card	3.567	columbia_card_task_fmri	16.0	0.8333333333333334	89.0	-70.0	0.1666666666666666	6.0	1.0	1.0	-0.0622965822101733	3.567	n/a	stim	poldrack-single-stim	s608	False	1
530.424	0.718	531.142	-0.7954194442153155	end_round	0.718	columbia_card_task_fmri	16.0	0.8	71.0	-70.0	0.2	6.0	2.0	1.0	2.2872213381025475	0.718	1.0	stim	poldrack-single-stim	s608	False	1
531.899	1.5	531.148	n/a	-1.0	2.59	columbia_card_task_fmri	n/a	n/a	-1.0	n/a	n/a	n/a	n/a	n/a	n/a	n/a	n/a	ITI	poldrack-single-stim	s608	False	0
533.745	1.995	535.74	2.654580555784684	draw_card	1.995	columbia_card_task_fmri	23.0	0.75	89.0	-60.0	0.25	8.0	1.0	2.0	3.827173657248103	1.995	n/a	stim	poldrack-single-stim	s608	False	1
535.745	1.37	537.115	-0.3097051585010279	draw_card	1.37	columbia_card_task_fmri	23.0	0.7142857142857143	89.0	-60.0	0.2857142857142857	8.0	2.0	2.0	5.38260290851138	1.37	n/a	stim	poldrack-single-stim	s608	False	1
537.127	2.312	539.439	-4.26208611088198	draw_card	2.312	columbia_card_task_fmri	23.0	0.6666666666666667	89.0	-60.0	0.3333333333333333	8.0	3.0	2.0	7.013509183794788	2.312	n/a	stim	poldrack-single-stim	s608	False	1
539.444	2.901	542.345	-9.795419444215318	end_round	2.901	columbia_card_task_fmri	23.0	0.6	71.0	-60.0	0.4	8.0	4.0	2.0	8.54838473210151	2.901	3.0	stim	poldrack-single-stim	s608	False	1
543.101	1.5	542.35	n/a	-1.0	2.658	columbia_card_task_fmri	n/a	n/a	-1.0	n/a	n/a	n/a	n/a	n/a	n/a	n/a	n/a	ITI	poldrack-single-stim	s608	False	0
545.012	3.133	548.145	3.154580555784684	draw_card	3.133	columbia_card_task_fmri	27.0	0.75	89.0	-70.0	0.25	8.0	1.0	2.0	9.88902284255471	3.133	n/a	stim	poldrack-single-stim	s608	False	1
548.149	0.677	548.826	-0.3097051585010315	draw_card	0.677	columbia_card_task_fmri	27.0	0.7142857142857143	89.0	-70.0	0.2857142857142857	8.0	2.0	2.0	11.706843219417388	0.677	n/a	stim	poldrack-single-stim	s608	False	1
548.83	0.926	549.756	-4.928752777548644	end_round	0.926	columbia_card_task_fmri	27.0	0.6666666666666667	71.0	-70.0	0.3333333333333333	8.0	3.0	2.0	13.612870594798622	0.926	2.0	stim	poldrack-single-stim	s608	False	1
550.515	1.5	549.764	n/a	-1.0	2.386	columbia_card_task_fmri	n/a	n/a	-1.0	n/a	n/a	n/a	n/a	n/a	n/a	n/a	n/a	ITI	poldrack-single-stim	s608	False	0
552.156	2.048	554.204	-1.5954194442153145	draw_card	2.048	columbia_card_task_fmri	16.0	0.7777777777777778	89.0	-65.0	0.2222222222222222	9.0	1.0	2.0	1.5621890411294856	2.048	n/a	stim	poldrack-single-stim	s608	False	1
554.209	1.275	555.484	-3.845419444215316	draw_card	1.275	columbia_card_task_fmri	16.0	0.75	89.0	-65.0	0.25	9.0	2.0	2.0	2.9612044751625746	1.275	n/a	stim	poldrack-single-stim	s608	False	1
555.489	0.701	556.19	-6.738276587072456	end_round	0.701	columbia_card_task_fmri	16.0	0.7142857142857143	71.0	-65.0	0.2857142857142857	9.0	3.0	2.0	4.479148895344821	0.701	2.0	stim	poldrack-single-stim	s608	False	1
556.945	1.5	556.194	n/a	-1.0	2.386	columbia_card_task_fmri	n/a	n/a	-1.0	n/a	n/a	n/a	n/a	n/a	n/a	n/a	n/a	ITI	poldrack-single-stim	s608	False	0
558.586	2.903	561.489	3.604580555784685	draw_card	2.903	columbia_card_task_fmri	13.0	0.9	89.0	-85.0	0.1	10.0	1.0	1.0	-2.7123740942949865	2.903	n/a	stim	poldrack-single-stim	s608	False	1
561.494	0.678	562.172	2.5156916668957945	end_round	0.678	columbia_card_task_fmri	13.0	0.8888888888888888	71.0	-85.0	0.1111111111111111	10.0	2.0	1.0	-1.3140717847045842	0.678	1.0	stim	poldrack-single-stim	s608	False	1
562.928	1.5	562.177	n/a	-1.0	2.25	columbia_card_task_fmri	n/a	n/a	-1.0	n/a	n/a	n/a	n/a	n/a	n/a	n/a	n/a	ITI	poldrack-single-stim	s608	False	0
564.434	1.529	565.963	-1.3954194442153152	draw_card	1.529	columbia_card_task_fmri	14.0	0.8	89.0	-65.0	0.2	10.0	1.0	2.0	-0.5125678751208405	1.529	n/a	stim	poldrack-single-stim	s608	False	1
565.968	0.832	566.8	-3.15097499977087	draw_card	0.832	columbia_card_task_fmri	14.0	0.7777777777777778	89.0	-65.0	0.2222222222222222	10.0	2.0	2.0	0.7307711435257715	0.832	n/a	stim	poldrack-single-stim	s608	False	1
566.805	1.393	568.198	-5.345419444215316	end_round	1.393	columbia_card_task_fmri	14.0	0.75	71.0	-65.0	0.25	10.0	3.0	2.0	2.09523813945399	1.393	2.0	stim	poldrack-single-stim	s608	False	1
568.954	1.5	568.203	n/a	-1.0	2.318	columbia_card_task_fmri	n/a	n/a	-1.0	n/a	n/a	n/a	n/a	n/a	n/a	n/a	n/a	ITI	poldrack-single-stim	s608	False	0
570.527	1.619	572.146	0.0045805557846852	draw_card	1.619	columbia_card_task_fmri	17.0	0.8	89.0	-70.0	0.2	10.0	1.0	2.0	2.687193994370688	1.619	n/a	stim	poldrack-single-stim	s608	False	1
572.152	1.054	573.206	-1.9287527775486484	end_round	1.054	columbia_card_task_fmri	17.0	0.7777777777777778	71.0	-70.0	0.2222222222222222	10.0	2.0	2.0	4.056459703752914	1.054	1.0	stim	poldrack-single-stim	s608	False	1
573.963	1.5	573.212	n/a	-1.0	2.25	columbia_card_task_fmri	n/a	n/a	-1.0	n/a	n/a	n/a	n/a	n/a	n/a	n/a	n/a	ITI	poldrack-single-stim	s608	False	0
575.468	1.446	576.914	-1.2620861108819823	draw_card	1.446	columbia_card_task_fmri	13.0	0.8333333333333334	89.0	-75.0	0.1666666666666666	12.0	1.0	2.0	0.6830013813802083	1.446	n/a	stim	poldrack-single-stim	s608	False	1
576.919	0.874	577.793	-2.595419444215318	end_round	0.874	columbia_card_task_fmri	13.0	0.8181818181818181	71.0	-75.0	0.1818181818181818	12.0	2.0	2.0	1.82837899709768	0.874	1.0	stim	poldrack-single-stim	s608	False	1
578.55	1.5	577.799	n/a	-1.0	2.25	columbia_card_task_fmri	n/a	n/a	-1.0	n/a	n/a	n/a	n/a	n/a	n/a	n/a	n/a	ITI	poldrack-single-stim	s608	False	0
580.056	1.11	581.166	0.4045805557846856	draw_card	1.11	columbia_card_task_fmri	14.0	0.8333333333333334	89.0	-70.0	0.1666666666666666	12.0	1.0	2.0	-0.8075917828573189	1.11	n/a	stim	poldrack-single-stim	s608	False	1
581.17	0.935	582.105	-0.8681467169425914	draw_card	0.935	columbia_card_task_fmri	14.0	0.8181818181818181	89.0	-70.0	0.1818181818181818	12.0	2.0	2.0	0.2857153770701686	0.935	n/a	stim	poldrack-single-stim	s608	False	1
582.11	1.515	583.625	-2.395419444215315	end_round	1.515	columbia_card_task_fmri	14.0	0.8	71.0	-70.0	0.2	12.0	3.0	2.0	1.4872779784816998	1.515	2.0	stim	poldrack-single-stim	s608	False	1
584.382	1.5	583.631	n/a	-1.0	2.386	columbia_card_task_fmri	n/a	n/a	-1.0	n/a	n/a	n/a	n/a	n/a	n/a	n/a	n/a	ITI	poldrack-single-stim	s608	False	0
586.024	1.361	587.385	0.4045805557846856	draw_card	1.361	columbia_card_task_fmri	16.0	0.8333333333333334	89.0	-80.0	0.1666666666666666	12.0	1.0	2.0	3.664217411975237	1.361	n/a	stim	poldrack-single-stim	s608	False	1
587.39	1.417	588.807	-1.049964898760773	draw_card	1.417	columbia_card_task_fmri	16.0	0.8181818181818181	89.0	-80.0	0.1818181818181818	12.0	2.0	2.0	4.913734937295608	1.417	2.0	stim	poldrack-single-stim	s608	False	0
589.566	1.5	588.815	n/a	-1.0	2.386	columbia_card_task_fmri	n/a	n/a	-1.0	n/a	n/a	n/a	n/a	n/a	n/a	n/a	n/a	ITI	poldrack-single-stim	s608	False	0
591.209	0.934	592.143	0.2045805557846845	draw_card	0.934	columbia_card_task_fmri	16.0	0.8	89.0	-65.0	0.2	15.0	1.0	3.0	0.2873681829359427	0.934	n/a	stim	poldrack-single-stim	s608	False	1
592.149	0.974	593.123	-0.952562301358172	draw_card	0.974	columbia_card_task_fmri	16.0	0.7857142857142857	89.0	-65.0	0.2142857142857142	15.0	2.0	3.0	1.123702792086064	0.974	n/a	stim	poldrack-single-stim	s608	False	1
593.129	0.881	594.01	-2.2877271365230096	end_round	0.881	columbia_card_task_fmri	16.0	0.7692307692307692	71.0	-65.0	0.2307692307692307	15.0	3.0	3.0	2.014568928112759	0.881	2.0	stim	poldrack-single-stim	s608	False	1
594.768	1.5	594.017	n/a	-1.0	2.726	columbia_card_task_fmri	n/a	n/a	-1.0	n/a	n/a	n/a	n/a	n/a	n/a	n/a	n/a	ITI	poldrack-single-stim	s608	False	0
596.749	1.404	598.153	-1.4704194442153162	draw_card	1.404	columbia_card_task_fmri	15.0	0.8125	89.0	-75.0	0.1875	16.0	1.0	3.0	3.015285770587141	1.404	n/a	stim	poldrack-single-stim	s608	False	1
598.158	0.63	598.788	-2.595419444215316	draw_card	0.63	columbia_card_task_fmri	15.0	0.8	89.0	-75.0	0.2	16.0	2.0	3.0	3.887115608651392	0.63	n/a	stim	poldrack-single-stim	s608	False	1
598.793	0.827	599.62	-3.881133729929601	end_round	0.827	columbia_card_task_fmri	15.0	0.7857142857142857	71.0	-75.0	0.2142857142857142	16.0	3.0	3.0	4.816389702490184	0.827	2.0	stim	poldrack-single-stim	s608	False	1
600.378	1.5	599.627	n/a	-1.0	2.454	columbia_card_task_fmri	n/a	n/a	-1.0	n/a	n/a	n/a	n/a	n/a	n/a	n/a	n/a	ITI	poldrack-single-stim	s608	False	0
602.085	1.771	603.856	-0.9079194442153162	draw_card	1.771	columbia_card_task_fmri	14.0	0.6875	89.0	-35.0	0.3125	16.0	1.0	5.0	-9.399446663540008	1.771	n/a	stim	poldrack-single-stim	s608	False	1
603.861	1.63	605.491	-1.9287527775486484	draw_card	1.63	columbia_card_task_fmri	14.0	0.6666666666666667	89.0	-35.0	0.3333333333333333	16.0	2.0	5.0	-9.01279332585752	1.63	2.0	stim	poldrack-single-stim	s608	False	0
606.248	1.5	605.497	n/a	-1.0	2.318	columbia_card_task_fmri	n/a	n/a	-1.0	n/a	n/a	n/a	n/a	n/a	n/a	n/a	n/a	ITI	poldrack-single-stim	s608	False	0
607.822	1.457	609.279	4.271247222451351	draw_card	1.457	columbia_card_task_fmri	16.0	0.8666666666666667	89.0	-75.0	0.1333333333333333	15.0	1.0	2.0	-1.1784604096822164	1.457	n/a	stim	poldrack-single-stim	s608	False	1
609.283	0.756	610.039	3.404580555784685	draw_card	0.756	columbia_card_task_fmri	16.0	0.8571428571428572	89.0	-75.0	0.1428571428571428	15.0	2.0	2.0	-0.2692210105917425	0.756	n/a	stim	poldrack-single-stim	s608	False	1
610.044	0.8	610.844	2.404580555784684	end_round	0.8	columbia_card_task_fmri	16.0	0.8461538461538461	71.0	-75.0	0.1538461538461538	15.0	3.0	2.0	0.7202451994599386	0.8	2.0	stim	poldrack-single-stim	s608	False	1
611.603	1.5	610.852	n/a	-1.0	2.318	columbia_card_task_fmri	n/a	n/a	-1.0	n/a	n/a	n/a	n/a	n/a	n/a	n/a	n/a	ITI	poldrack-single-stim	s608	False	0
613.177	1.349	614.526	4.937913889118017	draw_card	1.349	columbia_card_task_fmri	16.0	0.8666666666666667	89.0	-70.0	0.1333333333333333	15.0	1.0	2.0	-2.8779797810871277	1.349	n/a	stim	poldrack-single-stim	s608	False	1
614.529	0.609	615.138	4.1188662700704	draw_card	0.609	columbia_card_task_fmri	16.0	0.8571428571428572	89.0	-70.0	0.1428571428571428	15.0	2.0	2.0	-2.0187071321020404	0.609	n/a	stim	poldrack-single-stim	s608	False	1
615.144	0.753	615.897	3.173811325015452	end_round	0.753	columbia_card_task_fmri	16.0	0.8461538461538461	71.0	-70.0	0.1538461538461538	15.0	3.0	2.0	-1.0836159548639337	0.753	2.0	stim	poldrack-single-stim	s608	False	1
616.654	1.5	615.903	n/a	-1.0	2.59	columbia_card_task_fmri	n/a	n/a	-1.0	n/a	n/a	n/a	n/a	n/a	n/a	n/a	n/a	ITI	poldrack-single-stim	s608	False	0
618.499	2.594	621.093	2.279580555784684	draw_card	2.594	columbia_card_task_fmri	8.0	0.9375	89.0	-90.0	0.0625	16.0	1.0	1.0	-8.389684910509242	2.594	n/a	stim	poldrack-single-stim	s608	False	1
621.098	0.645	621.743	1.8712472224513503	end_round	0.645	columbia_card_task_fmri	8.0	0.9333333333333332	71.0	-90.0	0.0666666666666666	16.0	2.0	1.0	-7.666315063462072	0.645	1.0	stim	poldrack-single-stim	s608	False	1
622.502	1.5	621.751	n/a	-1.0	2.726	columbia_card_task_fmri	n/a	n/a	-1.0	n/a	n/a	n/a	n/a	n/a	n/a	n/a	n/a	ITI	poldrack-single-stim	s608	False	0
624.483	1.564	626.047	3.842080555784684	draw_card	1.564	columbia_card_task_fmri	10.0	0.9375	89.0	-95.0	0.0625	16.0	1.0	1.0	-6.6954846545202535	1.564	n/a	stim	poldrack-single-stim	s608	False	1
626.053	0.923	626.976	3.4045805557846847	end_round	0.923	columbia_card_task_fmri	10.0	0.9333333333333332	71.0	-95.0	0.0666666666666666	16.0	2.0	1.0	-5.920431437920566	0.923	1.0	stim	poldrack-single-stim	s608	False	1
627.736	1.5	626.985	n/a	-1.0	2.522	columbia_card_task_fmri	n/a	n/a	-1.0	n/a	n/a	n/a	n/a	n/a	n/a	n/a	n/a	ITI	poldrack-single-stim	s608	False	0
629.514	0.902	630.416	4.779580555784684	draw_card	0.902	columbia_card_task_fmri	15.0	0.875	89.0	-70.0	0.125	16.0	1.0	2.0	-4.001138797737514	0.902	n/a	stim	poldrack-single-stim	s608	False	1
630.422	0.48	630.902	4.07124722245135	draw_card	0.48	columbia_card_task_fmri	15.0	0.8666666666666667	89.0	-70.0	0.1333333333333333	16.0	2.0	2.0	-3.217881484387881	0.48	n/a	stim	poldrack-single-stim	s608	False	1
630.907	0.554	631.461	3.2617234129275414	end_round	0.554	columbia_card_task_fmri	15.0	0.8571428571428572	71.0	-70.0	0.1428571428571428	16.0	3.0	2.0	-2.36860224738496	0.554	2.0	stim	poldrack-single-stim	s608	False	1
632.217	1.5	631.466	n/a	-1.0	3.134	columbia_card_task_fmri	n/a	n/a	-1.0	n/a	n/a	n/a	n/a	n/a	n/a	n/a	n/a	ITI	poldrack-single-stim	s608	False	0
634.606	1.576	636.182	3.779580555784684	draw_card	1.576	columbia_card_task_fmri	16.0	0.875	89.0	-85.0	0.125	16.0	1.0	2.0	1.2899026732078056	1.576	1.0	stim	poldrack-single-stim	s608	False	0
636.939	1.5	636.188	n/a	-1.0	2.386	columbia_card_task_fmri	n/a	n/a	-1.0	n/a	n/a	n/a	n/a	n/a	n/a	n/a	n/a	ITI	poldrack-single-stim	s608	False	0
