onset	duration	movement_onset	block_duration	condition	correct	correct_response	experiment_exp_id	key_press	response_time	trial_id	trial_type	worker_id	junk
3.014	0.5	3.013	0.5	AX	n/a	n/a	dot_pattern_expectancy	-1.0	n/a	cue	AX	s609	False
5.517	0.5	5.952	2.18	AX	1.0	89.0	dot_pattern_expectancy	89.0	0.435	probe	AX	s609	False
7.699	0.5	7.698	0.5	AY	n/a	n/a	dot_pattern_expectancy	-1.0	n/a	cue	AY	s609	False
10.203	0.5	10.756	2.316	AY	1.0	71.0	dot_pattern_expectancy	71.0	0.553	probe	AY	s609	False
12.525	0.5	12.524	0.5	AY	n/a	n/a	dot_pattern_expectancy	-1.0	n/a	cue	AY	s609	False
15.032	0.5	15.561	1.636	AY	1.0	71.0	dot_pattern_expectancy	71.0	0.529	probe	AY	s609	False
16.669	0.5	16.668	0.5	BX	n/a	n/a	dot_pattern_expectancy	-1.0	n/a	cue	BX	s609	False
19.176	0.5	19.451	1.908	BX	1.0	71.0	dot_pattern_expectancy	71.0	0.275	probe	BX	s609	False
21.085	0.5	21.084	0.5	AX	n/a	n/a	dot_pattern_expectancy	-1.0	n/a	cue	AX	s609	False
23.592	0.5	23.929	3.54	AX	1.0	89.0	dot_pattern_expectancy	89.0	0.337	probe	AX	s609	False
27.133	0.5	27.132	0.5	BX	n/a	n/a	dot_pattern_expectancy	-1.0	n/a	cue	BX	s609	False
29.643	0.5	30.058	1.636	BX	1.0	71.0	dot_pattern_expectancy	71.0	0.415	probe	BX	s609	False
31.283	0.5	31.282	0.5	BY	n/a	n/a	dot_pattern_expectancy	-1.0	n/a	cue	BY	s609	False
33.793	0.5	34.114	1.5	BY	1.0	71.0	dot_pattern_expectancy	71.0	0.321	probe	BY	s609	False
35.295	0.5	35.294	0.5	AX	n/a	n/a	dot_pattern_expectancy	-1.0	n/a	cue	AX	s609	False
37.802	0.5	38.217	1.5	AX	0.0	89.0	dot_pattern_expectancy	71.0	0.415	probe	AX	s609	False
39.303	0.5	39.302	0.5	AX	n/a	n/a	dot_pattern_expectancy	-1.0	n/a	cue	AX	s609	False
41.809	0.5	42.191	1.772	AX	1.0	89.0	dot_pattern_expectancy	89.0	0.382	probe	AX	s609	False
43.587	0.5	43.586	0.5	BY	n/a	n/a	dot_pattern_expectancy	-1.0	n/a	cue	BY	s609	False
46.098	0.5	46.505	2.452	BY	1.0	71.0	dot_pattern_expectancy	71.0	0.407	probe	BY	s609	False
48.552	0.5	48.551	0.5	AX	n/a	n/a	dot_pattern_expectancy	-1.0	n/a	cue	AX	s609	False
51.058	0.5	51.73	1.908	AX	1.0	89.0	dot_pattern_expectancy	89.0	0.672	probe	AX	s609	False
52.968	0.5	52.967	0.5	BX	n/a	n/a	dot_pattern_expectancy	-1.0	n/a	cue	BX	s609	False
55.474	0.5	55.876	1.636	BX	1.0	71.0	dot_pattern_expectancy	71.0	0.402	probe	BX	s609	False
57.112	0.5	57.111	0.5	AX	n/a	n/a	dot_pattern_expectancy	-1.0	n/a	cue	AX	s609	False
59.623	0.5	60.099	1.5	AX	1.0	89.0	dot_pattern_expectancy	89.0	0.476	probe	AX	s609	False
61.128	0.5	61.127	0.5	AX	n/a	n/a	dot_pattern_expectancy	-1.0	n/a	cue	AX	s609	False
63.64	0.5	64.154	1.636	AX	1.0	89.0	dot_pattern_expectancy	89.0	0.514	probe	AX	s609	False
65.281	0.5	65.28	0.5	AX	n/a	n/a	dot_pattern_expectancy	-1.0	n/a	cue	AX	s609	False
67.784	0.5	68.312	1.636	AX	1.0	89.0	dot_pattern_expectancy	89.0	0.528	probe	AX	s609	False
69.426	0.5	69.425	0.5	BY	n/a	n/a	dot_pattern_expectancy	-1.0	n/a	cue	BY	s609	False
71.935	0.5	72.4	2.452	BY	1.0	71.0	dot_pattern_expectancy	71.0	0.465	probe	BY	s609	False
74.392	0.5	74.391	0.5	AX	n/a	n/a	dot_pattern_expectancy	-1.0	n/a	cue	AX	s609	False
76.9	0.5	77.356	1.5	AX	1.0	89.0	dot_pattern_expectancy	89.0	0.456	probe	AX	s609	False
78.402	0.5	78.401	0.5	BY	n/a	n/a	dot_pattern_expectancy	-1.0	n/a	cue	BY	s609	False
80.914	0.5	81.191	1.5	BY	1.0	71.0	dot_pattern_expectancy	71.0	0.277	probe	BY	s609	False
82.415	0.5	82.414	0.5	AX	n/a	n/a	dot_pattern_expectancy	-1.0	n/a	cue	AX	s609	False
84.92	0.5	85.513	1.636	AX	1.0	89.0	dot_pattern_expectancy	89.0	0.593	probe	AX	s609	False
86.557	0.5	86.556	0.5	AX	n/a	n/a	dot_pattern_expectancy	-1.0	n/a	cue	AX	s609	False
89.064	0.5	89.483	1.636	AX	1.0	89.0	dot_pattern_expectancy	89.0	0.419	probe	AX	s609	False
90.701	0.5	90.7	0.5	AY	n/a	n/a	dot_pattern_expectancy	-1.0	n/a	cue	AY	s609	False
93.208	0.5	93.841	1.636	AY	1.0	71.0	dot_pattern_expectancy	71.0	0.633	probe	AY	s609	False
94.845	0.5	94.844	0.5	AX	n/a	n/a	dot_pattern_expectancy	-1.0	n/a	cue	AX	s609	False
97.354	0.5	97.942	1.5	AX	1.0	89.0	dot_pattern_expectancy	89.0	0.588	probe	AX	s609	False
98.856	0.5	98.855	0.5	AX	n/a	n/a	dot_pattern_expectancy	-1.0	n/a	cue	AX	s609	False
101.365	0.5	101.827	1.5	AX	0.0	89.0	dot_pattern_expectancy	71.0	0.462	probe	AX	s609	False
102.867	0.5	102.866	0.5	AX	n/a	n/a	dot_pattern_expectancy	-1.0	n/a	cue	AX	s609	False
105.37	0.5	105.887	1.772	AX	0.0	89.0	dot_pattern_expectancy	71.0	0.517	probe	AX	s609	False
107.148	0.5	107.147	0.5	AX	n/a	n/a	dot_pattern_expectancy	-1.0	n/a	cue	AX	s609	False
109.651	0.5	110.116	2.18	AX	1.0	89.0	dot_pattern_expectancy	89.0	0.465	probe	AX	s609	False
111.837	0.5	111.836	0.5	BX	n/a	n/a	dot_pattern_expectancy	-1.0	n/a	cue	BX	s609	False
114.346	0.5	114.645	1.772	BX	1.0	71.0	dot_pattern_expectancy	71.0	0.299	probe	BX	s609	False
116.12	0.5	116.119	0.5	BY	n/a	n/a	dot_pattern_expectancy	-1.0	n/a	cue	BY	s609	False
118.631	0.5	119.141	1.5	BY	1.0	71.0	dot_pattern_expectancy	71.0	0.51	probe	BY	s609	False
120.136	0.5	120.135	0.5	AX	n/a	n/a	dot_pattern_expectancy	-1.0	n/a	cue	AX	s609	False
122.647	0.5	123.237	1.5	AX	1.0	89.0	dot_pattern_expectancy	89.0	0.59	probe	AX	s609	False
124.152	0.5	124.151	0.5	AX	n/a	n/a	dot_pattern_expectancy	-1.0	n/a	cue	AX	s609	False
126.658	0.5	127.303	1.636	AX	1.0	89.0	dot_pattern_expectancy	89.0	0.645	probe	AX	s609	False
128.296	0.5	128.295	0.5	AY	n/a	n/a	dot_pattern_expectancy	-1.0	n/a	cue	AY	s609	False
130.803	0.5	131.495	2.18	AY	1.0	71.0	dot_pattern_expectancy	71.0	0.692	probe	AY	s609	False
132.984	0.5	132.983	0.5	AY	n/a	n/a	dot_pattern_expectancy	-1.0	n/a	cue	AY	s609	False
135.493	0.5	136.032	2.316	AY	1.0	71.0	dot_pattern_expectancy	71.0	0.539	probe	AY	s609	False
137.811	0.5	137.81	0.5	BX	n/a	n/a	dot_pattern_expectancy	-1.0	n/a	cue	BX	s609	False
140.32	0.5	140.629	1.636	BX	1.0	71.0	dot_pattern_expectancy	71.0	0.309	probe	BX	s609	False
141.96	0.5	141.959	0.5	BX	n/a	n/a	dot_pattern_expectancy	-1.0	n/a	cue	BX	s609	False
144.466	0.5	144.773	2.18	BX	1.0	71.0	dot_pattern_expectancy	71.0	0.307	probe	BX	s609	False
146.648	0.5	146.647	0.5	AY	n/a	n/a	dot_pattern_expectancy	-1.0	n/a	cue	AY	s609	False
149.159	0.5	150.118	2.044	AY	1.0	71.0	dot_pattern_expectancy	71.0	0.959	probe	AY	s609	False
151.208	0.5	151.207	0.5	AX	n/a	n/a	dot_pattern_expectancy	-1.0	n/a	cue	AX	s609	False
153.717	0.5	154.376	1.772	AX	1.0	89.0	dot_pattern_expectancy	89.0	0.659	probe	AX	s609	False
155.494	0.5	155.493	0.5	AX	n/a	n/a	dot_pattern_expectancy	-1.0	n/a	cue	AX	s609	False
158.0	0.5	158.613	1.5	AX	1.0	89.0	dot_pattern_expectancy	89.0	0.613	probe	AX	s609	False
159.501	0.5	159.5	0.5	AX	n/a	n/a	dot_pattern_expectancy	-1.0	n/a	cue	AX	s609	False
162.008	0.5	162.499	2.18	AX	1.0	89.0	dot_pattern_expectancy	89.0	0.491	probe	AX	s609	False
164.193	0.5	164.192	0.5	AY	n/a	n/a	dot_pattern_expectancy	-1.0	n/a	cue	AY	s609	False
166.696	0.5	167.194	2.452	AY	1.0	71.0	dot_pattern_expectancy	71.0	0.498	probe	AY	s609	False
169.149	0.5	169.148	0.5	AX	n/a	n/a	dot_pattern_expectancy	-1.0	n/a	cue	AX	s609	False
171.656	0.5	172.255	1.636	AX	1.0	89.0	dot_pattern_expectancy	89.0	0.599	probe	AX	s609	False
173.297	0.5	173.296	0.5	AX	n/a	n/a	dot_pattern_expectancy	-1.0	n/a	cue	AX	s609	False
175.804	0.5	176.311	1.908	AX	1.0	89.0	dot_pattern_expectancy	89.0	0.507	probe	AX	s609	False
188.229	0.5	188.228	0.5	AX	n/a	n/a	dot_pattern_expectancy	-1.0	n/a	cue	AX	s609	False
190.736	0.5	191.387	1.772	AX	1.0	89.0	dot_pattern_expectancy	89.0	0.651	probe	AX	s609	False
192.509	0.5	192.508	0.5	AX	n/a	n/a	dot_pattern_expectancy	-1.0	n/a	cue	AX	s609	False
195.012	0.5	195.63	1.5	AX	1.0	89.0	dot_pattern_expectancy	89.0	0.618	probe	AX	s609	False
196.514	0.5	196.513	0.5	AY	n/a	n/a	dot_pattern_expectancy	-1.0	n/a	cue	AY	s609	False
199.026	0.5	199.62	2.452	AY	1.0	71.0	dot_pattern_expectancy	71.0	0.594	probe	AY	s609	False
201.48	0.5	201.479	0.5	AY	n/a	n/a	dot_pattern_expectancy	-1.0	n/a	cue	AY	s609	False
203.989	0.5	204.539	1.772	AY	1.0	71.0	dot_pattern_expectancy	71.0	0.55	probe	AY	s609	False
205.763	0.5	205.762	0.5	AX	n/a	n/a	dot_pattern_expectancy	-1.0	n/a	cue	AX	s609	False
208.269	0.5	208.653	1.908	AX	0.0	89.0	dot_pattern_expectancy	71.0	0.384	probe	AX	s609	False
210.179	0.5	210.178	0.5	AX	n/a	n/a	dot_pattern_expectancy	-1.0	n/a	cue	AX	s609	False
212.685	0.5	213.18	1.908	AX	1.0	89.0	dot_pattern_expectancy	89.0	0.495	probe	AX	s609	False
214.595	0.5	214.594	0.5	AX	n/a	n/a	dot_pattern_expectancy	-1.0	n/a	cue	AX	s609	False
217.104	0.5	217.748	2.588	AX	1.0	89.0	dot_pattern_expectancy	89.0	0.644	probe	AX	s609	False
219.693	0.5	219.692	0.5	AY	n/a	n/a	dot_pattern_expectancy	-1.0	n/a	cue	AY	s609	False
222.202	0.5	222.814	1.5	AY	1.0	71.0	dot_pattern_expectancy	71.0	0.612	probe	AY	s609	False
223.704	0.5	223.703	0.5	BY	n/a	n/a	dot_pattern_expectancy	-1.0	n/a	cue	BY	s609	False
226.215	0.5	226.489	1.5	BY	1.0	71.0	dot_pattern_expectancy	71.0	0.274	probe	BY	s609	False
227.718	0.5	227.717	0.5	BY	n/a	n/a	dot_pattern_expectancy	-1.0	n/a	cue	BY	s609	False
230.226	0.5	230.533	1.5	BY	1.0	71.0	dot_pattern_expectancy	71.0	0.307	probe	BY	s609	False
231.731	0.5	231.73	0.5	AX	n/a	n/a	dot_pattern_expectancy	-1.0	n/a	cue	AX	s609	False
234.238	0.5	234.871	1.636	AX	1.0	89.0	dot_pattern_expectancy	89.0	0.633	probe	AX	s609	False
235.88	0.5	235.879	0.5	BX	n/a	n/a	dot_pattern_expectancy	-1.0	n/a	cue	BX	s609	False
238.388	0.5	238.661	2.044	BX	1.0	71.0	dot_pattern_expectancy	71.0	0.273	probe	BX	s609	False
240.435	0.5	240.434	0.5	AX	n/a	n/a	dot_pattern_expectancy	-1.0	n/a	cue	AX	s609	False
242.945	0.5	243.585	1.772	AX	1.0	89.0	dot_pattern_expectancy	89.0	0.64	probe	AX	s609	False
244.721	0.5	244.72	0.5	BX	n/a	n/a	dot_pattern_expectancy	-1.0	n/a	cue	BX	s609	False
247.227	0.5	247.34	2.588	BX	1.0	71.0	dot_pattern_expectancy	71.0	0.113	probe	BX	s609	False
249.816	0.5	249.815	0.5	AY	n/a	n/a	dot_pattern_expectancy	-1.0	n/a	cue	AY	s609	False
252.325	0.5	252.896	1.5	AY	1.0	71.0	dot_pattern_expectancy	71.0	0.571	probe	AY	s609	False
253.827	0.5	253.826	0.5	AX	n/a	n/a	dot_pattern_expectancy	-1.0	n/a	cue	AX	s609	False
256.333	0.5	256.703	2.452	AX	1.0	89.0	dot_pattern_expectancy	89.0	0.37	probe	AX	s609	False
258.787	0.5	258.786	0.5	BY	n/a	n/a	dot_pattern_expectancy	-1.0	n/a	cue	BY	s609	False
261.293	0.5	261.632	1.636	BY	1.0	71.0	dot_pattern_expectancy	71.0	0.339	probe	BY	s609	False
262.931	0.5	262.93	0.5	AX	n/a	n/a	dot_pattern_expectancy	-1.0	n/a	cue	AX	s609	False
265.437	0.5	266.015	1.636	AX	1.0	89.0	dot_pattern_expectancy	89.0	0.578	probe	AX	s609	False
267.075	0.5	267.074	0.5	AX	n/a	n/a	dot_pattern_expectancy	-1.0	n/a	cue	AX	s609	False
269.585	0.5	270.107	1.5	AX	1.0	89.0	dot_pattern_expectancy	89.0	0.522	probe	AX	s609	False
271.088	0.5	271.087	0.5	BY	n/a	n/a	dot_pattern_expectancy	-1.0	n/a	cue	BY	s609	False
273.597	0.5	274.01	1.636	BY	1.0	71.0	dot_pattern_expectancy	71.0	0.413	probe	BY	s609	False
275.235	0.5	275.234	0.5	AX	n/a	n/a	dot_pattern_expectancy	-1.0	n/a	cue	AX	s609	False
277.744	0.5	278.249	1.5	AX	1.0	89.0	dot_pattern_expectancy	89.0	0.505	probe	AX	s609	False
279.245	0.5	279.244	0.5	AY	n/a	n/a	dot_pattern_expectancy	-1.0	n/a	cue	AY	s609	False
281.752	0.5	282.271	2.18	AY	1.0	71.0	dot_pattern_expectancy	71.0	0.519	probe	AY	s609	False
283.938	0.5	283.937	0.5	AX	n/a	n/a	dot_pattern_expectancy	-1.0	n/a	cue	AX	s609	False
286.446	0.5	286.872	1.5	AX	1.0	89.0	dot_pattern_expectancy	89.0	0.426	probe	AX	s609	False
287.95	0.5	287.949	0.5	AX	n/a	n/a	dot_pattern_expectancy	-1.0	n/a	cue	AX	s609	False
290.46	0.5	290.849	1.908	AX	1.0	89.0	dot_pattern_expectancy	89.0	0.389	probe	AX	s609	False
292.371	0.5	292.37	0.5	BY	n/a	n/a	dot_pattern_expectancy	-1.0	n/a	cue	BY	s609	False
294.877	0.5	295.26	1.636	BY	1.0	71.0	dot_pattern_expectancy	71.0	0.383	probe	BY	s609	False
296.519	0.5	296.518	0.5	BY	n/a	n/a	dot_pattern_expectancy	-1.0	n/a	cue	BY	s609	False
299.021	0.5	299.631	1.636	BY	1.0	71.0	dot_pattern_expectancy	71.0	0.61	probe	BY	s609	False
300.659	0.5	300.658	0.5	AX	n/a	n/a	dot_pattern_expectancy	-1.0	n/a	cue	AX	s609	False
303.165	0.5	303.789	1.636	AX	1.0	89.0	dot_pattern_expectancy	89.0	0.624	probe	AX	s609	False
304.803	0.5	304.802	0.5	AX	n/a	n/a	dot_pattern_expectancy	-1.0	n/a	cue	AX	s609	False
307.314	0.5	307.959	1.5	AX	1.0	89.0	dot_pattern_expectancy	89.0	0.645	probe	AX	s609	False
308.819	0.5	308.818	0.5	BY	n/a	n/a	dot_pattern_expectancy	-1.0	n/a	cue	BY	s609	False
311.328	0.5	311.645	2.044	BY	1.0	71.0	dot_pattern_expectancy	71.0	0.317	probe	BY	s609	False
313.373	0.5	313.372	0.5	AY	n/a	n/a	dot_pattern_expectancy	-1.0	n/a	cue	AY	s609	False
315.882	0.5	316.461	2.18	AY	1.0	71.0	dot_pattern_expectancy	71.0	0.579	probe	AY	s609	False
318.067	0.5	318.066	0.5	AY	n/a	n/a	dot_pattern_expectancy	-1.0	n/a	cue	AY	s609	False
320.573	0.5	321.341	1.636	AY	1.0	71.0	dot_pattern_expectancy	71.0	0.768	probe	AY	s609	False
322.214	0.5	322.213	0.5	AY	n/a	n/a	dot_pattern_expectancy	-1.0	n/a	cue	AY	s609	False
324.717	0.5	325.41	1.772	AY	1.0	71.0	dot_pattern_expectancy	71.0	0.693	probe	AY	s609	False
326.493	0.5	326.492	0.5	BY	n/a	n/a	dot_pattern_expectancy	-1.0	n/a	cue	BY	s609	False
329.001	0.5	329.262	1.5	BY	1.0	71.0	dot_pattern_expectancy	71.0	0.261	probe	BY	s609	False
330.504	0.5	330.503	0.5	BX	n/a	n/a	dot_pattern_expectancy	-1.0	n/a	cue	BX	s609	False
333.01	0.5	333.315	1.908	BX	1.0	71.0	dot_pattern_expectancy	71.0	0.305	probe	BX	s609	False
334.92	0.5	334.919	0.5	AX	n/a	n/a	dot_pattern_expectancy	-1.0	n/a	cue	AX	s609	False
337.429	0.5	338.144	2.044	AX	1.0	89.0	dot_pattern_expectancy	89.0	0.715	probe	AX	s609	False
339.475	0.5	339.474	0.5	AX	n/a	n/a	dot_pattern_expectancy	-1.0	n/a	cue	AX	s609	False
341.981	0.5	342.369	1.636	AX	1.0	89.0	dot_pattern_expectancy	89.0	0.388	probe	AX	s609	False
343.624	0.5	343.623	0.5	AX	n/a	n/a	dot_pattern_expectancy	-1.0	n/a	cue	AX	s609	False
346.128	0.5	346.509	1.772	AX	1.0	89.0	dot_pattern_expectancy	89.0	0.381	probe	AX	s609	False
347.901	0.5	347.9	0.5	AX	n/a	n/a	dot_pattern_expectancy	-1.0	n/a	cue	AX	s609	False
350.408	0.5	350.805	1.636	AX	1.0	89.0	dot_pattern_expectancy	89.0	0.397	probe	AX	s609	False
352.045	0.5	352.044	0.5	BX	n/a	n/a	dot_pattern_expectancy	-1.0	n/a	cue	BX	s609	False
354.554	0.5	355.15	1.772	BX	0.0	71.0	dot_pattern_expectancy	89.0	0.596	probe	BX	s609	False
356.327	0.5	356.326	0.5	AX	n/a	n/a	dot_pattern_expectancy	-1.0	n/a	cue	AX	s609	False
358.837	0.5	359.424	1.5	AX	1.0	89.0	dot_pattern_expectancy	89.0	0.587	probe	AX	s609	False
370.851	0.5	370.85	0.5	BY	n/a	n/a	dot_pattern_expectancy	-1.0	n/a	cue	BY	s609	False
373.357	0.5	374.166	1.636	BY	1.0	71.0	dot_pattern_expectancy	71.0	0.809	probe	BY	s609	False
374.995	0.5	374.994	0.5	AY	n/a	n/a	dot_pattern_expectancy	-1.0	n/a	cue	AY	s609	False
377.504	0.5	378.148	1.5	AY	1.0	71.0	dot_pattern_expectancy	71.0	0.644	probe	AY	s609	False
379.005	0.5	379.004	0.5	AX	n/a	n/a	dot_pattern_expectancy	-1.0	n/a	cue	AX	s609	False
381.514	0.5	381.884	2.044	AX	1.0	89.0	dot_pattern_expectancy	89.0	0.37	probe	AX	s609	False
383.563	0.5	383.562	0.5	BY	n/a	n/a	dot_pattern_expectancy	-1.0	n/a	cue	BY	s609	False
386.069	0.5	386.371	1.772	BY	1.0	71.0	dot_pattern_expectancy	71.0	0.302	probe	BY	s609	False
387.843	0.5	387.842	0.5	BX	n/a	n/a	dot_pattern_expectancy	-1.0	n/a	cue	BX	s609	False
390.349	0.5	390.752	1.636	BX	1.0	71.0	dot_pattern_expectancy	71.0	0.403	probe	BX	s609	False
391.987	0.5	391.986	0.5	AX	n/a	n/a	dot_pattern_expectancy	-1.0	n/a	cue	AX	s609	False
394.493	0.5	394.884	1.636	AX	1.0	89.0	dot_pattern_expectancy	89.0	0.391	probe	AX	s609	False
396.131	0.5	396.13	0.5	AX	n/a	n/a	dot_pattern_expectancy	-1.0	n/a	cue	AX	s609	False
398.639	0.5	399.028	1.5	AX	1.0	89.0	dot_pattern_expectancy	89.0	0.389	probe	AX	s609	False
400.141	0.5	400.14	0.5	AX	n/a	n/a	dot_pattern_expectancy	-1.0	n/a	cue	AX	s609	False
402.65	0.5	403.061	1.5	AX	1.0	89.0	dot_pattern_expectancy	89.0	0.411	probe	AX	s609	False
404.152	0.5	404.151	0.5	AY	n/a	n/a	dot_pattern_expectancy	-1.0	n/a	cue	AY	s609	False
406.658	0.5	407.173	2.044	AY	1.0	71.0	dot_pattern_expectancy	71.0	0.515	probe	AY	s609	False
408.706	0.5	408.705	0.5	AX	n/a	n/a	dot_pattern_expectancy	-1.0	n/a	cue	AX	s609	False
411.213	0.5	411.612	2.452	AX	1.0	89.0	dot_pattern_expectancy	89.0	0.399	probe	AX	s609	False
413.667	0.5	413.666	0.5	AX	n/a	n/a	dot_pattern_expectancy	-1.0	n/a	cue	AX	s609	False
416.173	0.5	416.54	1.908	AX	1.0	89.0	dot_pattern_expectancy	89.0	0.367	probe	AX	s609	False
418.083	0.5	418.082	0.5	AX	n/a	n/a	dot_pattern_expectancy	-1.0	n/a	cue	AX	s609	False
420.594	0.5	421.153	1.5	AX	1.0	89.0	dot_pattern_expectancy	89.0	0.559	probe	AX	s609	False
422.099	0.5	422.098	0.5	AX	n/a	n/a	dot_pattern_expectancy	-1.0	n/a	cue	AX	s609	False
424.605	0.5	425.009	1.908	AX	1.0	89.0	dot_pattern_expectancy	89.0	0.404	probe	AX	s609	False
426.515	0.5	426.514	0.5	BX	n/a	n/a	dot_pattern_expectancy	-1.0	n/a	cue	BX	s609	False
429.021	0.5	429.321	2.18	BX	1.0	71.0	dot_pattern_expectancy	71.0	0.3	probe	BX	s609	False
431.203	0.5	431.202	0.5	AX	n/a	n/a	dot_pattern_expectancy	-1.0	n/a	cue	AX	s609	False
433.71	0.5	434.38	1.5	AX	1.0	89.0	dot_pattern_expectancy	89.0	0.67	probe	AX	s609	False
435.213	0.5	435.212	0.5	BY	n/a	n/a	dot_pattern_expectancy	-1.0	n/a	cue	BY	s609	False
437.72	0.5	437.861	1.908	BY	1.0	71.0	dot_pattern_expectancy	71.0	0.141	probe	BY	s609	False
439.63	0.5	439.629	0.5	BX	n/a	n/a	dot_pattern_expectancy	-1.0	n/a	cue	BX	s609	False
442.139	0.5	442.427	2.316	BX	1.0	71.0	dot_pattern_expectancy	71.0	0.288	probe	BX	s609	False
444.456	0.5	444.455	0.5	AY	n/a	n/a	dot_pattern_expectancy	-1.0	n/a	cue	AY	s609	False
446.965	0.5	447.478	2.316	AY	1.0	71.0	dot_pattern_expectancy	71.0	0.513	probe	AY	s609	False
449.283	0.5	449.282	0.5	BX	n/a	n/a	dot_pattern_expectancy	-1.0	n/a	cue	BX	s609	False
451.794	0.5	452.534	1.636	BX	1.0	71.0	dot_pattern_expectancy	71.0	0.74	probe	BX	s609	False
453.432	0.5	453.431	0.5	AY	n/a	n/a	dot_pattern_expectancy	-1.0	n/a	cue	AY	s609	False
455.941	0.5	456.484	1.5	AY	1.0	71.0	dot_pattern_expectancy	71.0	0.543	probe	AY	s609	False
457.443	0.5	457.442	0.5	BY	n/a	n/a	dot_pattern_expectancy	-1.0	n/a	cue	BY	s609	False
459.949	0.5	460.275	1.908	BY	1.0	71.0	dot_pattern_expectancy	71.0	0.326	probe	BY	s609	False
461.859	0.5	461.858	0.5	AX	n/a	n/a	dot_pattern_expectancy	-1.0	n/a	cue	AX	s609	False
464.363	0.5	464.827	1.5	AX	1.0	89.0	dot_pattern_expectancy	89.0	0.464	probe	AX	s609	False
465.864	0.5	465.863	0.5	AY	n/a	n/a	dot_pattern_expectancy	-1.0	n/a	cue	AY	s609	False
468.373	0.5	468.87	2.316	AY	1.0	71.0	dot_pattern_expectancy	71.0	0.497	probe	AY	s609	False
470.691	0.5	470.69	0.5	AX	n/a	n/a	dot_pattern_expectancy	-1.0	n/a	cue	AX	s609	False
473.194	0.5	473.562	1.5	AX	1.0	89.0	dot_pattern_expectancy	89.0	0.368	probe	AX	s609	False
474.696	0.5	474.695	0.5	AY	n/a	n/a	dot_pattern_expectancy	-1.0	n/a	cue	AY	s609	False
477.202	0.5	477.888	2.724	AY	1.0	71.0	dot_pattern_expectancy	71.0	0.686	probe	AY	s609	False
479.928	0.5	479.927	0.5	AX	n/a	n/a	dot_pattern_expectancy	-1.0	n/a	cue	AX	s609	False
482.439	0.5	482.849	1.5	AX	1.0	89.0	dot_pattern_expectancy	89.0	0.41	probe	AX	s609	False
483.944	0.5	483.943	0.5	AX	n/a	n/a	dot_pattern_expectancy	-1.0	n/a	cue	AX	s609	False
486.45	0.5	487.217	1.636	AX	1.0	89.0	dot_pattern_expectancy	89.0	0.767	probe	AX	s609	False
488.092	0.5	488.091	0.5	AX	n/a	n/a	dot_pattern_expectancy	-1.0	n/a	cue	AX	s609	False
490.6	0.5	491.175	1.636	AX	1.0	89.0	dot_pattern_expectancy	89.0	0.575	probe	AX	s609	False
492.237	0.5	492.236	0.5	AX	n/a	n/a	dot_pattern_expectancy	-1.0	n/a	cue	AX	s609	False
494.747	0.5	495.198	1.772	AX	1.0	89.0	dot_pattern_expectancy	89.0	0.451	probe	AX	s609	False
496.52	0.5	496.519	0.5	BY	n/a	n/a	dot_pattern_expectancy	-1.0	n/a	cue	BY	s609	False
499.029	0.5	499.591	1.772	BY	1.0	71.0	dot_pattern_expectancy	71.0	0.562	probe	BY	s609	False
500.803	0.5	500.802	0.5	AX	n/a	n/a	dot_pattern_expectancy	-1.0	n/a	cue	AX	s609	False
503.312	0.5	503.743	1.5	AX	1.0	89.0	dot_pattern_expectancy	89.0	0.431	probe	AX	s609	False
504.813	0.5	504.812	0.5	BY	n/a	n/a	dot_pattern_expectancy	-1.0	n/a	cue	BY	s609	False
507.32	0.5	507.873	2.452	BY	1.0	71.0	dot_pattern_expectancy	71.0	0.553	probe	BY	s609	False
509.773	0.5	509.772	0.5	AX	n/a	n/a	dot_pattern_expectancy	-1.0	n/a	cue	AX	s609	False
512.282	0.5	512.811	1.636	AX	0.0	89.0	dot_pattern_expectancy	71.0	0.529	probe	AX	s609	False
513.923	0.5	513.922	0.5	AX	n/a	n/a	dot_pattern_expectancy	-1.0	n/a	cue	AX	s609	False
516.432	0.5	516.962	1.636	AX	1.0	89.0	dot_pattern_expectancy	89.0	0.53	probe	AX	s609	False
518.075	0.5	518.074	0.5	BX	n/a	n/a	dot_pattern_expectancy	-1.0	n/a	cue	BX	s609	False
520.581	0.5	521.115	1.5	BX	0.0	71.0	dot_pattern_expectancy	89.0	0.534	probe	BX	s609	False
522.084	0.5	522.083	0.5	BX	n/a	n/a	dot_pattern_expectancy	-1.0	n/a	cue	BX	s609	False
524.592	0.5	525.208	1.5	BX	0.0	71.0	dot_pattern_expectancy	89.0	0.616	probe	BX	s609	False
526.093	0.5	526.092	0.5	AX	n/a	n/a	dot_pattern_expectancy	-1.0	n/a	cue	AX	s609	False
528.602	0.5	529.024	2.316	AX	1.0	89.0	dot_pattern_expectancy	89.0	0.422	probe	AX	s609	False
530.92	0.5	530.919	0.5	AY	n/a	n/a	dot_pattern_expectancy	-1.0	n/a	cue	AY	s609	False
533.429	0.5	534.064	2.044	AY	1.0	71.0	dot_pattern_expectancy	71.0	0.635	probe	AY	s609	False
535.48	0.5	535.479	0.5	AX	n/a	n/a	dot_pattern_expectancy	-1.0	n/a	cue	AX	s609	False
537.989	0.5	538.541	3.948	AX	1.0	89.0	dot_pattern_expectancy	89.0	0.552	probe	AX	s609	False
541.944	0.5	541.943	0.5	AX	n/a	n/a	dot_pattern_expectancy	-1.0	n/a	cue	AX	s609	False
544.45	0.5	544.861	1.636	AX	1.0	89.0	dot_pattern_expectancy	89.0	0.411	probe	AX	s609	False
556.608	0.5	556.607	0.5	AY	n/a	n/a	dot_pattern_expectancy	-1.0	n/a	cue	AY	s609	False
559.112	0.5	559.733	1.636	AY	1.0	71.0	dot_pattern_expectancy	71.0	0.621	probe	AY	s609	False
560.749	0.5	560.748	0.5	AX	n/a	n/a	dot_pattern_expectancy	-1.0	n/a	cue	AX	s609	False
563.256	0.5	563.735	1.636	AX	0.0	89.0	dot_pattern_expectancy	71.0	0.479	probe	AX	s609	False
564.894	0.5	564.893	0.5	AX	n/a	n/a	dot_pattern_expectancy	-1.0	n/a	cue	AX	s609	False
567.404	0.5	567.903	1.5	AX	1.0	89.0	dot_pattern_expectancy	89.0	0.499	probe	AX	s609	False
568.908	0.5	568.907	0.5	AX	n/a	n/a	dot_pattern_expectancy	-1.0	n/a	cue	AX	s609	False
571.418	0.5	571.86	1.5	AX	1.0	89.0	dot_pattern_expectancy	89.0	0.442	probe	AX	s609	False
572.92	0.5	572.919	0.5	AX	n/a	n/a	dot_pattern_expectancy	-1.0	n/a	cue	AX	s609	False
575.427	0.5	575.843	1.908	AX	1.0	89.0	dot_pattern_expectancy	89.0	0.416	probe	AX	s609	False
577.336	0.5	577.335	0.5	BX	n/a	n/a	dot_pattern_expectancy	-1.0	n/a	cue	BX	s609	False
579.842	0.5	580.145	1.636	BX	1.0	71.0	dot_pattern_expectancy	71.0	0.303	probe	BX	s609	False
581.48	0.5	581.479	0.5	AX	n/a	n/a	dot_pattern_expectancy	-1.0	n/a	cue	AX	s609	False
583.991	0.5	584.624	2.044	AX	1.0	89.0	dot_pattern_expectancy	89.0	0.633	probe	AX	s609	False
586.04	0.5	586.039	0.5	AX	n/a	n/a	dot_pattern_expectancy	-1.0	n/a	cue	AX	s609	False
588.548	0.5	589.1	1.772	AX	1.0	89.0	dot_pattern_expectancy	89.0	0.552	probe	AX	s609	False
590.323	0.5	590.322	0.5	AX	n/a	n/a	dot_pattern_expectancy	-1.0	n/a	cue	AX	s609	False
592.831	0.5	593.234	1.5	AX	1.0	89.0	dot_pattern_expectancy	89.0	0.403	probe	AX	s609	False
594.333	0.5	594.332	0.5	AX	n/a	n/a	dot_pattern_expectancy	-1.0	n/a	cue	AX	s609	False
596.84	0.5	597.325	2.18	AX	1.0	89.0	dot_pattern_expectancy	89.0	0.485	probe	AX	s609	False
599.021	0.5	599.02	0.5	AX	n/a	n/a	dot_pattern_expectancy	-1.0	n/a	cue	AX	s609	False
601.53	0.5	601.868	1.5	AX	1.0	89.0	dot_pattern_expectancy	89.0	0.338	probe	AX	s609	False
603.032	0.5	603.031	0.5	BX	n/a	n/a	dot_pattern_expectancy	-1.0	n/a	cue	BX	s609	False
605.541	0.5	605.851	3.676	BX	1.0	71.0	dot_pattern_expectancy	71.0	0.31	probe	BX	s609	False
609.219	0.5	609.218	0.5	BY	n/a	n/a	dot_pattern_expectancy	-1.0	n/a	cue	BY	s609	False
611.725	0.5	611.992	1.636	BY	1.0	71.0	dot_pattern_expectancy	71.0	0.267	probe	BY	s609	False
613.368	0.5	613.367	0.5	BY	n/a	n/a	dot_pattern_expectancy	-1.0	n/a	cue	BY	s609	False
615.875	0.5	617.213	1.636	BY	1.0	71.0	dot_pattern_expectancy	71.0	1.338	probe	BY	s609	False
617.513	0.5	617.512	0.5	BX	n/a	n/a	dot_pattern_expectancy	-1.0	n/a	cue	BX	s609	False
620.018	0.5	620.597	1.5	BX	1.0	71.0	dot_pattern_expectancy	71.0	0.579	probe	BX	s609	False
621.523	0.5	621.522	0.5	AX	n/a	n/a	dot_pattern_expectancy	-1.0	n/a	cue	AX	s609	False
624.029	0.5	624.471	1.908	AX	1.0	89.0	dot_pattern_expectancy	89.0	0.442	probe	AX	s609	False
625.939	0.5	625.938	0.5	AX	n/a	n/a	dot_pattern_expectancy	-1.0	n/a	cue	AX	s609	False
628.445	0.5	628.932	1.636	AX	1.0	89.0	dot_pattern_expectancy	89.0	0.487	probe	AX	s609	False
630.083	0.5	630.082	0.5	BX	n/a	n/a	dot_pattern_expectancy	-1.0	n/a	cue	BX	s609	False
632.592	0.5	632.871	1.5	BX	1.0	71.0	dot_pattern_expectancy	71.0	0.279	probe	BX	s609	False
634.094	0.5	634.093	0.5	AX	n/a	n/a	dot_pattern_expectancy	-1.0	n/a	cue	AX	s609	False
636.603	0.5	637.123	1.908	AX	1.0	89.0	dot_pattern_expectancy	89.0	0.52	probe	AX	s609	False
638.515	0.5	638.514	0.5	BY	n/a	n/a	dot_pattern_expectancy	-1.0	n/a	cue	BY	s609	False
641.021	0.5	641.563	2.18	BY	1.0	71.0	dot_pattern_expectancy	71.0	0.542	probe	BY	s609	False
643.204	0.5	643.203	0.5	AX	n/a	n/a	dot_pattern_expectancy	-1.0	n/a	cue	AX	s609	False
645.712	0.5	646.171	1.772	AX	1.0	89.0	dot_pattern_expectancy	89.0	0.459	probe	AX	s609	False
647.485	0.5	647.484	0.5	AX	n/a	n/a	dot_pattern_expectancy	-1.0	n/a	cue	AX	s609	False
649.997	0.5	650.545	1.5	AX	0.0	89.0	dot_pattern_expectancy	71.0	0.548	probe	AX	s609	False
651.501	0.5	651.5	0.5	AX	n/a	n/a	dot_pattern_expectancy	-1.0	n/a	cue	AX	s609	False
654.007	0.5	654.519	1.5	AX	1.0	89.0	dot_pattern_expectancy	89.0	0.512	probe	AX	s609	False
655.512	0.5	655.511	0.5	AX	n/a	n/a	dot_pattern_expectancy	-1.0	n/a	cue	AX	s609	False
658.021	0.5	658.567	2.044	AX	1.0	89.0	dot_pattern_expectancy	89.0	0.546	probe	AX	s609	False
660.067	0.5	660.066	0.5	AX	n/a	n/a	dot_pattern_expectancy	-1.0	n/a	cue	AX	s609	False
662.576	0.5	663.001	2.86	AX	1.0	89.0	dot_pattern_expectancy	89.0	0.425	probe	AX	s609	False
665.439	0.5	665.438	0.5	BX	n/a	n/a	dot_pattern_expectancy	-1.0	n/a	cue	BX	s609	False
667.949	0.5	668.191	1.5	BX	1.0	71.0	dot_pattern_expectancy	71.0	0.242	probe	BX	s609	False
669.453	0.5	669.452	0.5	BY	n/a	n/a	dot_pattern_expectancy	-1.0	n/a	cue	BY	s609	False
671.962	0.5	672.239	1.772	BY	1.0	71.0	dot_pattern_expectancy	71.0	0.277	probe	BY	s609	False
673.736	0.5	673.735	0.5	AX	n/a	n/a	dot_pattern_expectancy	-1.0	n/a	cue	AX	s609	False
676.243	0.5	676.768	1.772	AX	1.0	89.0	dot_pattern_expectancy	89.0	0.525	probe	AX	s609	False
678.019	0.5	678.018	0.5	AX	n/a	n/a	dot_pattern_expectancy	-1.0	n/a	cue	AX	s609	False
680.528	0.5	681.093	2.86	AX	1.0	89.0	dot_pattern_expectancy	89.0	0.565	probe	AX	s609	False
683.389	0.5	683.388	0.5	AX	n/a	n/a	dot_pattern_expectancy	-1.0	n/a	cue	AX	s609	False
685.898	0.5	686.341	1.772	AX	1.0	89.0	dot_pattern_expectancy	89.0	0.443	probe	AX	s609	False
687.672	0.5	687.671	0.5	BX	n/a	n/a	dot_pattern_expectancy	-1.0	n/a	cue	BX	s609	False
690.179	0.5	690.525	1.636	BX	1.0	71.0	dot_pattern_expectancy	71.0	0.346	probe	BX	s609	False
691.819	0.5	691.818	0.5	BX	n/a	n/a	dot_pattern_expectancy	-1.0	n/a	cue	BX	s609	False
694.328	0.5	694.554	2.452	BX	1.0	71.0	dot_pattern_expectancy	71.0	0.226	probe	BX	s609	False
696.787	0.5	696.786	0.5	AX	n/a	n/a	dot_pattern_expectancy	-1.0	n/a	cue	AX	s609	False
699.297	0.5	699.6	1.636	AX	1.0	89.0	dot_pattern_expectancy	89.0	0.303	probe	AX	s609	False
700.936	0.5	700.935	0.5	BX	n/a	n/a	dot_pattern_expectancy	-1.0	n/a	cue	BX	s609	False
703.447	0.5	703.718	1.5	BX	1.0	71.0	dot_pattern_expectancy	71.0	0.271	probe	BX	s609	False
704.952	0.5	704.951	0.5	AX	n/a	n/a	dot_pattern_expectancy	-1.0	n/a	cue	AX	s609	False
707.458	0.5	708.159	1.636	AX	1.0	89.0	dot_pattern_expectancy	89.0	0.701	probe	AX	s609	False
709.096	0.5	709.095	0.5	AX	n/a	n/a	dot_pattern_expectancy	-1.0	n/a	cue	AX	s609	False
711.602	0.5	711.942	1.636	AX	1.0	89.0	dot_pattern_expectancy	89.0	0.34	probe	AX	s609	False
713.24	0.5	713.239	0.5	BY	n/a	n/a	dot_pattern_expectancy	-1.0	n/a	cue	BY	s609	False
715.751	0.5	715.75	2.18	BY	0.0	71.0	dot_pattern_expectancy	-1.0	n/a	probe	BY	s609	False
717.938	0.5	717.937	0.5	AX	n/a	n/a	dot_pattern_expectancy	-1.0	n/a	cue	AX	s609	False
720.449	0.5	720.925	1.5	AX	1.0	89.0	dot_pattern_expectancy	89.0	0.476	probe	AX	s609	False
721.95	0.5	721.949	0.5	AY	n/a	n/a	dot_pattern_expectancy	-1.0	n/a	cue	AY	s609	False
724.456	0.5	725.075	1.636	AY	1.0	71.0	dot_pattern_expectancy	71.0	0.619	probe	AY	s609	False
726.093	0.5	726.092	0.5	AX	n/a	n/a	dot_pattern_expectancy	-1.0	n/a	cue	AX	s609	False
728.604	0.5	729.491	1.636	AX	1.0	89.0	dot_pattern_expectancy	89.0	0.887	probe	AX	s609	False
