onset	duration	block_duration	choice	experiment_exp_id	key_press	large_amount	later_delay	response_time	small_amount	trial_id	trial_type	worker_id	junk
3.013	4.0	4.568	larger_later	discount_fixed	89	74.0	121.0	1.77	20.0	n/a	larger_later	s609	False
7.583	4.0	4.772	larger_later	discount_fixed	89	45.0	107.0	1.853	20.0	n/a	larger_later	s609	False
12.359	4.0	4.636	larger_later	discount_fixed	89	77.0	24.0	1.053	20.0	n/a	larger_later	s609	False
16.997	4.0	4.568	larger_later	discount_fixed	89	39.0	161.0	1.473	20.0	n/a	larger_later	s609	False
21.569	4.0	5.452	larger_later	discount_fixed	89	62.0	180.0	1.13	20.0	n/a	larger_later	s609	False
27.024	4.0	5.384	smaller_sooner	discount_fixed	71	24.0	139.0	1.411	20.0	n/a	smaller_sooner	s609	False
32.411	4.0	4.568	larger_later	discount_fixed	89	58.0	72.0	0.953	20.0	n/a	larger_later	s609	False
36.983	4.0	6.268	larger_later	discount_fixed	89	56.0	93.0	1.38	20.0	n/a	larger_later	s609	False
43.256	4.0	5.52	larger_later	discount_fixed	89	45.0	26.0	2.085	20.0	n/a	larger_later	s609	False
48.779	4.0	4.568	smaller_sooner	discount_fixed	71	23.0	42.0	1.424	20.0	n/a	smaller_sooner	s609	False
53.35	4.0	4.636	larger_later	discount_fixed	89	50.0	41.0	1.124	20.0	n/a	larger_later	s609	False
57.991	4.0	4.636	smaller_sooner	discount_fixed	71	25.0	176.0	1.444	20.0	n/a	smaller_sooner	s609	False
62.629	4.0	5.112	larger_later	discount_fixed	89	54.0	22.0	1.188	20.0	n/a	larger_later	s609	False
67.743	4.0	5.316	larger_later	discount_fixed	89	29.0	44.0	1.539	20.0	n/a	larger_later	s609	False
73.061	4.0	4.568	smaller_sooner	discount_fixed	71	24.0	89.0	1.036	20.0	n/a	smaller_sooner	s609	False
77.632	4.0	4.568	smaller_sooner	discount_fixed	71	23.0	77.0	1.373	20.0	n/a	smaller_sooner	s609	False
82.203	4.0	4.568	smaller_sooner	discount_fixed	71	27.0	130.0	1.467	20.0	n/a	smaller_sooner	s609	False
86.774	4.0	4.84	smaller_sooner	discount_fixed	71	23.0	134.0	1.198	20.0	n/a	smaller_sooner	s609	False
91.62	4.0	4.5	larger_later	discount_fixed	89	55.0	107.0	1.502	20.0	n/a	larger_later	s609	False
96.123	4.0	5.656	larger_later	discount_fixed	89	44.0	143.0	1.322	20.0	n/a	larger_later	s609	False
101.783	4.0	4.908	smaller_sooner	discount_fixed	71	23.0	110.0	0.955	20.0	n/a	smaller_sooner	s609	False
106.695	4.0	4.636	larger_later	discount_fixed	89	65.0	156.0	0.949	20.0	n/a	larger_later	s609	False
111.332	4.0	4.5	smaller_sooner	discount_fixed	71	22.0	27.0	1.102	20.0	n/a	smaller_sooner	s609	False
115.833	4.0	4.5	larger_later	discount_fixed	89	50.0	59.0	1.253	20.0	n/a	larger_later	s609	False
120.336	4.0	5.112	larger_later	discount_fixed	89	85.0	129.0	1.253	20.0	n/a	larger_later	s609	False
125.449	4.0	6.132	larger_later	discount_fixed	89	66.0	58.0	0.748	20.0	n/a	larger_later	s609	False
131.585	4.0	4.84	larger_later	discount_fixed	89	49.0	172.0	1.498	20.0	n/a	larger_later	s609	False
136.427	4.0	4.568	larger_later	discount_fixed	89	73.0	44.0	1.232	20.0	n/a	larger_later	s609	False
141.0	4.0	4.704	larger_later	discount_fixed	89	58.0	73.0	1.273	20.0	n/a	larger_later	s609	False
145.708	4.0	5.86	larger_later	discount_fixed	89	71.0	76.0	1.303	20.0	n/a	larger_later	s609	False
151.569	4.0	4.636	larger_later	discount_fixed	89	67.0	74.0	1.07	20.0	n/a	larger_later	s609	False
156.207	4.0	5.316	larger_later	discount_fixed	89	29.0	58.0	1.942	20.0	n/a	larger_later	s609	False
161.528	4.0	4.976	larger_later	discount_fixed	89	39.0	104.0	1.027	20.0	n/a	larger_later	s609	False
166.506	4.0	4.568	larger_later	discount_fixed	89	33.0	103.0	0.622	20.0	n/a	larger_later	s609	False
171.078	4.0	5.52	larger_later	discount_fixed	89	33.0	78.0	0.574	20.0	n/a	larger_later	s609	False
176.601	4.0	5.588	larger_later	discount_fixed	89	74.0	52.0	1.031	20.0	n/a	larger_later	s609	False
182.192	4.0	5.792	smaller_sooner	discount_fixed	71	28.0	132.0	2.138	20.0	n/a	smaller_sooner	s609	False
187.989	4.0	4.568	smaller_sooner	discount_fixed	71	28.0	59.0	1.589	20.0	n/a	smaller_sooner	s609	False
192.56	4.0	5.112	smaller_sooner	discount_fixed	71	28.0	163.0	1.563	20.0	n/a	smaller_sooner	s609	False
197.673	4.0	4.5	larger_later	discount_fixed	89	32.0	74.0	1.334	20.0	n/a	larger_later	s609	False
202.179	4.0	4.84	larger_later	discount_fixed	89	57.0	89.0	0.837	20.0	n/a	larger_later	s609	False
207.024	4.0	4.568	larger_later	discount_fixed	89	70.0	108.0	0.896	20.0	n/a	larger_later	s609	False
211.595	4.0	5.384	larger_later	discount_fixed	89	72.0	95.0	1.063	20.0	n/a	larger_later	s609	False
216.982	4.0	5.044	larger_later	discount_fixed	89	30.0	36.0	2.41	20.0	n/a	larger_later	s609	False
222.029	4.0	4.704	larger_later	discount_fixed	89	41.0	129.0	2.036	20.0	n/a	larger_later	s609	False
226.737	4.0	4.908	larger_later	discount_fixed	89	78.0	129.0	0.986	20.0	n/a	larger_later	s609	False
231.649	4.0	4.908	larger_later	discount_fixed	89	71.0	88.0	1.029	20.0	n/a	larger_later	s609	False
236.56	4.0	4.84	larger_later	discount_fixed	89	65.0	159.0	1.997	20.0	n/a	larger_later	s609	False
241.403	4.0	5.112	smaller_sooner	discount_fixed	71	24.0	125.0	0.998	20.0	n/a	smaller_sooner	s609	False
246.517	4.0	5.112	larger_later	discount_fixed	89	58.0	36.0	0.926	20.0	n/a	larger_later	s609	False
251.635	4.0	4.704	larger_later	discount_fixed	89	63.0	37.0	1.122	20.0	n/a	larger_later	s609	False
256.341	4.0	4.84	larger_later	discount_fixed	89	75.0	41.0	1.234	20.0	n/a	larger_later	s609	False
261.184	4.0	4.84	larger_later	discount_fixed	89	45.0	72.0	1.086	20.0	n/a	larger_later	s609	False
266.029	4.0	6.88	smaller_sooner	discount_fixed	71	25.0	74.0	1.195	20.0	n/a	smaller_sooner	s609	False
272.912	4.0	4.568	larger_later	discount_fixed	89	65.0	137.0	1.114	20.0	n/a	larger_later	s609	False
277.486	4.0	4.772	larger_later	discount_fixed	89	49.0	140.0	1.575	20.0	n/a	larger_later	s609	False
282.261	4.0	7.016	larger_later	discount_fixed	89	67.0	103.0	0.974	20.0	n/a	larger_later	s609	False
289.283	4.0	4.704	larger_later	discount_fixed	89	69.0	172.0	0.808	20.0	n/a	larger_later	s609	False
293.992	4.0	5.18	larger_later	discount_fixed	89	66.0	71.0	0.788	20.0	n/a	larger_later	s609	False
299.177	4.0	5.044	larger_later	discount_fixed	89	71.0	176.0	1.149	20.0	n/a	larger_later	s609	False
304.223	4.0	5.316	smaller_sooner	discount_fixed	71	31.0	76.0	1.505	20.0	n/a	smaller_sooner	s609	False
318.053	4.0	4.568	larger_later	discount_fixed	89	43.0	19.0	2.422	20.0	n/a	larger_later	s609	False
322.625	4.0	4.636	larger_later	discount_fixed	89	60.0	124.0	1.141	20.0	n/a	larger_later	s609	False
327.266	4.0	4.908	smaller_sooner	discount_fixed	71	27.0	142.0	1.194	20.0	n/a	smaller_sooner	s609	False
332.175	4.0	4.5	smaller_sooner	discount_fixed	71	25.0	70.0	1.226	20.0	n/a	smaller_sooner	s609	False
336.68	4.0	4.976	larger_later	discount_fixed	89	44.0	92.0	1.951	20.0	n/a	larger_later	s609	False
341.658	4.0	4.908	larger_later	discount_fixed	89	41.0	27.0	1.683	20.0	n/a	larger_later	s609	False
346.571	4.0	4.568	larger_later	discount_fixed	89	64.0	89.0	0.776	20.0	n/a	larger_later	s609	False
351.14	4.0	4.5	larger_later	discount_fixed	89	78.0	108.0	0.721	20.0	n/a	larger_later	s609	False
355.643	4.0	6.2	larger_later	discount_fixed	89	80.0	145.0	1.314	20.0	n/a	larger_later	s609	False
361.848	4.0	4.704	smaller_sooner	discount_fixed	71	41.0	174.0	1.73	20.0	n/a	smaller_sooner	s609	False
366.553	4.0	5.044	smaller_sooner	discount_fixed	71	42.0	145.0	2.1	20.0	n/a	smaller_sooner	s609	False
371.602	4.0	5.044	smaller_sooner	discount_fixed	71	36.0	114.0	2.494	20.0	n/a	smaller_sooner	s609	False
376.652	4.0	5.18	larger_later	discount_fixed	89	58.0	55.0	0.862	20.0	n/a	larger_later	s609	False
381.837	4.0	4.976	larger_later	discount_fixed	89	81.0	58.0	1.509	20.0	n/a	larger_later	s609	False
386.816	4.0	4.772	smaller_sooner	discount_fixed	71	32.0	111.0	1.753	20.0	n/a	smaller_sooner	s609	False
391.593	4.0	4.772	smaller_sooner	discount_fixed	71	25.0	141.0	1.324	20.0	n/a	smaller_sooner	s609	False
396.369	4.0	5.18	larger_later	discount_fixed	89	67.0	23.0	0.689	20.0	n/a	larger_later	s609	False
401.553	4.0	5.18	larger_later	discount_fixed	89	77.0	161.0	1.437	20.0	n/a	larger_later	s609	False
406.739	4.0	5.248	larger_later	discount_fixed	89	55.0	163.0	0.882	20.0	n/a	larger_later	s609	False
411.989	4.0	4.568	smaller_sooner	discount_fixed	71	40.0	159.0	2.16	20.0	n/a	smaller_sooner	s609	False
416.559	4.0	4.5	larger_later	discount_fixed	89	76.0	161.0	0.859	20.0	n/a	larger_later	s609	False
421.061	4.0	4.908	larger_later	discount_fixed	89	48.0	128.0	1.678	20.0	n/a	larger_later	s609	False
425.973	4.0	4.568	larger_later	discount_fixed	89	39.0	95.0	1.748	20.0	n/a	larger_later	s609	False
430.545	4.0	6.2	larger_later	discount_fixed	89	83.0	105.0	2.181	20.0	n/a	larger_later	s609	False
436.748	4.0	4.908	larger_later	discount_fixed	89	67.0	41.0	1.071	20.0	n/a	larger_later	s609	False
441.661	4.0	5.248	larger_later	discount_fixed	89	56.0	172.0	1.857	20.0	n/a	larger_later	s609	False
446.911	4.0	5.044	smaller_sooner	discount_fixed	71	28.0	123.0	1.258	20.0	n/a	smaller_sooner	s609	False
451.959	4.0	4.636	larger_later	discount_fixed	89	50.0	129.0	0.705	20.0	n/a	larger_later	s609	False
456.6	4.0	4.704	smaller_sooner	discount_fixed	71	23.0	61.0	0.923	20.0	n/a	smaller_sooner	s609	False
461.308	4.0	4.636	larger_later	discount_fixed	89	79.0	92.0	1.101	20.0	n/a	larger_later	s609	False
465.946	4.0	4.568	larger_later	discount_fixed	89	61.0	141.0	2.186	20.0	n/a	larger_later	s609	False
470.517	4.0	4.568	larger_later	discount_fixed	89	43.0	38.0	1.663	20.0	n/a	larger_later	s609	False
475.089	4.0	4.908	larger_later	discount_fixed	89	66.0	145.0	0.887	20.0	n/a	larger_later	s609	False
479.999	4.0	4.84	larger_later	discount_fixed	89	30.0	23.0	2.02	20.0	n/a	larger_later	s609	False
484.845	4.0	5.248	larger_later	discount_fixed	89	32.0	57.0	1.314	20.0	n/a	larger_later	s609	False
490.095	4.0	4.772	smaller_sooner	discount_fixed	71	27.0	91.0	1.718	20.0	n/a	smaller_sooner	s609	False
494.871	4.0	5.996	larger_later	discount_fixed	89	43.0	120.0	1.323	20.0	n/a	larger_later	s609	False
500.868	4.0	5.588	larger_later	discount_fixed	89	75.0	60.0	1.296	20.0	n/a	larger_later	s609	False
506.458	4.0	4.568	smaller_sooner	discount_fixed	71	34.0	176.0	1.387	20.0	n/a	smaller_sooner	s609	False
511.029	4.0	5.112	smaller_sooner	discount_fixed	71	24.0	38.0	1.802	20.0	n/a	smaller_sooner	s609	False
516.144	4.0	5.656	larger_later	discount_fixed	89	82.0	74.0	1.123	20.0	n/a	larger_later	s609	False
521.803	4.0	4.568	larger_later	discount_fixed	89	58.0	53.0	1.191	20.0	n/a	larger_later	s609	False
526.372	4.0	4.772	larger_later	discount_fixed	89	54.0	23.0	1.346	20.0	n/a	larger_later	s609	False
531.145	4.0	5.044	larger_later	discount_fixed	89	41.0	55.0	2.294	20.0	n/a	larger_later	s609	False
536.192	4.0	4.84	larger_later	discount_fixed	89	77.0	142.0	0.988	20.0	n/a	larger_later	s609	False
541.036	4.0	5.18	smaller_sooner	discount_fixed	71	25.0	108.0	1.2	20.0	n/a	smaller_sooner	s609	False
546.218	4.0	5.044	smaller_sooner	discount_fixed	71	33.0	163.0	1.04	20.0	n/a	smaller_sooner	s609	False
551.263	4.0	4.976	smaller_sooner	discount_fixed	71	29.0	75.0	1.245	20.0	n/a	smaller_sooner	s609	False
556.243	4.0	4.976	smaller_sooner	discount_fixed	71	45.0	157.0	1.329	20.0	n/a	smaller_sooner	s609	False
561.224	4.0	5.316	larger_later	discount_fixed	89	31.0	74.0	1.542	20.0	n/a	larger_later	s609	False
566.543	4.0	4.5	larger_later	discount_fixed	89	80.0	39.0	0.823	20.0	n/a	larger_later	s609	False
571.044	4.0	5.044	smaller_sooner	discount_fixed	71	22.0	21.0	1.847	20.0	n/a	smaller_sooner	s609	False
576.093	4.0	4.704	larger_later	discount_fixed	89	52.0	139.0	0.826	20.0	n/a	larger_later	s609	False
580.802	4.0	4.84	larger_later	discount_fixed	89	54.0	126.0	1.176	20.0	n/a	larger_later	s609	False
585.643	4.0	6.744	smaller_sooner	discount_fixed	71	23.0	176.0	1.07	20.0	n/a	smaller_sooner	s609	False
592.392	4.0	4.5	smaller_sooner	discount_fixed	71	24.0	87.0	1.536	20.0	n/a	smaller_sooner	s609	False
596.896	4.0	4.568	larger_later	discount_fixed	89	36.0	140.0	1.86	20.0	n/a	larger_later	s609	False
601.469	4.0	4.704	smaller_sooner	discount_fixed	71	35.0	171.0	2.046	20.0	n/a	smaller_sooner	s609	False
606.177	4.0	4.908	larger_later	discount_fixed	89	34.0	43.0	3.06	20.0	n/a	larger_later	s609	False
