duration	onset	block_duration	movement_onset	planning	condition	exp_stage	experiment_exp_id	key_press	problem_id	response_time	trial_id	trial_type	worker_id	junk
4.018	3.01	4.018	7.028	1	UA_with_intermediate	practice	ward_and_allport	71	0.0	4.018	to_hand	poldrack-single-stim	s609	False
0.1	7.03	0.367	7.397	0	UA_with_intermediate	practice	ward_and_allport	82	0.0	0.367	to_board	poldrack-single-stim	s609	False
0.1	7.398	0.311	7.709	0	UA_with_intermediate	practice	ward_and_allport	71	0.0	0.311	to_hand	poldrack-single-stim	s609	False
0.1	7.71	0.308	8.018	0	UA_with_intermediate	practice	ward_and_allport	89	0.0	0.308	to_board	poldrack-single-stim	s609	False
0.1	8.019	0.413	8.432	0	UA_with_intermediate	practice	ward_and_allport	82	0.0	0.413	to_hand	poldrack-single-stim	s609	False
0.1	8.434	0.262	8.696	0	UA_with_intermediate	practice	ward_and_allport	89	0.0	0.262	to_board	poldrack-single-stim	s609	False
1.0	8.701	2.5	8.7	0	UA_with_intermediate	practice	ward_and_allport	-1	0.0	n/a	feedback	poldrack-single-stim	s609	False
2.873	11.203	2.873	14.076	1	UA_with_intermediate	practice	ward_and_allport	89	1.0	2.873	to_hand	poldrack-single-stim	s609	False
0.1	14.077	0.464	14.541	0	UA_with_intermediate	practice	ward_and_allport	82	1.0	0.464	to_board	poldrack-single-stim	s609	False
0.1	14.542	0.355	14.897	0	UA_with_intermediate	practice	ward_and_allport	71	1.0	0.355	to_hand	poldrack-single-stim	s609	False
0.1	14.898	0.286	15.184	0	UA_with_intermediate	practice	ward_and_allport	89	1.0	0.286	to_board	poldrack-single-stim	s609	False
0.1	15.185	0.306	15.491	0	UA_with_intermediate	practice	ward_and_allport	82	1.0	0.306	to_hand	poldrack-single-stim	s609	False
0.1	15.492	0.272	15.764	0	UA_with_intermediate	practice	ward_and_allport	89	1.0	0.272	to_board	poldrack-single-stim	s609	False
1.0	15.768	2.1	15.767	0	UA_with_intermediate	practice	ward_and_allport	-1	1.0	n/a	feedback	poldrack-single-stim	s609	False
2.065	17.869	2.065	19.934	1	UA_without_intermediate	practice	ward_and_allport	82	2.0	2.065	to_hand	poldrack-single-stim	s609	False
0.1	19.935	0.294	20.229	0	UA_without_intermediate	practice	ward_and_allport	89	2.0	0.294	to_board	poldrack-single-stim	s609	False
0.1	20.231	0.651	20.882	0	UA_without_intermediate	practice	ward_and_allport	71	2.0	0.651	to_hand	poldrack-single-stim	s609	False
0.1	20.883	0.262	21.145	0	UA_without_intermediate	practice	ward_and_allport	89	2.0	0.262	to_board	poldrack-single-stim	s609	False
0.1	21.147	0.704	21.851	0	UA_without_intermediate	practice	ward_and_allport	71	2.0	0.704	to_hand	poldrack-single-stim	s609	False
0.1	21.853	0.278	22.131	0	UA_without_intermediate	practice	ward_and_allport	89	2.0	0.278	to_board	poldrack-single-stim	s609	False
1.0	22.137	2.2	22.136	0	UA_without_intermediate	practice	ward_and_allport	-1	2.0	n/a	feedback	poldrack-single-stim	s609	False
2.5	24.338	2.5	26.838	1	UA_without_intermediate	practice	ward_and_allport	71	3.0	2.5	to_hand	poldrack-single-stim	s609	False
0.1	26.839	0.308	27.147	0	UA_without_intermediate	practice	ward_and_allport	89	3.0	0.308	to_board	poldrack-single-stim	s609	False
0.1	27.149	0.636	27.785	0	UA_without_intermediate	practice	ward_and_allport	82	3.0	0.636	to_hand	poldrack-single-stim	s609	False
0.1	27.786	0.351	28.137	0	UA_without_intermediate	practice	ward_and_allport	89	3.0	0.351	to_board	poldrack-single-stim	s609	False
0.1	28.138	0.321	28.459	0	UA_without_intermediate	practice	ward_and_allport	71	3.0	0.321	to_hand	poldrack-single-stim	s609	False
0.1	28.46	0.262	28.722	0	UA_without_intermediate	practice	ward_and_allport	89	3.0	0.262	to_board	poldrack-single-stim	s609	False
1.0	28.727	2.0	28.726	0	UA_without_intermediate	practice	ward_and_allport	-1	3.0	n/a	feedback	poldrack-single-stim	s609	False
10.129	32.736	10.129	42.865	1	PA_with_intermediate	test	ward_and_allport	82	0.0	10.129	to_hand	poldrack-single-stim	s609	False
0.1	42.866	0.289	43.155	0	PA_with_intermediate	test	ward_and_allport	89	0.0	0.289	to_board	poldrack-single-stim	s609	False
0.1	43.156	0.939	44.095	0	PA_with_intermediate	test	ward_and_allport	82	0.0	0.939	to_hand	poldrack-single-stim	s609	False
0.1	44.096	0.382	44.478	0	PA_with_intermediate	test	ward_and_allport	71	0.0	0.382	to_board	poldrack-single-stim	s609	False
0.1	44.481	0.776	45.257	0	PA_with_intermediate	test	ward_and_allport	89	0.0	0.776	to_hand	poldrack-single-stim	s609	False
0.1	45.259	0.374	45.633	0	PA_with_intermediate	test	ward_and_allport	71	0.0	0.374	to_board	poldrack-single-stim	s609	False
1.0	45.636	2.408	45.635	0	PA_with_intermediate	test	ward_and_allport	-1	0.0	n/a	feedback	poldrack-single-stim	s609	False
2.561	48.045	2.561	50.606	1	PA_without_intermediate	test	ward_and_allport	71	1.0	2.561	to_hand	poldrack-single-stim	s609	False
0.1	50.607	0.363	50.97	0	PA_without_intermediate	test	ward_and_allport	82	1.0	0.363	to_board	poldrack-single-stim	s609	False
0.1	50.971	1.268	52.239	0	PA_without_intermediate	test	ward_and_allport	71	1.0	1.268	to_hand	poldrack-single-stim	s609	False
0.1	52.24	0.252	52.492	0	PA_without_intermediate	test	ward_and_allport	82	1.0	0.252	to_board	poldrack-single-stim	s609	False
0.1	52.494	0.604	53.098	0	PA_without_intermediate	test	ward_and_allport	71	1.0	0.604	to_hand	poldrack-single-stim	s609	False
0.1	53.099	0.33	53.429	0	PA_without_intermediate	test	ward_and_allport	89	1.0	0.33	to_board	poldrack-single-stim	s609	False
1.0	53.433	2.68	53.432	0	PA_without_intermediate	test	ward_and_allport	-1	1.0	n/a	feedback	poldrack-single-stim	s609	False
2.51	56.114	2.51	58.624	1	PA_with_intermediate	test	ward_and_allport	89	2.0	2.51	to_hand	poldrack-single-stim	s609	False
0.1	58.625	0.751	59.376	0	PA_with_intermediate	test	ward_and_allport	82	2.0	0.751	to_board	poldrack-single-stim	s609	False
0.1	59.379	0.492	59.871	0	PA_with_intermediate	test	ward_and_allport	89	2.0	0.492	to_hand	poldrack-single-stim	s609	False
0.1	59.872	0.295	60.167	0	PA_with_intermediate	test	ward_and_allport	71	2.0	0.295	to_board	poldrack-single-stim	s609	False
0.1	60.168	0.61	60.778	0	PA_with_intermediate	test	ward_and_allport	82	2.0	0.61	to_hand	poldrack-single-stim	s609	False
0.1	60.779	0.341	61.12	0	PA_with_intermediate	test	ward_and_allport	89	2.0	0.341	to_board	poldrack-single-stim	s609	False
1.0	61.127	4.72	61.126	0	PA_with_intermediate	test	ward_and_allport	-1	2.0	n/a	feedback	poldrack-single-stim	s609	False
1.709	65.849	1.709	67.558	1	PA_without_intermediate	test	ward_and_allport	82	3.0	1.709	to_hand	poldrack-single-stim	s609	False
0.1	67.56	0.373	67.933	0	PA_without_intermediate	test	ward_and_allport	71	3.0	0.373	to_board	poldrack-single-stim	s609	False
0.1	67.935	0.703	68.638	0	PA_without_intermediate	test	ward_and_allport	82	3.0	0.703	to_hand	poldrack-single-stim	s609	False
0.1	68.639	0.263	68.902	0	PA_without_intermediate	test	ward_and_allport	71	3.0	0.263	to_board	poldrack-single-stim	s609	False
0.1	68.905	1.178	70.083	0	PA_without_intermediate	test	ward_and_allport	82	3.0	1.178	to_hand	poldrack-single-stim	s609	False
0.1	70.084	0.219	70.303	0	PA_without_intermediate	test	ward_and_allport	89	3.0	0.219	to_board	poldrack-single-stim	s609	False
1.0	70.309	3.224	70.308	0	PA_without_intermediate	test	ward_and_allport	-1	3.0	n/a	feedback	poldrack-single-stim	s609	False
3.201	73.536	3.201	76.737	1	PA_without_intermediate	test	ward_and_allport	89	4.0	3.201	to_hand	poldrack-single-stim	s609	False
0.1	76.738	0.348	77.086	0	PA_without_intermediate	test	ward_and_allport	82	4.0	0.348	to_board	poldrack-single-stim	s609	False
0.1	77.089	1.315	78.404	0	PA_without_intermediate	test	ward_and_allport	89	4.0	1.315	to_hand	poldrack-single-stim	s609	False
0.1	78.405	0.257	78.662	0	PA_without_intermediate	test	ward_and_allport	71	4.0	0.257	to_board	poldrack-single-stim	s609	False
0.1	78.664	0.4	79.064	0	PA_without_intermediate	test	ward_and_allport	89	4.0	0.4	to_hand	poldrack-single-stim	s609	False
0.1	79.065	0.252	79.317	0	PA_without_intermediate	test	ward_and_allport	82	4.0	0.252	to_board	poldrack-single-stim	s609	False
1.0	79.324	2.272	79.323	0	PA_without_intermediate	test	ward_and_allport	-1	4.0	n/a	feedback	poldrack-single-stim	s609	False
2.667	81.598	2.667	84.265	1	PA_with_intermediate	test	ward_and_allport	82	5.0	2.667	to_hand	poldrack-single-stim	s609	False
0.1	84.266	0.477	84.743	0	PA_with_intermediate	test	ward_and_allport	71	5.0	0.477	to_board	poldrack-single-stim	s609	False
0.1	84.746	1.146	85.892	0	PA_with_intermediate	test	ward_and_allport	82	5.0	1.146	to_hand	poldrack-single-stim	s609	False
0.1	85.894	0.226	86.12	0	PA_with_intermediate	test	ward_and_allport	89	5.0	0.226	to_board	poldrack-single-stim	s609	False
0.1	86.122	0.617	86.739	0	PA_with_intermediate	test	ward_and_allport	71	5.0	0.617	to_hand	poldrack-single-stim	s609	False
0.1	86.739	0.256	86.995	0	PA_with_intermediate	test	ward_and_allport	82	5.0	0.256	to_board	poldrack-single-stim	s609	False
1.0	86.999	3.632	86.998	0	PA_with_intermediate	test	ward_and_allport	-1	5.0	n/a	feedback	poldrack-single-stim	s609	False
2.034	90.632	2.034	92.666	1	PA_without_intermediate	test	ward_and_allport	82	6.0	2.034	to_hand	poldrack-single-stim	s609	False
0.1	92.668	1.075	93.743	0	PA_without_intermediate	test	ward_and_allport	71	6.0	1.075	to_board	poldrack-single-stim	s609	False
0.1	93.745	2.977	96.722	0	PA_without_intermediate	test	ward_and_allport	82	6.0	2.977	to_hand	poldrack-single-stim	s609	False
0.1	96.723	4.369	101.092	0	PA_without_intermediate	test	ward_and_allport	71	6.0	4.369	to_board	poldrack-single-stim	s609	False
0.1	101.094	0.321	101.415	0	PA_without_intermediate	test	ward_and_allport	82	6.0	0.321	to_hand	poldrack-single-stim	s609	False
0.1	101.416	0.439	101.855	0	PA_without_intermediate	test	ward_and_allport	89	6.0	0.439	to_board	poldrack-single-stim	s609	False
0.1	101.858	0.855	102.713	0	PA_without_intermediate	test	ward_and_allport	71	6.0	0.855	to_hand	poldrack-single-stim	s609	False
0.1	102.714	1.073	103.787	0	PA_without_intermediate	test	ward_and_allport	82	6.0	1.073	to_board	poldrack-single-stim	s609	False
0.1	103.79	0.415	104.205	0	PA_without_intermediate	test	ward_and_allport	71	6.0	0.415	to_hand	poldrack-single-stim	s609	False
0.1	104.205	0.374	104.579	0	PA_without_intermediate	test	ward_and_allport	89	6.0	0.374	to_board	poldrack-single-stim	s609	False
0.1	104.582	0.306	104.888	0	PA_without_intermediate	test	ward_and_allport	82	6.0	0.306	to_hand	poldrack-single-stim	s609	False
0.1	104.889	0.358	105.247	0	PA_without_intermediate	test	ward_and_allport	71	6.0	0.358	to_board	poldrack-single-stim	s609	False
0.1	105.25	2.042	107.292	0	PA_without_intermediate	test	ward_and_allport	89	6.0	2.042	to_hand	poldrack-single-stim	s609	False
0.1	107.293	0.459	107.752	0	PA_without_intermediate	test	ward_and_allport	82	6.0	0.459	to_board	poldrack-single-stim	s609	False
0.1	107.755	1.324	109.079	0	PA_without_intermediate	test	ward_and_allport	89	6.0	1.324	to_hand	poldrack-single-stim	s609	False
0.1	109.08	0.309	109.389	0	PA_without_intermediate	test	ward_and_allport	71	6.0	0.309	to_board	poldrack-single-stim	s609	False
0.1	109.392	0.313	109.705	0	PA_without_intermediate	test	ward_and_allport	82	6.0	0.313	to_hand	poldrack-single-stim	s609	False
0.1	109.705	0.269	109.974	0	PA_without_intermediate	test	ward_and_allport	89	6.0	0.269	to_board	poldrack-single-stim	s609	False
0.1	109.977	0.498	110.475	0	PA_without_intermediate	test	ward_and_allport	71	6.0	0.498	to_hand	poldrack-single-stim	s609	False
0.1	110.476	0.362	110.838	0	PA_without_intermediate	test	ward_and_allport	89	6.0	0.362	to_board	poldrack-single-stim	s609	False
1.0	110.847	2.408	110.846	0	PA_without_intermediate	test	ward_and_allport	-1	6.0	n/a	feedback	poldrack-single-stim	s609	False
3.699	113.258	3.699	116.957	1	PA_without_intermediate	test	ward_and_allport	89	7.0	3.699	to_hand	poldrack-single-stim	s609	False
0.1	116.957	0.316	117.273	0	PA_without_intermediate	test	ward_and_allport	71	7.0	0.316	to_board	poldrack-single-stim	s609	False
0.1	117.276	0.459	117.735	0	PA_without_intermediate	test	ward_and_allport	89	7.0	0.459	to_hand	poldrack-single-stim	s609	False
0.1	117.736	0.274	118.01	0	PA_without_intermediate	test	ward_and_allport	71	7.0	0.274	to_board	poldrack-single-stim	s609	False
0.1	118.012	0.605	118.617	0	PA_without_intermediate	test	ward_and_allport	89	7.0	0.605	to_hand	poldrack-single-stim	s609	False
0.1	118.618	0.244	118.862	0	PA_without_intermediate	test	ward_and_allport	82	7.0	0.244	to_board	poldrack-single-stim	s609	False
1.0	118.865	2.0	118.864	0	PA_without_intermediate	test	ward_and_allport	-1	7.0	n/a	feedback	poldrack-single-stim	s609	False
4.291	120.868	4.291	125.159	1	PA_with_intermediate	test	ward_and_allport	71	8.0	4.291	to_hand	poldrack-single-stim	s609	False
0.1	125.16	0.905	126.065	0	PA_with_intermediate	test	ward_and_allport	82	8.0	0.905	to_board	poldrack-single-stim	s609	False
0.1	126.068	0.464	126.532	0	PA_with_intermediate	test	ward_and_allport	71	8.0	0.464	to_hand	poldrack-single-stim	s609	False
0.1	126.534	0.229	126.763	0	PA_with_intermediate	test	ward_and_allport	89	8.0	0.229	to_board	poldrack-single-stim	s609	False
0.1	126.767	1.657	128.424	0	PA_with_intermediate	test	ward_and_allport	82	8.0	1.657	to_hand	poldrack-single-stim	s609	False
0.1	128.424	0.202	128.626	0	PA_with_intermediate	test	ward_and_allport	71	8.0	0.202	to_board	poldrack-single-stim	s609	False
1.0	128.636	2.0	128.635	0	PA_with_intermediate	test	ward_and_allport	-1	8.0	n/a	feedback	poldrack-single-stim	s609	False
5.27	130.639	5.27	135.909	1	PA_with_intermediate	test	ward_and_allport	89	9.0	5.27	to_hand	poldrack-single-stim	s609	False
0.1	135.911	0.278	136.189	0	PA_with_intermediate	test	ward_and_allport	82	9.0	0.278	to_board	poldrack-single-stim	s609	False
0.1	136.192	0.869	137.061	0	PA_with_intermediate	test	ward_and_allport	89	9.0	0.869	to_hand	poldrack-single-stim	s609	False
0.1	137.062	0.467	137.529	0	PA_with_intermediate	test	ward_and_allport	71	9.0	0.467	to_board	poldrack-single-stim	s609	False
0.1	137.533	0.373	137.906	0	PA_with_intermediate	test	ward_and_allport	82	9.0	0.373	to_hand	poldrack-single-stim	s609	False
0.1	137.907	0.321	138.228	0	PA_with_intermediate	test	ward_and_allport	71	9.0	0.321	to_board	poldrack-single-stim	s609	False
1.0	138.236	2.0	138.235	0	PA_with_intermediate	test	ward_and_allport	-1	9.0	n/a	feedback	poldrack-single-stim	s609	False
2.538	140.239	2.538	142.777	1	PA_with_intermediate	test	ward_and_allport	89	10.0	2.538	to_hand	poldrack-single-stim	s609	False
0.1	142.778	0.341	143.119	0	PA_with_intermediate	test	ward_and_allport	71	10.0	0.341	to_board	poldrack-single-stim	s609	False
0.1	143.123	0.324	143.447	0	PA_with_intermediate	test	ward_and_allport	89	10.0	0.324	to_hand	poldrack-single-stim	s609	False
0.1	143.448	0.242	143.69	0	PA_with_intermediate	test	ward_and_allport	82	10.0	0.242	to_board	poldrack-single-stim	s609	False
0.1	143.694	0.349	144.043	0	PA_with_intermediate	test	ward_and_allport	71	10.0	0.349	to_hand	poldrack-single-stim	s609	False
0.1	144.044	0.277	144.321	0	PA_with_intermediate	test	ward_and_allport	89	10.0	0.277	to_board	poldrack-single-stim	s609	False
1.0	144.329	2.408	144.328	0	PA_with_intermediate	test	ward_and_allport	-1	10.0	n/a	feedback	poldrack-single-stim	s609	False
5.685	146.74	5.685	152.425	1	PA_without_intermediate	test	ward_and_allport	71	11.0	5.685	to_hand	poldrack-single-stim	s609	False
0.1	152.426	0.442	152.868	0	PA_without_intermediate	test	ward_and_allport	82	11.0	0.442	to_board	poldrack-single-stim	s609	False
0.1	152.872	0.368	153.24	0	PA_without_intermediate	test	ward_and_allport	71	11.0	0.368	to_hand	poldrack-single-stim	s609	False
0.1	153.242	0.382	153.624	0	PA_without_intermediate	test	ward_and_allport	82	11.0	0.382	to_board	poldrack-single-stim	s609	False
0.1	153.628	0.705	154.333	0	PA_without_intermediate	test	ward_and_allport	71	11.0	0.705	to_hand	poldrack-single-stim	s609	False
0.1	154.335	0.225	154.56	0	PA_without_intermediate	test	ward_and_allport	89	11.0	0.225	to_board	poldrack-single-stim	s609	False
1.0	154.567	2.816	154.566	0	PA_without_intermediate	test	ward_and_allport	-1	11.0	n/a	feedback	poldrack-single-stim	s609	False
4.465	157.385	4.465	161.85	1	PA_with_intermediate	test	ward_and_allport	82	12.0	4.465	to_hand	poldrack-single-stim	s609	False
0.1	161.851	0.467	162.318	0	PA_with_intermediate	test	ward_and_allport	71	12.0	0.467	to_board	poldrack-single-stim	s609	False
0.1	162.322	0.703	163.025	0	PA_with_intermediate	test	ward_and_allport	82	12.0	0.703	to_hand	poldrack-single-stim	s609	False
0.1	163.026	0.27	163.296	0	PA_with_intermediate	test	ward_and_allport	89	12.0	0.27	to_board	poldrack-single-stim	s609	False
0.1	163.299	0.373	163.672	0	PA_with_intermediate	test	ward_and_allport	71	12.0	0.373	to_hand	poldrack-single-stim	s609	False
0.1	163.673	0.244	163.917	0	PA_with_intermediate	test	ward_and_allport	89	12.0	0.244	to_board	poldrack-single-stim	s609	False
1.0	163.921	4.176	163.92	0	PA_with_intermediate	test	ward_and_allport	-1	12.0	n/a	feedback	poldrack-single-stim	s609	False
3.813	168.101	3.813	171.914	1	PA_with_intermediate	test	ward_and_allport	71	13.0	3.813	to_hand	poldrack-single-stim	s609	False
0.1	171.915	0.35	172.265	0	PA_with_intermediate	test	ward_and_allport	82	13.0	0.35	to_board	poldrack-single-stim	s609	False
0.1	172.269	0.477	172.746	0	PA_with_intermediate	test	ward_and_allport	71	13.0	0.477	to_hand	poldrack-single-stim	s609	False
0.1	172.747	0.294	173.041	0	PA_with_intermediate	test	ward_and_allport	89	13.0	0.294	to_board	poldrack-single-stim	s609	False
0.1	173.045	1.253	174.298	0	PA_with_intermediate	test	ward_and_allport	82	13.0	1.253	to_hand	poldrack-single-stim	s609	False
0.1	174.299	0.257	174.556	0	PA_with_intermediate	test	ward_and_allport	71	13.0	0.257	to_board	poldrack-single-stim	s609	False
1.0	174.561	3.36	174.56	0	PA_with_intermediate	test	ward_and_allport	-1	13.0	n/a	feedback	poldrack-single-stim	s609	False
5.2	177.924	5.2	183.124	1	PA_with_intermediate	test	ward_and_allport	82	14.0	5.2	to_hand	poldrack-single-stim	s609	False
0.1	183.126	0.4	183.526	0	PA_with_intermediate	test	ward_and_allport	71	14.0	0.4	to_board	poldrack-single-stim	s609	False
0.1	183.529	1.554	185.083	0	PA_with_intermediate	test	ward_and_allport	82	14.0	1.554	to_hand	poldrack-single-stim	s609	False
0.1	185.084	0.401	185.485	0	PA_with_intermediate	test	ward_and_allport	89	14.0	0.401	to_board	poldrack-single-stim	s609	False
0.1	185.489	0.742	186.231	0	PA_with_intermediate	test	ward_and_allport	71	14.0	0.742	to_hand	poldrack-single-stim	s609	False
0.1	186.232	0.269	186.501	0	PA_with_intermediate	test	ward_and_allport	82	14.0	0.269	to_board	poldrack-single-stim	s609	False
1.0	186.508	2.0	186.507	0	PA_with_intermediate	test	ward_and_allport	-1	14.0	n/a	feedback	poldrack-single-stim	s609	False
5.854	193.514	5.854	199.368	1	PA_without_intermediate	test	ward_and_allport	71	15.0	5.854	to_hand	poldrack-single-stim	s609	False
0.1	199.369	0.353	199.722	0	PA_without_intermediate	test	ward_and_allport	89	15.0	0.353	to_board	poldrack-single-stim	s609	False
0.1	199.727	0.315	200.042	0	PA_without_intermediate	test	ward_and_allport	71	15.0	0.315	to_hand	poldrack-single-stim	s609	False
0.1	200.043	0.333	200.376	0	PA_without_intermediate	test	ward_and_allport	89	15.0	0.333	to_board	poldrack-single-stim	s609	False
0.1	200.38	0.301	200.681	0	PA_without_intermediate	test	ward_and_allport	71	15.0	0.301	to_hand	poldrack-single-stim	s609	False
0.1	200.682	0.587	201.269	0	PA_without_intermediate	test	ward_and_allport	82	15.0	0.587	to_board	poldrack-single-stim	s609	False
1.0	201.279	2.408	201.278	0	PA_without_intermediate	test	ward_and_allport	-1	15.0	n/a	feedback	poldrack-single-stim	s609	False
4.979	203.69	4.979	208.669	1	PA_with_intermediate	test	ward_and_allport	82	16.0	4.979	to_hand	poldrack-single-stim	s609	False
0.1	208.67	0.318	208.988	0	PA_with_intermediate	test	ward_and_allport	71	16.0	0.318	to_board	poldrack-single-stim	s609	False
0.1	208.992	0.296	209.288	0	PA_with_intermediate	test	ward_and_allport	82	16.0	0.296	to_hand	poldrack-single-stim	s609	False
0.1	209.289	0.311	209.6	0	PA_with_intermediate	test	ward_and_allport	89	16.0	0.311	to_board	poldrack-single-stim	s609	False
0.1	209.605	0.315	209.92	0	PA_with_intermediate	test	ward_and_allport	71	16.0	0.315	to_hand	poldrack-single-stim	s609	False
0.1	209.922	0.442	210.364	0	PA_with_intermediate	test	ward_and_allport	82	16.0	0.442	to_board	poldrack-single-stim	s609	False
0.1	210.367	1.476	211.843	0	PA_with_intermediate	test	ward_and_allport	89	16.0	1.476	to_hand	poldrack-single-stim	s609	False
0.1	211.844	0.197	212.041	0	PA_with_intermediate	test	ward_and_allport	71	16.0	0.197	to_board	poldrack-single-stim	s609	False
1.0	212.047	2.816	212.046	0	PA_with_intermediate	test	ward_and_allport	-1	16.0	n/a	feedback	poldrack-single-stim	s609	False
5.237	214.868	5.237	220.105	1	PA_without_intermediate	test	ward_and_allport	71	17.0	5.237	to_hand	poldrack-single-stim	s609	False
0.1	220.106	0.349	220.455	0	PA_without_intermediate	test	ward_and_allport	89	17.0	0.349	to_board	poldrack-single-stim	s609	False
0.1	220.459	0.395	220.854	0	PA_without_intermediate	test	ward_and_allport	71	17.0	0.395	to_hand	poldrack-single-stim	s609	False
0.1	220.855	0.386	221.241	0	PA_without_intermediate	test	ward_and_allport	82	17.0	0.386	to_board	poldrack-single-stim	s609	False
0.1	221.246	0.436	221.682	0	PA_without_intermediate	test	ward_and_allport	71	17.0	0.436	to_hand	poldrack-single-stim	s609	False
0.1	221.682	0.329	222.011	0	PA_without_intermediate	test	ward_and_allport	89	17.0	0.329	to_board	poldrack-single-stim	s609	False
1.0	222.017	3.088	222.016	0	PA_without_intermediate	test	ward_and_allport	-1	17.0	n/a	feedback	poldrack-single-stim	s609	False
3.149	225.109	3.149	228.258	1	PA_without_intermediate	test	ward_and_allport	82	18.0	3.149	to_hand	poldrack-single-stim	s609	False
0.1	228.259	0.453	228.712	0	PA_without_intermediate	test	ward_and_allport	71	18.0	0.453	to_board	poldrack-single-stim	s609	False
0.1	228.717	0.393	229.11	0	PA_without_intermediate	test	ward_and_allport	82	18.0	0.393	to_hand	poldrack-single-stim	s609	False
0.1	229.111	0.293	229.404	0	PA_without_intermediate	test	ward_and_allport	71	18.0	0.293	to_board	poldrack-single-stim	s609	False
0.1	229.408	0.344	229.752	0	PA_without_intermediate	test	ward_and_allport	82	18.0	0.344	to_hand	poldrack-single-stim	s609	False
0.1	229.753	0.233	229.986	0	PA_without_intermediate	test	ward_and_allport	89	18.0	0.233	to_board	poldrack-single-stim	s609	False
1.0	229.993	2.136	229.992	0	PA_without_intermediate	test	ward_and_allport	-1	18.0	n/a	feedback	poldrack-single-stim	s609	False
3.518	232.133	3.518	235.651	1	PA_without_intermediate	test	ward_and_allport	89	19.0	3.518	to_hand	poldrack-single-stim	s609	False
0.1	235.652	0.252	235.904	0	PA_without_intermediate	test	ward_and_allport	82	19.0	0.252	to_board	poldrack-single-stim	s609	False
0.1	235.908	1.026	236.934	0	PA_without_intermediate	test	ward_and_allport	89	19.0	1.026	to_hand	poldrack-single-stim	s609	False
0.1	236.935	0.238	237.173	0	PA_without_intermediate	test	ward_and_allport	71	19.0	0.238	to_board	poldrack-single-stim	s609	False
0.1	237.177	0.332	237.509	0	PA_without_intermediate	test	ward_and_allport	89	19.0	0.332	to_hand	poldrack-single-stim	s609	False
0.1	237.51	0.233	237.743	0	PA_without_intermediate	test	ward_and_allport	82	19.0	0.233	to_board	poldrack-single-stim	s609	False
1.0	237.751	7.168	237.75	0	PA_without_intermediate	test	ward_and_allport	-1	19.0	n/a	feedback	poldrack-single-stim	s609	False
3.373	244.922	3.373	248.295	1	PA_without_intermediate	test	ward_and_allport	82	20.0	3.373	to_hand	poldrack-single-stim	s609	False
0.1	248.296	0.363	248.659	0	PA_without_intermediate	test	ward_and_allport	71	20.0	0.363	to_board	poldrack-single-stim	s609	False
0.1	248.664	0.738	249.402	0	PA_without_intermediate	test	ward_and_allport	82	20.0	0.738	to_hand	poldrack-single-stim	s609	False
0.1	249.403	0.291	249.694	0	PA_without_intermediate	test	ward_and_allport	89	20.0	0.291	to_board	poldrack-single-stim	s609	False
0.1	249.703	0.327	250.03	0	PA_without_intermediate	test	ward_and_allport	82	20.0	0.327	to_hand	poldrack-single-stim	s609	False
0.1	250.031	0.266	250.297	0	PA_without_intermediate	test	ward_and_allport	71	20.0	0.266	to_board	poldrack-single-stim	s609	False
1.0	250.305	2.816	250.304	0	PA_without_intermediate	test	ward_and_allport	-1	20.0	n/a	feedback	poldrack-single-stim	s609	False
3.579	253.127	3.579	256.706	1	PA_with_intermediate	test	ward_and_allport	89	21.0	3.579	to_hand	poldrack-single-stim	s609	False
0.1	256.706	1.693	258.399	0	PA_with_intermediate	test	ward_and_allport	71	21.0	1.693	to_board	poldrack-single-stim	s609	False
0.1	258.405	0.333	258.738	0	PA_with_intermediate	test	ward_and_allport	89	21.0	0.333	to_hand	poldrack-single-stim	s609	False
0.1	258.739	0.27	259.009	0	PA_with_intermediate	test	ward_and_allport	82	21.0	0.27	to_board	poldrack-single-stim	s609	False
0.1	259.014	0.57	259.584	0	PA_with_intermediate	test	ward_and_allport	71	21.0	0.57	to_hand	poldrack-single-stim	s609	False
0.1	259.585	0.208	259.793	0	PA_with_intermediate	test	ward_and_allport	82	21.0	0.208	to_board	poldrack-single-stim	s609	False
1.0	259.801	2.952	259.8	0	PA_with_intermediate	test	ward_and_allport	-1	21.0	n/a	feedback	poldrack-single-stim	s609	False
4.407	262.758	4.407	267.165	1	PA_with_intermediate	test	ward_and_allport	82	22.0	4.407	to_hand	poldrack-single-stim	s609	False
0.1	267.166	0.276	267.442	0	PA_with_intermediate	test	ward_and_allport	89	22.0	0.276	to_board	poldrack-single-stim	s609	False
0.1	267.447	0.521	267.968	0	PA_with_intermediate	test	ward_and_allport	82	22.0	0.521	to_hand	poldrack-single-stim	s609	False
0.1	267.969	0.257	268.226	0	PA_with_intermediate	test	ward_and_allport	71	22.0	0.257	to_board	poldrack-single-stim	s609	False
0.1	268.231	0.333	268.564	0	PA_with_intermediate	test	ward_and_allport	89	22.0	0.333	to_hand	poldrack-single-stim	s609	False
0.1	268.565	0.69	269.255	0	PA_with_intermediate	test	ward_and_allport	82	22.0	0.69	to_board	poldrack-single-stim	s609	False
1.0	269.263	2.136	269.262	0	PA_with_intermediate	test	ward_and_allport	-1	22.0	n/a	feedback	poldrack-single-stim	s609	False
4.078	271.404	4.078	275.482	1	PA_without_intermediate	test	ward_and_allport	89	23.0	4.078	to_hand	poldrack-single-stim	s609	False
0.1	275.483	0.261	275.744	0	PA_without_intermediate	test	ward_and_allport	82	23.0	0.261	to_board	poldrack-single-stim	s609	False
0.1	275.75	0.337	276.087	0	PA_without_intermediate	test	ward_and_allport	89	23.0	0.337	to_hand	poldrack-single-stim	s609	False
0.1	276.087	0.276	276.363	0	PA_without_intermediate	test	ward_and_allport	82	23.0	0.276	to_board	poldrack-single-stim	s609	False
0.1	276.369	0.436	276.805	0	PA_without_intermediate	test	ward_and_allport	89	23.0	0.436	to_hand	poldrack-single-stim	s609	False
0.1	276.806	0.245	277.051	0	PA_without_intermediate	test	ward_and_allport	71	23.0	0.245	to_board	poldrack-single-stim	s609	False
1.0	277.059	2.68	277.058	0	PA_without_intermediate	test	ward_and_allport	-1	23.0	n/a	feedback	poldrack-single-stim	s609	False
4.919	279.745	4.919	284.664	1	PA_without_intermediate	test	ward_and_allport	89	24.0	4.919	to_hand	poldrack-single-stim	s609	False
0.1	284.665	0.257	284.922	0	PA_without_intermediate	test	ward_and_allport	82	24.0	0.257	to_board	poldrack-single-stim	s609	False
0.1	284.928	0.216	285.144	0	PA_without_intermediate	test	ward_and_allport	89	24.0	0.216	to_hand	poldrack-single-stim	s609	False
0.1	285.145	0.24	285.385	0	PA_without_intermediate	test	ward_and_allport	82	24.0	0.24	to_board	poldrack-single-stim	s609	False
0.1	285.391	0.283	285.674	0	PA_without_intermediate	test	ward_and_allport	89	24.0	0.283	to_hand	poldrack-single-stim	s609	False
0.1	285.675	0.213	285.888	0	PA_without_intermediate	test	ward_and_allport	71	24.0	0.213	to_board	poldrack-single-stim	s609	False
1.0	285.895	3.088	285.894	0	PA_without_intermediate	test	ward_and_allport	-1	24.0	n/a	feedback	poldrack-single-stim	s609	False
3.215	288.989	3.215	292.204	1	PA_with_intermediate	test	ward_and_allport	89	25.0	3.215	to_hand	poldrack-single-stim	s609	False
0.1	292.206	0.284	292.49	0	PA_with_intermediate	test	ward_and_allport	82	25.0	0.284	to_board	poldrack-single-stim	s609	False
0.1	292.498	0.254	292.752	0	PA_with_intermediate	test	ward_and_allport	89	25.0	0.254	to_hand	poldrack-single-stim	s609	False
0.1	292.753	0.242	292.995	0	PA_with_intermediate	test	ward_and_allport	71	25.0	0.242	to_board	poldrack-single-stim	s609	False
0.1	293.002	0.261	293.263	0	PA_with_intermediate	test	ward_and_allport	82	25.0	0.261	to_hand	poldrack-single-stim	s609	False
0.1	293.263	0.27	293.533	0	PA_with_intermediate	test	ward_and_allport	71	25.0	0.27	to_board	poldrack-single-stim	s609	False
1.0	293.543	2.0	293.542	0	PA_with_intermediate	test	ward_and_allport	-1	25.0	n/a	feedback	poldrack-single-stim	s609	False
2.574	295.549	2.574	298.123	1	PA_without_intermediate	test	ward_and_allport	89	26.0	2.574	to_hand	poldrack-single-stim	s609	False
0.1	298.123	0.218	298.341	0	PA_without_intermediate	test	ward_and_allport	71	26.0	0.218	to_board	poldrack-single-stim	s609	False
0.1	298.347	0.51	298.857	0	PA_without_intermediate	test	ward_and_allport	89	26.0	0.51	to_hand	poldrack-single-stim	s609	False
0.1	298.858	0.451	299.309	0	PA_without_intermediate	test	ward_and_allport	82	26.0	0.451	to_board	poldrack-single-stim	s609	False
0.1	299.315	0.247	299.562	0	PA_without_intermediate	test	ward_and_allport	89	26.0	0.247	to_hand	poldrack-single-stim	s609	False
0.1	299.564	0.222	299.786	0	PA_without_intermediate	test	ward_and_allport	71	26.0	0.222	to_board	poldrack-single-stim	s609	False
1.0	299.794	2.0	299.793	0	PA_without_intermediate	test	ward_and_allport	-1	26.0	n/a	feedback	poldrack-single-stim	s609	False
2.707	301.8	2.707	304.507	1	PA_without_intermediate	test	ward_and_allport	71	27.0	2.707	to_hand	poldrack-single-stim	s609	False
0.1	304.509	0.213	304.722	0	PA_without_intermediate	test	ward_and_allport	89	27.0	0.213	to_board	poldrack-single-stim	s609	False
0.1	304.728	0.252	304.98	0	PA_without_intermediate	test	ward_and_allport	71	27.0	0.252	to_hand	poldrack-single-stim	s609	False
0.1	304.981	0.226	305.207	0	PA_without_intermediate	test	ward_and_allport	89	27.0	0.226	to_board	poldrack-single-stim	s609	False
0.1	305.213	0.405	305.618	0	PA_without_intermediate	test	ward_and_allport	71	27.0	0.405	to_hand	poldrack-single-stim	s609	False
0.1	305.619	0.215	305.834	0	PA_without_intermediate	test	ward_and_allport	82	27.0	0.215	to_board	poldrack-single-stim	s609	False
1.0	305.843	2.0	305.842	0	PA_without_intermediate	test	ward_and_allport	-1	27.0	n/a	feedback	poldrack-single-stim	s609	False
7.209	307.849	7.209	315.058	1	PA_with_intermediate	test	ward_and_allport	82	28.0	7.209	to_hand	poldrack-single-stim	s609	False
0.1	315.059	0.43	315.489	0	PA_with_intermediate	test	ward_and_allport	89	28.0	0.43	to_board	poldrack-single-stim	s609	False
0.1	315.498	0.617	316.115	0	PA_with_intermediate	test	ward_and_allport	82	28.0	0.617	to_hand	poldrack-single-stim	s609	False
0.1	316.116	0.945	317.061	0	PA_with_intermediate	test	ward_and_allport	71	28.0	0.945	to_board	poldrack-single-stim	s609	False
0.1	317.067	0.312	317.379	0	PA_with_intermediate	test	ward_and_allport	89	28.0	0.312	to_hand	poldrack-single-stim	s609	False
0.1	317.38	0.234	317.614	0	PA_with_intermediate	test	ward_and_allport	71	28.0	0.234	to_board	poldrack-single-stim	s609	False
1.0	317.623	2.544	317.622	0	PA_with_intermediate	test	ward_and_allport	-1	28.0	n/a	feedback	poldrack-single-stim	s609	False
2.573	320.172	2.573	322.745	1	PA_without_intermediate	test	ward_and_allport	89	29.0	2.573	to_hand	poldrack-single-stim	s609	False
0.1	322.746	0.218	322.964	0	PA_without_intermediate	test	ward_and_allport	71	29.0	0.218	to_board	poldrack-single-stim	s609	False
0.1	322.971	0.421	323.392	0	PA_without_intermediate	test	ward_and_allport	89	29.0	0.421	to_hand	poldrack-single-stim	s609	False
0.1	323.393	0.227	323.62	0	PA_without_intermediate	test	ward_and_allport	82	29.0	0.227	to_board	poldrack-single-stim	s609	False
0.1	323.63	0.285	323.915	0	PA_without_intermediate	test	ward_and_allport	89	29.0	0.285	to_hand	poldrack-single-stim	s609	False
0.1	323.916	0.196	324.112	0	PA_without_intermediate	test	ward_and_allport	71	29.0	0.196	to_board	poldrack-single-stim	s609	False
1.0	324.122	2.272	324.121	0	PA_without_intermediate	test	ward_and_allport	-1	29.0	n/a	feedback	poldrack-single-stim	s609	False
2.655	331.406	2.655	334.061	1	PA_with_intermediate	test	ward_and_allport	71	30.0	2.655	to_hand	poldrack-single-stim	s609	False
0.1	334.063	0.355	334.418	0	PA_with_intermediate	test	ward_and_allport	82	30.0	0.355	to_board	poldrack-single-stim	s609	False
0.1	334.425	0.637	335.062	0	PA_with_intermediate	test	ward_and_allport	71	30.0	0.637	to_hand	poldrack-single-stim	s609	False
0.1	335.063	0.344	335.407	0	PA_with_intermediate	test	ward_and_allport	89	30.0	0.344	to_board	poldrack-single-stim	s609	False
0.1	335.414	0.347	335.761	0	PA_with_intermediate	test	ward_and_allport	82	30.0	0.347	to_hand	poldrack-single-stim	s609	False
0.1	335.762	0.329	336.091	0	PA_with_intermediate	test	ward_and_allport	89	30.0	0.329	to_board	poldrack-single-stim	s609	False
1.0	336.1	4.04	336.099	0	PA_with_intermediate	test	ward_and_allport	-1	30.0	n/a	feedback	poldrack-single-stim	s609	False
2.3	340.147	2.3	342.447	1	PA_with_intermediate	test	ward_and_allport	71	31.0	2.3	to_hand	poldrack-single-stim	s609	False
0.1	342.448	0.299	342.747	0	PA_with_intermediate	test	ward_and_allport	89	31.0	0.299	to_board	poldrack-single-stim	s609	False
0.1	342.754	0.296	343.05	0	PA_with_intermediate	test	ward_and_allport	71	31.0	0.296	to_hand	poldrack-single-stim	s609	False
0.1	343.051	0.421	343.472	0	PA_with_intermediate	test	ward_and_allport	82	31.0	0.421	to_board	poldrack-single-stim	s609	False
0.1	343.48	0.36	343.84	0	PA_with_intermediate	test	ward_and_allport	89	31.0	0.36	to_hand	poldrack-single-stim	s609	False
0.1	343.841	0.266	344.107	0	PA_with_intermediate	test	ward_and_allport	71	31.0	0.266	to_board	poldrack-single-stim	s609	False
1.0	344.119	2.272	344.118	0	PA_with_intermediate	test	ward_and_allport	-1	31.0	n/a	feedback	poldrack-single-stim	s609	False
1.959	346.396	1.959	348.355	1	PA_with_intermediate	test	ward_and_allport	89	32.0	1.959	to_hand	poldrack-single-stim	s609	False
0.1	348.356	0.272	348.628	0	PA_with_intermediate	test	ward_and_allport	82	32.0	0.272	to_board	poldrack-single-stim	s609	False
0.1	348.633	0.302	348.935	0	PA_with_intermediate	test	ward_and_allport	89	32.0	0.302	to_hand	poldrack-single-stim	s609	False
0.1	348.936	0.261	349.197	0	PA_with_intermediate	test	ward_and_allport	71	32.0	0.261	to_board	poldrack-single-stim	s609	False
0.1	349.202	0.464	349.666	0	PA_with_intermediate	test	ward_and_allport	82	32.0	0.464	to_hand	poldrack-single-stim	s609	False
0.1	349.667	0.287	349.954	0	PA_with_intermediate	test	ward_and_allport	89	32.0	0.287	to_board	poldrack-single-stim	s609	False
1.0	349.961	2.136	349.96	0	PA_with_intermediate	test	ward_and_allport	-1	32.0	n/a	feedback	poldrack-single-stim	s609	False
3.014	352.103	3.014	355.117	1	PA_with_intermediate	test	ward_and_allport	89	33.0	3.014	to_hand	poldrack-single-stim	s609	False
0.1	355.118	0.464	355.582	0	PA_with_intermediate	test	ward_and_allport	71	33.0	0.464	to_board	poldrack-single-stim	s609	False
0.1	355.587	0.416	356.003	0	PA_with_intermediate	test	ward_and_allport	89	33.0	0.416	to_hand	poldrack-single-stim	s609	False
0.1	356.005	0.297	356.302	0	PA_with_intermediate	test	ward_and_allport	82	33.0	0.297	to_board	poldrack-single-stim	s609	False
0.1	356.308	0.52	356.828	0	PA_with_intermediate	test	ward_and_allport	71	33.0	0.52	to_hand	poldrack-single-stim	s609	False
0.1	356.829	0.325	357.154	0	PA_with_intermediate	test	ward_and_allport	82	33.0	0.325	to_board	poldrack-single-stim	s609	False
1.0	357.164	2.0	357.163	0	PA_with_intermediate	test	ward_and_allport	-1	33.0	n/a	feedback	poldrack-single-stim	s609	False
2.676	359.172	2.676	361.848	1	PA_with_intermediate	test	ward_and_allport	71	34.0	2.676	to_hand	poldrack-single-stim	s609	False
0.1	361.849	0.327	362.176	0	PA_with_intermediate	test	ward_and_allport	82	34.0	0.327	to_board	poldrack-single-stim	s609	False
0.1	362.181	0.36	362.541	0	PA_with_intermediate	test	ward_and_allport	71	34.0	0.36	to_hand	poldrack-single-stim	s609	False
0.1	362.542	0.347	362.889	0	PA_with_intermediate	test	ward_and_allport	89	34.0	0.347	to_board	poldrack-single-stim	s609	False
0.1	362.895	0.278	363.173	0	PA_with_intermediate	test	ward_and_allport	82	34.0	0.278	to_hand	poldrack-single-stim	s609	False
0.1	363.174	0.312	363.486	0	PA_with_intermediate	test	ward_and_allport	89	34.0	0.312	to_board	poldrack-single-stim	s609	False
1.0	363.495	2.0	363.494	0	PA_with_intermediate	test	ward_and_allport	-1	34.0	n/a	feedback	poldrack-single-stim	s609	False
2.614	365.501	2.614	368.115	1	PA_without_intermediate	test	ward_and_allport	82	35.0	2.614	to_hand	poldrack-single-stim	s609	False
0.1	368.115	2.245	370.36	0	PA_without_intermediate	test	ward_and_allport	89	35.0	2.245	to_board	poldrack-single-stim	s609	False
0.1	370.374	0.447	370.821	0	PA_without_intermediate	test	ward_and_allport	82	35.0	0.447	to_hand	poldrack-single-stim	s609	False
0.1	370.823	0.576	371.399	0	PA_without_intermediate	test	ward_and_allport	71	35.0	0.576	to_board	poldrack-single-stim	s609	False
0.1	371.407	0.672	372.079	0	PA_without_intermediate	test	ward_and_allport	82	35.0	0.672	to_hand	poldrack-single-stim	s609	False
0.1	372.08	0.354	372.434	0	PA_without_intermediate	test	ward_and_allport	89	35.0	0.354	to_board	poldrack-single-stim	s609	False
1.0	372.445	2.408	372.444	0	PA_without_intermediate	test	ward_and_allport	-1	35.0	n/a	feedback	poldrack-single-stim	s609	False
2.495	374.861	2.495	377.356	1	PA_with_intermediate	test	ward_and_allport	71	36.0	2.495	to_hand	poldrack-single-stim	s609	False
0.1	377.358	0.277	377.635	0	PA_with_intermediate	test	ward_and_allport	89	36.0	0.277	to_board	poldrack-single-stim	s609	False
0.1	377.64	0.238	377.878	0	PA_with_intermediate	test	ward_and_allport	71	36.0	0.238	to_hand	poldrack-single-stim	s609	False
0.1	377.879	0.196	378.075	0	PA_with_intermediate	test	ward_and_allport	82	36.0	0.196	to_board	poldrack-single-stim	s609	False
0.1	378.081	0.267	378.348	0	PA_with_intermediate	test	ward_and_allport	89	36.0	0.267	to_hand	poldrack-single-stim	s609	False
0.1	378.349	0.233	378.582	0	PA_with_intermediate	test	ward_and_allport	82	36.0	0.233	to_board	poldrack-single-stim	s609	False
1.0	378.591	3.768	378.59	0	PA_with_intermediate	test	ward_and_allport	-1	36.0	n/a	feedback	poldrack-single-stim	s609	False
4.84	382.365	4.84	387.205	1	PA_with_intermediate	test	ward_and_allport	71	37.0	4.84	to_hand	poldrack-single-stim	s609	False
0.1	387.206	0.358	387.564	0	PA_with_intermediate	test	ward_and_allport	89	37.0	0.358	to_board	poldrack-single-stim	s609	False
0.1	387.573	0.489	388.062	0	PA_with_intermediate	test	ward_and_allport	71	37.0	0.489	to_hand	poldrack-single-stim	s609	False
0.1	388.062	0.26	388.322	0	PA_with_intermediate	test	ward_and_allport	82	37.0	0.26	to_board	poldrack-single-stim	s609	False
0.1	388.331	0.3	388.631	0	PA_with_intermediate	test	ward_and_allport	89	37.0	0.3	to_hand	poldrack-single-stim	s609	False
0.1	388.632	0.294	388.926	0	PA_with_intermediate	test	ward_and_allport	82	37.0	0.294	to_board	poldrack-single-stim	s609	False
1.0	388.937	2.68	388.936	0	PA_with_intermediate	test	ward_and_allport	-1	37.0	n/a	feedback	poldrack-single-stim	s609	False
4.273	391.624	4.273	395.897	1	PA_without_intermediate	test	ward_and_allport	82	38.0	4.273	to_hand	poldrack-single-stim	s609	False
0.1	395.898	0.353	396.251	0	PA_without_intermediate	test	ward_and_allport	71	38.0	0.353	to_board	poldrack-single-stim	s609	False
0.1	396.26	0.305	396.565	0	PA_without_intermediate	test	ward_and_allport	82	38.0	0.305	to_hand	poldrack-single-stim	s609	False
0.1	396.566	0.263	396.829	0	PA_without_intermediate	test	ward_and_allport	89	38.0	0.263	to_board	poldrack-single-stim	s609	False
0.1	396.838	0.356	397.194	0	PA_without_intermediate	test	ward_and_allport	71	38.0	0.356	to_hand	poldrack-single-stim	s609	False
0.1	397.195	0.297	397.492	0	PA_without_intermediate	test	ward_and_allport	89	38.0	0.297	to_board	poldrack-single-stim	s609	False
0.1	397.499	0.295	397.794	0	PA_without_intermediate	test	ward_and_allport	82	38.0	0.295	to_hand	poldrack-single-stim	s609	False
0.1	397.795	0.324	398.119	0	PA_without_intermediate	test	ward_and_allport	71	38.0	0.324	to_board	poldrack-single-stim	s609	False
0.1	398.125	2.174	400.299	0	PA_without_intermediate	test	ward_and_allport	89	38.0	2.174	to_hand	poldrack-single-stim	s609	False
0.1	400.3	0.32	400.62	0	PA_without_intermediate	test	ward_and_allport	82	38.0	0.32	to_board	poldrack-single-stim	s609	False
0.1	400.626	1.161	401.787	0	PA_without_intermediate	test	ward_and_allport	89	38.0	1.161	to_hand	poldrack-single-stim	s609	False
0.1	401.788	0.2	401.988	0	PA_without_intermediate	test	ward_and_allport	71	38.0	0.2	to_board	poldrack-single-stim	s609	False
0.1	401.993	0.293	402.286	0	PA_without_intermediate	test	ward_and_allport	82	38.0	0.293	to_hand	poldrack-single-stim	s609	False
0.1	402.287	0.281	402.568	0	PA_without_intermediate	test	ward_and_allport	89	38.0	0.281	to_board	poldrack-single-stim	s609	False
0.1	402.573	0.395	402.968	0	PA_without_intermediate	test	ward_and_allport	71	38.0	0.395	to_hand	poldrack-single-stim	s609	False
0.1	402.969	0.2	403.169	0	PA_without_intermediate	test	ward_and_allport	89	38.0	0.2	to_board	poldrack-single-stim	s609	False
1.0	403.177	3.224	403.176	0	PA_without_intermediate	test	ward_and_allport	-1	38.0	n/a	feedback	poldrack-single-stim	s609	False
2.526	406.408	2.526	408.934	1	PA_without_intermediate	test	ward_and_allport	71	39.0	2.526	to_hand	poldrack-single-stim	s609	False
0.1	408.934	0.317	409.251	0	PA_without_intermediate	test	ward_and_allport	82	39.0	0.317	to_board	poldrack-single-stim	s609	False
0.1	409.257	1.003	410.26	0	PA_without_intermediate	test	ward_and_allport	71	39.0	1.003	to_hand	poldrack-single-stim	s609	False
0.1	410.261	0.212	410.473	0	PA_without_intermediate	test	ward_and_allport	89	39.0	0.212	to_board	poldrack-single-stim	s609	False
0.1	410.482	0.3	410.782	0	PA_without_intermediate	test	ward_and_allport	71	39.0	0.3	to_hand	poldrack-single-stim	s609	False
0.1	410.783	0.212	410.995	0	PA_without_intermediate	test	ward_and_allport	82	39.0	0.212	to_board	poldrack-single-stim	s609	False
1.0	411.009	3.36	411.008	0	PA_without_intermediate	test	ward_and_allport	-1	39.0	n/a	feedback	poldrack-single-stim	s609	False
2.676	414.377	2.676	417.053	1	PA_without_intermediate	test	ward_and_allport	71	40.0	2.676	to_hand	poldrack-single-stim	s609	False
0.1	417.055	0.428	417.483	0	PA_without_intermediate	test	ward_and_allport	89	40.0	0.428	to_board	poldrack-single-stim	s609	False
0.1	417.489	0.4	417.889	0	PA_without_intermediate	test	ward_and_allport	71	40.0	0.4	to_hand	poldrack-single-stim	s609	False
0.1	417.89	0.393	418.283	0	PA_without_intermediate	test	ward_and_allport	82	40.0	0.393	to_board	poldrack-single-stim	s609	False
0.1	418.29	0.311	418.601	0	PA_without_intermediate	test	ward_and_allport	71	40.0	0.311	to_hand	poldrack-single-stim	s609	False
0.1	418.602	0.27	418.872	0	PA_without_intermediate	test	ward_and_allport	89	40.0	0.27	to_board	poldrack-single-stim	s609	False
1.0	418.881	2.0	418.88	0	PA_without_intermediate	test	ward_and_allport	-1	40.0	n/a	feedback	poldrack-single-stim	s609	False
2.911	420.89	2.911	423.801	1	PA_without_intermediate	test	ward_and_allport	82	41.0	2.911	to_hand	poldrack-single-stim	s609	False
0.1	423.802	0.358	424.16	0	PA_without_intermediate	test	ward_and_allport	89	41.0	0.358	to_board	poldrack-single-stim	s609	False
0.1	424.166	2.595	426.761	0	PA_without_intermediate	test	ward_and_allport	82	41.0	2.595	to_hand	poldrack-single-stim	s609	False
0.1	426.762	0.338	427.1	0	PA_without_intermediate	test	ward_and_allport	89	41.0	0.338	to_board	poldrack-single-stim	s609	False
0.1	427.108	0.855	427.963	0	PA_without_intermediate	test	ward_and_allport	82	41.0	0.855	to_hand	poldrack-single-stim	s609	False
0.1	427.964	0.269	428.233	0	PA_without_intermediate	test	ward_and_allport	71	41.0	0.269	to_board	poldrack-single-stim	s609	False
1.0	428.243	2.408	428.242	0	PA_without_intermediate	test	ward_and_allport	-1	41.0	n/a	feedback	poldrack-single-stim	s609	False
2.785	430.66	2.785	433.445	1	PA_with_intermediate	test	ward_and_allport	82	42.0	2.785	to_hand	poldrack-single-stim	s609	False
0.1	433.446	0.322	433.768	0	PA_with_intermediate	test	ward_and_allport	71	42.0	0.322	to_board	poldrack-single-stim	s609	False
0.1	433.776	0.27	434.046	0	PA_with_intermediate	test	ward_and_allport	82	42.0	0.27	to_hand	poldrack-single-stim	s609	False
0.1	434.047	0.259	434.306	0	PA_with_intermediate	test	ward_and_allport	89	42.0	0.259	to_board	poldrack-single-stim	s609	False
0.1	434.314	0.248	434.562	0	PA_with_intermediate	test	ward_and_allport	71	42.0	0.248	to_hand	poldrack-single-stim	s609	False
0.1	434.562	0.301	434.863	0	PA_with_intermediate	test	ward_and_allport	89	42.0	0.301	to_board	poldrack-single-stim	s609	False
1.0	434.873	2.136	434.872	0	PA_with_intermediate	test	ward_and_allport	-1	42.0	n/a	feedback	poldrack-single-stim	s609	False
3.261	437.016	3.261	440.277	1	PA_without_intermediate	test	ward_and_allport	89	43.0	3.261	to_hand	poldrack-single-stim	s609	False
0.1	440.278	0.297	440.575	0	PA_without_intermediate	test	ward_and_allport	71	43.0	0.297	to_board	poldrack-single-stim	s609	False
0.1	440.582	0.712	441.294	0	PA_without_intermediate	test	ward_and_allport	89	43.0	0.712	to_hand	poldrack-single-stim	s609	False
0.1	441.295	0.239	441.534	0	PA_without_intermediate	test	ward_and_allport	71	43.0	0.239	to_board	poldrack-single-stim	s609	False
0.1	441.544	0.261	441.805	0	PA_without_intermediate	test	ward_and_allport	89	43.0	0.261	to_hand	poldrack-single-stim	s609	False
0.1	441.805	0.23	442.035	0	PA_without_intermediate	test	ward_and_allport	82	43.0	0.23	to_board	poldrack-single-stim	s609	False
1.0	442.052	5.128	442.051	0	PA_without_intermediate	test	ward_and_allport	-1	43.0	n/a	feedback	poldrack-single-stim	s609	False
3.214	447.189	3.214	450.403	1	PA_without_intermediate	test	ward_and_allport	71	44.0	3.214	to_hand	poldrack-single-stim	s609	False
0.1	450.404	0.314	450.718	0	PA_without_intermediate	test	ward_and_allport	82	44.0	0.314	to_board	poldrack-single-stim	s609	False
0.1	450.727	0.254	450.981	0	PA_without_intermediate	test	ward_and_allport	71	44.0	0.254	to_hand	poldrack-single-stim	s609	False
0.1	450.982	0.208	451.19	0	PA_without_intermediate	test	ward_and_allport	89	44.0	0.208	to_board	poldrack-single-stim	s609	False
0.1	451.202	0.283	451.485	0	PA_without_intermediate	test	ward_and_allport	71	44.0	0.283	to_hand	poldrack-single-stim	s609	False
0.1	451.485	0.24	451.725	0	PA_without_intermediate	test	ward_and_allport	82	44.0	0.24	to_board	poldrack-single-stim	s609	False
1.0	451.737	2.136	451.736	0	PA_without_intermediate	test	ward_and_allport	-1	44.0	n/a	feedback	poldrack-single-stim	s609	False
2.896	458.887	2.896	461.783	1	PA_without_intermediate	test	ward_and_allport	82	45.0	2.896	to_hand	poldrack-single-stim	s609	False
0.1	461.785	0.282	462.067	0	PA_without_intermediate	test	ward_and_allport	71	45.0	0.282	to_board	poldrack-single-stim	s609	False
0.1	462.08	0.48	462.56	0	PA_without_intermediate	test	ward_and_allport	82	45.0	0.48	to_hand	poldrack-single-stim	s609	False
0.1	462.561	0.339	462.9	0	PA_without_intermediate	test	ward_and_allport	89	45.0	0.339	to_board	poldrack-single-stim	s609	False
0.1	462.911	0.599	463.51	0	PA_without_intermediate	test	ward_and_allport	82	45.0	0.599	to_hand	poldrack-single-stim	s609	False
0.1	463.511	0.225	463.736	0	PA_without_intermediate	test	ward_and_allport	71	45.0	0.225	to_board	poldrack-single-stim	s609	False
1.0	463.751	5.264	463.75	0	PA_without_intermediate	test	ward_and_allport	-1	45.0	n/a	feedback	poldrack-single-stim	s609	False
4.05	469.025	4.05	473.075	1	PA_with_intermediate	test	ward_and_allport	71	46.0	4.05	to_hand	poldrack-single-stim	s609	False
0.1	473.076	0.249	473.325	0	PA_with_intermediate	test	ward_and_allport	89	46.0	0.249	to_board	poldrack-single-stim	s609	False
0.1	473.335	0.238	473.573	0	PA_with_intermediate	test	ward_and_allport	71	46.0	0.238	to_hand	poldrack-single-stim	s609	False
0.1	473.574	0.348	473.922	0	PA_with_intermediate	test	ward_and_allport	82	46.0	0.348	to_board	poldrack-single-stim	s609	False
0.1	473.933	0.618	474.551	0	PA_with_intermediate	test	ward_and_allport	89	46.0	0.618	to_hand	poldrack-single-stim	s609	False
0.1	474.553	0.2	474.753	0	PA_with_intermediate	test	ward_and_allport	71	46.0	0.2	to_board	poldrack-single-stim	s609	False
1.0	474.763	4.04	474.762	0	PA_with_intermediate	test	ward_and_allport	-1	46.0	n/a	feedback	poldrack-single-stim	s609	False
1.842	478.81	1.842	480.652	1	PA_with_intermediate	test	ward_and_allport	89	47.0	1.842	to_hand	poldrack-single-stim	s609	False
0.1	480.653	0.289	480.942	0	PA_with_intermediate	test	ward_and_allport	71	47.0	0.289	to_board	poldrack-single-stim	s609	False
0.1	480.952	0.197	481.149	0	PA_with_intermediate	test	ward_and_allport	89	47.0	0.197	to_hand	poldrack-single-stim	s609	False
0.1	481.152	0.257	481.409	0	PA_with_intermediate	test	ward_and_allport	82	47.0	0.257	to_board	poldrack-single-stim	s609	False
0.1	481.424	0.336	481.76	0	PA_with_intermediate	test	ward_and_allport	71	47.0	0.336	to_hand	poldrack-single-stim	s609	False
0.1	481.761	0.262	482.023	0	PA_with_intermediate	test	ward_and_allport	89	47.0	0.262	to_board	poldrack-single-stim	s609	False
1.0	482.033	2.136	482.032	0	PA_with_intermediate	test	ward_and_allport	-1	47.0	n/a	feedback	poldrack-single-stim	s609	False
