onset	duration	movement_onset	CTI	block_duration	correct	correct_response	cue	cue_switch	experiment_exp_id	key_press	response_time	stim_color	stim_number	switch_type	task	task_switch	trial_id	trial_type	worker_id	first_trial_of_block	junk
4.419	1.0	5.99	0.9	2.136	True	89.0	Orange-Blue	n/a	twobytwo	89.0	0.671	orange	9.0	task_switch	color	switch	stim	poldrack-single-stim	s609	1	False
6.664	1.0	7.436	0.1	2.68	True	71.0	Orange-Blue	stay	twobytwo	71.0	0.672	blue	8.0	cue_stay	color	stay	stim	poldrack-single-stim	s609	0	False
9.455	1.0	10.112	0.1	2.544	True	89.0	Color	switch	twobytwo	89.0	0.557	orange	3.0	cue_switch	color	stay	stim	poldrack-single-stim	s609	0	False
12.105	1.0	12.922	0.1	2.272	True	89.0	Orange-Blue	switch	twobytwo	89.0	0.717	orange	8.0	cue_switch	color	stay	stim	poldrack-single-stim	s609	0	False
15.29	1.0	16.606	0.9	2.272	True	71.0	Color	switch	twobytwo	71.0	0.416	blue	1.0	cue_switch	color	stay	stim	poldrack-single-stim	s609	0	False
17.666	1.0	18.421	0.1	2.408	True	71.0	Magnitude	n/a	twobytwo	71.0	0.655	blue	8.0	task_switch	magnitude	switch	stim	poldrack-single-stim	s609	0	False
20.978	1.0	22.368	0.9	2.136	True	71.0	Magnitude	stay	twobytwo	71.0	0.49	blue	9.0	cue_stay	magnitude	stay	stim	poldrack-single-stim	s609	0	False
23.221	1.0	24.055	0.1	2.272	False	71.0	Color	n/a	twobytwo	89.0	0.734	blue	3.0	task_switch	color	switch	stim	poldrack-single-stim	s609	0	False
25.6	1.0	26.32	0.1	2.0	True	89.0	Orange-Blue	switch	twobytwo	89.0	0.62	orange	3.0	cue_switch	color	stay	stim	poldrack-single-stim	s609	0	False
27.709	1.0	28.767	0.1	2.136	False	89.0	Color	switch	twobytwo	71.0	0.958	orange	7.0	cue_switch	color	stay	stim	poldrack-single-stim	s609	0	False
29.952	1.0	31.086	0.1	2.272	True	71.0	Color	stay	twobytwo	71.0	1.034	blue	2.0	cue_stay	color	stay	stim	poldrack-single-stim	s609	0	False
32.327	1.0	33.053	0.1	2.0	True	89.0	High-Low	n/a	twobytwo	89.0	0.626	orange	1.0	task_switch	magnitude	switch	stim	poldrack-single-stim	s609	0	False
34.434	1.0	35.186	0.1	2.68	True	71.0	Orange-Blue	n/a	twobytwo	71.0	0.652	blue	8.0	task_switch	color	switch	stim	poldrack-single-stim	s609	0	False
38.021	1.0	39.402	0.9	2.0	True	71.0	Color	switch	twobytwo	71.0	0.481	blue	4.0	cue_switch	color	stay	stim	poldrack-single-stim	s609	0	False
40.128	1.0	40.879	0.1	2.0	True	89.0	Magnitude	n/a	twobytwo	89.0	0.651	orange	1.0	task_switch	magnitude	switch	stim	poldrack-single-stim	s609	0	False
43.034	1.0	44.75	0.9	2.0	True	89.0	Magnitude	stay	twobytwo	89.0	0.816	orange	4.0	cue_stay	magnitude	stay	stim	poldrack-single-stim	s609	0	False
45.141	1.0	45.884	0.1	2.272	True	89.0	Color	n/a	twobytwo	89.0	0.643	orange	1.0	task_switch	color	switch	stim	poldrack-single-stim	s609	0	False
47.516	1.0	48.428	0.1	2.0	True	71.0	Magnitude	n/a	twobytwo	71.0	0.812	blue	8.0	task_switch	magnitude	switch	stim	poldrack-single-stim	s609	0	False
49.626	1.0	50.628	0.1	2.0	True	71.0	Orange-Blue	n/a	twobytwo	71.0	0.902	blue	9.0	task_switch	color	switch	stim	poldrack-single-stim	s609	0	False
52.538	1.0	54.005	0.9	2.0	True	89.0	High-Low	n/a	twobytwo	89.0	0.567	orange	3.0	task_switch	magnitude	switch	stim	poldrack-single-stim	s609	0	False
54.648	1.0	55.366	0.1	2.68	True	89.0	High-Low	stay	twobytwo	89.0	0.618	orange	2.0	cue_stay	magnitude	stay	stim	poldrack-single-stim	s609	0	False
57.434	1.0	58.453	0.1	2.0	True	89.0	High-Low	stay	twobytwo	89.0	0.919	blue	2.0	cue_stay	magnitude	stay	stim	poldrack-single-stim	s609	0	False
60.337	1.0	61.801	0.9	2.136	True	89.0	Color	n/a	twobytwo	89.0	0.564	orange	3.0	task_switch	color	switch	stim	poldrack-single-stim	s609	0	False
63.378	1.0	64.913	0.9	2.408	True	89.0	Orange-Blue	switch	twobytwo	89.0	0.635	orange	3.0	cue_switch	color	stay	stim	poldrack-single-stim	s609	0	False
66.69	1.0	68.236	0.9	2.136	True	89.0	Orange-Blue	stay	twobytwo	89.0	0.646	orange	6.0	cue_stay	color	stay	stim	poldrack-single-stim	s609	0	False
69.733	1.0	71.082	0.9	2.0	True	89.0	Orange-Blue	stay	twobytwo	89.0	0.449	orange	4.0	cue_stay	color	stay	stim	poldrack-single-stim	s609	0	False
72.641	1.0	74.241	0.9	2.0	False	71.0	High-Low	n/a	twobytwo	89.0	0.7	orange	6.0	task_switch	magnitude	switch	stim	poldrack-single-stim	s609	0	False
75.552	1.0	77.025	0.9	2.544	True	71.0	Color	n/a	twobytwo	71.0	0.573	blue	8.0	task_switch	color	switch	stim	poldrack-single-stim	s609	0	False
79.0	1.0	80.602	0.9	2.136	True	89.0	Color	stay	twobytwo	89.0	0.702	orange	8.0	cue_stay	color	stay	stim	poldrack-single-stim	s609	0	False
81.242	1.0	82.426	0.1	2.544	True	89.0	Color	stay	twobytwo	89.0	1.084	orange	6.0	cue_stay	color	stay	stim	poldrack-single-stim	s609	0	False
83.892	1.0	84.739	0.1	2.68	True	71.0	Magnitude	n/a	twobytwo	71.0	0.747	blue	7.0	task_switch	magnitude	switch	stim	poldrack-single-stim	s609	0	False
86.682	1.0	88.238	0.1	2.0	False	71.0	High-Low	switch	twobytwo	89.0	1.456	orange	7.0	cue_switch	magnitude	stay	stim	poldrack-single-stim	s609	0	False
88.789	1.0	89.892	0.1	2.272	True	89.0	Orange-Blue	n/a	twobytwo	89.0	1.003	orange	7.0	task_switch	color	switch	stim	poldrack-single-stim	s609	0	False
91.968	1.0	93.553	0.9	3.088	True	89.0	Magnitude	n/a	twobytwo	89.0	0.685	orange	3.0	task_switch	magnitude	switch	stim	poldrack-single-stim	s609	0	False
95.962	1.0	97.473	0.9	2.0	True	89.0	Color	n/a	twobytwo	89.0	0.611	orange	7.0	task_switch	color	switch	stim	poldrack-single-stim	s609	0	False
98.068	1.0	99.152	0.1	2.136	True	89.0	Color	stay	twobytwo	89.0	0.984	orange	6.0	cue_stay	color	stay	stim	poldrack-single-stim	s609	0	False
101.112	1.0	102.459	0.9	2.136	True	71.0	High-Low	n/a	twobytwo	71.0	0.447	orange	8.0	task_switch	magnitude	switch	stim	poldrack-single-stim	s609	0	False
103.354	1.0	104.106	0.1	2.0	True	89.0	High-Low	stay	twobytwo	89.0	0.652	blue	1.0	cue_stay	magnitude	stay	stim	poldrack-single-stim	s609	0	False
106.266	1.0	108.157	0.9	2.272	True	89.0	Magnitude	switch	twobytwo	89.0	0.991	blue	1.0	cue_switch	magnitude	stay	stim	poldrack-single-stim	s609	0	False
109.445	1.0	111.841	0.9	2.0	True	89.0	Color	n/a	twobytwo	89.0	1.496	orange	8.0	task_switch	color	switch	stim	poldrack-single-stim	s609	0	False
112.354	1.0	113.838	0.9	2.136	True	89.0	High-Low	n/a	twobytwo	89.0	0.584	blue	1.0	task_switch	magnitude	switch	stim	poldrack-single-stim	s609	0	False
115.394	1.0	117.303	0.9	2.136	True	71.0	Orange-Blue	n/a	twobytwo	71.0	1.009	blue	6.0	task_switch	color	switch	stim	poldrack-single-stim	s609	0	False
118.437	1.0	119.788	0.9	2.544	True	71.0	Orange-Blue	stay	twobytwo	71.0	0.451	blue	7.0	cue_stay	color	stay	stim	poldrack-single-stim	s609	0	False
121.884	1.0	123.443	0.9	2.0	True	71.0	High-Low	n/a	twobytwo	71.0	0.659	orange	6.0	task_switch	magnitude	switch	stim	poldrack-single-stim	s609	0	False
124.792	1.0	126.224	0.9	2.136	True	71.0	High-Low	stay	twobytwo	71.0	0.532	orange	8.0	cue_stay	magnitude	stay	stim	poldrack-single-stim	s609	0	False
127.832	1.0	129.224	0.9	2.136	True	89.0	Color	n/a	twobytwo	89.0	0.492	orange	2.0	task_switch	color	switch	stim	poldrack-single-stim	s609	0	False
130.872	1.0	132.34	0.9	2.136	True	71.0	Magnitude	n/a	twobytwo	71.0	0.568	orange	9.0	task_switch	magnitude	switch	stim	poldrack-single-stim	s609	0	False
133.114	1.0	133.975	0.1	2.0	True	89.0	Color	n/a	twobytwo	89.0	0.761	orange	3.0	task_switch	color	switch	stim	poldrack-single-stim	s609	0	False
135.219	1.0	136.054	0.1	2.136	True	71.0	Magnitude	n/a	twobytwo	71.0	0.735	orange	8.0	task_switch	magnitude	switch	stim	poldrack-single-stim	s609	0	False
137.466	1.0	138.21	0.1	2.0	True	71.0	Magnitude	stay	twobytwo	71.0	0.644	orange	9.0	cue_stay	magnitude	stay	stim	poldrack-single-stim	s609	0	False
139.575	1.0	140.853	0.1	2.136	True	71.0	High-Low	switch	twobytwo	71.0	1.178	blue	8.0	cue_switch	magnitude	stay	stim	poldrack-single-stim	s609	0	False
141.818	1.0	142.899	0.1	2.816	False	71.0	Orange-Blue	n/a	twobytwo	89.0	0.981	blue	4.0	task_switch	color	switch	stim	poldrack-single-stim	s609	0	False
144.737	1.0	145.783	0.1	2.136	True	89.0	Orange-Blue	stay	twobytwo	89.0	0.946	orange	4.0	cue_stay	color	stay	stim	poldrack-single-stim	s609	0	False
147.781	1.0	149.607	0.9	2.0	True	89.0	Orange-Blue	stay	twobytwo	89.0	0.926	orange	6.0	cue_stay	color	stay	stim	poldrack-single-stim	s609	0	False
149.888	1.0	151.099	0.1	2.0	False	89.0	High-Low	n/a	twobytwo	71.0	1.111	blue	1.0	task_switch	magnitude	switch	stim	poldrack-single-stim	s609	0	False
151.994	1.0	153.197	0.1	2.272	True	71.0	High-Low	stay	twobytwo	71.0	1.103	blue	8.0	cue_stay	magnitude	stay	stim	poldrack-single-stim	s609	0	False
155.173	1.0	156.695	0.9	2.0	True	89.0	Orange-Blue	n/a	twobytwo	89.0	0.622	orange	7.0	task_switch	color	switch	stim	poldrack-single-stim	s609	0	False
158.08	1.0	159.616	0.9	2.0	True	71.0	High-Low	n/a	twobytwo	71.0	0.636	blue	8.0	task_switch	magnitude	switch	stim	poldrack-single-stim	s609	0	False
160.184	1.0	161.294	0.1	2.0	True	71.0	Orange-Blue	n/a	twobytwo	71.0	1.01	blue	2.0	task_switch	color	switch	stim	poldrack-single-stim	s609	0	False
163.09	1.0	164.712	0.9	2.408	True	71.0	High-Low	n/a	twobytwo	71.0	0.722	orange	6.0	task_switch	magnitude	switch	stim	poldrack-single-stim	s609	0	False
166.405	1.0	167.854	0.9	2.272	True	89.0	High-Low	stay	twobytwo	89.0	0.549	orange	3.0	cue_stay	magnitude	stay	stim	poldrack-single-stim	s609	0	False
169.581	1.0	171.493	0.9	2.136	True	89.0	Color	n/a	twobytwo	89.0	1.012	orange	4.0	task_switch	color	switch	stim	poldrack-single-stim	s609	0	False
171.824	1.0	173.358	0.1	2.0	True	71.0	Orange-Blue	switch	twobytwo	71.0	1.434	blue	1.0	cue_switch	color	stay	stim	poldrack-single-stim	s609	0	False
174.726	1.0	176.445	0.9	2.0	True	89.0	Magnitude	n/a	twobytwo	89.0	0.819	blue	2.0	task_switch	magnitude	switch	stim	poldrack-single-stim	s609	0	False
177.634	1.0	179.17	0.9	2.136	True	89.0	Orange-Blue	n/a	twobytwo	89.0	0.636	orange	8.0	task_switch	color	switch	stim	poldrack-single-stim	s609	0	False
180.677	1.0	182.337	0.9	2.0	True	71.0	High-Low	n/a	twobytwo	71.0	0.76	orange	7.0	task_switch	magnitude	switch	stim	poldrack-single-stim	s609	0	False
183.586	1.0	185.209	0.9	2.136	True	71.0	Orange-Blue	n/a	twobytwo	71.0	0.723	blue	4.0	task_switch	color	switch	stim	poldrack-single-stim	s609	0	False
185.826	1.0	186.781	0.1	2.408	True	71.0	Orange-Blue	stay	twobytwo	71.0	0.855	blue	2.0	cue_stay	color	stay	stim	poldrack-single-stim	s609	0	False
188.338	1.0	189.345	0.1	2.136	True	89.0	High-Low	n/a	twobytwo	89.0	0.907	orange	4.0	task_switch	magnitude	switch	stim	poldrack-single-stim	s609	0	False
191.38	1.0	192.836	0.9	2.0	True	89.0	Color	n/a	twobytwo	89.0	0.556	orange	1.0	task_switch	color	switch	stim	poldrack-single-stim	s609	0	False
194.285	1.0	195.858	0.9	2.136	True	71.0	Magnitude	n/a	twobytwo	71.0	0.673	blue	8.0	task_switch	magnitude	switch	stim	poldrack-single-stim	s609	0	False
197.328	1.0	199.067	0.9	2.272	False	71.0	Magnitude	stay	twobytwo	89.0	0.839	orange	6.0	cue_stay	magnitude	stay	stim	poldrack-single-stim	s609	0	False
199.706	1.0	200.591	0.1	2.0	True	71.0	Orange-Blue	n/a	twobytwo	71.0	0.785	blue	8.0	task_switch	color	switch	stim	poldrack-single-stim	s609	0	False
201.816	1.0	203.425	0.1	2.408	True	71.0	High-Low	n/a	twobytwo	71.0	1.509	orange	6.0	task_switch	magnitude	switch	stim	poldrack-single-stim	s609	0	False
205.13	1.0	206.65	0.9	2.0	True	89.0	Magnitude	switch	twobytwo	89.0	0.62	orange	1.0	cue_switch	magnitude	stay	stim	poldrack-single-stim	s609	0	False
207.24	1.0	208.113	0.1	2.136	True	89.0	Orange-Blue	n/a	twobytwo	89.0	0.773	orange	7.0	task_switch	color	switch	stim	poldrack-single-stim	s609	0	False
210.278	1.0	211.859	0.9	2.408	True	71.0	High-Low	n/a	twobytwo	71.0	0.681	blue	6.0	task_switch	magnitude	switch	stim	poldrack-single-stim	s609	0	False
212.792	1.0	213.774	0.1	2.136	True	89.0	Orange-Blue	n/a	twobytwo	89.0	0.882	orange	1.0	task_switch	color	switch	stim	poldrack-single-stim	s609	0	False
215.032	1.0	215.917	0.1	2.408	True	89.0	Magnitude	n/a	twobytwo	89.0	0.785	blue	3.0	task_switch	magnitude	switch	stim	poldrack-single-stim	s609	0	False
218.346	1.0	219.836	0.9	2.136	True	89.0	Orange-Blue	n/a	twobytwo	89.0	0.59	orange	9.0	task_switch	color	switch	stim	poldrack-single-stim	s609	0	False
234.91	1.0	236.606	0.9	2.0	True	71.0	High-Low	n/a	twobytwo	71.0	0.796	orange	9.0	task_switch	magnitude	switch	stim	poldrack-single-stim	s609	1	False
237.018	1.0	238.351	0.1	2.272	True	71.0	High-Low	stay	twobytwo	71.0	1.233	blue	8.0	cue_stay	magnitude	stay	stim	poldrack-single-stim	s609	0	False
239.393	1.0	240.167	0.1	2.0	True	89.0	Magnitude	switch	twobytwo	89.0	0.674	orange	3.0	cue_switch	magnitude	stay	stim	poldrack-single-stim	s609	0	False
241.504	1.0	242.234	0.1	2.272	True	71.0	High-Low	switch	twobytwo	71.0	0.63	orange	8.0	cue_switch	magnitude	stay	stim	poldrack-single-stim	s609	0	False
244.682	1.0	246.15	0.9	2.272	True	89.0	Magnitude	switch	twobytwo	89.0	0.568	blue	1.0	cue_switch	magnitude	stay	stim	poldrack-single-stim	s609	0	False
247.058	1.0	247.811	0.1	2.952	True	71.0	Orange-Blue	n/a	twobytwo	71.0	0.653	blue	8.0	task_switch	color	switch	stim	poldrack-single-stim	s609	0	False
250.914	1.0	252.341	0.9	2.68	True	71.0	Orange-Blue	stay	twobytwo	71.0	0.527	blue	9.0	cue_stay	color	stay	stim	poldrack-single-stim	s609	0	False
253.698	1.0	254.397	0.1	2.136	True	89.0	High-Low	n/a	twobytwo	89.0	0.599	blue	3.0	task_switch	magnitude	switch	stim	poldrack-single-stim	s609	0	False
255.941	1.0	256.565	0.1	2.272	True	89.0	Magnitude	switch	twobytwo	89.0	0.524	orange	3.0	cue_switch	magnitude	stay	stim	poldrack-single-stim	s609	0	False
258.318	1.0	259.156	0.1	2.272	True	71.0	High-Low	switch	twobytwo	71.0	0.738	orange	7.0	cue_switch	magnitude	stay	stim	poldrack-single-stim	s609	0	False
260.696	1.0	261.37	0.1	2.136	True	89.0	High-Low	stay	twobytwo	89.0	0.574	blue	2.0	cue_stay	magnitude	stay	stim	poldrack-single-stim	s609	0	False
262.941	1.0	263.65	0.1	2.408	True	89.0	Color	n/a	twobytwo	89.0	0.609	orange	1.0	task_switch	color	switch	stim	poldrack-single-stim	s609	0	False
265.453	1.0	266.3	0.1	2.136	True	71.0	High-Low	n/a	twobytwo	71.0	0.747	blue	8.0	task_switch	magnitude	switch	stim	poldrack-single-stim	s609	0	False
268.492	1.0	269.946	0.9	2.136	False	89.0	Magnitude	switch	twobytwo	71.0	0.554	blue	4.0	cue_switch	magnitude	stay	stim	poldrack-single-stim	s609	0	False
270.736	1.0	271.626	0.1	2.0	True	89.0	Orange-Blue	n/a	twobytwo	89.0	0.79	orange	1.0	task_switch	color	switch	stim	poldrack-single-stim	s609	0	False
273.642	1.0	275.244	0.9	2.0	True	89.0	Orange-Blue	stay	twobytwo	89.0	0.702	orange	4.0	cue_stay	color	stay	stim	poldrack-single-stim	s609	0	False
275.749	1.0	276.499	0.1	2.0	True	89.0	High-Low	n/a	twobytwo	89.0	0.65	orange	1.0	task_switch	magnitude	switch	stim	poldrack-single-stim	s609	0	False
277.856	1.0	278.812	0.1	2.0	True	71.0	Orange-Blue	n/a	twobytwo	71.0	0.856	blue	8.0	task_switch	color	switch	stim	poldrack-single-stim	s609	0	False
279.962	1.0	281.21	0.1	2.0	True	71.0	High-Low	n/a	twobytwo	71.0	1.148	blue	9.0	task_switch	magnitude	switch	stim	poldrack-single-stim	s609	0	False
282.869	1.0	284.203	0.9	2.272	True	89.0	Orange-Blue	n/a	twobytwo	89.0	0.434	orange	3.0	task_switch	color	switch	stim	poldrack-single-stim	s609	0	False
285.25	1.0	285.938	0.1	2.408	True	89.0	Orange-Blue	stay	twobytwo	89.0	0.588	orange	2.0	cue_stay	color	stay	stim	poldrack-single-stim	s609	0	False
287.761	1.0	288.366	0.1	2.0	True	71.0	Orange-Blue	stay	twobytwo	71.0	0.505	blue	2.0	cue_stay	color	stay	stim	poldrack-single-stim	s609	0	False
290.668	1.0	292.189	0.9	2.136	True	89.0	Magnitude	n/a	twobytwo	89.0	0.621	orange	3.0	task_switch	magnitude	switch	stim	poldrack-single-stim	s609	0	False
293.712	1.0	295.434	0.9	2.0	True	89.0	High-Low	switch	twobytwo	89.0	0.822	orange	3.0	cue_switch	magnitude	stay	stim	poldrack-single-stim	s609	0	False
296.621	1.0	298.162	0.9	2.136	True	71.0	High-Low	stay	twobytwo	71.0	0.641	orange	6.0	cue_stay	magnitude	stay	stim	poldrack-single-stim	s609	0	False
299.664	1.0	301.125	0.9	2.544	True	89.0	High-Low	stay	twobytwo	89.0	0.561	orange	4.0	cue_stay	magnitude	stay	stim	poldrack-single-stim	s609	0	False
303.112	1.0	304.723	0.9	2.68	False	89.0	Color	n/a	twobytwo	71.0	0.711	orange	6.0	task_switch	color	switch	stim	poldrack-single-stim	s609	0	False
306.698	1.0	308.378	0.9	3.088	True	71.0	Magnitude	n/a	twobytwo	71.0	0.78	blue	8.0	task_switch	magnitude	switch	stim	poldrack-single-stim	s609	0	False
310.691	1.0	312.42	0.9	2.136	True	71.0	Magnitude	stay	twobytwo	71.0	0.829	orange	8.0	cue_stay	magnitude	stay	stim	poldrack-single-stim	s609	0	False
312.934	1.0	313.886	0.1	2.544	True	71.0	Magnitude	stay	twobytwo	71.0	0.852	orange	6.0	cue_stay	magnitude	stay	stim	poldrack-single-stim	s609	0	False
315.589	1.0	316.808	0.1	2.0	True	71.0	Orange-Blue	n/a	twobytwo	71.0	1.119	blue	7.0	task_switch	color	switch	stim	poldrack-single-stim	s609	0	False
317.698	1.0	318.678	0.1	2.136	True	89.0	Color	switch	twobytwo	89.0	0.88	orange	7.0	cue_switch	color	stay	stim	poldrack-single-stim	s609	0	False
319.94	1.0	320.688	0.1	2.0	True	71.0	High-Low	n/a	twobytwo	71.0	0.648	orange	7.0	task_switch	magnitude	switch	stim	poldrack-single-stim	s609	0	False
322.846	1.0	324.291	0.9	2.408	True	89.0	Orange-Blue	n/a	twobytwo	89.0	0.545	orange	3.0	task_switch	color	switch	stim	poldrack-single-stim	s609	0	False
326.164	1.0	328.289	0.9	2.0	True	71.0	Magnitude	n/a	twobytwo	71.0	1.225	orange	7.0	task_switch	magnitude	switch	stim	poldrack-single-stim	s609	0	False
328.272	1.0	329.196	0.1	2.0	True	71.0	Magnitude	stay	twobytwo	71.0	0.824	orange	6.0	cue_stay	magnitude	stay	stim	poldrack-single-stim	s609	0	False
331.178	1.0	332.637	0.9	2.0	True	89.0	Orange-Blue	n/a	twobytwo	89.0	0.559	orange	8.0	task_switch	color	switch	stim	poldrack-single-stim	s609	0	False
333.288	1.0	334.658	0.1	2.68	True	71.0	Orange-Blue	stay	twobytwo	71.0	1.27	blue	1.0	cue_stay	color	stay	stim	poldrack-single-stim	s609	0	False
336.874	1.0	338.427	0.9	2.272	True	71.0	Color	switch	twobytwo	71.0	0.653	blue	1.0	cue_switch	color	stay	stim	poldrack-single-stim	s609	0	False
340.05	1.0	341.689	0.9	2.408	False	71.0	High-Low	n/a	twobytwo	89.0	0.739	orange	8.0	task_switch	magnitude	switch	stim	poldrack-single-stim	s609	0	False
343.364	1.0	344.817	0.9	3.224	True	71.0	Orange-Blue	n/a	twobytwo	71.0	0.553	blue	1.0	task_switch	color	switch	stim	poldrack-single-stim	s609	0	False
347.496	1.0	349.503	0.9	2.408	True	71.0	High-Low	n/a	twobytwo	71.0	1.107	blue	6.0	task_switch	magnitude	switch	stim	poldrack-single-stim	s609	0	False
350.81	1.0	352.44	0.9	2.816	True	71.0	High-Low	stay	twobytwo	71.0	0.73	blue	7.0	cue_stay	magnitude	stay	stim	poldrack-single-stim	s609	0	False
354.536	1.0	356.001	0.9	2.408	True	89.0	Orange-Blue	n/a	twobytwo	89.0	0.565	orange	6.0	task_switch	color	switch	stim	poldrack-single-stim	s609	0	False
357.848	1.0	359.423	0.9	2.136	False	89.0	Orange-Blue	stay	twobytwo	71.0	0.675	orange	8.0	cue_stay	color	stay	stim	poldrack-single-stim	s609	0	False
360.888	1.0	362.847	0.9	2.136	True	89.0	Magnitude	n/a	twobytwo	89.0	1.059	orange	2.0	task_switch	magnitude	switch	stim	poldrack-single-stim	s609	0	False
363.93	1.0	365.844	0.9	2.0	True	89.0	Color	n/a	twobytwo	89.0	1.014	orange	9.0	task_switch	color	switch	stim	poldrack-single-stim	s609	0	False
366.037	1.0	366.921	0.1	2.0	True	89.0	High-Low	n/a	twobytwo	89.0	0.784	orange	3.0	task_switch	magnitude	switch	stim	poldrack-single-stim	s609	0	False
368.143	1.0	369.167	0.1	2.272	True	89.0	Color	n/a	twobytwo	89.0	0.924	orange	8.0	task_switch	color	switch	stim	poldrack-single-stim	s609	0	False
370.521	1.0	371.344	0.1	2.408	True	89.0	Color	stay	twobytwo	89.0	0.723	orange	9.0	cue_stay	color	stay	stim	poldrack-single-stim	s609	0	False
373.04	1.0	373.785	0.1	2.0	True	71.0	Orange-Blue	switch	twobytwo	71.0	0.645	blue	8.0	cue_switch	color	stay	stim	poldrack-single-stim	s609	0	False
375.15	1.0	376.2	0.1	2.136	True	89.0	Magnitude	n/a	twobytwo	89.0	0.95	blue	4.0	task_switch	magnitude	switch	stim	poldrack-single-stim	s609	0	False
377.392	1.0	378.17	0.1	2.0	True	89.0	Magnitude	stay	twobytwo	89.0	0.678	orange	4.0	cue_stay	magnitude	stay	stim	poldrack-single-stim	s609	0	False
380.296	1.0	381.645	0.9	2.408	True	71.0	Magnitude	stay	twobytwo	71.0	0.449	orange	6.0	cue_stay	magnitude	stay	stim	poldrack-single-stim	s609	0	False
382.816	1.0	383.594	0.1	2.272	True	71.0	Color	n/a	twobytwo	71.0	0.678	blue	1.0	task_switch	color	switch	stim	poldrack-single-stim	s609	0	False
385.194	1.0	386.001	0.1	2.0	True	71.0	Color	stay	twobytwo	71.0	0.707	blue	8.0	cue_stay	color	stay	stim	poldrack-single-stim	s609	0	False
388.101	1.0	389.541	0.9	2.272	True	71.0	High-Low	n/a	twobytwo	71.0	0.54	orange	7.0	task_switch	magnitude	switch	stim	poldrack-single-stim	s609	0	False
391.28	1.0	392.963	0.9	2.0	True	71.0	Orange-Blue	n/a	twobytwo	71.0	0.783	blue	8.0	task_switch	color	switch	stim	poldrack-single-stim	s609	0	False
393.386	1.0	394.846	0.1	2.0	True	89.0	High-Low	n/a	twobytwo	89.0	1.36	blue	2.0	task_switch	magnitude	switch	stim	poldrack-single-stim	s609	0	False
396.293	1.0	398.449	0.9	2.272	True	89.0	Color	n/a	twobytwo	89.0	1.256	orange	6.0	task_switch	color	switch	stim	poldrack-single-stim	s609	0	False
399.474	1.0	400.88	0.9	2.136	True	89.0	Color	stay	twobytwo	89.0	0.506	orange	3.0	cue_stay	color	stay	stim	poldrack-single-stim	s609	0	False
402.517	1.0	404.134	0.9	2.0	True	89.0	High-Low	n/a	twobytwo	89.0	0.717	orange	4.0	task_switch	magnitude	switch	stim	poldrack-single-stim	s609	0	False
404.623	1.0	405.424	0.1	2.0	True	89.0	Magnitude	switch	twobytwo	89.0	0.701	blue	1.0	cue_switch	magnitude	stay	stim	poldrack-single-stim	s609	0	False
407.53	1.0	409.004	0.9	2.0	True	71.0	Color	n/a	twobytwo	71.0	0.574	blue	2.0	task_switch	color	switch	stim	poldrack-single-stim	s609	0	False
410.437	1.0	411.757	0.9	2.0	True	71.0	Magnitude	n/a	twobytwo	71.0	0.42	orange	8.0	task_switch	magnitude	switch	stim	poldrack-single-stim	s609	0	False
413.344	1.0	414.956	0.9	2.0	True	89.0	Color	n/a	twobytwo	89.0	0.712	orange	7.0	task_switch	color	switch	stim	poldrack-single-stim	s609	0	False
416.248	1.0	417.98	0.9	2.136	True	89.0	Magnitude	n/a	twobytwo	89.0	0.832	blue	4.0	task_switch	magnitude	switch	stim	poldrack-single-stim	s609	0	False
418.49	1.0	419.288	0.1	2.0	True	89.0	Magnitude	stay	twobytwo	89.0	0.698	blue	2.0	cue_stay	magnitude	stay	stim	poldrack-single-stim	s609	0	False
420.597	1.0	421.732	0.1	2.0	True	89.0	Color	n/a	twobytwo	89.0	1.035	orange	4.0	task_switch	color	switch	stim	poldrack-single-stim	s609	0	False
423.501	1.0	424.986	0.9	2.136	True	89.0	High-Low	n/a	twobytwo	89.0	0.585	orange	1.0	task_switch	magnitude	switch	stim	poldrack-single-stim	s609	0	False
426.544	1.0	427.927	0.9	2.0	True	71.0	Color	n/a	twobytwo	71.0	0.483	blue	8.0	task_switch	color	switch	stim	poldrack-single-stim	s609	0	False
429.453	1.0	431.065	0.9	2.136	True	89.0	Color	stay	twobytwo	89.0	0.712	orange	6.0	cue_stay	color	stay	stim	poldrack-single-stim	s609	0	False
431.698	1.0	432.436	0.1	2.68	True	71.0	High-Low	n/a	twobytwo	71.0	0.638	blue	8.0	task_switch	magnitude	switch	stim	poldrack-single-stim	s609	0	False
434.487	1.0	435.202	0.1	2.272	True	89.0	Color	n/a	twobytwo	89.0	0.615	orange	6.0	task_switch	color	switch	stim	poldrack-single-stim	s609	0	False
437.668	1.0	439.055	0.9	2.136	True	89.0	Orange-Blue	switch	twobytwo	89.0	0.487	orange	1.0	cue_switch	color	stay	stim	poldrack-single-stim	s609	0	False
439.914	1.0	440.73	0.1	2.0	True	71.0	Magnitude	n/a	twobytwo	71.0	0.716	orange	7.0	task_switch	magnitude	switch	stim	poldrack-single-stim	s609	0	False
442.818	1.0	444.472	0.9	2.136	True	71.0	Orange-Blue	n/a	twobytwo	71.0	0.754	blue	6.0	task_switch	color	switch	stim	poldrack-single-stim	s609	0	False
445.058	1.0	445.943	0.1	2.68	True	89.0	High-Low	n/a	twobytwo	89.0	0.785	orange	1.0	task_switch	magnitude	switch	stim	poldrack-single-stim	s609	0	False
447.85	1.0	448.758	0.1	2.272	True	71.0	Orange-Blue	n/a	twobytwo	71.0	0.808	blue	3.0	task_switch	color	switch	stim	poldrack-single-stim	s609	0	False
451.029	1.0	452.523	0.9	2.0	True	71.0	High-Low	n/a	twobytwo	71.0	0.594	orange	9.0	task_switch	magnitude	switch	stim	poldrack-single-stim	s609	0	False
467.456	1.0	468.929	0.9	2.0	True	89.0	Orange-Blue	n/a	twobytwo	89.0	0.573	orange	9.0	task_switch	color	switch	stim	poldrack-single-stim	s609	1	False
469.565	1.0	470.435	0.1	2.136	True	71.0	Orange-Blue	stay	twobytwo	71.0	0.77	blue	8.0	cue_stay	color	stay	stim	poldrack-single-stim	s609	0	False
471.806	1.0	472.521	0.1	2.0	True	89.0	Color	switch	twobytwo	89.0	0.615	orange	3.0	cue_switch	color	stay	stim	poldrack-single-stim	s609	0	False
473.914	1.0	474.56	0.1	2.0	True	89.0	Orange-Blue	switch	twobytwo	89.0	0.546	orange	8.0	cue_switch	color	stay	stim	poldrack-single-stim	s609	0	False
476.819	1.0	478.238	0.9	2.0	True	71.0	Color	switch	twobytwo	71.0	0.519	blue	1.0	cue_switch	color	stay	stim	poldrack-single-stim	s609	0	False
478.928	1.0	479.774	0.1	2.272	True	71.0	High-Low	n/a	twobytwo	71.0	0.746	blue	8.0	task_switch	magnitude	switch	stim	poldrack-single-stim	s609	0	False
482.104	1.0	483.506	0.9	2.408	True	71.0	High-Low	stay	twobytwo	71.0	0.502	blue	9.0	cue_stay	magnitude	stay	stim	poldrack-single-stim	s609	0	False
484.618	1.0	486.061	0.1	2.0	True	71.0	Color	n/a	twobytwo	71.0	1.343	blue	3.0	task_switch	color	switch	stim	poldrack-single-stim	s609	0	False
486.725	1.0	487.946	0.1	2.0	True	89.0	Orange-Blue	switch	twobytwo	89.0	1.121	orange	3.0	cue_switch	color	stay	stim	poldrack-single-stim	s609	0	False
488.829	1.0	489.932	0.1	2.0	True	89.0	Color	switch	twobytwo	89.0	1.003	orange	7.0	cue_switch	color	stay	stim	poldrack-single-stim	s609	0	False
490.938	1.0	491.599	0.1	2.272	True	71.0	Color	stay	twobytwo	71.0	0.561	blue	2.0	cue_stay	color	stay	stim	poldrack-single-stim	s609	0	False
493.316	1.0	494.079	0.1	2.136	True	89.0	High-Low	n/a	twobytwo	89.0	0.663	orange	1.0	task_switch	magnitude	switch	stim	poldrack-single-stim	s609	0	False
495.557	1.0	496.22	0.1	2.0	True	71.0	Color	n/a	twobytwo	71.0	0.563	blue	8.0	task_switch	color	switch	stim	poldrack-single-stim	s609	0	False
498.462	1.0	500.047	0.9	2.544	True	71.0	Orange-Blue	switch	twobytwo	71.0	0.685	blue	4.0	cue_switch	color	stay	stim	poldrack-single-stim	s609	0	False
501.114	1.0	501.899	0.1	2.272	True	89.0	High-Low	n/a	twobytwo	89.0	0.685	orange	1.0	task_switch	magnitude	switch	stim	poldrack-single-stim	s609	0	False
504.289	1.0	505.74	0.9	2.272	True	89.0	High-Low	stay	twobytwo	89.0	0.551	orange	4.0	cue_stay	magnitude	stay	stim	poldrack-single-stim	s609	0	False
506.668	1.0	507.845	0.1	2.0	True	89.0	Orange-Blue	n/a	twobytwo	89.0	1.077	orange	1.0	task_switch	color	switch	stim	poldrack-single-stim	s609	0	False
508.778	1.0	509.864	0.1	2.0	True	71.0	Magnitude	n/a	twobytwo	71.0	0.986	blue	8.0	task_switch	magnitude	switch	stim	poldrack-single-stim	s609	0	False
510.882	1.0	512.393	0.1	2.136	True	71.0	Orange-Blue	n/a	twobytwo	71.0	1.411	blue	9.0	task_switch	color	switch	stim	poldrack-single-stim	s609	0	False
513.922	1.0	515.361	0.9	2.0	True	89.0	Magnitude	n/a	twobytwo	89.0	0.539	orange	3.0	task_switch	magnitude	switch	stim	poldrack-single-stim	s609	0	False
516.027	1.0	516.845	0.1	2.136	True	89.0	Magnitude	stay	twobytwo	89.0	0.718	orange	2.0	cue_stay	magnitude	stay	stim	poldrack-single-stim	s609	0	False
518.272	1.0	519.105	0.1	2.272	True	89.0	Magnitude	stay	twobytwo	89.0	0.733	blue	2.0	cue_stay	magnitude	stay	stim	poldrack-single-stim	s609	0	False
521.446	1.0	522.757	0.9	2.136	True	89.0	Color	n/a	twobytwo	89.0	0.411	orange	3.0	task_switch	color	switch	stim	poldrack-single-stim	s609	0	False
524.49	1.0	526.355	0.9	2.272	True	89.0	Orange-Blue	switch	twobytwo	89.0	0.965	orange	3.0	cue_switch	color	stay	stim	poldrack-single-stim	s609	0	False
527.669	1.0	529.382	0.9	2.0	True	89.0	Orange-Blue	stay	twobytwo	89.0	0.813	orange	6.0	cue_stay	color	stay	stim	poldrack-single-stim	s609	0	False
530.58	1.0	531.974	0.9	2.816	True	89.0	Orange-Blue	stay	twobytwo	89.0	0.494	orange	4.0	cue_stay	color	stay	stim	poldrack-single-stim	s609	0	False
534.301	1.0	535.852	0.9	2.408	True	71.0	Magnitude	n/a	twobytwo	71.0	0.651	orange	6.0	task_switch	magnitude	switch	stim	poldrack-single-stim	s609	0	False
537.616	1.0	539.011	0.9	2.0	True	71.0	Orange-Blue	n/a	twobytwo	71.0	0.495	blue	8.0	task_switch	color	switch	stim	poldrack-single-stim	s609	0	False
540.522	1.0	541.796	0.9	2.544	True	89.0	Orange-Blue	stay	twobytwo	89.0	0.374	orange	8.0	cue_stay	color	stay	stim	poldrack-single-stim	s609	0	False
543.176	1.0	543.919	0.1	2.136	True	89.0	Orange-Blue	stay	twobytwo	89.0	0.643	orange	6.0	cue_stay	color	stay	stim	poldrack-single-stim	s609	0	False
545.418	1.0	546.304	0.1	2.0	True	71.0	High-Low	n/a	twobytwo	71.0	0.786	blue	7.0	task_switch	magnitude	switch	stim	poldrack-single-stim	s609	0	False
547.525	1.0	548.322	0.1	2.0	True	71.0	Magnitude	switch	twobytwo	71.0	0.697	orange	7.0	cue_switch	magnitude	stay	stim	poldrack-single-stim	s609	0	False
549.634	1.0	550.608	0.1	2.136	True	89.0	Orange-Blue	n/a	twobytwo	89.0	0.874	orange	7.0	task_switch	color	switch	stim	poldrack-single-stim	s609	0	False
552.674	1.0	554.012	0.9	2.136	True	89.0	High-Low	n/a	twobytwo	89.0	0.438	orange	3.0	task_switch	magnitude	switch	stim	poldrack-single-stim	s609	0	False
555.717	1.0	557.072	0.9	2.272	True	89.0	Color	n/a	twobytwo	89.0	0.455	orange	7.0	task_switch	color	switch	stim	poldrack-single-stim	s609	0	False
558.093	1.0	558.713	0.1	3.224	True	89.0	Color	stay	twobytwo	89.0	0.52	orange	6.0	cue_stay	color	stay	stim	poldrack-single-stim	s609	0	False
562.22	1.0	563.59	0.9	2.0	True	71.0	Magnitude	n/a	twobytwo	71.0	0.47	orange	8.0	task_switch	magnitude	switch	stim	poldrack-single-stim	s609	0	False
564.33	1.0	565.077	0.1	2.0	True	89.0	Magnitude	stay	twobytwo	89.0	0.647	blue	1.0	cue_stay	magnitude	stay	stim	poldrack-single-stim	s609	0	False
567.237	1.0	568.622	0.9	2.272	True	89.0	High-Low	switch	twobytwo	89.0	0.485	blue	1.0	cue_switch	magnitude	stay	stim	poldrack-single-stim	s609	0	False
570.413	1.0	571.81	0.9	2.136	False	89.0	Color	n/a	twobytwo	71.0	0.497	orange	8.0	task_switch	color	switch	stim	poldrack-single-stim	s609	0	False
573.461	1.0	574.886	0.9	2.0	True	89.0	Magnitude	n/a	twobytwo	89.0	0.525	blue	1.0	task_switch	magnitude	switch	stim	poldrack-single-stim	s609	0	False
576.368	1.0	578.514	0.9	2.0	True	71.0	Color	n/a	twobytwo	71.0	1.246	blue	6.0	task_switch	color	switch	stim	poldrack-single-stim	s609	0	False
579.274	1.0	581.16	0.9	2.0	True	71.0	Color	stay	twobytwo	71.0	0.986	blue	7.0	cue_stay	color	stay	stim	poldrack-single-stim	s609	0	False
582.178	1.0	583.731	0.9	2.68	True	71.0	High-Low	n/a	twobytwo	71.0	0.653	orange	6.0	task_switch	magnitude	switch	stim	poldrack-single-stim	s609	0	False
585.765	1.0	587.103	0.9	2.0	True	71.0	High-Low	stay	twobytwo	71.0	0.438	orange	8.0	cue_stay	magnitude	stay	stim	poldrack-single-stim	s609	0	False
588.67	1.0	590.051	0.9	2.272	True	89.0	Color	n/a	twobytwo	89.0	0.481	orange	2.0	task_switch	color	switch	stim	poldrack-single-stim	s609	0	False
591.85	1.0	593.226	0.9	2.0	True	71.0	High-Low	n/a	twobytwo	71.0	0.476	orange	9.0	task_switch	magnitude	switch	stim	poldrack-single-stim	s609	0	False
593.958	1.0	594.886	0.1	2.272	True	89.0	Orange-Blue	n/a	twobytwo	89.0	0.828	orange	3.0	task_switch	color	switch	stim	poldrack-single-stim	s609	0	False
596.333	1.0	597.009	0.1	2.952	True	71.0	High-Low	n/a	twobytwo	71.0	0.576	orange	8.0	task_switch	magnitude	switch	stim	poldrack-single-stim	s609	0	False
599.392	1.0	600.187	0.1	2.0	True	71.0	High-Low	stay	twobytwo	71.0	0.695	orange	9.0	cue_stay	magnitude	stay	stim	poldrack-single-stim	s609	0	False
601.5	1.0	602.237	0.1	2.0	True	71.0	Magnitude	switch	twobytwo	71.0	0.637	blue	8.0	cue_switch	magnitude	stay	stim	poldrack-single-stim	s609	0	False
603.61	1.0	604.584	0.1	2.0	False	71.0	Color	n/a	twobytwo	89.0	0.874	blue	4.0	task_switch	color	switch	stim	poldrack-single-stim	s609	0	False
605.717	1.0	606.572	0.1	2.0	True	89.0	Color	stay	twobytwo	89.0	0.755	orange	4.0	cue_stay	color	stay	stim	poldrack-single-stim	s609	0	False
608.626	1.0	610.106	0.9	2.136	True	89.0	Color	stay	twobytwo	89.0	0.58	orange	6.0	cue_stay	color	stay	stim	poldrack-single-stim	s609	0	False
610.869	1.0	611.639	0.1	2.0	True	89.0	Magnitude	n/a	twobytwo	89.0	0.67	blue	1.0	task_switch	magnitude	switch	stim	poldrack-single-stim	s609	0	False
612.975	1.0	613.741	0.1	2.0	True	71.0	Magnitude	stay	twobytwo	71.0	0.666	blue	8.0	cue_stay	magnitude	stay	stim	poldrack-single-stim	s609	0	False
615.882	1.0	617.522	0.9	2.0	True	89.0	Orange-Blue	n/a	twobytwo	89.0	0.74	orange	7.0	task_switch	color	switch	stim	poldrack-single-stim	s609	0	False
618.788	1.0	620.771	0.9	2.272	True	71.0	High-Low	n/a	twobytwo	71.0	1.083	blue	8.0	task_switch	magnitude	switch	stim	poldrack-single-stim	s609	0	False
621.164	1.0	622.028	0.1	2.136	True	71.0	Color	n/a	twobytwo	71.0	0.764	blue	2.0	task_switch	color	switch	stim	poldrack-single-stim	s609	0	False
624.208	1.0	626.004	0.9	2.0	False	71.0	High-Low	n/a	twobytwo	89.0	0.896	orange	6.0	task_switch	magnitude	switch	stim	poldrack-single-stim	s609	0	False
627.112	1.0	629.191	0.9	2.136	True	89.0	High-Low	stay	twobytwo	89.0	1.179	orange	3.0	cue_stay	magnitude	stay	stim	poldrack-single-stim	s609	0	False
630.154	1.0	632.194	0.9	2.816	True	89.0	Color	n/a	twobytwo	89.0	1.14	orange	4.0	task_switch	color	switch	stim	poldrack-single-stim	s609	0	False
633.074	1.0	633.833	0.1	2.408	True	71.0	Orange-Blue	switch	twobytwo	71.0	0.659	blue	1.0	cue_switch	color	stay	stim	poldrack-single-stim	s609	0	False
636.389	1.0	637.951	0.9	2.0	False	89.0	High-Low	n/a	twobytwo	71.0	0.662	blue	2.0	task_switch	magnitude	switch	stim	poldrack-single-stim	s609	0	False
639.293	1.0	641.487	0.9	2.136	True	89.0	Color	n/a	twobytwo	89.0	1.294	orange	8.0	task_switch	color	switch	stim	poldrack-single-stim	s609	0	False
642.333	1.0	644.206	0.9	2.136	True	71.0	High-Low	n/a	twobytwo	71.0	0.973	orange	7.0	task_switch	magnitude	switch	stim	poldrack-single-stim	s609	0	False
645.378	1.0	647.133	0.9	2.136	True	71.0	Orange-Blue	n/a	twobytwo	71.0	0.855	blue	4.0	task_switch	color	switch	stim	poldrack-single-stim	s609	0	False
647.621	1.0	648.342	0.1	2.544	True	71.0	Orange-Blue	stay	twobytwo	71.0	0.621	blue	2.0	cue_stay	color	stay	stim	poldrack-single-stim	s609	0	False
650.269	1.0	651.063	0.1	2.136	True	89.0	Magnitude	n/a	twobytwo	89.0	0.694	orange	4.0	task_switch	magnitude	switch	stim	poldrack-single-stim	s609	0	False
653.312	1.0	654.768	0.9	2.0	True	89.0	Color	n/a	twobytwo	89.0	0.556	orange	1.0	task_switch	color	switch	stim	poldrack-single-stim	s609	0	False
656.221	1.0	657.879	0.9	2.0	True	71.0	High-Low	n/a	twobytwo	71.0	0.758	blue	8.0	task_switch	magnitude	switch	stim	poldrack-single-stim	s609	0	False
659.13	1.0	660.583	0.9	2.0	True	71.0	High-Low	stay	twobytwo	71.0	0.553	orange	6.0	cue_stay	magnitude	stay	stim	poldrack-single-stim	s609	0	False
661.237	1.0	662.068	0.1	2.0	True	71.0	Color	n/a	twobytwo	71.0	0.731	blue	8.0	task_switch	color	switch	stim	poldrack-single-stim	s609	0	False
663.346	1.0	664.177	0.1	2.136	True	71.0	High-Low	n/a	twobytwo	71.0	0.731	orange	6.0	task_switch	magnitude	switch	stim	poldrack-single-stim	s609	0	False
666.389	1.0	668.269	0.9	2.0	True	89.0	Magnitude	switch	twobytwo	89.0	0.98	orange	1.0	cue_switch	magnitude	stay	stim	poldrack-single-stim	s609	0	False
668.496	1.0	669.675	0.1	2.0	True	89.0	Orange-Blue	n/a	twobytwo	89.0	1.079	orange	7.0	task_switch	color	switch	stim	poldrack-single-stim	s609	0	False
671.407	1.0	672.916	0.9	2.0	True	71.0	Magnitude	n/a	twobytwo	71.0	0.609	blue	6.0	task_switch	magnitude	switch	stim	poldrack-single-stim	s609	0	False
673.516	1.0	674.411	0.1	2.136	True	89.0	Orange-Blue	n/a	twobytwo	89.0	0.795	orange	1.0	task_switch	color	switch	stim	poldrack-single-stim	s609	0	False
675.757	1.0	676.664	0.1	2.136	True	89.0	High-Low	n/a	twobytwo	89.0	0.807	blue	3.0	task_switch	magnitude	switch	stim	poldrack-single-stim	s609	0	False
678.802	1.0	680.677	0.9	2.136	True	89.0	Color	n/a	twobytwo	89.0	0.975	orange	9.0	task_switch	color	switch	stim	poldrack-single-stim	s609	0	False
