onset	duration	block_duration	correct	correct_response	cue	experiment_exp_id	flanker_location	flanker_middle_direction	flanker_type	key_press	response_time	trial_id	worker_id	junk
3.518048	1.7	2.1009520000000004	1.0	89.0	spatial	attention_network_task	down	left	incongruent	89	0.616	stim	s609	False
6.130864	1.7	2.100136	1.0	71.0	double	attention_network_task	down	right	incongruent	71	0.476	stim	s609	False
8.739728	1.7	2.100272	1.0	89.0	double	attention_network_task	down	left	incongruent	89	0.547	stim	s609	False
11.349727999999999	1.7	2.100272	1.0	71.0	double	attention_network_task	down	right	incongruent	71	0.453	stim	s609	False
13.959	1.7	2.1	1.0	71.0	double	attention_network_task	up	right	congruent	71	0.664	stim	s609	False
16.573	1.7	2.1	1.0	89.0	spatial	attention_network_task	down	left	incongruent	89	0.501	stim	s609	False
19.188727999999998	1.7	2.100272	1.0	71.0	spatial	attention_network_task	down	right	congruent	71	0.446	stim	s609	False
21.797	1.7	2.1	1.0	71.0	spatial	attention_network_task	up	right	congruent	71	0.513	stim	s609	False
24.405	1.7	2.1	1.0	89.0	spatial	attention_network_task	down	left	incongruent	89	0.472	stim	s609	False
27.017727999999998	1.7	2.100272	1.0	71.0	double	attention_network_task	up	right	congruent	71	0.591	stim	s609	False
29.631	1.7	2.1	1.0	89.0	spatial	attention_network_task	up	left	incongruent	89	0.541	stim	s609	False
32.244864	1.7	2.100136	1.0	89.0	spatial	attention_network_task	up	left	congruent	89	0.618	stim	s609	False
34.857728	1.7	2.100272	1.0	71.0	spatial	attention_network_task	down	right	congruent	71	0.526	stim	s609	False
37.466	1.7	2.1	1.0	71.0	spatial	attention_network_task	up	right	congruent	71	0.527	stim	s609	False
40.078	1.7	2.1	1.0	89.0	double	attention_network_task	down	left	incongruent	89	0.528	stim	s609	False
42.687	1.7	2.1	1.0	89.0	double	attention_network_task	up	left	congruent	89	0.573	stim	s609	False
45.295	1.7	2.1	1.0	89.0	spatial	attention_network_task	up	left	incongruent	89	0.507	stim	s609	False
47.903	1.7	2.1	1.0	89.0	double	attention_network_task	down	left	congruent	89	0.69	stim	s609	False
50.516	1.7	2.1	1.0	71.0	spatial	attention_network_task	down	right	incongruent	71	0.548	stim	s609	False
53.124728000000005	1.7	2.100272	1.0	89.0	double	attention_network_task	up	left	congruent	89	0.611	stim	s609	False
55.731864	1.7	2.100136	1.0	71.0	double	attention_network_task	down	right	incongruent	71	0.824	stim	s609	False
58.344911999999994	1.7	2.1010880000000003	1.0	71.0	double	attention_network_task	down	right	incongruent	71	0.608	stim	s609	False
60.953728000000005	1.7	2.100272	1.0	89.0	spatial	attention_network_task	down	left	congruent	89	0.541	stim	s609	False
63.561864	1.7	2.100136	1.0	89.0	spatial	attention_network_task	up	left	congruent	89	0.545	stim	s609	False
66.169864	1.7	2.100136	1.0	71.0	double	attention_network_task	down	right	congruent	71	0.393	stim	s609	False
68.783	1.7	2.1	1.0	71.0	double	attention_network_task	down	right	congruent	71	0.481	stim	s609	False
71.396	1.7	2.1	1.0	71.0	spatial	attention_network_task	up	right	incongruent	71	0.438	stim	s609	False
74.004	1.7	2.1	1.0	89.0	spatial	attention_network_task	down	left	congruent	89	0.465	stim	s609	False
76.613	1.7	2.1	1.0	71.0	double	attention_network_task	up	right	incongruent	71	0.469	stim	s609	False
79.220864	1.7	2.100136	1.0	71.0	spatial	attention_network_task	up	right	incongruent	71	0.517	stim	s609	False
81.82772800000001	1.7	2.100272	1.0	89.0	double	attention_network_task	down	left	incongruent	89	0.49	stim	s609	False
84.435864	1.7	2.100136	1.0	89.0	spatial	attention_network_task	up	left	congruent	89	0.496	stim	s609	False
87.043864	1.7	2.100136	1.0	71.0	double	attention_network_task	up	right	congruent	71	0.406	stim	s609	False
89.653	1.7	2.1	1.0	71.0	double	attention_network_task	up	right	incongruent	71	0.66	stim	s609	False
92.265	1.7	2.1	1.0	89.0	spatial	attention_network_task	down	left	congruent	89	0.472	stim	s609	False
94.873592	1.7	2.100408	1.0	71.0	double	attention_network_task	up	right	congruent	71	0.463	stim	s609	False
97.48145600000001	1.7	2.1005439999999997	1.0	71.0	double	attention_network_task	down	right	congruent	71	0.415	stim	s609	False
100.090592	1.7	2.100408	1.0	89.0	spatial	attention_network_task	down	left	incongruent	89	0.464	stim	s609	False
102.698	1.7	2.1	1.0	89.0	spatial	attention_network_task	down	left	congruent	89	0.486	stim	s609	False
105.305592	1.7	2.100408	1.0	71.0	double	attention_network_task	up	right	congruent	71	0.568	stim	s609	False
107.914	1.7	2.1	1.0	71.0	spatial	attention_network_task	up	right	congruent	71	0.37	stim	s609	False
110.521592	1.7	2.100408	1.0	71.0	spatial	attention_network_task	down	right	congruent	71	0.425	stim	s609	False
113.134	1.7	2.1	1.0	89.0	spatial	attention_network_task	up	left	incongruent	89	0.698	stim	s609	False
115.742	1.7	2.1	1.0	89.0	spatial	attention_network_task	down	left	incongruent	89	0.452	stim	s609	False
118.350592	1.7	2.100408	1.0	89.0	spatial	attention_network_task	up	left	incongruent	89	0.509	stim	s609	False
120.958864	1.7	2.100136	1.0	89.0	spatial	attention_network_task	up	left	incongruent	89	0.417	stim	s609	False
123.566728	1.7	2.100272	1.0	71.0	double	attention_network_task	up	right	incongruent	71	0.48	stim	s609	False
126.174456	1.7	2.1005439999999997	1.0	89.0	double	attention_network_task	up	left	incongruent	89	0.517	stim	s609	False
128.782728	1.7	2.100272	1.0	71.0	spatial	attention_network_task	up	right	incongruent	71	0.455	stim	s609	False
131.395	1.7	2.1	1.0	71.0	spatial	attention_network_task	up	right	incongruent	71	0.384	stim	s609	False
134.004592	1.7	2.100408	1.0	71.0	spatial	attention_network_task	up	right	incongruent	71	0.441	stim	s609	False
136.614	1.7	2.1	1.0	71.0	spatial	attention_network_task	down	right	congruent	71	0.571	stim	s609	False
139.227	1.7	2.1	1.0	89.0	double	attention_network_task	up	left	congruent	89	0.483	stim	s609	False
141.833456	1.7	2.1005439999999997	1.0	89.0	double	attention_network_task	up	left	incongruent	89	0.594	stim	s609	False
144.446592	1.7	2.100408	1.0	89.0	spatial	attention_network_task	up	left	congruent	89	0.397	stim	s609	False
147.06	1.7	2.1	1.0	89.0	spatial	attention_network_task	up	left	congruent	89	0.38	stim	s609	False
149.667864	1.7	2.100136	1.0	89.0	spatial	attention_network_task	up	left	congruent	89	0.406	stim	s609	False
152.276184	1.7	2.100816	1.0	71.0	spatial	attention_network_task	down	right	incongruent	71	0.508	stim	s609	False
154.884864	1.7	2.100136	1.0	89.0	double	attention_network_task	down	left	congruent	89	0.601	stim	s609	False
157.497	1.7	2.1	1.0	71.0	spatial	attention_network_task	up	right	congruent	71	0.358	stim	s609	False
160.110864	1.7	2.100136	1.0	89.0	double	attention_network_task	up	left	incongruent	89	0.48	stim	s609	False
162.723864	1.7	2.100136	1.0	89.0	spatial	attention_network_task	up	left	incongruent	89	0.437	stim	s609	False
165.332864	1.7	2.100136	1.0	71.0	double	attention_network_task	up	right	incongruent	71	0.496	stim	s609	False
167.943456	1.7	2.1005439999999997	1.0	89.0	spatial	attention_network_task	down	left	congruent	89	0.592	stim	s609	False
181.071	1.7	2.1	1.0	89.0	spatial	attention_network_task	down	left	congruent	89	0.525	stim	s609	False
183.678728	1.7	2.100272	1.0	71.0	double	attention_network_task	down	right	incongruent	71	0.62	stim	s609	False
186.287	1.7	2.1	1.0	89.0	spatial	attention_network_task	down	left	congruent	89	0.446	stim	s609	False
188.899864	1.7	2.100136	1.0	89.0	spatial	attention_network_task	up	left	congruent	89	0.402	stim	s609	False
191.508592	1.7	2.100408	0.0	89.0	double	attention_network_task	up	left	incongruent	71	0.514	stim	s609	False
194.116456	1.7	2.1005439999999997	1.0	71.0	double	attention_network_task	down	right	congruent	71	0.478	stim	s609	False
196.725	1.7	2.1	1.0	71.0	double	attention_network_task	down	right	incongruent	71	0.572	stim	s609	False
199.332864	1.7	2.100136	1.0	89.0	spatial	attention_network_task	up	left	incongruent	89	0.54	stim	s609	False
201.943864	1.7	2.100136	1.0	89.0	double	attention_network_task	down	left	incongruent	89	0.6	stim	s609	False
204.553864	1.7	2.100136	1.0	71.0	spatial	attention_network_task	down	right	incongruent	71	0.529	stim	s609	False
207.166864	1.7	2.100136	1.0	89.0	double	attention_network_task	down	left	congruent	89	0.583	stim	s609	False
209.774728	1.7	2.100272	1.0	71.0	spatial	attention_network_task	down	right	incongruent	71	0.699	stim	s609	False
212.388864	1.7	2.100136	1.0	89.0	spatial	attention_network_task	up	left	incongruent	89	0.571	stim	s609	False
214.996592	1.7	2.100408	1.0	71.0	spatial	attention_network_task	up	right	incongruent	71	0.485	stim	s609	False
217.605	1.7	2.1	1.0	71.0	double	attention_network_task	down	right	incongruent	71	0.588	stim	s609	False
220.212864	1.7	2.100136	1.0	71.0	double	attention_network_task	up	right	congruent	71	0.588	stim	s609	False
222.822	1.7	2.1	1.0	71.0	spatial	attention_network_task	up	right	congruent	71	0.465	stim	s609	False
225.429864	1.7	2.100136	1.0	71.0	double	attention_network_task	down	right	incongruent	71	0.514	stim	s609	False
228.045048	1.7	2.1009520000000004	1.0	89.0	spatial	attention_network_task	down	left	congruent	89	0.578	stim	s609	False
230.65672800000002	1.7	2.100272	1.0	89.0	double	attention_network_task	up	left	congruent	89	0.641	stim	s609	False
233.262864	1.7	2.100136	1.0	89.0	double	attention_network_task	up	left	congruent	89	0.549	stim	s609	False
235.871	1.7	2.1	1.0	89.0	double	attention_network_task	up	left	incongruent	89	0.525	stim	s609	False
238.478864	1.7	2.100136	1.0	71.0	spatial	attention_network_task	down	right	incongruent	71	0.669	stim	s609	False
241.087	1.7	2.1	1.0	89.0	double	attention_network_task	up	left	congruent	89	0.488	stim	s609	False
243.694864	1.7	2.100136	1.0	71.0	spatial	attention_network_task	down	right	incongruent	71	0.417	stim	s609	False
246.303728	1.7	2.100272	1.0	89.0	double	attention_network_task	down	left	incongruent	89	0.703	stim	s609	False
248.917728	1.7	2.100272	1.0	89.0	spatial	attention_network_task	down	left	incongruent	89	0.694	stim	s609	False
251.524864	1.7	2.100136	1.0	89.0	double	attention_network_task	up	left	congruent	89	0.463	stim	s609	False
254.136	1.7	2.1	1.0	89.0	double	attention_network_task	up	left	incongruent	89	0.525	stim	s609	False
256.745864	1.7	2.100136	1.0	71.0	double	attention_network_task	up	right	incongruent	71	0.537	stim	s609	False
259.354	1.7	2.1	1.0	89.0	spatial	attention_network_task	up	left	congruent	89	0.455	stim	s609	False
261.966728	1.7	2.100272	1.0	89.0	double	attention_network_task	down	left	congruent	89	0.628	stim	s609	False
264.575	1.7	2.1	1.0	89.0	spatial	attention_network_task	down	left	incongruent	89	0.629	stim	s609	False
267.183	1.7	2.1	1.0	71.0	spatial	attention_network_task	down	right	incongruent	71	0.51	stim	s609	False
269.796864	1.7	2.100136	1.0	71.0	spatial	attention_network_task	down	right	congruent	71	0.598	stim	s609	False
272.404728	1.7	2.100272	1.0	71.0	spatial	attention_network_task	up	right	congruent	71	0.54	stim	s609	False
275.012592	1.7	2.100408	1.0	89.0	double	attention_network_task	up	left	incongruent	89	0.441	stim	s609	False
277.62	1.7	2.1	1.0	89.0	double	attention_network_task	down	left	congruent	89	0.59	stim	s609	False
280.231864	1.7	2.100136	1.0	71.0	double	attention_network_task	down	right	congruent	71	0.584	stim	s609	False
282.841864	1.7	2.100136	1.0	71.0	spatial	attention_network_task	down	right	congruent	71	0.435	stim	s609	False
285.45	1.7	2.1	1.0	71.0	double	attention_network_task	down	right	congruent	71	0.663	stim	s609	False
288.055592	1.7	2.100408	1.0	89.0	double	attention_network_task	down	left	incongruent	89	0.457	stim	s609	False
290.665456	1.7	2.1005439999999997	1.0	71.0	spatial	attention_network_task	down	right	congruent	71	0.432	stim	s609	False
293.273864	1.7	2.100136	1.0	71.0	spatial	attention_network_task	up	right	congruent	71	0.6	stim	s609	False
295.881864	1.7	2.100136	1.0	71.0	spatial	attention_network_task	up	right	congruent	71	0.465	stim	s609	False
298.49	1.7	2.1	1.0	89.0	spatial	attention_network_task	down	left	incongruent	89	0.445	stim	s609	False
301.098	1.7	2.1	1.0	89.0	double	attention_network_task	down	left	congruent	89	0.532	stim	s609	False
303.70786400000003	1.7	2.100136	1.0	71.0	double	attention_network_task	down	right	congruent	71	0.416	stim	s609	False
306.319	1.7	2.1	1.0	71.0	double	attention_network_task	down	right	congruent	71	0.432	stim	s609	False
308.929864	1.7	2.100136	1.0	89.0	double	attention_network_task	up	left	congruent	89	0.462	stim	s609	False
311.545	1.7	2.1	1.0	71.0	double	attention_network_task	up	right	congruent	71	0.467	stim	s609	False
314.153592	1.7	2.100408	1.0	71.0	spatial	attention_network_task	down	right	congruent	71	0.471	stim	s609	False
316.767	1.7	2.1	1.0	71.0	spatial	attention_network_task	down	right	incongruent	71	0.346	stim	s609	False
319.374184	1.7	2.100816	1.0	89.0	double	attention_network_task	down	left	incongruent	89	0.371	stim	s609	False
321.98232	1.7	2.1006799999999997	1.0	71.0	spatial	attention_network_task	down	right	congruent	71	0.389	stim	s609	False
324.596	1.7	2.1	1.0	71.0	spatial	attention_network_task	down	right	congruent	71	0.434	stim	s609	False
327.204864	1.7	2.100136	1.0	89.0	spatial	attention_network_task	down	left	congruent	89	0.368	stim	s609	False
329.813864	1.7	2.100136	1.0	89.0	double	attention_network_task	up	left	incongruent	89	0.625	stim	s609	False
332.419864	1.7	2.100136	1.0	71.0	double	attention_network_task	up	right	incongruent	71	0.562	stim	s609	False
335.029	1.7	2.1	1.0	89.0	double	attention_network_task	down	left	incongruent	89	0.529	stim	s609	False
337.641864	1.7	2.100136	1.0	71.0	spatial	attention_network_task	up	right	incongruent	71	0.391	stim	s609	False
340.249048	1.7	2.1009520000000004	0.0	71.0	spatial	attention_network_task	up	right	incongruent	89	0.583	stim	s609	False
342.857864	1.7	2.100136	1.0	71.0	double	attention_network_task	up	right	incongruent	71	0.484	stim	s609	False
345.465592	1.7	2.100408	1.0	71.0	double	attention_network_task	up	right	incongruent	71	0.431	stim	s609	False
