onset	duration	movement_onset	EV	action	block_duration	experiment_exp_id	gain_amount	gain_probability	key_press	loss_amount	loss_probability	num_cards	num_click_in_round	num_loss_cards	risk	response_time	total_cards	trial_id	trial_type	worker_id	junk	feedback
3.01	9.262	12.272	0.6876211676614905	draw_card	9.262	columbia_card_task_fmri	12.0	0.8333333333333334	89.0	-70.0	0.1666666666666666	6.0	1.0	1.0	-1.4109878270915814	9.262	n/a	stim	poldrack-single-stim	s610	False	1
12.276	6.307	18.583	-2.045712165671842	end_round	6.307	columbia_card_task_fmri	12.0	0.8	71.0	-70.0	0.2	6.0	2.0	1.0	0.8232477680364738	6.307	1.0	stim	poldrack-single-stim	s610	False	1
19.338	1.5	18.587	n/a	-1.0	2.454	columbia_card_task_fmri	n/a	n/a	-1.0	n/a	n/a	n/a	n/a	n/a	n/a	n/a	n/a	ITI	poldrack-single-stim	s610	False	0
21.043	11.994	33.037	1.5209545009948244	draw_card	11.994	columbia_card_task_fmri	14.0	0.8333333333333334	89.0	-75.0	0.1666666666666666	6.0	1.0	1.0	1.1906547031666437	11.994	n/a	stim	poldrack-single-stim	s610	False	1
33.038	4.611	37.649	-1.4457121656718424	draw_card	4.611	columbia_card_task_fmri	14.0	0.8	89.0	-75.0	0.2	6.0	2.0	1.0	3.6166259518499615	4.611	n/a	stim	poldrack-single-stim	s610	False	1
37.65	6.229	43.879	-5.895712165671844	draw_card	6.229	columbia_card_task_fmri	14.0	0.75	89.0	-75.0	0.25	6.0	3.0	1.0	6.548839396082414	6.229	n/a	stim	poldrack-single-stim	s610	False	1
43.881	3.026	46.907	-13.31237883233851	end_round	3.026	columbia_card_task_fmri	14.0	0.6666666666666667	71.0	-75.0	0.3333333333333333	6.0	4.0	1.0	9.9598697573551	3.026	3.0	stim	poldrack-single-stim	s610	False	1
47.66	1.5	46.909	n/a	-1.0	2.454	columbia_card_task_fmri	n/a	n/a	-1.0	n/a	n/a	n/a	n/a	n/a	n/a	n/a	n/a	ITI	poldrack-single-stim	s610	False	0
49.364	7.43	56.794	3.1876211676614905	draw_card	7.43	columbia_card_task_fmri	15.0	0.8333333333333334	89.0	-70.0	0.1666666666666666	6.0	1.0	1.0	-0.2961408451373089	7.43	n/a	stim	poldrack-single-stim	s610	False	1
56.796	2.909	59.705	0.3542878343281566	draw_card	2.909	columbia_card_task_fmri	15.0	0.8	89.0	-70.0	0.2	6.0	2.0	1.0	2.0202767743972245	2.909	n/a	stim	poldrack-single-stim	s610	False	1
59.706	5.799	65.505	-3.8957121656718434	draw_card	5.799	columbia_card_task_fmri	15.0	0.75	89.0	-70.0	0.25	6.0	3.0	1.0	4.820162767709981	5.799	3.0	stim	poldrack-single-stim	s610	False	0
66.26	1.5	65.509	n/a	-1.0	2.522	columbia_card_task_fmri	n/a	n/a	-1.0	n/a	n/a	n/a	n/a	n/a	n/a	n/a	n/a	ITI	poldrack-single-stim	s610	False	0
68.033	4.278	72.311	4.020954500994824	draw_card	4.278	columbia_card_task_fmri	17.0	0.8333333333333334	89.0	-75.0	0.1666666666666666	6.0	1.0	1.0	2.30597403951446	4.278	n/a	stim	poldrack-single-stim	s610	False	1
72.312	3.81	76.122	0.954287834328158	draw_card	3.81	columbia_card_task_fmri	17.0	0.8	89.0	-75.0	0.2	6.0	2.0	1.0	4.814095508270526	3.81	2.0	stim	poldrack-single-stim	s610	False	0
76.877	1.5	76.126	n/a	-1.0	2.386	columbia_card_task_fmri	n/a	n/a	-1.0	n/a	n/a	n/a	n/a	n/a	n/a	n/a	n/a	ITI	poldrack-single-stim	s610	False	0
78.515	3.906	82.421	5.354287834328156	draw_card	3.906	columbia_card_task_fmri	24.0	0.75	89.0	-60.0	0.25	8.0	1.0	2.0	4.388043667996264	3.906	n/a	stim	poldrack-single-stim	s610	False	1
82.422	1.683	84.105	2.3542878343281566	draw_card	1.683	columbia_card_task_fmri	24.0	0.7142857142857143	89.0	-60.0	0.2857142857142857	8.0	2.0	2.0	5.95915726090243	1.683	2.0	stim	poldrack-single-stim	s610	False	0
84.86	1.5	84.109	n/a	-1.0	2.454	columbia_card_task_fmri	n/a	n/a	-1.0	n/a	n/a	n/a	n/a	n/a	n/a	n/a	n/a	ITI	poldrack-single-stim	s610	False	0
86.565	3.987	90.552	5.354287834328156	draw_card	3.987	columbia_card_task_fmri	29.0	0.75	89.0	-75.0	0.25	8.0	1.0	2.0	13.033683047608768	3.987	n/a	stim	poldrack-single-stim	s610	False	1
90.553	2.891	93.444	1.6400021200424448	draw_card	2.891	columbia_card_task_fmri	29.0	0.7142857142857143	89.0	-75.0	0.2857142857142857	8.0	2.0	2.0	14.980225004631322	2.891	n/a	stim	poldrack-single-stim	s610	False	1
93.447	6.886	100.333	-3.312378832338508	end_round	6.886	columbia_card_task_fmri	29.0	0.6666666666666667	71.0	-75.0	0.3333333333333333	8.0	3.0	2.0	17.021429779254667	6.886	2.0	stim	poldrack-single-stim	s610	False	1
101.085	1.5	100.334	n/a	-1.0	2.522	columbia_card_task_fmri	n/a	n/a	-1.0	n/a	n/a	n/a	n/a	n/a	n/a	n/a	n/a	ITI	poldrack-single-stim	s610	False	0
102.858	8.228	111.086	1.132065612105937	draw_card	8.228	columbia_card_task_fmri	17.0	0.7777777777777778	89.0	-65.0	0.2222222222222222	9.0	1.0	2.0	2.110716982720525	8.228	n/a	stim	poldrack-single-stim	s610	False	1
111.087	10.069	121.156	-1.1457121656718434	draw_card	10.069	columbia_card_task_fmri	17.0	0.75	89.0	-65.0	0.25	9.0	2.0	2.0	3.52387064357805	10.069	2.0	stim	poldrack-single-stim	s610	False	0
121.909	1.5	121.158	n/a	-1.0	2.522	columbia_card_task_fmri	n/a	n/a	-1.0	n/a	n/a	n/a	n/a	n/a	n/a	n/a	n/a	ITI	poldrack-single-stim	s610	False	0
123.682	6.06	129.742	5.454287834328156	draw_card	6.06	columbia_card_task_fmri	14.0	0.9	89.0	-95.0	0.1	10.0	1.0	1.0	0.7235051560184047	6.06	n/a	stim	poldrack-single-stim	s610	False	1
129.744	2.907	132.651	4.243176723217044	draw_card	2.907	columbia_card_task_fmri	14.0	0.8888888888888888	89.0	-95.0	0.1111111111111111	10.0	2.0	1.0	2.2750664058406045	2.907	n/a	stim	poldrack-single-stim	s610	False	1
132.651	6.104	138.755	2.7292878343281566	draw_card	6.104	columbia_card_task_fmri	14.0	0.875	89.0	-95.0	0.125	10.0	3.0	1.0	4.064022452628457	6.104	n/a	stim	poldrack-single-stim	s610	False	1
138.757	9.024	147.781	0.7828592628995854	draw_card	9.024	columbia_card_task_fmri	14.0	0.8571428571428572	89.0	-95.0	0.1428571428571428	10.0	4.0	1.0	6.153508134428421	9.024	n/a	stim	poldrack-single-stim	s610	False	1
147.782	7.63	155.412	-1.812378832338508	draw_card	7.63	columbia_card_task_fmri	14.0	0.8333333333333334	89.0	-95.0	0.1666666666666666	10.0	5.0	1.0	8.628931467759635	7.63	n/a	stim	poldrack-single-stim	s610	False	1
155.413	5.109	160.522	-5.445712165671843	end_round	5.109	columbia_card_task_fmri	14.0	0.8	71.0	-95.0	0.2	10.0	6.0	1.0	11.602380851783742	5.109	5.0	stim	poldrack-single-stim	s610	False	1
161.276	1.5	160.525	n/a	-1.0	2.59	columbia_card_task_fmri	n/a	n/a	-1.0	n/a	n/a	n/a	n/a	n/a	n/a	n/a	n/a	ITI	poldrack-single-stim	s610	False	0
163.117	2.852	165.969	1.3542878343281566	draw_card	2.852	columbia_card_task_fmri	15.0	0.8	89.0	-65.0	0.2	10.0	1.0	2.0	0.0253517355982353	2.852	n/a	stim	poldrack-single-stim	s610	False	1
165.971	1.5	167.471	-0.4234899434496202	draw_card	1.5	columbia_card_task_fmri	15.0	0.7777777777777778	89.0	-65.0	0.2222222222222222	10.0	2.0	2.0	1.2812624688002927	1.5	n/a	stim	poldrack-single-stim	s610	False	1
167.473	4.29	171.763	-2.6457121656718434	draw_card	4.29	columbia_card_task_fmri	15.0	0.75	89.0	-65.0	0.25	10.0	3.0	2.0	2.6597899262650486	4.29	n/a	stim	poldrack-single-stim	s610	False	1
171.764	6.088	177.852	-5.502855022814698	draw_card	6.088	columbia_card_task_fmri	15.0	0.7142857142857143	89.0	-65.0	0.2857142857142857	10.0	4.0	2.0	4.15578197041458	6.088	n/a	stim	poldrack-single-stim	s610	False	1
177.853	7.121	184.974	-9.312378832338506	end_round	7.121	columbia_card_task_fmri	15.0	0.6666666666666667	71.0	-65.0	0.3333333333333333	10.0	5.0	2.0	5.724640711506581	7.121	4.0	stim	poldrack-single-stim	s610	False	1
185.73	1.5	184.979	n/a	-1.0	2.454	columbia_card_task_fmri	n/a	n/a	-1.0	n/a	n/a	n/a	n/a	n/a	n/a	n/a	n/a	ITI	poldrack-single-stim	s610	False	0
187.435	3.267	190.702	2.954287834328158	draw_card	3.267	columbia_card_task_fmri	17.0	0.8	89.0	-65.0	0.2	10.0	1.0	2.0	0.8232477680364738	3.267	n/a	stim	poldrack-single-stim	s610	False	1
190.704	1.237	191.941	1.132065612105937	draw_card	1.237	columbia_card_task_fmri	17.0	0.7777777777777778	89.0	-65.0	0.2222222222222222	10.0	2.0	2.0	2.110716982720525	1.237	2.0	stim	poldrack-single-stim	s610	False	0
192.695	1.5	191.944	n/a	-1.0	2.318	columbia_card_task_fmri	n/a	n/a	-1.0	n/a	n/a	n/a	n/a	n/a	n/a	n/a	n/a	ITI	poldrack-single-stim	s610	False	0
194.265	2.147	196.412	1.5209545009948244	draw_card	2.147	columbia_card_task_fmri	13.0	0.8333333333333334	89.0	-70.0	0.1666666666666666	12.0	1.0	2.0	-1.0393976546743566	2.147	n/a	stim	poldrack-single-stim	s610	False	1
196.413	2.76	199.173	0.2633787434190631	draw_card	2.76	columbia_card_task_fmri	13.0	0.8181818181818181	89.0	-70.0	0.1818181818181818	12.0	2.0	2.0	0.0379701023746577	2.76	2.0	stim	poldrack-single-stim	s610	False	0
199.926	1.5	199.175	n/a	-1.0	2.25	columbia_card_task_fmri	n/a	n/a	-1.0	n/a	n/a	n/a	n/a	n/a	n/a	n/a	n/a	ITI	poldrack-single-stim	s610	False	0
201.426	1.806	203.232	1.5209545009948244	draw_card	1.806	columbia_card_task_fmri	15.0	0.8333333333333334	89.0	-80.0	0.1666666666666666	12.0	1.0	2.0	3.421464242500811	1.806	1.0	stim	poldrack-single-stim	s610	False	0
203.986	1.5	203.235	n/a	-1.0	2.658	columbia_card_task_fmri	n/a	n/a	-1.0	n/a	n/a	n/a	n/a	n/a	n/a	n/a	n/a	ITI	poldrack-single-stim	s610	False	0
205.895	3.352	209.247	0.5542878343281576	draw_card	3.352	columbia_card_task_fmri	14.0	0.8	89.0	-65.0	0.2	15.0	1.0	3.0	-0.3735564946429619	3.352	n/a	stim	poldrack-single-stim	s610	False	1
209.249	3.871	213.12	-0.5742835942432705	draw_card	3.871	columbia_card_task_fmri	14.0	0.7857142857142857	89.0	-65.0	0.2142857142857142	15.0	2.0	3.0	0.4399917921510479	3.871	n/a	stim	poldrack-single-stim	s610	False	1
213.12	12.723	225.843	-1.8764813964410751	draw_card	12.723	columbia_card_task_fmri	14.0	0.7692307692307692	89.0	-65.0	0.2307692307692307	15.0	3.0	3.0	1.306700589301343	12.723	n/a	stim	poldrack-single-stim	s610	False	1
225.846	12.5	238.346	-3.3957121656718434	end_round	12.5	columbia_card_task_fmri	14.0	0.75	71.0	-65.0	0.25	15.0	4.0	3.0	2.2277863635572643	12.5	3.0	stim	poldrack-single-stim	s610	False	1
239.102	1.5	238.351	n/a	-1.0	2.454	columbia_card_task_fmri	n/a	n/a	-1.0	n/a	n/a	n/a	n/a	n/a	n/a	n/a	n/a	ITI	poldrack-single-stim	s610	False	0
240.808	2.172	242.98	0.4792878343281566	draw_card	2.172	columbia_card_task_fmri	1.0	0.9375	89.0	-45.0	0.0625	16.0	1.0	1.0	-20.680140669206477	2.172	n/a	stim	poldrack-single-stim	s610	False	1
242.981	1.115	244.096	0.2876211676614901	draw_card	1.115	columbia_card_task_fmri	1.0	0.9333333333333332	89.0	-45.0	0.0666666666666666	16.0	2.0	1.0	-20.34768637188305	1.115	n/a	stim	poldrack-single-stim	s610	False	1
244.098	0.985	245.083	0.068573548613871	draw_card	0.985	columbia_card_task_fmri	1.0	0.9285714285714286	89.0	-45.0	0.0714285714285714	16.0	3.0	1.0	-19.98265848763313	0.985	n/a	stim	poldrack-single-stim	s610	False	1
245.085	1.724	246.809	-0.1841737041333817	draw_card	1.724	columbia_card_task_fmri	1.0	0.9230769230769232	89.0	-45.0	0.0769230769230769	16.0	4.0	1.0	-19.57950144146353	1.724	n/a	stim	poldrack-single-stim	s610	False	1
246.812	3.921	250.733	-0.4790454990051769	draw_card	3.921	columbia_card_task_fmri	1.0	0.9166666666666666	89.0	-45.0	0.0833333333333333	16.0	5.0	1.0	-19.131264779954904	3.921	n/a	stim	poldrack-single-stim	s610	False	1
250.734	1.053	251.787	-0.8275303474900251	draw_card	1.053	columbia_card_task_fmri	1.0	0.9090909090909092	89.0	-45.0	0.0909090909090909	16.0	6.0	1.0	-18.629132638196737	1.053	n/a	stim	poldrack-single-stim	s610	False	1
251.79	5.033	256.823	-1.2457121656718435	draw_card	5.033	columbia_card_task_fmri	1.0	0.9	89.0	-45.0	0.1	16.0	7.0	1.0	-18.06175452516239	5.033	n/a	stim	poldrack-single-stim	s610	False	1
256.824	2.179	259.003	-1.756823276782954	draw_card	2.179	columbia_card_task_fmri	1.0	0.8888888888888888	89.0	-45.0	0.1111111111111111	16.0	8.0	1.0	-17.414281850275344	2.179	n/a	stim	poldrack-single-stim	s610	False	1
259.006	8.894	267.9	-2.3957121656718434	end_round	8.894	columbia_card_task_fmri	1.0	0.875	71.0	-45.0	0.125	16.0	9.0	1.0	-16.666975330405705	8.894	8.0	stim	poldrack-single-stim	s610	False	1
268.653	1.5	267.902	n/a	-1.0	2.386	columbia_card_task_fmri	n/a	n/a	-1.0	n/a	n/a	n/a	n/a	n/a	n/a	n/a	n/a	ITI	poldrack-single-stim	s610	False	0
270.291	2.175	272.466	1.4167878343281566	draw_card	2.175	columbia_card_task_fmri	15.0	0.8125	89.0	-70.0	0.1875	16.0	1.0	3.0	1.1988443041799286	2.175	n/a	stim	poldrack-single-stim	s610	False	1
272.468	1.551	274.019	0.3542878343281566	draw_card	1.551	columbia_card_task_fmri	15.0	0.8	89.0	-70.0	0.2	16.0	2.0	3.0	2.0202767743972245	1.551	n/a	stim	poldrack-single-stim	s610	False	1
274.02	0.828	274.848	-0.8599978799575587	draw_card	0.828	columbia_card_task_fmri	15.0	0.7857142857142857	89.0	-70.0	0.2142857142857142	16.0	3.0	3.0	2.895934514939718	0.828	n/a	stim	poldrack-single-stim	s610	False	1
274.851	0.789	275.64	-2.26109678105646	draw_card	0.789	columbia_card_task_fmri	15.0	0.7692307692307692	89.0	-70.0	0.2307692307692307	16.0	4.0	3.0	3.82879401873636	0.789	n/a	stim	poldrack-single-stim	s610	False	1
275.641	2.395	278.036	-3.8957121656718434	draw_card	2.395	columbia_card_task_fmri	15.0	0.75	89.0	-70.0	0.25	16.0	5.0	3.0	4.820162767709981	2.395	n/a	stim	poldrack-single-stim	s610	False	1
278.038	4.281	282.319	-5.827530347490024	end_round	4.281	columbia_card_task_fmri	15.0	0.7272727272727273	71.0	-70.0	0.2727272727272727	16.0	6.0	3.0	5.86775207777422	4.281	5.0	stim	poldrack-single-stim	s610	False	1
283.072	1.5	282.321	n/a	-1.0	2.59	columbia_card_task_fmri	n/a	n/a	-1.0	n/a	n/a	n/a	n/a	n/a	n/a	n/a	n/a	ITI	poldrack-single-stim	s610	False	0
284.913	4.223	289.136	8.354287834328156	draw_card	4.223	columbia_card_task_fmri	30.0	0.7	89.0	-50.0	0.3	10.0	1.0	3.0	4.67498653197795	4.223	n/a	stim	poldrack-single-stim	s610	False	1
289.138	11.257	300.395	5.687621167661495	draw_card	11.257	columbia_card_task_fmri	30.0	0.6666666666666667	89.0	-50.0	0.3333333333333333	10.0	2.0	3.0	5.724640711506581	11.257	n/a	stim	poldrack-single-stim	s610	False	1
300.397	7.921	308.318	2.3542878343281566	draw_card	7.921	columbia_card_task_fmri	30.0	0.625	89.0	-50.0	0.375	10.0	3.0	3.0	6.74018743399143	7.921	n/a	stim	poldrack-single-stim	s610	False	1
308.321	4.866	313.187	-1.931426451386128	end_round	4.866	columbia_card_task_fmri	30.0	0.5714285714285714	71.0	-50.0	0.4285714285714285	10.0	4.0	3.0	7.5985367122998895	4.866	3.0	stim	poldrack-single-stim	s610	False	1
313.94	1.5	313.189	n/a	-1.0	2.318	columbia_card_task_fmri	n/a	n/a	-1.0	n/a	n/a	n/a	n/a	n/a	n/a	n/a	n/a	ITI	poldrack-single-stim	s610	False	0
315.509	1.949	317.458	7.7542878343281565	draw_card	1.949	columbia_card_task_fmri	17.0	0.8666666666666667	89.0	-70.0	0.1333333333333333	15.0	1.0	2.0	-2.393262914831979	1.949	n/a	stim	poldrack-single-stim	s610	False	1
317.459	1.078	318.537	6.925716405756729	draw_card	1.078	columbia_card_task_fmri	17.0	0.8571428571428572	89.0	-70.0	0.1428571428571428	15.0	2.0	2.0	-1.526581466218051	1.078	n/a	stim	poldrack-single-stim	s610	False	1
318.54	0.544	319.084	5.969672449712771	draw_card	0.544	columbia_card_task_fmri	17.0	0.8461538461538461	89.0	-70.0	0.1538461538461538	15.0	3.0	2.0	-0.5832659288067816	0.544	n/a	stim	poldrack-single-stim	s610	False	1
319.085	1.32	320.405	4.854287834328158	draw_card	1.32	columbia_card_task_fmri	17.0	0.8333333333333334	89.0	-70.0	0.1666666666666666	15.0	4.0	2.0	0.4472120897174463	1.32	n/a	stim	poldrack-single-stim	s610	False	1
320.408	4.53	324.938	3.5361060161463365	draw_card	4.53	columbia_card_task_fmri	17.0	0.8181818181818181	89.0	-70.0	0.1818181818181818	15.0	5.0	2.0	1.576783652021966	4.53	n/a	stim	poldrack-single-stim	s610	False	1
324.939	1.417	326.356	1.954287834328158	draw_card	1.417	columbia_card_task_fmri	17.0	0.8	89.0	-70.0	0.2	15.0	6.0	2.0	2.818409543137861	1.417	6.0	stim	poldrack-single-stim	s610	False	0
327.111	1.5	326.36	n/a	-1.0	2.59	columbia_card_task_fmri	n/a	n/a	-1.0	n/a	n/a	n/a	n/a	n/a	n/a	n/a	n/a	ITI	poldrack-single-stim	s610	False	0
328.952	3.589	332.541	2.9792878343281566	draw_card	3.589	columbia_card_task_fmri	7.0	0.9375	89.0	-95.0	0.0625	16.0	1.0	1.0	-7.258876732782248	3.589	n/a	stim	poldrack-single-stim	s610	False	1
332.544	0.653	333.197	2.5542878343281568	draw_card	0.653	columbia_card_task_fmri	7.0	0.9333333333333332	89.0	-95.0	0.0666666666666666	16.0	2.0	1.0	-6.509175403618261	0.653	n/a	stim	poldrack-single-stim	s610	False	1
333.199	1.149	334.348	2.068573548613871	draw_card	1.149	columbia_card_task_fmri	7.0	0.9285714285714286	89.0	-95.0	0.0714285714285714	16.0	3.0	1.0	-5.686831925315264	1.149	n/a	stim	poldrack-single-stim	s610	False	1
334.349	0.648	334.997	1.50813398817431	draw_card	0.648	columbia_card_task_fmri	7.0	0.9230769230769232	89.0	-95.0	0.0769230769230769	16.0	4.0	1.0	-4.779489170254156	0.648	n/a	stim	poldrack-single-stim	s610	False	1
335.0	0.864	335.864	0.8542878343281566	draw_card	0.864	columbia_card_task_fmri	7.0	0.9166666666666666	89.0	-95.0	0.0833333333333333	16.0	5.0	1.0	-3.771691106778608	0.864	n/a	stim	poldrack-single-stim	s610	False	1
335.866	0.973	336.839	0.0815605616008832	draw_card	0.973	columbia_card_task_fmri	7.0	0.9090909090909092	89.0	-95.0	0.0909090909090909	16.0	6.0	1.0	-2.6438383002789223	0.973	n/a	stim	poldrack-single-stim	s610	False	1
336.84	1.266	338.106	-0.8457121656718436	draw_card	1.266	columbia_card_task_fmri	7.0	0.9	89.0	-95.0	0.1	16.0	7.0	1.0	-1.3707027322456184	1.266	n/a	stim	poldrack-single-stim	s610	False	1
338.108	6.568	344.676	-1.9790454990051771	draw_card	6.568	columbia_card_task_fmri	7.0	0.8888888888888888	89.0	-95.0	0.1111111111111111	16.0	8.0	1.0	0.0807097902413787	6.568	n/a	stim	poldrack-single-stim	s610	False	1
344.679	0.816	345.495	-3.3957121656718434	draw_card	0.816	columbia_card_task_fmri	7.0	0.875	89.0	-95.0	0.125	16.0	9.0	1.0	1.7542480211798264	0.816	n/a	stim	poldrack-single-stim	s610	False	1
345.497	6.319	351.816	-5.217140737100415	end_round	6.319	columbia_card_task_fmri	7.0	0.8571428571428572	71.0	-95.0	0.1428571428571428	16.0	10.0	1.0	3.7089895468222736	6.319	9.0	stim	poldrack-single-stim	s610	False	1
352.573	1.5	351.822	n/a	-1.0	2.386	columbia_card_task_fmri	n/a	n/a	-1.0	n/a	n/a	n/a	n/a	n/a	n/a	n/a	n/a	ITI	poldrack-single-stim	s610	False	0
354.212	2.387	356.599	4.541787834328156	draw_card	2.387	columbia_card_task_fmri	9.0	0.9375	89.0	-100.0	0.0625	16.0	1.0	1.0	-5.5716091116178745	2.387	n/a	stim	poldrack-single-stim	s610	False	1
356.601	0.697	357.298	4.08762116766149	draw_card	0.697	columbia_card_task_fmri	9.0	0.9333333333333332	89.0	-100.0	0.0666666666666666	16.0	2.0	1.0	-4.770021807975745	0.697	n/a	stim	poldrack-single-stim	s610	False	1
357.299	0.722	358.021	3.568573548613872	draw_card	0.722	columbia_card_task_fmri	9.0	0.9285714285714286	89.0	-100.0	0.0714285714285714	16.0	3.0	1.0	-3.8907933950261295	0.722	n/a	stim	poldrack-single-stim	s610	False	1
358.024	1.128	359.152	2.9696724497127724	draw_card	1.128	columbia_card_task_fmri	9.0	0.9230769230769232	89.0	-100.0	0.0769230769230769	16.0	4.0	1.0	-2.920717424106769	1.128	n/a	stim	poldrack-single-stim	s610	False	1
359.153	1.475	360.628	2.2709545009948244	draw_card	1.475	columbia_card_task_fmri	9.0	0.9166666666666666	89.0	-100.0	0.0833333333333333	16.0	5.0	1.0	-1.8432756737310072	1.475	n/a	stim	poldrack-single-stim	s610	False	1
360.631	2.353	362.984	1.4451969252372463	draw_card	2.353	columbia_card_task_fmri	9.0	0.9090909090909092	89.0	-100.0	0.0909090909090909	16.0	6.0	1.0	-0.6375219310046063	2.353	n/a	stim	poldrack-single-stim	s610	False	1
362.986	0.855	363.841	0.4542878343281562	draw_card	0.855	columbia_card_task_fmri	9.0	0.9	89.0	-100.0	0.1	16.0	7.0	1.0	0.7235051560184047	0.855	n/a	stim	poldrack-single-stim	s610	False	1
363.843	4.631	368.474	-0.7568232767829541	draw_card	4.631	columbia_card_task_fmri	9.0	0.8888888888888888	89.0	-100.0	0.1111111111111111	16.0	8.0	1.0	2.2750664058406045	4.631	n/a	stim	poldrack-single-stim	s610	False	1
368.476	1.932	370.408	-2.2707121656718434	draw_card	1.932	columbia_card_task_fmri	9.0	0.875	89.0	-100.0	0.125	16.0	9.0	1.0	4.064022452628457	1.932	n/a	stim	poldrack-single-stim	s610	False	1
370.41	3.812	374.222	-4.217140737100413	draw_card	3.812	columbia_card_task_fmri	9.0	0.8571428571428572	89.0	-100.0	0.1428571428571428	16.0	10.0	1.0	6.153508134428421	3.812	n/a	stim	poldrack-single-stim	s610	False	1
374.224	6.808	381.032	-6.812378832338508	end_round	6.808	columbia_card_task_fmri	9.0	0.8333333333333334	71.0	-100.0	0.1666666666666666	16.0	11.0	1.0	8.628931467759635	6.808	10.0	stim	poldrack-single-stim	s610	False	1
381.788	1.5	381.037	n/a	-1.0	2.318	columbia_card_task_fmri	n/a	n/a	-1.0	n/a	n/a	n/a	n/a	n/a	n/a	n/a	n/a	ITI	poldrack-single-stim	s610	False	0
383.359	2.523	385.882	5.479287834328156	draw_card	2.523	columbia_card_task_fmri	15.0	0.875	89.0	-80.0	0.125	16.0	1.0	2.0	-0.5547545865023196	2.523	1.0	stim	poldrack-single-stim	s610	False	0
386.636	1.5	385.885	n/a	-1.0	2.318	columbia_card_task_fmri	n/a	n/a	-1.0	n/a	n/a	n/a	n/a	n/a	n/a	n/a	n/a	ITI	poldrack-single-stim	s610	False	0
388.207	1.272	389.479	7.604287834328156	draw_card	1.272	columbia_card_task_fmri	16.0	0.875	89.0	-70.0	0.125	16.0	1.0	2.0	-3.5220366352102133	1.272	n/a	stim	poldrack-single-stim	s610	False	1
389.48	2.439	391.919	6.887621167661489	draw_card	2.439	columbia_card_task_fmri	16.0	0.8666666666666667	89.0	-70.0	0.1333333333333333	16.0	2.0	2.0	-2.732113138113256	2.439	n/a	stim	poldrack-single-stim	s610	False	1
391.922	1.456	393.378	6.068573548613871	draw_card	1.456	columbia_card_task_fmri	16.0	0.8571428571428572	89.0	-70.0	0.1428571428571428	16.0	3.0	2.0	-1.875454844091525	1.456	n/a	stim	poldrack-single-stim	s610	False	1
393.38	0.928	394.308	5.123518603558924	draw_card	0.928	columbia_card_task_fmri	16.0	0.8461538461538461	89.0	-70.0	0.1538461538461538	16.0	4.0	2.0	-0.9430448970636718	0.928	n/a	stim	poldrack-single-stim	s610	False	1
394.31	1.244	395.554	4.020954500994824	draw_card	1.244	columbia_card_task_fmri	16.0	0.8333333333333334	89.0	-70.0	0.1666666666666666	16.0	5.0	2.0	0.0755240235065741	1.244	n/a	stim	poldrack-single-stim	s610	False	1
395.556	4.18	399.736	2.717924197964518	draw_card	4.18	columbia_card_task_fmri	16.0	0.8181818181818181	89.0	-70.0	0.1818181818181818	16.0	6.0	2.0	1.1920458182565667	4.18	n/a	stim	poldrack-single-stim	s610	False	1
399.739	2.348	402.087	1.1542878343281573	draw_card	2.348	columbia_card_task_fmri	16.0	0.8	89.0	-70.0	0.2	16.0	7.0	2.0	2.4193323407480563	2.348	n/a	stim	poldrack-single-stim	s610	False	1
402.089	2.548	404.637	-0.7568232767829541	draw_card	2.548	columbia_card_task_fmri	16.0	0.7777777777777778	89.0	-70.0	0.2222222222222222	16.0	8.0	2.0	3.769907602745427	2.548	n/a	stim	poldrack-single-stim	s610	False	1
404.639	9.029	413.668	-3.1457121656718434	end_round	9.029	columbia_card_task_fmri	16.0	0.75	71.0	-70.0	0.25	16.0	9.0	2.0	5.252302586068623	9.029	8.0	stim	poldrack-single-stim	s610	False	1
414.423	1.5	413.672	n/a	-1.0	2.318	columbia_card_task_fmri	n/a	n/a	-1.0	n/a	n/a	n/a	n/a	n/a	n/a	n/a	n/a	ITI	poldrack-single-stim	s610	False	0
415.994	5.347	421.341	8.916787834328156	draw_card	5.347	columbia_card_task_fmri	30.0	0.6875	89.0	-45.0	0.3125	16.0	1.0	5.0	2.7819234382659985	5.347	n/a	stim	poldrack-single-stim	s610	False	1
421.342	3.62	424.962	7.35428783432816	end_round	3.62	columbia_card_task_fmri	30.0	0.6666666666666667	71.0	-45.0	0.3333333333333333	16.0	2.0	5.0	3.3725019406669787	3.62	1.0	stim	poldrack-single-stim	s610	False	1
425.72	1.5	424.969	n/a	-1.0	2.386	columbia_card_task_fmri	n/a	n/a	-1.0	n/a	n/a	n/a	n/a	n/a	n/a	n/a	n/a	ITI	poldrack-single-stim	s610	False	0
427.358	4.324	431.682	0.6876211676614905	draw_card	4.324	columbia_card_task_fmri	13.0	0.8333333333333334	89.0	-75.0	0.1666666666666666	6.0	1.0	1.0	0.8189225667942637	4.324	n/a	stim	poldrack-single-stim	s610	False	1
431.685	3.586	435.271	-2.245712165671843	draw_card	3.586	columbia_card_task_fmri	13.0	0.8	89.0	-75.0	0.2	6.0	2.0	1.0	3.2175076473164665	3.586	2.0	stim	poldrack-single-stim	s610	False	0
436.027	1.5	435.276	n/a	-1.0	2.25	columbia_card_task_fmri	n/a	n/a	-1.0	n/a	n/a	n/a	n/a	n/a	n/a	n/a	n/a	ITI	poldrack-single-stim	s610	False	0
437.528	2.667	440.195	2.3542878343281584	draw_card	2.667	columbia_card_task_fmri	14.0	0.8333333333333334	89.0	-70.0	0.1666666666666666	6.0	1.0	1.0	-0.6677816923085267	2.667	n/a	stim	poldrack-single-stim	s610	False	1
440.198	4.727	444.925	-0.4457121656718423	draw_card	4.727	columbia_card_task_fmri	14.0	0.8	89.0	-70.0	0.2	6.0	2.0	1.0	1.6212436130911811	4.727	n/a	stim	poldrack-single-stim	s610	False	1
444.928	4.089	449.017	-4.645712165671844	end_round	4.089	columbia_card_task_fmri	14.0	0.75	71.0	-70.0	0.25	6.0	3.0	1.0	4.388043667996264	4.089	2.0	stim	poldrack-single-stim	s610	False	1
449.772	1.5	449.021	n/a	-1.0	2.386	columbia_card_task_fmri	n/a	n/a	-1.0	n/a	n/a	n/a	n/a	n/a	n/a	n/a	n/a	ITI	poldrack-single-stim	s610	False	0
451.41	2.231	453.641	2.3542878343281584	draw_card	2.231	columbia_card_task_fmri	16.0	0.8333333333333334	89.0	-80.0	0.1666666666666666	6.0	1.0	1.0	3.793329524185992	2.231	n/a	stim	poldrack-single-stim	s610	False	1
453.643	3.213	456.856	-0.8457121656718427	draw_card	3.213	columbia_card_task_fmri	16.0	0.8	89.0	-80.0	0.2	6.0	2.0	1.0	6.410966879657678	3.213	n/a	stim	poldrack-single-stim	s610	False	1
456.858	3.831	460.689	-5.645712165671844	draw_card	3.831	columbia_card_task_fmri	16.0	0.75	89.0	-80.0	0.25	6.0	3.0	1.0	9.574698353947454	3.831	n/a	stim	poldrack-single-stim	s610	False	1
460.691	1.734	462.425	-13.64571216567184	end_round	1.734	columbia_card_task_fmri	16.0	0.6666666666666667	71.0	-80.0	0.3333333333333333	6.0	4.0	1.0	13.254895435928267	1.734	3.0	stim	poldrack-single-stim	s610	False	1
463.18	1.5	462.429	n/a	-1.0	2.59	columbia_card_task_fmri	n/a	n/a	-1.0	n/a	n/a	n/a	n/a	n/a	n/a	n/a	n/a	ITI	poldrack-single-stim	s610	False	0
465.023	2.906	467.929	4.854287834328158	draw_card	2.906	columbia_card_task_fmri	17.0	0.8333333333333334	89.0	-70.0	0.1666666666666666	6.0	1.0	1.0	0.4472120897174463	2.906	n/a	stim	poldrack-single-stim	s610	False	1
467.932	1.916	469.848	1.954287834328158	draw_card	1.916	columbia_card_task_fmri	17.0	0.8	89.0	-70.0	0.2	6.0	2.0	1.0	2.818409543137861	1.916	2.0	stim	poldrack-single-stim	s610	False	0
470.605	1.5	469.854	n/a	-1.0	2.658	columbia_card_task_fmri	n/a	n/a	-1.0	n/a	n/a	n/a	n/a	n/a	n/a	n/a	n/a	ITI	poldrack-single-stim	s610	False	0
472.517	1.941	474.458	4.854287834328156	draw_card	1.941	columbia_card_task_fmri	25.0	0.75	89.0	-65.0	0.25	8.0	1.0	2.0	6.981055285958519	1.941	1.0	stim	poldrack-single-stim	s610	False	0
475.213	1.5	474.462	n/a	-1.0	2.386	columbia_card_task_fmri	n/a	n/a	-1.0	n/a	n/a	n/a	n/a	n/a	n/a	n/a	n/a	ITI	poldrack-single-stim	s610	False	0
476.851	2.213	479.064	4.854287834328156	draw_card	2.213	columbia_card_task_fmri	30.0	0.75	89.0	-80.0	0.25	8.0	1.0	2.0	15.628409047917614	2.213	n/a	stim	poldrack-single-stim	s610	False	1
479.066	1.894	480.96	0.9257164057567332	draw_card	1.894	columbia_card_task_fmri	30.0	0.7142857142857143	89.0	-80.0	0.2857142857142857	8.0	2.0	2.0	17.6875369824985	1.894	n/a	stim	poldrack-single-stim	s610	False	1
480.963	7.159	488.122	-4.312378832338505	end_round	7.159	columbia_card_task_fmri	30.0	0.6666666666666667	71.0	-80.0	0.3333333333333333	8.0	3.0	2.0	19.8467786077116	7.159	2.0	stim	poldrack-single-stim	s610	False	1
488.877	1.5	488.126	n/a	-1.0	2.386	columbia_card_task_fmri	n/a	n/a	-1.0	n/a	n/a	n/a	n/a	n/a	n/a	n/a	n/a	ITI	poldrack-single-stim	s610	False	0
490.516	2.383	492.899	4.554287834328157	draw_card	2.383	columbia_card_task_fmri	13.0	0.9	89.0	-95.0	0.1	10.0	1.0	1.0	0.4242868155504951	2.383	1.0	stim	poldrack-single-stim	s610	False	0
493.653	1.5	492.902	n/a	-1.0	2.25	columbia_card_task_fmri	n/a	n/a	-1.0	n/a	n/a	n/a	n/a	n/a	n/a	n/a	n/a	ITI	poldrack-single-stim	s610	False	0
495.156	3.463	498.619	5.954287834328156	draw_card	3.463	columbia_card_task_fmri	14.0	0.9	89.0	-90.0	0.1	10.0	1.0	1.0	-0.7724368482300186	3.463	n/a	stim	poldrack-single-stim	s610	False	1
498.622	1.335	499.957	4.798732278772599	draw_card	1.335	columbia_card_task_fmri	14.0	0.8888888888888888	89.0	-90.0	0.1111111111111111	10.0	2.0	1.0	0.7075931376586837	1.335	n/a	stim	poldrack-single-stim	s610	False	1
499.96	1.343	501.303	3.3542878343281566	draw_card	1.343	columbia_card_task_fmri	14.0	0.875	89.0	-90.0	0.125	10.0	3.0	1.0	2.414111598725441	1.343	n/a	stim	poldrack-single-stim	s610	False	1
501.305	1.382	502.687	1.4971449771853007	draw_card	1.382	columbia_card_task_fmri	14.0	0.8571428571428572	89.0	-90.0	0.1428571428571428	10.0	4.0	1.0	4.4073553555472245	1.382	n/a	stim	poldrack-single-stim	s610	False	1
502.69	5.053	507.743	-0.9790454990051756	draw_card	5.053	columbia_card_task_fmri	14.0	0.8333333333333334	89.0	-90.0	0.1666666666666666	10.0	5.0	1.0	6.768812782773914	5.053	n/a	stim	poldrack-single-stim	s610	False	1
507.745	5.457	513.202	-4.445712165671843	draw_card	5.457	columbia_card_task_fmri	14.0	0.8	89.0	-90.0	0.2	10.0	6.0	1.0	9.605429761679195	5.457	6.0	stim	poldrack-single-stim	s610	False	0
513.959	1.5	513.208	n/a	-1.0	2.318	columbia_card_task_fmri	n/a	n/a	-1.0	n/a	n/a	n/a	n/a	n/a	n/a	n/a	n/a	ITI	poldrack-single-stim	s610	False	0
515.529	4.168	519.697	1.1542878343281573	draw_card	4.168	columbia_card_task_fmri	16.0	0.8	89.0	-70.0	0.2	10.0	1.0	2.0	2.4193323407480563	4.168	n/a	stim	poldrack-single-stim	s610	False	1
519.7	2.587	522.287	-0.7568232767829541	draw_card	2.587	columbia_card_task_fmri	16.0	0.7777777777777778	89.0	-70.0	0.2222222222222222	10.0	2.0	2.0	3.769907602745427	2.587	n/a	stim	poldrack-single-stim	s610	False	1
522.29	4.822	527.112	-3.1457121656718434	draw_card	4.822	columbia_card_task_fmri	16.0	0.75	89.0	-70.0	0.25	10.0	3.0	2.0	5.252302586068623	4.822	n/a	stim	poldrack-single-stim	s610	False	1
527.114	4.43	531.544	-6.217140737100415	end_round	4.43	columbia_card_task_fmri	16.0	0.7142857142857143	71.0	-70.0	0.2857142857142857	10.0	4.0	2.0	6.860971540851331	4.43	3.0	stim	poldrack-single-stim	s610	False	1
532.299	1.5	531.548	n/a	-1.0	2.25	columbia_card_task_fmri	n/a	n/a	-1.0	n/a	n/a	n/a	n/a	n/a	n/a	n/a	n/a	ITI	poldrack-single-stim	s610	False	0
533.801	2.679	536.48	0.4376211676614905	draw_card	2.679	columbia_card_task_fmri	7.0	0.9166666666666666	89.0	-100.0	0.0833333333333333	12.0	1.0	1.0	-2.394334987997979	2.679	n/a	stim	poldrack-single-stim	s610	False	1
536.482	1.016	537.498	-0.3729848929445718	draw_card	1.016	columbia_card_task_fmri	7.0	0.9090909090909092	89.0	-100.0	0.0909090909090909	12.0	2.0	1.0	-1.2108354927196991	1.016	n/a	stim	poldrack-single-stim	s610	False	1
537.501	0.747	538.248	-1.3457121656718436	draw_card	0.747	columbia_card_task_fmri	7.0	0.9	89.0	-100.0	0.1	12.0	3.0	1.0	0.1250830274237131	0.747	n/a	stim	poldrack-single-stim	s610	False	1
538.25	2.637	540.887	-2.5346010545607327	draw_card	2.637	columbia_card_task_fmri	7.0	0.8888888888888888	89.0	-100.0	0.1111111111111111	12.0	4.0	1.0	1.6480337987236666	2.637	n/a	stim	poldrack-single-stim	s610	False	1
540.891	1.734	542.625	-4.020712165671844	draw_card	1.734	columbia_card_task_fmri	7.0	0.875	89.0	-100.0	0.125	12.0	5.0	1.0	3.404016935435749	1.734	n/a	stim	poldrack-single-stim	s610	False	1
542.627	2.082	544.709	-5.931426451386129	draw_card	2.082	columbia_card_task_fmri	7.0	0.8571428571428572	89.0	-100.0	0.1428571428571428	12.0	6.0	1.0	5.4550080797807965	2.082	n/a	stim	poldrack-single-stim	s610	False	1
544.713	4.087	548.8	-8.479045499005174	draw_card	4.087	columbia_card_task_fmri	7.0	0.8333333333333334	89.0	-100.0	0.1666666666666666	12.0	7.0	1.0	7.884847402268072	4.087	n/a	stim	poldrack-single-stim	s610	False	1
548.803	3.725	552.528	-12.045712165671842	end_round	3.725	columbia_card_task_fmri	7.0	0.8	71.0	-100.0	0.2	12.0	8.0	1.0	10.803566300010324	3.725	7.0	stim	poldrack-single-stim	s610	False	1
553.285	1.5	552.534	n/a	-1.0	2.25	columbia_card_task_fmri	n/a	n/a	-1.0	n/a	n/a	n/a	n/a	n/a	n/a	n/a	n/a	ITI	poldrack-single-stim	s610	False	0
554.788	2.63	557.418	0.6876211676614923	draw_card	2.63	columbia_card_task_fmri	14.0	0.8333333333333334	89.0	-80.0	0.1666666666666666	12.0	1.0	2.0	3.0496161948901914	2.63	n/a	stim	poldrack-single-stim	s610	False	1
557.42	1.108	558.528	-0.7366212565809369	draw_card	1.108	columbia_card_task_fmri	14.0	0.8181818181818181	89.0	-80.0	0.1818181818181818	12.0	2.0	2.0	4.270516582475523	1.108	n/a	stim	poldrack-single-stim	s610	False	1
558.539	2.595	561.134	-2.4457121656718424	draw_card	2.595	columbia_card_task_fmri	14.0	0.8	89.0	-80.0	0.2	12.0	3.0	2.0	5.612498008225586	2.595	n/a	stim	poldrack-single-stim	s610	False	1
561.136	0.495	561.631	-4.534601054560733	draw_card	0.495	columbia_card_task_fmri	14.0	0.7777777777777778	89.0	-80.0	0.2222222222222222	12.0	4.0	2.0	7.089248123703179	0.495	n/a	stim	poldrack-single-stim	s610	False	1
561.634	1.002	562.636	-7.145712165671844	draw_card	1.002	columbia_card_task_fmri	14.0	0.75	89.0	-80.0	0.25	12.0	5.0	2.0	8.710087941680307	1.002	n/a	stim	poldrack-single-stim	s610	False	1
562.639	2.036	564.675	-10.502855022814698	draw_card	2.036	columbia_card_task_fmri	14.0	0.7142857142857143	89.0	-80.0	0.2857142857142857	12.0	6.0	2.0	10.46894757787078	2.036	n/a	stim	poldrack-single-stim	s610	False	1
564.677	3.595	568.272	-14.979045499005172	draw_card	3.595	columbia_card_task_fmri	14.0	0.6666666666666667	89.0	-80.0	0.3333333333333333	12.0	7.0	2.0	12.313386644794406	3.595	n/a	stim	poldrack-single-stim	s610	False	1
568.275	2.083	570.358	-21.245712165671844	end_round	2.083	columbia_card_task_fmri	14.0	0.6	71.0	-80.0	0.4	12.0	8.0	2.0	14.049412746423704	2.083	7.0	stim	poldrack-single-stim	s610	False	1
571.112	1.5	570.361	n/a	-1.0	2.386	columbia_card_task_fmri	n/a	n/a	-1.0	n/a	n/a	n/a	n/a	n/a	n/a	n/a	n/a	ITI	poldrack-single-stim	s610	False	0
572.75	2.225	574.975	2.3542878343281566	draw_card	2.225	columbia_card_task_fmri	15.0	0.8333333333333334	89.0	-75.0	0.1666666666666666	12.0	1.0	2.0	1.5624077804579528	2.225	n/a	stim	poldrack-single-stim	s610	False	1
574.977	1.381	576.358	0.9906514706917916	draw_card	1.381	columbia_card_task_fmri	15.0	0.8181818181818181	89.0	-75.0	0.1818181818181818	12.0	2.0	2.0	2.7311242731770093	1.381	n/a	stim	poldrack-single-stim	s610	False	1
576.361	1.477	577.838	-0.6457121656718434	draw_card	1.477	columbia_card_task_fmri	15.0	0.8	89.0	-75.0	0.2	12.0	3.0	2.0	4.015763786309485	1.477	n/a	stim	poldrack-single-stim	s610	False	1
577.841	0.678	578.519	-2.6457121656718416	draw_card	0.678	columbia_card_task_fmri	15.0	0.7777777777777778	89.0	-75.0	0.2222222222222222	12.0	4.0	2.0	5.429432137183554	0.678	n/a	stim	poldrack-single-stim	s610	False	1
578.521	0.924	579.445	-5.145712165671844	draw_card	0.924	columbia_card_task_fmri	15.0	0.75	89.0	-75.0	0.25	12.0	5.0	2.0	6.981055285958519	0.924	n/a	stim	poldrack-single-stim	s610	False	1
579.449	3.964	583.413	-8.359997879957556	draw_card	3.964	columbia_card_task_fmri	15.0	0.7142857142857143	89.0	-75.0	0.2857142857142857	12.0	6.0	2.0	8.66482532884509	3.964	n/a	stim	poldrack-single-stim	s610	False	1
583.416	8.026	591.442	-12.645712165671842	end_round	8.026	columbia_card_task_fmri	15.0	0.6666666666666667	71.0	-75.0	0.3333333333333333	12.0	7.0	2.0	10.430542043935835	8.026	6.0	stim	poldrack-single-stim	s610	False	1
592.2	1.5	591.449	n/a	-1.0	2.386	columbia_card_task_fmri	n/a	n/a	-1.0	n/a	n/a	n/a	n/a	n/a	n/a	n/a	n/a	ITI	poldrack-single-stim	s610	False	0
593.838	4.057	597.895	1.3542878343281566	draw_card	4.057	columbia_card_task_fmri	15.0	0.8	89.0	-65.0	0.2	15.0	1.0	3.0	0.0253517355982353	4.057	1.0	stim	poldrack-single-stim	s610	False	0
598.649	1.5	597.898	n/a	-1.0	2.726	columbia_card_task_fmri	n/a	n/a	-1.0	n/a	n/a	n/a	n/a	n/a	n/a	n/a	n/a	ITI	poldrack-single-stim	s610	False	0
600.627	2.086	602.713	0.6042878343281566	draw_card	2.086	columbia_card_task_fmri	14.0	0.8125	89.0	-70.0	0.1875	16.0	1.0	3.0	0.8095225847201277	2.086	n/a	stim	poldrack-single-stim	s610	False	1
602.717	2.972	605.689	-0.4457121656718423	draw_card	2.972	columbia_card_task_fmri	14.0	0.8	89.0	-70.0	0.2	16.0	2.0	3.0	1.6212436130911811	2.972	n/a	stim	poldrack-single-stim	s610	False	1
605.691	2.216	607.907	-1.6457121656718434	end_round	2.216	columbia_card_task_fmri	14.0	0.7857142857142857	71.0	-70.0	0.2142857142857142	16.0	3.0	3.0	2.4865512894207957	2.216	2.0	stim	poldrack-single-stim	s610	False	1
608.665	1.5	607.914	n/a	-1.0	2.454	columbia_card_task_fmri	n/a	n/a	-1.0	n/a	n/a	n/a	n/a	n/a	n/a	n/a	n/a	ITI	poldrack-single-stim	s610	False	0
610.372	2.587	612.959	0.5417878343281566	end_round	2.587	columbia_card_task_fmri	11.0	0.6875	71.0	-30.0	0.3125	16.0	1.0	5.0	-12.91185326460716	2.587	0.0	stim	poldrack-single-stim	s610	False	1
613.713	1.5	612.962	n/a	-1.0	2.318	columbia_card_task_fmri	n/a	n/a	-1.0	n/a	n/a	n/a	n/a	n/a	n/a	n/a	n/a	ITI	poldrack-single-stim	s610	False	0
615.283	1.26	616.543	5.354287834328156	draw_card	1.26	columbia_card_task_fmri	15.0	0.8666666666666667	89.0	-75.0	0.1333333333333333	15.0	1.0	2.0	-1.3765683126738928	1.26	n/a	stim	poldrack-single-stim	s610	False	1
616.547	1.363	617.91	4.4971449771853	draw_card	1.363	columbia_card_task_fmri	15.0	0.8571428571428572	89.0	-75.0	0.1428571428571428	15.0	2.0	2.0	-0.4798214370702709	1.363	n/a	stim	poldrack-single-stim	s610	False	1
617.913	0.649	618.562	3.50813398817431	draw_card	0.649	columbia_card_task_fmri	15.0	0.8461538461538461	89.0	-75.0	0.1538461538461538	15.0	3.0	2.0	0.4962067260482712	0.649	3.0	stim	poldrack-single-stim	s610	False	0
619.319	1.5	618.568	n/a	-1.0	2.318	columbia_card_task_fmri	n/a	n/a	-1.0	n/a	n/a	n/a	n/a	n/a	n/a	n/a	n/a	ITI	poldrack-single-stim	s610	False	0
620.889	0.89	621.779	7.08762116766149	draw_card	0.89	columbia_card_task_fmri	17.0	0.8666666666666667	89.0	-75.0	0.1333333333333333	15.0	1.0	2.0	-0.698659744331394	0.89	n/a	stim	poldrack-single-stim	s610	False	1
621.782	1.357	623.139	6.211430691471016	draw_card	1.357	columbia_card_task_fmri	17.0	0.8571428571428572	89.0	-75.0	0.1428571428571428	15.0	2.0	2.0	0.2181276008969845	1.357	n/a	stim	poldrack-single-stim	s610	False	1
623.143	0.851	623.994	5.200441680482003	draw_card	0.851	columbia_card_task_fmri	17.0	0.8461538461538461	89.0	-75.0	0.1538461538461538	15.0	3.0	2.0	1.2159609482666909	0.851	n/a	stim	poldrack-single-stim	s610	False	1
623.996	1.231	625.227	4.020954500994824	draw_card	1.231	columbia_card_task_fmri	17.0	0.8333333333333334	89.0	-75.0	0.1666666666666666	15.0	4.0	2.0	2.30597403951446	1.231	n/a	stim	poldrack-single-stim	s610	False	1
625.23	1.799	627.029	2.627015107055428	draw_card	1.799	columbia_card_task_fmri	17.0	0.8181818181818181	89.0	-75.0	0.1818181818181818	15.0	5.0	2.0	3.5007837432134465	1.799	n/a	stim	poldrack-single-stim	s610	False	1
627.032	0.647	627.679	0.954287834328158	draw_card	0.647	columbia_card_task_fmri	17.0	0.8	89.0	-75.0	0.2	15.0	6.0	2.0	4.814095508270526	0.647	n/a	stim	poldrack-single-stim	s610	False	1
627.683	4.855	632.538	-1.0901566101162845	draw_card	4.855	columbia_card_task_fmri	17.0	0.7777777777777778	89.0	-75.0	0.2222222222222222	15.0	7.0	2.0	6.259306065775284	4.855	n/a	stim	poldrack-single-stim	s610	False	1
632.541	2.65	635.191	-3.6457121656718434	draw_card	2.65	columbia_card_task_fmri	17.0	0.75	89.0	-75.0	0.25	15.0	8.0	2.0	7.845538893506045	2.65	n/a	stim	poldrack-single-stim	s610	False	1
635.194	5.484	640.678	-6.931426451386129	end_round	5.484	columbia_card_task_fmri	17.0	0.7142857142857143	71.0	-75.0	0.2857142857142857	15.0	9.0	2.0	9.566855077146563	5.484	8.0	stim	poldrack-single-stim	s610	False	1
641.434	1.5	640.683	n/a	-1.0	2.59	columbia_card_task_fmri	n/a	n/a	-1.0	n/a	n/a	n/a	n/a	n/a	n/a	n/a	n/a	ITI	poldrack-single-stim	s610	False	0
643.277	4.608	647.885	2.6667878343281566	draw_card	4.608	columbia_card_task_fmri	2.0	0.9375	89.0	-25.0	0.0625	16.0	1.0	1.0	-25.114372713917938	4.608	n/a	stim	poldrack-single-stim	s610	False	1
647.888	0.762	648.65	2.5542878343281563	draw_card	0.762	columbia_card_task_fmri	2.0	0.9333333333333332	89.0	-25.0	0.0666666666666666	16.0	2.0	1.0	-24.92652483026112	0.762	n/a	stim	poldrack-single-stim	s610	False	1
648.653	1.371	650.024	2.425716405756728	draw_card	1.371	columbia_card_task_fmri	2.0	0.9285714285714286	89.0	-25.0	0.0714285714285714	16.0	3.0	1.0	-24.71983383251713	1.371	n/a	stim	poldrack-single-stim	s610	False	1
650.028	1.516	651.544	2.2773647574050795	draw_card	1.516	columbia_card_task_fmri	2.0	0.9230769230769232	89.0	-25.0	0.0769230769230769	16.0	4.0	1.0	-24.491063974018783	1.516	n/a	stim	poldrack-single-stim	s610	False	1
651.546	0.585	652.131	2.104287834328157	draw_card	0.585	columbia_card_task_fmri	2.0	0.9166666666666666	89.0	-25.0	0.0833333333333333	16.0	5.0	1.0	-24.23616462243358	0.585	n/a	stim	poldrack-single-stim	s610	False	1
652.134	1.123	653.257	1.8997423797827016	draw_card	1.123	columbia_card_task_fmri	2.0	0.9090909090909092	89.0	-25.0	0.0909090909090909	16.0	6.0	1.0	-23.94999482516655	1.123	n/a	stim	poldrack-single-stim	s610	False	1
653.261	1.674	654.935	1.6542878343281566	draw_card	1.674	columbia_card_task_fmri	2.0	0.9	89.0	-25.0	0.1	16.0	7.0	1.0	-23.62593134829345	1.674	n/a	stim	poldrack-single-stim	s610	False	1
654.937	0.486	655.423	1.3542878343281566	draw_card	0.486	columbia_card_task_fmri	2.0	0.8888888888888888	89.0	-25.0	0.1111111111111111	16.0	8.0	1.0	-23.25530396700101	0.486	n/a	stim	poldrack-single-stim	s610	False	1
655.428	1.444	656.872	0.9792878343281566	draw_card	1.444	columbia_card_task_fmri	2.0	0.875	89.0	-25.0	0.125	16.0	9.0	1.0	-22.82657845163493	1.444	n/a	stim	poldrack-single-stim	s610	False	1
656.874	1.834	658.708	0.4971449771852998	draw_card	1.834	columbia_card_task_fmri	2.0	0.8571428571428572	89.0	-25.0	0.1428571428571428	16.0	10.0	1.0	-22.324196819113475	1.834	n/a	stim	poldrack-single-stim	s610	False	1
658.712	3.237	661.949	-0.1457121656718425	draw_card	3.237	columbia_card_task_fmri	2.0	0.8333333333333334	89.0	-25.0	0.1666666666666666	16.0	11.0	1.0	-21.72708166801295	3.237	n/a	stim	poldrack-single-stim	s610	False	1
661.951	2.303	664.254	-1.045712165671843	draw_card	2.303	columbia_card_task_fmri	2.0	0.8	89.0	-25.0	0.2	16.0	12.0	1.0	-21.00750856486896	2.303	n/a	stim	poldrack-single-stim	s610	False	1
664.257	1.614	665.871	-2.3957121656718434	end_round	1.614	columbia_card_task_fmri	2.0	0.75	71.0	-25.0	0.25	16.0	13.0	1.0	-20.1351064793584	1.614	12.0	stim	poldrack-single-stim	s610	False	1
666.625	1.5	665.874	n/a	-1.0	2.726	columbia_card_task_fmri	n/a	n/a	-1.0	n/a	n/a	n/a	n/a	n/a	n/a	n/a	n/a	ITI	poldrack-single-stim	s610	False	0
668.603	3.145	671.748	4.854287834328156	draw_card	3.145	columbia_card_task_fmri	9.0	0.9375	89.0	-95.0	0.0625	16.0	1.0	1.0	-6.776898022184732	3.145	n/a	stim	poldrack-single-stim	s610	False	1
671.751	1.037	672.788	4.420954500994824	draw_card	1.037	columbia_card_task_fmri	9.0	0.9333333333333332	89.0	-95.0	0.0666666666666666	16.0	2.0	1.0	-6.012369306618943	1.037	n/a	stim	poldrack-single-stim	s610	False	1
672.792	0.485	673.277	3.9257164057567286	draw_card	0.485	columbia_card_task_fmri	9.0	0.9285714285714286	89.0	-95.0	0.0714285714285714	16.0	3.0	1.0	-5.173770074347612	0.485	n/a	stim	poldrack-single-stim	s610	False	1
673.281	0.892	674.173	3.3542878343281566	draw_card	0.892	columbia_card_task_fmri	9.0	0.9230769230769232	89.0	-95.0	0.0769230769230769	16.0	4.0	1.0	-4.248500525993418	0.892	n/a	stim	poldrack-single-stim	s610	False	1
674.176	1.043	675.219	2.6876211676614905	draw_card	1.043	columbia_card_task_fmri	9.0	0.9166666666666666	89.0	-95.0	0.0833333333333333	16.0	5.0	1.0	-3.220801137157597	1.043	n/a	stim	poldrack-single-stim	s610	False	1
675.222	0.552	675.774	1.8997423797827016	draw_card	0.552	columbia_card_task_fmri	9.0	0.9090909090909092	89.0	-95.0	0.0909090909090909	16.0	6.0	1.0	-2.070687667913063	0.552	n/a	stim	poldrack-single-stim	s610	False	1
675.777	2.876	678.653	0.9542878343281562	draw_card	2.876	columbia_card_task_fmri	9.0	0.9	89.0	-95.0	0.1	16.0	7.0	1.0	-0.7724368482300186	2.876	n/a	stim	poldrack-single-stim	s610	False	1
678.656	2.047	680.703	-0.2012677212273987	draw_card	2.047	columbia_card_task_fmri	9.0	0.8888888888888888	89.0	-95.0	0.1111111111111111	16.0	8.0	1.0	0.7075931376586837	2.047	n/a	stim	poldrack-single-stim	s610	False	1
680.707	1.924	682.631	-1.6457121656718434	draw_card	1.924	columbia_card_task_fmri	9.0	0.875	89.0	-95.0	0.125	16.0	9.0	1.0	2.414111598725441	1.924	n/a	stim	poldrack-single-stim	s610	False	1
682.634	3.338	685.972	-3.5028550228146997	draw_card	3.338	columbia_card_task_fmri	9.0	0.8571428571428572	89.0	-95.0	0.1428571428571428	16.0	10.0	1.0	4.4073553555472245	3.338	n/a	stim	poldrack-single-stim	s610	False	1
685.976	3.439	689.415	-5.979045499005176	end_round	3.439	columbia_card_task_fmri	9.0	0.8333333333333334	71.0	-95.0	0.1666666666666666	16.0	11.0	1.0	6.768812782773914	3.439	10.0	stim	poldrack-single-stim	s610	False	1
690.171	1.5	689.42	n/a	-1.0	2.522	columbia_card_task_fmri	n/a	n/a	-1.0	n/a	n/a	n/a	n/a	n/a	n/a	n/a	n/a	ITI	poldrack-single-stim	s610	False	0
