onset	duration	SS_delay	block_duration	correct	correct_response	experiment_exp_id	key_press	passed_check	response_time	stop_response	stopped	trial_id	trial_type	worker_id	junk
3.018	0.85	0.25	2.65	1.0	71.0	motor_selective_stop_signal	71.0	True	0.565	89.0	False	stim	noncrit_nosignal	s610	False
5.674	0.85	0.25	2.25	1.0	89.0	motor_selective_stop_signal	89.0	True	0.449	89.0	False	stim	crit_stop_failure	s610	False
7.93	0.85	0.2	2.65	1.0	71.0	motor_selective_stop_signal	71.0	True	1.015	89.0	False	stim	noncrit_signal	s610	False
10.584	0.85	0.2	2.35	1.0	89.0	motor_selective_stop_signal	89.0	True	0.613	89.0	False	stim	crit_go	s610	False
12.936	0.85	0.2	2.25	1.0	89.0	motor_selective_stop_signal	89.0	True	0.528	89.0	False	stim	crit_go	s610	False
15.192	0.85	0.2	2.25	1.0	71.0	motor_selective_stop_signal	71.0	True	0.504	89.0	False	stim	noncrit_nosignal	s610	False
17.444	0.85	0.2	2.25	1.0	89.0	motor_selective_stop_signal	89.0	True	0.556	89.0	False	stim	crit_go	s610	False
19.7	0.85	0.2	2.35	1.0	89.0	motor_selective_stop_signal	89.0	True	0.555	89.0	False	stim	crit_go	s610	False
22.055	0.85	0.2	2.55	1.0	71.0	motor_selective_stop_signal	71.0	True	0.534	89.0	False	stim	noncrit_signal	s610	False
24.611	0.85	0.2	2.35	0.0	71.0	motor_selective_stop_signal	89.0	True	0.456	89.0	False	stim	noncrit_nosignal	s610	False
26.964	0.85	0.2	2.45	1.0	89.0	motor_selective_stop_signal	89.0	True	0.651	89.0	False	stim	crit_stop_failure	s610	False
29.419	0.85	0.15	2.45	1.0	71.0	motor_selective_stop_signal	71.0	True	0.518	89.0	False	stim	noncrit_nosignal	s610	False
31.871	0.85	0.15	2.35	1.0	89.0	motor_selective_stop_signal	89.0	True	0.979	89.0	False	stim	crit_stop_failure	s610	False
34.227	0.85	0.1	2.25	1.0	71.0	motor_selective_stop_signal	71.0	True	0.698	89.0	False	stim	noncrit_signal	s610	False
36.478	0.85	0.1	2.55	1.0	71.0	motor_selective_stop_signal	71.0	True	0.696	89.0	False	stim	noncrit_nosignal	s610	False
39.034	0.85	0.1	2.55	1.0	71.0	motor_selective_stop_signal	71.0	True	0.58	89.0	False	stim	noncrit_nosignal	s610	False
41.586	0.85	0.1	2.25	0.0	71.0	motor_selective_stop_signal	89.0	True	0.659	89.0	False	stim	noncrit_signal	s610	False
43.843	0.85	0.1	2.25	1.0	89.0	motor_selective_stop_signal	89.0	True	0.673	89.0	False	stim	crit_go	s610	False
46.1	0.85	0.1	2.45	0.0	89.0	motor_selective_stop_signal	71.0	True	0.797	89.0	False	stim	crit_stop_failure	s610	False
48.555	0.85	0.05	2.35	1.0	89.0	motor_selective_stop_signal	89.0	True	0.609	89.0	False	stim	crit_go	s610	False
50.906	0.85	0.05	2.25	0.0	89.0	motor_selective_stop_signal	71.0	True	0.807	89.0	False	stim	crit_go	s610	False
53.162	0.85	0.05	3.15	1.0	89.0	motor_selective_stop_signal	89.0	True	0.697	89.0	False	stim	crit_go	s610	False
56.318	0.85	0.05	2.65	1.0	71.0	motor_selective_stop_signal	71.0	True	0.617	89.0	False	stim	noncrit_nosignal	s610	False
58.97	0.85	0.05	2.25	1.0	71.0	motor_selective_stop_signal	71.0	True	1.02	89.0	False	stim	noncrit_signal	s610	False
61.226	0.85	0.05	2.45	0.0	89.0	motor_selective_stop_signal	71.0	True	0.498	89.0	False	stim	crit_stop_failure	s610	False
63.682	0.85	0.0	2.85	1.0	71.0	motor_selective_stop_signal	71.0	True	0.854	89.0	False	stim	noncrit_signal	s610	False
66.535	0.85	0.0	2.45	1.0	89.0	motor_selective_stop_signal	89.0	True	0.77	89.0	False	stim	crit_go	s610	False
68.991	0.85	0.0	2.25	1.0	71.0	motor_selective_stop_signal	71.0	True	0.675	89.0	False	stim	noncrit_nosignal	s610	False
71.243	0.85	0.0	2.25	1.0	89.0	motor_selective_stop_signal	89.0	True	0.637	89.0	False	stim	crit_go	s610	False
73.5	0.85	0.0	2.55	1.0	71.0	motor_selective_stop_signal	71.0	True	0.609	89.0	False	stim	noncrit_signal	s610	False
76.056	0.85	0.0	2.25	1.0	89.0	motor_selective_stop_signal	-1.0	True	n/a	89.0	True	stim	crit_stop_success	s610	False
78.313	0.85	0.05	2.35	1.0	89.0	motor_selective_stop_signal	89.0	True	0.516	89.0	False	stim	crit_go	s610	False
80.669	0.85	0.05	2.35	1.0	89.0	motor_selective_stop_signal	-1.0	True	n/a	89.0	True	stim	crit_stop_success	s610	False
83.025	0.85	0.1	2.25	1.0	71.0	motor_selective_stop_signal	71.0	True	0.493	89.0	False	stim	noncrit_nosignal	s610	False
85.281	0.85	0.1	2.35	1.0	71.0	motor_selective_stop_signal	71.0	True	0.617	89.0	False	stim	noncrit_signal	s610	False
87.635	0.85	0.1	2.25	1.0	71.0	motor_selective_stop_signal	71.0	True	0.451	89.0	False	stim	noncrit_nosignal	s610	False
89.891	0.85	0.1	2.45	1.0	89.0	motor_selective_stop_signal	89.0	True	0.618	89.0	False	stim	crit_go	s610	False
92.343	0.85	0.1	2.25	1.0	71.0	motor_selective_stop_signal	71.0	True	0.453	89.0	False	stim	noncrit_nosignal	s610	False
94.599	0.85	0.1	2.35	1.0	89.0	motor_selective_stop_signal	89.0	True	0.495	89.0	False	stim	crit_go	s610	False
96.953	0.85	0.1	2.45	0.0	71.0	motor_selective_stop_signal	89.0	True	0.715	89.0	False	stim	noncrit_signal	s610	False
99.408	0.85	0.1	2.25	1.0	89.0	motor_selective_stop_signal	-1.0	True	n/a	89.0	True	stim	crit_stop_success	s610	False
101.665	0.85	0.15	2.25	0.0	89.0	motor_selective_stop_signal	71.0	True	1.199	89.0	False	stim	crit_go	s610	False
103.918	0.85	0.15	2.85	1.0	89.0	motor_selective_stop_signal	89.0	True	1.068	89.0	False	stim	crit_go	s610	False
106.769	0.85	0.15	2.25	1.0	89.0	motor_selective_stop_signal	89.0	True	0.563	89.0	False	stim	crit_go	s610	False
109.02	0.85	0.15	3.45	1.0	89.0	motor_selective_stop_signal	89.0	True	0.899	89.0	False	stim	crit_go	s610	False
112.474	0.85	0.15	2.35	1.0	71.0	motor_selective_stop_signal	71.0	True	0.474	89.0	False	stim	noncrit_signal	s610	False
114.83	0.85	0.15	2.35	1.0	71.0	motor_selective_stop_signal	71.0	True	0.568	89.0	False	stim	noncrit_signal	s610	False
117.184	0.85	0.15	2.35	1.0	71.0	motor_selective_stop_signal	71.0	True	0.456	89.0	False	stim	noncrit_nosignal	s610	False
119.535	0.85	0.15	2.45	1.0	89.0	motor_selective_stop_signal	-1.0	True	n/a	89.0	True	stim	crit_stop_success	s610	False
121.99	0.85	0.2	2.55	1.0	71.0	motor_selective_stop_signal	71.0	True	0.355	89.0	False	stim	noncrit_signal	s610	False
135.064	0.85	0.2	2.35	1.0	71.0	motor_selective_stop_signal	71.0	True	0.506	89.0	False	stim	noncrit_nosignal	s610	False
137.42	0.85	0.2	2.25	0.0	89.0	motor_selective_stop_signal	71.0	True	0.362	89.0	False	stim	crit_stop_failure	s610	False
139.675	0.85	0.15	2.25	1.0	89.0	motor_selective_stop_signal	89.0	True	0.838	89.0	False	stim	crit_go	s610	False
141.931	0.85	0.15	3.05	1.0	71.0	motor_selective_stop_signal	71.0	True	0.551	89.0	False	stim	noncrit_nosignal	s610	False
144.988	0.85	0.15	2.45	1.0	71.0	motor_selective_stop_signal	71.0	True	0.468	89.0	False	stim	noncrit_nosignal	s610	False
147.44	0.85	0.15	2.35	1.0	89.0	motor_selective_stop_signal	89.0	True	0.577	89.0	False	stim	crit_go	s610	False
149.796	0.85	0.15	2.25	1.0	89.0	motor_selective_stop_signal	-1.0	True	n/a	89.0	True	stim	crit_stop_success	s610	False
152.052	0.85	0.2	3.25	1.0	89.0	motor_selective_stop_signal	-1.0	True	n/a	89.0	True	stim	crit_stop_success	s610	False
155.303	0.85	0.25	2.95	1.0	71.0	motor_selective_stop_signal	71.0	True	0.471	89.0	False	stim	noncrit_nosignal	s610	False
158.255	0.85	0.25	2.55	1.0	89.0	motor_selective_stop_signal	-1.0	True	n/a	89.0	True	stim	crit_stop_success	s610	False
160.809	0.85	0.3	2.35	1.0	89.0	motor_selective_stop_signal	89.0	True	0.469	89.0	False	stim	crit_go	s610	False
163.162	0.85	0.3	2.55	1.0	89.0	motor_selective_stop_signal	89.0	True	0.51	89.0	False	stim	crit_stop_failure	s610	False
165.718	0.85	0.25	2.35	1.0	89.0	motor_selective_stop_signal	89.0	True	0.565	89.0	False	stim	crit_go	s610	False
168.072	0.85	0.25	2.25	1.0	89.0	motor_selective_stop_signal	89.0	True	0.512	89.0	False	stim	crit_go	s610	False
170.328	0.85	0.25	2.45	1.0	71.0	motor_selective_stop_signal	71.0	True	0.515	89.0	False	stim	noncrit_signal	s610	False
172.784	0.85	0.25	2.35	1.0	71.0	motor_selective_stop_signal	71.0	True	0.437	89.0	False	stim	noncrit_nosignal	s610	False
175.139	0.85	0.25	2.65	1.0	71.0	motor_selective_stop_signal	71.0	True	0.449	89.0	False	stim	noncrit_signal	s610	False
177.795	0.85	0.25	2.25	1.0	89.0	motor_selective_stop_signal	89.0	True	0.753	89.0	False	stim	crit_go	s610	False
180.048	0.85	0.25	2.25	1.0	89.0	motor_selective_stop_signal	89.0	True	0.567	89.0	False	stim	crit_stop_failure	s610	False
182.304	0.85	0.2	2.45	1.0	89.0	motor_selective_stop_signal	89.0	True	0.506	89.0	False	stim	crit_go	s610	False
184.757	0.85	0.2	2.25	1.0	89.0	motor_selective_stop_signal	89.0	True	0.567	89.0	False	stim	crit_go	s610	False
187.01	0.85	0.2	2.55	1.0	89.0	motor_selective_stop_signal	-1.0	True	n/a	89.0	True	stim	crit_stop_success	s610	False
189.563	0.85	0.25	2.25	1.0	71.0	motor_selective_stop_signal	71.0	True	0.607	89.0	False	stim	noncrit_nosignal	s610	False
191.816	0.85	0.25	2.35	1.0	71.0	motor_selective_stop_signal	71.0	True	1.063	89.0	False	stim	noncrit_signal	s610	False
194.173	0.85	0.25	2.25	1.0	89.0	motor_selective_stop_signal	-1.0	True	n/a	89.0	True	stim	crit_stop_success	s610	False
196.428	0.85	0.3	2.55	1.0	89.0	motor_selective_stop_signal	89.0	True	0.457	89.0	False	stim	crit_stop_failure	s610	False
198.98	0.85	0.25	2.55	1.0	89.0	motor_selective_stop_signal	89.0	True	0.524	89.0	False	stim	crit_go	s610	False
201.534	0.85	0.25	2.35	1.0	71.0	motor_selective_stop_signal	71.0	True	0.561	89.0	False	stim	noncrit_nosignal	s610	False
203.886	0.85	0.25	2.35	1.0	71.0	motor_selective_stop_signal	71.0	True	0.658	89.0	False	stim	noncrit_nosignal	s610	False
206.237	0.85	0.25	2.25	1.0	89.0	motor_selective_stop_signal	89.0	True	0.613	89.0	False	stim	crit_go	s610	False
208.494	0.85	0.25	2.45	1.0	71.0	motor_selective_stop_signal	71.0	True	0.588	89.0	False	stim	noncrit_signal	s610	False
210.946	0.85	0.25	2.25	1.0	89.0	motor_selective_stop_signal	89.0	True	0.411	89.0	False	stim	crit_go	s610	False
213.2	0.85	0.25	2.45	1.0	71.0	motor_selective_stop_signal	71.0	True	0.336	89.0	False	stim	noncrit_signal	s610	False
215.653	0.85	0.25	2.65	1.0	89.0	motor_selective_stop_signal	89.0	True	0.538	89.0	False	stim	crit_stop_failure	s610	False
218.308	0.85	0.2	2.45	1.0	71.0	motor_selective_stop_signal	71.0	True	0.437	89.0	False	stim	noncrit_nosignal	s610	False
220.761	0.85	0.2	2.35	1.0	89.0	motor_selective_stop_signal	89.0	True	0.428	89.0	False	stim	crit_go	s610	False
223.117	0.85	0.2	2.25	1.0	71.0	motor_selective_stop_signal	71.0	True	0.737	89.0	False	stim	noncrit_signal	s610	False
225.373	0.85	0.2	2.55	1.0	71.0	motor_selective_stop_signal	71.0	True	0.484	89.0	False	stim	noncrit_nosignal	s610	False
227.929	0.85	0.2	2.25	0.0	89.0	motor_selective_stop_signal	71.0	True	0.35	89.0	False	stim	crit_go	s610	False
230.183	0.85	0.2	2.25	1.0	71.0	motor_selective_stop_signal	71.0	True	0.849	89.0	False	stim	noncrit_nosignal	s610	False
232.44	0.85	0.2	2.35	1.0	71.0	motor_selective_stop_signal	71.0	True	0.47	89.0	False	stim	noncrit_nosignal	s610	False
234.796	0.85	0.2	2.25	1.0	89.0	motor_selective_stop_signal	89.0	True	0.461	89.0	False	stim	crit_go	s610	False
237.047	0.85	0.2	2.65	1.0	71.0	motor_selective_stop_signal	71.0	True	0.638	89.0	False	stim	noncrit_signal	s610	False
239.704	0.85	0.2	2.35	1.0	71.0	motor_selective_stop_signal	71.0	True	0.594	89.0	False	stim	noncrit_signal	s610	False
242.061	0.85	0.2	2.45	1.0	89.0	motor_selective_stop_signal	89.0	True	0.502	89.0	False	stim	crit_go	s610	False
244.512	0.85	0.2	2.35	0.0	71.0	motor_selective_stop_signal	89.0	True	0.389	89.0	False	stim	noncrit_signal	s610	False
246.864	0.85	0.2	2.25	1.0	89.0	motor_selective_stop_signal	89.0	True	0.612	89.0	False	stim	crit_stop_failure	s610	False
249.12	0.85	0.15	2.25	1.0	71.0	motor_selective_stop_signal	71.0	True	0.79	89.0	False	stim	noncrit_nosignal	s610	False
251.375	0.85	0.15	2.25	1.0	89.0	motor_selective_stop_signal	89.0	True	0.785	89.0	False	stim	crit_stop_failure	s610	False
253.631	0.85	0.1	2.25	1.0	89.0	motor_selective_stop_signal	89.0	True	0.519	89.0	False	stim	crit_go	s610	False
266.401	0.85	0.1	2.35	1.0	89.0	motor_selective_stop_signal	-1.0	True	n/a	89.0	True	stim	crit_stop_success	s610	False
268.757	0.85	0.15	3.35	1.0	89.0	motor_selective_stop_signal	89.0	True	0.477	89.0	False	stim	crit_go	s610	False
272.111	0.85	0.15	2.55	1.0	89.0	motor_selective_stop_signal	89.0	True	0.402	89.0	False	stim	crit_go	s610	False
274.664	0.85	0.15	2.75	1.0	89.0	motor_selective_stop_signal	89.0	True	0.625	89.0	False	stim	crit_stop_failure	s610	False
277.418	0.85	0.1	2.75	1.0	71.0	motor_selective_stop_signal	71.0	True	0.543	89.0	False	stim	noncrit_nosignal	s610	False
280.174	0.85	0.1	2.65	1.0	71.0	motor_selective_stop_signal	71.0	True	0.464	89.0	False	stim	noncrit_nosignal	s610	False
282.829	0.85	0.1	2.45	1.0	89.0	motor_selective_stop_signal	-1.0	True	n/a	89.0	True	stim	crit_stop_success	s610	False
285.281	0.85	0.15	2.25	0.0	89.0	motor_selective_stop_signal	71.0	True	0.393	89.0	False	stim	crit_go	s610	False
287.535	0.85	0.15	2.35	1.0	89.0	motor_selective_stop_signal	89.0	True	0.78	89.0	False	stim	crit_go	s610	False
289.891	0.85	0.15	2.45	1.0	89.0	motor_selective_stop_signal	89.0	True	0.527	89.0	False	stim	crit_go	s610	False
292.347	0.85	0.15	3.05	1.0	89.0	motor_selective_stop_signal	89.0	True	0.397	89.0	False	stim	crit_go	s610	False
295.403	0.85	0.15	2.35	1.0	71.0	motor_selective_stop_signal	71.0	True	0.492	89.0	False	stim	noncrit_nosignal	s610	False
297.759	0.85	0.15	2.25	1.0	71.0	motor_selective_stop_signal	71.0	True	0.661	89.0	False	stim	noncrit_signal	s610	False
300.012	0.85	0.15	2.35	1.0	71.0	motor_selective_stop_signal	71.0	True	0.639	89.0	False	stim	noncrit_nosignal	s610	False
302.368	0.85	0.15	2.35	1.0	71.0	motor_selective_stop_signal	71.0	True	0.503	89.0	False	stim	noncrit_nosignal	s610	False
304.719	0.85	0.15	2.35	1.0	71.0	motor_selective_stop_signal	71.0	True	0.602	89.0	False	stim	noncrit_nosignal	s610	False
307.074	0.85	0.15	2.35	1.0	71.0	motor_selective_stop_signal	71.0	True	0.777	89.0	False	stim	noncrit_signal	s610	False
309.429	0.85	0.15	2.35	1.0	89.0	motor_selective_stop_signal	89.0	True	1.029	89.0	False	stim	crit_go	s610	False
311.784	0.85	0.15	2.25	1.0	71.0	motor_selective_stop_signal	71.0	True	0.621	89.0	False	stim	noncrit_nosignal	s610	False
314.041	0.85	0.15	2.35	1.0	89.0	motor_selective_stop_signal	89.0	True	0.693	89.0	False	stim	crit_stop_failure	s610	False
316.394	0.85	0.1	2.45	1.0	89.0	motor_selective_stop_signal	89.0	True	0.527	89.0	False	stim	crit_go	s610	False
318.85	0.85	0.1	2.35	1.0	71.0	motor_selective_stop_signal	71.0	True	0.556	89.0	False	stim	noncrit_nosignal	s610	False
321.206	0.85	0.1	2.85	1.0	89.0	motor_selective_stop_signal	89.0	True	0.545	89.0	False	stim	crit_go	s610	False
324.058	0.85	0.1	2.55	1.0	71.0	motor_selective_stop_signal	71.0	True	0.418	89.0	False	stim	noncrit_nosignal	s610	False
326.611	0.85	0.1	2.75	1.0	89.0	motor_selective_stop_signal	89.0	True	0.541	89.0	False	stim	crit_go	s610	False
329.367	0.85	0.1	2.25	1.0	71.0	motor_selective_stop_signal	71.0	True	0.652	89.0	False	stim	noncrit_signal	s610	False
331.618	0.85	0.1	2.25	1.0	71.0	motor_selective_stop_signal	71.0	True	0.551	89.0	False	stim	noncrit_nosignal	s610	False
333.87	0.85	0.1	2.85	1.0	89.0	motor_selective_stop_signal	-1.0	True	n/a	89.0	True	stim	crit_stop_success	s610	False
336.724	0.85	0.15	2.35	1.0	71.0	motor_selective_stop_signal	71.0	True	0.611	89.0	False	stim	noncrit_nosignal	s610	False
339.081	0.85	0.15	2.25	1.0	71.0	motor_selective_stop_signal	71.0	True	0.469	89.0	False	stim	noncrit_nosignal	s610	False
341.337	0.85	0.15	2.25	1.0	89.0	motor_selective_stop_signal	-1.0	True	n/a	89.0	True	stim	crit_stop_success	s610	False
343.592	0.85	0.2	2.25	1.0	89.0	motor_selective_stop_signal	89.0	True	0.411	89.0	False	stim	crit_go	s610	False
345.845	0.85	0.2	2.35	1.0	71.0	motor_selective_stop_signal	71.0	True	0.54	89.0	False	stim	noncrit_nosignal	s610	False
348.201	0.85	0.2	2.65	1.0	89.0	motor_selective_stop_signal	89.0	True	0.394	89.0	False	stim	crit_go	s610	False
350.853	0.85	0.2	2.75	1.0	89.0	motor_selective_stop_signal	89.0	True	0.413	89.0	False	stim	crit_stop_failure	s610	False
353.61	0.85	0.15	2.25	1.0	71.0	motor_selective_stop_signal	71.0	True	0.56	89.0	False	stim	noncrit_nosignal	s610	False
355.861	0.85	0.15	2.75	1.0	89.0	motor_selective_stop_signal	-1.0	True	n/a	89.0	True	stim	crit_stop_success	s610	False
358.617	0.85	0.2	2.25	1.0	71.0	motor_selective_stop_signal	71.0	True	0.512	89.0	False	stim	noncrit_signal	s610	False
360.873	0.85	0.2	2.35	1.0	71.0	motor_selective_stop_signal	71.0	True	0.343	89.0	False	stim	noncrit_nosignal	s610	False
363.229	0.85	0.2	2.35	1.0	71.0	motor_selective_stop_signal	71.0	True	0.58	89.0	False	stim	noncrit_nosignal	s610	False
365.581	0.85	0.2	2.55	1.0	71.0	motor_selective_stop_signal	71.0	True	0.541	89.0	False	stim	noncrit_nosignal	s610	False
368.133	0.85	0.2	2.25	1.0	89.0	motor_selective_stop_signal	89.0	True	0.551	89.0	False	stim	crit_go	s610	False
370.387	0.85	0.2	2.25	1.0	71.0	motor_selective_stop_signal	71.0	True	0.613	89.0	False	stim	noncrit_signal	s610	False
372.64	0.85	0.2	2.25	1.0	71.0	motor_selective_stop_signal	71.0	True	0.494	89.0	False	stim	noncrit_nosignal	s610	False
374.893	0.85	0.2	2.35	1.0	71.0	motor_selective_stop_signal	71.0	True	0.388	89.0	False	stim	noncrit_nosignal	s610	False
377.249	0.85	0.2	2.65	1.0	89.0	motor_selective_stop_signal	-1.0	True	n/a	89.0	True	stim	crit_stop_success	s610	False
379.905	0.85	0.25	2.35	0.0	71.0	motor_selective_stop_signal	89.0	True	0.377	89.0	False	stim	noncrit_nosignal	s610	False
382.261	0.85	0.25	2.25	1.0	71.0	motor_selective_stop_signal	71.0	True	0.734	89.0	False	stim	noncrit_signal	s610	False
384.517	0.85	0.25	2.35	1.0	71.0	motor_selective_stop_signal	71.0	True	0.553	89.0	False	stim	noncrit_nosignal	s610	False
386.871	0.85	0.25	2.35	1.0	89.0	motor_selective_stop_signal	-1.0	True	n/a	89.0	True	stim	crit_stop_success	s610	False
399.743	0.85	0.3	2.85	1.0	89.0	motor_selective_stop_signal	89.0	True	0.482	89.0	False	stim	crit_go	s610	False
402.599	0.85	0.3	2.45	1.0	89.0	motor_selective_stop_signal	89.0	True	0.588	89.0	False	stim	crit_go	s610	False
405.054	0.85	0.3	2.35	0.0	89.0	motor_selective_stop_signal	71.0	True	0.535	89.0	False	stim	crit_go	s610	False
407.405	0.85	0.3	2.65	1.0	89.0	motor_selective_stop_signal	89.0	True	0.474	89.0	False	stim	crit_go	s610	False
410.059	0.85	0.3	2.25	1.0	71.0	motor_selective_stop_signal	71.0	True	0.703	89.0	False	stim	noncrit_nosignal	s610	False
412.311	0.85	0.3	2.25	1.0	71.0	motor_selective_stop_signal	71.0	True	0.623	89.0	False	stim	noncrit_signal	s610	False
414.567	0.85	0.3	2.25	1.0	71.0	motor_selective_stop_signal	71.0	True	0.561	89.0	False	stim	noncrit_nosignal	s610	False
416.819	0.85	0.3	2.45	1.0	89.0	motor_selective_stop_signal	89.0	True	0.652	89.0	False	stim	crit_go	s610	False
419.274	0.85	0.3	2.35	1.0	89.0	motor_selective_stop_signal	89.0	True	0.686	89.0	False	stim	crit_go	s610	False
421.63	0.85	0.3	2.25	1.0	89.0	motor_selective_stop_signal	89.0	True	0.448	89.0	False	stim	crit_stop_failure	s610	False
423.887	0.85	0.25	2.35	1.0	89.0	motor_selective_stop_signal	-1.0	True	n/a	89.0	True	stim	crit_stop_success	s610	False
426.243	0.85	0.3	2.45	1.0	71.0	motor_selective_stop_signal	71.0	True	0.544	89.0	False	stim	noncrit_signal	s610	False
428.699	0.85	0.3	2.35	0.0	89.0	motor_selective_stop_signal	71.0	True	0.407	89.0	False	stim	crit_go	s610	False
431.055	0.85	0.3	2.25	0.0	89.0	motor_selective_stop_signal	71.0	True	0.86	89.0	False	stim	crit_go	s610	False
433.311	0.85	0.3	2.25	1.0	89.0	motor_selective_stop_signal	89.0	True	0.607	89.0	False	stim	crit_go	s610	False
435.564	0.85	0.3	2.35	1.0	71.0	motor_selective_stop_signal	71.0	True	0.764	89.0	False	stim	noncrit_signal	s610	False
437.92	0.85	0.3	2.35	1.0	89.0	motor_selective_stop_signal	89.0	True	0.519	89.0	False	stim	crit_stop_failure	s610	False
440.271	0.85	0.25	2.35	1.0	71.0	motor_selective_stop_signal	71.0	True	0.54	89.0	False	stim	noncrit_nosignal	s610	False
442.627	0.85	0.25	2.95	1.0	89.0	motor_selective_stop_signal	89.0	True	0.529	89.0	False	stim	crit_go	s610	False
445.58	0.85	0.25	2.25	1.0	89.0	motor_selective_stop_signal	89.0	True	0.609	89.0	False	stim	crit_go	s610	False
447.834	0.85	0.25	2.35	1.0	71.0	motor_selective_stop_signal	71.0	True	0.564	89.0	False	stim	noncrit_nosignal	s610	False
450.19	0.85	0.25	2.25	1.0	89.0	motor_selective_stop_signal	89.0	True	0.492	89.0	False	stim	crit_go	s610	False
452.447	0.85	0.25	2.45	1.0	71.0	motor_selective_stop_signal	71.0	True	0.398	89.0	False	stim	noncrit_signal	s610	False
454.903	0.85	0.25	2.35	1.0	71.0	motor_selective_stop_signal	71.0	True	0.643	89.0	False	stim	noncrit_signal	s610	False
457.259	0.85	0.25	2.55	1.0	71.0	motor_selective_stop_signal	71.0	True	0.409	89.0	False	stim	noncrit_signal	s610	False
459.815	0.85	0.25	2.55	1.0	89.0	motor_selective_stop_signal	89.0	True	0.507	89.0	False	stim	crit_go	s610	False
462.371	0.85	0.25	2.25	1.0	71.0	motor_selective_stop_signal	71.0	True	0.458	89.0	False	stim	noncrit_nosignal	s610	False
464.627	0.85	0.25	2.25	1.0	71.0	motor_selective_stop_signal	71.0	True	0.522	89.0	False	stim	noncrit_nosignal	s610	False
466.883	0.85	0.25	2.75	1.0	89.0	motor_selective_stop_signal	89.0	True	0.712	89.0	False	stim	crit_stop_failure	s610	False
469.64	0.85	0.2	2.35	0.0	89.0	motor_selective_stop_signal	71.0	True	0.384	89.0	False	stim	crit_stop_failure	s610	False
471.996	0.85	0.15	2.25	1.0	89.0	motor_selective_stop_signal	89.0	True	0.493	89.0	False	stim	crit_stop_failure	s610	False
474.251	0.85	0.1	2.45	1.0	89.0	motor_selective_stop_signal	89.0	True	0.556	89.0	False	stim	crit_go	s610	False
476.707	0.85	0.1	2.25	1.0	89.0	motor_selective_stop_signal	89.0	True	0.669	89.0	False	stim	crit_go	s610	False
478.96	0.85	0.1	2.35	1.0	71.0	motor_selective_stop_signal	71.0	True	0.58	89.0	False	stim	noncrit_nosignal	s610	False
481.317	0.85	0.1	2.25	1.0	71.0	motor_selective_stop_signal	71.0	True	0.708	89.0	False	stim	noncrit_nosignal	s610	False
483.573	0.85	0.1	2.25	1.0	89.0	motor_selective_stop_signal	-1.0	True	n/a	89.0	True	stim	crit_stop_success	s610	False
485.829	0.85	0.15	2.25	1.0	89.0	motor_selective_stop_signal	89.0	True	0.425	89.0	False	stim	crit_stop_failure	s610	False
488.083	0.85	0.1	2.25	1.0	71.0	motor_selective_stop_signal	71.0	True	0.511	89.0	False	stim	noncrit_nosignal	s610	False
490.335	0.85	0.1	2.25	1.0	89.0	motor_selective_stop_signal	89.0	True	0.731	89.0	False	stim	crit_go	s610	False
492.591	0.85	0.1	2.35	1.0	71.0	motor_selective_stop_signal	71.0	True	0.705	89.0	False	stim	noncrit_signal	s610	False
494.947	0.85	0.1	2.55	1.0	89.0	motor_selective_stop_signal	89.0	True	0.476	89.0	False	stim	crit_stop_failure	s610	False
497.504	0.85	0.05	2.95	1.0	71.0	motor_selective_stop_signal	71.0	True	0.481	89.0	False	stim	noncrit_nosignal	s610	False
500.457	0.85	0.05	2.25	1.0	89.0	motor_selective_stop_signal	-1.0	True	n/a	89.0	True	stim	crit_stop_success	s610	False
502.71	0.85	0.1	2.35	1.0	89.0	motor_selective_stop_signal	89.0	True	0.425	89.0	False	stim	crit_go	s610	False
505.062	0.85	0.1	2.55	1.0	71.0	motor_selective_stop_signal	71.0	True	0.569	89.0	False	stim	noncrit_nosignal	s610	False
507.618	0.85	0.1	2.25	1.0	71.0	motor_selective_stop_signal	71.0	True	0.453	89.0	False	stim	noncrit_signal	s610	False
509.873	0.85	0.1	2.35	1.0	71.0	motor_selective_stop_signal	71.0	True	0.654	89.0	False	stim	noncrit_signal	s610	False
512.227	0.85	0.1	2.55	1.0	71.0	motor_selective_stop_signal	71.0	True	0.431	89.0	False	stim	noncrit_signal	s610	False
514.781	0.85	0.1	2.45	1.0	71.0	motor_selective_stop_signal	71.0	True	0.439	89.0	False	stim	noncrit_signal	s610	False
517.237	0.85	0.1	2.35	1.0	89.0	motor_selective_stop_signal	89.0	True	0.51	89.0	False	stim	crit_go	s610	False
530.108	0.85	0.1	2.65	1.0	71.0	motor_selective_stop_signal	71.0	True	0.583	89.0	False	stim	noncrit_nosignal	s610	False
532.764	0.85	0.1	2.55	1.0	71.0	motor_selective_stop_signal	71.0	True	0.507	89.0	False	stim	noncrit_nosignal	s610	False
535.315	0.85	0.1	2.75	1.0	89.0	motor_selective_stop_signal	89.0	True	0.664	89.0	False	stim	crit_stop_failure	s610	False
538.067	0.85	0.05	2.55	1.0	89.0	motor_selective_stop_signal	89.0	True	0.512	89.0	False	stim	crit_stop_failure	s610	False
540.623	0.85	0.0	2.45	1.0	71.0	motor_selective_stop_signal	71.0	True	0.67	89.0	False	stim	noncrit_signal	s610	False
543.079	0.85	0.0	2.75	1.0	89.0	motor_selective_stop_signal	89.0	True	0.687	89.0	False	stim	crit_go	s610	False
545.832	0.85	0.0	2.55	1.0	71.0	motor_selective_stop_signal	71.0	True	0.634	89.0	False	stim	noncrit_nosignal	s610	False
548.389	0.85	0.0	2.35	1.0	89.0	motor_selective_stop_signal	-1.0	True	n/a	89.0	True	stim	crit_stop_success	s610	False
550.745	0.85	0.05	2.25	1.0	71.0	motor_selective_stop_signal	71.0	True	0.557	89.0	False	stim	noncrit_nosignal	s610	False
553.001	0.85	0.05	2.65	1.0	71.0	motor_selective_stop_signal	71.0	True	0.564	89.0	False	stim	noncrit_nosignal	s610	False
555.657	0.85	0.05	2.25	1.0	89.0	motor_selective_stop_signal	-1.0	True	n/a	89.0	True	stim	crit_stop_success	s610	False
557.913	0.85	0.1	2.35	1.0	71.0	motor_selective_stop_signal	71.0	True	0.442	89.0	False	stim	noncrit_nosignal	s610	False
560.265	0.85	0.1	2.25	1.0	71.0	motor_selective_stop_signal	71.0	True	0.522	89.0	False	stim	noncrit_nosignal	s610	False
562.519	0.85	0.1	2.35	1.0	89.0	motor_selective_stop_signal	89.0	True	0.652	89.0	False	stim	crit_go	s610	False
564.87	0.85	0.1	2.35	1.0	89.0	motor_selective_stop_signal	89.0	True	0.579	89.0	False	stim	crit_go	s610	False
567.226	0.85	0.1	2.25	1.0	71.0	motor_selective_stop_signal	71.0	True	0.632	89.0	False	stim	noncrit_nosignal	s610	False
569.479	0.85	0.1	2.85	1.0	71.0	motor_selective_stop_signal	71.0	True	0.931	89.0	False	stim	noncrit_signal	s610	False
572.335	0.85	0.1	2.35	1.0	71.0	motor_selective_stop_signal	71.0	True	0.412	89.0	False	stim	noncrit_nosignal	s610	False
574.69	0.85	0.1	2.25	1.0	89.0	motor_selective_stop_signal	89.0	True	0.74	89.0	False	stim	crit_go	s610	False
576.945	0.85	0.1	2.35	1.0	71.0	motor_selective_stop_signal	71.0	True	0.677	89.0	False	stim	noncrit_nosignal	s610	False
579.3	0.85	0.1	2.45	1.0	89.0	motor_selective_stop_signal	89.0	True	0.52	89.0	False	stim	crit_go	s610	False
581.754	0.85	0.1	2.25	1.0	89.0	motor_selective_stop_signal	89.0	True	0.656	89.0	False	stim	crit_stop_failure	s610	False
584.008	0.85	0.05	2.25	1.0	71.0	motor_selective_stop_signal	71.0	True	0.65	89.0	False	stim	noncrit_signal	s610	False
586.263	0.85	0.05	2.75	1.0	89.0	motor_selective_stop_signal	89.0	True	0.466	89.0	False	stim	crit_go	s610	False
589.02	0.85	0.05	2.35	1.0	71.0	motor_selective_stop_signal	71.0	True	0.601	89.0	False	stim	noncrit_signal	s610	False
591.372	0.85	0.05	2.75	1.0	71.0	motor_selective_stop_signal	71.0	True	0.726	89.0	False	stim	noncrit_nosignal	s610	False
594.126	0.85	0.05	2.45	1.0	89.0	motor_selective_stop_signal	89.0	True	0.639	89.0	False	stim	crit_go	s610	False
596.58	0.85	0.05	2.25	1.0	71.0	motor_selective_stop_signal	71.0	True	0.541	89.0	False	stim	noncrit_nosignal	s610	False
598.836	0.85	0.05	2.35	1.0	89.0	motor_selective_stop_signal	-1.0	True	n/a	89.0	True	stim	crit_stop_success	s610	False
601.188	0.85	0.1	2.65	1.0	89.0	motor_selective_stop_signal	89.0	True	0.539	89.0	False	stim	crit_go	s610	False
603.844	0.85	0.1	2.45	1.0	89.0	motor_selective_stop_signal	-1.0	True	n/a	89.0	True	stim	crit_stop_success	s610	False
606.298	0.85	0.15	2.25	1.0	71.0	motor_selective_stop_signal	71.0	True	0.607	89.0	False	stim	noncrit_nosignal	s610	False
608.553	0.85	0.15	2.35	1.0	71.0	motor_selective_stop_signal	71.0	True	0.754	89.0	False	stim	noncrit_signal	s610	False
610.904	0.85	0.15	2.95	1.0	71.0	motor_selective_stop_signal	71.0	True	0.527	89.0	False	stim	noncrit_signal	s610	False
613.858	0.85	0.15	2.25	1.0	71.0	motor_selective_stop_signal	71.0	True	0.47	89.0	False	stim	noncrit_nosignal	s610	False
616.114	0.85	0.15	2.95	1.0	71.0	motor_selective_stop_signal	71.0	True	0.437	89.0	False	stim	noncrit_nosignal	s610	False
619.065	0.85	0.15	2.45	1.0	71.0	motor_selective_stop_signal	71.0	True	0.362	89.0	False	stim	noncrit_signal	s610	False
621.519	0.85	0.15	2.25	1.0	89.0	motor_selective_stop_signal	89.0	True	0.467	89.0	False	stim	crit_stop_failure	s610	False
623.772	0.85	0.1	2.35	1.0	71.0	motor_selective_stop_signal	71.0	True	0.63	89.0	False	stim	noncrit_nosignal	s610	False
626.125	0.85	0.1	2.45	1.0	89.0	motor_selective_stop_signal	89.0	True	0.687	89.0	False	stim	crit_go	s610	False
628.581	0.85	0.1	2.25	1.0	89.0	motor_selective_stop_signal	-1.0	True	n/a	89.0	True	stim	crit_stop_success	s610	False
630.833	0.85	0.15	2.45	1.0	71.0	motor_selective_stop_signal	71.0	True	0.809	89.0	False	stim	noncrit_signal	s610	False
633.285	0.85	0.15	2.75	1.0	89.0	motor_selective_stop_signal	89.0	True	0.515	89.0	False	stim	crit_go	s610	False
636.04	0.85	0.15	2.25	1.0	71.0	motor_selective_stop_signal	71.0	True	0.563	89.0	False	stim	noncrit_signal	s610	False
638.293	0.85	0.15	2.35	1.0	89.0	motor_selective_stop_signal	89.0	True	0.659	89.0	False	stim	crit_go	s610	False
640.649	0.85	0.15	2.45	1.0	71.0	motor_selective_stop_signal	71.0	True	0.665	89.0	False	stim	noncrit_signal	s610	False
643.106	0.85	0.15	2.35	1.0	71.0	motor_selective_stop_signal	71.0	True	0.522	89.0	False	stim	noncrit_nosignal	s610	False
645.46	0.85	0.15	2.25	1.0	71.0	motor_selective_stop_signal	71.0	True	0.52	89.0	False	stim	noncrit_signal	s610	False
647.716	0.85	0.15	2.55	1.0	71.0	motor_selective_stop_signal	71.0	True	0.43	89.0	False	stim	noncrit_nosignal	s610	False
650.267	0.85	0.15	2.45	1.0	71.0	motor_selective_stop_signal	71.0	True	0.335	89.0	False	stim	noncrit_nosignal	s610	False
