duration	onset	block_duration	movement_onset	planning	condition	exp_stage	experiment_exp_id	key_press	problem_id	response_time	trial_id	trial_type	worker_id	junk
6.008	3.013	6.008	9.021	1	UA_with_intermediate	practice	ward_and_allport	71	0.0	6.008	to_hand	poldrack-single-stim	s612	False
0.1	9.024	1.235	10.259	0	UA_with_intermediate	practice	ward_and_allport	82	0.0	1.235	to_board	poldrack-single-stim	s612	False
0.1	10.262	1.488	11.75	0	UA_with_intermediate	practice	ward_and_allport	71	0.0	1.488	to_hand	poldrack-single-stim	s612	False
0.1	11.752	0.59	12.342	0	UA_with_intermediate	practice	ward_and_allport	89	0.0	0.59	to_board	poldrack-single-stim	s612	False
0.1	12.343	3.608	15.951	0	UA_with_intermediate	practice	ward_and_allport	82	0.0	3.608	to_hand	poldrack-single-stim	s612	False
0.1	15.952	1.469	17.421	0	UA_with_intermediate	practice	ward_and_allport	89	0.0	1.469	to_board	poldrack-single-stim	s612	False
1.0	17.426	2.5	17.425	0	UA_with_intermediate	practice	ward_and_allport	-1	0.0	n/a	feedback	poldrack-single-stim	s612	False
6.89	19.928	6.89	26.818	1	UA_with_intermediate	practice	ward_and_allport	89	1.0	6.89	to_hand	poldrack-single-stim	s612	False
0.1	26.819	1.849	28.668	0	UA_with_intermediate	practice	ward_and_allport	82	1.0	1.849	to_board	poldrack-single-stim	s612	False
0.1	28.67	2.021	30.691	0	UA_with_intermediate	practice	ward_and_allport	71	1.0	2.021	to_hand	poldrack-single-stim	s612	False
0.1	30.692	0.83	31.522	0	UA_with_intermediate	practice	ward_and_allport	89	1.0	0.83	to_board	poldrack-single-stim	s612	False
0.1	31.524	1.452	32.976	0	UA_with_intermediate	practice	ward_and_allport	82	1.0	1.452	to_hand	poldrack-single-stim	s612	False
0.1	32.978	0.608	33.586	0	UA_with_intermediate	practice	ward_and_allport	89	1.0	0.608	to_board	poldrack-single-stim	s612	False
1.0	33.59	2.1	33.589	0	UA_with_intermediate	practice	ward_and_allport	-1	1.0	n/a	feedback	poldrack-single-stim	s612	False
5.685	35.691	5.685	41.376	1	UA_without_intermediate	practice	ward_and_allport	82	2.0	5.685	to_hand	poldrack-single-stim	s612	False
0.1	41.377	0.802	42.179	0	UA_without_intermediate	practice	ward_and_allport	89	2.0	0.802	to_board	poldrack-single-stim	s612	False
0.1	42.181	2.164	44.345	0	UA_without_intermediate	practice	ward_and_allport	71	2.0	2.164	to_hand	poldrack-single-stim	s612	False
0.1	44.346	1.011	45.357	0	UA_without_intermediate	practice	ward_and_allport	89	2.0	1.011	to_board	poldrack-single-stim	s612	False
0.1	45.36	0.826	46.186	0	UA_without_intermediate	practice	ward_and_allport	71	2.0	0.826	to_hand	poldrack-single-stim	s612	False
0.1	46.188	0.517	46.705	0	UA_without_intermediate	practice	ward_and_allport	89	2.0	0.517	to_board	poldrack-single-stim	s612	False
1.0	46.707	2.2	46.706	0	UA_without_intermediate	practice	ward_and_allport	-1	2.0	n/a	feedback	poldrack-single-stim	s612	False
4.452	48.909	4.452	53.361	1	UA_without_intermediate	practice	ward_and_allport	71	3.0	4.452	to_hand	poldrack-single-stim	s612	False
0.1	53.363	0.653	54.016	0	UA_without_intermediate	practice	ward_and_allport	89	3.0	0.653	to_board	poldrack-single-stim	s612	False
0.1	54.018	1.374	55.392	0	UA_without_intermediate	practice	ward_and_allport	82	3.0	1.374	to_hand	poldrack-single-stim	s612	False
0.1	55.393	1.06	56.453	0	UA_without_intermediate	practice	ward_and_allport	89	3.0	1.06	to_board	poldrack-single-stim	s612	False
0.1	56.456	2.241	58.697	0	UA_without_intermediate	practice	ward_and_allport	71	3.0	2.241	to_hand	poldrack-single-stim	s612	False
0.1	58.699	0.747	59.446	0	UA_without_intermediate	practice	ward_and_allport	89	3.0	0.747	to_board	poldrack-single-stim	s612	False
1.0	59.452	2.0	59.451	0	UA_without_intermediate	practice	ward_and_allport	-1	3.0	n/a	feedback	poldrack-single-stim	s612	False
6.571	63.456	6.571	70.027	1	PA_with_intermediate	test	ward_and_allport	71	0.0	6.571	to_hand	poldrack-single-stim	s612	False
0.1	70.029	0.548	70.577	0	PA_with_intermediate	test	ward_and_allport	89	0.0	0.548	to_board	poldrack-single-stim	s612	False
0.1	70.58	7.638	78.218	0	PA_with_intermediate	test	ward_and_allport	89	0.0	7.638	to_hand	poldrack-single-stim	s612	False
0.1	78.219	1.01	79.229	0	PA_with_intermediate	test	ward_and_allport	82	0.0	1.01	to_board	poldrack-single-stim	s612	False
0.1	79.231	1.064	80.295	0	PA_with_intermediate	test	ward_and_allport	71	0.0	1.064	to_hand	poldrack-single-stim	s612	False
0.1	80.296	0.58	80.876	0	PA_with_intermediate	test	ward_and_allport	89	0.0	0.58	to_board	poldrack-single-stim	s612	False
0.1	80.879	3.019	83.898	0	PA_with_intermediate	test	ward_and_allport	82	0.0	3.019	to_hand	poldrack-single-stim	s612	False
0.1	83.899	0.584	84.483	0	PA_with_intermediate	test	ward_and_allport	89	0.0	0.584	to_board	poldrack-single-stim	s612	False
1.0	84.487	4.176	84.486	0	PA_with_intermediate	test	ward_and_allport	-1	0.0	n/a	feedback	poldrack-single-stim	s612	False
7.465	88.664	7.465	96.129	1	PA_with_intermediate	test	ward_and_allport	82	1.0	7.465	to_hand	poldrack-single-stim	s612	False
0.1	96.13	0.683	96.813	0	PA_with_intermediate	test	ward_and_allport	89	1.0	0.683	to_board	poldrack-single-stim	s612	False
0.1	96.816	3.646	100.462	0	PA_with_intermediate	test	ward_and_allport	82	1.0	3.646	to_hand	poldrack-single-stim	s612	False
0.1	100.463	0.709	101.172	0	PA_with_intermediate	test	ward_and_allport	71	1.0	0.709	to_board	poldrack-single-stim	s612	False
0.1	101.175	3.164	104.339	0	PA_with_intermediate	test	ward_and_allport	89	1.0	3.164	to_hand	poldrack-single-stim	s612	False
0.1	104.34	0.979	105.319	0	PA_with_intermediate	test	ward_and_allport	71	1.0	0.979	to_board	poldrack-single-stim	s612	False
1.0	105.323	3.36	105.322	0	PA_with_intermediate	test	ward_and_allport	-1	1.0	n/a	feedback	poldrack-single-stim	s612	False
7.948	108.686	7.948	116.634	1	PA_with_intermediate	test	ward_and_allport	71	2.0	7.948	to_hand	poldrack-single-stim	s612	False
0.1	116.636	0.621	117.257	0	PA_with_intermediate	test	ward_and_allport	89	2.0	0.621	to_board	poldrack-single-stim	s612	False
0.1	117.26	1.818	119.078	0	PA_with_intermediate	test	ward_and_allport	71	2.0	1.818	to_hand	poldrack-single-stim	s612	False
0.1	119.08	1.035	120.115	0	PA_with_intermediate	test	ward_and_allport	82	2.0	1.035	to_board	poldrack-single-stim	s612	False
0.1	120.118	1.726	121.844	0	PA_with_intermediate	test	ward_and_allport	89	2.0	1.726	to_hand	poldrack-single-stim	s612	False
0.1	121.846	1.435	123.281	0	PA_with_intermediate	test	ward_and_allport	71	2.0	1.435	to_board	poldrack-single-stim	s612	False
1.0	123.288	2.0	123.287	0	PA_with_intermediate	test	ward_and_allport	-1	2.0	n/a	feedback	poldrack-single-stim	s612	False
5.814	125.291	5.814	131.105	1	PA_without_intermediate	test	ward_and_allport	89	3.0	5.814	to_hand	poldrack-single-stim	s612	False
0.1	131.107	1.239	132.346	0	PA_without_intermediate	test	ward_and_allport	71	3.0	1.239	to_board	poldrack-single-stim	s612	False
0.1	132.348	4.069	136.417	0	PA_without_intermediate	test	ward_and_allport	89	3.0	4.069	to_hand	poldrack-single-stim	s612	False
0.1	136.419	1.172	137.591	0	PA_without_intermediate	test	ward_and_allport	82	3.0	1.172	to_board	poldrack-single-stim	s612	False
0.1	137.595	1.484	139.079	0	PA_without_intermediate	test	ward_and_allport	89	3.0	1.484	to_hand	poldrack-single-stim	s612	False
0.1	139.08	0.977	140.057	0	PA_without_intermediate	test	ward_and_allport	71	3.0	0.977	to_board	poldrack-single-stim	s612	False
1.0	140.06	2.408	140.059	0	PA_without_intermediate	test	ward_and_allport	-1	3.0	n/a	feedback	poldrack-single-stim	s612	False
5.729	142.471	5.729	148.2	1	PA_with_intermediate	test	ward_and_allport	71	4.0	5.729	to_hand	poldrack-single-stim	s612	False
0.1	148.202	1.716	149.918	0	PA_with_intermediate	test	ward_and_allport	82	4.0	1.716	to_board	poldrack-single-stim	s612	False
0.1	149.92	1.336	151.256	0	PA_with_intermediate	test	ward_and_allport	71	4.0	1.336	to_hand	poldrack-single-stim	s612	False
0.1	151.258	0.695	151.953	0	PA_with_intermediate	test	ward_and_allport	89	4.0	0.695	to_board	poldrack-single-stim	s612	False
0.1	151.955	1.057	153.012	0	PA_with_intermediate	test	ward_and_allport	82	4.0	1.057	to_hand	poldrack-single-stim	s612	False
0.1	153.014	1.134	154.148	0	PA_with_intermediate	test	ward_and_allport	89	4.0	1.134	to_board	poldrack-single-stim	s612	False
1.0	154.153	2.816	154.152	0	PA_with_intermediate	test	ward_and_allport	-1	4.0	n/a	feedback	poldrack-single-stim	s612	False
6.827	156.972	6.827	163.799	1	PA_without_intermediate	test	ward_and_allport	89	5.0	6.827	to_hand	poldrack-single-stim	s612	False
0.1	163.8	1.458	165.258	0	PA_without_intermediate	test	ward_and_allport	82	5.0	1.458	to_board	poldrack-single-stim	s612	False
0.1	165.262	1.358	166.62	0	PA_without_intermediate	test	ward_and_allport	89	5.0	1.358	to_hand	poldrack-single-stim	s612	False
0.1	166.622	0.626	167.248	0	PA_without_intermediate	test	ward_and_allport	82	5.0	0.626	to_board	poldrack-single-stim	s612	False
0.1	167.251	3.648	170.899	0	PA_without_intermediate	test	ward_and_allport	89	5.0	3.648	to_hand	poldrack-single-stim	s612	False
0.1	170.901	0.918	171.819	0	PA_without_intermediate	test	ward_and_allport	71	5.0	0.918	to_board	poldrack-single-stim	s612	False
1.0	171.825	3.088	171.824	0	PA_without_intermediate	test	ward_and_allport	-1	5.0	n/a	feedback	poldrack-single-stim	s612	False
4.873	174.917	4.873	179.79	1	PA_without_intermediate	test	ward_and_allport	82	6.0	4.873	to_hand	poldrack-single-stim	s612	False
0.1	179.791	0.569	180.36	0	PA_without_intermediate	test	ward_and_allport	89	6.0	0.569	to_board	poldrack-single-stim	s612	False
0.1	180.364	2.564	182.928	0	PA_without_intermediate	test	ward_and_allport	82	6.0	2.564	to_hand	poldrack-single-stim	s612	False
0.1	182.929	0.939	183.868	0	PA_without_intermediate	test	ward_and_allport	71	6.0	0.939	to_board	poldrack-single-stim	s612	False
0.1	183.871	1.195	185.066	0	PA_without_intermediate	test	ward_and_allport	82	6.0	1.195	to_hand	poldrack-single-stim	s612	False
0.1	185.068	0.518	185.586	0	PA_without_intermediate	test	ward_and_allport	89	6.0	0.518	to_board	poldrack-single-stim	s612	False
1.0	185.592	2.136	185.591	0	PA_without_intermediate	test	ward_and_allport	-1	6.0	n/a	feedback	poldrack-single-stim	s612	False
5.589	187.731	5.589	193.32	1	PA_without_intermediate	test	ward_and_allport	82	7.0	5.589	to_hand	poldrack-single-stim	s612	False
0.1	193.321	0.564	193.885	0	PA_without_intermediate	test	ward_and_allport	71	7.0	0.564	to_board	poldrack-single-stim	s612	False
0.1	193.89	3.214	197.104	0	PA_without_intermediate	test	ward_and_allport	82	7.0	3.214	to_hand	poldrack-single-stim	s612	False
0.1	197.105	0.716	197.821	0	PA_without_intermediate	test	ward_and_allport	71	7.0	0.716	to_board	poldrack-single-stim	s612	False
0.1	197.825	0.931	198.756	0	PA_without_intermediate	test	ward_and_allport	82	7.0	0.931	to_hand	poldrack-single-stim	s612	False
0.1	198.757	0.583	199.34	0	PA_without_intermediate	test	ward_and_allport	89	7.0	0.583	to_board	poldrack-single-stim	s612	False
1.0	199.345	7.168	199.344	0	PA_without_intermediate	test	ward_and_allport	-1	7.0	n/a	feedback	poldrack-single-stim	s612	False
3.812	206.515	3.812	210.327	1	PA_without_intermediate	test	ward_and_allport	82	8.0	3.812	to_hand	poldrack-single-stim	s612	False
0.1	210.328	0.617	210.945	0	PA_without_intermediate	test	ward_and_allport	71	8.0	0.617	to_board	poldrack-single-stim	s612	False
0.1	210.949	2.61	213.559	0	PA_without_intermediate	test	ward_and_allport	82	8.0	2.61	to_hand	poldrack-single-stim	s612	False
0.1	213.56	1.138	214.698	0	PA_without_intermediate	test	ward_and_allport	89	8.0	1.138	to_board	poldrack-single-stim	s612	False
0.1	214.703	1.753	216.456	0	PA_without_intermediate	test	ward_and_allport	82	8.0	1.753	to_hand	poldrack-single-stim	s612	False
0.1	216.456	0.54	216.996	0	PA_without_intermediate	test	ward_and_allport	71	8.0	0.54	to_board	poldrack-single-stim	s612	False
1.0	217.004	2.816	217.003	0	PA_without_intermediate	test	ward_and_allport	-1	8.0	n/a	feedback	poldrack-single-stim	s612	False
6.267	219.824	6.267	226.091	1	PA_with_intermediate	test	ward_and_allport	89	9.0	6.267	to_hand	poldrack-single-stim	s612	False
0.1	226.092	0.743	226.835	0	PA_with_intermediate	test	ward_and_allport	82	9.0	0.743	to_board	poldrack-single-stim	s612	False
0.1	226.84	3.72	230.56	0	PA_with_intermediate	test	ward_and_allport	89	9.0	3.72	to_hand	poldrack-single-stim	s612	False
0.1	230.561	0.978	231.539	0	PA_with_intermediate	test	ward_and_allport	71	9.0	0.978	to_board	poldrack-single-stim	s612	False
0.1	231.543	5.172	236.715	0	PA_with_intermediate	test	ward_and_allport	82	9.0	5.172	to_hand	poldrack-single-stim	s612	False
0.1	236.716	1.161	237.877	0	PA_with_intermediate	test	ward_and_allport	71	9.0	1.161	to_board	poldrack-single-stim	s612	False
1.0	237.882	2.952	237.881	0	PA_with_intermediate	test	ward_and_allport	-1	9.0	n/a	feedback	poldrack-single-stim	s612	False
6.327	240.839	6.327	247.166	1	PA_with_intermediate	test	ward_and_allport	89	10.0	6.327	to_hand	poldrack-single-stim	s612	False
0.1	247.168	0.87	248.038	0	PA_with_intermediate	test	ward_and_allport	71	10.0	0.87	to_board	poldrack-single-stim	s612	False
0.1	248.048	1.032	249.08	0	PA_with_intermediate	test	ward_and_allport	89	10.0	1.032	to_hand	poldrack-single-stim	s612	False
0.1	249.081	0.695	249.776	0	PA_with_intermediate	test	ward_and_allport	82	10.0	0.695	to_board	poldrack-single-stim	s612	False
0.1	249.781	1.429	251.21	0	PA_with_intermediate	test	ward_and_allport	71	10.0	1.429	to_hand	poldrack-single-stim	s612	False
0.1	251.211	0.593	251.804	0	PA_with_intermediate	test	ward_and_allport	89	10.0	0.593	to_board	poldrack-single-stim	s612	False
1.0	251.814	2.136	251.813	0	PA_with_intermediate	test	ward_and_allport	-1	10.0	n/a	feedback	poldrack-single-stim	s612	False
9.726	253.958	9.726	263.684	1	PA_without_intermediate	test	ward_and_allport	71	11.0	9.726	to_hand	poldrack-single-stim	s612	False
0.1	263.686	0.603	264.289	0	PA_without_intermediate	test	ward_and_allport	89	11.0	0.603	to_board	poldrack-single-stim	s612	False
0.1	264.293	2.273	266.566	0	PA_without_intermediate	test	ward_and_allport	71	11.0	2.273	to_hand	poldrack-single-stim	s612	False
0.1	266.567	0.7	267.267	0	PA_without_intermediate	test	ward_and_allport	89	11.0	0.7	to_board	poldrack-single-stim	s612	False
0.1	267.272	1.048	268.32	0	PA_without_intermediate	test	ward_and_allport	71	11.0	1.048	to_hand	poldrack-single-stim	s612	False
0.1	268.322	0.69	269.012	0	PA_without_intermediate	test	ward_and_allport	82	11.0	0.69	to_board	poldrack-single-stim	s612	False
1.0	269.017	2.68	269.016	0	PA_without_intermediate	test	ward_and_allport	-1	11.0	n/a	feedback	poldrack-single-stim	s612	False
5.319	271.703	5.319	277.022	1	PA_without_intermediate	test	ward_and_allport	71	12.0	5.319	to_hand	poldrack-single-stim	s612	False
0.1	277.023	0.827	277.85	0	PA_without_intermediate	test	ward_and_allport	82	12.0	0.827	to_board	poldrack-single-stim	s612	False
0.1	277.856	2.466	280.322	0	PA_without_intermediate	test	ward_and_allport	71	12.0	2.466	to_hand	poldrack-single-stim	s612	False
0.1	280.323	0.567	280.89	0	PA_without_intermediate	test	ward_and_allport	82	12.0	0.567	to_board	poldrack-single-stim	s612	False
0.1	280.895	1.301	282.196	0	PA_without_intermediate	test	ward_and_allport	71	12.0	1.301	to_hand	poldrack-single-stim	s612	False
0.1	282.197	0.49	282.687	0	PA_without_intermediate	test	ward_and_allport	89	12.0	0.49	to_board	poldrack-single-stim	s612	False
1.0	282.696	3.088	282.695	0	PA_without_intermediate	test	ward_and_allport	-1	12.0	n/a	feedback	poldrack-single-stim	s612	False
8.583	285.788	8.583	294.371	1	PA_with_intermediate	test	ward_and_allport	82	13.0	8.583	to_hand	poldrack-single-stim	s612	False
0.1	294.373	1.557	295.93	0	PA_with_intermediate	test	ward_and_allport	71	13.0	1.557	to_board	poldrack-single-stim	s612	False
0.1	295.933	1.436	297.369	0	PA_with_intermediate	test	ward_and_allport	82	13.0	1.436	to_hand	poldrack-single-stim	s612	False
0.1	297.372	0.896	298.268	0	PA_with_intermediate	test	ward_and_allport	89	13.0	0.896	to_board	poldrack-single-stim	s612	False
0.1	298.273	0.799	299.072	0	PA_with_intermediate	test	ward_and_allport	71	13.0	0.799	to_hand	poldrack-single-stim	s612	False
0.1	299.072	0.507	299.579	0	PA_with_intermediate	test	ward_and_allport	89	13.0	0.507	to_board	poldrack-single-stim	s612	False
1.0	299.587	2.0	299.586	0	PA_with_intermediate	test	ward_and_allport	-1	13.0	n/a	feedback	poldrack-single-stim	s612	False
4.083	301.592	4.083	305.675	1	PA_without_intermediate	test	ward_and_allport	82	14.0	4.083	to_hand	poldrack-single-stim	s612	False
0.1	305.676	3.225	308.901	0	PA_without_intermediate	test	ward_and_allport	89	14.0	3.225	to_board	poldrack-single-stim	s612	False
0.1	308.905	2.787	311.692	0	PA_without_intermediate	test	ward_and_allport	82	14.0	2.787	to_hand	poldrack-single-stim	s612	False
0.1	311.694	0.643	312.337	0	PA_without_intermediate	test	ward_and_allport	71	14.0	0.643	to_board	poldrack-single-stim	s612	False
0.1	312.343	1.302	313.645	0	PA_without_intermediate	test	ward_and_allport	82	14.0	1.302	to_hand	poldrack-single-stim	s612	False
0.1	313.646	0.635	314.281	0	PA_without_intermediate	test	ward_and_allport	89	14.0	0.635	to_board	poldrack-single-stim	s612	False
1.0	314.287	2.0	314.286	0	PA_without_intermediate	test	ward_and_allport	-1	14.0	n/a	feedback	poldrack-single-stim	s612	False
3.815	321.294	3.815	325.109	1	PA_without_intermediate	test	ward_and_allport	89	15.0	3.815	to_hand	poldrack-single-stim	s612	False
0.1	325.109	0.509	325.618	0	PA_without_intermediate	test	ward_and_allport	82	15.0	0.509	to_board	poldrack-single-stim	s612	False
0.1	325.623	1.659	327.282	0	PA_without_intermediate	test	ward_and_allport	89	15.0	1.659	to_hand	poldrack-single-stim	s612	False
0.1	327.283	1.031	328.314	0	PA_without_intermediate	test	ward_and_allport	71	15.0	1.031	to_board	poldrack-single-stim	s612	False
0.1	328.319	0.88	329.199	0	PA_without_intermediate	test	ward_and_allport	89	15.0	0.88	to_hand	poldrack-single-stim	s612	False
0.1	329.2	0.622	329.822	0	PA_without_intermediate	test	ward_and_allport	82	15.0	0.622	to_board	poldrack-single-stim	s612	False
1.0	329.829	2.0	329.828	0	PA_without_intermediate	test	ward_and_allport	-1	15.0	n/a	feedback	poldrack-single-stim	s612	False
5.135	331.835	5.135	336.97	1	PA_with_intermediate	test	ward_and_allport	89	16.0	5.135	to_hand	poldrack-single-stim	s612	False
0.1	336.971	1.27	338.241	0	PA_with_intermediate	test	ward_and_allport	82	16.0	1.27	to_board	poldrack-single-stim	s612	False
0.1	338.246	1.578	339.824	0	PA_with_intermediate	test	ward_and_allport	89	16.0	1.578	to_hand	poldrack-single-stim	s612	False
0.1	339.826	0.566	340.392	0	PA_with_intermediate	test	ward_and_allport	71	16.0	0.566	to_board	poldrack-single-stim	s612	False
0.1	340.398	2.091	342.489	0	PA_with_intermediate	test	ward_and_allport	82	16.0	2.091	to_hand	poldrack-single-stim	s612	False
0.1	342.491	0.608	343.099	0	PA_with_intermediate	test	ward_and_allport	89	16.0	0.608	to_board	poldrack-single-stim	s612	False
1.0	343.104	2.544	343.103	0	PA_with_intermediate	test	ward_and_allport	-1	16.0	n/a	feedback	poldrack-single-stim	s612	False
8.703	345.653	8.703	354.356	1	PA_without_intermediate	test	ward_and_allport	71	17.0	8.703	to_hand	poldrack-single-stim	s612	False
0.1	354.358	0.661	355.019	0	PA_without_intermediate	test	ward_and_allport	89	17.0	0.661	to_board	poldrack-single-stim	s612	False
0.1	355.025	1.766	356.791	0	PA_without_intermediate	test	ward_and_allport	71	17.0	1.766	to_hand	poldrack-single-stim	s612	False
0.1	356.792	0.868	357.66	0	PA_without_intermediate	test	ward_and_allport	89	17.0	0.868	to_board	poldrack-single-stim	s612	False
0.1	357.666	1.665	359.331	0	PA_without_intermediate	test	ward_and_allport	71	17.0	1.665	to_hand	poldrack-single-stim	s612	False
0.1	359.332	0.858	360.19	0	PA_without_intermediate	test	ward_and_allport	82	17.0	0.858	to_board	poldrack-single-stim	s612	False
1.0	360.195	2.272	360.194	0	PA_without_intermediate	test	ward_and_allport	-1	17.0	n/a	feedback	poldrack-single-stim	s612	False
3.893	362.475	3.893	366.368	1	PA_with_intermediate	test	ward_and_allport	89	18.0	3.893	to_hand	poldrack-single-stim	s612	False
0.1	366.369	0.677	367.046	0	PA_with_intermediate	test	ward_and_allport	71	18.0	0.677	to_board	poldrack-single-stim	s612	False
0.1	367.052	0.976	368.028	0	PA_with_intermediate	test	ward_and_allport	89	18.0	0.976	to_hand	poldrack-single-stim	s612	False
0.1	368.03	0.673	368.703	0	PA_with_intermediate	test	ward_and_allport	82	18.0	0.673	to_board	poldrack-single-stim	s612	False
0.1	368.709	2.209	370.918	0	PA_with_intermediate	test	ward_and_allport	71	18.0	2.209	to_hand	poldrack-single-stim	s612	False
0.1	370.92	0.599	371.519	0	PA_with_intermediate	test	ward_and_allport	82	18.0	0.599	to_board	poldrack-single-stim	s612	False
1.0	371.529	4.04	371.528	0	PA_with_intermediate	test	ward_and_allport	-1	18.0	n/a	feedback	poldrack-single-stim	s612	False
3.649	375.574	3.649	379.223	1	PA_with_intermediate	test	ward_and_allport	71	19.0	3.649	to_hand	poldrack-single-stim	s612	False
0.1	379.224	0.95	380.174	0	PA_with_intermediate	test	ward_and_allport	82	19.0	0.95	to_board	poldrack-single-stim	s612	False
0.1	380.179	1.108	381.287	0	PA_with_intermediate	test	ward_and_allport	71	19.0	1.108	to_hand	poldrack-single-stim	s612	False
0.1	381.288	0.626	381.914	0	PA_with_intermediate	test	ward_and_allport	89	19.0	0.626	to_board	poldrack-single-stim	s612	False
0.1	381.921	1.982	383.903	0	PA_with_intermediate	test	ward_and_allport	82	19.0	1.982	to_hand	poldrack-single-stim	s612	False
0.1	383.904	0.591	384.495	0	PA_with_intermediate	test	ward_and_allport	71	19.0	0.591	to_board	poldrack-single-stim	s612	False
1.0	384.503	2.272	384.502	0	PA_with_intermediate	test	ward_and_allport	-1	19.0	n/a	feedback	poldrack-single-stim	s612	False
9.917	386.781	9.917	396.698	1	PA_with_intermediate	test	ward_and_allport	82	20.0	9.917	to_hand	poldrack-single-stim	s612	False
0.1	396.7	0.543	397.243	0	PA_with_intermediate	test	ward_and_allport	71	20.0	0.543	to_board	poldrack-single-stim	s612	False
0.1	397.249	2.63	399.879	0	PA_with_intermediate	test	ward_and_allport	82	20.0	2.63	to_hand	poldrack-single-stim	s612	False
0.1	399.88	0.601	400.481	0	PA_with_intermediate	test	ward_and_allport	89	20.0	0.601	to_board	poldrack-single-stim	s612	False
0.1	400.488	1.176	401.664	0	PA_with_intermediate	test	ward_and_allport	71	20.0	1.176	to_hand	poldrack-single-stim	s612	False
0.1	401.666	0.673	402.339	0	PA_with_intermediate	test	ward_and_allport	82	20.0	0.673	to_board	poldrack-single-stim	s612	False
1.0	402.346	2.136	402.345	0	PA_with_intermediate	test	ward_and_allport	-1	20.0	n/a	feedback	poldrack-single-stim	s612	False
5.512	404.489	5.512	410.001	1	PA_with_intermediate	test	ward_and_allport	82	21.0	5.512	to_hand	poldrack-single-stim	s612	False
0.1	410.001	0.562	410.563	0	PA_with_intermediate	test	ward_and_allport	71	21.0	0.562	to_board	poldrack-single-stim	s612	False
0.1	410.57	1.157	411.727	0	PA_with_intermediate	test	ward_and_allport	82	21.0	1.157	to_hand	poldrack-single-stim	s612	False
0.1	411.728	0.569	412.297	0	PA_with_intermediate	test	ward_and_allport	89	21.0	0.569	to_board	poldrack-single-stim	s612	False
0.1	412.303	1.003	413.306	0	PA_with_intermediate	test	ward_and_allport	71	21.0	1.003	to_hand	poldrack-single-stim	s612	False
0.1	413.308	0.606	413.914	0	PA_with_intermediate	test	ward_and_allport	82	21.0	0.606	to_board	poldrack-single-stim	s612	False
1.0	413.92	2.0	413.919	0	PA_with_intermediate	test	ward_and_allport	-1	21.0	n/a	feedback	poldrack-single-stim	s612	False
4.956	415.927	4.956	420.883	1	PA_with_intermediate	test	ward_and_allport	71	22.0	4.956	to_hand	poldrack-single-stim	s612	False
0.1	420.885	0.993	421.878	0	PA_with_intermediate	test	ward_and_allport	89	22.0	0.993	to_board	poldrack-single-stim	s612	False
0.1	421.886	0.808	422.694	0	PA_with_intermediate	test	ward_and_allport	71	22.0	0.808	to_hand	poldrack-single-stim	s612	False
0.1	422.696	0.835	423.531	0	PA_with_intermediate	test	ward_and_allport	82	22.0	0.835	to_board	poldrack-single-stim	s612	False
0.1	423.538	0.757	424.295	0	PA_with_intermediate	test	ward_and_allport	71	22.0	0.757	to_hand	poldrack-single-stim	s612	False
0.1	424.297	2.188	426.485	0	PA_with_intermediate	test	ward_and_allport	71	22.0	2.188	to_board	poldrack-single-stim	s612	False
0.1	426.493	1.156	427.649	0	PA_with_intermediate	test	ward_and_allport	89	22.0	1.156	to_hand	poldrack-single-stim	s612	False
0.1	427.651	0.628	428.279	0	PA_with_intermediate	test	ward_and_allport	71	22.0	0.628	to_board	poldrack-single-stim	s612	False
1.0	428.291	2.0	428.29	0	PA_with_intermediate	test	ward_and_allport	-1	22.0	n/a	feedback	poldrack-single-stim	s612	False
4.112	430.298	4.112	434.41	1	PA_without_intermediate	test	ward_and_allport	71	23.0	4.112	to_hand	poldrack-single-stim	s612	False
0.1	434.411	0.55	434.961	0	PA_without_intermediate	test	ward_and_allport	89	23.0	0.55	to_board	poldrack-single-stim	s612	False
0.1	434.969	1.314	436.283	0	PA_without_intermediate	test	ward_and_allport	71	23.0	1.314	to_hand	poldrack-single-stim	s612	False
0.1	436.284	0.698	436.982	0	PA_without_intermediate	test	ward_and_allport	82	23.0	0.698	to_board	poldrack-single-stim	s612	False
0.1	436.99	0.605	437.595	0	PA_without_intermediate	test	ward_and_allport	71	23.0	0.605	to_hand	poldrack-single-stim	s612	False
0.1	437.596	0.494	438.09	0	PA_without_intermediate	test	ward_and_allport	89	23.0	0.494	to_board	poldrack-single-stim	s612	False
1.0	438.102	2.408	438.101	0	PA_without_intermediate	test	ward_and_allport	-1	23.0	n/a	feedback	poldrack-single-stim	s612	False
3.789	440.519	3.789	444.308	1	PA_with_intermediate	test	ward_and_allport	71	24.0	3.789	to_hand	poldrack-single-stim	s612	False
0.1	444.31	0.717	445.027	0	PA_with_intermediate	test	ward_and_allport	89	24.0	0.717	to_board	poldrack-single-stim	s612	False
0.1	445.035	0.914	445.949	0	PA_with_intermediate	test	ward_and_allport	71	24.0	0.914	to_hand	poldrack-single-stim	s612	False
0.1	445.949	0.696	446.645	0	PA_with_intermediate	test	ward_and_allport	82	24.0	0.696	to_board	poldrack-single-stim	s612	False
0.1	446.653	1.672	448.325	0	PA_with_intermediate	test	ward_and_allport	71	24.0	1.672	to_hand	poldrack-single-stim	s612	False
0.1	448.326	1.281	449.607	0	PA_with_intermediate	test	ward_and_allport	71	24.0	1.281	to_board	poldrack-single-stim	s612	False
0.1	449.615	0.496	450.111	0	PA_with_intermediate	test	ward_and_allport	89	24.0	0.496	to_hand	poldrack-single-stim	s612	False
0.1	450.113	0.589	450.702	0	PA_with_intermediate	test	ward_and_allport	82	24.0	0.589	to_board	poldrack-single-stim	s612	False
1.0	450.711	3.768	450.71	0	PA_with_intermediate	test	ward_and_allport	-1	24.0	n/a	feedback	poldrack-single-stim	s612	False
5.311	454.488	5.311	459.799	1	PA_with_intermediate	test	ward_and_allport	89	25.0	5.311	to_hand	poldrack-single-stim	s612	False
0.1	459.8	0.718	460.518	0	PA_with_intermediate	test	ward_and_allport	82	25.0	0.718	to_board	poldrack-single-stim	s612	False
0.1	460.525	0.955	461.48	0	PA_with_intermediate	test	ward_and_allport	89	25.0	0.955	to_hand	poldrack-single-stim	s612	False
0.1	461.482	0.651	462.133	0	PA_with_intermediate	test	ward_and_allport	71	25.0	0.651	to_board	poldrack-single-stim	s612	False
0.1	462.14	0.951	463.091	0	PA_with_intermediate	test	ward_and_allport	82	25.0	0.951	to_hand	poldrack-single-stim	s612	False
0.1	463.092	0.545	463.637	0	PA_with_intermediate	test	ward_and_allport	71	25.0	0.545	to_board	poldrack-single-stim	s612	False
1.0	463.65	2.68	463.649	0	PA_with_intermediate	test	ward_and_allport	-1	25.0	n/a	feedback	poldrack-single-stim	s612	False
4.097	466.339	4.097	470.436	1	PA_without_intermediate	test	ward_and_allport	71	26.0	4.097	to_hand	poldrack-single-stim	s612	False
0.1	470.437	1.025	471.462	0	PA_without_intermediate	test	ward_and_allport	82	26.0	1.025	to_board	poldrack-single-stim	s612	False
0.1	471.471	1.918	473.389	0	PA_without_intermediate	test	ward_and_allport	71	26.0	1.918	to_hand	poldrack-single-stim	s612	False
0.1	473.39	0.492	473.882	0	PA_without_intermediate	test	ward_and_allport	89	26.0	0.492	to_board	poldrack-single-stim	s612	False
0.1	473.89	1.252	475.142	0	PA_without_intermediate	test	ward_and_allport	71	26.0	1.252	to_hand	poldrack-single-stim	s612	False
0.1	475.143	0.6	475.743	0	PA_without_intermediate	test	ward_and_allport	82	26.0	0.6	to_board	poldrack-single-stim	s612	False
1.0	475.752	3.224	475.751	0	PA_without_intermediate	test	ward_and_allport	-1	26.0	n/a	feedback	poldrack-single-stim	s612	False
3.345	478.983	3.345	482.328	1	PA_without_intermediate	test	ward_and_allport	82	27.0	3.345	to_hand	poldrack-single-stim	s612	False
0.1	482.33	0.561	482.891	0	PA_without_intermediate	test	ward_and_allport	71	27.0	0.561	to_board	poldrack-single-stim	s612	False
0.1	482.899	1.146	484.045	0	PA_without_intermediate	test	ward_and_allport	82	27.0	1.146	to_hand	poldrack-single-stim	s612	False
0.1	484.047	1.438	485.485	0	PA_without_intermediate	test	ward_and_allport	71	27.0	1.438	to_board	poldrack-single-stim	s612	False
0.1	485.494	1.878	487.372	0	PA_without_intermediate	test	ward_and_allport	82	27.0	1.878	to_hand	poldrack-single-stim	s612	False
0.1	487.374	0.594	487.968	0	PA_without_intermediate	test	ward_and_allport	89	27.0	0.594	to_board	poldrack-single-stim	s612	False
1.0	487.981	3.36	487.98	0	PA_without_intermediate	test	ward_and_allport	-1	27.0	n/a	feedback	poldrack-single-stim	s612	False
4.273	491.35	4.273	495.623	1	PA_without_intermediate	test	ward_and_allport	71	28.0	4.273	to_hand	poldrack-single-stim	s612	False
0.1	495.624	0.811	496.435	0	PA_without_intermediate	test	ward_and_allport	82	28.0	0.811	to_board	poldrack-single-stim	s612	False
0.1	496.444	1.34	497.784	0	PA_without_intermediate	test	ward_and_allport	71	28.0	1.34	to_hand	poldrack-single-stim	s612	False
0.1	497.785	0.504	498.289	0	PA_without_intermediate	test	ward_and_allport	89	28.0	0.504	to_board	poldrack-single-stim	s612	False
0.1	498.298	0.929	499.227	0	PA_without_intermediate	test	ward_and_allport	71	28.0	0.929	to_hand	poldrack-single-stim	s612	False
0.1	499.228	0.563	499.791	0	PA_without_intermediate	test	ward_and_allport	82	28.0	0.563	to_board	poldrack-single-stim	s612	False
1.0	499.803	2.0	499.802	0	PA_without_intermediate	test	ward_and_allport	-1	28.0	n/a	feedback	poldrack-single-stim	s612	False
3.418	501.813	3.418	505.231	1	PA_without_intermediate	test	ward_and_allport	89	29.0	3.418	to_hand	poldrack-single-stim	s612	False
0.1	505.232	1.18	506.412	0	PA_without_intermediate	test	ward_and_allport	82	29.0	1.18	to_board	poldrack-single-stim	s612	False
0.1	506.423	0.604	507.027	0	PA_without_intermediate	test	ward_and_allport	89	29.0	0.604	to_hand	poldrack-single-stim	s612	False
0.1	507.028	1.569	508.597	0	PA_without_intermediate	test	ward_and_allport	82	29.0	1.569	to_board	poldrack-single-stim	s612	False
0.1	508.607	0.794	509.401	0	PA_without_intermediate	test	ward_and_allport	89	29.0	0.794	to_hand	poldrack-single-stim	s612	False
0.1	509.403	0.595	509.998	0	PA_without_intermediate	test	ward_and_allport	71	29.0	0.595	to_board	poldrack-single-stim	s612	False
1.0	510.009	2.408	510.008	0	PA_without_intermediate	test	ward_and_allport	-1	29.0	n/a	feedback	poldrack-single-stim	s612	False
3.293	517.428	3.293	520.721	1	PA_with_intermediate	test	ward_and_allport	71	30.0	3.293	to_hand	poldrack-single-stim	s612	False
0.1	520.721	0.696	521.417	0	PA_with_intermediate	test	ward_and_allport	89	30.0	0.696	to_board	poldrack-single-stim	s612	False
0.1	521.425	0.524	521.949	0	PA_with_intermediate	test	ward_and_allport	71	30.0	0.524	to_hand	poldrack-single-stim	s612	False
0.1	521.951	0.606	522.557	0	PA_with_intermediate	test	ward_and_allport	82	30.0	0.606	to_board	poldrack-single-stim	s612	False
0.1	522.566	2.361	524.927	0	PA_with_intermediate	test	ward_and_allport	89	30.0	2.361	to_hand	poldrack-single-stim	s612	False
0.1	524.928	1.181	526.109	0	PA_with_intermediate	test	ward_and_allport	82	30.0	1.181	to_board	poldrack-single-stim	s612	False
1.0	526.121	2.136	526.12	0	PA_with_intermediate	test	ward_and_allport	-1	30.0	n/a	feedback	poldrack-single-stim	s612	False
5.642	528.267	5.642	533.909	1	PA_without_intermediate	test	ward_and_allport	82	31.0	5.642	to_hand	poldrack-single-stim	s612	False
0.1	533.911	0.838	534.749	0	PA_without_intermediate	test	ward_and_allport	89	31.0	0.838	to_board	poldrack-single-stim	s612	False
0.1	534.761	2.733	537.494	0	PA_without_intermediate	test	ward_and_allport	82	31.0	2.733	to_hand	poldrack-single-stim	s612	False
0.1	537.496	0.565	538.061	0	PA_without_intermediate	test	ward_and_allport	89	31.0	0.565	to_board	poldrack-single-stim	s612	False
0.1	538.072	1.244	539.316	0	PA_without_intermediate	test	ward_and_allport	82	31.0	1.244	to_hand	poldrack-single-stim	s612	False
0.1	539.318	0.549	539.867	0	PA_without_intermediate	test	ward_and_allport	71	31.0	0.549	to_board	poldrack-single-stim	s612	False
1.0	539.882	5.128	539.881	0	PA_without_intermediate	test	ward_and_allport	-1	31.0	n/a	feedback	poldrack-single-stim	s612	False
3.403	545.02	3.403	548.423	1	PA_without_intermediate	test	ward_and_allport	82	32.0	3.403	to_hand	poldrack-single-stim	s612	False
0.1	548.425	0.612	549.037	0	PA_without_intermediate	test	ward_and_allport	89	32.0	0.612	to_board	poldrack-single-stim	s612	False
0.1	549.048	1.426	550.474	0	PA_without_intermediate	test	ward_and_allport	82	32.0	1.426	to_hand	poldrack-single-stim	s612	False
0.1	550.475	2.617	553.092	0	PA_without_intermediate	test	ward_and_allport	89	32.0	2.617	to_board	poldrack-single-stim	s612	False
0.1	553.103	2.614	555.717	0	PA_without_intermediate	test	ward_and_allport	82	32.0	2.614	to_hand	poldrack-single-stim	s612	False
0.1	555.718	0.922	556.64	0	PA_without_intermediate	test	ward_and_allport	71	32.0	0.922	to_board	poldrack-single-stim	s612	False
1.0	556.65	2.136	556.649	0	PA_without_intermediate	test	ward_and_allport	-1	32.0	n/a	feedback	poldrack-single-stim	s612	False
