onset	duration	movement_onset	EV	action	block_duration	experiment_exp_id	gain_amount	gain_probability	key_press	loss_amount	loss_probability	num_cards	num_click_in_round	num_loss_cards	risk	response_time	total_cards	trial_id	trial_type	worker_id	junk	feedback
3.015	2.855	5.87	0.1878950350724544	draw_card	2.855	columbia_card_task_fmri	12.0	0.8333333333333334	89.0	-70.0	0.1666666666666666	6.0	1.0	1.0	-2.570128111998333	2.855	n/a	stim	poldrack-single-stim	s612	False	1
5.874	0.642	6.516	-2.545438298260878	draw_card	0.642	columbia_card_task_fmri	12.0	0.8	89.0	-70.0	0.2	6.0	2.0	1.0	-0.3335576956295227	0.642	2.0	stim	poldrack-single-stim	s612	False	0
7.27	1.5	6.519	n/a	-1.0	2.318	columbia_card_task_fmri	n/a	n/a	-1.0	n/a	n/a	n/a	n/a	n/a	n/a	n/a	n/a	ITI	poldrack-single-stim	s612	False	0
8.841	0.958	9.799	1.0212283684057883	draw_card	0.958	columbia_card_task_fmri	14.0	0.8333333333333334	89.0	-75.0	0.1666666666666666	6.0	1.0	1.0	0.0342031025208129	0.958	n/a	stim	poldrack-single-stim	s612	False	1
9.8	0.439	10.239	-1.9454382982608784	draw_card	0.439	columbia_card_task_fmri	14.0	0.8	89.0	-75.0	0.2	6.0	2.0	1.0	2.462327714861189	0.439	n/a	stim	poldrack-single-stim	s612	False	1
10.241	0.384	10.625	-6.39543829826088	draw_card	0.384	columbia_card_task_fmri	14.0	0.75	89.0	-75.0	0.25	6.0	3.0	1.0	5.396782266349128	0.384	n/a	stim	poldrack-single-stim	s612	False	1
10.627	0.864	11.491	-13.812104964927546	draw_card	0.864	columbia_card_task_fmri	14.0	0.6666666666666667	89.0	-75.0	0.3333333333333333	6.0	4.0	1.0	8.81002576620174	0.864	n/a	stim	poldrack-single-stim	s612	False	1
11.491	0.592	12.083	-28.64543829826088	end_round	0.592	columbia_card_task_fmri	14.0	0.5	71.0	-75.0	0.5	6.0	5.0	1.0	11.352682445133595	0.592	4.0	stim	poldrack-single-stim	s612	False	1
12.838	1.5	12.087	n/a	-1.0	2.318	columbia_card_task_fmri	n/a	n/a	-1.0	n/a	n/a	n/a	n/a	n/a	n/a	n/a	n/a	ITI	poldrack-single-stim	s612	False	0
14.408	0.866	15.274	2.6878950350724544	draw_card	0.866	columbia_card_task_fmri	15.0	0.8333333333333334	89.0	-70.0	0.1666666666666666	6.0	1.0	1.0	-1.454074972549506	0.866	1.0	stim	poldrack-single-stim	s612	False	0
16.028	1.5	15.277	n/a	-1.0	2.862	columbia_card_task_fmri	n/a	n/a	-1.0	n/a	n/a	n/a	n/a	n/a	n/a	n/a	n/a	ITI	poldrack-single-stim	s612	False	0
18.141	0.698	18.839	3.5212283684057883	draw_card	0.698	columbia_card_task_fmri	17.0	0.8333333333333334	89.0	-75.0	0.1666666666666666	6.0	1.0	1.0	1.1505502347453174	0.698	n/a	stim	poldrack-single-stim	s612	False	1
18.842	0.387	19.229	0.4545617017391219	draw_card	0.387	columbia_card_task_fmri	17.0	0.8	89.0	-75.0	0.2	6.0	2.0	1.0	3.660755609688529	0.387	2.0	stim	poldrack-single-stim	s612	False	0
19.983	1.5	19.232	n/a	-1.0	2.726	columbia_card_task_fmri	n/a	n/a	-1.0	n/a	n/a	n/a	n/a	n/a	n/a	n/a	n/a	ITI	poldrack-single-stim	s612	False	0
21.962	1.08	23.042	4.8545617017391205	draw_card	1.08	columbia_card_task_fmri	24.0	0.75	89.0	-60.0	0.25	8.0	1.0	2.0	3.2343700238522004	1.08	n/a	stim	poldrack-single-stim	s612	False	1
23.044	0.382	23.426	1.8545617017391205	draw_card	0.382	columbia_card_task_fmri	24.0	0.7142857142857143	89.0	-60.0	0.2857142857142857	8.0	2.0	2.0	4.806677233308086	0.382	n/a	stim	poldrack-single-stim	s612	False	1
23.428	0.333	23.761	-2.1454382982608795	draw_card	0.333	columbia_card_task_fmri	24.0	0.6666666666666667	89.0	-60.0	0.3333333333333333	8.0	3.0	2.0	6.455439206136312	0.333	n/a	stim	poldrack-single-stim	s612	False	1
23.762	0.347	24.109	-7.745438298260881	draw_card	0.347	columbia_card_task_fmri	24.0	0.6	89.0	-60.0	0.4	8.0	4.0	2.0	8.007250306195601	0.347	4.0	stim	poldrack-single-stim	s612	False	0
24.864	1.5	24.113	n/a	-1.0	2.25	columbia_card_task_fmri	n/a	n/a	-1.0	n/a	n/a	n/a	n/a	n/a	n/a	n/a	n/a	ITI	poldrack-single-stim	s612	False	0
26.366	0.936	27.302	4.8545617017391205	draw_card	0.936	columbia_card_task_fmri	29.0	0.75	89.0	-75.0	0.25	8.0	1.0	2.0	11.885546365671615	0.936	1.0	stim	poldrack-single-stim	s612	False	0
28.058	1.5	27.307	n/a	-1.0	2.318	columbia_card_task_fmri	n/a	n/a	-1.0	n/a	n/a	n/a	n/a	n/a	n/a	n/a	n/a	ITI	poldrack-single-stim	s612	False	0
29.627	0.701	30.328	0.6323394795169008	draw_card	0.701	columbia_card_task_fmri	17.0	0.7777777777777778	89.0	-65.0	0.2222222222222222	9.0	1.0	2.0	0.9551180947386868	0.701	n/a	stim	poldrack-single-stim	s612	False	1
30.331	0.361	30.692	-1.6454382982608795	draw_card	0.361	columbia_card_task_fmri	17.0	0.75	89.0	-65.0	0.25	9.0	2.0	2.0	2.369495479445135	0.361	2.0	stim	poldrack-single-stim	s612	False	0
31.448	1.5	30.697	n/a	-1.0	2.454	columbia_card_task_fmri	n/a	n/a	-1.0	n/a	n/a	n/a	n/a	n/a	n/a	n/a	n/a	ITI	poldrack-single-stim	s612	False	0
33.153	0.718	33.871	4.95456170173912	draw_card	0.718	columbia_card_task_fmri	14.0	0.9	89.0	-95.0	0.1	10.0	1.0	1.0	-0.4333977442407146	0.718	n/a	stim	poldrack-single-stim	s612	False	1
33.872	0.506	34.378	3.743450590628008	draw_card	0.506	columbia_card_task_fmri	14.0	0.8888888888888888	89.0	-95.0	0.1111111111111111	10.0	2.0	1.0	1.1196150196280357	0.506	n/a	stim	poldrack-single-stim	s612	False	1
34.381	0.447	34.828	2.2295617017391205	draw_card	0.447	columbia_card_task_fmri	14.0	0.875	89.0	-95.0	0.125	10.0	3.0	1.0	2.910089711663133	0.447	n/a	stim	poldrack-single-stim	s612	False	1
34.829	0.413	35.242	0.2831331303105493	draw_card	0.413	columbia_card_task_fmri	14.0	0.8571428571428572	89.0	-95.0	0.1428571428571428	10.0	4.0	1.0	5.001168931432495	0.413	n/a	stim	poldrack-single-stim	s612	False	1
35.244	0.451	35.695	-2.312104964927544	draw_card	0.451	columbia_card_task_fmri	14.0	0.8333333333333334	89.0	-95.0	0.1666666666666666	10.0	5.0	1.0	7.47826812638727	0.451	5.0	stim	poldrack-single-stim	s612	False	0
36.449	1.5	35.698	n/a	-1.0	2.522	columbia_card_task_fmri	n/a	n/a	-1.0	n/a	n/a	n/a	n/a	n/a	n/a	n/a	n/a	ITI	poldrack-single-stim	s612	False	0
38.223	0.532	38.755	0.8545617017391205	draw_card	0.532	columbia_card_task_fmri	15.0	0.8	89.0	-65.0	0.2	10.0	1.0	2.0	-1.1322501622533778	0.532	n/a	stim	poldrack-single-stim	s612	False	1
38.757	0.361	39.118	-0.9232160760386564	draw_card	0.361	columbia_card_task_fmri	15.0	0.7777777777777778	89.0	-65.0	0.2222222222222222	10.0	2.0	2.0	0.1248969353150712	0.361	n/a	stim	poldrack-single-stim	s612	False	1
39.12	0.317	39.437	-3.1454382982608795	draw_card	0.317	columbia_card_task_fmri	15.0	0.75	89.0	-65.0	0.25	10.0	3.0	2.0	1.504678357587757	0.317	n/a	stim	poldrack-single-stim	s612	False	1
39.439	0.366	39.805	-6.002581155403734	draw_card	0.366	columbia_card_task_fmri	15.0	0.7142857142857143	89.0	-65.0	0.2857142857142857	10.0	4.0	2.0	3.0019230741540426	0.366	4.0	stim	poldrack-single-stim	s612	False	0
40.56	1.5	39.809	n/a	-1.0	2.318	columbia_card_task_fmri	n/a	n/a	-1.0	n/a	n/a	n/a	n/a	n/a	n/a	n/a	n/a	ITI	poldrack-single-stim	s612	False	0
42.13	0.689	42.819	2.454561701739122	draw_card	0.689	columbia_card_task_fmri	17.0	0.8	89.0	-65.0	0.2	10.0	1.0	2.0	-0.3335576956295227	0.689	n/a	stim	poldrack-single-stim	s612	False	1
42.821	0.377	43.198	0.6323394795169008	draw_card	0.377	columbia_card_task_fmri	17.0	0.7777777777777778	89.0	-65.0	0.2222222222222222	10.0	2.0	2.0	0.9551180947386868	0.377	n/a	stim	poldrack-single-stim	s612	False	1
43.201	0.343	43.544	-1.6454382982608795	draw_card	0.343	columbia_card_task_fmri	17.0	0.75	89.0	-65.0	0.25	10.0	3.0	2.0	2.369495479445135	0.343	n/a	stim	poldrack-single-stim	s612	False	1
43.546	0.41	43.956	-4.5740097268323066	draw_card	0.41	columbia_card_task_fmri	17.0	0.7142857142857143	89.0	-65.0	0.2857142857142857	10.0	4.0	2.0	3.904272624422809	0.41	4.0	stim	poldrack-single-stim	s612	False	0
44.71	1.5	43.959	n/a	-1.0	2.522	columbia_card_task_fmri	n/a	n/a	-1.0	n/a	n/a	n/a	n/a	n/a	n/a	n/a	n/a	ITI	poldrack-single-stim	s612	False	0
46.484	0.585	47.069	1.0212283684057883	draw_card	0.585	columbia_card_task_fmri	13.0	0.8333333333333334	89.0	-70.0	0.1666666666666666	12.0	1.0	2.0	-2.1981262666921104	0.585	1.0	stim	poldrack-single-stim	s612	False	0
47.823	1.5	47.072	n/a	-1.0	2.998	columbia_card_task_fmri	n/a	n/a	-1.0	n/a	n/a	n/a	n/a	n/a	n/a	n/a	n/a	ITI	poldrack-single-stim	s612	False	0
50.074	0.574	50.648	1.0212283684057883	draw_card	0.574	columbia_card_task_fmri	15.0	0.8333333333333334	89.0	-80.0	0.1666666666666666	12.0	1.0	2.0	2.2670036793102284	0.574	n/a	stim	poldrack-single-stim	s612	False	1
50.65	0.368	51.018	-0.4181655709881546	draw_card	0.368	columbia_card_task_fmri	15.0	0.8181818181818181	89.0	-80.0	0.1818181818181818	12.0	2.0	2.0	3.501945775033072	0.368	n/a	stim	poldrack-single-stim	s612	False	1
51.021	0.3	51.321	-2.1454382982608795	draw_card	0.3	columbia_card_task_fmri	15.0	0.8	89.0	-80.0	0.2	12.0	3.0	2.0	4.8592826124980135	0.3	n/a	stim	poldrack-single-stim	s612	False	1
51.323	0.291	51.614	-4.256549409371992	draw_card	0.291	columbia_card_task_fmri	15.0	0.7777777777777778	89.0	-80.0	0.2222222222222222	12.0	4.0	2.0	6.352844626602838	0.291	n/a	stim	poldrack-single-stim	s612	False	1
51.617	0.447	52.064	-6.89543829826088	draw_card	0.447	columbia_card_task_fmri	15.0	0.75	89.0	-80.0	0.25	12.0	5.0	2.0	7.992044746421136	0.447	n/a	stim	poldrack-single-stim	s612	False	1
52.067	0.611	52.678	-10.288295441118018	end_round	0.611	columbia_card_task_fmri	15.0	0.7142857142857143	71.0	-80.0	0.2857142857142857	12.0	6.0	2.0	9.77073168335167	0.611	5.0	stim	poldrack-single-stim	s612	False	1
53.432	1.5	52.681	n/a	-1.0	2.318	columbia_card_task_fmri	n/a	n/a	-1.0	n/a	n/a	n/a	n/a	n/a	n/a	n/a	n/a	ITI	poldrack-single-stim	s612	False	0
55.003	0.479	55.482	0.0545617017391215	draw_card	0.479	columbia_card_task_fmri	14.0	0.8	89.0	-65.0	0.2	15.0	1.0	3.0	-1.5315716318718664	0.479	n/a	stim	poldrack-single-stim	s612	False	1
55.483	0.304	55.787	-1.0740097268323066	draw_card	0.304	columbia_card_task_fmri	14.0	0.7857142857142857	89.0	-65.0	0.2142857142857142	15.0	2.0	3.0	-0.7171913375008998	0.304	n/a	stim	poldrack-single-stim	s612	False	1
55.79	0.3	56.09	-2.3762075290301112	draw_card	0.3	columbia_card_task_fmri	14.0	0.7692307692307692	89.0	-65.0	0.2307692307692307	15.0	3.0	3.0	0.1503591350080881	0.3	n/a	stim	poldrack-single-stim	s612	False	1
56.093	0.3	56.393	-3.89543829826088	draw_card	0.3	columbia_card_task_fmri	14.0	0.75	89.0	-65.0	0.25	15.0	4.0	3.0	1.0722926891063125	0.3	n/a	stim	poldrack-single-stim	s612	False	1
56.395	0.579	56.974	-5.6908928437154245	draw_card	0.579	columbia_card_task_fmri	14.0	0.7272727272727273	89.0	-65.0	0.2727272727272727	15.0	5.0	3.0	2.0464782160542043	0.579	n/a	stim	poldrack-single-stim	s612	False	1
56.976	0.365	57.341	-7.845438298260881	draw_card	0.365	columbia_card_task_fmri	14.0	0.7	89.0	-65.0	0.3	15.0	6.0	3.0	3.063873574486635	0.365	n/a	stim	poldrack-single-stim	s612	False	1
57.344	0.466	57.81	-10.47877163159421	draw_card	0.466	columbia_card_task_fmri	14.0	0.6666666666666667	89.0	-65.0	0.3333333333333333	15.0	7.0	3.0	4.101160466528526	0.466	n/a	stim	poldrack-single-stim	s612	False	1
57.811	1.505	59.316	-13.77043829826088	end_round	1.505	columbia_card_task_fmri	14.0	0.625	71.0	-65.0	0.375	15.0	8.0	3.0	5.104702927814813	1.505	7.0	stim	poldrack-single-stim	s612	False	1
60.072	1.5	59.321	n/a	-1.0	2.25	columbia_card_task_fmri	n/a	n/a	-1.0	n/a	n/a	n/a	n/a	n/a	n/a	n/a	n/a	ITI	poldrack-single-stim	s612	False	0
61.574	0.653	62.227	-0.0204382982608795	draw_card	0.653	columbia_card_task_fmri	1.0	0.9375	89.0	-45.0	0.0625	16.0	1.0	1.0	-21.897731776411185	0.653	1.0	stim	poldrack-single-stim	s612	False	0
62.981	1.5	62.23	n/a	-1.0	2.454	columbia_card_task_fmri	n/a	n/a	-1.0	n/a	n/a	n/a	n/a	n/a	n/a	n/a	n/a	ITI	poldrack-single-stim	s612	False	0
64.688	0.43	65.118	0.9170617017391204	draw_card	0.43	columbia_card_task_fmri	15.0	0.8125	89.0	-70.0	0.1875	16.0	1.0	3.0	0.0424005020359601	0.43	n/a	stim	poldrack-single-stim	s612	False	1
65.121	0.348	65.469	-0.1454382982608795	draw_card	0.348	columbia_card_task_fmri	15.0	0.8	89.0	-70.0	0.2	16.0	2.0	3.0	0.8645961097043013	0.348	n/a	stim	poldrack-single-stim	s612	False	1
65.471	0.295	65.766	-1.3597240125465948	draw_card	0.295	columbia_card_task_fmri	15.0	0.7857142857142857	89.0	-70.0	0.2142857142857142	16.0	3.0	3.0	1.7410278179937109	0.295	n/a	stim	poldrack-single-stim	s612	False	1
65.768	0.287	66.055	-2.7608229136454963	draw_card	0.287	columbia_card_task_fmri	15.0	0.7692307692307692	89.0	-70.0	0.2307692307692307	16.0	4.0	3.0	2.674670247709628	0.287	n/a	stim	poldrack-single-stim	s612	False	1
66.058	0.324	66.382	-4.39543829826088	draw_card	0.324	columbia_card_task_fmri	15.0	0.75	89.0	-70.0	0.25	16.0	5.0	3.0	3.6668275661345504	0.324	n/a	stim	poldrack-single-stim	s612	False	1
66.385	1.077	67.462	-6.327256480079059	draw_card	1.077	columbia_card_task_fmri	15.0	0.7272727272727273	89.0	-70.0	0.2727272727272727	16.0	6.0	3.0	4.715205319413876	1.077	n/a	stim	poldrack-single-stim	s612	False	1
67.466	0.484	67.95	-8.64543829826088	draw_card	0.484	columbia_card_task_fmri	15.0	0.7	89.0	-70.0	0.3	16.0	7.0	3.0	5.810072010866705	0.484	n/a	stim	poldrack-single-stim	s612	False	1
67.952	0.722	68.674	-11.47877163159421	end_round	0.722	columbia_card_task_fmri	15.0	0.6666666666666667	71.0	-70.0	0.3333333333333333	16.0	8.0	3.0	6.926333627037494	0.722	7.0	stim	poldrack-single-stim	s612	False	1
69.427	1.5	68.676	n/a	-1.0	2.318	columbia_card_task_fmri	n/a	n/a	-1.0	n/a	n/a	n/a	n/a	n/a	n/a	n/a	n/a	ITI	poldrack-single-stim	s612	False	0
70.998	0.562	71.56	7.85456170173912	draw_card	0.562	columbia_card_task_fmri	30.0	0.7	89.0	-50.0	0.3	10.0	1.0	3.0	3.521538515236351	0.562	n/a	stim	poldrack-single-stim	s612	False	1
71.563	0.294	71.857	5.18789503507246	draw_card	0.294	columbia_card_task_fmri	30.0	0.6666666666666667	89.0	-50.0	0.3333333333333333	10.0	2.0	3.0	4.571988824886013	0.294	n/a	stim	poldrack-single-stim	s612	False	1
71.86	0.279	72.139	1.8545617017391205	draw_card	0.279	columbia_card_task_fmri	30.0	0.625	89.0	-50.0	0.375	10.0	3.0	3.0	5.588264766706665	0.279	n/a	stim	poldrack-single-stim	s612	False	1
72.142	0.268	72.41	-2.431152583975164	draw_card	0.268	columbia_card_task_fmri	30.0	0.5714285714285714	89.0	-50.0	0.4285714285714285	10.0	4.0	3.0	6.447201236022401	0.268	n/a	stim	poldrack-single-stim	s612	False	1
72.413	0.373	72.786	-8.14543829826088	draw_card	0.373	columbia_card_task_fmri	30.0	0.5	89.0	-50.0	0.5	10.0	5.0	3.0	6.857023686122233	0.373	n/a	stim	poldrack-single-stim	s612	False	1
72.788	0.727	73.515	-16.145438298260878	end_round	0.727	columbia_card_task_fmri	30.0	0.4	71.0	-50.0	0.6	10.0	6.0	3.0	6.04974465068927	0.727	5.0	stim	poldrack-single-stim	s612	False	1
74.27	1.5	73.519	n/a	-1.0	2.318	columbia_card_task_fmri	n/a	n/a	-1.0	n/a	n/a	n/a	n/a	n/a	n/a	n/a	n/a	ITI	poldrack-single-stim	s612	False	0
75.841	0.477	76.318	7.254561701739121	draw_card	0.477	columbia_card_task_fmri	17.0	0.8666666666666667	89.0	-70.0	0.1333333333333333	15.0	1.0	2.0	-3.5535411782896595	0.477	n/a	stim	poldrack-single-stim	s612	False	1
76.321	0.258	76.579	6.425990273167693	draw_card	0.258	columbia_card_task_fmri	17.0	0.8571428571428572	89.0	-70.0	0.1428571428571428	15.0	2.0	2.0	-2.685851860327059	0.258	2.0	stim	poldrack-single-stim	s612	False	0
77.337	1.5	76.586	n/a	-1.0	2.59	columbia_card_task_fmri	n/a	n/a	-1.0	n/a	n/a	n/a	n/a	n/a	n/a	n/a	n/a	ITI	poldrack-single-stim	s612	False	0
79.178	0.656	79.834	2.4795617017391205	draw_card	0.656	columbia_card_task_fmri	7.0	0.9375	89.0	-95.0	0.0625	16.0	1.0	1.0	-8.426123952598292	0.656	1.0	stim	poldrack-single-stim	s612	False	0
80.589	1.5	79.838	n/a	-1.0	2.25	columbia_card_task_fmri	n/a	n/a	-1.0	n/a	n/a	n/a	n/a	n/a	n/a	n/a	n/a	ITI	poldrack-single-stim	s612	False	0
82.092	0.62	82.712	4.0420617017391205	draw_card	0.62	columbia_card_task_fmri	9.0	0.9375	89.0	-100.0	0.0625	16.0	1.0	1.0	-6.73614907251855	0.62	n/a	stim	poldrack-single-stim	s612	False	1
82.714	0.38	83.094	3.587895035072454	draw_card	0.38	columbia_card_task_fmri	9.0	0.9333333333333332	89.0	-100.0	0.0666666666666666	16.0	2.0	1.0	-5.933393157709382	0.38	n/a	stim	poldrack-single-stim	s612	False	1
83.096	0.378	83.474	3.068847416024836	draw_card	0.378	columbia_card_task_fmri	9.0	0.9285714285714286	89.0	-100.0	0.0714285714285714	16.0	3.0	1.0	-5.052959580294434	0.378	n/a	stim	poldrack-single-stim	s612	False	1
83.477	0.407	83.884	2.4699463171237364	draw_card	0.407	columbia_card_task_fmri	9.0	0.9230769230769232	89.0	-100.0	0.0769230769230769	16.0	4.0	1.0	-4.081638466571569	0.407	n/a	stim	poldrack-single-stim	s612	False	1
83.886	0.498	84.384	1.7712283684057883	draw_card	0.498	columbia_card_task_fmri	9.0	0.9166666666666666	89.0	-100.0	0.0833333333333333	16.0	5.0	1.0	-3.002907638834568	0.498	n/a	stim	poldrack-single-stim	s612	False	1
84.386	0.457	84.843	0.9454707926482104	draw_card	0.457	columbia_card_task_fmri	9.0	0.9090909090909092	89.0	-100.0	0.0909090909090909	16.0	6.0	1.0	-1.7958162943499405	0.457	n/a	stim	poldrack-single-stim	s612	False	1
84.846	0.636	85.482	-0.0454382982608798	end_round	0.636	columbia_card_task_fmri	9.0	0.9	71.0	-100.0	0.1	16.0	7.0	1.0	-0.4333977442407146	0.636	6.0	stim	poldrack-single-stim	s612	False	1
86.237	1.5	85.486	n/a	-1.0	2.25	columbia_card_task_fmri	n/a	n/a	-1.0	n/a	n/a	n/a	n/a	n/a	n/a	n/a	n/a	ITI	poldrack-single-stim	s612	False	0
87.739	0.612	88.351	4.9795617017391205	draw_card	0.612	columbia_card_task_fmri	15.0	0.875	89.0	-80.0	0.125	16.0	1.0	2.0	-1.7129608931318678	0.612	n/a	stim	poldrack-single-stim	s612	False	1
88.354	0.328	88.682	4.187895035072454	draw_card	0.328	columbia_card_task_fmri	15.0	0.8666666666666667	89.0	-80.0	0.1333333333333333	16.0	2.0	2.0	-0.8389475935000235	0.328	n/a	stim	poldrack-single-stim	s612	False	1
88.686	0.253	88.939	3.283133130310551	draw_card	0.253	columbia_card_task_fmri	15.0	0.8571428571428572	89.0	-80.0	0.1428571428571428	16.0	3.0	2.0	0.1088202307828609	0.253	n/a	stim	poldrack-single-stim	s612	False	1
88.941	0.322	89.263	2.239177086354504	draw_card	0.322	columbia_card_task_fmri	15.0	0.8461538461538461	89.0	-80.0	0.1538461538461538	16.0	4.0	2.0	1.1403047291921808	0.322	n/a	stim	poldrack-single-stim	s612	False	1
89.266	0.33	89.596	1.0212283684057883	draw_card	0.33	columbia_card_task_fmri	15.0	0.8333333333333334	89.0	-80.0	0.1666666666666666	16.0	5.0	2.0	2.2670036793102284	0.33	n/a	stim	poldrack-single-stim	s612	False	1
89.598	0.37	89.968	-0.4181655709881546	draw_card	0.37	columbia_card_task_fmri	15.0	0.8181818181818181	89.0	-80.0	0.1818181818181818	16.0	6.0	2.0	3.501945775033072	0.37	n/a	stim	poldrack-single-stim	s612	False	1
89.971	0.989	90.96	-2.1454382982608795	end_round	0.989	columbia_card_task_fmri	15.0	0.8	71.0	-80.0	0.2	16.0	7.0	2.0	4.8592826124980135	0.989	6.0	stim	poldrack-single-stim	s612	False	1
91.714	1.5	90.963	n/a	-1.0	2.522	columbia_card_task_fmri	n/a	n/a	-1.0	n/a	n/a	n/a	n/a	n/a	n/a	n/a	n/a	ITI	poldrack-single-stim	s612	False	0
93.489	0.529	94.018	7.1045617017391205	draw_card	0.529	columbia_card_task_fmri	16.0	0.875	89.0	-70.0	0.125	16.0	1.0	2.0	-4.683719509920969	0.529	n/a	stim	poldrack-single-stim	s612	False	1
94.02	0.283	94.303	6.387895035072454	draw_card	0.283	columbia_card_task_fmri	16.0	0.8666666666666667	89.0	-70.0	0.1333333333333333	16.0	2.0	2.0	-3.892801678867304	0.283	n/a	stim	poldrack-single-stim	s612	False	1
94.306	0.318	94.624	5.568847416024836	draw_card	0.318	columbia_card_task_fmri	16.0	0.8571428571428572	89.0	-70.0	0.1428571428571428	16.0	3.0	2.0	-3.035123973626053	0.318	3.0	stim	poldrack-single-stim	s612	False	0
95.377	1.5	94.626	n/a	-1.0	2.454	columbia_card_task_fmri	n/a	n/a	-1.0	n/a	n/a	n/a	n/a	n/a	n/a	n/a	n/a	ITI	poldrack-single-stim	s612	False	0
97.084	0.494	97.578	8.41706170173912	draw_card	0.494	columbia_card_task_fmri	30.0	0.6875	89.0	-45.0	0.3125	16.0	1.0	5.0	1.6269181760048923	0.494	n/a	stim	poldrack-single-stim	s612	False	1
97.581	0.3	97.881	6.854561701739124	draw_card	0.3	columbia_card_task_fmri	30.0	0.6666666666666667	89.0	-45.0	0.3333333333333333	16.0	2.0	5.0	2.218000372040791	0.3	n/a	stim	poldrack-single-stim	s612	False	1
97.885	0.311	98.196	5.068847416024832	draw_card	0.311	columbia_card_task_fmri	30.0	0.6428571428571428	89.0	-45.0	0.3571428571428571	16.0	3.0	5.0	2.7986826720956657	0.311	n/a	stim	poldrack-single-stim	s612	False	1
98.199	0.303	98.502	3.008407855585274	draw_card	0.303	columbia_card_task_fmri	30.0	0.6153846153846154	89.0	-45.0	0.3846153846153846	16.0	4.0	5.0	3.3489738177073107	0.303	n/a	stim	poldrack-single-stim	s612	False	1
98.506	0.315	98.821	0.6045617017391169	draw_card	0.315	columbia_card_task_fmri	30.0	0.5833333333333333	89.0	-45.0	0.4166666666666667	16.0	5.0	5.0	3.836032872157844	0.315	5.0	stim	poldrack-single-stim	s612	False	0
99.576	1.5	98.825	n/a	-1.0	2.25	columbia_card_task_fmri	n/a	n/a	-1.0	n/a	n/a	n/a	n/a	n/a	n/a	n/a	n/a	ITI	poldrack-single-stim	s612	False	0
101.08	0.67	101.75	0.1878950350724544	draw_card	0.67	columbia_card_task_fmri	13.0	0.8333333333333334	89.0	-75.0	0.1666666666666666	6.0	1.0	1.0	-0.3378871097962204	0.67	n/a	stim	poldrack-single-stim	s612	False	1
101.753	0.409	102.162	-2.745438298260879	draw_card	0.409	columbia_card_task_fmri	13.0	0.8	89.0	-75.0	0.2	6.0	2.0	1.0	2.0628755211292287	0.409	2.0	stim	poldrack-single-stim	s612	False	0
102.92	1.5	102.169	n/a	-1.0	2.454	columbia_card_task_fmri	n/a	n/a	-1.0	n/a	n/a	n/a	n/a	n/a	n/a	n/a	n/a	ITI	poldrack-single-stim	s612	False	0
104.628	0.601	105.229	1.8545617017391225	draw_card	0.601	columbia_card_task_fmri	14.0	0.8333333333333334	89.0	-70.0	0.1666666666666666	6.0	1.0	1.0	-1.8261083653043144	0.601	n/a	stim	poldrack-single-stim	s612	False	1
105.231	0.456	105.687	-0.9454382982608784	draw_card	0.456	columbia_card_task_fmri	14.0	0.8	89.0	-70.0	0.2	6.0	2.0	1.0	0.4651968891135141	0.456	2.0	stim	poldrack-single-stim	s612	False	0
106.44	1.5	105.689	n/a	-1.0	2.454	columbia_card_task_fmri	n/a	n/a	-1.0	n/a	n/a	n/a	n/a	n/a	n/a	n/a	n/a	ITI	poldrack-single-stim	s612	False	0
108.147	0.549	108.696	1.8545617017391225	draw_card	0.549	columbia_card_task_fmri	16.0	0.8333333333333334	89.0	-80.0	0.1666666666666666	6.0	1.0	1.0	2.639176734578492	0.549	n/a	stim	poldrack-single-stim	s612	False	1
108.699	0.328	109.027	-1.3454382982608788	draw_card	0.328	columbia_card_task_fmri	16.0	0.8	89.0	-80.0	0.2	6.0	2.0	1.0	5.2588120353748735	0.328	n/a	stim	poldrack-single-stim	s612	False	1
109.029	0.621	109.65	-6.14543829826088	end_round	0.621	columbia_card_task_fmri	16.0	0.75	71.0	-80.0	0.25	6.0	3.0	1.0	8.424622635287015	0.621	2.0	stim	poldrack-single-stim	s612	False	1
110.404	1.5	109.653	n/a	-1.0	2.522	columbia_card_task_fmri	n/a	n/a	-1.0	n/a	n/a	n/a	n/a	n/a	n/a	n/a	n/a	ITI	poldrack-single-stim	s612	False	0
112.178	0.475	112.653	4.354561701739122	draw_card	0.475	columbia_card_task_fmri	17.0	0.8333333333333334	89.0	-70.0	0.1666666666666666	6.0	1.0	1.0	-0.7099638425245729	0.475	n/a	stim	poldrack-single-stim	s612	False	1
112.656	0.295	112.951	1.454561701739122	draw_card	0.295	columbia_card_task_fmri	17.0	0.8	89.0	-70.0	0.2	6.0	2.0	1.0	1.6634358941913234	0.295	n/a	stim	poldrack-single-stim	s612	False	1
112.953	0.656	113.609	-2.8954382982608795	end_round	0.656	columbia_card_task_fmri	17.0	0.75	71.0	-70.0	0.25	6.0	3.0	1.0	4.531780866764485	0.656	2.0	stim	poldrack-single-stim	s612	False	1
114.365	1.5	113.614	n/a	-1.0	2.454	columbia_card_task_fmri	n/a	n/a	-1.0	n/a	n/a	n/a	n/a	n/a	n/a	n/a	n/a	ITI	poldrack-single-stim	s612	False	0
116.071	0.547	116.618	4.3545617017391205	draw_card	0.547	columbia_card_task_fmri	25.0	0.75	89.0	-65.0	0.25	8.0	1.0	2.0	5.829300003511115	0.547	n/a	stim	poldrack-single-stim	s612	False	1
116.621	0.348	116.969	1.1402759874534087	draw_card	0.348	columbia_card_task_fmri	25.0	0.7142857142857143	89.0	-65.0	0.2857142857142857	8.0	2.0	2.0	7.514184787719515	0.348	n/a	stim	poldrack-single-stim	s612	False	1
116.972	0.288	117.26	-3.145438298260876	draw_card	0.288	columbia_card_task_fmri	25.0	0.6666666666666667	89.0	-65.0	0.3333333333333333	8.0	3.0	2.0	9.280975511056468	0.288	3.0	stim	poldrack-single-stim	s612	False	0
118.017	1.5	117.266	n/a	-1.0	2.658	columbia_card_task_fmri	n/a	n/a	-1.0	n/a	n/a	n/a	n/a	n/a	n/a	n/a	n/a	ITI	poldrack-single-stim	s612	False	0
119.929	0.542	120.471	4.3545617017391205	draw_card	0.542	columbia_card_task_fmri	30.0	0.75	89.0	-80.0	0.25	8.0	1.0	2.0	14.481542139261222	0.542	n/a	stim	poldrack-single-stim	s612	False	1
120.475	0.3	120.775	0.425990273167697	draw_card	0.3	columbia_card_task_fmri	30.0	0.7142857142857143	89.0	-80.0	0.2857142857142857	8.0	2.0	2.0	16.541583415300956	0.3	n/a	stim	poldrack-single-stim	s612	False	1
120.778	0.282	121.06	-4.81210496492754	draw_card	0.282	columbia_card_task_fmri	30.0	0.6666666666666667	89.0	-80.0	0.3333333333333333	8.0	3.0	2.0	18.70170490783039	0.282	n/a	stim	poldrack-single-stim	s612	False	1
121.064	0.364	121.428	-12.14543829826088	draw_card	0.364	columbia_card_task_fmri	30.0	0.6	89.0	-80.0	0.4	8.0	4.0	2.0	20.734731193169523	0.364	4.0	stim	poldrack-single-stim	s612	False	0
122.182	1.5	121.431	n/a	-1.0	2.386	columbia_card_task_fmri	n/a	n/a	-1.0	n/a	n/a	n/a	n/a	n/a	n/a	n/a	n/a	ITI	poldrack-single-stim	s612	False	0
123.822	0.573	124.395	4.054561701739122	draw_card	0.573	columbia_card_task_fmri	13.0	0.9	89.0	-95.0	0.1	10.0	1.0	1.0	-0.7329119803593684	0.573	n/a	stim	poldrack-single-stim	s612	False	1
124.398	0.285	124.683	2.8545617017391205	draw_card	0.285	columbia_card_task_fmri	13.0	0.8888888888888888	89.0	-95.0	0.1111111111111111	10.0	2.0	1.0	0.805809146390807	0.285	n/a	stim	poldrack-single-stim	s612	False	1
124.688	0.295	124.983	1.3545617017391205	draw_card	0.295	columbia_card_task_fmri	13.0	0.875	89.0	-95.0	0.125	10.0	3.0	1.0	2.579811630934266	0.295	3.0	stim	poldrack-single-stim	s612	False	0
125.737	1.5	124.986	n/a	-1.0	2.522	columbia_card_task_fmri	n/a	n/a	-1.0	n/a	n/a	n/a	n/a	n/a	n/a	n/a	n/a	ITI	poldrack-single-stim	s612	False	0
127.513	0.491	128.004	5.45456170173912	draw_card	0.491	columbia_card_task_fmri	14.0	0.9	89.0	-90.0	0.1	10.0	1.0	1.0	-1.930875748655985	0.491	n/a	stim	poldrack-single-stim	s612	False	1
128.008	0.28	128.288	4.299006146183563	draw_card	0.28	columbia_card_task_fmri	14.0	0.8888888888888888	89.0	-90.0	0.1111111111111111	10.0	2.0	1.0	-0.4493253616802022	0.28	n/a	stim	poldrack-single-stim	s612	False	1
128.291	0.314	128.605	2.8545617017391205	draw_card	0.314	columbia_card_task_fmri	14.0	0.875	89.0	-90.0	0.125	10.0	3.0	1.0	1.2587839043419675	0.314	n/a	stim	poldrack-single-stim	s612	False	1
128.609	1.084	129.693	0.9974188445962646	end_round	1.084	columbia_card_task_fmri	14.0	0.8571428571428572	71.0	-90.0	0.1428571428571428	10.0	4.0	1.0	3.2536970080383227	1.084	3.0	stim	poldrack-single-stim	s612	False	1
130.448	1.5	129.697	n/a	-1.0	2.59	columbia_card_task_fmri	n/a	n/a	-1.0	n/a	n/a	n/a	n/a	n/a	n/a	n/a	n/a	ITI	poldrack-single-stim	s612	False	0
132.292	0.441	132.733	0.6545617017391212	draw_card	0.441	columbia_card_task_fmri	16.0	0.8	89.0	-70.0	0.2	10.0	1.0	2.0	1.264009271175091	0.441	n/a	stim	poldrack-single-stim	s612	False	1
132.737	0.319	133.056	-1.2565494093719902	draw_card	0.319	columbia_card_task_fmri	16.0	0.7777777777777778	89.0	-70.0	0.2222222222222222	10.0	2.0	2.0	2.6157356167753605	0.319	n/a	stim	poldrack-single-stim	s612	False	1
133.06	0.275	133.335	-3.64543829826088	draw_card	0.275	columbia_card_task_fmri	16.0	0.75	89.0	-70.0	0.25	10.0	3.0	2.0	4.099297994860933	0.275	n/a	stim	poldrack-single-stim	s612	False	1
133.339	1.059	134.398	-6.716866869689451	end_round	1.059	columbia_card_task_fmri	16.0	0.7142857142857143	71.0	-70.0	0.2857142857142857	10.0	4.0	2.0	5.70913306856567	1.059	3.0	stim	poldrack-single-stim	s612	False	1
135.153	1.5	134.402	n/a	-1.0	2.386	columbia_card_task_fmri	n/a	n/a	-1.0	n/a	n/a	n/a	n/a	n/a	n/a	n/a	n/a	ITI	poldrack-single-stim	s612	False	0
136.791	0.581	137.372	-0.0621049649275455	draw_card	0.581	columbia_card_task_fmri	7.0	0.9166666666666666	89.0	-100.0	0.0833333333333333	12.0	1.0	1.0	-3.5546145347077847	0.581	n/a	stim	poldrack-single-stim	s612	False	1
137.376	0.307	137.683	-0.8727110255336079	draw_card	0.307	columbia_card_task_fmri	7.0	0.9090909090909092	89.0	-100.0	0.0909090909090909	12.0	2.0	1.0	-2.3697528009559043	0.307	2.0	stim	poldrack-single-stim	s612	False	0
138.437	1.5	137.686	n/a	-1.0	2.59	columbia_card_task_fmri	n/a	n/a	-1.0	n/a	n/a	n/a	n/a	n/a	n/a	n/a	n/a	ITI	poldrack-single-stim	s612	False	0
140.281	0.746	141.027	0.1878950350724562	draw_card	0.746	columbia_card_task_fmri	14.0	0.8333333333333334	89.0	-80.0	0.1666666666666666	12.0	1.0	2.0	1.8948413451776744	0.746	n/a	stim	poldrack-single-stim	s612	False	1
141.03	0.577	141.607	-1.236347389169973	draw_card	0.577	columbia_card_task_fmri	14.0	0.8181818181818181	89.0	-80.0	0.1818181818181818	12.0	2.0	2.0	3.116749495016009	0.577	n/a	stim	poldrack-single-stim	s612	False	1
141.61	0.492	142.102	-2.9454382982608784	draw_card	0.492	columbia_card_task_fmri	14.0	0.8	89.0	-80.0	0.2	12.0	3.0	2.0	4.459763183862641	0.492	n/a	stim	poldrack-single-stim	s612	False	1
142.105	0.49	142.595	-5.034327187149769	draw_card	0.49	columbia_card_task_fmri	14.0	0.7777777777777778	89.0	-80.0	0.2222222222222222	12.0	4.0	2.0	5.937567356007087	0.49	n/a	stim	poldrack-single-stim	s612	False	1
142.599	1.035	143.634	-7.645438298260879	draw_card	1.035	columbia_card_task_fmri	14.0	0.75	89.0	-80.0	0.25	12.0	5.0	2.0	7.559476094669272	1.035	n/a	stim	poldrack-single-stim	s612	False	1
143.637	0.708	144.345	-11.002581155403734	end_round	0.708	columbia_card_task_fmri	14.0	0.7142857142857143	71.0	-80.0	0.2857142857142857	12.0	6.0	2.0	9.319403413573385	0.708	5.0	stim	poldrack-single-stim	s612	False	1
145.099	1.5	144.348	n/a	-1.0	2.318	columbia_card_task_fmri	n/a	n/a	-1.0	n/a	n/a	n/a	n/a	n/a	n/a	n/a	n/a	ITI	poldrack-single-stim	s612	False	0
146.671	0.512	147.183	1.8545617017391205	draw_card	0.512	columbia_card_task_fmri	15.0	0.8333333333333334	89.0	-75.0	0.1666666666666666	12.0	1.0	2.0	0.4063063464997469	0.512	n/a	stim	poldrack-single-stim	s612	False	1
147.187	0.441	147.628	0.4909253381027554	draw_card	0.441	columbia_card_task_fmri	15.0	0.8181818181818181	89.0	-75.0	0.1818181818181818	12.0	2.0	2.0	1.576074885511744	0.441	2.0	stim	poldrack-single-stim	s612	False	0
148.383	1.5	147.632	n/a	-1.0	2.25	columbia_card_task_fmri	n/a	n/a	-1.0	n/a	n/a	n/a	n/a	n/a	n/a	n/a	n/a	ITI	poldrack-single-stim	s612	False	0
149.887	0.55	150.437	0.8545617017391205	draw_card	0.55	columbia_card_task_fmri	15.0	0.8	89.0	-65.0	0.2	15.0	1.0	3.0	-1.1322501622533778	0.55	n/a	stim	poldrack-single-stim	s612	False	1
150.44	0.38	150.82	-0.2882954411180218	draw_card	0.38	columbia_card_task_fmri	15.0	0.7857142857142857	89.0	-65.0	0.2142857142857142	15.0	2.0	3.0	-0.3075269728673433	0.38	n/a	stim	poldrack-single-stim	s612	False	1
150.824	0.37	151.194	-1.606976759799343	draw_card	0.37	columbia_card_task_fmri	15.0	0.7692307692307692	89.0	-65.0	0.2307692307692307	15.0	3.0	3.0	0.5710398304672992	0.37	n/a	stim	poldrack-single-stim	s612	False	1
151.197	0.375	151.572	-3.1454382982608795	draw_card	0.375	columbia_card_task_fmri	15.0	0.75	89.0	-65.0	0.25	15.0	4.0	3.0	1.504678357587757	0.375	4.0	stim	poldrack-single-stim	s612	False	0
152.329	1.5	151.578	n/a	-1.0	2.454	columbia_card_task_fmri	n/a	n/a	-1.0	n/a	n/a	n/a	n/a	n/a	n/a	n/a	n/a	ITI	poldrack-single-stim	s612	False	0
154.037	0.513	154.55	0.1045617017391205	draw_card	0.513	columbia_card_task_fmri	14.0	0.8125	89.0	-70.0	0.1875	16.0	1.0	3.0	-0.3472962516694764	0.513	n/a	stim	poldrack-single-stim	s612	False	1
154.554	0.38	154.934	-0.9454382982608784	draw_card	0.38	columbia_card_task_fmri	14.0	0.8	89.0	-70.0	0.2	16.0	2.0	3.0	0.4651968891135141	0.38	n/a	stim	poldrack-single-stim	s612	False	1
154.938	0.354	155.292	-2.1454382982608795	draw_card	0.354	columbia_card_task_fmri	14.0	0.7857142857142857	89.0	-70.0	0.2142857142857142	16.0	3.0	3.0	1.3312876409398058	0.354	n/a	stim	poldrack-single-stim	s612	False	1
155.297	0.423	155.72	-3.5300536828762645	draw_card	0.423	columbia_card_task_fmri	14.0	0.7692307692307692	89.0	-70.0	0.2307692307692307	16.0	4.0	3.0	2.253915701655352	0.423	n/a	stim	poldrack-single-stim	s612	False	1
155.724	1.299	157.023	-5.14543829826088	end_round	1.299	columbia_card_task_fmri	14.0	0.75	71.0	-70.0	0.25	16.0	5.0	3.0	3.2343700238522004	1.299	4.0	stim	poldrack-single-stim	s612	False	1
157.778	1.5	157.027	n/a	-1.0	3.27	columbia_card_task_fmri	n/a	n/a	-1.0	n/a	n/a	n/a	n/a	n/a	n/a	n/a	n/a	ITI	poldrack-single-stim	s612	False	0
160.3	0.587	160.887	0.0420617017391204	draw_card	0.587	columbia_card_task_fmri	11.0	0.6875	89.0	-30.0	0.3125	16.0	1.0	5.0	-14.091660115707455	0.587	n/a	stim	poldrack-single-stim	s612	False	1
160.891	0.343	161.234	-0.8121049649275456	draw_card	0.343	columbia_card_task_fmri	11.0	0.6666666666666667	89.0	-30.0	0.3333333333333333	16.0	2.0	5.0	-13.769587808644149	0.343	n/a	stim	poldrack-single-stim	s612	False	1
161.237	0.334	161.571	-1.7882954411180236	draw_card	0.334	columbia_card_task_fmri	11.0	0.6428571428571428	89.0	-30.0	0.3571428571428571	16.0	3.0	5.0	-13.453148743002732	0.334	n/a	stim	poldrack-single-stim	s612	False	1
161.575	0.354	161.929	-2.914669067491648	draw_card	0.354	columbia_card_task_fmri	11.0	0.6153846153846154	89.0	-30.0	0.3846153846153846	16.0	4.0	5.0	-13.153241921767036	0.354	n/a	stim	poldrack-single-stim	s612	False	1
161.934	1.482	163.416	-4.228771631594213	end_round	1.482	columbia_card_task_fmri	11.0	0.5833333333333333	71.0	-30.0	0.4166666666666667	16.0	5.0	5.0	-12.88777368728265	1.482	4.0	stim	poldrack-single-stim	s612	False	1
164.17	1.5	163.419	n/a	-1.0	2.25	columbia_card_task_fmri	n/a	n/a	-1.0	n/a	n/a	n/a	n/a	n/a	n/a	n/a	n/a	ITI	poldrack-single-stim	s612	False	0
165.674	0.495	166.169	4.8545617017391205	draw_card	0.495	columbia_card_task_fmri	15.0	0.8666666666666667	89.0	-75.0	0.1333333333333333	15.0	1.0	2.0	-2.535670045590084	0.495	n/a	stim	poldrack-single-stim	s612	False	1
166.173	0.328	166.501	3.9974188445962646	draw_card	0.328	columbia_card_task_fmri	15.0	0.8571428571428572	89.0	-75.0	0.1428571428571428	15.0	2.0	2.0	-1.6379484205565866	0.328	n/a	stim	poldrack-single-stim	s612	False	1
166.505	0.283	166.788	3.008407855585274	draw_card	0.283	columbia_card_task_fmri	15.0	0.8461538461538461	89.0	-75.0	0.1538461538461538	15.0	3.0	2.0	-0.6609204513196332	0.283	n/a	stim	poldrack-single-stim	s612	False	1
166.793	0.332	167.125	1.8545617017391205	draw_card	0.332	columbia_card_task_fmri	15.0	0.8333333333333334	89.0	-75.0	0.1666666666666666	15.0	4.0	2.0	0.4063063464997469	0.332	n/a	stim	poldrack-single-stim	s612	False	1
167.128	0.877	168.005	0.4909253381027554	end_round	0.877	columbia_card_task_fmri	15.0	0.8181818181818181	71.0	-75.0	0.1818181818181818	15.0	5.0	2.0	1.576074885511744	0.877	4.0	stim	poldrack-single-stim	s612	False	1
168.763	1.5	168.012	n/a	-1.0	2.25	columbia_card_task_fmri	n/a	n/a	-1.0	n/a	n/a	n/a	n/a	n/a	n/a	n/a	n/a	ITI	poldrack-single-stim	s612	False	0
170.267	0.701	170.968	6.587895035072455	draw_card	0.701	columbia_card_task_fmri	17.0	0.8666666666666667	89.0	-75.0	0.1333333333333333	15.0	1.0	2.0	-1.85701945152762	0.701	n/a	stim	poldrack-single-stim	s612	False	1
170.971	0.298	171.269	5.71170455888198	draw_card	0.298	columbia_card_task_fmri	17.0	0.8571428571428572	89.0	-75.0	0.1428571428571428	15.0	2.0	2.0	-0.9392782615970034	0.298	n/a	stim	poldrack-single-stim	s612	False	1
171.272	0.306	171.578	4.700715547892967	draw_card	0.306	columbia_card_task_fmri	17.0	0.8461538461538461	89.0	-75.0	0.1538461538461538	15.0	3.0	2.0	0.0595334329387782	0.306	n/a	stim	poldrack-single-stim	s612	False	1
171.582	0.286	171.868	3.5212283684057883	draw_card	0.286	columbia_card_task_fmri	17.0	0.8333333333333334	89.0	-75.0	0.1666666666666666	15.0	4.0	2.0	1.1505502347453174	0.286	n/a	stim	poldrack-single-stim	s612	False	1
171.872	2.451	174.323	2.127288974466392	draw_card	2.451	columbia_card_task_fmri	17.0	0.8181818181818181	89.0	-75.0	0.1818181818181818	15.0	5.0	2.0	2.346389369378393	2.451	n/a	stim	poldrack-single-stim	s612	False	1
174.327	0.245	174.572	0.4545617017391219	draw_card	0.245	columbia_card_task_fmri	17.0	0.8	89.0	-75.0	0.2	15.0	6.0	2.0	3.660755609688529	0.245	n/a	stim	poldrack-single-stim	s612	False	1
174.576	1.256	175.832	-1.5898827427053206	draw_card	1.256	columbia_card_task_fmri	17.0	0.7777777777777778	89.0	-75.0	0.2222222222222222	15.0	7.0	2.0	5.107042921751393	1.256	n/a	stim	poldrack-single-stim	s612	False	1
175.835	0.511	176.346	-4.14543829826088	draw_card	0.511	columbia_card_task_fmri	17.0	0.75	89.0	-75.0	0.25	15.0	8.0	2.0	6.694367704804471	0.511	n/a	stim	poldrack-single-stim	s612	False	1
176.351	1.133	177.484	-7.431152583975164	end_round	1.133	columbia_card_task_fmri	17.0	0.7142857142857143	71.0	-75.0	0.2857142857142857	15.0	9.0	2.0	8.416774595209823	1.133	8.0	stim	poldrack-single-stim	s612	False	1
178.241	1.5	177.49	n/a	-1.0	2.318	columbia_card_task_fmri	n/a	n/a	-1.0	n/a	n/a	n/a	n/a	n/a	n/a	n/a	n/a	ITI	poldrack-single-stim	s612	False	0
179.813	0.429	180.242	2.1670617017391205	draw_card	0.429	columbia_card_task_fmri	2.0	0.9375	89.0	-25.0	0.0625	16.0	1.0	1.0	-26.392254321810405	0.429	n/a	stim	poldrack-single-stim	s612	False	1
180.246	0.317	180.563	2.0545617017391207	draw_card	0.317	columbia_card_task_fmri	2.0	0.9333333333333332	89.0	-25.0	0.0666666666666666	16.0	2.0	1.0	-26.200289053468477	0.317	n/a	stim	poldrack-single-stim	s612	False	1
180.567	0.305	180.872	1.925990273167692	draw_card	0.305	columbia_card_task_fmri	2.0	0.9285714285714286	89.0	-25.0	0.0714285714285714	16.0	3.0	1.0	-25.98931874080431	0.305	n/a	stim	poldrack-single-stim	s612	False	1
180.877	0.33	181.207	1.7776386248160436	draw_card	0.33	columbia_card_task_fmri	2.0	0.9230769230769232	89.0	-25.0	0.0769230769230769	16.0	4.0	1.0	-25.75609291732646	0.33	n/a	stim	poldrack-single-stim	s612	False	1
181.211	1.014	182.225	1.6045617017391207	draw_card	1.014	columbia_card_task_fmri	2.0	0.9166666666666666	89.0	-25.0	0.0833333333333333	16.0	5.0	1.0	-25.496543983952236	1.014	n/a	stim	poldrack-single-stim	s612	False	1
182.229	0.37	182.599	1.4000162471936657	draw_card	0.37	columbia_card_task_fmri	2.0	0.9090909090909092	89.0	-25.0	0.0909090909090909	16.0	6.0	1.0	-25.205511337032828	0.37	n/a	stim	poldrack-single-stim	s612	False	1
182.603	0.828	183.431	1.1545617017391203	draw_card	0.828	columbia_card_task_fmri	2.0	0.9	89.0	-25.0	0.1	16.0	7.0	1.0	-24.87634891542966	0.828	7.0	stim	poldrack-single-stim	s612	False	0
184.189	1.5	183.438	n/a	-1.0	2.726	columbia_card_task_fmri	n/a	n/a	-1.0	n/a	n/a	n/a	n/a	n/a	n/a	n/a	n/a	ITI	poldrack-single-stim	s612	False	0
186.17	0.718	186.888	4.3545617017391205	draw_card	0.718	columbia_card_task_fmri	9.0	0.9375	89.0	-95.0	0.0625	16.0	1.0	1.0	-7.943334940793058	0.718	n/a	stim	poldrack-single-stim	s612	False	1
186.892	0.34	187.232	3.921228368405788	draw_card	0.34	columbia_card_task_fmri	9.0	0.9333333333333332	89.0	-95.0	0.0666666666666666	16.0	2.0	1.0	-7.177582555406435	0.34	n/a	stim	poldrack-single-stim	s612	False	1
187.237	0.265	187.502	3.425990273167693	draw_card	0.265	columbia_card_task_fmri	9.0	0.9285714285714286	89.0	-95.0	0.0714285714285714	16.0	3.0	1.0	-6.3377213086406	0.265	n/a	stim	poldrack-single-stim	s612	False	1
187.507	0.289	187.796	2.8545617017391205	draw_card	0.289	columbia_card_task_fmri	9.0	0.9230769230769232	89.0	-95.0	0.0769230769230769	16.0	4.0	1.0	-5.411147810114432	0.289	n/a	stim	poldrack-single-stim	s612	False	1
187.8	0.75	188.55	2.1878950350724544	end_round	0.75	columbia_card_task_fmri	9.0	0.9166666666666666	71.0	-95.0	0.0833333333333333	16.0	5.0	1.0	-4.382098387553487	0.75	4.0	stim	poldrack-single-stim	s612	False	1
189.308	1.5	188.557	n/a	-1.0	2.386	columbia_card_task_fmri	n/a	n/a	-1.0	n/a	n/a	n/a	n/a	n/a	n/a	n/a	n/a	ITI	poldrack-single-stim	s612	False	0
190.949	0.458	191.407	5.9170617017391205	draw_card	0.458	columbia_card_task_fmri	11.0	0.9375	89.0	-100.0	0.0625	16.0	1.0	1.0	-6.253196274572879	0.458	n/a	stim	poldrack-single-stim	s612	False	1
191.412	0.266	191.678	5.454561701739121	draw_card	0.266	columbia_card_task_fmri	11.0	0.9333333333333332	89.0	-100.0	0.0666666666666666	16.0	2.0	1.0	-5.435641236352723	0.266	n/a	stim	poldrack-single-stim	s612	False	1
191.683	0.279	191.962	4.925990273167693	draw_card	0.279	columbia_card_task_fmri	11.0	0.9285714285714286	89.0	-100.0	0.0714285714285714	16.0	3.0	1.0	-4.538981088418232	0.279	n/a	stim	poldrack-single-stim	s612	False	1
191.966	0.284	192.25	4.316100163277583	draw_card	0.284	columbia_card_task_fmri	11.0	0.9230769230769232	89.0	-100.0	0.0769230769230769	16.0	4.0	1.0	-3.5497633705644382	0.284	n/a	stim	poldrack-single-stim	s612	False	1
192.255	0.893	193.148	3.604561701739121	end_round	0.893	columbia_card_task_fmri	11.0	0.9166666666666666	71.0	-100.0	0.0833333333333333	16.0	5.0	1.0	-2.451162510795396	0.893	4.0	stim	poldrack-single-stim	s612	False	1
193.904	1.5	193.153	n/a	-1.0	2.318	columbia_card_task_fmri	n/a	n/a	-1.0	n/a	n/a	n/a	n/a	n/a	n/a	n/a	n/a	ITI	poldrack-single-stim	s612	False	0
195.476	0.467	195.943	6.4795617017391205	draw_card	0.467	columbia_card_task_fmri	16.0	0.875	89.0	-75.0	0.125	16.0	1.0	2.0	-3.0334371357979	0.467	n/a	stim	poldrack-single-stim	s612	False	1
195.947	0.297	196.244	5.721228368405788	draw_card	0.297	columbia_card_task_fmri	16.0	0.8666666666666667	89.0	-75.0	0.1333333333333333	16.0	2.0	2.0	-2.196351426579568	0.297	n/a	stim	poldrack-single-stim	s612	False	1
196.248	0.255	196.503	4.854561701739122	draw_card	0.255	columbia_card_task_fmri	16.0	0.8571428571428572	89.0	-75.0	0.1428571428571428	16.0	3.0	2.0	-1.2886198303636398	0.255	n/a	stim	poldrack-single-stim	s612	False	1
196.507	0.275	196.782	3.854561701739121	draw_card	0.275	columbia_card_task_fmri	16.0	0.8461538461538461	89.0	-75.0	0.1538461538461538	16.0	4.0	2.0	-0.3006998047936093	0.275	n/a	stim	poldrack-single-stim	s612	False	1
196.786	1.03	197.816	2.6878950350724544	end_round	1.03	columbia_card_task_fmri	16.0	0.8333333333333334	71.0	-75.0	0.1666666666666666	16.0	5.0	2.0	0.7784221938278719	1.03	4.0	stim	poldrack-single-stim	s612	False	1
198.572	1.5	197.821	n/a	-1.0	2.25	columbia_card_task_fmri	n/a	n/a	-1.0	n/a	n/a	n/a	n/a	n/a	n/a	n/a	n/a	ITI	poldrack-single-stim	s612	False	0
200.075	0.57	200.645	6.7295617017391205	draw_card	0.57	columbia_card_task_fmri	17.0	0.875	89.0	-80.0	0.125	16.0	1.0	2.0	-1.0526487539522051	0.57	1.0	stim	poldrack-single-stim	s612	False	0
201.403	1.5	200.652	n/a	-1.0	2.25	columbia_card_task_fmri	n/a	n/a	-1.0	n/a	n/a	n/a	n/a	n/a	n/a	n/a	n/a	ITI	poldrack-single-stim	s612	False	0
213.919	1.514	215.433	1.0212283684057883	draw_card	1.514	columbia_card_task_fmri	13.0	0.8333333333333334	89.0	-70.0	0.1666666666666666	6.0	1.0	1.0	-2.1981262666921104	1.514	1.0	stim	poldrack-single-stim	s612	False	0
216.19	1.5	215.439	n/a	-1.0	2.454	columbia_card_task_fmri	n/a	n/a	-1.0	n/a	n/a	n/a	n/a	n/a	n/a	n/a	n/a	ITI	poldrack-single-stim	s612	False	0
217.9	0.7	218.6	1.0212283684057883	draw_card	0.7	columbia_card_task_fmri	15.0	0.8333333333333334	89.0	-80.0	0.1666666666666666	6.0	1.0	1.0	2.2670036793102284	0.7	n/a	stim	poldrack-single-stim	s612	False	1
218.605	0.341	218.946	-2.1454382982608795	draw_card	0.341	columbia_card_task_fmri	15.0	0.8	89.0	-80.0	0.2	6.0	2.0	1.0	4.8592826124980135	0.341	2.0	stim	poldrack-single-stim	s612	False	0
219.701	1.5	218.95	n/a	-1.0	2.454	columbia_card_task_fmri	n/a	n/a	-1.0	n/a	n/a	n/a	n/a	n/a	n/a	n/a	n/a	ITI	poldrack-single-stim	s612	False	0
221.411	0.659	222.07	2.6878950350724544	draw_card	0.659	columbia_card_task_fmri	16.0	0.8333333333333334	89.0	-75.0	0.1666666666666666	6.0	1.0	1.0	0.7784221938278719	0.659	n/a	stim	poldrack-single-stim	s612	False	1
222.075	0.309	222.384	-0.3454382982608788	draw_card	0.309	columbia_card_task_fmri	16.0	0.8	89.0	-75.0	0.2	6.0	2.0	1.0	3.2612681499479166	0.309	2.0	stim	poldrack-single-stim	s612	False	0
223.142	1.5	222.391	n/a	-1.0	2.522	columbia_card_task_fmri	n/a	n/a	-1.0	n/a	n/a	n/a	n/a	n/a	n/a	n/a	n/a	ITI	poldrack-single-stim	s612	False	0
224.919	0.652	225.571	3.854561701739121	draw_card	0.652	columbia_card_task_fmri	21.0	0.75	89.0	-55.0	0.25	8.0	1.0	2.0	-0.2247655393218153	0.652	n/a	stim	poldrack-single-stim	s612	False	1
225.575	0.367	225.942	1.140275987453407	draw_card	0.367	columbia_card_task_fmri	21.0	0.7142857142857143	89.0	-55.0	0.2857142857142857	8.0	2.0	2.0	1.1974064885686104	0.367	n/a	stim	poldrack-single-stim	s612	False	1
225.946	2.078	228.024	-2.47877163159421	end_round	2.078	columbia_card_task_fmri	21.0	0.6666666666666667	71.0	-55.0	0.3333333333333333	8.0	3.0	2.0	2.688766187425749	2.078	2.0	stim	poldrack-single-stim	s612	False	1
228.783	1.5	228.032	n/a	-1.0	2.386	columbia_card_task_fmri	n/a	n/a	-1.0	n/a	n/a	n/a	n/a	n/a	n/a	n/a	n/a	ITI	poldrack-single-stim	s612	False	0
230.424	0.558	230.982	5.1045617017391205	draw_card	0.558	columbia_card_task_fmri	26.0	0.75	89.0	-65.0	0.25	8.0	1.0	2.0	6.261828600781342	0.558	n/a	stim	poldrack-single-stim	s612	False	1
230.987	0.314	231.301	1.854561701739124	draw_card	0.314	columbia_card_task_fmri	26.0	0.7142857142857143	89.0	-65.0	0.2857142857142857	8.0	2.0	2.0	7.965474654670345	0.314	n/a	stim	poldrack-single-stim	s612	False	1
231.305	1.622	232.927	-2.478771631594208	end_round	1.622	columbia_card_task_fmri	26.0	0.6666666666666667	71.0	-65.0	0.3333333333333333	8.0	3.0	2.0	9.751935236843742	1.622	2.0	stim	poldrack-single-stim	s612	False	1
233.687	1.5	232.936	n/a	-1.0	2.454	columbia_card_task_fmri	n/a	n/a	-1.0	n/a	n/a	n/a	n/a	n/a	n/a	n/a	n/a	ITI	poldrack-single-stim	s612	False	0
235.396	0.478	235.874	0.1878950350724544	draw_card	0.478	columbia_card_task_fmri	15.0	0.7777777777777778	89.0	-60.0	0.2222222222222222	9.0	1.0	2.0	-1.950363107601813	0.478	n/a	stim	poldrack-single-stim	s612	False	1
235.878	0.33	236.208	-1.8954382982608795	draw_card	0.33	columbia_card_task_fmri	15.0	0.75	89.0	-60.0	0.25	9.0	2.0	2.0	-0.6570831683246467	0.33	2.0	stim	poldrack-single-stim	s612	False	0
236.964	1.5	236.213	n/a	-1.0	2.522	columbia_card_task_fmri	n/a	n/a	-1.0	n/a	n/a	n/a	n/a	n/a	n/a	n/a	n/a	ITI	poldrack-single-stim	s612	False	0
238.742	0.457	239.199	4.554561701739122	draw_card	0.457	columbia_card_task_fmri	13.0	0.9	89.0	-90.0	0.1	10.0	1.0	1.0	-2.230342044486754	0.457	n/a	stim	poldrack-single-stim	s612	False	1
239.204	0.314	239.518	3.410117257294676	draw_card	0.314	columbia_card_task_fmri	13.0	0.8888888888888888	89.0	-90.0	0.1111111111111111	10.0	2.0	1.0	-0.763085450704807	0.314	n/a	stim	poldrack-single-stim	s612	False	1
239.522	0.273	239.795	1.9795617017391205	draw_card	0.273	columbia_card_task_fmri	13.0	0.875	89.0	-90.0	0.125	10.0	3.0	1.0	0.9285493502197752	0.273	n/a	stim	poldrack-single-stim	s612	False	1
239.8	0.464	240.264	0.1402759874534087	draw_card	0.464	columbia_card_task_fmri	13.0	0.8571428571428572	89.0	-90.0	0.1428571428571428	10.0	4.0	1.0	2.9042277815739723	0.464	n/a	stim	poldrack-single-stim	s612	False	1
240.269	1.063	241.332	-2.3121049649275456	end_round	1.063	columbia_card_task_fmri	13.0	0.8333333333333334	71.0	-90.0	0.1666666666666666	10.0	5.0	1.0	5.244662147841034	1.063	4.0	stim	poldrack-single-stim	s612	False	1
242.088	1.5	241.337	n/a	-1.0	2.522	columbia_card_task_fmri	n/a	n/a	-1.0	n/a	n/a	n/a	n/a	n/a	n/a	n/a	n/a	ITI	poldrack-single-stim	s612	False	0
243.865	0.413	244.278	5.8545617017391205	draw_card	0.413	columbia_card_task_fmri	15.0	0.9	89.0	-95.0	0.1	10.0	1.0	1.0	-0.1338746971038062	0.413	n/a	stim	poldrack-single-stim	s612	False	1
244.282	0.291	244.573	4.632339479516897	draw_card	0.291	columbia_card_task_fmri	15.0	0.8888888888888888	89.0	-95.0	0.1111111111111111	10.0	2.0	1.0	1.4334293074035216	0.291	n/a	stim	poldrack-single-stim	s612	False	1
244.577	0.254	244.831	3.1045617017391205	draw_card	0.254	columbia_card_task_fmri	15.0	0.875	89.0	-95.0	0.125	10.0	3.0	1.0	3.240375791811367	0.254	n/a	stim	poldrack-single-stim	s612	False	1
244.836	0.281	245.117	1.140275987453407	draw_card	0.281	columbia_card_task_fmri	15.0	0.8571428571428572	89.0	-95.0	0.1428571428571428	10.0	4.0	1.0	5.35068687718104	0.281	n/a	stim	poldrack-single-stim	s612	False	1
245.122	1.017	246.139	-1.4787716315942117	end_round	1.017	columbia_card_task_fmri	15.0	0.8333333333333334	71.0	-95.0	0.1666666666666666	10.0	5.0	1.0	7.8505618605567875	1.017	4.0	stim	poldrack-single-stim	s612	False	1
246.898	1.5	246.147	n/a	-1.0	2.59	columbia_card_task_fmri	n/a	n/a	-1.0	n/a	n/a	n/a	n/a	n/a	n/a	n/a	n/a	ITI	poldrack-single-stim	s612	False	0
248.742	0.717	249.459	1.6545617017391212	draw_card	0.717	columbia_card_task_fmri	16.0	0.8	89.0	-65.0	0.2	10.0	1.0	2.0	-0.7329119803593684	0.717	n/a	stim	poldrack-single-stim	s612	False	1
249.463	0.301	249.764	-0.1454382982608777	draw_card	0.301	columbia_card_task_fmri	16.0	0.7777777777777778	89.0	-65.0	0.2222222222222222	10.0	2.0	2.0	0.539999765611455	0.301	n/a	stim	poldrack-single-stim	s612	False	1
249.768	0.283	250.051	-2.3954382982608795	draw_card	0.283	columbia_card_task_fmri	16.0	0.75	89.0	-65.0	0.25	10.0	3.0	2.0	1.93707947558724	0.283	n/a	stim	poldrack-single-stim	s612	False	1
250.056	0.293	250.349	-5.28829544111802	draw_card	0.293	columbia_card_task_fmri	16.0	0.7142857142857143	89.0	-65.0	0.2857142857142857	10.0	4.0	2.0	3.45309071270767	0.293	n/a	stim	poldrack-single-stim	s612	False	1
250.354	1.16	251.514	-9.145438298260876	end_round	1.16	columbia_card_task_fmri	16.0	0.6666666666666667	71.0	-65.0	0.3333333333333333	10.0	5.0	2.0	5.042831384045357	1.16	4.0	stim	poldrack-single-stim	s612	False	1
252.272	1.5	251.521	n/a	-1.0	2.454	columbia_card_task_fmri	n/a	n/a	-1.0	n/a	n/a	n/a	n/a	n/a	n/a	n/a	n/a	ITI	poldrack-single-stim	s612	False	0
253.981	0.664	254.645	0.3545617017391205	draw_card	0.664	columbia_card_task_fmri	7.0	0.9166666666666666	89.0	-95.0	0.0833333333333333	12.0	1.0	1.0	-4.93369981047891	0.664	n/a	stim	poldrack-single-stim	s612	False	1
254.65	0.307	254.957	-0.4181655709881529	draw_card	0.307	columbia_card_task_fmri	7.0	0.9090909090909092	89.0	-95.0	0.0909090909090909	12.0	2.0	1.0	-3.804419046443403	0.307	n/a	stim	poldrack-single-stim	s612	False	1
254.961	0.279	255.24	-1.3454382982608797	draw_card	0.279	columbia_card_task_fmri	7.0	0.9	89.0	-95.0	0.1	12.0	3.0	1.0	-2.5297979039861858	0.279	n/a	stim	poldrack-single-stim	s612	False	1
255.246	0.332	255.578	-2.478771631594213	draw_card	0.332	columbia_card_task_fmri	7.0	0.8888888888888888	89.0	-95.0	0.1111111111111111	12.0	4.0	1.0	-1.0768355725057075	0.332	n/a	stim	poldrack-single-stim	s612	False	1
255.581	1.253	256.834	-3.89543829826088	draw_card	1.253	columbia_card_task_fmri	7.0	0.875	89.0	-95.0	0.125	12.0	5.0	1.0	0.5983242720847386	1.253	n/a	stim	poldrack-single-stim	s612	False	1
256.838	1.072	257.91	-5.716866869689451	end_round	1.072	columbia_card_task_fmri	7.0	0.8571428571428572	71.0	-95.0	0.1428571428571428	12.0	6.0	1.0	2.554767515182249	1.072	5.0	stim	poldrack-single-stim	s612	False	1
258.669	1.5	257.918	n/a	-1.0	2.318	columbia_card_task_fmri	n/a	n/a	-1.0	n/a	n/a	n/a	n/a	n/a	n/a	n/a	n/a	ITI	poldrack-single-stim	s612	False	0
260.241	0.722	260.963	1.0212283684057883	draw_card	0.722	columbia_card_task_fmri	14.0	0.8333333333333334	89.0	-75.0	0.1666666666666666	12.0	1.0	2.0	0.0342031025208129	0.722	n/a	stim	poldrack-single-stim	s612	False	1
260.968	0.393	261.361	-0.3272564800790629	draw_card	0.393	columbia_card_task_fmri	14.0	0.8181818181818181	89.0	-75.0	0.1818181818181818	12.0	2.0	2.0	1.1909357180658304	0.393	n/a	stim	poldrack-single-stim	s612	False	1
261.366	0.44	261.806	-1.9454382982608784	draw_card	0.44	columbia_card_task_fmri	14.0	0.8	89.0	-75.0	0.2	12.0	3.0	2.0	2.462327714861189	0.44	n/a	stim	poldrack-single-stim	s612	False	1
261.812	0.419	262.231	-3.9232160760386554	draw_card	0.419	columbia_card_task_fmri	14.0	0.7777777777777778	89.0	-75.0	0.2222222222222222	12.0	4.0	2.0	3.861336599666849	0.419	n/a	stim	poldrack-single-stim	s612	False	1
262.236	0.383	262.619	-6.39543829826088	draw_card	0.383	columbia_card_task_fmri	14.0	0.75	89.0	-75.0	0.25	12.0	5.0	2.0	5.396782266349128	0.383	n/a	stim	poldrack-single-stim	s612	False	1
262.624	1.105	263.729	-9.574009726832308	draw_card	1.105	columbia_card_task_fmri	14.0	0.7142857142857143	89.0	-75.0	0.2857142857142857	12.0	6.0	2.0	7.062905333207404	1.105	n/a	stim	poldrack-single-stim	s612	False	1
263.735	1.032	264.767	-13.812104964927546	end_round	1.032	columbia_card_task_fmri	14.0	0.6666666666666667	71.0	-75.0	0.3333333333333333	12.0	7.0	2.0	8.81002576620174	1.032	6.0	stim	poldrack-single-stim	s612	False	1
265.524	1.5	264.773	n/a	-1.0	2.25	columbia_card_task_fmri	n/a	n/a	-1.0	n/a	n/a	n/a	n/a	n/a	n/a	n/a	n/a	ITI	poldrack-single-stim	s612	False	0
267.029	0.636	267.665	2.6878950350724544	draw_card	0.636	columbia_card_task_fmri	15.0	0.8333333333333334	89.0	-70.0	0.1666666666666666	12.0	1.0	2.0	-1.454074972549506	0.636	n/a	stim	poldrack-single-stim	s612	False	1
267.67	0.35	268.02	1.4000162471936637	draw_card	0.35	columbia_card_task_fmri	15.0	0.8181818181818181	89.0	-70.0	0.1818181818181818	12.0	2.0	2.0	-0.349490562147615	0.35	n/a	stim	poldrack-single-stim	s612	False	1
268.025	0.323	268.348	-0.1454382982608795	draw_card	0.323	columbia_card_task_fmri	15.0	0.8	89.0	-70.0	0.2	12.0	3.0	2.0	0.8645961097043013	0.323	n/a	stim	poldrack-single-stim	s612	False	1
268.353	0.337	268.69	-2.034327187149769	draw_card	0.337	columbia_card_task_fmri	15.0	0.7777777777777778	89.0	-70.0	0.2222222222222222	12.0	4.0	2.0	2.200560620510686	0.337	n/a	stim	poldrack-single-stim	s612	False	1
268.696	0.358	269.054	-4.39543829826088	draw_card	0.358	columbia_card_task_fmri	15.0	0.75	89.0	-70.0	0.25	12.0	5.0	2.0	3.6668275661345504	0.358	5.0	stim	poldrack-single-stim	s612	False	0
269.81	1.5	269.059	n/a	-1.0	2.658	columbia_card_task_fmri	n/a	n/a	-1.0	n/a	n/a	n/a	n/a	n/a	n/a	n/a	n/a	ITI	poldrack-single-stim	s612	False	0
271.724	0.813	272.537	0.6545617017391212	draw_card	0.813	columbia_card_task_fmri	16.0	0.8	89.0	-70.0	0.2	15.0	1.0	3.0	1.264009271175091	0.813	1.0	stim	poldrack-single-stim	s612	False	0
273.292	1.5	272.541	n/a	-1.0	2.454	columbia_card_task_fmri	n/a	n/a	-1.0	n/a	n/a	n/a	n/a	n/a	n/a	n/a	n/a	ITI	poldrack-single-stim	s612	False	0
275.002	0.445	275.447	1.0420617017391205	draw_card	0.445	columbia_card_task_fmri	14.0	0.8125	89.0	-65.0	0.1875	16.0	1.0	3.0	-2.295546844850304	0.445	n/a	stim	poldrack-single-stim	s612	False	1
275.452	0.466	275.918	0.0545617017391215	draw_card	0.466	columbia_card_task_fmri	14.0	0.8	89.0	-65.0	0.2	16.0	2.0	3.0	-1.5315716318718664	0.466	n/a	stim	poldrack-single-stim	s612	False	1
275.924	0.399	276.323	-1.0740097268323066	draw_card	0.399	columbia_card_task_fmri	14.0	0.7857142857142857	89.0	-65.0	0.2142857142857142	16.0	3.0	3.0	-0.7171913375008998	0.399	n/a	stim	poldrack-single-stim	s612	False	1
276.328	0.348	276.676	-2.3762075290301112	draw_card	0.348	columbia_card_task_fmri	14.0	0.7692307692307692	89.0	-65.0	0.2307692307692307	16.0	4.0	3.0	0.1503591350080881	0.348	n/a	stim	poldrack-single-stim	s612	False	1
276.682	0.376	277.058	-3.89543829826088	draw_card	0.376	columbia_card_task_fmri	14.0	0.75	89.0	-65.0	0.25	16.0	5.0	3.0	1.0722926891063125	0.376	n/a	stim	poldrack-single-stim	s612	False	1
277.064	0.95	278.014	-5.6908928437154245	end_round	0.95	columbia_card_task_fmri	14.0	0.7272727272727273	71.0	-65.0	0.2727272727272727	16.0	6.0	3.0	2.0464782160542043	0.95	5.0	stim	poldrack-single-stim	s612	False	1
278.77	1.5	278.019	n/a	-1.0	2.386	columbia_card_task_fmri	n/a	n/a	-1.0	n/a	n/a	n/a	n/a	n/a	n/a	n/a	n/a	ITI	poldrack-single-stim	s612	False	0
280.41	0.603	281.013	0.7920617017391205	draw_card	0.603	columbia_card_task_fmri	16.0	0.8125	89.0	-75.0	0.1875	16.0	1.0	3.0	2.3808645479609183	0.603	n/a	stim	poldrack-single-stim	s612	False	1
281.018	0.355	281.373	-0.3454382982608788	draw_card	0.355	columbia_card_task_fmri	16.0	0.8	89.0	-75.0	0.2	16.0	2.0	3.0	3.2612681499479166	0.355	n/a	stim	poldrack-single-stim	s612	False	1
281.378	0.343	281.721	-1.6454382982608775	draw_card	0.343	columbia_card_task_fmri	16.0	0.7857142857142857	89.0	-75.0	0.2142857142857142	16.0	3.0	3.0	4.199738690960835	0.343	n/a	stim	poldrack-single-stim	s612	False	1
281.726	0.379	282.105	-3.145438298260883	draw_card	0.379	columbia_card_task_fmri	16.0	0.7692307692307692	89.0	-75.0	0.2307692307692307	16.0	4.0	3.0	5.1994603462359095	0.379	n/a	stim	poldrack-single-stim	s612	False	1
282.11	0.445	282.555	-4.89543829826088	draw_card	0.445	columbia_card_task_fmri	16.0	0.75	89.0	-75.0	0.25	16.0	5.0	3.0	6.261828600781342	0.445	n/a	stim	poldrack-single-stim	s612	False	1
282.561	0.88	283.441	-6.963620116442696	draw_card	0.88	columbia_card_task_fmri	16.0	0.7272727272727273	89.0	-75.0	0.2727272727272727	16.0	6.0	3.0	7.384385749567969	0.88	6.0	stim	poldrack-single-stim	s612	False	0
284.197	1.5	283.446	n/a	-1.0	2.59	columbia_card_task_fmri	n/a	n/a	-1.0	n/a	n/a	n/a	n/a	n/a	n/a	n/a	n/a	ITI	poldrack-single-stim	s612	False	0
286.043	0.589	286.632	5.054561701739122	draw_card	0.589	columbia_card_task_fmri	16.0	0.8666666666666667	89.0	-80.0	0.1333333333333333	15.0	1.0	2.0	-0.4995663104535808	0.589	n/a	stim	poldrack-single-stim	s612	False	1
286.636	0.517	287.153	4.140275987453409	draw_card	0.517	columbia_card_task_fmri	16.0	0.8571428571428572	89.0	-80.0	0.1428571428571428	15.0	2.0	2.0	0.4582097132592082	0.517	2.0	stim	poldrack-single-stim	s612	False	0
287.91	1.5	287.159	n/a	-1.0	2.318	columbia_card_task_fmri	n/a	n/a	-1.0	n/a	n/a	n/a	n/a	n/a	n/a	n/a	n/a	ITI	poldrack-single-stim	s612	False	0
289.482	0.426	289.908	5.921228368405789	draw_card	0.426	columbia_card_task_fmri	17.0	0.8666666666666667	89.0	-80.0	0.1333333333333333	15.0	1.0	2.0	-0.160173645376858	0.426	n/a	stim	poldrack-single-stim	s612	False	1
289.913	0.316	290.229	4.997418844596266	draw_card	0.316	columbia_card_task_fmri	17.0	0.8571428571428572	89.0	-80.0	0.1428571428571428	15.0	2.0	2.0	0.8076102557490543	0.316	2.0	stim	poldrack-single-stim	s612	False	0
290.987	1.5	290.236	n/a	-1.0	2.59	columbia_card_task_fmri	n/a	n/a	-1.0	n/a	n/a	n/a	n/a	n/a	n/a	n/a	n/a	ITI	poldrack-single-stim	s612	False	0
292.833	0.402	293.235	1.8545617017391205	draw_card	0.402	columbia_card_task_fmri	1.0	0.9375	89.0	-15.0	0.0625	16.0	1.0	1.0	-28.891833579034653	0.402	1.0	stim	poldrack-single-stim	s612	False	0
293.991	1.5	293.24	n/a	-1.0	2.386	columbia_card_task_fmri	n/a	n/a	-1.0	n/a	n/a	n/a	n/a	n/a	n/a	n/a	n/a	ITI	poldrack-single-stim	s612	False	0
295.632	0.499	296.131	4.9795617017391205	draw_card	0.499	columbia_card_task_fmri	10.0	0.9375	89.0	-100.0	0.0625	16.0	1.0	1.0	-6.494677973007576	0.499	n/a	stim	poldrack-single-stim	s612	False	1
296.136	0.327	296.463	4.521228368405788	draw_card	0.327	columbia_card_task_fmri	10.0	0.9333333333333332	89.0	-100.0	0.0666666666666666	16.0	2.0	1.0	-5.684522341826437	0.327	n/a	stim	poldrack-single-stim	s612	False	1
296.469	0.295	296.764	3.9974188445962646	draw_card	0.295	columbia_card_task_fmri	10.0	0.9285714285714286	89.0	-100.0	0.0714285714285714	16.0	3.0	1.0	-4.795975319533415	0.295	3.0	stim	poldrack-single-stim	s612	False	0
297.521	1.5	296.77	n/a	-1.0	2.318	columbia_card_task_fmri	n/a	n/a	-1.0	n/a	n/a	n/a	n/a	n/a	n/a	n/a	n/a	ITI	poldrack-single-stim	s612	False	0
299.095	0.496	299.591	5.6045617017391205	draw_card	0.496	columbia_card_task_fmri	15.0	0.875	89.0	-75.0	0.125	16.0	1.0	2.0	-3.363522965931068	0.496	n/a	stim	poldrack-single-stim	s612	False	1
299.596	0.32	299.916	4.8545617017391205	draw_card	0.32	columbia_card_task_fmri	15.0	0.8666666666666667	89.0	-75.0	0.1333333333333333	16.0	2.0	2.0	-2.535670045590084	0.32	2.0	stim	poldrack-single-stim	s612	False	0
300.673	1.5	299.922	n/a	-1.0	2.318	columbia_card_task_fmri	n/a	n/a	-1.0	n/a	n/a	n/a	n/a	n/a	n/a	n/a	n/a	ITI	poldrack-single-stim	s612	False	0
302.246	0.686	302.932	5.8545617017391205	draw_card	0.686	columbia_card_task_fmri	16.0	0.875	89.0	-80.0	0.125	16.0	1.0	2.0	-1.3828106715453536	0.686	n/a	stim	poldrack-single-stim	s612	False	1
302.936	0.34	303.276	5.054561701739122	draw_card	0.34	columbia_card_task_fmri	16.0	0.8666666666666667	89.0	-80.0	0.1333333333333333	16.0	2.0	2.0	-0.4995663104535808	0.34	n/a	stim	poldrack-single-stim	s612	False	1
303.283	0.338	303.621	4.140275987453409	draw_card	0.338	columbia_card_task_fmri	16.0	0.8571428571428572	89.0	-80.0	0.1428571428571428	16.0	3.0	2.0	0.4582097132592082	0.338	n/a	stim	poldrack-single-stim	s612	False	1
303.626	0.339	303.965	3.0853309325083504	draw_card	0.339	columbia_card_task_fmri	16.0	0.8461538461538461	89.0	-80.0	0.1538461538461538	16.0	4.0	2.0	1.500584449849761	0.339	n/a	stim	poldrack-single-stim	s612	False	1
303.97	0.38	304.35	1.8545617017391225	draw_card	0.38	columbia_card_task_fmri	16.0	0.8333333333333334	89.0	-80.0	0.1666666666666666	16.0	5.0	2.0	2.639176734578492	0.38	n/a	stim	poldrack-single-stim	s612	False	1
304.355	0.953	305.308	0.4000162471936637	end_round	0.953	columbia_card_task_fmri	16.0	0.8181818181818181	71.0	-80.0	0.1818181818181818	16.0	6.0	2.0	3.88715241718635	0.953	5.0	stim	poldrack-single-stim	s612	False	1
306.065	1.5	305.314	n/a	-1.0	2.318	columbia_card_task_fmri	n/a	n/a	-1.0	n/a	n/a	n/a	n/a	n/a	n/a	n/a	n/a	ITI	poldrack-single-stim	s612	False	0
307.637	0.445	308.082	3.0420617017391205	draw_card	0.445	columbia_card_task_fmri	4.0	0.6875	89.0	-5.0	0.3125	16.0	1.0	5.0	-28.62066995313545	0.445	n/a	stim	poldrack-single-stim	s612	False	1
308.087	0.592	308.679	2.854561701739121	draw_card	0.592	columbia_card_task_fmri	4.0	0.6666666666666667	89.0	-5.0	0.3333333333333333	16.0	2.0	5.0	-28.555675849126217	0.592	n/a	stim	poldrack-single-stim	s612	False	1
308.685	0.314	308.999	2.640275987453406	draw_card	0.314	columbia_card_task_fmri	4.0	0.6428571428571428	89.0	-5.0	0.3571428571428571	16.0	3.0	5.0	-28.491657930330668	0.314	n/a	stim	poldrack-single-stim	s612	False	1
309.004	0.335	309.339	2.393023240200659	draw_card	0.335	columbia_card_task_fmri	4.0	0.6153846153846154	89.0	-5.0	0.3846153846153846	16.0	4.0	5.0	-28.430843543443643	0.335	n/a	stim	poldrack-single-stim	s612	False	1
309.344	0.852	310.196	2.10456170173912	end_round	0.852	columbia_card_task_fmri	4.0	0.5833333333333333	71.0	-5.0	0.4166666666666667	16.0	5.0	5.0	-28.37690225211331	0.852	4.0	stim	poldrack-single-stim	s612	False	1
310.953	1.5	310.202	n/a	-1.0	2.386	columbia_card_task_fmri	n/a	n/a	-1.0	n/a	n/a	n/a	n/a	n/a	n/a	n/a	n/a	ITI	poldrack-single-stim	s612	False	0
312.593	1.249	313.842	0.1878950350724562	draw_card	1.249	columbia_card_task_fmri	14.0	0.8333333333333334	89.0	-80.0	0.1666666666666666	6.0	1.0	1.0	1.8948413451776744	1.249	n/a	stim	poldrack-single-stim	s612	False	1
313.848	0.331	314.179	-2.9454382982608784	draw_card	0.331	columbia_card_task_fmri	14.0	0.8	89.0	-80.0	0.2	6.0	2.0	1.0	4.459763183862641	0.331	2.0	stim	poldrack-single-stim	s612	False	0
314.938	1.5	314.187	n/a	-1.0	2.25	columbia_card_task_fmri	n/a	n/a	-1.0	n/a	n/a	n/a	n/a	n/a	n/a	n/a	n/a	ITI	poldrack-single-stim	s612	False	0
316.443	0.612	317.055	1.8545617017391205	draw_card	0.612	columbia_card_task_fmri	15.0	0.8333333333333334	89.0	-75.0	0.1666666666666666	6.0	1.0	1.0	0.4063063464997469	0.612	n/a	stim	poldrack-single-stim	s612	False	1
317.059	0.294	317.353	-1.1454382982608795	draw_card	0.294	columbia_card_task_fmri	15.0	0.8	89.0	-75.0	0.2	6.0	2.0	1.0	2.8617920576217277	0.294	n/a	stim	poldrack-single-stim	s612	False	1
317.358	0.665	318.023	-5.64543829826088	draw_card	0.665	columbia_card_task_fmri	15.0	0.75	89.0	-75.0	0.25	6.0	3.0	1.0	5.829300003511115	0.665	n/a	stim	poldrack-single-stim	s612	False	1
318.028	0.814	318.842	-13.145438298260878	end_round	0.814	columbia_card_task_fmri	15.0	0.6666666666666667	71.0	-75.0	0.3333333333333333	6.0	4.0	1.0	9.280975511056468	0.814	3.0	stim	poldrack-single-stim	s612	False	1
319.602	1.5	318.851	n/a	-1.0	2.386	columbia_card_task_fmri	n/a	n/a	-1.0	n/a	n/a	n/a	n/a	n/a	n/a	n/a	n/a	ITI	poldrack-single-stim	s612	False	0
321.243	0.753	321.996	3.5212283684057883	draw_card	0.753	columbia_card_task_fmri	16.0	0.8333333333333334	89.0	-70.0	0.1666666666666666	6.0	1.0	1.0	-1.0820266269886432	0.753	n/a	stim	poldrack-single-stim	s612	False	1
322.001	0.313	322.314	0.6545617017391212	draw_card	0.313	columbia_card_task_fmri	16.0	0.8	89.0	-70.0	0.2	6.0	2.0	1.0	1.264009271175091	0.313	n/a	stim	poldrack-single-stim	s612	False	1
322.321	0.282	322.603	-3.64543829826088	draw_card	0.282	columbia_card_task_fmri	16.0	0.75	89.0	-70.0	0.25	6.0	3.0	1.0	4.099297994860933	0.282	3.0	stim	poldrack-single-stim	s612	False	0
323.358	1.5	322.607	n/a	-1.0	2.59	columbia_card_task_fmri	n/a	n/a	-1.0	n/a	n/a	n/a	n/a	n/a	n/a	n/a	n/a	ITI	poldrack-single-stim	s612	False	0
325.203	0.621	325.824	4.1045617017391205	draw_card	0.621	columbia_card_task_fmri	23.0	0.75	89.0	-60.0	0.25	8.0	1.0	2.0	2.8019258325737084	0.621	n/a	stim	poldrack-single-stim	s612	False	1
325.83	0.488	326.318	1.1402759874534087	draw_card	0.488	columbia_card_task_fmri	23.0	0.7142857142857143	89.0	-60.0	0.2857142857142857	8.0	2.0	2.0	4.3554682946844	0.488	2.0	stim	poldrack-single-stim	s612	False	0
327.074	1.5	326.323	n/a	-1.0	2.658	columbia_card_task_fmri	n/a	n/a	-1.0	n/a	n/a	n/a	n/a	n/a	n/a	n/a	n/a	ITI	poldrack-single-stim	s612	False	0
328.987	0.768	329.755	4.6045617017391205	draw_card	0.768	columbia_card_task_fmri	27.0	0.75	89.0	-70.0	0.25	8.0	1.0	2.0	8.857209476147645	0.768	n/a	stim	poldrack-single-stim	s612	False	1
329.76	0.321	330.081	1.1402759874534052	draw_card	0.321	columbia_card_task_fmri	27.0	0.7142857142857143	89.0	-70.0	0.2857142857142857	8.0	2.0	2.0	10.673414517797084	0.321	n/a	stim	poldrack-single-stim	s612	False	1
330.086	0.309	330.395	-3.478771631594208	draw_card	0.309	columbia_card_task_fmri	27.0	0.6666666666666667	89.0	-70.0	0.3333333333333333	8.0	3.0	2.0	12.577885934630883	0.309	n/a	stim	poldrack-single-stim	s612	False	1
330.402	0.752	331.154	-9.94543829826088	end_round	0.752	columbia_card_task_fmri	27.0	0.6	71.0	-70.0	0.4	8.0	4.0	2.0	14.370330404329785	0.752	3.0	stim	poldrack-single-stim	s612	False	1
331.913	1.5	331.162	n/a	-1.0	2.386	columbia_card_task_fmri	n/a	n/a	-1.0	n/a	n/a	n/a	n/a	n/a	n/a	n/a	n/a	ITI	poldrack-single-stim	s612	False	0
333.554	0.606	334.16	-0.1454382982608777	draw_card	0.606	columbia_card_task_fmri	16.0	0.7777777777777778	89.0	-65.0	0.2222222222222222	9.0	1.0	2.0	0.539999765611455	0.606	n/a	stim	poldrack-single-stim	s612	False	1
334.165	0.287	334.452	-2.3954382982608795	draw_card	0.287	columbia_card_task_fmri	16.0	0.75	89.0	-65.0	0.25	9.0	2.0	2.0	1.93707947558724	0.287	n/a	stim	poldrack-single-stim	s612	False	1
334.458	0.283	334.741	-5.28829544111802	draw_card	0.283	columbia_card_task_fmri	16.0	0.7142857142857143	89.0	-65.0	0.2857142857142857	9.0	3.0	2.0	3.45309071270767	0.283	n/a	stim	poldrack-single-stim	s612	False	1
334.746	0.782	335.528	-9.145438298260876	end_round	0.782	columbia_card_task_fmri	16.0	0.6666666666666667	71.0	-65.0	0.3333333333333333	9.0	4.0	2.0	5.042831384045357	0.782	3.0	stim	poldrack-single-stim	s612	False	1
336.288	1.5	335.537	n/a	-1.0	2.386	columbia_card_task_fmri	n/a	n/a	-1.0	n/a	n/a	n/a	n/a	n/a	n/a	n/a	n/a	ITI	poldrack-single-stim	s612	False	0
337.929	0.511	338.44	5.054561701739122	draw_card	0.511	columbia_card_task_fmri	13.0	0.9	89.0	-85.0	0.1	10.0	1.0	1.0	-3.727510613486896	0.511	n/a	stim	poldrack-single-stim	s612	False	1
338.445	0.311	338.756	3.965672812850231	draw_card	0.311	columbia_card_task_fmri	13.0	0.8888888888888888	89.0	-85.0	0.1111111111111111	10.0	2.0	1.0	-2.331730306338692	0.311	n/a	stim	poldrack-single-stim	s612	False	1
338.761	0.245	339.006	2.6045617017391205	draw_card	0.245	columbia_card_task_fmri	13.0	0.875	89.0	-85.0	0.125	10.0	3.0	1.0	-0.7224754972066734	0.245	n/a	stim	poldrack-single-stim	s612	False	1
339.012	0.477	339.489	0.8545617017391223	draw_card	0.477	columbia_card_task_fmri	13.0	0.8571428571428572	89.0	-85.0	0.1428571428571428	10.0	4.0	1.0	1.1570215206833083	0.477	n/a	stim	poldrack-single-stim	s612	False	1
339.494	0.945	340.439	-1.4787716315942117	end_round	0.945	columbia_card_task_fmri	13.0	0.8333333333333334	71.0	-85.0	0.1666666666666666	10.0	5.0	1.0	3.3835536991862227	0.945	4.0	stim	poldrack-single-stim	s612	False	1
341.198	1.5	340.447	n/a	-1.0	2.25	columbia_card_task_fmri	n/a	n/a	-1.0	n/a	n/a	n/a	n/a	n/a	n/a	n/a	n/a	ITI	poldrack-single-stim	s612	False	0
342.704	0.789	343.493	0.0545617017391215	draw_card	0.789	columbia_card_task_fmri	14.0	0.8	89.0	-65.0	0.2	10.0	1.0	2.0	-1.5315716318718664	0.789	n/a	stim	poldrack-single-stim	s612	False	1
343.498	0.282	343.78	-1.700993853816433	draw_card	0.282	columbia_card_task_fmri	14.0	0.7777777777777778	89.0	-65.0	0.2222222222222222	10.0	2.0	2.0	-0.290189809423552	0.282	n/a	stim	poldrack-single-stim	s612	False	1
343.786	0.239	344.025	-3.89543829826088	draw_card	0.239	columbia_card_task_fmri	14.0	0.75	89.0	-65.0	0.25	10.0	3.0	2.0	1.0722926891063125	0.239	n/a	stim	poldrack-single-stim	s612	False	1
344.028	0.44	344.468	-6.716866869689449	draw_card	0.44	columbia_card_task_fmri	14.0	0.7142857142857143	89.0	-65.0	0.2857142857142857	10.0	4.0	2.0	2.550770249347856	0.44	4.0	stim	poldrack-single-stim	s612	False	0
345.224	1.5	344.473	n/a	-1.0	2.318	columbia_card_task_fmri	n/a	n/a	-1.0	n/a	n/a	n/a	n/a	n/a	n/a	n/a	n/a	ITI	poldrack-single-stim	s612	False	0
346.796	0.418	347.214	1.454561701739122	draw_card	0.418	columbia_card_task_fmri	17.0	0.8	89.0	-70.0	0.2	10.0	1.0	2.0	1.6634358941913234	0.418	n/a	stim	poldrack-single-stim	s612	False	1
347.219	0.257	347.476	-0.4787716315942116	draw_card	0.257	columbia_card_task_fmri	17.0	0.7777777777777778	89.0	-70.0	0.2222222222222222	10.0	2.0	2.0	3.030923569122166	0.257	2.0	stim	poldrack-single-stim	s612	False	0
348.236	1.5	347.485	n/a	-1.0	2.25	columbia_card_task_fmri	n/a	n/a	-1.0	n/a	n/a	n/a	n/a	n/a	n/a	n/a	n/a	ITI	poldrack-single-stim	s612	False	0
349.741	0.567	350.308	0.1878950350724544	draw_card	0.567	columbia_card_task_fmri	13.0	0.8333333333333334	89.0	-75.0	0.1666666666666666	12.0	1.0	2.0	-0.3378871097962204	0.567	n/a	stim	poldrack-single-stim	s612	False	1
350.313	0.28	350.593	-1.1454382982608813	draw_card	0.28	columbia_card_task_fmri	13.0	0.8181818181818181	89.0	-75.0	0.1818181818181818	12.0	2.0	2.0	0.805809146390807	0.28	n/a	stim	poldrack-single-stim	s612	False	1
350.599	0.262	350.861	-2.745438298260879	draw_card	0.262	columbia_card_task_fmri	13.0	0.8	89.0	-75.0	0.2	12.0	3.0	2.0	2.0628755211292287	0.262	n/a	stim	poldrack-single-stim	s612	False	1
350.867	1.189	352.056	-4.700993853816433	draw_card	1.189	columbia_card_task_fmri	13.0	0.7777777777777778	89.0	-75.0	0.2222222222222222	12.0	4.0	2.0	3.446124037018336	1.189	n/a	stim	poldrack-single-stim	s612	False	1
352.062	0.551	352.613	-7.14543829826088	end_round	0.551	columbia_card_task_fmri	13.0	0.75	71.0	-75.0	0.25	12.0	5.0	2.0	4.9642757586659485	0.551	4.0	stim	poldrack-single-stim	s612	False	1
353.372	1.5	352.621	n/a	-1.0	2.25	columbia_card_task_fmri	n/a	n/a	-1.0	n/a	n/a	n/a	n/a	n/a	n/a	n/a	n/a	ITI	poldrack-single-stim	s612	False	0
354.878	0.758	355.636	1.8545617017391225	draw_card	0.758	columbia_card_task_fmri	14.0	0.8333333333333334	89.0	-70.0	0.1666666666666666	12.0	1.0	2.0	-1.8261083653043144	0.758	n/a	stim	poldrack-single-stim	s612	False	1
355.642	0.316	355.958	0.5818344290118453	draw_card	0.316	columbia_card_task_fmri	14.0	0.8181818181818181	89.0	-70.0	0.1818181818181818	12.0	2.0	2.0	-0.7345622137726124	0.316	2.0	stim	poldrack-single-stim	s612	False	0
356.719	1.5	355.968	n/a	-1.0	2.386	columbia_card_task_fmri	n/a	n/a	-1.0	n/a	n/a	n/a	n/a	n/a	n/a	n/a	n/a	ITI	poldrack-single-stim	s612	False	0
358.36	0.625	358.985	1.8545617017391225	draw_card	0.625	columbia_card_task_fmri	16.0	0.8333333333333334	89.0	-80.0	0.1666666666666666	12.0	1.0	2.0	2.639176734578492	0.625	1.0	stim	poldrack-single-stim	s612	False	0
359.743	1.5	358.992	n/a	-1.0	2.386	columbia_card_task_fmri	n/a	n/a	-1.0	n/a	n/a	n/a	n/a	n/a	n/a	n/a	n/a	ITI	poldrack-single-stim	s612	False	0
361.386	0.481	361.867	1.6545617017391212	draw_card	0.481	columbia_card_task_fmri	16.0	0.8	89.0	-65.0	0.2	15.0	1.0	3.0	-0.7329119803593684	0.481	n/a	stim	poldrack-single-stim	s612	False	1
361.873	0.407	362.28	0.4974188445962646	draw_card	0.407	columbia_card_task_fmri	16.0	0.7857142857142857	89.0	-65.0	0.2142857142857142	15.0	2.0	3.0	0.1021536875424899	0.407	n/a	stim	poldrack-single-stim	s612	False	1
362.287	0.356	362.643	-0.8377459905685729	draw_card	0.356	columbia_card_task_fmri	16.0	0.7692307692307692	89.0	-65.0	0.2307692307692307	15.0	3.0	3.0	0.9917364001888842	0.356	n/a	stim	poldrack-single-stim	s612	False	1
362.651	0.37	363.021	-2.3954382982608795	draw_card	0.37	columbia_card_task_fmri	16.0	0.75	89.0	-65.0	0.25	15.0	4.0	3.0	1.93707947558724	0.37	n/a	stim	poldrack-single-stim	s612	False	1
363.028	0.419	363.447	-4.2363473891699694	draw_card	0.419	columbia_card_task_fmri	16.0	0.7272727272727273	89.0	-65.0	0.2727272727272727	15.0	5.0	3.0	2.935997344909282	0.419	n/a	stim	poldrack-single-stim	s612	False	1
363.452	0.477	363.929	-6.44543829826088	draw_card	0.477	columbia_card_task_fmri	16.0	0.7	89.0	-65.0	0.3	15.0	6.0	3.0	3.979218061117855	0.477	n/a	stim	poldrack-single-stim	s612	False	1
363.934	0.71	364.644	-9.145438298260876	end_round	0.71	columbia_card_task_fmri	16.0	0.6666666666666667	71.0	-65.0	0.3333333333333333	15.0	7.0	3.0	5.042831384045357	0.71	6.0	stim	poldrack-single-stim	s612	False	1
365.403	1.5	364.652	n/a	-1.0	2.726	columbia_card_task_fmri	n/a	n/a	-1.0	n/a	n/a	n/a	n/a	n/a	n/a	n/a	n/a	ITI	poldrack-single-stim	s612	False	0
367.385	0.641	368.026	-0.0204382982608795	draw_card	0.641	columbia_card_task_fmri	15.0	0.8125	89.0	-75.0	0.1875	16.0	1.0	3.0	1.9910890312339904	0.641	n/a	stim	poldrack-single-stim	s612	False	1
368.032	0.34	368.372	-1.1454382982608795	draw_card	0.34	columbia_card_task_fmri	15.0	0.8	89.0	-75.0	0.2	16.0	2.0	3.0	2.8617920576217277	0.34	n/a	stim	poldrack-single-stim	s612	False	1
368.376	0.349	368.725	-2.431152583975164	draw_card	0.349	columbia_card_task_fmri	15.0	0.7857142857142857	89.0	-75.0	0.2142857142857142	16.0	3.0	3.0	3.789923560958876	0.349	n/a	stim	poldrack-single-stim	s612	False	1
368.731	0.391	369.122	-3.914669067491653	draw_card	0.391	columbia_card_task_fmri	15.0	0.7692307692307692	89.0	-75.0	0.2307692307692307	16.0	4.0	3.0	4.778632788889205	0.391	n/a	stim	poldrack-single-stim	s612	False	1
369.127	0.419	369.546	-5.64543829826088	draw_card	0.419	columbia_card_task_fmri	15.0	0.75	89.0	-75.0	0.25	16.0	5.0	3.0	5.829300003511115	0.419	n/a	stim	poldrack-single-stim	s612	False	1
369.552	0.365	369.917	-7.690892843715423	draw_card	0.365	columbia_card_task_fmri	15.0	0.7272727272727273	89.0	-75.0	0.2727272727272727	16.0	6.0	3.0	6.939494702593102	0.365	n/a	stim	poldrack-single-stim	s612	False	1
369.923	1.227	371.15	-10.14543829826088	end_round	1.227	columbia_card_task_fmri	15.0	0.7	71.0	-75.0	0.3	16.0	7.0	3.0	8.098911054028093	1.227	6.0	stim	poldrack-single-stim	s612	False	1
371.909	1.5	371.158	n/a	-1.0	2.454	columbia_card_task_fmri	n/a	n/a	-1.0	n/a	n/a	n/a	n/a	n/a	n/a	n/a	n/a	ITI	poldrack-single-stim	s612	False	0
373.619	0.567	374.186	0.5420617017391205	draw_card	0.567	columbia_card_task_fmri	14.0	0.6875	89.0	-35.0	0.3125	16.0	1.0	5.0	-10.39824634696958	0.567	n/a	stim	poldrack-single-stim	s612	False	1
374.191	0.33	374.521	-0.4787716315942116	draw_card	0.33	columbia_card_task_fmri	14.0	0.6666666666666667	89.0	-35.0	0.3333333333333333	16.0	2.0	5.0	-10.012794132035118	0.33	2.0	stim	poldrack-single-stim	s612	False	0
375.28	1.5	374.529	n/a	-1.0	2.318	columbia_card_task_fmri	n/a	n/a	-1.0	n/a	n/a	n/a	n/a	n/a	n/a	n/a	n/a	ITI	poldrack-single-stim	s612	False	0
376.855	0.437	377.292	5.721228368405788	draw_card	0.437	columbia_card_task_fmri	16.0	0.8666666666666667	89.0	-75.0	0.1333333333333333	15.0	1.0	2.0	-2.196351426579568	0.437	n/a	stim	poldrack-single-stim	s612	False	1
377.297	0.32	377.617	4.854561701739122	draw_card	0.32	columbia_card_task_fmri	16.0	0.8571428571428572	89.0	-75.0	0.1428571428571428	15.0	2.0	2.0	-1.2886198303636398	0.32	n/a	stim	poldrack-single-stim	s612	False	1
377.624	0.297	377.921	3.854561701739121	draw_card	0.297	columbia_card_task_fmri	16.0	0.8461538461538461	89.0	-75.0	0.1538461538461538	15.0	3.0	2.0	-0.3006998047936093	0.297	n/a	stim	poldrack-single-stim	s612	False	1
377.926	0.324	378.25	2.6878950350724544	draw_card	0.324	columbia_card_task_fmri	16.0	0.8333333333333334	89.0	-75.0	0.1666666666666666	15.0	4.0	2.0	0.7784221938278719	0.324	n/a	stim	poldrack-single-stim	s612	False	1
378.256	0.353	378.609	1.3091071562845735	draw_card	0.353	columbia_card_task_fmri	16.0	0.8181818181818181	89.0	-75.0	0.1818181818181818	15.0	5.0	2.0	1.9612262346590013	0.353	n/a	stim	poldrack-single-stim	s612	False	1
378.615	0.387	379.002	-0.3454382982608788	draw_card	0.387	columbia_card_task_fmri	16.0	0.8	89.0	-75.0	0.2	15.0	6.0	2.0	3.2612681499479166	0.387	n/a	stim	poldrack-single-stim	s612	False	1
379.008	0.864	379.872	-2.367660520483099	end_round	0.864	columbia_card_task_fmri	16.0	0.7777777777777778	71.0	-75.0	0.2222222222222222	15.0	7.0	2.0	4.6917964182297	0.864	6.0	stim	poldrack-single-stim	s612	False	1
380.629	1.5	379.878	n/a	-1.0	2.318	columbia_card_task_fmri	n/a	n/a	-1.0	n/a	n/a	n/a	n/a	n/a	n/a	n/a	n/a	ITI	poldrack-single-stim	s612	False	0
382.202	0.684	382.886	6.387895035072454	draw_card	0.684	columbia_card_task_fmri	16.0	0.8666666666666667	89.0	-70.0	0.1333333333333333	15.0	1.0	2.0	-3.892801678867304	0.684	n/a	stim	poldrack-single-stim	s612	False	1
382.891	0.323	383.214	5.568847416024836	draw_card	0.323	columbia_card_task_fmri	16.0	0.8571428571428572	89.0	-70.0	0.1428571428571428	15.0	2.0	2.0	-3.035123973626053	0.323	n/a	stim	poldrack-single-stim	s612	False	1
383.22	0.289	383.509	4.623792470969889	draw_card	0.289	columbia_card_task_fmri	16.0	0.8461538461538461	89.0	-70.0	0.1538461538461538	15.0	3.0	2.0	-2.1016683707846404	0.289	n/a	stim	poldrack-single-stim	s612	False	1
383.515	0.363	383.878	3.5212283684057883	draw_card	0.363	columbia_card_task_fmri	16.0	0.8333333333333334	89.0	-70.0	0.1666666666666666	15.0	4.0	2.0	-1.0820266269886432	0.363	4.0	stim	poldrack-single-stim	s612	False	0
384.637	1.5	383.886	n/a	-1.0	2.59	columbia_card_task_fmri	n/a	n/a	-1.0	n/a	n/a	n/a	n/a	n/a	n/a	n/a	n/a	ITI	poldrack-single-stim	s612	False	0
386.483	0.522	387.005	3.729561701739121	draw_card	0.522	columbia_card_task_fmri	8.0	0.9375	89.0	-90.0	0.0625	16.0	1.0	1.0	-9.391539361373855	0.522	n/a	stim	poldrack-single-stim	s612	False	1
387.01	0.3	387.31	3.3212283684057877	draw_card	0.3	columbia_card_task_fmri	8.0	0.9333333333333332	89.0	-90.0	0.0666666666666666	16.0	2.0	1.0	-8.670203406596134	0.3	n/a	stim	poldrack-single-stim	s612	False	1
387.316	0.281	387.597	2.8545617017391214	draw_card	0.281	columbia_card_task_fmri	8.0	0.9285714285714286	89.0	-90.0	0.0714285714285714	16.0	3.0	1.0	-7.879041544456527	0.281	n/a	stim	poldrack-single-stim	s612	False	1
387.603	0.277	387.88	2.316100163277582	draw_card	0.277	columbia_card_task_fmri	8.0	0.9230769230769232	89.0	-90.0	0.0769230769230769	16.0	4.0	1.0	-7.006178201033258	0.277	n/a	stim	poldrack-single-stim	s612	False	1
387.886	0.29	388.176	1.6878950350724535	draw_card	0.29	columbia_card_task_fmri	8.0	0.9166666666666666	89.0	-90.0	0.0833333333333333	16.0	5.0	1.0	-6.036759952693558	0.29	n/a	stim	poldrack-single-stim	s612	False	1
388.181	0.307	388.488	0.9454707926482112	draw_card	0.307	columbia_card_task_fmri	8.0	0.9090909090909092	89.0	-90.0	0.0909090909090909	16.0	6.0	1.0	-4.951951897010197	0.307	n/a	stim	poldrack-single-stim	s612	False	1
388.494	0.937	389.431	0.0545617017391206	end_round	0.937	columbia_card_task_fmri	8.0	0.9	71.0	-90.0	0.1	16.0	7.0	1.0	-3.727510613486896	0.937	6.0	stim	poldrack-single-stim	s612	False	1
390.188	1.5	389.437	n/a	-1.0	2.726	columbia_card_task_fmri	n/a	n/a	-1.0	n/a	n/a	n/a	n/a	n/a	n/a	n/a	n/a	ITI	poldrack-single-stim	s612	False	0
392.168	0.443	392.611	5.2920617017391205	draw_card	0.443	columbia_card_task_fmri	10.0	0.9375	89.0	-95.0	0.0625	16.0	1.0	1.0	-7.7019214557859215	0.443	n/a	stim	poldrack-single-stim	s612	False	1
392.616	0.273	392.889	4.854561701739121	draw_card	0.273	columbia_card_task_fmri	10.0	0.9333333333333332	89.0	-95.0	0.0666666666666666	16.0	2.0	1.0	-6.928767673905565	0.273	n/a	stim	poldrack-single-stim	s612	False	1
392.894	0.275	393.169	4.354561701739121	draw_card	0.275	columbia_card_task_fmri	10.0	0.9285714285714286	89.0	-95.0	0.0714285714285714	16.0	3.0	1.0	-6.080791248219249	0.275	n/a	stim	poldrack-single-stim	s612	False	1
393.174	0.276	393.45	3.777638624816044	draw_card	0.276	columbia_card_task_fmri	10.0	0.9230769230769232	89.0	-95.0	0.0769230769230769	16.0	4.0	1.0	-5.145267489619382	0.276	n/a	stim	poldrack-single-stim	s612	False	1
393.455	0.286	393.741	3.1045617017391205	draw_card	0.286	columbia_card_task_fmri	10.0	0.9166666666666666	89.0	-95.0	0.0833333333333333	16.0	5.0	1.0	-4.106281022363444	0.286	n/a	stim	poldrack-single-stim	s612	False	1
393.747	0.633	394.38	2.3091071562845737	draw_card	0.633	columbia_card_task_fmri	10.0	0.9090909090909092	89.0	-95.0	0.0909090909090909	16.0	6.0	1.0	-2.9436504414795834	0.633	n/a	stim	poldrack-single-stim	s612	False	1
394.384	3.521	397.905	1.3545617017391205	end_round	3.521	columbia_card_task_fmri	10.0	0.9	71.0	-95.0	0.1	16.0	7.0	1.0	-1.6313993136297924	3.521	6.0	stim	poldrack-single-stim	s612	False	1
398.664	1.5	397.913	n/a	-1.0	2.522	columbia_card_task_fmri	n/a	n/a	-1.0	n/a	n/a	n/a	n/a	n/a	n/a	n/a	n/a	ITI	poldrack-single-stim	s612	False	0
400.442	0.449	400.891	6.2295617017391205	draw_card	0.449	columbia_card_task_fmri	15.0	0.875	89.0	-70.0	0.125	16.0	1.0	2.0	-5.013729372461015	0.449	n/a	stim	poldrack-single-stim	s612	False	1
400.898	0.31	401.208	5.521228368405787	draw_card	0.31	columbia_card_task_fmri	15.0	0.8666666666666667	89.0	-70.0	0.1333333333333333	16.0	2.0	2.0	-4.232046365739766	0.31	n/a	stim	poldrack-single-stim	s612	False	1
401.216	0.36	401.576	4.711704558881978	draw_card	0.36	columbia_card_task_fmri	15.0	0.8571428571428572	89.0	-70.0	0.1428571428571428	16.0	3.0	2.0	-3.384380719591768	0.36	n/a	stim	poldrack-single-stim	s612	False	1
401.584	0.422	402.006	3.777638624816042	draw_card	0.422	columbia_card_task_fmri	15.0	0.8461538461538461	89.0	-70.0	0.1538461538461538	16.0	4.0	2.0	-2.4618193158926083	0.422	n/a	stim	poldrack-single-stim	s612	False	1
402.014	0.352	402.366	2.6878950350724544	draw_card	0.352	columbia_card_task_fmri	15.0	0.8333333333333334	89.0	-70.0	0.1666666666666666	16.0	5.0	2.0	-1.454074972549506	0.352	n/a	stim	poldrack-single-stim	s612	False	1
402.372	0.459	402.831	1.4000162471936637	draw_card	0.459	columbia_card_task_fmri	15.0	0.8181818181818181	89.0	-70.0	0.1818181818181818	16.0	6.0	2.0	-0.349490562147615	0.459	6.0	stim	poldrack-single-stim	s612	False	0
403.588	1.5	402.837	n/a	-1.0	3.134	columbia_card_task_fmri	n/a	n/a	-1.0	n/a	n/a	n/a	n/a	n/a	n/a	n/a	n/a	ITI	poldrack-single-stim	s612	False	0
405.978	0.565	406.543	5.2295617017391205	draw_card	0.565	columbia_card_task_fmri	16.0	0.875	89.0	-85.0	0.125	16.0	1.0	2.0	0.2681089505493617	0.565	n/a	stim	poldrack-single-stim	s612	False	1
406.549	0.302	406.851	4.387895035072454	draw_card	0.302	columbia_card_task_fmri	16.0	0.8666666666666667	89.0	-85.0	0.1333333333333333	16.0	2.0	2.0	1.1975040940692736	0.302	2.0	stim	poldrack-single-stim	s612	False	0
407.611	1.5	406.86	n/a	-1.0	2.386	columbia_card_task_fmri	n/a	n/a	-1.0	n/a	n/a	n/a	n/a	n/a	n/a	n/a	n/a	ITI	poldrack-single-stim	s612	False	0
