onset	duration	movement_onset	block_duration	condition	correct	correct_response	experiment_exp_id	key_press	response_time	trial_id	trial_type	worker_id	junk
3.012	0.5	3.011	0.5	AX	n/a	n/a	dot_pattern_expectancy	-1.0	n/a	cue	AX	s612	False
5.518	0.5	6.092	1.772	AX	1.0	89.0	dot_pattern_expectancy	89.0	0.574	probe	AX	s612	False
7.292	0.5	7.291	0.5	AX	n/a	n/a	dot_pattern_expectancy	-1.0	n/a	cue	AX	s612	False
9.801	0.5	10.311	1.5	AX	1.0	89.0	dot_pattern_expectancy	89.0	0.51	probe	AX	s612	False
11.303	0.5	11.302	0.5	AY	n/a	n/a	dot_pattern_expectancy	-1.0	n/a	cue	AY	s612	False
13.81	0.5	14.555	2.452	AY	1.0	71.0	dot_pattern_expectancy	71.0	0.745	probe	AY	s612	False
16.263	0.5	16.262	0.5	AY	n/a	n/a	dot_pattern_expectancy	-1.0	n/a	cue	AY	s612	False
18.773	0.5	19.535	1.772	AY	1.0	71.0	dot_pattern_expectancy	71.0	0.762	probe	AY	s612	False
20.55	0.5	20.549	0.5	AX	n/a	n/a	dot_pattern_expectancy	-1.0	n/a	cue	AX	s612	False
23.059	0.5	23.756	1.908	AX	1.0	89.0	dot_pattern_expectancy	89.0	0.697	probe	AX	s612	False
24.968	0.5	24.967	0.5	AX	n/a	n/a	dot_pattern_expectancy	-1.0	n/a	cue	AX	s612	False
27.474	0.5	28.063	1.908	AX	1.0	89.0	dot_pattern_expectancy	89.0	0.589	probe	AX	s612	False
29.384	0.5	29.383	0.5	AX	n/a	n/a	dot_pattern_expectancy	-1.0	n/a	cue	AX	s612	False
31.892	0.5	32.372	2.588	AX	1.0	89.0	dot_pattern_expectancy	89.0	0.48	probe	AX	s612	False
34.483	0.5	34.482	0.5	AY	n/a	n/a	dot_pattern_expectancy	-1.0	n/a	cue	AY	s612	False
36.991	0.5	37.712	1.5	AY	1.0	71.0	dot_pattern_expectancy	71.0	0.721	probe	AY	s612	False
38.493	0.5	38.492	0.5	BY	n/a	n/a	dot_pattern_expectancy	-1.0	n/a	cue	BY	s612	False
41.002	0.5	41.528	1.5	BY	1.0	71.0	dot_pattern_expectancy	71.0	0.526	probe	BY	s612	False
42.505	0.5	42.504	0.5	BY	n/a	n/a	dot_pattern_expectancy	-1.0	n/a	cue	BY	s612	False
45.014	0.5	45.571	1.5	BY	1.0	71.0	dot_pattern_expectancy	71.0	0.557	probe	BY	s612	False
46.521	0.5	46.52	0.5	AX	n/a	n/a	dot_pattern_expectancy	-1.0	n/a	cue	AX	s612	False
49.027	0.5	49.706	1.636	AX	1.0	89.0	dot_pattern_expectancy	89.0	0.679	probe	AX	s612	False
50.665	0.5	50.664	0.5	BX	n/a	n/a	dot_pattern_expectancy	-1.0	n/a	cue	BX	s612	False
53.174	0.5	53.489	2.044	BX	1.0	71.0	dot_pattern_expectancy	71.0	0.315	probe	BX	s612	False
55.22	0.5	55.219	0.5	AX	n/a	n/a	dot_pattern_expectancy	-1.0	n/a	cue	AX	s612	False
57.729	0.5	58.209	1.772	AX	1.0	89.0	dot_pattern_expectancy	89.0	0.48	probe	AX	s612	False
59.503	0.5	59.502	0.5	BX	n/a	n/a	dot_pattern_expectancy	-1.0	n/a	cue	BX	s612	False
62.011	0.5	62.485	2.588	BX	1.0	71.0	dot_pattern_expectancy	71.0	0.474	probe	BX	s612	False
64.602	0.5	64.601	0.5	AY	n/a	n/a	dot_pattern_expectancy	-1.0	n/a	cue	AY	s612	False
67.111	0.5	67.9	1.5	AY	1.0	71.0	dot_pattern_expectancy	71.0	0.789	probe	AY	s612	False
68.612	0.5	68.611	0.5	AX	n/a	n/a	dot_pattern_expectancy	-1.0	n/a	cue	AX	s612	False
71.119	0.5	71.595	2.452	AX	1.0	89.0	dot_pattern_expectancy	89.0	0.476	probe	AX	s612	False
73.578	0.5	73.577	0.5	BY	n/a	n/a	dot_pattern_expectancy	-1.0	n/a	cue	BY	s612	False
76.084	0.5	76.489	1.636	BY	1.0	71.0	dot_pattern_expectancy	71.0	0.405	probe	BY	s612	False
77.722	0.5	77.721	0.5	AX	n/a	n/a	dot_pattern_expectancy	-1.0	n/a	cue	AX	s612	False
80.229	0.5	80.672	1.636	AX	1.0	89.0	dot_pattern_expectancy	89.0	0.443	probe	AX	s612	False
81.866	0.5	81.865	0.5	AX	n/a	n/a	dot_pattern_expectancy	-1.0	n/a	cue	AX	s612	False
84.376	0.5	84.99	1.5	AX	1.0	89.0	dot_pattern_expectancy	89.0	0.614	probe	AX	s612	False
85.877	0.5	85.876	0.5	BY	n/a	n/a	dot_pattern_expectancy	-1.0	n/a	cue	BY	s612	False
88.384	0.5	88.783	1.636	BY	1.0	71.0	dot_pattern_expectancy	71.0	0.399	probe	BY	s612	False
90.021	0.5	90.02	0.5	AX	n/a	n/a	dot_pattern_expectancy	-1.0	n/a	cue	AX	s612	False
92.531	0.5	93.032	1.5	AX	1.0	89.0	dot_pattern_expectancy	89.0	0.501	probe	AX	s612	False
94.033	0.5	94.032	0.5	AY	n/a	n/a	dot_pattern_expectancy	-1.0	n/a	cue	AY	s612	False
96.539	0.5	97.202	2.18	AY	1.0	71.0	dot_pattern_expectancy	71.0	0.663	probe	AY	s612	False
98.72	0.5	98.719	0.5	AX	n/a	n/a	dot_pattern_expectancy	-1.0	n/a	cue	AX	s612	False
101.23	0.5	101.628	1.5	AX	1.0	89.0	dot_pattern_expectancy	89.0	0.398	probe	AX	s612	False
102.731	0.5	102.73	0.5	AX	n/a	n/a	dot_pattern_expectancy	-1.0	n/a	cue	AX	s612	False
105.243	0.5	105.783	1.908	AX	1.0	89.0	dot_pattern_expectancy	89.0	0.54	probe	AX	s612	False
107.153	0.5	107.152	0.5	BY	n/a	n/a	dot_pattern_expectancy	-1.0	n/a	cue	BY	s612	False
109.659	0.5	109.992	1.636	BY	1.0	71.0	dot_pattern_expectancy	71.0	0.333	probe	BY	s612	False
111.297	0.5	111.296	0.5	BY	n/a	n/a	dot_pattern_expectancy	-1.0	n/a	cue	BY	s612	False
113.803	0.5	114.197	1.636	BY	1.0	71.0	dot_pattern_expectancy	71.0	0.394	probe	BY	s612	False
115.441	0.5	115.44	0.5	AX	n/a	n/a	dot_pattern_expectancy	-1.0	n/a	cue	AX	s612	False
117.948	0.5	118.504	1.636	AX	1.0	89.0	dot_pattern_expectancy	89.0	0.556	probe	AX	s612	False
119.59	0.5	119.589	0.5	AX	n/a	n/a	dot_pattern_expectancy	-1.0	n/a	cue	AX	s612	False
122.1	0.5	122.54	1.5	AX	1.0	89.0	dot_pattern_expectancy	89.0	0.44	probe	AX	s612	False
123.601	0.5	123.6	0.5	BY	n/a	n/a	dot_pattern_expectancy	-1.0	n/a	cue	BY	s612	False
126.111	0.5	126.472	2.044	BY	1.0	71.0	dot_pattern_expectancy	71.0	0.361	probe	BY	s612	False
128.156	0.5	128.155	0.5	AY	n/a	n/a	dot_pattern_expectancy	-1.0	n/a	cue	AY	s612	False
130.664	0.5	131.424	2.18	AY	1.0	71.0	dot_pattern_expectancy	71.0	0.76	probe	AY	s612	False
132.85	0.5	132.849	0.5	AY	n/a	n/a	dot_pattern_expectancy	-1.0	n/a	cue	AY	s612	False
135.356	0.5	136.043	1.636	AY	1.0	71.0	dot_pattern_expectancy	71.0	0.687	probe	AY	s612	False
136.994	0.5	136.993	0.5	AY	n/a	n/a	dot_pattern_expectancy	-1.0	n/a	cue	AY	s612	False
139.502	0.5	140.181	1.772	AY	1.0	71.0	dot_pattern_expectancy	71.0	0.679	probe	AY	s612	False
141.276	0.5	141.275	0.5	BY	n/a	n/a	dot_pattern_expectancy	-1.0	n/a	cue	BY	s612	False
143.781	0.5	144.445	1.5	BY	1.0	71.0	dot_pattern_expectancy	71.0	0.664	probe	BY	s612	False
145.285	0.5	145.284	0.5	BX	n/a	n/a	dot_pattern_expectancy	-1.0	n/a	cue	BX	s612	False
147.789	0.5	148.23	1.908	BX	1.0	71.0	dot_pattern_expectancy	71.0	0.441	probe	BX	s612	False
149.698	0.5	149.697	0.5	AX	n/a	n/a	dot_pattern_expectancy	-1.0	n/a	cue	AX	s612	False
152.208	0.5	152.714	2.044	AX	1.0	89.0	dot_pattern_expectancy	89.0	0.506	probe	AX	s612	False
154.253	0.5	154.252	0.5	AX	n/a	n/a	dot_pattern_expectancy	-1.0	n/a	cue	AX	s612	False
156.763	0.5	157.339	1.636	AX	1.0	89.0	dot_pattern_expectancy	89.0	0.576	probe	AX	s612	False
158.402	0.5	158.401	0.5	AX	n/a	n/a	dot_pattern_expectancy	-1.0	n/a	cue	AX	s612	False
160.908	0.5	161.567	1.772	AX	1.0	89.0	dot_pattern_expectancy	89.0	0.659	probe	AX	s612	False
162.686	0.5	162.685	0.5	AX	n/a	n/a	dot_pattern_expectancy	-1.0	n/a	cue	AX	s612	False
165.192	0.5	165.704	1.636	AX	1.0	89.0	dot_pattern_expectancy	89.0	0.512	probe	AX	s612	False
166.83	0.5	166.829	0.5	BX	n/a	n/a	dot_pattern_expectancy	-1.0	n/a	cue	BX	s612	False
169.334	0.5	169.702	1.772	BX	1.0	71.0	dot_pattern_expectancy	71.0	0.368	probe	BX	s612	False
171.107	0.5	171.106	0.5	AX	n/a	n/a	dot_pattern_expectancy	-1.0	n/a	cue	AX	s612	False
173.616	0.5	174.011	1.5	AX	1.0	89.0	dot_pattern_expectancy	89.0	0.395	probe	AX	s612	False
185.627	0.5	185.626	0.5	BY	n/a	n/a	dot_pattern_expectancy	-1.0	n/a	cue	BY	s612	False
188.132	0.5	188.565	1.636	BY	1.0	71.0	dot_pattern_expectancy	71.0	0.433	probe	BY	s612	False
189.769	0.5	189.768	0.5	AY	n/a	n/a	dot_pattern_expectancy	-1.0	n/a	cue	AY	s612	False
192.276	0.5	192.98	1.5	AY	1.0	71.0	dot_pattern_expectancy	71.0	0.704	probe	AY	s612	False
193.78	0.5	193.779	0.5	AX	n/a	n/a	dot_pattern_expectancy	-1.0	n/a	cue	AX	s612	False
196.288	0.5	196.756	2.044	AX	1.0	89.0	dot_pattern_expectancy	89.0	0.468	probe	AX	s612	False
198.335	0.5	198.334	0.5	BY	n/a	n/a	dot_pattern_expectancy	-1.0	n/a	cue	BY	s612	False
200.842	0.5	201.291	1.772	BY	1.0	71.0	dot_pattern_expectancy	71.0	0.449	probe	BY	s612	False
202.618	0.5	202.617	0.5	BX	n/a	n/a	dot_pattern_expectancy	-1.0	n/a	cue	BX	s612	False
205.125	0.5	205.709	1.636	BX	1.0	71.0	dot_pattern_expectancy	71.0	0.584	probe	BX	s612	False
206.762	0.5	206.761	0.5	AX	n/a	n/a	dot_pattern_expectancy	-1.0	n/a	cue	AX	s612	False
209.269	0.5	209.969	1.636	AX	1.0	89.0	dot_pattern_expectancy	89.0	0.7	probe	AX	s612	False
210.907	0.5	210.906	0.5	AX	n/a	n/a	dot_pattern_expectancy	-1.0	n/a	cue	AX	s612	False
213.413	0.5	213.837	1.5	AX	1.0	89.0	dot_pattern_expectancy	89.0	0.424	probe	AX	s612	False
214.917	0.5	214.916	0.5	AX	n/a	n/a	dot_pattern_expectancy	-1.0	n/a	cue	AX	s612	False
217.427	0.5	218.0	1.5	AX	1.0	89.0	dot_pattern_expectancy	89.0	0.573	probe	AX	s612	False
218.928	0.5	218.927	0.5	AY	n/a	n/a	dot_pattern_expectancy	-1.0	n/a	cue	AY	s612	False
221.437	0.5	222.195	2.044	AY	1.0	71.0	dot_pattern_expectancy	71.0	0.758	probe	AY	s612	False
223.486	0.5	223.485	0.5	AX	n/a	n/a	dot_pattern_expectancy	-1.0	n/a	cue	AX	s612	False
225.989	0.5	226.336	2.452	AX	1.0	89.0	dot_pattern_expectancy	89.0	0.347	probe	AX	s612	False
228.443	0.5	228.442	0.5	AX	n/a	n/a	dot_pattern_expectancy	-1.0	n/a	cue	AX	s612	False
230.95	0.5	231.312	1.908	AX	1.0	89.0	dot_pattern_expectancy	89.0	0.362	probe	AX	s612	False
232.863	0.5	232.862	0.5	AX	n/a	n/a	dot_pattern_expectancy	-1.0	n/a	cue	AX	s612	False
235.372	0.5	235.779	1.5	AX	1.0	89.0	dot_pattern_expectancy	89.0	0.407	probe	AX	s612	False
236.875	0.5	236.874	0.5	AX	n/a	n/a	dot_pattern_expectancy	-1.0	n/a	cue	AX	s612	False
239.382	0.5	239.912	1.908	AX	1.0	89.0	dot_pattern_expectancy	89.0	0.53	probe	AX	s612	False
241.292	0.5	241.291	0.5	BX	n/a	n/a	dot_pattern_expectancy	-1.0	n/a	cue	BX	s612	False
243.798	0.5	244.139	2.18	BX	1.0	71.0	dot_pattern_expectancy	71.0	0.341	probe	BX	s612	False
245.98	0.5	245.979	0.5	AX	n/a	n/a	dot_pattern_expectancy	-1.0	n/a	cue	AX	s612	False
248.489	0.5	249.052	1.5	AX	1.0	89.0	dot_pattern_expectancy	89.0	0.563	probe	AX	s612	False
249.991	0.5	249.99	0.5	BY	n/a	n/a	dot_pattern_expectancy	-1.0	n/a	cue	BY	s612	False
252.5	0.5	252.861	1.908	BY	1.0	71.0	dot_pattern_expectancy	71.0	0.361	probe	BY	s612	False
254.409	0.5	254.408	0.5	BX	n/a	n/a	dot_pattern_expectancy	-1.0	n/a	cue	BX	s612	False
256.916	0.5	257.32	2.316	BX	1.0	71.0	dot_pattern_expectancy	71.0	0.404	probe	BX	s612	False
259.234	0.5	259.233	0.5	AY	n/a	n/a	dot_pattern_expectancy	-1.0	n/a	cue	AY	s612	False
261.743	0.5	262.869	2.316	AY	1.0	71.0	dot_pattern_expectancy	71.0	1.126	probe	AY	s612	False
264.064	0.5	264.063	0.5	BX	n/a	n/a	dot_pattern_expectancy	-1.0	n/a	cue	BX	s612	False
266.568	0.5	267.279	1.636	BX	1.0	71.0	dot_pattern_expectancy	71.0	0.711	probe	BX	s612	False
268.21	0.5	268.209	0.5	AY	n/a	n/a	dot_pattern_expectancy	-1.0	n/a	cue	AY	s612	False
270.721	0.5	271.379	1.5	AY	1.0	71.0	dot_pattern_expectancy	71.0	0.658	probe	AY	s612	False
272.226	0.5	272.225	0.5	BY	n/a	n/a	dot_pattern_expectancy	-1.0	n/a	cue	BY	s612	False
274.732	0.5	275.146	1.908	BY	1.0	71.0	dot_pattern_expectancy	71.0	0.414	probe	BY	s612	False
276.642	0.5	276.641	0.5	AX	n/a	n/a	dot_pattern_expectancy	-1.0	n/a	cue	AX	s612	False
279.15	0.5	279.77	1.5	AX	1.0	89.0	dot_pattern_expectancy	89.0	0.62	probe	AX	s612	False
280.653	0.5	280.652	0.5	AY	n/a	n/a	dot_pattern_expectancy	-1.0	n/a	cue	AY	s612	False
283.162	0.5	283.999	2.316	AY	1.0	71.0	dot_pattern_expectancy	71.0	0.837	probe	AY	s612	False
285.48	0.5	285.479	0.5	AX	n/a	n/a	dot_pattern_expectancy	-1.0	n/a	cue	AX	s612	False
287.989	0.5	288.471	1.5	AX	1.0	89.0	dot_pattern_expectancy	89.0	0.482	probe	AX	s612	False
289.491	0.5	289.49	0.5	AY	n/a	n/a	dot_pattern_expectancy	-1.0	n/a	cue	AY	s612	False
292.001	0.5	292.782	2.724	AY	1.0	71.0	dot_pattern_expectancy	71.0	0.781	probe	AY	s612	False
294.726	0.5	294.725	0.5	AX	n/a	n/a	dot_pattern_expectancy	-1.0	n/a	cue	AX	s612	False
297.235	0.5	297.756	1.5	AX	1.0	89.0	dot_pattern_expectancy	89.0	0.521	probe	AX	s612	False
298.737	0.5	298.736	0.5	AX	n/a	n/a	dot_pattern_expectancy	-1.0	n/a	cue	AX	s612	False
301.241	0.5	301.914	1.636	AX	1.0	89.0	dot_pattern_expectancy	89.0	0.673	probe	AX	s612	False
302.878	0.5	302.877	0.5	AX	n/a	n/a	dot_pattern_expectancy	-1.0	n/a	cue	AX	s612	False
305.385	0.5	305.876	1.636	AX	1.0	89.0	dot_pattern_expectancy	89.0	0.491	probe	AX	s612	False
307.023	0.5	307.022	0.5	AX	n/a	n/a	dot_pattern_expectancy	-1.0	n/a	cue	AX	s612	False
309.532	0.5	310.037	1.772	AX	1.0	89.0	dot_pattern_expectancy	89.0	0.505	probe	AX	s612	False
311.305	0.5	311.304	0.5	BY	n/a	n/a	dot_pattern_expectancy	-1.0	n/a	cue	BY	s612	False
313.815	0.5	314.103	1.772	BY	1.0	71.0	dot_pattern_expectancy	71.0	0.288	probe	BY	s612	False
315.588	0.5	315.587	0.5	AX	n/a	n/a	dot_pattern_expectancy	-1.0	n/a	cue	AX	s612	False
318.097	0.5	318.536	1.5	AX	1.0	89.0	dot_pattern_expectancy	89.0	0.439	probe	AX	s612	False
319.599	0.5	319.598	0.5	BY	n/a	n/a	dot_pattern_expectancy	-1.0	n/a	cue	BY	s612	False
322.106	0.5	322.841	2.452	BY	1.0	71.0	dot_pattern_expectancy	71.0	0.735	probe	BY	s612	False
324.559	0.5	324.558	0.5	AX	n/a	n/a	dot_pattern_expectancy	-1.0	n/a	cue	AX	s612	False
327.066	0.5	327.541	1.636	AX	1.0	89.0	dot_pattern_expectancy	89.0	0.475	probe	AX	s612	False
328.704	0.5	328.703	0.5	AX	n/a	n/a	dot_pattern_expectancy	-1.0	n/a	cue	AX	s612	False
331.21	0.5	331.614	1.636	AX	1.0	89.0	dot_pattern_expectancy	89.0	0.404	probe	AX	s612	False
332.85	0.5	332.849	0.5	BX	n/a	n/a	dot_pattern_expectancy	-1.0	n/a	cue	BX	s612	False
335.357	0.5	335.715	1.5	BX	1.0	71.0	dot_pattern_expectancy	71.0	0.358	probe	BX	s612	False
336.863	0.5	336.862	0.5	BX	n/a	n/a	dot_pattern_expectancy	-1.0	n/a	cue	BX	s612	False
339.373	0.5	339.78	1.5	BX	1.0	71.0	dot_pattern_expectancy	71.0	0.407	probe	BX	s612	False
340.875	0.5	340.874	0.5	AX	n/a	n/a	dot_pattern_expectancy	-1.0	n/a	cue	AX	s612	False
343.378	0.5	343.814	2.316	AX	1.0	89.0	dot_pattern_expectancy	89.0	0.436	probe	AX	s612	False
345.696	0.5	345.695	0.5	AY	n/a	n/a	dot_pattern_expectancy	-1.0	n/a	cue	AY	s612	False
348.2	0.5	348.837	2.044	AY	1.0	71.0	dot_pattern_expectancy	71.0	0.637	probe	AY	s612	False
350.246	0.5	350.245	0.5	AX	n/a	n/a	dot_pattern_expectancy	-1.0	n/a	cue	AX	s612	False
352.755	0.5	353.427	3.948	AX	1.0	89.0	dot_pattern_expectancy	89.0	0.672	probe	AX	s612	False
356.704	0.5	356.703	0.5	AX	n/a	n/a	dot_pattern_expectancy	-1.0	n/a	cue	AX	s612	False
359.211	0.5	359.654	1.636	AX	1.0	89.0	dot_pattern_expectancy	89.0	0.443	probe	AX	s612	False
371.364	0.5	371.363	0.5	AY	n/a	n/a	dot_pattern_expectancy	-1.0	n/a	cue	AY	s612	False
373.868	0.5	374.628	1.636	AY	1.0	71.0	dot_pattern_expectancy	71.0	0.76	probe	AY	s612	False
375.505	0.5	375.504	0.5	AX	n/a	n/a	dot_pattern_expectancy	-1.0	n/a	cue	AX	s612	False
378.012	0.5	378.742	1.636	AX	1.0	89.0	dot_pattern_expectancy	89.0	0.73	probe	AX	s612	False
379.649	0.5	379.648	0.5	AX	n/a	n/a	dot_pattern_expectancy	-1.0	n/a	cue	AX	s612	False
382.159	0.5	382.602	1.5	AX	1.0	89.0	dot_pattern_expectancy	89.0	0.443	probe	AX	s612	False
383.66	0.5	383.659	0.5	AX	n/a	n/a	dot_pattern_expectancy	-1.0	n/a	cue	AX	s612	False
386.17	0.5	386.916	1.5	AX	1.0	89.0	dot_pattern_expectancy	89.0	0.746	probe	AX	s612	False
387.671	0.5	387.67	0.5	AX	n/a	n/a	dot_pattern_expectancy	-1.0	n/a	cue	AX	s612	False
390.178	0.5	390.727	1.908	AX	1.0	89.0	dot_pattern_expectancy	89.0	0.549	probe	AX	s612	False
392.087	0.5	392.086	0.5	BX	n/a	n/a	dot_pattern_expectancy	-1.0	n/a	cue	BX	s612	False
394.594	0.5	394.931	1.636	BX	1.0	71.0	dot_pattern_expectancy	71.0	0.337	probe	BX	s612	False
396.231	0.5	396.23	0.5	AX	n/a	n/a	dot_pattern_expectancy	-1.0	n/a	cue	AX	s612	False
398.741	0.5	399.293	2.044	AX	1.0	89.0	dot_pattern_expectancy	89.0	0.552	probe	AX	s612	False
400.786	0.5	400.785	0.5	AX	n/a	n/a	dot_pattern_expectancy	-1.0	n/a	cue	AX	s612	False
403.296	0.5	403.833	1.772	AX	1.0	89.0	dot_pattern_expectancy	89.0	0.537	probe	AX	s612	False
405.069	0.5	405.068	0.5	AX	n/a	n/a	dot_pattern_expectancy	-1.0	n/a	cue	AX	s612	False
407.573	0.5	408.021	1.5	AX	1.0	89.0	dot_pattern_expectancy	89.0	0.448	probe	AX	s612	False
409.075	0.5	409.074	0.5	AX	n/a	n/a	dot_pattern_expectancy	-1.0	n/a	cue	AX	s612	False
411.581	0.5	412.161	2.18	AX	1.0	89.0	dot_pattern_expectancy	89.0	0.58	probe	AX	s612	False
413.763	0.5	413.762	0.5	AX	n/a	n/a	dot_pattern_expectancy	-1.0	n/a	cue	AX	s612	False
416.274	0.5	416.709	1.5	AX	1.0	89.0	dot_pattern_expectancy	89.0	0.435	probe	AX	s612	False
417.776	0.5	417.775	0.5	BX	n/a	n/a	dot_pattern_expectancy	-1.0	n/a	cue	BX	s612	False
420.284	0.5	420.625	3.676	BX	1.0	71.0	dot_pattern_expectancy	71.0	0.341	probe	BX	s612	False
423.966	0.5	423.965	0.5	BY	n/a	n/a	dot_pattern_expectancy	-1.0	n/a	cue	BY	s612	False
426.472	0.5	426.999	1.636	BY	1.0	71.0	dot_pattern_expectancy	71.0	0.527	probe	BY	s612	False
428.11	0.5	428.109	0.5	BY	n/a	n/a	dot_pattern_expectancy	-1.0	n/a	cue	BY	s612	False
430.616	0.5	431.221	1.636	BY	1.0	71.0	dot_pattern_expectancy	71.0	0.605	probe	BY	s612	False
432.254	0.5	432.253	0.5	BX	n/a	n/a	dot_pattern_expectancy	-1.0	n/a	cue	BX	s612	False
434.765	0.5	435.155	1.5	BX	1.0	71.0	dot_pattern_expectancy	71.0	0.39	probe	BX	s612	False
436.27	0.5	436.269	0.5	AX	n/a	n/a	dot_pattern_expectancy	-1.0	n/a	cue	AX	s612	False
438.772	0.5	439.156	1.908	AX	1.0	89.0	dot_pattern_expectancy	89.0	0.384	probe	AX	s612	False
440.681	0.5	440.68	0.5	AX	n/a	n/a	dot_pattern_expectancy	-1.0	n/a	cue	AX	s612	False
443.188	0.5	443.809	1.636	AX	1.0	89.0	dot_pattern_expectancy	89.0	0.621	probe	AX	s612	False
444.825	0.5	444.824	0.5	BX	n/a	n/a	dot_pattern_expectancy	-1.0	n/a	cue	BX	s612	False
447.332	0.5	447.687	1.5	BX	1.0	71.0	dot_pattern_expectancy	71.0	0.355	probe	BX	s612	False
448.836	0.5	448.835	0.5	AX	n/a	n/a	dot_pattern_expectancy	-1.0	n/a	cue	AX	s612	False
451.343	0.5	451.881	1.908	AX	1.0	89.0	dot_pattern_expectancy	89.0	0.538	probe	AX	s612	False
453.252	0.5	453.251	0.5	BY	n/a	n/a	dot_pattern_expectancy	-1.0	n/a	cue	BY	s612	False
455.762	0.5	456.424	2.18	BY	1.0	71.0	dot_pattern_expectancy	71.0	0.662	probe	BY	s612	False
457.946	0.5	457.945	0.5	AX	n/a	n/a	dot_pattern_expectancy	-1.0	n/a	cue	AX	s612	False
460.455	0.5	460.768	1.772	AX	1.0	89.0	dot_pattern_expectancy	89.0	0.313	probe	AX	s612	False
462.229	0.5	462.228	0.5	AX	n/a	n/a	dot_pattern_expectancy	-1.0	n/a	cue	AX	s612	False
464.733	0.5	465.172	1.5	AX	1.0	89.0	dot_pattern_expectancy	89.0	0.439	probe	AX	s612	False
466.234	0.5	466.233	0.5	AX	n/a	n/a	dot_pattern_expectancy	-1.0	n/a	cue	AX	s612	False
468.744	0.5	469.144	1.5	AX	1.0	89.0	dot_pattern_expectancy	89.0	0.4	probe	AX	s612	False
470.245	0.5	470.244	0.5	AX	n/a	n/a	dot_pattern_expectancy	-1.0	n/a	cue	AX	s612	False
472.754	0.5	473.23	2.044	AX	1.0	89.0	dot_pattern_expectancy	89.0	0.476	probe	AX	s612	False
474.8	0.5	474.799	0.5	AX	n/a	n/a	dot_pattern_expectancy	-1.0	n/a	cue	AX	s612	False
477.309	0.5	477.726	2.86	AX	1.0	89.0	dot_pattern_expectancy	89.0	0.417	probe	AX	s612	False
480.171	0.5	480.17	0.5	BX	n/a	n/a	dot_pattern_expectancy	-1.0	n/a	cue	BX	s612	False
482.676	0.5	482.931	1.5	BX	1.0	71.0	dot_pattern_expectancy	71.0	0.255	probe	BX	s612	False
484.182	0.5	484.181	0.5	BY	n/a	n/a	dot_pattern_expectancy	-1.0	n/a	cue	BY	s612	False
486.691	0.5	487.18	1.772	BY	1.0	71.0	dot_pattern_expectancy	71.0	0.489	probe	BY	s612	False
488.465	0.5	488.464	0.5	AX	n/a	n/a	dot_pattern_expectancy	-1.0	n/a	cue	AX	s612	False
490.969	0.5	491.375	1.772	AX	1.0	89.0	dot_pattern_expectancy	89.0	0.406	probe	AX	s612	False
492.744	0.5	492.743	0.5	AX	n/a	n/a	dot_pattern_expectancy	-1.0	n/a	cue	AX	s612	False
495.251	0.5	495.816	2.86	AX	1.0	89.0	dot_pattern_expectancy	89.0	0.565	probe	AX	s612	False
498.113	0.5	498.112	0.5	AX	n/a	n/a	dot_pattern_expectancy	-1.0	n/a	cue	AX	s612	False
500.622	0.5	501.187	1.772	AX	1.0	89.0	dot_pattern_expectancy	89.0	0.565	probe	AX	s612	False
502.396	0.5	502.395	0.5	BX	n/a	n/a	dot_pattern_expectancy	-1.0	n/a	cue	BX	s612	False
504.903	0.5	505.249	1.636	BX	1.0	71.0	dot_pattern_expectancy	71.0	0.346	probe	BX	s612	False
506.541	0.5	506.54	0.5	BX	n/a	n/a	dot_pattern_expectancy	-1.0	n/a	cue	BX	s612	False
509.047	0.5	509.536	2.452	BX	1.0	71.0	dot_pattern_expectancy	71.0	0.489	probe	BX	s612	False
511.5	0.5	511.499	0.5	AX	n/a	n/a	dot_pattern_expectancy	-1.0	n/a	cue	AX	s612	False
514.007	0.5	514.377	1.636	AX	1.0	89.0	dot_pattern_expectancy	89.0	0.37	probe	AX	s612	False
515.644	0.5	515.643	0.5	BX	n/a	n/a	dot_pattern_expectancy	-1.0	n/a	cue	BX	s612	False
518.155	0.5	518.47	1.5	BX	1.0	71.0	dot_pattern_expectancy	71.0	0.315	probe	BX	s612	False
519.661	0.5	519.66	0.5	AX	n/a	n/a	dot_pattern_expectancy	-1.0	n/a	cue	AX	s612	False
522.167	0.5	522.543	1.636	AX	1.0	89.0	dot_pattern_expectancy	89.0	0.376	probe	AX	s612	False
523.805	0.5	523.804	0.5	AX	n/a	n/a	dot_pattern_expectancy	-1.0	n/a	cue	AX	s612	False
526.311	0.5	526.869	1.636	AX	1.0	89.0	dot_pattern_expectancy	89.0	0.558	probe	AX	s612	False
527.949	0.5	527.948	0.5	BY	n/a	n/a	dot_pattern_expectancy	-1.0	n/a	cue	BY	s612	False
530.456	0.5	530.787	2.18	BY	1.0	71.0	dot_pattern_expectancy	71.0	0.331	probe	BY	s612	False
532.637	0.5	532.636	0.5	AX	n/a	n/a	dot_pattern_expectancy	-1.0	n/a	cue	AX	s612	False
535.146	0.5	535.678	1.5	AX	1.0	89.0	dot_pattern_expectancy	89.0	0.532	probe	AX	s612	False
536.648	0.5	536.647	0.5	AY	n/a	n/a	dot_pattern_expectancy	-1.0	n/a	cue	AY	s612	False
539.155	0.5	539.848	1.636	AY	1.0	71.0	dot_pattern_expectancy	71.0	0.693	probe	AY	s612	False
540.793	0.5	540.792	0.5	AX	n/a	n/a	dot_pattern_expectancy	-1.0	n/a	cue	AX	s612	False
543.298	0.5	543.671	1.636	AX	1.0	89.0	dot_pattern_expectancy	89.0	0.373	probe	AX	s612	False
555.45	0.5	555.449	0.5	AX	n/a	n/a	dot_pattern_expectancy	-1.0	n/a	cue	AX	s612	False
557.956	0.5	558.38	2.18	AX	1.0	89.0	dot_pattern_expectancy	89.0	0.424	probe	AX	s612	False
560.138	0.5	560.137	0.5	AY	n/a	n/a	dot_pattern_expectancy	-1.0	n/a	cue	AY	s612	False
562.646	0.5	563.437	2.316	AY	1.0	71.0	dot_pattern_expectancy	71.0	0.791	probe	AY	s612	False
564.966	0.5	564.965	0.5	AY	n/a	n/a	dot_pattern_expectancy	-1.0	n/a	cue	AY	s612	False
567.476	0.5	568.169	1.636	AY	1.0	71.0	dot_pattern_expectancy	71.0	0.693	probe	AY	s612	False
569.113	0.5	569.112	0.5	BX	n/a	n/a	dot_pattern_expectancy	-1.0	n/a	cue	BX	s612	False
571.62	0.5	572.102	1.908	BX	0.0	71.0	dot_pattern_expectancy	89.0	0.482	probe	BX	s612	False
573.533	0.5	573.532	0.5	AX	n/a	n/a	dot_pattern_expectancy	-1.0	n/a	cue	AX	s612	False
576.039	0.5	576.544	3.54	AX	1.0	89.0	dot_pattern_expectancy	89.0	0.505	probe	AX	s612	False
579.581	0.5	579.58	0.5	BX	n/a	n/a	dot_pattern_expectancy	-1.0	n/a	cue	BX	s612	False
582.087	0.5	582.425	1.636	BX	1.0	71.0	dot_pattern_expectancy	71.0	0.338	probe	BX	s612	False
583.727	0.5	583.726	0.5	BY	n/a	n/a	dot_pattern_expectancy	-1.0	n/a	cue	BY	s612	False
586.236	0.5	586.92	1.5	BY	1.0	71.0	dot_pattern_expectancy	71.0	0.684	probe	BY	s612	False
587.738	0.5	587.737	0.5	AX	n/a	n/a	dot_pattern_expectancy	-1.0	n/a	cue	AX	s612	False
590.247	0.5	590.692	1.5	AX	1.0	89.0	dot_pattern_expectancy	89.0	0.445	probe	AX	s612	False
591.749	0.5	591.748	0.5	AX	n/a	n/a	dot_pattern_expectancy	-1.0	n/a	cue	AX	s612	False
594.258	0.5	594.707	1.772	AX	1.0	89.0	dot_pattern_expectancy	89.0	0.449	probe	AX	s612	False
596.031	0.5	596.03	0.5	BY	n/a	n/a	dot_pattern_expectancy	-1.0	n/a	cue	BY	s612	False
598.539	0.5	598.898	2.452	BY	1.0	71.0	dot_pattern_expectancy	71.0	0.359	probe	BY	s612	False
600.992	0.5	600.991	0.5	AX	n/a	n/a	dot_pattern_expectancy	-1.0	n/a	cue	AX	s612	False
603.498	0.5	603.891	1.908	AX	1.0	89.0	dot_pattern_expectancy	89.0	0.393	probe	AX	s612	False
605.408	0.5	605.407	0.5	BX	n/a	n/a	dot_pattern_expectancy	-1.0	n/a	cue	BX	s612	False
607.918	0.5	608.283	1.636	BX	1.0	71.0	dot_pattern_expectancy	71.0	0.365	probe	BX	s612	False
609.558	0.5	609.557	0.5	AX	n/a	n/a	dot_pattern_expectancy	-1.0	n/a	cue	AX	s612	False
612.066	0.5	612.558	1.5	AX	1.0	89.0	dot_pattern_expectancy	89.0	0.492	probe	AX	s612	False
613.568	0.5	613.567	0.5	AX	n/a	n/a	dot_pattern_expectancy	-1.0	n/a	cue	AX	s612	False
616.075	0.5	616.627	1.636	AX	1.0	89.0	dot_pattern_expectancy	89.0	0.552	probe	AX	s612	False
617.713	0.5	617.712	0.5	AX	n/a	n/a	dot_pattern_expectancy	-1.0	n/a	cue	AX	s612	False
620.219	0.5	620.67	1.636	AX	1.0	89.0	dot_pattern_expectancy	89.0	0.451	probe	AX	s612	False
621.857	0.5	621.856	0.5	BY	n/a	n/a	dot_pattern_expectancy	-1.0	n/a	cue	BY	s612	False
624.364	0.5	624.69	2.452	BY	1.0	71.0	dot_pattern_expectancy	71.0	0.326	probe	BY	s612	False
626.817	0.5	626.816	0.5	AX	n/a	n/a	dot_pattern_expectancy	-1.0	n/a	cue	AX	s612	False
629.326	0.5	629.663	1.5	AX	1.0	89.0	dot_pattern_expectancy	89.0	0.337	probe	AX	s612	False
630.828	0.5	630.827	0.5	BY	n/a	n/a	dot_pattern_expectancy	-1.0	n/a	cue	BY	s612	False
633.338	0.5	633.741	1.5	BY	1.0	71.0	dot_pattern_expectancy	71.0	0.403	probe	BY	s612	False
634.84	0.5	634.839	0.5	AX	n/a	n/a	dot_pattern_expectancy	-1.0	n/a	cue	AX	s612	False
637.346	0.5	638.26	1.636	AX	0.0	89.0	dot_pattern_expectancy	71.0	0.914	probe	AX	s612	False
638.983	0.5	638.982	0.5	AX	n/a	n/a	dot_pattern_expectancy	-1.0	n/a	cue	AX	s612	False
641.49	0.5	641.86	1.636	AX	1.0	89.0	dot_pattern_expectancy	89.0	0.37	probe	AX	s612	False
643.127	0.5	643.126	0.5	AY	n/a	n/a	dot_pattern_expectancy	-1.0	n/a	cue	AY	s612	False
645.634	0.5	646.487	1.636	AY	1.0	71.0	dot_pattern_expectancy	71.0	0.853	probe	AY	s612	False
647.271	0.5	647.27	0.5	AX	n/a	n/a	dot_pattern_expectancy	-1.0	n/a	cue	AX	s612	False
649.781	0.5	650.112	1.5	AX	1.0	89.0	dot_pattern_expectancy	89.0	0.331	probe	AX	s612	False
651.282	0.5	651.281	0.5	AX	n/a	n/a	dot_pattern_expectancy	-1.0	n/a	cue	AX	s612	False
653.791	0.5	654.489	1.5	AX	1.0	89.0	dot_pattern_expectancy	89.0	0.698	probe	AX	s612	False
655.293	0.5	655.292	0.5	AX	n/a	n/a	dot_pattern_expectancy	-1.0	n/a	cue	AX	s612	False
657.802	0.5	658.19	1.772	AX	1.0	89.0	dot_pattern_expectancy	89.0	0.388	probe	AX	s612	False
659.576	0.5	659.575	0.5	AX	n/a	n/a	dot_pattern_expectancy	-1.0	n/a	cue	AX	s612	False
662.083	0.5	662.529	2.18	AX	1.0	89.0	dot_pattern_expectancy	89.0	0.446	probe	AX	s612	False
664.268	0.5	664.267	0.5	BX	n/a	n/a	dot_pattern_expectancy	-1.0	n/a	cue	BX	s612	False
666.773	0.5	667.117	1.772	BX	1.0	71.0	dot_pattern_expectancy	71.0	0.344	probe	BX	s612	False
668.547	0.5	668.546	0.5	BY	n/a	n/a	dot_pattern_expectancy	-1.0	n/a	cue	BY	s612	False
671.053	0.5	671.482	1.5	BY	1.0	71.0	dot_pattern_expectancy	71.0	0.429	probe	BY	s612	False
672.558	0.5	672.557	0.5	AX	n/a	n/a	dot_pattern_expectancy	-1.0	n/a	cue	AX	s612	False
675.067	0.5	675.454	1.5	AX	1.0	89.0	dot_pattern_expectancy	89.0	0.387	probe	AX	s612	False
676.569	0.5	676.568	0.5	AX	n/a	n/a	dot_pattern_expectancy	-1.0	n/a	cue	AX	s612	False
679.075	0.5	679.594	1.636	AX	1.0	89.0	dot_pattern_expectancy	89.0	0.519	probe	AX	s612	False
680.713	0.5	680.712	0.5	AY	n/a	n/a	dot_pattern_expectancy	-1.0	n/a	cue	AY	s612	False
683.219	0.5	684.029	2.18	AY	1.0	71.0	dot_pattern_expectancy	71.0	0.81	probe	AY	s612	False
685.401	0.5	685.4	0.5	AY	n/a	n/a	dot_pattern_expectancy	-1.0	n/a	cue	AY	s612	False
687.907	0.5	688.653	2.316	AY	1.0	71.0	dot_pattern_expectancy	71.0	0.746	probe	AY	s612	False
690.226	0.5	690.225	0.5	BX	n/a	n/a	dot_pattern_expectancy	-1.0	n/a	cue	BX	s612	False
692.732	0.5	693.282	1.636	BX	1.0	71.0	dot_pattern_expectancy	71.0	0.55	probe	BX	s612	False
694.372	0.5	694.371	0.5	BX	n/a	n/a	dot_pattern_expectancy	-1.0	n/a	cue	BX	s612	False
696.879	0.5	697.218	2.18	BX	1.0	71.0	dot_pattern_expectancy	71.0	0.339	probe	BX	s612	False
699.06	0.5	699.059	0.5	AY	n/a	n/a	dot_pattern_expectancy	-1.0	n/a	cue	AY	s612	False
701.569	0.5	701.954	2.044	AY	0.0	71.0	dot_pattern_expectancy	89.0	0.385	probe	AY	s612	False
703.615	0.5	703.614	0.5	AX	n/a	n/a	dot_pattern_expectancy	-1.0	n/a	cue	AX	s612	False
706.121	0.5	706.821	1.772	AX	1.0	89.0	dot_pattern_expectancy	89.0	0.7	probe	AX	s612	False
707.898	0.5	707.897	0.5	AX	n/a	n/a	dot_pattern_expectancy	-1.0	n/a	cue	AX	s612	False
710.407	0.5	710.878	1.5	AX	1.0	89.0	dot_pattern_expectancy	89.0	0.471	probe	AX	s612	False
711.909	0.5	711.908	0.5	AX	n/a	n/a	dot_pattern_expectancy	-1.0	n/a	cue	AX	s612	False
714.415	0.5	714.901	2.18	AX	1.0	89.0	dot_pattern_expectancy	89.0	0.486	probe	AX	s612	False
716.602	0.5	716.601	0.5	AY	n/a	n/a	dot_pattern_expectancy	-1.0	n/a	cue	AY	s612	False
719.109	0.5	719.822	2.452	AY	1.0	71.0	dot_pattern_expectancy	71.0	0.713	probe	AY	s612	False
721.562	0.5	721.561	0.5	AX	n/a	n/a	dot_pattern_expectancy	-1.0	n/a	cue	AX	s612	False
724.072	0.5	724.56	1.636	AX	1.0	89.0	dot_pattern_expectancy	89.0	0.488	probe	AX	s612	False
725.71	0.5	725.709	0.5	AX	n/a	n/a	dot_pattern_expectancy	-1.0	n/a	cue	AX	s612	False
728.219	0.5	728.704	1.908	AX	1.0	89.0	dot_pattern_expectancy	89.0	0.485	probe	AX	s612	False
