onset	duration	SS_delay	block_duration	correct	correct_response	experiment_exp_id	key_press	passed_check	response_time	stopped	trial_id	trial_type	worker_id	junk
3.013	0.85	0.2	2.386	1.0	71.0	stop_signal	71.0	True	1.12	False	stim	go	s612	False
5.403	0.85	0.2	2.522	1.0	89.0	stop_signal	89.0	True	0.658	False	stim	go	s612	False
7.927	0.85	0.2	2.93	1.0	71.0	stop_signal	71.0	True	1.082	False	stim	stop_failure	s612	False
10.861	0.85	0.15	2.522	1.0	89.0	stop_signal	89.0	True	0.721	False	stim	go	s612	False
13.385	0.85	0.15	2.522	1.0	89.0	stop_signal	89.0	True	0.616	False	stim	go	s612	False
15.908	0.85	0.15	2.25	1.0	89.0	stop_signal	89.0	True	0.804	False	stim	go	s612	False
18.163	0.85	0.15	2.522	1.0	89.0	stop_signal	-1.0	True	n/a	True	stim	stop_success	s612	False
20.689	0.85	0.2	2.386	1.0	89.0	stop_signal	89.0	True	0.646	False	stim	go	s612	False
23.081	0.85	0.2	2.25	1.0	71.0	stop_signal	71.0	True	0.672	False	stim	go	s612	False
25.337	0.85	0.2	2.386	1.0	89.0	stop_signal	89.0	True	0.649	False	stim	go	s612	False
27.726	0.85	0.2	2.25	1.0	89.0	stop_signal	89.0	True	0.466	False	stim	go	s612	False
29.98	0.85	0.2	2.386	1.0	89.0	stop_signal	-1.0	True	n/a	True	stim	stop_success	s612	False
32.372	0.85	0.25	2.522	1.0	71.0	stop_signal	71.0	True	0.643	False	stim	go	s612	False
34.896	0.85	0.25	2.25	1.0	89.0	stop_signal	-1.0	True	n/a	True	stim	stop_success	s612	False
37.149	0.85	0.3	2.386	1.0	71.0	stop_signal	71.0	True	0.654	False	stim	stop_failure	s612	False
39.538	0.85	0.25	2.658	1.0	89.0	stop_signal	89.0	True	0.664	False	stim	go	s612	False
42.202	0.85	0.25	2.25	1.0	89.0	stop_signal	-1.0	True	n/a	True	stim	stop_success	s612	False
44.455	0.85	0.3	3.202	1.0	71.0	stop_signal	71.0	True	0.596	False	stim	go	s612	False
47.661	0.85	0.3	2.386	1.0	89.0	stop_signal	89.0	True	0.574	False	stim	go	s612	False
50.05	0.85	0.3	2.386	1.0	89.0	stop_signal	89.0	True	0.871	False	stim	go	s612	False
52.442	0.85	0.3	2.522	1.0	89.0	stop_signal	89.0	True	0.568	False	stim	stop_failure	s612	False
54.965	0.85	0.25	2.25	1.0	89.0	stop_signal	89.0	True	0.53	False	stim	go	s612	False
57.222	0.85	0.25	2.25	1.0	89.0	stop_signal	89.0	True	0.503	False	stim	stop_failure	s612	False
59.478	0.85	0.2	2.25	1.0	89.0	stop_signal	-1.0	True	n/a	True	stim	stop_success	s612	False
61.731	0.85	0.25	2.93	1.0	89.0	stop_signal	89.0	True	0.632	False	stim	go	s612	False
64.665	0.85	0.25	2.522	1.0	89.0	stop_signal	89.0	True	0.716	False	stim	go	s612	False
67.189	0.85	0.25	2.522	1.0	89.0	stop_signal	89.0	True	0.534	False	stim	go	s612	False
69.712	0.85	0.25	2.25	1.0	89.0	stop_signal	89.0	True	0.502	False	stim	go	s612	False
71.968	0.85	0.25	2.522	1.0	71.0	stop_signal	71.0	True	0.68	False	stim	stop_failure	s612	False
74.495	0.85	0.2	2.25	1.0	89.0	stop_signal	-1.0	True	n/a	True	stim	stop_success	s612	False
76.749	0.85	0.25	2.386	1.0	71.0	stop_signal	71.0	True	0.66	False	stim	go	s612	False
79.137	0.85	0.25	2.25	1.0	71.0	stop_signal	-1.0	True	n/a	True	stim	stop_success	s612	False
81.389	0.85	0.3	2.658	1.0	71.0	stop_signal	71.0	True	0.666	False	stim	go	s612	False
84.053	0.85	0.3	2.658	1.0	89.0	stop_signal	89.0	True	0.537	False	stim	go	s612	False
86.715	0.85	0.3	2.25	1.0	71.0	stop_signal	71.0	True	0.732	False	stim	go	s612	False
88.972	0.85	0.3	2.25	1.0	71.0	stop_signal	71.0	True	0.616	False	stim	go	s612	False
91.224	0.85	0.3	2.386	1.0	71.0	stop_signal	71.0	True	0.568	False	stim	go	s612	False
93.615	0.85	0.3	2.794	1.0	71.0	stop_signal	-1.0	True	n/a	True	stim	stop_success	s612	False
96.415	0.85	0.35	2.386	1.0	71.0	stop_signal	71.0	True	0.486	False	stim	stop_failure	s612	False
98.804	0.85	0.3	2.25	1.0	71.0	stop_signal	-1.0	True	n/a	True	stim	stop_success	s612	False
101.057	0.85	0.35	2.25	1.0	89.0	stop_signal	-1.0	True	n/a	True	stim	stop_success	s612	False
113.823	0.85	0.4	2.25	1.0	71.0	stop_signal	-1.0	True	n/a	True	stim	stop_success	s612	False
116.074	0.85	0.45	2.658	1.0	71.0	stop_signal	71.0	True	0.614	False	stim	go	s612	False
118.735	0.85	0.45	2.658	1.0	89.0	stop_signal	89.0	True	0.747	False	stim	go	s612	False
121.394	0.85	0.45	2.25	1.0	89.0	stop_signal	89.0	True	0.737	False	stim	go	s612	False
123.651	0.85	0.45	2.522	1.0	71.0	stop_signal	71.0	True	0.741	False	stim	go	s612	False
126.178	0.85	0.45	2.25	1.0	89.0	stop_signal	89.0	True	0.655	False	stim	go	s612	False
128.429	0.85	0.45	2.522	1.0	71.0	stop_signal	-1.0	True	n/a	True	stim	stop_success	s612	False
130.953	0.85	0.5	2.522	1.0	71.0	stop_signal	71.0	True	0.647	False	stim	go	s612	False
133.478	0.85	0.5	2.522	1.0	71.0	stop_signal	71.0	True	0.659	False	stim	stop_failure	s612	False
136.005	0.85	0.45	2.386	1.0	71.0	stop_signal	71.0	True	0.623	False	stim	stop_failure	s612	False
138.397	0.85	0.4	2.522	1.0	89.0	stop_signal	-1.0	True	n/a	True	stim	stop_success	s612	False
140.925	0.85	0.45	2.522	0.0	71.0	stop_signal	-1.0	True	n/a	True	stim	go	s612	False
143.449	0.85	0.45	2.386	1.0	71.0	stop_signal	71.0	True	0.542	False	stim	go	s612	False
145.837	0.85	0.45	2.25	1.0	89.0	stop_signal	89.0	True	0.802	False	stim	go	s612	False
148.088	0.85	0.45	2.522	1.0	71.0	stop_signal	71.0	True	0.689	False	stim	go	s612	False
150.616	0.85	0.45	2.794	1.0	71.0	stop_signal	71.0	True	0.724	False	stim	go	s612	False
153.412	0.85	0.45	2.522	1.0	89.0	stop_signal	89.0	True	0.808	False	stim	stop_failure	s612	False
155.936	0.85	0.4	2.386	1.0	89.0	stop_signal	-1.0	True	n/a	True	stim	stop_success	s612	False
158.324	0.85	0.45	2.25	1.0	89.0	stop_signal	89.0	True	0.822	False	stim	go	s612	False
160.577	0.85	0.45	2.25	1.0	71.0	stop_signal	-1.0	True	n/a	True	stim	stop_success	s612	False
162.83	0.85	0.5	2.25	1.0	89.0	stop_signal	89.0	True	0.72	False	stim	stop_failure	s612	False
165.086	0.85	0.45	2.25	1.0	71.0	stop_signal	71.0	True	0.586	False	stim	stop_failure	s612	False
167.342	0.85	0.4	2.522	1.0	71.0	stop_signal	71.0	True	0.875	False	stim	go	s612	False
169.866	0.85	0.4	2.25	1.0	89.0	stop_signal	89.0	True	0.502	False	stim	go	s612	False
172.121	0.85	0.4	2.25	1.0	89.0	stop_signal	89.0	True	0.462	False	stim	stop_failure	s612	False
174.377	0.85	0.35	2.25	1.0	71.0	stop_signal	71.0	True	0.69	False	stim	go	s612	False
176.63	0.85	0.35	2.25	1.0	89.0	stop_signal	89.0	True	0.599	False	stim	go	s612	False
178.884	0.85	0.35	2.386	0.0	89.0	stop_signal	71.0	True	0.768	False	stim	go	s612	False
181.273	0.85	0.35	2.25	1.0	71.0	stop_signal	71.0	True	0.603	False	stim	go	s612	False
183.53	0.85	0.35	2.25	1.0	89.0	stop_signal	89.0	True	0.751	False	stim	stop_failure	s612	False
185.786	0.85	0.3	2.25	1.0	89.0	stop_signal	89.0	True	0.577	False	stim	go	s612	False
188.041	0.85	0.3	2.25	1.0	89.0	stop_signal	89.0	True	0.571	False	stim	stop_failure	s612	False
190.293	0.85	0.25	2.522	1.0	71.0	stop_signal	-1.0	True	n/a	True	stim	stop_success	s612	False
192.816	0.85	0.3	2.386	1.0	71.0	stop_signal	71.0	True	0.669	False	stim	go	s612	False
195.205	0.85	0.3	2.522	1.0	89.0	stop_signal	89.0	True	0.772	False	stim	go	s612	False
197.733	0.85	0.3	2.25	1.0	71.0	stop_signal	-1.0	True	n/a	True	stim	stop_success	s612	False
199.986	0.85	0.35	2.386	1.0	89.0	stop_signal	89.0	True	0.89	False	stim	go	s612	False
202.375	0.85	0.35	2.386	1.0	71.0	stop_signal	71.0	True	0.54	False	stim	go	s612	False
204.762	0.85	0.35	2.25	1.0	71.0	stop_signal	71.0	True	0.635	False	stim	go	s612	False
207.014	0.85	0.35	2.386	1.0	71.0	stop_signal	71.0	True	0.572	False	stim	go	s612	False
209.405	0.85	0.35	2.386	1.0	71.0	stop_signal	71.0	True	0.802	False	stim	go	s612	False
211.794	0.85	0.35	2.386	1.0	71.0	stop_signal	71.0	True	0.652	False	stim	stop_failure	s612	False
224.691	0.85	0.3	2.658	1.0	71.0	stop_signal	71.0	True	0.684	False	stim	go	s612	False
227.351	0.85	0.3	2.522	1.0	89.0	stop_signal	89.0	True	0.529	False	stim	go	s612	False
229.878	0.85	0.3	2.25	1.0	71.0	stop_signal	-1.0	True	n/a	True	stim	stop_success	s612	False
232.131	0.85	0.35	2.93	1.0	89.0	stop_signal	-1.0	True	n/a	True	stim	stop_success	s612	False
235.062	0.85	0.4	2.25	1.0	71.0	stop_signal	71.0	True	0.8	False	stim	go	s612	False
237.317	0.85	0.4	2.522	1.0	71.0	stop_signal	71.0	True	0.787	False	stim	go	s612	False
239.841	0.85	0.4	2.25	1.0	89.0	stop_signal	-1.0	True	n/a	True	stim	stop_success	s612	False
242.092	0.85	0.45	2.25	1.0	89.0	stop_signal	89.0	True	0.847	False	stim	go	s612	False
244.348	0.85	0.45	2.25	1.0	71.0	stop_signal	71.0	True	0.614	False	stim	go	s612	False
246.604	0.85	0.45	2.25	0.0	71.0	stop_signal	89.0	True	0.831	False	stim	go	s612	False
248.86	0.85	0.45	2.522	1.0	89.0	stop_signal	89.0	True	0.692	False	stim	go	s612	False
251.388	0.85	0.45	3.066	1.0	71.0	stop_signal	71.0	True	0.634	False	stim	stop_failure	s612	False
254.457	0.85	0.4	2.25	1.0	89.0	stop_signal	-1.0	True	n/a	True	stim	stop_success	s612	False
256.71	0.85	0.45	2.386	1.0	89.0	stop_signal	89.0	True	0.66	False	stim	go	s612	False
259.1	0.85	0.45	2.386	1.0	71.0	stop_signal	71.0	True	0.726	False	stim	stop_failure	s612	False
261.49	0.85	0.4	2.522	1.0	71.0	stop_signal	71.0	True	0.791	False	stim	go	s612	False
264.015	0.85	0.4	2.386	1.0	89.0	stop_signal	89.0	True	0.791	False	stim	go	s612	False
266.405	0.85	0.4	2.386	1.0	89.0	stop_signal	89.0	True	0.663	False	stim	go	s612	False
268.797	0.85	0.4	2.794	1.0	89.0	stop_signal	89.0	True	0.708	False	stim	stop_failure	s612	False
271.593	0.85	0.35	2.386	0.0	71.0	stop_signal	89.0	True	0.518	False	stim	go	s612	False
273.984	0.85	0.35	2.25	1.0	89.0	stop_signal	-1.0	True	n/a	True	stim	stop_success	s612	False
276.236	0.85	0.4	2.522	1.0	89.0	stop_signal	-1.0	True	n/a	True	stim	stop_success	s612	False
278.763	0.85	0.45	2.386	1.0	71.0	stop_signal	-1.0	True	n/a	True	stim	stop_success	s612	False
281.152	0.85	0.5	2.386	1.0	89.0	stop_signal	89.0	True	0.858	False	stim	go	s612	False
283.539	0.85	0.5	2.25	1.0	71.0	stop_signal	71.0	True	0.742	False	stim	stop_failure	s612	False
285.791	0.85	0.45	2.386	1.0	89.0	stop_signal	89.0	True	0.907	False	stim	go	s612	False
288.179	0.85	0.45	2.25	1.0	89.0	stop_signal	89.0	True	0.72	False	stim	go	s612	False
290.434	0.85	0.45	2.25	1.0	71.0	stop_signal	-1.0	True	n/a	True	stim	stop_success	s612	False
292.688	0.85	0.5	2.25	1.0	71.0	stop_signal	71.0	True	0.694	False	stim	go	s612	False
294.941	0.85	0.5	2.386	1.0	89.0	stop_signal	89.0	True	1.12	False	stim	go	s612	False
297.333	0.85	0.5	2.25	1.0	89.0	stop_signal	89.0	True	0.63	False	stim	stop_failure	s612	False
299.587	0.85	0.45	2.25	1.0	71.0	stop_signal	-1.0	True	n/a	True	stim	stop_success	s612	False
301.841	0.85	0.5	2.386	1.0	89.0	stop_signal	-1.0	True	n/a	True	stim	stop_success	s612	False
304.23	0.85	0.55	2.386	1.0	71.0	stop_signal	-1.0	True	n/a	True	stim	stop_success	s612	False
306.621	0.85	0.6	2.25	1.0	71.0	stop_signal	71.0	True	0.726	False	stim	go	s612	False
308.874	0.85	0.6	2.522	1.0	71.0	stop_signal	71.0	True	0.705	False	stim	stop_failure	s612	False
311.401	0.85	0.55	2.25	1.0	71.0	stop_signal	71.0	True	0.692	False	stim	go	s612	False
313.653	0.85	0.55	2.386	1.0	89.0	stop_signal	89.0	True	1.008	False	stim	go	s612	False
316.041	0.85	0.55	2.25	1.0	71.0	stop_signal	71.0	True	1.054	False	stim	go	s612	False
318.292	0.85	0.55	2.25	1.0	71.0	stop_signal	71.0	True	0.742	False	stim	stop_failure	s612	False
320.545	0.85	0.5	2.386	1.0	71.0	stop_signal	71.0	True	0.753	False	stim	go	s612	False
322.933	0.85	0.5	2.522	1.0	71.0	stop_signal	71.0	True	0.573	False	stim	go	s612	False
