onset	duration	movement_onset	CTI	block_duration	correct	correct_response	cue	cue_switch	experiment_exp_id	key_press	response_time	stim_color	stim_number	switch_type	task	task_switch	trial_id	trial_type	worker_id	first_trial_of_block	junk
3.622	1.0	4.886	0.1	2.272	True	71.0	Orange-Blue	stay	twobytwo	71.0	1.164	blue	9.0	cue_stay	color	stay	stim	poldrack-single-stim	s612	1	False
6.803	1.0	8.316	0.9	2.136	True	89.0	High-Low	n/a	twobytwo	89.0	0.613	blue	3.0	task_switch	magnitude	switch	stim	poldrack-single-stim	s612	0	False
9.851	1.0	11.29	0.9	2.0	True	89.0	Magnitude	switch	twobytwo	89.0	0.539	orange	2.0	cue_switch	magnitude	stay	stim	poldrack-single-stim	s612	0	False
12.758	1.0	14.644	0.9	2.0	True	89.0	Orange-Blue	n/a	twobytwo	89.0	0.986	orange	7.0	task_switch	color	switch	stim	poldrack-single-stim	s612	0	False
15.664	1.0	17.433	0.9	2.136	True	89.0	Magnitude	n/a	twobytwo	89.0	0.869	blue	3.0	task_switch	magnitude	switch	stim	poldrack-single-stim	s612	0	False
17.91	1.0	19.248	0.1	2.0	True	71.0	Orange-Blue	n/a	twobytwo	71.0	1.238	blue	2.0	task_switch	color	switch	stim	poldrack-single-stim	s612	0	False
20.014	1.0	21.071	0.1	2.136	True	71.0	High-Low	n/a	twobytwo	71.0	0.957	blue	6.0	task_switch	magnitude	switch	stim	poldrack-single-stim	s612	0	False
23.059	1.0	24.643	0.9	2.408	True	71.0	High-Low	stay	twobytwo	71.0	0.684	orange	6.0	cue_stay	magnitude	stay	stim	poldrack-single-stim	s612	0	False
26.372	1.0	28.746	0.9	2.136	True	89.0	Orange-Blue	n/a	twobytwo	89.0	1.474	orange	9.0	task_switch	color	switch	stim	poldrack-single-stim	s612	0	False
28.615	1.0	30.382	0.1	2.0	True	89.0	High-Low	n/a	twobytwo	89.0	1.667	blue	4.0	task_switch	magnitude	switch	stim	poldrack-single-stim	s612	0	False
30.724	1.0	32.088	0.1	2.136	True	89.0	Color	n/a	twobytwo	89.0	1.264	orange	2.0	task_switch	color	switch	stim	poldrack-single-stim	s612	0	False
33.766	1.0	35.303	0.9	2.272	True	71.0	Color	stay	twobytwo	71.0	0.637	blue	4.0	cue_stay	color	stay	stim	poldrack-single-stim	s612	0	False
36.145	1.0	37.716	0.1	2.0	True	89.0	Magnitude	n/a	twobytwo	89.0	1.471	blue	2.0	task_switch	magnitude	switch	stim	poldrack-single-stim	s612	0	False
38.249	1.0	39.57	0.1	2.408	True	89.0	Color	n/a	twobytwo	89.0	1.221	orange	2.0	task_switch	color	switch	stim	poldrack-single-stim	s612	0	False
41.564	1.0	43.325	0.9	2.0	True	71.0	Orange-Blue	switch	twobytwo	71.0	0.861	blue	6.0	cue_switch	color	stay	stim	poldrack-single-stim	s612	0	False
43.67	1.0	44.901	0.1	2.136	True	89.0	Magnitude	n/a	twobytwo	89.0	1.131	orange	2.0	task_switch	magnitude	switch	stim	poldrack-single-stim	s612	0	False
46.713	1.0	48.887	0.9	2.408	True	89.0	Color	n/a	twobytwo	89.0	1.274	orange	3.0	task_switch	color	switch	stim	poldrack-single-stim	s612	0	False
50.031	1.0	52.927	0.9	2.136	False	89.0	High-Low	n/a	twobytwo	71.0	1.996	blue	2.0	task_switch	magnitude	switch	stim	poldrack-single-stim	s612	0	False
53.071	1.0	55.228	0.9	2.408	True	89.0	Color	n/a	twobytwo	89.0	1.257	orange	3.0	task_switch	color	switch	stim	poldrack-single-stim	s612	0	False
56.389	1.0	57.981	0.9	2.136	True	71.0	High-Low	n/a	twobytwo	71.0	0.692	orange	9.0	task_switch	magnitude	switch	stim	poldrack-single-stim	s612	0	False
59.432	1.0	61.862	0.9	2.0	True	71.0	Magnitude	switch	twobytwo	71.0	1.53	orange	6.0	cue_switch	magnitude	stay	stim	poldrack-single-stim	s612	0	False
62.336	1.0	64.314	0.9	2.272	False	89.0	Magnitude	stay	twobytwo	71.0	1.078	orange	3.0	cue_stay	magnitude	stay	stim	poldrack-single-stim	s612	0	False
64.712	1.0	64.711	0.1	2.0	False	89.0	Color	n/a	twobytwo	-1.0	n/a	orange	7.0	task_switch	color	switch	stim	poldrack-single-stim	s612	0	False
66.823	1.0	66.937	0.1	2.272	False	71.0	High-Low	n/a	twobytwo	89.0	0.014	blue	9.0	task_switch	magnitude	switch	stim	poldrack-single-stim	s612	0	False
69.203	1.0	70.167	0.1	2.272	True	71.0	Magnitude	switch	twobytwo	71.0	0.864	blue	6.0	cue_switch	magnitude	stay	stim	poldrack-single-stim	s612	0	False
72.383	1.0	73.951	0.9	2.952	True	89.0	High-Low	switch	twobytwo	89.0	0.668	orange	3.0	cue_switch	magnitude	stay	stim	poldrack-single-stim	s612	0	False
76.24	1.0	78.591	0.9	2.68	True	89.0	High-Low	stay	twobytwo	89.0	1.451	blue	2.0	cue_stay	magnitude	stay	stim	poldrack-single-stim	s612	0	False
79.824	1.0	82.267	0.9	2.136	True	71.0	High-Low	stay	twobytwo	71.0	1.543	blue	8.0	cue_stay	magnitude	stay	stim	poldrack-single-stim	s612	0	False
82.063	1.0	83.674	0.1	2.272	True	89.0	High-Low	stay	twobytwo	89.0	1.511	orange	2.0	cue_stay	magnitude	stay	stim	poldrack-single-stim	s612	0	False
84.446	1.0	86.042	0.1	2.272	False	89.0	Magnitude	switch	twobytwo	71.0	1.496	blue	3.0	cue_switch	magnitude	stay	stim	poldrack-single-stim	s612	0	False
87.622	1.0	89.308	0.9	2.136	True	71.0	Color	n/a	twobytwo	71.0	0.786	blue	6.0	task_switch	color	switch	stim	poldrack-single-stim	s612	0	False
90.662	1.0	92.5	0.9	2.408	True	71.0	Orange-Blue	switch	twobytwo	71.0	0.938	blue	9.0	cue_switch	color	stay	stim	poldrack-single-stim	s612	0	False
93.977	1.0	95.609	0.9	2.136	True	89.0	Color	switch	twobytwo	89.0	0.732	orange	8.0	cue_switch	color	stay	stim	poldrack-single-stim	s612	0	False
96.219	1.0	98.079	0.1	2.136	True	71.0	Orange-Blue	switch	twobytwo	71.0	1.76	blue	7.0	cue_switch	color	stay	stim	poldrack-single-stim	s612	0	False
98.462	1.0	99.947	0.1	2.0	True	71.0	Color	switch	twobytwo	71.0	1.385	blue	3.0	cue_switch	color	stay	stim	poldrack-single-stim	s612	0	False
101.366	1.0	103.572	0.9	2.0	True	89.0	Color	stay	twobytwo	89.0	1.306	orange	6.0	cue_stay	color	stay	stim	poldrack-single-stim	s612	0	False
104.276	1.0	105.814	0.9	2.0	True	89.0	Orange-Blue	switch	twobytwo	89.0	0.638	orange	9.0	cue_switch	color	stay	stim	poldrack-single-stim	s612	0	False
107.183	1.0	108.766	0.9	2.0	True	89.0	Color	switch	twobytwo	89.0	0.683	orange	3.0	cue_switch	color	stay	stim	poldrack-single-stim	s612	0	False
109.294	1.0	110.613	0.1	2.0	True	71.0	Orange-Blue	switch	twobytwo	71.0	1.219	blue	4.0	cue_switch	color	stay	stim	poldrack-single-stim	s612	0	False
112.199	1.0	114.23	0.9	2.272	True	71.0	Color	switch	twobytwo	71.0	1.131	blue	3.0	cue_switch	color	stay	stim	poldrack-single-stim	s612	0	False
114.577	1.0	116.105	0.1	2.408	True	89.0	Orange-Blue	switch	twobytwo	89.0	1.428	orange	9.0	cue_switch	color	stay	stim	poldrack-single-stim	s612	0	False
117.092	1.0	117.873	0.1	2.0	True	89.0	Orange-Blue	stay	twobytwo	89.0	0.681	orange	2.0	cue_stay	color	stay	stim	poldrack-single-stim	s612	0	False
119.996	1.0	121.782	0.9	2.136	True	71.0	Magnitude	n/a	twobytwo	71.0	0.886	orange	7.0	task_switch	magnitude	switch	stim	poldrack-single-stim	s612	0	False
122.24	1.0	123.375	0.1	2.0	True	71.0	High-Low	switch	twobytwo	71.0	1.035	orange	6.0	cue_switch	magnitude	stay	stim	poldrack-single-stim	s612	0	False
125.146	1.0	127.653	0.9	2.136	True	71.0	Orange-Blue	n/a	twobytwo	71.0	1.607	blue	6.0	task_switch	color	switch	stim	poldrack-single-stim	s612	0	False
127.388	1.0	129.652	0.1	2.544	True	89.0	High-Low	n/a	twobytwo	89.0	2.164	blue	2.0	task_switch	magnitude	switch	stim	poldrack-single-stim	s612	0	False
130.839	1.0	132.44	0.9	2.68	True	71.0	Orange-Blue	n/a	twobytwo	71.0	0.701	blue	8.0	task_switch	color	switch	stim	poldrack-single-stim	s612	0	False
133.622	1.0	135.507	0.1	3.088	True	89.0	Color	switch	twobytwo	89.0	1.785	orange	4.0	cue_switch	color	stay	stim	poldrack-single-stim	s612	0	False
136.818	1.0	138.906	0.1	2.136	False	89.0	Orange-Blue	switch	twobytwo	71.0	1.988	orange	7.0	cue_switch	color	stay	stim	poldrack-single-stim	s612	0	False
139.059	1.0	141.046	0.1	2.544	True	71.0	Color	switch	twobytwo	71.0	1.887	blue	1.0	cue_switch	color	stay	stim	poldrack-single-stim	s612	0	False
141.711	1.0	143.667	0.1	2.0	True	89.0	Orange-Blue	switch	twobytwo	89.0	1.856	orange	3.0	cue_switch	color	stay	stim	poldrack-single-stim	s612	0	False
144.616	1.0	146.333	0.9	2.136	True	89.0	High-Low	n/a	twobytwo	89.0	0.817	orange	2.0	task_switch	magnitude	switch	stim	poldrack-single-stim	s612	0	False
147.658	1.0	150.354	0.9	2.0	False	89.0	Color	n/a	twobytwo	71.0	1.796	orange	6.0	task_switch	color	switch	stim	poldrack-single-stim	s612	0	False
149.762	1.0	149.761	0.1	2.408	False	89.0	High-Low	n/a	twobytwo	-1.0	n/a	orange	1.0	task_switch	magnitude	switch	stim	poldrack-single-stim	s612	0	False
152.277	1.0	153.546	0.1	2.0	True	71.0	Magnitude	switch	twobytwo	71.0	1.169	orange	6.0	cue_switch	magnitude	stay	stim	poldrack-single-stim	s612	0	False
154.384	1.0	155.211	0.1	2.0	True	89.0	Magnitude	stay	twobytwo	89.0	0.727	blue	3.0	cue_stay	magnitude	stay	stim	poldrack-single-stim	s612	0	False
157.291	1.0	159.909	0.9	2.0	True	71.0	Orange-Blue	n/a	twobytwo	71.0	1.718	blue	9.0	task_switch	color	switch	stim	poldrack-single-stim	s612	0	False
159.4	1.0	160.254	0.1	2.68	True	71.0	Orange-Blue	stay	twobytwo	71.0	0.754	blue	9.0	cue_stay	color	stay	stim	poldrack-single-stim	s612	0	False
162.188	1.0	163.099	0.1	2.272	True	89.0	Color	switch	twobytwo	89.0	0.811	orange	3.0	cue_switch	color	stay	stim	poldrack-single-stim	s612	0	False
165.369	1.0	167.944	0.9	2.408	True	71.0	Color	stay	twobytwo	71.0	1.675	blue	7.0	cue_stay	color	stay	stim	poldrack-single-stim	s612	0	False
167.881	1.0	168.976	0.1	3.224	True	71.0	Color	stay	twobytwo	71.0	0.995	blue	1.0	cue_stay	color	stay	stim	poldrack-single-stim	s612	0	False
172.014	1.0	174.923	0.9	2.408	True	71.0	Magnitude	n/a	twobytwo	71.0	2.009	blue	6.0	task_switch	magnitude	switch	stim	poldrack-single-stim	s612	0	False
174.527	1.0	176.587	0.1	2.816	True	71.0	Color	n/a	twobytwo	71.0	1.96	blue	2.0	task_switch	color	switch	stim	poldrack-single-stim	s612	0	False
177.448	1.0	178.797	0.1	2.408	True	89.0	Magnitude	n/a	twobytwo	89.0	1.249	blue	4.0	task_switch	magnitude	switch	stim	poldrack-single-stim	s612	0	False
180.766	1.0	180.765	0.9	2.136	False	71.0	Color	n/a	twobytwo	-1.0	n/a	blue	3.0	task_switch	color	switch	stim	poldrack-single-stim	s612	0	False
183.806	1.0	185.256	0.9	2.136	True	71.0	Color	stay	twobytwo	71.0	0.55	blue	2.0	cue_stay	color	stay	stim	poldrack-single-stim	s612	0	False
186.049	1.0	186.912	0.1	2.0	True	89.0	Orange-Blue	switch	twobytwo	89.0	0.763	orange	1.0	cue_switch	color	stay	stim	poldrack-single-stim	s612	0	False
188.156	1.0	188.868	0.1	2.0	False	89.0	Color	switch	twobytwo	71.0	0.612	orange	2.0	cue_switch	color	stay	stim	poldrack-single-stim	s612	0	False
190.263	1.0	191.475	0.1	2.272	True	71.0	Magnitude	n/a	twobytwo	71.0	1.112	orange	7.0	task_switch	magnitude	switch	stim	poldrack-single-stim	s612	0	False
193.438	1.0	196.611	0.9	2.408	True	71.0	Color	n/a	twobytwo	71.0	2.273	blue	1.0	task_switch	color	switch	stim	poldrack-single-stim	s612	0	False
196.754	1.0	198.837	0.9	2.0	True	71.0	Magnitude	n/a	twobytwo	71.0	1.183	blue	6.0	task_switch	magnitude	switch	stim	poldrack-single-stim	s612	0	False
198.858	1.0	199.632	0.1	2.136	True	71.0	High-Low	switch	twobytwo	71.0	0.674	blue	8.0	cue_switch	magnitude	stay	stim	poldrack-single-stim	s612	0	False
201.902	1.0	204.297	0.9	2.0	True	89.0	Orange-Blue	n/a	twobytwo	89.0	1.495	orange	3.0	task_switch	color	switch	stim	poldrack-single-stim	s612	0	False
204.01	1.0	205.651	0.1	2.408	True	71.0	Magnitude	n/a	twobytwo	71.0	1.541	blue	8.0	task_switch	magnitude	switch	stim	poldrack-single-stim	s612	0	False
207.325	1.0	209.246	0.9	2.272	False	89.0	High-Low	switch	twobytwo	71.0	1.021	blue	1.0	cue_switch	magnitude	stay	stim	poldrack-single-stim	s612	0	False
209.704	1.0	211.08	0.1	2.0	True	71.0	Orange-Blue	n/a	twobytwo	71.0	1.276	blue	6.0	task_switch	color	switch	stim	poldrack-single-stim	s612	0	False
211.81	1.0	213.406	0.1	2.272	True	71.0	Color	switch	twobytwo	71.0	1.496	blue	4.0	cue_switch	color	stay	stim	poldrack-single-stim	s612	0	False
214.188	1.0	215.396	0.1	2.0	True	89.0	High-Low	n/a	twobytwo	89.0	1.108	orange	3.0	task_switch	magnitude	switch	stim	poldrack-single-stim	s612	0	False
216.295	1.0	218.028	0.1	2.0	True	89.0	Color	n/a	twobytwo	89.0	1.633	orange	3.0	task_switch	color	switch	stim	poldrack-single-stim	s612	0	False
219.202	1.0	222.313	0.9	2.272	True	89.0	Color	stay	twobytwo	89.0	2.211	orange	9.0	cue_stay	color	stay	stim	poldrack-single-stim	s612	0	False
235.099	1.0	236.068	0.1	2.136	True	71.0	Magnitude	stay	twobytwo	71.0	0.869	blue	9.0	cue_stay	magnitude	stay	stim	poldrack-single-stim	s612	1	False
238.141	1.0	240.358	0.9	2.0	True	71.0	Color	n/a	twobytwo	71.0	1.317	blue	3.0	task_switch	color	switch	stim	poldrack-single-stim	s612	0	False
241.048	1.0	243.213	0.9	2.0	True	89.0	Orange-Blue	switch	twobytwo	89.0	1.265	orange	2.0	cue_switch	color	stay	stim	poldrack-single-stim	s612	0	False
243.955	1.0	243.954	0.9	2.0	False	71.0	High-Low	n/a	twobytwo	-1.0	n/a	orange	7.0	task_switch	magnitude	switch	stim	poldrack-single-stim	s612	0	False
246.862	1.0	248.91	0.9	2.0	True	71.0	Orange-Blue	n/a	twobytwo	71.0	1.148	blue	3.0	task_switch	color	switch	stim	poldrack-single-stim	s612	0	False
248.969	1.0	249.595	0.1	2.0	False	89.0	Magnitude	n/a	twobytwo	71.0	0.526	blue	2.0	task_switch	magnitude	switch	stim	poldrack-single-stim	s612	0	False
251.073	1.0	252.629	0.1	2.136	True	71.0	Color	n/a	twobytwo	71.0	1.456	blue	6.0	task_switch	color	switch	stim	poldrack-single-stim	s612	0	False
254.116	1.0	256.195	0.9	2.0	True	89.0	Color	stay	twobytwo	89.0	1.179	orange	6.0	cue_stay	color	stay	stim	poldrack-single-stim	s612	0	False
257.023	1.0	258.75	0.9	2.0	True	71.0	Magnitude	n/a	twobytwo	71.0	0.827	orange	9.0	task_switch	magnitude	switch	stim	poldrack-single-stim	s612	0	False
259.127	1.0	261.041	0.1	2.136	True	71.0	Color	n/a	twobytwo	71.0	1.814	blue	4.0	task_switch	color	switch	stim	poldrack-single-stim	s612	0	False
261.369	1.0	263.17	0.1	2.0	True	89.0	Magnitude	n/a	twobytwo	89.0	1.701	orange	2.0	task_switch	magnitude	switch	stim	poldrack-single-stim	s612	0	False
264.278	1.0	266.356	0.9	2.136	True	89.0	Magnitude	stay	twobytwo	89.0	1.178	blue	4.0	cue_stay	magnitude	stay	stim	poldrack-single-stim	s612	0	False
266.521	1.0	268.469	0.1	2.68	False	71.0	Orange-Blue	n/a	twobytwo	89.0	1.848	blue	2.0	task_switch	color	switch	stim	poldrack-single-stim	s612	0	False
269.306	1.0	270.368	0.1	2.272	True	89.0	Magnitude	n/a	twobytwo	89.0	0.962	orange	2.0	task_switch	magnitude	switch	stim	poldrack-single-stim	s612	0	False
272.482	1.0	275.268	0.9	2.136	True	71.0	High-Low	switch	twobytwo	71.0	1.886	blue	6.0	cue_switch	magnitude	stay	stim	poldrack-single-stim	s612	0	False
274.726	1.0	276.736	0.1	2.0	True	89.0	Color	n/a	twobytwo	89.0	1.91	orange	2.0	task_switch	color	switch	stim	poldrack-single-stim	s612	0	False
277.634	1.0	277.633	0.9	2.136	False	89.0	Magnitude	n/a	twobytwo	-1.0	n/a	orange	3.0	task_switch	magnitude	switch	stim	poldrack-single-stim	s612	0	False
280.674	1.0	283.123	0.9	2.68	True	71.0	Color	n/a	twobytwo	71.0	1.549	blue	2.0	task_switch	color	switch	stim	poldrack-single-stim	s612	0	False
284.26	1.0	286.199	0.9	2.272	True	89.0	Magnitude	n/a	twobytwo	89.0	1.039	orange	3.0	task_switch	magnitude	switch	stim	poldrack-single-stim	s612	0	False
287.44	1.0	289.161	0.9	2.0	False	89.0	Color	n/a	twobytwo	71.0	0.821	orange	9.0	task_switch	color	switch	stim	poldrack-single-stim	s612	0	False
290.344	1.0	293.06	0.9	2.0	False	89.0	Orange-Blue	switch	twobytwo	71.0	1.816	orange	6.0	cue_switch	color	stay	stim	poldrack-single-stim	s612	0	False
293.25	1.0	295.339	0.9	2.136	True	89.0	Orange-Blue	stay	twobytwo	89.0	1.189	orange	3.0	cue_stay	color	stay	stim	poldrack-single-stim	s612	0	False
295.489	1.0	297.48	0.1	2.0	True	71.0	High-Low	n/a	twobytwo	71.0	1.891	orange	7.0	task_switch	magnitude	switch	stim	poldrack-single-stim	s612	0	False
297.595	1.0	297.594	0.1	2.0	False	71.0	Color	n/a	twobytwo	-1.0	n/a	blue	9.0	task_switch	color	switch	stim	poldrack-single-stim	s612	0	False
299.701	1.0	301.03	0.1	2.0	True	71.0	Orange-Blue	switch	twobytwo	71.0	1.229	blue	6.0	cue_switch	color	stay	stim	poldrack-single-stim	s612	0	False
302.608	1.0	304.341	0.9	2.272	True	89.0	Color	switch	twobytwo	89.0	0.833	orange	3.0	cue_switch	color	stay	stim	poldrack-single-stim	s612	0	False
305.784	1.0	307.965	0.9	2.408	False	71.0	Color	stay	twobytwo	89.0	1.281	blue	2.0	cue_stay	color	stay	stim	poldrack-single-stim	s612	0	False
309.099	1.0	311.048	0.9	2.0	True	71.0	Color	stay	twobytwo	71.0	1.049	blue	8.0	cue_stay	color	stay	stim	poldrack-single-stim	s612	0	False
311.206	1.0	312.572	0.1	2.0	True	89.0	Color	stay	twobytwo	89.0	1.266	orange	2.0	cue_stay	color	stay	stim	poldrack-single-stim	s612	0	False
313.312	1.0	314.536	0.1	2.0	True	71.0	Orange-Blue	switch	twobytwo	71.0	1.124	blue	3.0	cue_switch	color	stay	stim	poldrack-single-stim	s612	0	False
316.219	1.0	318.019	0.9	2.272	True	71.0	High-Low	n/a	twobytwo	71.0	0.9	blue	6.0	task_switch	magnitude	switch	stim	poldrack-single-stim	s612	0	False
319.395	1.0	321.5	0.9	2.136	True	71.0	Magnitude	switch	twobytwo	71.0	1.205	blue	9.0	cue_switch	magnitude	stay	stim	poldrack-single-stim	s612	0	False
322.438	1.0	324.658	0.9	2.0	True	71.0	High-Low	switch	twobytwo	71.0	1.32	orange	8.0	cue_switch	magnitude	stay	stim	poldrack-single-stim	s612	0	False
324.543	1.0	326.313	0.1	2.544	True	71.0	Magnitude	switch	twobytwo	71.0	1.67	blue	7.0	cue_switch	magnitude	stay	stim	poldrack-single-stim	s612	0	False
327.196	1.0	328.27	0.1	2.272	False	89.0	High-Low	switch	twobytwo	71.0	0.974	blue	3.0	cue_switch	magnitude	stay	stim	poldrack-single-stim	s612	0	False
330.375	1.0	332.048	0.9	2.272	True	71.0	High-Low	stay	twobytwo	71.0	0.773	orange	6.0	cue_stay	magnitude	stay	stim	poldrack-single-stim	s612	0	False
333.553	1.0	335.967	0.9	2.0	True	71.0	Magnitude	switch	twobytwo	71.0	1.514	orange	9.0	cue_switch	magnitude	stay	stim	poldrack-single-stim	s612	0	False
336.46	1.0	338.361	0.9	2.0	True	89.0	High-Low	switch	twobytwo	89.0	1.001	orange	3.0	cue_switch	magnitude	stay	stim	poldrack-single-stim	s612	0	False
338.567	1.0	340.683	0.1	2.136	False	89.0	Magnitude	switch	twobytwo	71.0	2.016	blue	4.0	cue_switch	magnitude	stay	stim	poldrack-single-stim	s612	0	False
341.612	1.0	343.723	0.9	2.0	True	89.0	High-Low	switch	twobytwo	89.0	1.211	blue	3.0	cue_switch	magnitude	stay	stim	poldrack-single-stim	s612	0	False
343.717	1.0	345.579	0.1	2.136	True	71.0	Magnitude	switch	twobytwo	71.0	1.762	orange	9.0	cue_switch	magnitude	stay	stim	poldrack-single-stim	s612	0	False
345.959	1.0	347.059	0.1	2.272	True	89.0	Magnitude	stay	twobytwo	89.0	1.0	orange	2.0	cue_stay	magnitude	stay	stim	poldrack-single-stim	s612	0	False
349.134	1.0	351.839	0.9	2.136	True	89.0	Color	n/a	twobytwo	89.0	1.805	orange	7.0	task_switch	color	switch	stim	poldrack-single-stim	s612	0	False
351.378	1.0	351.377	0.1	2.272	False	89.0	Orange-Blue	switch	twobytwo	-1.0	n/a	orange	6.0	cue_switch	color	stay	stim	poldrack-single-stim	s612	0	False
354.556	1.0	356.745	0.9	2.0	True	71.0	Magnitude	n/a	twobytwo	71.0	1.289	blue	6.0	task_switch	magnitude	switch	stim	poldrack-single-stim	s612	0	False
356.664	1.0	357.849	0.1	2.816	True	71.0	Orange-Blue	n/a	twobytwo	71.0	1.085	blue	2.0	task_switch	color	switch	stim	poldrack-single-stim	s612	0	False
360.389	1.0	362.066	0.9	2.408	True	71.0	High-Low	n/a	twobytwo	71.0	0.777	blue	8.0	task_switch	magnitude	switch	stim	poldrack-single-stim	s612	0	False
362.903	1.0	364.213	0.1	2.0	True	89.0	Magnitude	switch	twobytwo	89.0	1.21	orange	4.0	cue_switch	magnitude	stay	stim	poldrack-single-stim	s612	0	False
365.011	1.0	366.524	0.1	2.544	True	71.0	High-Low	switch	twobytwo	71.0	1.413	orange	7.0	cue_switch	magnitude	stay	stim	poldrack-single-stim	s612	0	False
367.659	1.0	368.98	0.1	2.136	True	89.0	Magnitude	switch	twobytwo	89.0	1.221	blue	1.0	cue_switch	magnitude	stay	stim	poldrack-single-stim	s612	0	False
369.903	1.0	371.233	0.1	2.0	False	89.0	High-Low	switch	twobytwo	71.0	1.23	orange	3.0	cue_switch	magnitude	stay	stim	poldrack-single-stim	s612	0	False
372.813	1.0	374.55	0.9	2.0	True	89.0	Orange-Blue	n/a	twobytwo	89.0	0.837	orange	2.0	task_switch	color	switch	stim	poldrack-single-stim	s612	0	False
375.718	1.0	377.802	0.9	2.136	True	71.0	Magnitude	n/a	twobytwo	71.0	1.184	orange	6.0	task_switch	magnitude	switch	stim	poldrack-single-stim	s612	0	False
377.957	1.0	379.306	0.1	2.136	True	89.0	Color	n/a	twobytwo	89.0	1.249	orange	1.0	task_switch	color	switch	stim	poldrack-single-stim	s612	0	False
380.2	1.0	381.521	0.1	2.272	False	89.0	Orange-Blue	switch	twobytwo	71.0	1.221	orange	6.0	cue_switch	color	stay	stim	poldrack-single-stim	s612	0	False
382.578	1.0	384.135	0.1	3.224	True	71.0	Orange-Blue	stay	twobytwo	71.0	1.457	blue	3.0	cue_stay	color	stay	stim	poldrack-single-stim	s612	0	False
386.707	1.0	388.458	0.9	2.0	True	71.0	Magnitude	n/a	twobytwo	71.0	0.851	blue	9.0	task_switch	magnitude	switch	stim	poldrack-single-stim	s612	0	False
388.814	1.0	389.551	0.1	2.0	True	71.0	Magnitude	stay	twobytwo	71.0	0.637	blue	9.0	cue_stay	magnitude	stay	stim	poldrack-single-stim	s612	0	False
390.921	1.0	392.214	0.1	2.272	True	89.0	High-Low	switch	twobytwo	89.0	1.193	orange	3.0	cue_switch	magnitude	stay	stim	poldrack-single-stim	s612	0	False
394.097	1.0	396.394	0.9	2.136	True	71.0	High-Low	stay	twobytwo	71.0	1.397	blue	7.0	cue_stay	magnitude	stay	stim	poldrack-single-stim	s612	0	False
396.34	1.0	397.791	0.1	2.0	True	89.0	High-Low	stay	twobytwo	89.0	1.351	blue	1.0	cue_stay	magnitude	stay	stim	poldrack-single-stim	s612	0	False
399.246	1.0	402.087	0.9	2.0	True	71.0	Orange-Blue	n/a	twobytwo	71.0	1.941	blue	6.0	task_switch	color	switch	stim	poldrack-single-stim	s612	0	False
401.35	1.0	403.068	0.1	2.0	True	89.0	Magnitude	n/a	twobytwo	89.0	1.618	blue	2.0	task_switch	magnitude	switch	stim	poldrack-single-stim	s612	0	False
403.457	1.0	404.924	0.1	2.68	True	71.0	Orange-Blue	n/a	twobytwo	71.0	1.367	blue	4.0	task_switch	color	switch	stim	poldrack-single-stim	s612	0	False
407.044	1.0	407.043	0.9	2.0	False	89.0	Magnitude	n/a	twobytwo	-1.0	n/a	blue	3.0	task_switch	magnitude	switch	stim	poldrack-single-stim	s612	0	False
409.95	1.0	411.607	0.9	2.272	True	89.0	Magnitude	stay	twobytwo	89.0	0.757	blue	2.0	cue_stay	magnitude	stay	stim	poldrack-single-stim	s612	0	False
412.33	1.0	412.329	0.1	2.0	False	89.0	High-Low	switch	twobytwo	-1.0	n/a	orange	1.0	cue_switch	magnitude	stay	stim	poldrack-single-stim	s612	0	False
414.436	1.0	415.757	0.1	2.272	True	89.0	Magnitude	switch	twobytwo	89.0	1.221	orange	2.0	cue_switch	magnitude	stay	stim	poldrack-single-stim	s612	0	False
416.812	1.0	418.192	0.1	2.952	False	89.0	Color	n/a	twobytwo	71.0	1.28	orange	7.0	task_switch	color	switch	stim	poldrack-single-stim	s612	0	False
420.676	1.0	423.082	0.9	2.0	True	89.0	High-Low	n/a	twobytwo	89.0	1.506	blue	1.0	task_switch	magnitude	switch	stim	poldrack-single-stim	s612	0	False
423.583	1.0	426.148	0.9	2.0	True	71.0	Color	n/a	twobytwo	71.0	1.665	blue	6.0	task_switch	color	switch	stim	poldrack-single-stim	s612	0	False
425.69	1.0	427.653	0.1	2.0	True	71.0	Orange-Blue	switch	twobytwo	71.0	1.863	blue	8.0	cue_switch	color	stay	stim	poldrack-single-stim	s612	0	False
428.597	1.0	431.155	0.9	2.0	True	89.0	High-Low	n/a	twobytwo	89.0	1.658	orange	3.0	task_switch	magnitude	switch	stim	poldrack-single-stim	s612	0	False
430.706	1.0	432.638	0.1	2.136	True	71.0	Color	n/a	twobytwo	71.0	1.832	blue	8.0	task_switch	color	switch	stim	poldrack-single-stim	s612	0	False
433.748	1.0	433.747	0.9	2.0	False	71.0	Orange-Blue	switch	twobytwo	-1.0	n/a	blue	1.0	cue_switch	color	stay	stim	poldrack-single-stim	s612	0	False
435.856	1.0	436.99	0.1	2.0	True	71.0	Magnitude	n/a	twobytwo	71.0	1.034	blue	6.0	task_switch	magnitude	switch	stim	poldrack-single-stim	s612	0	False
437.96	1.0	439.025	0.1	2.0	True	89.0	High-Low	switch	twobytwo	89.0	0.965	blue	4.0	cue_switch	magnitude	stay	stim	poldrack-single-stim	s612	0	False
440.069	1.0	441.221	0.1	2.272	True	89.0	Color	n/a	twobytwo	89.0	1.052	orange	3.0	task_switch	color	switch	stim	poldrack-single-stim	s612	0	False
442.449	1.0	443.774	0.1	2.136	True	89.0	Magnitude	n/a	twobytwo	89.0	1.225	orange	3.0	task_switch	magnitude	switch	stim	poldrack-single-stim	s612	0	False
445.494	1.0	447.192	0.9	2.0	True	71.0	Magnitude	stay	twobytwo	71.0	0.798	orange	9.0	cue_stay	magnitude	stay	stim	poldrack-single-stim	s612	0	False
461.124	1.0	462.717	0.1	2.136	True	71.0	Magnitude	stay	twobytwo	71.0	1.493	blue	9.0	cue_stay	magnitude	stay	stim	poldrack-single-stim	s612	1	False
464.166	1.0	466.267	0.9	2.816	True	71.0	Orange-Blue	n/a	twobytwo	71.0	1.201	blue	3.0	task_switch	color	switch	stim	poldrack-single-stim	s612	0	False
467.891	1.0	470.306	0.9	2.408	True	89.0	Color	switch	twobytwo	89.0	1.515	orange	2.0	cue_switch	color	stay	stim	poldrack-single-stim	s612	0	False
471.206	1.0	472.763	0.9	2.0	True	71.0	High-Low	n/a	twobytwo	71.0	0.657	orange	7.0	task_switch	magnitude	switch	stim	poldrack-single-stim	s612	0	False
474.112	1.0	476.722	0.9	2.136	True	71.0	Color	n/a	twobytwo	71.0	1.71	blue	3.0	task_switch	color	switch	stim	poldrack-single-stim	s612	0	False
476.355	1.0	477.788	0.1	2.136	True	89.0	High-Low	n/a	twobytwo	89.0	1.333	blue	2.0	task_switch	magnitude	switch	stim	poldrack-single-stim	s612	0	False
478.601	1.0	480.198	0.1	2.136	True	71.0	Color	n/a	twobytwo	71.0	1.497	blue	6.0	task_switch	color	switch	stim	poldrack-single-stim	s612	0	False
481.64	1.0	483.788	0.9	2.544	True	89.0	Color	stay	twobytwo	89.0	1.248	orange	6.0	cue_stay	color	stay	stim	poldrack-single-stim	s612	0	False
485.091	1.0	487.303	0.9	2.136	True	71.0	Magnitude	n/a	twobytwo	71.0	1.312	orange	9.0	task_switch	magnitude	switch	stim	poldrack-single-stim	s612	0	False
487.335	1.0	489.307	0.1	2.0	True	71.0	Orange-Blue	n/a	twobytwo	71.0	1.872	blue	4.0	task_switch	color	switch	stim	poldrack-single-stim	s612	0	False
489.441	1.0	491.525	0.1	2.0	True	89.0	Magnitude	n/a	twobytwo	89.0	1.984	orange	2.0	task_switch	magnitude	switch	stim	poldrack-single-stim	s612	0	False
492.348	1.0	494.268	0.9	2.0	True	89.0	Magnitude	stay	twobytwo	89.0	1.02	blue	4.0	cue_stay	magnitude	stay	stim	poldrack-single-stim	s612	0	False
494.457	1.0	496.098	0.1	2.0	True	71.0	Color	n/a	twobytwo	71.0	1.541	blue	2.0	task_switch	color	switch	stim	poldrack-single-stim	s612	0	False
496.566	1.0	496.565	0.1	2.136	False	89.0	Magnitude	n/a	twobytwo	-1.0	n/a	orange	2.0	task_switch	magnitude	switch	stim	poldrack-single-stim	s612	0	False
499.61	1.0	501.635	0.9	2.0	True	71.0	High-Low	switch	twobytwo	71.0	1.125	blue	6.0	cue_switch	magnitude	stay	stim	poldrack-single-stim	s612	0	False
501.714	1.0	502.734	0.1	2.0	True	89.0	Orange-Blue	n/a	twobytwo	89.0	0.92	orange	2.0	task_switch	color	switch	stim	poldrack-single-stim	s612	0	False
504.618	1.0	506.704	0.9	2.0	False	89.0	Magnitude	n/a	twobytwo	71.0	1.186	orange	3.0	task_switch	magnitude	switch	stim	poldrack-single-stim	s612	0	False
507.525	1.0	510.378	0.9	2.136	False	71.0	Color	n/a	twobytwo	89.0	1.953	blue	2.0	task_switch	color	switch	stim	poldrack-single-stim	s612	0	False
510.565	1.0	512.1	0.9	2.136	True	89.0	Magnitude	n/a	twobytwo	89.0	0.635	orange	3.0	task_switch	magnitude	switch	stim	poldrack-single-stim	s612	0	False
513.611	1.0	515.945	0.9	2.136	True	89.0	Color	n/a	twobytwo	89.0	1.434	orange	9.0	task_switch	color	switch	stim	poldrack-single-stim	s612	0	False
516.65	1.0	518.697	0.9	2.136	True	89.0	Orange-Blue	switch	twobytwo	89.0	1.147	orange	6.0	cue_switch	color	stay	stim	poldrack-single-stim	s612	0	False
519.691	1.0	521.661	0.9	2.68	True	89.0	Orange-Blue	stay	twobytwo	89.0	1.07	orange	3.0	cue_stay	color	stay	stim	poldrack-single-stim	s612	0	False
522.477	1.0	523.765	0.1	2.544	False	71.0	Magnitude	n/a	twobytwo	89.0	1.188	orange	7.0	task_switch	magnitude	switch	stim	poldrack-single-stim	s612	0	False
525.128	1.0	526.157	0.1	2.272	True	71.0	Color	n/a	twobytwo	71.0	0.929	blue	9.0	task_switch	color	switch	stim	poldrack-single-stim	s612	0	False
527.506	1.0	528.443	0.1	2.272	True	71.0	Orange-Blue	switch	twobytwo	71.0	0.837	blue	6.0	cue_switch	color	stay	stim	poldrack-single-stim	s612	0	False
530.683	1.0	532.637	0.9	2.408	True	89.0	Color	switch	twobytwo	89.0	1.054	orange	3.0	cue_switch	color	stay	stim	poldrack-single-stim	s612	0	False
533.997	1.0	536.541	0.9	2.136	False	71.0	Color	stay	twobytwo	89.0	1.644	blue	2.0	cue_stay	color	stay	stim	poldrack-single-stim	s612	0	False
537.041	1.0	539.233	0.9	2.272	False	71.0	Color	stay	twobytwo	89.0	1.292	blue	8.0	cue_stay	color	stay	stim	poldrack-single-stim	s612	0	False
539.421	1.0	540.333	0.1	2.0	True	89.0	Color	stay	twobytwo	89.0	0.812	orange	2.0	cue_stay	color	stay	stim	poldrack-single-stim	s612	0	False
541.526	1.0	542.523	0.1	2.136	True	71.0	Orange-Blue	switch	twobytwo	71.0	0.897	blue	3.0	cue_switch	color	stay	stim	poldrack-single-stim	s612	0	False
544.574	1.0	547.54	0.9	2.272	True	71.0	High-Low	n/a	twobytwo	71.0	2.066	blue	6.0	task_switch	magnitude	switch	stim	poldrack-single-stim	s612	0	False
547.753	1.0	549.382	0.9	2.0	True	71.0	Magnitude	switch	twobytwo	71.0	0.729	blue	9.0	cue_switch	magnitude	stay	stim	poldrack-single-stim	s612	0	False
550.662	1.0	553.375	0.9	2.68	True	71.0	High-Low	switch	twobytwo	71.0	1.813	orange	8.0	cue_switch	magnitude	stay	stim	poldrack-single-stim	s612	0	False
553.449	1.0	554.721	0.1	2.0	True	71.0	Magnitude	switch	twobytwo	71.0	1.172	blue	7.0	cue_switch	magnitude	stay	stim	poldrack-single-stim	s612	0	False
555.555	1.0	555.554	0.1	2.0	False	89.0	High-Low	switch	twobytwo	-1.0	n/a	blue	3.0	cue_switch	magnitude	stay	stim	poldrack-single-stim	s612	0	False
558.462	1.0	560.225	0.9	2.0	True	71.0	High-Low	stay	twobytwo	71.0	0.863	orange	6.0	cue_stay	magnitude	stay	stim	poldrack-single-stim	s612	0	False
561.37	1.0	562.982	0.9	2.272	True	71.0	Magnitude	switch	twobytwo	71.0	0.712	orange	9.0	cue_switch	magnitude	stay	stim	poldrack-single-stim	s612	0	False
564.553	1.0	566.581	0.9	2.0	True	89.0	High-Low	switch	twobytwo	89.0	1.128	orange	3.0	cue_switch	magnitude	stay	stim	poldrack-single-stim	s612	0	False
566.659	1.0	567.768	0.1	2.0	True	89.0	Magnitude	switch	twobytwo	89.0	1.009	blue	4.0	cue_switch	magnitude	stay	stim	poldrack-single-stim	s612	0	False
569.566	1.0	571.598	0.9	2.0	True	89.0	High-Low	switch	twobytwo	89.0	1.132	blue	3.0	cue_switch	magnitude	stay	stim	poldrack-single-stim	s612	0	False
571.673	1.0	571.672	0.1	2.68	False	71.0	Magnitude	switch	twobytwo	-1.0	n/a	orange	9.0	cue_switch	magnitude	stay	stim	poldrack-single-stim	s612	0	False
574.463	1.0	574.462	0.1	2.0	False	89.0	Magnitude	stay	twobytwo	-1.0	n/a	orange	2.0	cue_stay	magnitude	stay	stim	poldrack-single-stim	s612	0	False
577.367	1.0	578.439	0.9	2.136	False	89.0	Orange-Blue	n/a	twobytwo	71.0	0.172	orange	7.0	task_switch	color	switch	stim	poldrack-single-stim	s612	0	False
579.608	1.0	581.533	0.1	2.408	False	89.0	Color	switch	twobytwo	71.0	1.825	orange	6.0	cue_switch	color	stay	stim	poldrack-single-stim	s612	0	False
582.92	1.0	584.671	0.9	2.136	True	71.0	High-Low	n/a	twobytwo	71.0	0.851	blue	6.0	task_switch	magnitude	switch	stim	poldrack-single-stim	s612	0	False
585.158	1.0	586.144	0.1	2.0	False	71.0	Color	n/a	twobytwo	89.0	0.886	blue	2.0	task_switch	color	switch	stim	poldrack-single-stim	s612	0	False
588.066	1.0	590.012	0.9	2.0	True	71.0	Magnitude	n/a	twobytwo	71.0	1.046	blue	8.0	task_switch	magnitude	switch	stim	poldrack-single-stim	s612	0	False
590.172	1.0	592.555	0.1	2.544	True	89.0	High-Low	switch	twobytwo	89.0	2.283	orange	4.0	cue_switch	magnitude	stay	stim	poldrack-single-stim	s612	0	False
592.824	1.0	594.061	0.1	2.136	True	71.0	Magnitude	switch	twobytwo	71.0	1.137	orange	7.0	cue_switch	magnitude	stay	stim	poldrack-single-stim	s612	0	False
595.067	1.0	596.042	0.1	2.544	True	89.0	High-Low	switch	twobytwo	89.0	0.875	blue	1.0	cue_switch	magnitude	stay	stim	poldrack-single-stim	s612	0	False
597.714	1.0	598.771	0.1	2.68	True	89.0	Magnitude	switch	twobytwo	89.0	0.957	orange	3.0	cue_switch	magnitude	stay	stim	poldrack-single-stim	s612	0	False
601.307	1.0	603.018	0.9	2.0	True	89.0	Color	n/a	twobytwo	89.0	0.811	orange	2.0	task_switch	color	switch	stim	poldrack-single-stim	s612	0	False
604.213	1.0	606.619	0.9	2.272	True	71.0	Magnitude	n/a	twobytwo	71.0	1.506	orange	6.0	task_switch	magnitude	switch	stim	poldrack-single-stim	s612	0	False
606.592	1.0	607.835	0.1	3.088	True	89.0	Orange-Blue	n/a	twobytwo	89.0	1.143	orange	1.0	task_switch	color	switch	stim	poldrack-single-stim	s612	0	False
609.787	1.0	611.32	0.1	2.0	True	89.0	Color	switch	twobytwo	89.0	1.433	orange	6.0	cue_switch	color	stay	stim	poldrack-single-stim	s612	0	False
611.891	1.0	612.738	0.1	2.136	True	71.0	Color	stay	twobytwo	71.0	0.747	blue	3.0	cue_stay	color	stay	stim	poldrack-single-stim	s612	0	False
614.931	1.0	616.939	0.9	2.136	True	71.0	Magnitude	n/a	twobytwo	71.0	1.108	blue	9.0	task_switch	magnitude	switch	stim	poldrack-single-stim	s612	0	False
617.177	1.0	617.916	0.1	2.0	True	71.0	Magnitude	stay	twobytwo	71.0	0.639	blue	9.0	cue_stay	magnitude	stay	stim	poldrack-single-stim	s612	0	False
619.281	1.0	620.457	0.1	2.272	True	89.0	High-Low	switch	twobytwo	89.0	1.076	orange	3.0	cue_switch	magnitude	stay	stim	poldrack-single-stim	s612	0	False
622.46	1.0	624.633	0.9	2.0	True	71.0	High-Low	stay	twobytwo	71.0	1.273	blue	7.0	cue_stay	magnitude	stay	stim	poldrack-single-stim	s612	0	False
624.569	1.0	625.271	0.1	2.136	False	89.0	High-Low	stay	twobytwo	71.0	0.602	blue	1.0	cue_stay	magnitude	stay	stim	poldrack-single-stim	s612	0	False
627.609	1.0	629.582	0.9	2.136	True	71.0	Orange-Blue	n/a	twobytwo	71.0	1.073	blue	6.0	task_switch	color	switch	stim	poldrack-single-stim	s612	0	False
629.856	1.0	630.95	0.1	2.544	True	89.0	High-Low	n/a	twobytwo	89.0	0.994	blue	2.0	task_switch	magnitude	switch	stim	poldrack-single-stim	s612	0	False
632.507	1.0	634.129	0.1	2.0	False	71.0	Orange-Blue	n/a	twobytwo	89.0	1.522	blue	4.0	task_switch	color	switch	stim	poldrack-single-stim	s612	0	False
635.414	1.0	637.356	0.9	2.136	True	89.0	High-Low	n/a	twobytwo	89.0	1.042	blue	3.0	task_switch	magnitude	switch	stim	poldrack-single-stim	s612	0	False
638.457	1.0	640.44	0.9	2.136	True	89.0	High-Low	stay	twobytwo	89.0	1.083	blue	2.0	cue_stay	magnitude	stay	stim	poldrack-single-stim	s612	0	False
640.699	1.0	641.809	0.1	2.136	True	89.0	Magnitude	switch	twobytwo	89.0	1.01	orange	1.0	cue_switch	magnitude	stay	stim	poldrack-single-stim	s612	0	False
642.945	1.0	643.813	0.1	2.0	True	89.0	High-Low	switch	twobytwo	89.0	0.768	orange	2.0	cue_switch	magnitude	stay	stim	poldrack-single-stim	s612	0	False
645.055	1.0	646.893	0.1	2.136	True	89.0	Orange-Blue	n/a	twobytwo	89.0	1.738	orange	7.0	task_switch	color	switch	stim	poldrack-single-stim	s612	0	False
648.098	1.0	649.61	0.9	2.0	True	89.0	High-Low	n/a	twobytwo	89.0	0.612	blue	1.0	task_switch	magnitude	switch	stim	poldrack-single-stim	s612	0	False
651.008	1.0	652.926	0.9	2.136	True	71.0	Color	n/a	twobytwo	71.0	1.018	blue	6.0	task_switch	color	switch	stim	poldrack-single-stim	s612	0	False
653.256	1.0	654.701	0.1	2.816	True	71.0	Orange-Blue	switch	twobytwo	71.0	1.345	blue	8.0	cue_switch	color	stay	stim	poldrack-single-stim	s612	0	False
656.98	1.0	658.909	0.9	2.136	True	89.0	Magnitude	n/a	twobytwo	89.0	1.029	orange	3.0	task_switch	magnitude	switch	stim	poldrack-single-stim	s612	0	False
659.223	1.0	661.252	0.1	2.0	True	71.0	Color	n/a	twobytwo	71.0	1.929	blue	8.0	task_switch	color	switch	stim	poldrack-single-stim	s612	0	False
662.131	1.0	663.79	0.9	2.0	False	71.0	Orange-Blue	switch	twobytwo	89.0	0.759	blue	1.0	cue_switch	color	stay	stim	poldrack-single-stim	s612	0	False
664.237	1.0	665.546	0.1	2.272	True	71.0	High-Low	n/a	twobytwo	71.0	1.209	blue	6.0	task_switch	magnitude	switch	stim	poldrack-single-stim	s612	0	False
666.616	1.0	667.865	0.1	2.0	True	89.0	Magnitude	switch	twobytwo	89.0	1.149	blue	4.0	cue_switch	magnitude	stay	stim	poldrack-single-stim	s612	0	False
668.723	1.0	669.812	0.1	2.0	True	89.0	Orange-Blue	n/a	twobytwo	89.0	0.989	orange	3.0	task_switch	color	switch	stim	poldrack-single-stim	s612	0	False
670.829	1.0	671.681	0.1	2.0	True	89.0	High-Low	n/a	twobytwo	89.0	0.752	orange	3.0	task_switch	magnitude	switch	stim	poldrack-single-stim	s612	0	False
673.734	1.0	675.344	0.9	2.408	True	71.0	High-Low	stay	twobytwo	71.0	0.71	orange	9.0	cue_stay	magnitude	stay	stim	poldrack-single-stim	s612	0	False
