onset	duration	movement_onset	EV	action	block_duration	experiment_exp_id	gain_amount	gain_probability	key_press	loss_amount	loss_probability	num_cards	num_click_in_round	num_loss_cards	risk	response_time	total_cards	trial_id	trial_type	worker_id	junk	feedback
3.013	1.287	4.3	0.6315405716968217	draw_card	1.287	columbia_card_task_fmri	12.0	0.8333333333333334	89.0	-70.0	0.1666666666666666	6.0	1.0	1.0	-1.4404135566259448	1.287	n/a	stim	poldrack-single-stim	s613	False	1
4.302	2.072	6.374	-2.101792761636511	draw_card	2.072	columbia_card_task_fmri	12.0	0.8	89.0	-70.0	0.2	6.0	2.0	1.0	0.7941112794023084	2.072	n/a	stim	poldrack-single-stim	s613	False	1
6.374	0.852	7.226	-6.201792761636512	draw_card	0.852	columbia_card_task_fmri	12.0	0.75	89.0	-70.0	0.25	6.0	3.0	1.0	3.4950352811290983	0.852	n/a	stim	poldrack-single-stim	s613	False	1
7.228	0.723	7.951	-13.035126094969844	draw_card	0.723	columbia_card_task_fmri	12.0	0.6666666666666667	89.0	-70.0	0.3333333333333333	6.0	4.0	1.0	6.637124602278043	0.723	n/a	stim	poldrack-single-stim	s613	False	1
7.953	1.278	9.231	-26.70179276163651	end_round	1.278	columbia_card_task_fmri	12.0	0.5	71.0	-70.0	0.5	6.0	5.0	1.0	8.978056424912644	1.278	4.0	stim	poldrack-single-stim	s613	False	1
9.986	1.5	9.235	n/a	-1.0	2.25	columbia_card_task_fmri	n/a	n/a	-1.0	n/a	n/a	n/a	n/a	n/a	n/a	n/a	n/a	ITI	poldrack-single-stim	s613	False	0
11.488	0.655	12.143	1.4648739050301556	draw_card	0.655	columbia_card_task_fmri	14.0	0.8333333333333334	89.0	-75.0	0.1666666666666666	6.0	1.0	1.0	1.1615620563845963	0.655	n/a	stim	poldrack-single-stim	s613	False	1
12.144	0.874	13.018	-1.5017927616365112	draw_card	0.874	columbia_card_task_fmri	14.0	0.8	89.0	-75.0	0.2	6.0	2.0	1.0	3.5878001219625872	0.874	n/a	stim	poldrack-single-stim	s613	False	1
13.02	0.359	13.379	-5.951792761636512	draw_card	0.359	columbia_card_task_fmri	14.0	0.75	89.0	-75.0	0.25	6.0	3.0	1.0	6.520291300058673	0.359	n/a	stim	poldrack-single-stim	s613	False	1
13.38	0.433	13.813	-13.36845942830318	draw_card	0.433	columbia_card_task_fmri	14.0	0.6666666666666667	89.0	-75.0	0.3333333333333333	6.0	4.0	1.0	9.931595970726429	0.433	4.0	stim	poldrack-single-stim	s613	False	0
14.57	1.5	13.819	n/a	-1.0	2.386	columbia_card_task_fmri	n/a	n/a	-1.0	n/a	n/a	n/a	n/a	n/a	n/a	n/a	n/a	ITI	poldrack-single-stim	s613	False	0
16.207	0.682	16.889	3.1315405716968217	draw_card	0.682	columbia_card_task_fmri	15.0	0.8333333333333334	89.0	-70.0	0.1666666666666666	6.0	1.0	1.0	-0.3254171611903054	0.682	n/a	stim	poldrack-single-stim	s613	False	1
16.889	1.169	18.058	0.2982072383634877	draw_card	1.169	columbia_card_task_fmri	15.0	0.8	89.0	-70.0	0.2	6.0	2.0	1.0	1.991279646939233	1.169	n/a	stim	poldrack-single-stim	s613	False	1
18.06	0.766	18.826	-3.951792761636512	draw_card	0.766	columbia_card_task_fmri	15.0	0.75	89.0	-70.0	0.25	6.0	3.0	1.0	4.791456278566677	0.766	n/a	stim	poldrack-single-stim	s613	False	1
18.827	1.111	19.938	-11.035126094969844	draw_card	1.111	columbia_card_task_fmri	15.0	0.6666666666666667	89.0	-70.0	0.3333333333333333	6.0	4.0	1.0	8.048933061798316	1.111	n/a	stim	poldrack-single-stim	s613	False	1
19.94	0.919	20.859	-25.20179276163651	end_round	0.919	columbia_card_task_fmri	15.0	0.5	71.0	-70.0	0.5	6.0	5.0	1.0	10.475788229359758	0.919	4.0	stim	poldrack-single-stim	s613	False	1
21.615	1.5	20.864	n/a	-1.0	2.59	columbia_card_task_fmri	n/a	n/a	-1.0	n/a	n/a	n/a	n/a	n/a	n/a	n/a	n/a	ITI	poldrack-single-stim	s613	False	0
23.457	0.669	24.126	3.964873905030156	draw_card	0.669	columbia_card_task_fmri	17.0	0.8333333333333334	89.0	-75.0	0.1666666666666666	6.0	1.0	1.0	2.277008738389505	0.669	n/a	stim	poldrack-single-stim	s613	False	1
24.127	0.984	25.111	0.8982072383634891	draw_card	0.984	columbia_card_task_fmri	17.0	0.8	89.0	-75.0	0.2	6.0	2.0	1.0	4.785388437047253	0.984	n/a	stim	poldrack-single-stim	s613	False	1
25.114	0.723	25.837	-3.701792761636512	draw_card	0.723	columbia_card_task_fmri	17.0	0.75	89.0	-75.0	0.25	6.0	3.0	1.0	7.817100601444224	0.723	3.0	stim	poldrack-single-stim	s613	False	0
26.593	1.5	25.842	n/a	-1.0	2.658	columbia_card_task_fmri	n/a	n/a	-1.0	n/a	n/a	n/a	n/a	n/a	n/a	n/a	n/a	ITI	poldrack-single-stim	s613	False	0
28.502	0.679	29.181	5.298207238363488	draw_card	0.679	columbia_card_task_fmri	24.0	0.75	89.0	-60.0	0.25	8.0	1.0	2.0	4.359295237611526	0.679	n/a	stim	poldrack-single-stim	s613	False	1
29.183	0.737	29.92	2.298207238363488	draw_card	0.737	columbia_card_task_fmri	24.0	0.7142857142857143	89.0	-60.0	0.2857142857142857	8.0	2.0	2.0	5.93055675303453	0.737	n/a	stim	poldrack-single-stim	s613	False	1
29.922	0.807	30.729	-1.7017927616365125	draw_card	0.807	columbia_card_task_fmri	24.0	0.6666666666666667	89.0	-60.0	0.3333333333333333	8.0	3.0	2.0	7.578311202116744	0.807	n/a	stim	poldrack-single-stim	s613	False	1
30.73	1.446	32.176	-7.301792761636514	draw_card	1.446	columbia_card_task_fmri	24.0	0.6	89.0	-60.0	0.4	8.0	4.0	2.0	9.129247638773684	1.446	n/a	stim	poldrack-single-stim	s613	False	1
32.177	0.854	33.031	-15.701792761636511	draw_card	0.854	columbia_card_task_fmri	24.0	0.5	89.0	-60.0	0.5	8.0	5.0	2.0	9.97652633347559	0.854	n/a	stim	poldrack-single-stim	s613	False	1
33.033	1.094	34.127	-29.70179276163651	end_round	1.094	columbia_card_task_fmri	24.0	0.3333333333333333	71.0	-60.0	0.6666666666666666	8.0	6.0	2.0	7.578311202116744	1.094	5.0	stim	poldrack-single-stim	s613	False	1
34.879	1.5	34.128	n/a	-1.0	2.386	columbia_card_task_fmri	n/a	n/a	-1.0	n/a	n/a	n/a	n/a	n/a	n/a	n/a	n/a	ITI	poldrack-single-stim	s613	False	0
36.517	1.301	37.818	5.298207238363488	draw_card	1.301	columbia_card_task_fmri	29.0	0.75	89.0	-75.0	0.25	8.0	1.0	2.0	13.00562090103847	1.301	n/a	stim	poldrack-single-stim	s613	False	1
37.819	0.445	38.264	1.583921524077776	draw_card	0.445	columbia_card_task_fmri	29.0	0.7142857142857143	89.0	-75.0	0.2857142857142857	8.0	2.0	2.0	14.952282577833948	0.445	n/a	stim	poldrack-single-stim	s613	False	1
38.265	1.099	39.364	-3.368459428303177	draw_card	1.099	columbia_card_task_fmri	29.0	0.6666666666666667	89.0	-75.0	0.3333333333333333	8.0	3.0	2.0	16.993602693752685	1.099	3.0	stim	poldrack-single-stim	s613	False	0
40.117	1.5	39.366	n/a	-1.0	2.386	columbia_card_task_fmri	n/a	n/a	-1.0	n/a	n/a	n/a	n/a	n/a	n/a	n/a	n/a	ITI	poldrack-single-stim	s613	False	0
41.755	0.48	42.235	1.075985016141268	draw_card	0.48	columbia_card_task_fmri	17.0	0.7777777777777778	89.0	-65.0	0.2222222222222222	9.0	1.0	2.0	2.081729987770913	0.48	n/a	stim	poldrack-single-stim	s613	False	1
42.236	1.195	43.431	-1.2017927616365125	draw_card	1.195	columbia_card_task_fmri	17.0	0.75	89.0	-65.0	0.25	9.0	2.0	2.0	3.4950352811290983	1.195	n/a	stim	poldrack-single-stim	s613	False	1
43.433	0.433	43.866	-4.130364190207939	draw_card	0.433	columbia_card_task_fmri	17.0	0.7142857142857143	89.0	-65.0	0.2857142857142857	9.0	3.0	2.0	5.028741477263779	0.433	n/a	stim	poldrack-single-stim	s613	False	1
43.868	0.562	44.43	-8.035126094969844	draw_card	0.562	columbia_card_task_fmri	17.0	0.6666666666666667	89.0	-65.0	0.3333333333333333	9.0	4.0	2.0	6.637124602278043	0.562	n/a	stim	poldrack-single-stim	s613	False	1
44.431	0.604	45.035	-13.501792761636512	draw_card	0.604	columbia_card_task_fmri	17.0	0.6	89.0	-65.0	0.4	9.0	5.0	2.0	8.151013235416244	0.604	n/a	stim	poldrack-single-stim	s613	False	1
45.038	0.936	45.974	-21.70179276163651	end_round	0.936	columbia_card_task_fmri	17.0	0.5	71.0	-65.0	0.5	9.0	6.0	2.0	8.978056424912644	0.936	5.0	stim	poldrack-single-stim	s613	False	1
46.727	1.5	45.976	n/a	-1.0	2.25	columbia_card_task_fmri	n/a	n/a	-1.0	n/a	n/a	n/a	n/a	n/a	n/a	n/a	n/a	ITI	poldrack-single-stim	s613	False	0
48.229	0.708	48.937	5.398207238363487	draw_card	0.708	columbia_card_task_fmri	14.0	0.9	89.0	-95.0	0.1	10.0	1.0	1.0	0.6943565956966253	0.708	1.0	stim	poldrack-single-stim	s613	False	0
49.691	1.5	48.94	n/a	-1.0	2.318	columbia_card_task_fmri	n/a	n/a	-1.0	n/a	n/a	n/a	n/a	n/a	n/a	n/a	n/a	ITI	poldrack-single-stim	s613	False	0
51.261	1.107	52.368	1.2982072383634875	end_round	1.107	columbia_card_task_fmri	15.0	0.8	71.0	-65.0	0.2	10.0	1.0	2.0	-0.0038834226756492	1.107	0.0	stim	poldrack-single-stim	s613	False	1
53.122	1.5	52.371	n/a	-1.0	2.25	columbia_card_task_fmri	n/a	n/a	-1.0	n/a	n/a	n/a	n/a	n/a	n/a	n/a	n/a	ITI	poldrack-single-stim	s613	False	0
54.624	0.637	55.261	2.898207238363489	draw_card	0.637	columbia_card_task_fmri	17.0	0.8	89.0	-65.0	0.2	10.0	1.0	2.0	0.7941112794023084	0.637	1.0	stim	poldrack-single-stim	s613	False	0
56.013	1.5	55.262	n/a	-1.0	2.25	columbia_card_task_fmri	n/a	n/a	-1.0	n/a	n/a	n/a	n/a	n/a	n/a	n/a	n/a	ITI	poldrack-single-stim	s613	False	0
57.515	0.606	58.121	1.4648739050301556	draw_card	0.606	columbia_card_task_fmri	13.0	0.8333333333333334	89.0	-70.0	0.1666666666666666	12.0	1.0	2.0	-1.0687723896938763	0.606	1.0	stim	poldrack-single-stim	s613	False	0
58.874	1.5	58.123	n/a	-1.0	2.386	columbia_card_task_fmri	n/a	n/a	-1.0	n/a	n/a	n/a	n/a	n/a	n/a	n/a	n/a	ITI	poldrack-single-stim	s613	False	0
60.512	0.695	61.207	1.4648739050301556	end_round	0.695	columbia_card_task_fmri	15.0	0.8333333333333334	71.0	-80.0	0.1666666666666666	12.0	1.0	2.0	3.3926182977417767	0.695	0.0	stim	poldrack-single-stim	s613	False	1
61.962	1.5	61.211	n/a	-1.0	2.386	columbia_card_task_fmri	n/a	n/a	-1.0	n/a	n/a	n/a	n/a	n/a	n/a	n/a	n/a	ITI	poldrack-single-stim	s613	False	0
63.6	1.197	64.797	0.4982072383634888	draw_card	1.197	columbia_card_task_fmri	14.0	0.8	89.0	-65.0	0.2	15.0	1.0	3.0	-0.4028428463088467	1.197	n/a	stim	poldrack-single-stim	s613	False	1
64.799	1.002	65.801	-0.6303641902079393	draw_card	1.002	columbia_card_task_fmri	14.0	0.7857142857142857	89.0	-65.0	0.2142857142857142	15.0	2.0	3.0	0.4108085139654989	1.002	n/a	stim	poldrack-single-stim	s613	False	1
65.804	0.751	66.555	-1.932561992405744	draw_card	0.751	columbia_card_task_fmri	14.0	0.7692307692307692	89.0	-65.0	0.2307692307692307	15.0	3.0	3.0	1.2776215893505238	0.751	n/a	stim	poldrack-single-stim	s613	False	1
66.557	0.849	67.406	-3.4517927616365123	draw_card	0.849	columbia_card_task_fmri	14.0	0.75	89.0	-65.0	0.25	15.0	4.0	3.0	2.1988124051389093	0.849	n/a	stim	poldrack-single-stim	s613	False	1
67.408	1.656	69.064	-5.247247307091057	draw_card	1.656	columbia_card_task_fmri	14.0	0.7272727272727273	89.0	-65.0	0.2727272727272727	15.0	5.0	3.0	3.1722552874469656	1.656	n/a	stim	poldrack-single-stim	s613	False	1
69.066	1.79	70.856	-7.401792761636513	draw_card	1.79	columbia_card_task_fmri	14.0	0.7	89.0	-65.0	0.3	15.0	6.0	3.0	4.188917626270694	1.79	6.0	stim	poldrack-single-stim	s613	False	0
71.611	1.5	70.86	n/a	-1.0	2.726	columbia_card_task_fmri	n/a	n/a	-1.0	n/a	n/a	n/a	n/a	n/a	n/a	n/a	n/a	ITI	poldrack-single-stim	s613	False	0
73.59	1.249	74.839	0.4232072383634877	draw_card	1.249	columbia_card_task_fmri	1.0	0.9375	89.0	-45.0	0.0625	16.0	1.0	1.0	-20.716778281509704	1.249	n/a	stim	poldrack-single-stim	s613	False	1
74.841	1.748	76.589	0.2315405716968213	draw_card	1.748	columbia_card_task_fmri	1.0	0.9333333333333332	89.0	-45.0	0.0666666666666666	16.0	2.0	1.0	-20.38399816720629	1.748	n/a	stim	poldrack-single-stim	s613	False	1
76.591	1.483	78.074	0.0124929526492021	draw_card	1.483	columbia_card_task_fmri	1.0	0.9285714285714286	89.0	-45.0	0.0714285714285714	16.0	3.0	1.0	-20.01863322934205	1.483	n/a	stim	poldrack-single-stim	s613	False	1
78.076	2.506	80.582	-0.2402543000980506	draw_card	2.506	columbia_card_task_fmri	1.0	0.9230769230769232	89.0	-45.0	0.0769230769230769	16.0	4.0	1.0	-19.615126863104205	2.506	n/a	stim	poldrack-single-stim	s613	False	1
80.584	1.897	82.481	-0.5351260949698458	draw_card	1.897	columbia_card_task_fmri	1.0	0.9166666666666666	89.0	-45.0	0.0833333333333333	16.0	5.0	1.0	-19.16652742647822	1.897	n/a	stim	poldrack-single-stim	s613	False	1
82.483	1.671	84.154	-0.8836109434546939	draw_card	1.671	columbia_card_task_fmri	1.0	0.9090909090909092	89.0	-45.0	0.0909090909090909	16.0	6.0	1.0	-18.66401767643506	1.671	n/a	stim	poldrack-single-stim	s613	False	1
84.156	3.544	87.7	-1.3017927616365124	draw_card	3.544	columbia_card_task_fmri	1.0	0.9	89.0	-45.0	0.1	16.0	7.0	1.0	-18.09624552004456	3.544	n/a	stim	poldrack-single-stim	s613	False	1
87.702	0.643	88.345	-1.812903872747623	end_round	0.643	columbia_card_task_fmri	1.0	0.8888888888888888	71.0	-45.0	0.1111111111111111	16.0	8.0	1.0	-17.44836050863701	0.643	7.0	stim	poldrack-single-stim	s613	False	1
89.098	1.5	88.347	n/a	-1.0	2.454	columbia_card_task_fmri	n/a	n/a	-1.0	n/a	n/a	n/a	n/a	n/a	n/a	n/a	n/a	ITI	poldrack-single-stim	s613	False	0
90.804	2.575	93.379	1.3607072383634875	draw_card	2.575	columbia_card_task_fmri	15.0	0.8125	89.0	-70.0	0.1875	16.0	1.0	3.0	1.169752623606982	2.575	n/a	stim	poldrack-single-stim	s613	False	1
93.381	3.422	96.803	0.2982072383634877	draw_card	3.422	columbia_card_task_fmri	15.0	0.8	89.0	-70.0	0.2	16.0	2.0	3.0	1.991279646939233	3.422	2.0	stim	poldrack-single-stim	s613	False	0
97.555	1.5	96.804	n/a	-1.0	2.318	columbia_card_task_fmri	n/a	n/a	-1.0	n/a	n/a	n/a	n/a	n/a	n/a	n/a	n/a	ITI	poldrack-single-stim	s613	False	0
99.126	3.173	102.299	8.298207238363489	draw_card	3.173	columbia_card_task_fmri	30.0	0.7	89.0	-50.0	0.3	10.0	1.0	3.0	4.646266062186783	3.173	1.0	stim	poldrack-single-stim	s613	False	0
103.051	1.5	102.3	n/a	-1.0	2.318	columbia_card_task_fmri	n/a	n/a	-1.0	n/a	n/a	n/a	n/a	n/a	n/a	n/a	n/a	ITI	poldrack-single-stim	s613	False	0
104.621	2.006	106.627	7.698207238363488	draw_card	2.006	columbia_card_task_fmri	17.0	0.8666666666666667	89.0	-70.0	0.1333333333333333	15.0	1.0	2.0	-2.4228295979756997	2.006	n/a	stim	poldrack-single-stim	s613	False	1
106.629	3.804	110.433	6.869635809792061	draw_card	3.804	columbia_card_task_fmri	17.0	0.8571428571428572	89.0	-70.0	0.1428571428571428	15.0	2.0	2.0	-1.5560233121935312	3.804	n/a	stim	poldrack-single-stim	s613	False	1
110.435	4.347	114.782	5.913591853748103	draw_card	4.347	columbia_card_task_fmri	17.0	0.8461538461538461	89.0	-70.0	0.1538461538461538	15.0	3.0	2.0	-0.6125797137272464	4.347	n/a	stim	poldrack-single-stim	s613	False	1
114.784	4.809	119.593	4.7982072383634895	draw_card	4.809	columbia_card_task_fmri	17.0	0.8333333333333334	89.0	-70.0	0.1666666666666666	15.0	4.0	2.0	0.418029703215474	4.809	n/a	stim	poldrack-single-stim	s613	False	1
119.595	3.767	123.362	3.480025420181668	draw_card	3.767	columbia_card_task_fmri	17.0	0.8181818181818181	89.0	-70.0	0.1818181818181818	15.0	5.0	2.0	1.5477360488036285	3.767	n/a	stim	poldrack-single-stim	s613	False	1
123.364	4.319	127.683	1.8982072383634887	draw_card	4.319	columbia_card_task_fmri	17.0	0.8	89.0	-70.0	0.2	15.0	6.0	2.0	2.789500020257968	4.319	n/a	stim	poldrack-single-stim	s613	False	1
127.686	5.317	133.003	-0.0351260949698444	draw_card	5.317	columbia_card_task_fmri	17.0	0.7777777777777778	89.0	-70.0	0.2222222222222222	15.0	7.0	2.0	4.15599071632434	5.317	n/a	stim	poldrack-single-stim	s613	False	1
133.005	4.742	137.747	-2.4517927616365123	draw_card	4.742	columbia_card_task_fmri	17.0	0.75	89.0	-70.0	0.25	15.0	8.0	2.0	5.655836929112972	4.742	n/a	stim	poldrack-single-stim	s613	False	1
137.749	1.086	138.835	-5.55893561877937	end_round	1.086	columbia_card_task_fmri	17.0	0.7142857142857143	71.0	-70.0	0.2857142857142857	15.0	9.0	2.0	7.28342519781885	1.086	8.0	stim	poldrack-single-stim	s613	False	1
139.588	1.5	138.837	n/a	-1.0	2.59	columbia_card_task_fmri	n/a	n/a	-1.0	n/a	n/a	n/a	n/a	n/a	n/a	n/a	n/a	ITI	poldrack-single-stim	s613	False	0
141.43	3.478	144.908	2.923207238363488	draw_card	3.478	columbia_card_task_fmri	7.0	0.9375	89.0	-95.0	0.0625	16.0	1.0	1.0	-7.289306285773545	3.478	n/a	stim	poldrack-single-stim	s613	False	1
144.91	1.099	146.009	2.498207238363488	end_round	1.099	columbia_card_task_fmri	7.0	0.9333333333333332	71.0	-95.0	0.0666666666666666	16.0	2.0	1.0	-6.539450582120573	1.099	1.0	stim	poldrack-single-stim	s613	False	1
146.763	1.5	146.012	n/a	-1.0	2.726	columbia_card_task_fmri	n/a	n/a	-1.0	n/a	n/a	n/a	n/a	n/a	n/a	n/a	n/a	ITI	poldrack-single-stim	s613	False	0
148.742	1.568	150.31	4.485707238363488	draw_card	1.568	columbia_card_task_fmri	9.0	0.9375	89.0	-100.0	0.0625	16.0	1.0	1.0	-5.601703532028406	1.568	1.0	stim	poldrack-single-stim	s613	False	0
151.063	1.5	150.312	n/a	-1.0	2.522	columbia_card_task_fmri	n/a	n/a	-1.0	n/a	n/a	n/a	n/a	n/a	n/a	n/a	n/a	ITI	poldrack-single-stim	s613	False	0
152.838	2.095	154.933	5.423207238363488	draw_card	2.095	columbia_card_task_fmri	15.0	0.875	89.0	-80.0	0.125	16.0	1.0	2.0	-0.5840646202414561	2.095	1.0	stim	poldrack-single-stim	s613	False	0
155.689	1.5	154.938	n/a	-1.0	3.134	columbia_card_task_fmri	n/a	n/a	-1.0	n/a	n/a	n/a	n/a	n/a	n/a	n/a	n/a	ITI	poldrack-single-stim	s613	False	0
158.075	1.443	159.518	7.548207238363488	draw_card	1.443	columbia_card_task_fmri	16.0	0.875	89.0	-70.0	0.125	16.0	1.0	2.0	-3.5517772782778323	1.443	n/a	stim	poldrack-single-stim	s613	False	1
159.521	1.886	161.407	6.831540571696821	draw_card	1.886	columbia_card_task_fmri	16.0	0.8666666666666667	89.0	-70.0	0.1333333333333333	16.0	2.0	2.0	-2.761730636032862	1.886	n/a	stim	poldrack-single-stim	s613	False	1
161.41	1.6	163.01	6.012492952649203	draw_card	1.6	columbia_card_task_fmri	16.0	0.8571428571428572	89.0	-70.0	0.1428571428571428	16.0	3.0	2.0	-1.9049460797272708	1.6	3.0	stim	poldrack-single-stim	s613	False	0
163.765	1.5	163.014	n/a	-1.0	2.386	columbia_card_task_fmri	n/a	n/a	-1.0	n/a	n/a	n/a	n/a	n/a	n/a	n/a	n/a	ITI	poldrack-single-stim	s613	False	0
165.403	7.666	173.069	8.860707238363489	draw_card	7.666	columbia_card_task_fmri	30.0	0.6875	89.0	-45.0	0.3125	16.0	1.0	5.0	2.753009998157708	7.666	n/a	stim	poldrack-single-stim	s613	False	1
173.071	2.371	175.442	7.298207238363491	draw_card	2.371	columbia_card_task_fmri	30.0	0.6666666666666667	89.0	-45.0	0.3333333333333333	16.0	2.0	5.0	3.3436509147019398	2.371	n/a	stim	poldrack-single-stim	s613	False	1
175.444	1.488	176.932	5.5124929526492	draw_card	1.488	columbia_card_task_fmri	30.0	0.6428571428571428	89.0	-45.0	0.3571428571428571	16.0	3.0	5.0	3.923913800661268	1.488	n/a	stim	poldrack-single-stim	s613	False	1
176.935	0.804	177.739	3.452053392209641	end_round	0.804	columbia_card_task_fmri	30.0	0.6153846153846154	71.0	-45.0	0.3846153846153846	16.0	4.0	5.0	4.473819773976508	0.804	3.0	stim	poldrack-single-stim	s613	False	1
178.495	1.5	177.744	n/a	-1.0	2.386	columbia_card_task_fmri	n/a	n/a	-1.0	n/a	n/a	n/a	n/a	n/a	n/a	n/a	n/a	ITI	poldrack-single-stim	s613	False	0
180.134	2.527	182.661	0.6315405716968217	draw_card	2.527	columbia_card_task_fmri	13.0	0.8333333333333334	89.0	-75.0	0.1666666666666666	6.0	1.0	1.0	0.7897855562073488	2.527	1.0	stim	poldrack-single-stim	s613	False	0
183.416	1.5	182.665	n/a	-1.0	2.318	columbia_card_task_fmri	n/a	n/a	-1.0	n/a	n/a	n/a	n/a	n/a	n/a	n/a	n/a	ITI	poldrack-single-stim	s613	False	0
184.985	4.008	188.993	2.298207238363489	draw_card	4.008	columbia_card_task_fmri	14.0	0.8333333333333334	89.0	-70.0	0.1666666666666666	6.0	1.0	1.0	-0.697106636844385	4.008	n/a	stim	poldrack-single-stim	s613	False	1
188.996	2.198	191.194	-0.5017927616365112	draw_card	2.198	columbia_card_task_fmri	14.0	0.8	89.0	-70.0	0.2	6.0	2.0	1.0	1.592201130000113	2.198	n/a	stim	poldrack-single-stim	s613	False	1
191.195	1.311	192.506	-4.701792761636512	draw_card	1.311	columbia_card_task_fmri	14.0	0.75	89.0	-70.0	0.25	6.0	3.0	1.0	4.359295237611526	1.311	n/a	stim	poldrack-single-stim	s613	False	1
192.509	0.801	193.31	-11.701792761636511	end_round	0.801	columbia_card_task_fmri	14.0	0.6666666666666667	71.0	-70.0	0.3333333333333333	6.0	4.0	1.0	7.578311202116744	0.801	3.0	stim	poldrack-single-stim	s613	False	1
194.062	1.5	193.311	n/a	-1.0	2.318	columbia_card_task_fmri	n/a	n/a	-1.0	n/a	n/a	n/a	n/a	n/a	n/a	n/a	n/a	ITI	poldrack-single-stim	s613	False	0
195.633	5.933	201.566	2.298207238363489	draw_card	5.933	columbia_card_task_fmri	16.0	0.8333333333333334	89.0	-80.0	0.1666666666666666	6.0	1.0	1.0	3.764521717812748	5.933	n/a	stim	poldrack-single-stim	s613	False	1
201.57	2.717	204.287	-0.9017927616365116	draw_card	2.717	columbia_card_task_fmri	16.0	0.8	89.0	-80.0	0.2	6.0	2.0	1.0	6.382406673246841	2.717	n/a	stim	poldrack-single-stim	s613	False	1
204.289	2.885	207.174	-5.701792761636512	draw_card	2.885	columbia_card_task_fmri	16.0	0.75	89.0	-80.0	0.25	6.0	3.0	1.0	9.546395843812398	2.885	3.0	stim	poldrack-single-stim	s613	False	0
207.928	1.5	207.177	n/a	-1.0	2.862	columbia_card_task_fmri	n/a	n/a	-1.0	n/a	n/a	n/a	n/a	n/a	n/a	n/a	n/a	ITI	poldrack-single-stim	s613	False	0
210.043	1.426	211.469	4.7982072383634895	draw_card	1.426	columbia_card_task_fmri	17.0	0.8333333333333334	89.0	-70.0	0.1666666666666666	6.0	1.0	1.0	0.418029703215474	1.426	n/a	stim	poldrack-single-stim	s613	False	1
211.471	1.684	213.155	1.8982072383634887	end_round	1.684	columbia_card_task_fmri	17.0	0.8	71.0	-70.0	0.2	6.0	2.0	1.0	2.789500020257968	1.684	1.0	stim	poldrack-single-stim	s613	False	1
213.912	1.5	213.161	n/a	-1.0	2.726	columbia_card_task_fmri	n/a	n/a	-1.0	n/a	n/a	n/a	n/a	n/a	n/a	n/a	n/a	ITI	poldrack-single-stim	s613	False	0
215.89	0.911	216.801	4.798207238363488	draw_card	0.911	columbia_card_task_fmri	25.0	0.75	89.0	-65.0	0.25	8.0	1.0	2.0	6.952544600300946	0.911	n/a	stim	poldrack-single-stim	s613	False	1
216.804	2.146	218.95	1.583921524077776	draw_card	2.146	columbia_card_task_fmri	25.0	0.7142857142857143	89.0	-65.0	0.2857142857142857	8.0	2.0	2.0	8.636452808584167	2.146	n/a	stim	poldrack-single-stim	s613	False	1
218.951	2.779	221.73	-2.7017927616365087	draw_card	2.779	columbia_card_task_fmri	25.0	0.6666666666666667	89.0	-65.0	0.3333333333333333	8.0	3.0	2.0	10.402302649863556	2.779	n/a	stim	poldrack-single-stim	s613	False	1
221.733	2.495	224.228	-8.701792761636511	draw_card	2.495	columbia_card_task_fmri	25.0	0.6	89.0	-65.0	0.4	8.0	4.0	2.0	12.064366353263082	2.495	n/a	stim	poldrack-single-stim	s613	False	1
224.231	3.727	227.958	-17.70179276163651	end_round	3.727	columbia_card_task_fmri	25.0	0.5	71.0	-65.0	0.5	8.0	5.0	2.0	12.972343242555256	3.727	4.0	stim	poldrack-single-stim	s613	False	1
228.711	1.5	227.96	n/a	-1.0	2.25	columbia_card_task_fmri	n/a	n/a	-1.0	n/a	n/a	n/a	n/a	n/a	n/a	n/a	n/a	ITI	poldrack-single-stim	s613	False	0
230.214	3.43	233.644	4.798207238363488	draw_card	3.43	columbia_card_task_fmri	30.0	0.75	89.0	-80.0	0.25	8.0	1.0	2.0	15.600504317680034	3.43	1.0	stim	poldrack-single-stim	s613	False	0
234.398	1.5	233.647	n/a	-1.0	2.318	columbia_card_task_fmri	n/a	n/a	-1.0	n/a	n/a	n/a	n/a	n/a	n/a	n/a	n/a	ITI	poldrack-single-stim	s613	False	0
235.969	2.593	238.562	4.498207238363489	draw_card	2.593	columbia_card_task_fmri	13.0	0.9	89.0	-95.0	0.1	10.0	1.0	1.0	0.3951015964817657	2.593	n/a	stim	poldrack-single-stim	s613	False	1
238.563	0.882	239.445	3.298207238363488	draw_card	0.882	columbia_card_task_fmri	13.0	0.8888888888888888	89.0	-95.0	0.1111111111111111	10.0	2.0	1.0	1.9325394150709057	0.882	2.0	stim	poldrack-single-stim	s613	False	0
240.202	1.5	239.451	n/a	-1.0	2.454	columbia_card_task_fmri	n/a	n/a	-1.0	n/a	n/a	n/a	n/a	n/a	n/a	n/a	n/a	ITI	poldrack-single-stim	s613	False	0
241.909	1.599	243.508	5.898207238363487	end_round	1.599	columbia_card_task_fmri	14.0	0.9	71.0	-90.0	0.1	10.0	1.0	1.0	-0.8017756951885495	1.599	0.0	stim	poldrack-single-stim	s613	False	1
244.26	1.5	243.509	n/a	-1.0	2.522	columbia_card_task_fmri	n/a	n/a	-1.0	n/a	n/a	n/a	n/a	n/a	n/a	n/a	n/a	ITI	poldrack-single-stim	s613	False	0
246.035	1.117	247.152	1.0982072383634884	draw_card	1.117	columbia_card_task_fmri	16.0	0.8	89.0	-70.0	0.2	10.0	1.0	2.0	2.390379521429466	1.117	n/a	stim	poldrack-single-stim	s613	False	1
247.154	2.763	249.917	-0.812903872747623	draw_card	2.763	columbia_card_task_fmri	16.0	0.7777777777777778	89.0	-70.0	0.2222222222222222	10.0	2.0	2.0	3.741097417590844	2.763	n/a	stim	poldrack-single-stim	s613	False	1
249.92	1.995	251.915	-3.2017927616365123	draw_card	1.995	columbia_card_task_fmri	16.0	0.75	89.0	-70.0	0.25	10.0	3.0	2.0	5.2236370685442	1.995	n/a	stim	poldrack-single-stim	s613	False	1
251.916	2.714	254.63	-6.2732213330650834	draw_card	2.714	columbia_card_task_fmri	16.0	0.7142857142857143	89.0	-70.0	0.2857142857142857	10.0	4.0	2.0	6.832450544730577	2.714	n/a	stim	poldrack-single-stim	s613	False	1
254.633	2.407	257.04	-10.368459428303176	end_round	2.407	columbia_card_task_fmri	16.0	0.6666666666666667	71.0	-70.0	0.3333333333333333	10.0	5.0	2.0	8.519573078643738	2.407	4.0	stim	poldrack-single-stim	s613	False	1
257.795	1.5	257.044	n/a	-1.0	2.318	columbia_card_task_fmri	n/a	n/a	-1.0	n/a	n/a	n/a	n/a	n/a	n/a	n/a	n/a	ITI	poldrack-single-stim	s613	False	0
259.366	4.434	263.8	0.3815405716968216	draw_card	4.434	columbia_card_task_fmri	7.0	0.9166666666666666	89.0	-100.0	0.0833333333333333	12.0	1.0	1.0	-2.423901830081416	4.434	n/a	stim	poldrack-single-stim	s613	False	1
263.804	3.134	266.938	-0.4290654889092407	draw_card	3.134	columbia_card_task_fmri	7.0	0.9090909090909092	89.0	-100.0	0.0909090909090909	12.0	2.0	1.0	-1.240233602034298	3.134	n/a	stim	poldrack-single-stim	s613	False	1
266.94	2.092	269.032	-1.4017927616365125	draw_card	2.092	columbia_card_task_fmri	7.0	0.9	89.0	-100.0	0.1	12.0	3.0	1.0	0.095860469718886	2.092	n/a	stim	poldrack-single-stim	s613	False	1
269.036	1.02	270.056	-2.5906816505254016	draw_card	1.02	columbia_card_task_fmri	7.0	0.8888888888888888	89.0	-100.0	0.1111111111111111	12.0	4.0	1.0	1.6189943943392748	1.02	n/a	stim	poldrack-single-stim	s613	False	1
270.058	1.331	271.389	-4.076792761636512	end_round	1.331	columbia_card_task_fmri	7.0	0.875	71.0	-100.0	0.125	12.0	5.0	1.0	3.3751691816406364	1.331	4.0	stim	poldrack-single-stim	s613	False	1
272.146	1.5	271.395	n/a	-1.0	2.522	columbia_card_task_fmri	n/a	n/a	-1.0	n/a	n/a	n/a	n/a	n/a	n/a	n/a	n/a	ITI	poldrack-single-stim	s613	False	0
273.921	2.37	276.291	0.6315405716968234	draw_card	2.37	columbia_card_task_fmri	14.0	0.8333333333333334	89.0	-80.0	0.1666666666666666	12.0	1.0	2.0	3.0207313055789413	2.37	n/a	stim	poldrack-single-stim	s613	False	1
276.294	4.944	281.238	-0.7927018525456058	draw_card	4.944	columbia_card_task_fmri	14.0	0.8181818181818181	89.0	-80.0	0.1818181818181818	12.0	2.0	2.0	4.241756572377874	4.944	n/a	stim	poldrack-single-stim	s613	False	1
281.239	3.312	284.551	-2.501792761636511	draw_card	3.312	columbia_card_task_fmri	14.0	0.8	89.0	-80.0	0.2	12.0	3.0	2.0	5.583865922859886	3.312	n/a	stim	poldrack-single-stim	s613	False	1
284.555	3.823	288.378	-4.590681650525402	draw_card	3.823	columbia_card_task_fmri	14.0	0.7777777777777778	89.0	-80.0	0.2222222222222222	12.0	4.0	2.0	7.060746673376464	3.823	n/a	stim	poldrack-single-stim	s613	False	1
288.379	5.739	294.118	-7.201792761636512	draw_card	5.739	columbia_card_task_fmri	14.0	0.75	89.0	-80.0	0.25	12.0	5.0	2.0	8.68171897801318	5.739	5.0	stim	poldrack-single-stim	s613	False	0
294.875	1.5	294.124	n/a	-1.0	2.998	columbia_card_task_fmri	n/a	n/a	-1.0	n/a	n/a	n/a	n/a	n/a	n/a	n/a	n/a	ITI	poldrack-single-stim	s613	False	0
297.126	3.585	300.711	2.298207238363488	draw_card	3.585	columbia_card_task_fmri	15.0	0.8333333333333334	89.0	-75.0	0.1666666666666666	12.0	1.0	2.0	1.53335851877857	3.585	n/a	stim	poldrack-single-stim	s613	False	1
300.714	0.913	301.627	0.9345708747271226	draw_card	0.913	columbia_card_task_fmri	15.0	0.8181818181818181	89.0	-75.0	0.1818181818181818	12.0	2.0	2.0	2.7022053654740006	0.913	n/a	stim	poldrack-single-stim	s613	False	1
301.629	2.371	304.0	-0.7017927616365123	draw_card	2.371	columbia_card_task_fmri	15.0	0.8	89.0	-75.0	0.2	12.0	3.0	2.0	3.986978416868858	2.371	n/a	stim	poldrack-single-stim	s613	False	1
304.003	3.275	307.278	-2.7017927616365105	draw_card	3.275	columbia_card_task_fmri	15.0	0.7777777777777778	89.0	-75.0	0.2222222222222222	12.0	4.0	2.0	5.40078314053391	3.275	n/a	stim	poldrack-single-stim	s613	False	1
307.282	4.964	312.246	-5.201792761636512	draw_card	4.964	columbia_card_task_fmri	15.0	0.75	89.0	-75.0	0.25	12.0	5.0	2.0	6.952544600300946	4.964	5.0	stim	poldrack-single-stim	s613	False	0
313.001	1.5	312.25	n/a	-1.0	2.318	columbia_card_task_fmri	n/a	n/a	-1.0	n/a	n/a	n/a	n/a	n/a	n/a	n/a	n/a	ITI	poldrack-single-stim	s613	False	0
314.571	1.523	316.094	1.2982072383634875	draw_card	1.523	columbia_card_task_fmri	15.0	0.8	89.0	-65.0	0.2	15.0	1.0	3.0	-0.0038834226756492	1.523	1.0	stim	poldrack-single-stim	s613	False	0
316.852	1.5	316.101	n/a	-1.0	2.25	columbia_card_task_fmri	n/a	n/a	-1.0	n/a	n/a	n/a	n/a	n/a	n/a	n/a	n/a	ITI	poldrack-single-stim	s613	False	0
318.355	2.604	320.959	0.5482072383634877	draw_card	2.604	columbia_card_task_fmri	14.0	0.8125	89.0	-70.0	0.1875	16.0	1.0	3.0	0.7803844392968671	2.604	n/a	stim	poldrack-single-stim	s613	False	1
320.962	1.948	322.91	-0.5017927616365112	draw_card	1.948	columbia_card_task_fmri	14.0	0.8	89.0	-70.0	0.2	16.0	2.0	3.0	1.592201130000113	1.948	2.0	stim	poldrack-single-stim	s613	False	0
323.666	1.5	322.915	n/a	-1.0	2.454	columbia_card_task_fmri	n/a	n/a	-1.0	n/a	n/a	n/a	n/a	n/a	n/a	n/a	n/a	ITI	poldrack-single-stim	s613	False	0
325.373	1.024	326.397	0.4857072383634877	draw_card	1.024	columbia_card_task_fmri	11.0	0.6875	89.0	-30.0	0.3125	16.0	1.0	5.0	-12.943836223635737	1.024	n/a	stim	poldrack-single-stim	s613	False	1
326.4	1.717	328.117	-0.3684594283031783	end_round	1.717	columbia_card_task_fmri	11.0	0.6666666666666667	71.0	-30.0	0.3333333333333333	16.0	2.0	5.0	-12.622561196778769	1.717	1.0	stim	poldrack-single-stim	s613	False	1
328.873	1.5	328.122	n/a	-1.0	2.318	columbia_card_task_fmri	n/a	n/a	-1.0	n/a	n/a	n/a	n/a	n/a	n/a	n/a	n/a	ITI	poldrack-single-stim	s613	False	0
330.443	2.207	332.65	5.298207238363488	end_round	2.207	columbia_card_task_fmri	15.0	0.8666666666666667	71.0	-75.0	0.1333333333333333	15.0	1.0	2.0	-1.4059892667936469	2.207	0.0	stim	poldrack-single-stim	s613	False	1
333.406	1.5	332.655	n/a	-1.0	2.318	columbia_card_task_fmri	n/a	n/a	-1.0	n/a	n/a	n/a	n/a	n/a	n/a	n/a	n/a	ITI	poldrack-single-stim	s613	False	0
334.977	1.356	336.333	7.031540571696822	draw_card	1.356	columbia_card_task_fmri	17.0	0.8666666666666667	89.0	-75.0	0.1333333333333333	15.0	1.0	2.0	-0.7279887810659389	1.356	n/a	stim	poldrack-single-stim	s613	False	1
336.337	1.372	337.709	6.155350095506347	draw_card	1.372	columbia_card_task_fmri	17.0	0.8571428571428572	89.0	-75.0	0.1428571428571428	15.0	2.0	2.0	0.1889167287065376	1.372	n/a	stim	poldrack-single-stim	s613	False	1
337.712	2.201	339.913	5.144361084517334	draw_card	2.201	columbia_card_task_fmri	17.0	0.8461538461538461	89.0	-75.0	0.1538461538461538	15.0	3.0	2.0	1.1868712855793788	2.201	n/a	stim	poldrack-single-stim	s613	False	1
339.916	1.931	341.847	3.964873905030156	draw_card	1.931	columbia_card_task_fmri	17.0	0.8333333333333334	89.0	-75.0	0.1666666666666666	15.0	4.0	2.0	2.277008738389505	1.931	n/a	stim	poldrack-single-stim	s613	False	1
341.85	0.781	342.631	2.5709345110907598	end_round	0.781	columbia_card_task_fmri	17.0	0.8181818181818181	71.0	-75.0	0.1818181818181818	15.0	5.0	2.0	3.4719460003691154	0.781	4.0	stim	poldrack-single-stim	s613	False	1
343.389	1.5	342.638	n/a	-1.0	2.59	columbia_card_task_fmri	n/a	n/a	-1.0	n/a	n/a	n/a	n/a	n/a	n/a	n/a	n/a	ITI	poldrack-single-stim	s613	False	0
345.232	1.351	346.583	2.610707238363488	draw_card	1.351	columbia_card_task_fmri	2.0	0.9375	89.0	-25.0	0.0625	16.0	1.0	1.0	-25.158346852431507	1.351	n/a	stim	poldrack-single-stim	s613	False	1
346.586	1.492	348.078	2.498207238363488	draw_card	1.492	columbia_card_task_fmri	2.0	0.9333333333333332	89.0	-25.0	0.0666666666666666	16.0	2.0	1.0	-24.97000255781192	1.492	n/a	stim	poldrack-single-stim	s613	False	1
348.081	1.877	349.958	2.36963580979206	draw_card	1.877	columbia_card_task_fmri	2.0	0.9285714285714286	89.0	-25.0	0.0714285714285714	16.0	3.0	1.0	-24.76279481842114	1.877	n/a	stim	poldrack-single-stim	s613	False	1
349.961	2.014	351.975	2.221284161440411	draw_card	2.014	columbia_card_task_fmri	2.0	0.9230769230769232	89.0	-25.0	0.0769230769230769	16.0	4.0	1.0	-24.53348603621358	2.014	n/a	stim	poldrack-single-stim	s613	False	1
351.978	1.094	353.072	2.048207238363488	end_round	1.094	columbia_card_task_fmri	2.0	0.9166666666666666	71.0	-25.0	0.0833333333333333	16.0	5.0	1.0	-24.27802344567324	1.094	4.0	stim	poldrack-single-stim	s613	False	1
353.826	1.5	353.075	n/a	-1.0	2.25	columbia_card_task_fmri	n/a	n/a	-1.0	n/a	n/a	n/a	n/a	n/a	n/a	n/a	n/a	ITI	poldrack-single-stim	s613	False	0
355.329	0.912	356.241	4.798207238363488	draw_card	0.912	columbia_card_task_fmri	9.0	0.9375	89.0	-95.0	0.0625	16.0	1.0	1.0	-6.807227277501191	0.912	n/a	stim	poldrack-single-stim	s613	False	1
356.244	0.726	356.97	4.364873905030155	draw_card	0.726	columbia_card_task_fmri	9.0	0.9333333333333332	89.0	-95.0	0.0666666666666666	16.0	2.0	1.0	-6.042547082240287	0.726	n/a	stim	poldrack-single-stim	s613	False	1
356.973	0.711	357.684	3.86963580979206	draw_card	0.711	columbia_card_task_fmri	9.0	0.9285714285714286	89.0	-95.0	0.0714285714285714	16.0	3.0	1.0	-5.20379160393653	0.711	n/a	stim	poldrack-single-stim	s613	False	1
357.688	0.76	358.448	3.298207238363488	draw_card	0.76	columbia_card_task_fmri	9.0	0.9230769230769232	89.0	-95.0	0.0769230769230769	16.0	4.0	1.0	-4.278360597372302	0.76	n/a	stim	poldrack-single-stim	s613	False	1
358.451	0.778	359.229	2.6315405716968217	draw_card	0.778	columbia_card_task_fmri	9.0	0.9166666666666666	89.0	-95.0	0.0833333333333333	16.0	5.0	1.0	-3.250494023183588	0.778	n/a	stim	poldrack-single-stim	s613	False	1
359.232	1.378	360.61	1.8436617838180327	draw_card	1.378	columbia_card_task_fmri	9.0	0.9090909090909092	89.0	-95.0	0.0909090909090909	16.0	6.0	1.0	-2.100207044018731	1.378	n/a	stim	poldrack-single-stim	s613	False	1
360.613	0.607	361.22	0.8982072383634874	draw_card	0.607	columbia_card_task_fmri	9.0	0.9	89.0	-95.0	0.1	16.0	7.0	1.0	-0.8017756951885495	0.607	n/a	stim	poldrack-single-stim	s613	False	1
361.223	1.428	362.651	-0.2573483171920676	end_round	1.428	columbia_card_task_fmri	9.0	0.8888888888888888	71.0	-95.0	0.1111111111111111	16.0	8.0	1.0	0.6784426447327405	1.428	7.0	stim	poldrack-single-stim	s613	False	1
363.405	1.5	362.654	n/a	-1.0	2.25	columbia_card_task_fmri	n/a	n/a	-1.0	n/a	n/a	n/a	n/a	n/a	n/a	n/a	n/a	ITI	poldrack-single-stim	s613	False	0
364.908	3.83	368.738	6.360707238363488	draw_card	3.83	columbia_card_task_fmri	11.0	0.9375	89.0	-100.0	0.0625	16.0	1.0	1.0	-5.119374044027115	3.83	n/a	stim	poldrack-single-stim	s613	False	1
368.741	1.929	370.67	5.898207238363488	draw_card	1.929	columbia_card_task_fmri	11.0	0.9333333333333332	89.0	-100.0	0.0666666666666666	16.0	2.0	1.0	-4.3028248024780495	1.929	n/a	stim	poldrack-single-stim	s613	False	1
370.673	1.473	372.146	5.369635809792061	draw_card	1.473	columbia_card_task_fmri	11.0	0.9285714285714286	89.0	-100.0	0.0714285714285714	16.0	3.0	1.0	-3.407201874985624	1.473	n/a	stim	poldrack-single-stim	s613	False	1
372.149	0.845	372.994	4.75974569990195	draw_card	0.845	columbia_card_task_fmri	11.0	0.9230769230769232	89.0	-100.0	0.0769230769230769	16.0	4.0	1.0	-2.419055746757241	0.845	n/a	stim	poldrack-single-stim	s613	False	1
372.997	2.023	375.02	4.048207238363488	draw_card	2.023	columbia_card_task_fmri	11.0	0.9166666666666666	89.0	-100.0	0.0833333333333333	16.0	5.0	1.0	-1.32156424802956	2.023	n/a	stim	poldrack-single-stim	s613	False	1
375.023	2.05	377.073	3.207298147454396	end_round	2.05	columbia_card_task_fmri	11.0	0.9090909090909092	71.0	-100.0	0.0909090909090909	16.0	6.0	1.0	-0.0933958320992545	2.05	5.0	stim	poldrack-single-stim	s613	False	1
377.826	1.5	377.075	n/a	-1.0	2.522	columbia_card_task_fmri	n/a	n/a	-1.0	n/a	n/a	n/a	n/a	n/a	n/a	n/a	n/a	ITI	poldrack-single-stim	s613	False	0
379.601	1.892	381.493	6.923207238363488	draw_card	1.892	columbia_card_task_fmri	16.0	0.875	89.0	-75.0	0.125	16.0	1.0	2.0	-1.9032609485125072	1.892	n/a	stim	poldrack-single-stim	s613	False	1
381.496	2.202	383.698	6.164873905030155	draw_card	2.202	columbia_card_task_fmri	16.0	0.8666666666666667	89.0	-75.0	0.1333333333333333	16.0	2.0	2.0	-1.0669992496711451	2.202	2.0	stim	poldrack-single-stim	s613	False	0
384.453	1.5	383.702	n/a	-1.0	2.454	columbia_card_task_fmri	n/a	n/a	-1.0	n/a	n/a	n/a	n/a	n/a	n/a	n/a	n/a	ITI	poldrack-single-stim	s613	False	0
386.16	2.81	388.97	7.173207238363488	draw_card	2.81	columbia_card_task_fmri	17.0	0.875	89.0	-80.0	0.125	16.0	1.0	2.0	0.0756468889818009	2.81	n/a	stim	poldrack-single-stim	s613	False	1
388.975	1.941	390.916	6.364873905030156	draw_card	1.941	columbia_card_task_fmri	17.0	0.8666666666666667	89.0	-80.0	0.1333333333333333	16.0	2.0	2.0	0.9673483082937366	1.941	n/a	stim	poldrack-single-stim	s613	False	1
390.919	0.645	391.564	5.441064381220634	draw_card	0.645	columbia_card_task_fmri	17.0	0.8571428571428572	89.0	-80.0	0.1428571428571428	16.0	3.0	2.0	1.934339090278307	0.645	n/a	stim	poldrack-single-stim	s613	False	1
391.566	0.588	392.154	4.375130315286564	draw_card	0.588	columbia_card_task_fmri	17.0	0.8461538461538461	89.0	-80.0	0.1538461538461538	16.0	4.0	2.0	2.9867902812354927	0.588	n/a	stim	poldrack-single-stim	s613	False	1
392.158	0.637	392.795	3.1315405716968234	draw_card	0.637	columbia_card_task_fmri	17.0	0.8333333333333334	89.0	-80.0	0.1666666666666666	16.0	5.0	2.0	4.136441059789775	0.637	5.0	stim	poldrack-single-stim	s613	False	0
393.549	1.5	392.798	n/a	-1.0	2.25	columbia_card_task_fmri	n/a	n/a	-1.0	n/a	n/a	n/a	n/a	n/a	n/a	n/a	n/a	ITI	poldrack-single-stim	s613	False	0
406.062	8.366	414.428	1.4648739050301556	draw_card	8.366	columbia_card_task_fmri	13.0	0.8333333333333334	89.0	-70.0	0.1666666666666666	6.0	1.0	1.0	-1.0687723896938763	8.366	n/a	stim	poldrack-single-stim	s613	False	1
414.431	3.899	418.33	-1.301792761636512	draw_card	3.899	columbia_card_task_fmri	13.0	0.8	89.0	-70.0	0.2	6.0	2.0	1.0	1.1931447389547216	3.899	n/a	stim	poldrack-single-stim	s613	False	1
418.333	1.607	419.94	-5.451792761636512	draw_card	1.607	columbia_card_task_fmri	13.0	0.75	89.0	-70.0	0.25	6.0	3.0	1.0	3.927154656642813	1.607	n/a	stim	poldrack-single-stim	s613	False	1
419.944	0.824	420.768	-12.368459428303176	end_round	0.824	columbia_card_task_fmri	13.0	0.6666666666666667	71.0	-70.0	0.3333333333333333	6.0	4.0	1.0	7.107708153665122	0.824	3.0	stim	poldrack-single-stim	s613	False	1
421.524	1.5	420.773	n/a	-1.0	2.454	columbia_card_task_fmri	n/a	n/a	-1.0	n/a	n/a	n/a	n/a	n/a	n/a	n/a	n/a	ITI	poldrack-single-stim	s613	False	0
423.231	1.737	424.968	1.4648739050301556	draw_card	1.737	columbia_card_task_fmri	15.0	0.8333333333333334	89.0	-80.0	0.1666666666666666	6.0	1.0	1.0	3.3926182977417767	1.737	n/a	stim	poldrack-single-stim	s613	False	1
424.971	1.419	426.39	-1.7017927616365125	draw_card	1.419	columbia_card_task_fmri	15.0	0.8	89.0	-80.0	0.2	6.0	2.0	1.0	5.9831286387926	1.419	n/a	stim	poldrack-single-stim	s613	False	1
426.392	1.602	427.994	-6.451792761636512	draw_card	1.602	columbia_card_task_fmri	15.0	0.75	89.0	-80.0	0.25	6.0	3.0	1.0	9.114050329913283	1.602	3.0	stim	poldrack-single-stim	s613	False	0
428.75	1.5	427.999	n/a	-1.0	2.454	columbia_card_task_fmri	n/a	n/a	-1.0	n/a	n/a	n/a	n/a	n/a	n/a	n/a	n/a	ITI	poldrack-single-stim	s613	False	0
430.457	0.544	431.001	3.1315405716968217	draw_card	0.544	columbia_card_task_fmri	16.0	0.8333333333333334	89.0	-75.0	0.1666666666666666	6.0	1.0	1.0	1.905174288353216	0.544	n/a	stim	poldrack-single-stim	s613	False	1
431.004	1.315	432.319	0.0982072383634884	draw_card	1.315	columbia_card_task_fmri	16.0	0.8	89.0	-75.0	0.2	6.0	2.0	1.0	4.386174716831221	1.315	n/a	stim	poldrack-single-stim	s613	False	1
432.322	1.986	434.308	-4.451792761636512	draw_card	1.986	columbia_card_task_fmri	16.0	0.75	89.0	-75.0	0.25	6.0	3.0	1.0	7.384814547767313	1.986	n/a	stim	poldrack-single-stim	s613	False	1
434.31	0.836	435.146	-12.035126094969844	end_round	0.836	columbia_card_task_fmri	16.0	0.6666666666666667	71.0	-75.0	0.3333333333333333	6.0	4.0	1.0	10.873024632883803	0.836	3.0	stim	poldrack-single-stim	s613	False	1
435.901	1.5	435.15	n/a	-1.0	2.522	columbia_card_task_fmri	n/a	n/a	-1.0	n/a	n/a	n/a	n/a	n/a	n/a	n/a	n/a	ITI	poldrack-single-stim	s613	False	0
437.676	1.025	438.701	4.298207238363488	draw_card	1.025	columbia_card_task_fmri	21.0	0.75	89.0	-55.0	0.25	8.0	1.0	2.0	0.902811004630074	1.025	n/a	stim	poldrack-single-stim	s613	False	1
438.704	3.019	441.723	1.5839215240777742	draw_card	3.019	columbia_card_task_fmri	21.0	0.7142857142857143	89.0	-55.0	0.2857142857142857	8.0	2.0	2.0	2.323828474856292	3.019	n/a	stim	poldrack-single-stim	s613	False	1
441.725	2.042	443.767	-2.035126094969842	draw_card	2.042	columbia_card_task_fmri	21.0	0.6666666666666667	89.0	-55.0	0.3333333333333333	8.0	3.0	2.0	3.814075665580909	2.042	n/a	stim	poldrack-single-stim	s613	False	1
443.771	2.286	446.057	-7.101792761636513	end_round	2.286	columbia_card_task_fmri	21.0	0.6	71.0	-55.0	0.4	8.0	4.0	2.0	5.216801802977436	2.286	3.0	stim	poldrack-single-stim	s613	False	1
446.811	1.5	446.06	n/a	-1.0	2.454	columbia_card_task_fmri	n/a	n/a	-1.0	n/a	n/a	n/a	n/a	n/a	n/a	n/a	n/a	ITI	poldrack-single-stim	s613	False	0
448.518	4.154	452.672	5.548207238363488	draw_card	4.154	columbia_card_task_fmri	26.0	0.75	89.0	-65.0	0.25	8.0	1.0	2.0	7.384814547767313	4.154	n/a	stim	poldrack-single-stim	s613	False	1
452.675	2.178	454.853	2.2982072383634917	draw_card	2.178	columbia_card_task_fmri	26.0	0.7142857142857143	89.0	-65.0	0.2857142857142857	8.0	2.0	2.0	9.087494670377971	2.178	2.0	stim	poldrack-single-stim	s613	False	0
455.609	1.5	454.858	n/a	-1.0	2.658	columbia_card_task_fmri	n/a	n/a	-1.0	n/a	n/a	n/a	n/a	n/a	n/a	n/a	n/a	ITI	poldrack-single-stim	s613	False	0
457.522	1.154	458.676	0.6315405716968217	draw_card	1.154	columbia_card_task_fmri	15.0	0.7777777777777778	89.0	-60.0	0.2222222222222222	9.0	1.0	2.0	-0.8212446924449459	1.154	n/a	stim	poldrack-single-stim	s613	False	1
458.679	1.633	460.312	-1.4517927616365125	draw_card	1.633	columbia_card_task_fmri	15.0	0.75	89.0	-60.0	0.25	9.0	2.0	2.0	0.4708643260930927	1.633	2.0	stim	poldrack-single-stim	s613	False	0
461.066	1.5	460.315	n/a	-1.0	2.386	columbia_card_task_fmri	n/a	n/a	-1.0	n/a	n/a	n/a	n/a	n/a	n/a	n/a	n/a	ITI	poldrack-single-stim	s613	False	0
462.705	1.085	463.79	4.998207238363489	draw_card	1.085	columbia_card_task_fmri	13.0	0.9	89.0	-90.0	0.1	10.0	1.0	1.0	-1.100957274695432	1.085	n/a	stim	poldrack-single-stim	s613	False	1
463.792	0.661	464.453	3.853762793919043	draw_card	0.661	columbia_card_task_fmri	13.0	0.8888888888888888	89.0	-90.0	0.1111111111111111	10.0	2.0	1.0	0.3649545072223361	0.661	n/a	stim	poldrack-single-stim	s613	False	1
464.457	0.578	465.035	2.423207238363488	draw_card	0.578	columbia_card_task_fmri	13.0	0.875	89.0	-90.0	0.125	10.0	3.0	1.0	2.0551822318807	0.578	3.0	stim	poldrack-single-stim	s613	False	0
465.792	1.5	465.041	n/a	-1.0	2.522	columbia_card_task_fmri	n/a	n/a	-1.0	n/a	n/a	n/a	n/a	n/a	n/a	n/a	n/a	ITI	poldrack-single-stim	s613	False	0
467.568	1.823	469.391	6.298207238363488	draw_card	1.823	columbia_card_task_fmri	15.0	0.9	89.0	-95.0	0.1	10.0	1.0	1.0	0.9936250908753052	1.823	n/a	stim	poldrack-single-stim	s613	False	1
469.394	1.299	470.693	5.0759850161412645	draw_card	1.299	columbia_card_task_fmri	15.0	0.8888888888888888	89.0	-95.0	0.1111111111111111	10.0	2.0	1.0	2.559668850924176	1.299	n/a	stim	poldrack-single-stim	s613	False	1
470.698	0.855	471.553	3.548207238363488	draw_card	0.855	columbia_card_task_fmri	15.0	0.875	89.0	-95.0	0.125	10.0	3.0	1.0	4.365296839742392	0.855	n/a	stim	poldrack-single-stim	s613	False	1
471.556	1.106	472.662	1.5839215240777742	draw_card	1.106	columbia_card_task_fmri	15.0	0.8571428571428572	89.0	-95.0	0.1428571428571428	10.0	4.0	1.0	6.47422444283098	1.106	n/a	stim	poldrack-single-stim	s613	False	1
472.666	1.304	473.97	-1.0351260949698444	draw_card	1.304	columbia_card_task_fmri	15.0	0.8333333333333334	89.0	-95.0	0.1666666666666666	10.0	5.0	1.0	8.972644509070662	1.304	5.0	stim	poldrack-single-stim	s613	False	0
474.728	1.5	473.977	n/a	-1.0	2.59	columbia_card_task_fmri	n/a	n/a	-1.0	n/a	n/a	n/a	n/a	n/a	n/a	n/a	n/a	ITI	poldrack-single-stim	s613	False	0
476.572	0.918	477.49	2.0982072383634884	draw_card	0.918	columbia_card_task_fmri	16.0	0.8	89.0	-65.0	0.2	10.0	1.0	2.0	0.3951015964817657	0.918	1.0	stim	poldrack-single-stim	s613	False	0
478.245	1.5	477.494	n/a	-1.0	2.386	columbia_card_task_fmri	n/a	n/a	-1.0	n/a	n/a	n/a	n/a	n/a	n/a	n/a	n/a	ITI	poldrack-single-stim	s613	False	0
479.884	1.848	481.732	0.7982072383634877	draw_card	1.848	columbia_card_task_fmri	7.0	0.9166666666666666	89.0	-95.0	0.0833333333333333	12.0	1.0	1.0	-3.8014721003071408	1.848	n/a	stim	poldrack-single-stim	s613	False	1
481.736	1.591	483.327	0.0254799656362143	draw_card	1.591	columbia_card_task_fmri	7.0	0.9090909090909092	89.0	-95.0	0.0909090909090909	12.0	2.0	1.0	-2.6734424475109826	1.591	n/a	stim	poldrack-single-stim	s613	False	1
483.33	2.21	485.54	-0.9017927616365125	draw_card	2.21	columbia_card_task_fmri	7.0	0.9	89.0	-95.0	0.1	12.0	3.0	1.0	-1.4001228736344655	2.21	n/a	stim	poldrack-single-stim	s613	False	1
485.544	1.827	487.371	-2.035126094969846	draw_card	1.827	columbia_card_task_fmri	7.0	0.8888888888888888	89.0	-95.0	0.1111111111111111	12.0	4.0	1.0	0.0514816358491216	1.827	n/a	stim	poldrack-single-stim	s613	False	1
487.373	2.094	489.467	-3.4517927616365123	draw_card	2.094	columbia_card_task_fmri	7.0	0.875	89.0	-95.0	0.125	12.0	5.0	1.0	1.725220774831115	2.094	n/a	stim	poldrack-single-stim	s613	False	1
489.472	2.718	492.19	-5.2732213330650834	draw_card	2.718	columbia_card_task_fmri	7.0	0.8571428571428572	89.0	-95.0	0.1428571428571428	12.0	6.0	1.0	3.680173160107216	2.718	n/a	stim	poldrack-single-stim	s613	False	1
492.193	0.626	492.819	-7.7017927616365105	end_round	0.626	columbia_card_task_fmri	7.0	0.8333333333333334	71.0	-95.0	0.1666666666666666	12.0	7.0	1.0	5.996260270549996	0.626	6.0	stim	poldrack-single-stim	s613	False	1
493.577	1.5	492.826	n/a	-1.0	2.59	columbia_card_task_fmri	n/a	n/a	-1.0	n/a	n/a	n/a	n/a	n/a	n/a	n/a	n/a	ITI	poldrack-single-stim	s613	False	0
495.42	2.901	498.321	1.4648739050301556	draw_card	2.901	columbia_card_task_fmri	14.0	0.8333333333333334	89.0	-75.0	0.1666666666666666	12.0	1.0	2.0	1.1615620563845963	2.901	n/a	stim	poldrack-single-stim	s613	False	1
498.325	7.219	505.544	0.1163890565453042	draw_card	7.219	columbia_card_task_fmri	14.0	0.8181818181818181	89.0	-75.0	0.1818181818181818	12.0	2.0	2.0	2.3173627414220235	7.219	n/a	stim	poldrack-single-stim	s613	False	1
505.547	1.54	507.087	-1.5017927616365112	draw_card	1.54	columbia_card_task_fmri	14.0	0.8	89.0	-75.0	0.2	12.0	3.0	2.0	3.5878001219625872	1.54	n/a	stim	poldrack-single-stim	s613	False	1
507.091	1.785	508.876	-3.4795705394142877	draw_card	1.785	columbia_card_task_fmri	14.0	0.7777777777777778	89.0	-75.0	0.2222222222222222	12.0	4.0	2.0	4.985834207517868	1.785	n/a	stim	poldrack-single-stim	s613	False	1
508.879	1.845	510.724	-5.951792761636512	draw_card	1.845	columbia_card_task_fmri	14.0	0.75	89.0	-75.0	0.25	12.0	5.0	2.0	6.520291300058673	1.845	n/a	stim	poldrack-single-stim	s613	False	1
510.727	1.892	512.619	-9.130364190207938	end_round	1.892	columbia_card_task_fmri	14.0	0.7142857142857143	71.0	-75.0	0.2857142857142857	12.0	6.0	2.0	8.185426910138943	1.892	5.0	stim	poldrack-single-stim	s613	False	1
513.374	1.5	512.623	n/a	-1.0	2.318	columbia_card_task_fmri	n/a	n/a	-1.0	n/a	n/a	n/a	n/a	n/a	n/a	n/a	n/a	ITI	poldrack-single-stim	s613	False	0
514.945	5.152	520.097	3.1315405716968217	draw_card	5.152	columbia_card_task_fmri	15.0	0.8333333333333334	89.0	-70.0	0.1666666666666666	12.0	1.0	2.0	-0.3254171611903054	5.152	n/a	stim	poldrack-single-stim	s613	False	1
520.099	2.94	523.039	1.843661783818031	draw_card	2.94	columbia_card_task_fmri	15.0	0.8181818181818181	89.0	-70.0	0.1818181818181818	12.0	2.0	2.0	0.7781920009846246	2.94	n/a	stim	poldrack-single-stim	s613	False	1
523.043	5.222	528.265	0.2982072383634877	draw_card	5.222	columbia_card_task_fmri	15.0	0.8	89.0	-70.0	0.2	12.0	3.0	2.0	1.991279646939233	5.222	n/a	stim	poldrack-single-stim	s613	False	1
528.268	3.631	531.899	-1.5906816505254016	draw_card	3.631	columbia_card_task_fmri	15.0	0.7777777777777778	89.0	-70.0	0.2222222222222222	12.0	4.0	2.0	3.326223972199152	3.631	n/a	stim	poldrack-single-stim	s613	False	1
531.902	1.142	533.044	-3.951792761636512	draw_card	1.142	columbia_card_task_fmri	15.0	0.75	89.0	-70.0	0.25	12.0	5.0	2.0	4.791456278566677	1.142	n/a	stim	poldrack-single-stim	s613	False	1
533.048	1.533	534.581	-6.987507047350797	draw_card	1.533	columbia_card_task_fmri	15.0	0.7142857142857143	89.0	-70.0	0.2857142857142857	12.0	6.0	2.0	6.381494179537938	1.533	6.0	stim	poldrack-single-stim	s613	False	0
535.335	1.5	534.584	n/a	-1.0	2.25	columbia_card_task_fmri	n/a	n/a	-1.0	n/a	n/a	n/a	n/a	n/a	n/a	n/a	n/a	ITI	poldrack-single-stim	s613	False	0
536.838	0.928	537.766	1.0982072383634884	draw_card	0.928	columbia_card_task_fmri	16.0	0.8	89.0	-70.0	0.2	15.0	1.0	3.0	2.390379521429466	0.928	n/a	stim	poldrack-single-stim	s613	False	1
537.771	1.04	538.811	-0.1303641902079411	draw_card	1.04	columbia_card_task_fmri	16.0	0.7857142857142857	89.0	-70.0	0.2142857142857142	15.0	2.0	3.0	3.27648157062724	1.04	n/a	stim	poldrack-single-stim	s613	False	1
538.814	0.867	539.681	-1.547946607790359	draw_card	0.867	columbia_card_task_fmri	16.0	0.7692307692307692	89.0	-70.0	0.2307692307692307	15.0	3.0	3.0	4.220460001676756	0.867	n/a	stim	poldrack-single-stim	s613	False	1
539.686	0.405	540.091	-3.2017927616365123	end_round	0.405	columbia_card_task_fmri	16.0	0.75	71.0	-70.0	0.25	15.0	4.0	3.0	5.2236370685442	0.405	3.0	stim	poldrack-single-stim	s613	False	1
540.847	1.5	540.096	n/a	-1.0	2.454	columbia_card_task_fmri	n/a	n/a	-1.0	n/a	n/a	n/a	n/a	n/a	n/a	n/a	n/a	ITI	poldrack-single-stim	s613	False	0
542.556	2.013	544.569	1.4857072383634875	draw_card	2.013	columbia_card_task_fmri	14.0	0.8125	89.0	-65.0	0.1875	16.0	1.0	3.0	-1.1660993510722015	2.013	1.0	stim	poldrack-single-stim	s613	False	0
545.323	1.5	544.572	n/a	-1.0	3.27	columbia_card_task_fmri	n/a	n/a	-1.0	n/a	n/a	n/a	n/a	n/a	n/a	n/a	n/a	ITI	poldrack-single-stim	s613	False	0
547.847	3.509	551.356	1.2357072383634875	draw_card	3.509	columbia_card_task_fmri	16.0	0.8125	89.0	-75.0	0.1875	16.0	1.0	3.0	3.506396077015601	3.509	n/a	stim	poldrack-single-stim	s613	False	1
551.36	1.946	553.306	0.0982072383634884	draw_card	1.946	columbia_card_task_fmri	16.0	0.8	89.0	-75.0	0.2	16.0	2.0	3.0	4.386174716831221	1.946	n/a	stim	poldrack-single-stim	s613	False	1
553.31	2.295	555.605	-1.2017927616365105	draw_card	2.295	columbia_card_task_fmri	16.0	0.7857142857142857	89.0	-75.0	0.2142857142857142	16.0	3.0	3.0	5.324011454337466	2.295	n/a	stim	poldrack-single-stim	s613	False	1
555.609	1.835	557.444	-2.701792761636516	draw_card	1.835	columbia_card_task_fmri	16.0	0.7692307692307692	89.0	-75.0	0.2307692307692307	16.0	4.0	3.0	6.323091998216107	1.835	n/a	stim	poldrack-single-stim	s613	False	1
557.448	2.256	559.704	-4.451792761636512	draw_card	2.256	columbia_card_task_fmri	16.0	0.75	89.0	-75.0	0.25	16.0	5.0	3.0	7.384814547767313	2.256	n/a	stim	poldrack-single-stim	s613	False	1
559.708	4.845	564.553	-6.519974579818329	draw_card	4.845	columbia_card_task_fmri	16.0	0.7272727272727273	89.0	-75.0	0.2727272727272727	16.0	6.0	3.0	8.506726121970061	4.845	n/a	stim	poldrack-single-stim	s613	False	1
564.557	1.389	565.946	-9.001792761636512	end_round	1.389	columbia_card_task_fmri	16.0	0.7	71.0	-75.0	0.3	16.0	7.0	3.0	9.678414316947864	1.389	6.0	stim	poldrack-single-stim	s613	False	1
566.7	1.5	565.949	n/a	-1.0	2.25	columbia_card_task_fmri	n/a	n/a	-1.0	n/a	n/a	n/a	n/a	n/a	n/a	n/a	n/a	ITI	poldrack-single-stim	s613	False	0
568.204	2.79	570.994	5.498207238363489	draw_card	2.79	columbia_card_task_fmri	16.0	0.8666666666666667	89.0	-80.0	0.1333333333333333	15.0	1.0	2.0	0.6282448916765304	2.79	n/a	stim	poldrack-single-stim	s613	False	1
570.998	2.548	573.546	4.583921524077776	draw_card	2.548	columbia_card_task_fmri	16.0	0.8571428571428572	89.0	-80.0	0.1428571428571428	15.0	2.0	2.0	1.5852196322906875	2.548	n/a	stim	poldrack-single-stim	s613	False	1
573.55	1.874	575.424	3.5289764691327177	draw_card	1.874	columbia_card_task_fmri	16.0	0.8461538461538461	89.0	-80.0	0.1538461538461538	15.0	3.0	2.0	2.626772536461047	1.874	n/a	stim	poldrack-single-stim	s613	False	1
575.427	9.436	584.863	2.298207238363489	end_round	9.436	columbia_card_task_fmri	16.0	0.8333333333333334	71.0	-80.0	0.1666666666666666	15.0	4.0	2.0	3.764521717812748	9.436	3.0	stim	poldrack-single-stim	s613	False	1
585.618	1.5	584.867	n/a	-1.0	2.25	columbia_card_task_fmri	n/a	n/a	-1.0	n/a	n/a	n/a	n/a	n/a	n/a	n/a	n/a	ITI	poldrack-single-stim	s613	False	0
587.122	2.586	589.708	6.364873905030156	draw_card	2.586	columbia_card_task_fmri	17.0	0.8666666666666667	89.0	-80.0	0.1333333333333333	15.0	1.0	2.0	0.9673483082937366	2.586	n/a	stim	poldrack-single-stim	s613	False	1
589.712	1.131	590.843	5.441064381220634	end_round	1.131	columbia_card_task_fmri	17.0	0.8571428571428572	71.0	-80.0	0.1428571428571428	15.0	2.0	2.0	1.934339090278307	1.131	1.0	stim	poldrack-single-stim	s613	False	1
591.597	1.5	590.846	n/a	-1.0	2.318	columbia_card_task_fmri	n/a	n/a	-1.0	n/a	n/a	n/a	n/a	n/a	n/a	n/a	n/a	ITI	poldrack-single-stim	s613	False	0
593.168	6.591	599.759	2.298207238363488	draw_card	6.591	columbia_card_task_fmri	1.0	0.9375	89.0	-15.0	0.0625	16.0	1.0	1.0	-27.58277760441786	6.591	n/a	stim	poldrack-single-stim	s613	False	1
599.763	2.093	601.856	2.2315405716968213	draw_card	2.093	columbia_card_task_fmri	1.0	0.9333333333333332	89.0	-15.0	0.0666666666666666	16.0	2.0	1.0	-27.48080307859324	2.093	n/a	stim	poldrack-single-stim	s613	False	1
601.86	1.516	603.376	2.155350095506345	draw_card	1.516	columbia_card_task_fmri	1.0	0.9285714285714286	89.0	-15.0	0.0714285714285714	16.0	3.0	1.0	-27.36811138821468	1.516	n/a	stim	poldrack-single-stim	s613	False	1
603.379	6.184	609.563	2.067438007594257	draw_card	6.184	columbia_card_task_fmri	1.0	0.9230769230769232	89.0	-15.0	0.0769230769230769	16.0	4.0	1.0	-27.242827531920923	6.184	n/a	stim	poldrack-single-stim	s613	False	1
609.567	1.975	611.542	1.9648739050301545	draw_card	1.975	columbia_card_task_fmri	1.0	0.9166666666666666	89.0	-15.0	0.0833333333333333	16.0	5.0	1.0	-27.10260007052745	1.975	n/a	stim	poldrack-single-stim	s613	False	1
611.545	10.222	621.767	1.8436617838180327	draw_card	10.222	columbia_card_task_fmri	1.0	0.9090909090909092	89.0	-15.0	0.0909090909090909	16.0	6.0	1.0	-26.944439176253766	10.222	n/a	stim	poldrack-single-stim	s613	False	1
621.771	2.47	624.241	1.6982072383634876	draw_card	2.47	columbia_card_task_fmri	1.0	0.9	89.0	-15.0	0.1	16.0	7.0	1.0	-26.764485813330005	2.47	n/a	stim	poldrack-single-stim	s613	False	1
624.245	1.225	625.47	1.52042946058571	end_round	1.225	columbia_card_task_fmri	1.0	0.8888888888888888	71.0	-15.0	0.1111111111111111	16.0	8.0	1.0	-26.557678571370385	1.225	7.0	stim	poldrack-single-stim	s613	False	1
626.224	1.5	625.473	n/a	-1.0	2.726	columbia_card_task_fmri	n/a	n/a	-1.0	n/a	n/a	n/a	n/a	n/a	n/a	n/a	n/a	ITI	poldrack-single-stim	s613	False	0
628.205	6.318	634.523	5.423207238363488	draw_card	6.318	columbia_card_task_fmri	10.0	0.9375	89.0	-100.0	0.0625	16.0	1.0	1.0	-5.360546894742416	6.318	n/a	stim	poldrack-single-stim	s613	False	1
634.527	2.096	636.623	4.964873905030155	draw_card	2.096	columbia_card_task_fmri	10.0	0.9333333333333332	89.0	-100.0	0.0666666666666666	16.0	2.0	1.0	-4.551406041815749	2.096	n/a	stim	poldrack-single-stim	s613	False	1
636.626	1.242	637.868	4.441064381220632	draw_card	1.242	columbia_card_task_fmri	10.0	0.9285714285714286	89.0	-100.0	0.0714285714285714	16.0	3.0	1.0	-3.6639055121340753	1.242	3.0	stim	poldrack-single-stim	s613	False	0
638.623	1.5	637.872	n/a	-1.0	2.386	columbia_card_task_fmri	n/a	n/a	-1.0	n/a	n/a	n/a	n/a	n/a	n/a	n/a	n/a	ITI	poldrack-single-stim	s613	False	0
640.263	4.566	644.829	6.048207238363488	draw_card	4.566	columbia_card_task_fmri	15.0	0.875	89.0	-75.0	0.125	16.0	1.0	2.0	-2.233009151274203	4.566	n/a	stim	poldrack-single-stim	s613	False	1
644.833	3.897	648.73	5.298207238363488	draw_card	3.897	columbia_card_task_fmri	15.0	0.8666666666666667	89.0	-75.0	0.1333333333333333	16.0	2.0	2.0	-1.4059892667936469	3.897	n/a	stim	poldrack-single-stim	s613	False	1
648.734	2.858	651.592	4.441064381220632	draw_card	2.858	columbia_card_task_fmri	15.0	0.8571428571428572	89.0	-75.0	0.1428571428571428	16.0	3.0	2.0	-0.5091216443008832	2.858	n/a	stim	poldrack-single-stim	s613	False	1
651.596	2.652	654.248	3.452053392209641	draw_card	2.652	columbia_card_task_fmri	15.0	0.8461538461538461	89.0	-75.0	0.1538461538461538	16.0	4.0	2.0	0.4670303797772916	2.652	n/a	stim	poldrack-single-stim	s613	False	1
654.252	7.899	662.151	2.298207238363488	draw_card	7.899	columbia_card_task_fmri	15.0	0.8333333333333334	89.0	-75.0	0.1666666666666666	16.0	5.0	2.0	1.53335851877857	7.899	n/a	stim	poldrack-single-stim	s613	False	1
662.155	2.263	664.418	0.9345708747271226	end_round	2.263	columbia_card_task_fmri	15.0	0.8181818181818181	71.0	-75.0	0.1818181818181818	16.0	6.0	2.0	2.7022053654740006	2.263	5.0	stim	poldrack-single-stim	s613	False	1
665.177	1.5	664.426	n/a	-1.0	2.318	columbia_card_task_fmri	n/a	n/a	-1.0	n/a	n/a	n/a	n/a	n/a	n/a	n/a	n/a	ITI	poldrack-single-stim	s613	False	0
666.749	3.804	670.553	6.298207238363488	draw_card	3.804	columbia_card_task_fmri	16.0	0.875	89.0	-80.0	0.125	16.0	1.0	2.0	-0.2542178217041062	3.804	n/a	stim	poldrack-single-stim	s613	False	1
670.557	1.319	671.876	5.498207238363489	draw_card	1.319	columbia_card_task_fmri	16.0	0.8666666666666667	89.0	-80.0	0.1333333333333333	16.0	2.0	2.0	0.6282448916765304	1.319	n/a	stim	poldrack-single-stim	s613	False	1
671.88	0.515	672.395	4.583921524077776	draw_card	0.515	columbia_card_task_fmri	16.0	0.8571428571428572	89.0	-80.0	0.1428571428571428	16.0	3.0	2.0	1.5852196322906875	0.515	n/a	stim	poldrack-single-stim	s613	False	1
672.401	0.369	672.77	3.5289764691327177	draw_card	0.369	columbia_card_task_fmri	16.0	0.8461538461538461	89.0	-80.0	0.1538461538461538	16.0	4.0	2.0	2.626772536461047	0.369	n/a	stim	poldrack-single-stim	s613	False	1
672.774	0.353	673.127	2.298207238363489	draw_card	0.353	columbia_card_task_fmri	16.0	0.8333333333333334	89.0	-80.0	0.1666666666666666	16.0	5.0	2.0	3.764521717812748	0.353	5.0	stim	poldrack-single-stim	s613	False	0
673.885	1.5	673.134	n/a	-1.0	2.25	columbia_card_task_fmri	n/a	n/a	-1.0	n/a	n/a	n/a	n/a	n/a	n/a	n/a	n/a	ITI	poldrack-single-stim	s613	False	0
675.389	0.644	676.033	3.485707238363488	draw_card	0.644	columbia_card_task_fmri	4.0	0.6875	89.0	-5.0	0.3125	16.0	1.0	5.0	-27.32352189594904	0.644	n/a	stim	poldrack-single-stim	s613	False	1
676.037	1.081	677.118	3.298207238363488	draw_card	1.081	columbia_card_task_fmri	4.0	0.6666666666666667	89.0	-5.0	0.3333333333333333	16.0	2.0	5.0	-27.2611874697496	1.081	n/a	stim	poldrack-single-stim	s613	False	1
677.122	1.992	679.114	3.0839215240777733	end_round	1.992	columbia_card_task_fmri	4.0	0.6428571428571428	71.0	-5.0	0.3571428571428571	16.0	3.0	5.0	-27.1997215319463	1.992	2.0	stim	poldrack-single-stim	s613	False	1
679.869	1.5	679.118	n/a	-1.0	2.25	columbia_card_task_fmri	n/a	n/a	-1.0	n/a	n/a	n/a	n/a	n/a	n/a	n/a	n/a	ITI	poldrack-single-stim	s613	False	0
