duration	onset	block_duration	movement_onset	planning	condition	exp_stage	experiment_exp_id	key_press	problem_id	response_time	trial_id	trial_type	worker_id	junk
3.387	3.01	3.387	6.397	1	UA_with_intermediate	practice	ward_and_allport	71	0.0	3.387	to_hand	poldrack-single-stim	s613	False
0.1	6.398	2.166	8.564	0	UA_with_intermediate	practice	ward_and_allport	82	0.0	2.166	to_board	poldrack-single-stim	s613	False
0.1	8.566	0.653	9.219	0	UA_with_intermediate	practice	ward_and_allport	71	0.0	0.653	to_hand	poldrack-single-stim	s613	False
0.1	9.219	0.455	9.674	0	UA_with_intermediate	practice	ward_and_allport	89	0.0	0.455	to_board	poldrack-single-stim	s613	False
0.1	9.676	1.799	11.475	0	UA_with_intermediate	practice	ward_and_allport	89	0.0	1.799	to_hand	poldrack-single-stim	s613	False
0.1	11.476	0.945	12.421	0	UA_with_intermediate	practice	ward_and_allport	89	0.0	0.945	to_board	poldrack-single-stim	s613	False
0.1	12.423	0.622	13.045	0	UA_with_intermediate	practice	ward_and_allport	82	0.0	0.622	to_hand	poldrack-single-stim	s613	False
0.1	13.046	0.469	13.515	0	UA_with_intermediate	practice	ward_and_allport	89	0.0	0.469	to_board	poldrack-single-stim	s613	False
1.0	13.522	2.5	13.521	0	UA_with_intermediate	practice	ward_and_allport	-1	0.0	n/a	feedback	poldrack-single-stim	s613	False
1.669	16.025	1.669	17.694	1	UA_with_intermediate	practice	ward_and_allport	71	1.0	1.669	to_hand	poldrack-single-stim	s613	False
0.1	17.695	1.951	19.646	0	UA_with_intermediate	practice	ward_and_allport	82	1.0	1.951	to_board	poldrack-single-stim	s613	False
0.1	19.647	1.335	20.982	0	UA_with_intermediate	practice	ward_and_allport	89	1.0	1.335	to_hand	poldrack-single-stim	s613	False
0.1	20.983	1.617	22.6	0	UA_with_intermediate	practice	ward_and_allport	82	1.0	1.617	to_board	poldrack-single-stim	s613	False
0.1	22.601	0.891	23.492	0	UA_with_intermediate	practice	ward_and_allport	89	1.0	0.891	to_hand	poldrack-single-stim	s613	False
0.1	23.493	0.541	24.034	0	UA_with_intermediate	practice	ward_and_allport	71	1.0	0.541	to_board	poldrack-single-stim	s613	False
0.1	24.035	2.225	26.26	0	UA_with_intermediate	practice	ward_and_allport	71	1.0	2.225	to_hand	poldrack-single-stim	s613	False
0.1	26.261	1.433	27.694	0	UA_with_intermediate	practice	ward_and_allport	71	1.0	1.433	to_board	poldrack-single-stim	s613	False
0.1	27.696	1.014	28.71	0	UA_with_intermediate	practice	ward_and_allport	82	1.0	1.014	to_hand	poldrack-single-stim	s613	False
0.1	28.711	0.874	29.585	0	UA_with_intermediate	practice	ward_and_allport	89	1.0	0.874	to_board	poldrack-single-stim	s613	False
0.1	29.587	2.043	31.63	0	UA_with_intermediate	practice	ward_and_allport	82	1.0	2.043	to_hand	poldrack-single-stim	s613	False
0.1	31.631	0.506	32.137	0	UA_with_intermediate	practice	ward_and_allport	71	1.0	0.506	to_board	poldrack-single-stim	s613	False
0.1	32.14	1.283	33.423	0	UA_with_intermediate	practice	ward_and_allport	89	1.0	1.283	to_hand	poldrack-single-stim	s613	False
0.1	33.424	0.748	34.172	0	UA_with_intermediate	practice	ward_and_allport	71	1.0	0.748	to_board	poldrack-single-stim	s613	False
0.1	34.174	6.003	40.177	0	UA_with_intermediate	practice	ward_and_allport	71	1.0	6.003	to_hand	poldrack-single-stim	s613	False
0.1	40.178	0.788	40.966	0	UA_with_intermediate	practice	ward_and_allport	71	1.0	0.788	to_board	poldrack-single-stim	s613	False
0.1	40.968	7.636	48.604	0	UA_with_intermediate	practice	ward_and_allport	71	1.0	7.636	to_hand	poldrack-single-stim	s613	False
0.1	48.605	0.915	49.52	0	UA_with_intermediate	practice	ward_and_allport	89	1.0	0.915	to_board	poldrack-single-stim	s613	False
0.1	49.522	1.527	51.049	0	UA_with_intermediate	practice	ward_and_allport	89	1.0	1.527	to_hand	poldrack-single-stim	s613	False
0.1	51.051	0.559	51.61	0	UA_with_intermediate	practice	ward_and_allport	71	1.0	0.559	to_board	poldrack-single-stim	s613	False
0.1	51.613	2.84	54.453	0	UA_with_intermediate	practice	ward_and_allport	71	1.0	2.84	to_hand	poldrack-single-stim	s613	False
0.1	54.454	0.757	55.211	0	UA_with_intermediate	practice	ward_and_allport	71	1.0	0.757	to_board	poldrack-single-stim	s613	False
0.1	55.213	0.469	55.682	0	UA_with_intermediate	practice	ward_and_allport	71	1.0	0.469	to_hand	poldrack-single-stim	s613	False
0.1	55.683	0.318	56.001	0	UA_with_intermediate	practice	ward_and_allport	82	1.0	0.318	to_board	poldrack-single-stim	s613	False
0.1	56.003	0.865	56.868	0	UA_with_intermediate	practice	ward_and_allport	71	1.0	0.865	to_hand	poldrack-single-stim	s613	False
0.1	56.869	0.553	57.422	0	UA_with_intermediate	practice	ward_and_allport	82	1.0	0.553	to_board	poldrack-single-stim	s613	False
0.1	57.424	0.623	58.047	0	UA_with_intermediate	practice	ward_and_allport	71	1.0	0.623	to_hand	poldrack-single-stim	s613	False
0.1	58.048	0.48	58.528	0	UA_with_intermediate	practice	ward_and_allport	89	1.0	0.48	to_board	poldrack-single-stim	s613	False
0.1	58.53	1.513	60.043	0	UA_with_intermediate	practice	ward_and_allport	82	1.0	1.513	to_hand	poldrack-single-stim	s613	False
0.1	60.044	0.404	60.448	0	UA_with_intermediate	practice	ward_and_allport	89	1.0	0.404	to_board	poldrack-single-stim	s613	False
0.1	60.451	0.801	61.252	0	UA_with_intermediate	practice	ward_and_allport	82	1.0	0.801	to_hand	poldrack-single-stim	s613	False
0.1	61.253	0.304	61.557	0	UA_with_intermediate	practice	ward_and_allport	89	1.0	0.304	to_board	poldrack-single-stim	s613	False
1.0	61.565	2.1	61.564	0	UA_with_intermediate	practice	ward_and_allport	-1	1.0	n/a	feedback	poldrack-single-stim	s613	False
2.581	63.668	2.581	66.249	1	UA_without_intermediate	practice	ward_and_allport	71	2.0	2.581	to_hand	poldrack-single-stim	s613	False
0.1	66.25	0.544	66.794	0	UA_without_intermediate	practice	ward_and_allport	89	2.0	0.544	to_board	poldrack-single-stim	s613	False
0.1	66.796	2.092	68.888	0	UA_without_intermediate	practice	ward_and_allport	71	2.0	2.092	to_hand	poldrack-single-stim	s613	False
0.1	68.889	0.997	69.886	0	UA_without_intermediate	practice	ward_and_allport	89	2.0	0.997	to_board	poldrack-single-stim	s613	False
0.1	69.889	0.839	70.728	0	UA_without_intermediate	practice	ward_and_allport	82	2.0	0.839	to_hand	poldrack-single-stim	s613	False
0.1	70.729	0.462	71.191	0	UA_without_intermediate	practice	ward_and_allport	71	2.0	0.462	to_board	poldrack-single-stim	s613	False
0.1	71.194	1.373	72.567	0	UA_without_intermediate	practice	ward_and_allport	71	2.0	1.373	to_hand	poldrack-single-stim	s613	False
0.1	72.568	0.877	73.445	0	UA_without_intermediate	practice	ward_and_allport	71	2.0	0.877	to_board	poldrack-single-stim	s613	False
0.1	73.446	1.537	74.983	0	UA_without_intermediate	practice	ward_and_allport	89	2.0	1.537	to_hand	poldrack-single-stim	s613	False
0.1	74.985	1.133	76.118	0	UA_without_intermediate	practice	ward_and_allport	82	2.0	1.133	to_board	poldrack-single-stim	s613	False
0.1	76.12	0.924	77.044	0	UA_without_intermediate	practice	ward_and_allport	89	2.0	0.924	to_hand	poldrack-single-stim	s613	False
0.1	77.046	0.531	77.577	0	UA_without_intermediate	practice	ward_and_allport	71	2.0	0.531	to_board	poldrack-single-stim	s613	False
0.1	77.58	1.327	78.907	0	UA_without_intermediate	practice	ward_and_allport	82	2.0	1.327	to_hand	poldrack-single-stim	s613	False
0.1	78.907	0.595	79.502	0	UA_without_intermediate	practice	ward_and_allport	71	2.0	0.595	to_board	poldrack-single-stim	s613	False
0.1	79.506	2.737	82.243	0	UA_without_intermediate	practice	ward_and_allport	71	2.0	2.737	to_hand	poldrack-single-stim	s613	False
0.1	82.244	0.885	83.129	0	UA_without_intermediate	practice	ward_and_allport	82	2.0	0.885	to_board	poldrack-single-stim	s613	False
0.1	83.131	0.529	83.66	0	UA_without_intermediate	practice	ward_and_allport	71	2.0	0.529	to_hand	poldrack-single-stim	s613	False
0.1	83.66	0.584	84.244	0	UA_without_intermediate	practice	ward_and_allport	82	2.0	0.584	to_board	poldrack-single-stim	s613	False
0.1	84.248	0.643	84.891	0	UA_without_intermediate	practice	ward_and_allport	71	2.0	0.643	to_hand	poldrack-single-stim	s613	False
0.1	84.892	0.486	85.378	0	UA_without_intermediate	practice	ward_and_allport	89	2.0	0.486	to_board	poldrack-single-stim	s613	False
0.1	85.38	1.704	87.084	0	UA_without_intermediate	practice	ward_and_allport	82	2.0	1.704	to_hand	poldrack-single-stim	s613	False
0.1	87.085	0.487	87.572	0	UA_without_intermediate	practice	ward_and_allport	89	2.0	0.487	to_board	poldrack-single-stim	s613	False
0.1	87.575	0.647	88.222	0	UA_without_intermediate	practice	ward_and_allport	82	2.0	0.647	to_hand	poldrack-single-stim	s613	False
0.1	88.223	0.407	88.63	0	UA_without_intermediate	practice	ward_and_allport	89	2.0	0.407	to_board	poldrack-single-stim	s613	False
1.0	88.637	2.2	88.636	0	UA_without_intermediate	practice	ward_and_allport	-1	2.0	n/a	feedback	poldrack-single-stim	s613	False
9.551	90.842	9.551	100.393	1	UA_without_intermediate	practice	ward_and_allport	71	3.0	9.551	to_hand	poldrack-single-stim	s613	False
0.1	100.394	3.7	104.094	0	UA_without_intermediate	practice	ward_and_allport	82	3.0	3.7	to_board	poldrack-single-stim	s613	False
0.1	104.097	0.97	105.067	0	UA_without_intermediate	practice	ward_and_allport	71	3.0	0.97	to_hand	poldrack-single-stim	s613	False
0.1	105.068	0.453	105.521	0	UA_without_intermediate	practice	ward_and_allport	89	3.0	0.453	to_board	poldrack-single-stim	s613	False
0.1	105.524	2.417	107.941	0	UA_without_intermediate	practice	ward_and_allport	82	3.0	2.417	to_hand	poldrack-single-stim	s613	False
0.1	107.942	0.442	108.384	0	UA_without_intermediate	practice	ward_and_allport	71	3.0	0.442	to_board	poldrack-single-stim	s613	False
0.1	108.387	0.85	109.237	0	UA_without_intermediate	practice	ward_and_allport	82	3.0	0.85	to_hand	poldrack-single-stim	s613	False
0.1	109.238	0.446	109.684	0	UA_without_intermediate	practice	ward_and_allport	89	3.0	0.446	to_board	poldrack-single-stim	s613	False
0.1	109.687	0.599	110.286	0	UA_without_intermediate	practice	ward_and_allport	71	3.0	0.599	to_hand	poldrack-single-stim	s613	False
0.1	110.287	0.386	110.673	0	UA_without_intermediate	practice	ward_and_allport	89	3.0	0.386	to_board	poldrack-single-stim	s613	False
0.1	110.674	3.052	113.726	0	UA_without_intermediate	practice	ward_and_allport	89	3.0	3.052	to_hand	poldrack-single-stim	s613	False
0.1	113.728	0.649	114.377	0	UA_without_intermediate	practice	ward_and_allport	71	3.0	0.649	to_board	poldrack-single-stim	s613	False
0.1	114.379	2.364	116.743	0	UA_without_intermediate	practice	ward_and_allport	89	3.0	2.364	to_hand	poldrack-single-stim	s613	False
0.1	116.744	0.783	117.527	0	UA_without_intermediate	practice	ward_and_allport	71	3.0	0.783	to_board	poldrack-single-stim	s613	False
0.1	117.531	0.584	118.115	0	UA_without_intermediate	practice	ward_and_allport	89	3.0	0.584	to_hand	poldrack-single-stim	s613	False
0.1	118.116	1.172	119.288	0	UA_without_intermediate	practice	ward_and_allport	82	3.0	1.172	to_board	poldrack-single-stim	s613	False
0.1	119.291	1.199	120.49	0	UA_without_intermediate	practice	ward_and_allport	71	3.0	1.199	to_hand	poldrack-single-stim	s613	False
0.1	120.491	0.539	121.03	0	UA_without_intermediate	practice	ward_and_allport	82	3.0	0.539	to_board	poldrack-single-stim	s613	False
0.1	121.033	0.572	121.605	0	UA_without_intermediate	practice	ward_and_allport	71	3.0	0.572	to_hand	poldrack-single-stim	s613	False
0.1	121.606	0.535	122.141	0	UA_without_intermediate	practice	ward_and_allport	89	3.0	0.535	to_board	poldrack-single-stim	s613	False
0.1	122.145	1.793	123.938	0	UA_without_intermediate	practice	ward_and_allport	82	3.0	1.793	to_hand	poldrack-single-stim	s613	False
0.1	123.939	0.468	124.407	0	UA_without_intermediate	practice	ward_and_allport	89	3.0	0.468	to_board	poldrack-single-stim	s613	False
0.1	124.41	1.251	125.661	0	UA_without_intermediate	practice	ward_and_allport	82	3.0	1.251	to_hand	poldrack-single-stim	s613	False
0.1	125.662	0.842	126.504	0	UA_without_intermediate	practice	ward_and_allport	89	3.0	0.842	to_board	poldrack-single-stim	s613	False
1.0	126.507	2.0	126.506	0	UA_without_intermediate	practice	ward_and_allport	-1	3.0	n/a	feedback	poldrack-single-stim	s613	False
7.305	130.513	7.305	137.818	1	PA_with_intermediate	test	ward_and_allport	82	0.0	7.305	to_hand	poldrack-single-stim	s613	False
0.1	137.819	0.87	138.689	0	PA_with_intermediate	test	ward_and_allport	89	0.0	0.87	to_board	poldrack-single-stim	s613	False
0.1	138.693	0.86	139.553	0	PA_with_intermediate	test	ward_and_allport	82	0.0	0.86	to_hand	poldrack-single-stim	s613	False
0.1	139.554	0.367	139.921	0	PA_with_intermediate	test	ward_and_allport	71	0.0	0.367	to_board	poldrack-single-stim	s613	False
0.1	139.924	2.405	142.329	0	PA_with_intermediate	test	ward_and_allport	89	0.0	2.405	to_hand	poldrack-single-stim	s613	False
0.1	142.33	0.48	142.81	0	PA_with_intermediate	test	ward_and_allport	71	0.0	0.48	to_board	poldrack-single-stim	s613	False
1.0	142.814	2.408	142.813	0	PA_with_intermediate	test	ward_and_allport	-1	0.0	n/a	feedback	poldrack-single-stim	s613	False
4.273	145.226	4.273	149.499	1	PA_without_intermediate	test	ward_and_allport	71	1.0	4.273	to_hand	poldrack-single-stim	s613	False
0.1	149.5	0.442	149.942	0	PA_without_intermediate	test	ward_and_allport	82	1.0	0.442	to_board	poldrack-single-stim	s613	False
0.1	149.946	0.906	150.852	0	PA_without_intermediate	test	ward_and_allport	71	1.0	0.906	to_hand	poldrack-single-stim	s613	False
0.1	150.855	0.308	151.163	0	PA_without_intermediate	test	ward_and_allport	89	1.0	0.308	to_board	poldrack-single-stim	s613	False
0.1	151.166	0.623	151.789	0	PA_without_intermediate	test	ward_and_allport	71	1.0	0.623	to_hand	poldrack-single-stim	s613	False
0.1	151.792	0.312	152.104	0	PA_without_intermediate	test	ward_and_allport	82	1.0	0.312	to_board	poldrack-single-stim	s613	False
1.0	152.109	2.68	152.108	0	PA_without_intermediate	test	ward_and_allport	-1	1.0	n/a	feedback	poldrack-single-stim	s613	False
6.386	154.794	6.386	161.18	1	PA_with_intermediate	test	ward_and_allport	89	2.0	6.386	to_hand	poldrack-single-stim	s613	False
0.1	161.182	0.433	161.615	0	PA_with_intermediate	test	ward_and_allport	71	2.0	0.433	to_board	poldrack-single-stim	s613	False
0.1	161.62	1.08	162.7	0	PA_with_intermediate	test	ward_and_allport	89	2.0	1.08	to_hand	poldrack-single-stim	s613	False
0.1	162.701	0.395	163.096	0	PA_with_intermediate	test	ward_and_allport	82	2.0	0.395	to_board	poldrack-single-stim	s613	False
0.1	163.1	0.999	164.099	0	PA_with_intermediate	test	ward_and_allport	71	2.0	0.999	to_hand	poldrack-single-stim	s613	False
0.1	164.1	0.363	164.463	0	PA_with_intermediate	test	ward_and_allport	89	2.0	0.363	to_board	poldrack-single-stim	s613	False
1.0	164.47	4.72	164.469	0	PA_with_intermediate	test	ward_and_allport	-1	2.0	n/a	feedback	poldrack-single-stim	s613	False
2.794	169.194	2.794	171.988	1	PA_without_intermediate	test	ward_and_allport	71	3.0	2.794	to_hand	poldrack-single-stim	s613	False
0.1	171.989	0.442	172.431	0	PA_without_intermediate	test	ward_and_allport	82	3.0	0.442	to_board	poldrack-single-stim	s613	False
0.1	172.435	2.133	174.568	0	PA_without_intermediate	test	ward_and_allport	71	3.0	2.133	to_hand	poldrack-single-stim	s613	False
0.1	174.568	0.346	174.914	0	PA_without_intermediate	test	ward_and_allport	82	3.0	0.346	to_board	poldrack-single-stim	s613	False
0.1	174.918	0.7	175.618	0	PA_without_intermediate	test	ward_and_allport	71	3.0	0.7	to_hand	poldrack-single-stim	s613	False
0.1	175.619	0.325	175.944	0	PA_without_intermediate	test	ward_and_allport	89	3.0	0.325	to_board	poldrack-single-stim	s613	False
1.0	175.955	3.224	175.954	0	PA_without_intermediate	test	ward_and_allport	-1	3.0	n/a	feedback	poldrack-single-stim	s613	False
4.052	179.182	4.052	183.234	1	PA_without_intermediate	test	ward_and_allport	82	4.0	4.052	to_hand	poldrack-single-stim	s613	False
0.1	183.236	0.508	183.744	0	PA_without_intermediate	test	ward_and_allport	71	4.0	0.508	to_board	poldrack-single-stim	s613	False
0.1	183.748	3.302	187.05	0	PA_without_intermediate	test	ward_and_allport	82	4.0	3.302	to_hand	poldrack-single-stim	s613	False
0.1	187.05	0.592	187.642	0	PA_without_intermediate	test	ward_and_allport	89	4.0	0.592	to_board	poldrack-single-stim	s613	False
0.1	187.647	0.772	188.419	0	PA_without_intermediate	test	ward_and_allport	82	4.0	0.772	to_hand	poldrack-single-stim	s613	False
0.1	188.42	0.427	188.847	0	PA_without_intermediate	test	ward_and_allport	71	4.0	0.427	to_board	poldrack-single-stim	s613	False
1.0	188.854	2.272	188.853	0	PA_without_intermediate	test	ward_and_allport	-1	4.0	n/a	feedback	poldrack-single-stim	s613	False
3.241	191.131	3.241	194.372	1	PA_with_intermediate	test	ward_and_allport	71	5.0	3.241	to_hand	poldrack-single-stim	s613	False
0.1	194.373	0.435	194.808	0	PA_with_intermediate	test	ward_and_allport	82	5.0	0.435	to_board	poldrack-single-stim	s613	False
0.1	194.812	1.791	196.603	0	PA_with_intermediate	test	ward_and_allport	71	5.0	1.791	to_hand	poldrack-single-stim	s613	False
0.1	196.603	0.531	197.134	0	PA_with_intermediate	test	ward_and_allport	89	5.0	0.531	to_board	poldrack-single-stim	s613	False
0.1	197.139	0.625	197.764	0	PA_with_intermediate	test	ward_and_allport	82	5.0	0.625	to_hand	poldrack-single-stim	s613	False
0.1	197.765	0.328	198.093	0	PA_with_intermediate	test	ward_and_allport	89	5.0	0.328	to_board	poldrack-single-stim	s613	False
1.0	198.097	3.632	198.096	0	PA_with_intermediate	test	ward_and_allport	-1	5.0	n/a	feedback	poldrack-single-stim	s613	False
4.297	201.733	4.297	206.03	1	PA_without_intermediate	test	ward_and_allport	82	6.0	4.297	to_hand	poldrack-single-stim	s613	False
0.1	206.031	0.416	206.447	0	PA_without_intermediate	test	ward_and_allport	89	6.0	0.416	to_board	poldrack-single-stim	s613	False
0.1	206.451	2.411	208.862	0	PA_without_intermediate	test	ward_and_allport	82	6.0	2.411	to_hand	poldrack-single-stim	s613	False
0.1	208.863	0.472	209.335	0	PA_without_intermediate	test	ward_and_allport	71	6.0	0.472	to_board	poldrack-single-stim	s613	False
0.1	209.339	0.962	210.301	0	PA_without_intermediate	test	ward_and_allport	82	6.0	0.962	to_hand	poldrack-single-stim	s613	False
0.1	210.302	0.325	210.627	0	PA_without_intermediate	test	ward_and_allport	89	6.0	0.325	to_board	poldrack-single-stim	s613	False
1.0	210.633	2.408	210.632	0	PA_without_intermediate	test	ward_and_allport	-1	6.0	n/a	feedback	poldrack-single-stim	s613	False
3.795	213.045	3.795	216.84	1	PA_without_intermediate	test	ward_and_allport	71	7.0	3.795	to_hand	poldrack-single-stim	s613	False
0.1	216.841	0.662	217.503	0	PA_without_intermediate	test	ward_and_allport	82	7.0	0.662	to_board	poldrack-single-stim	s613	False
0.1	217.507	1.117	218.624	0	PA_without_intermediate	test	ward_and_allport	71	7.0	1.117	to_hand	poldrack-single-stim	s613	False
0.1	218.625	0.336	218.961	0	PA_without_intermediate	test	ward_and_allport	89	7.0	0.336	to_board	poldrack-single-stim	s613	False
0.1	218.965	0.782	219.747	0	PA_without_intermediate	test	ward_and_allport	71	7.0	0.782	to_hand	poldrack-single-stim	s613	False
0.1	219.748	0.309	220.057	0	PA_without_intermediate	test	ward_and_allport	82	7.0	0.309	to_board	poldrack-single-stim	s613	False
1.0	220.065	2.0	220.064	0	PA_without_intermediate	test	ward_and_allport	-1	7.0	n/a	feedback	poldrack-single-stim	s613	False
2.989	222.069	2.989	225.058	1	PA_with_intermediate	test	ward_and_allport	71	8.0	2.989	to_hand	poldrack-single-stim	s613	False
0.1	225.059	4.12	229.179	0	PA_with_intermediate	test	ward_and_allport	71	8.0	4.12	to_board	poldrack-single-stim	s613	False
0.1	229.183	0.694	229.877	0	PA_with_intermediate	test	ward_and_allport	71	8.0	0.694	to_hand	poldrack-single-stim	s613	False
0.1	229.878	1.939	231.817	0	PA_with_intermediate	test	ward_and_allport	89	8.0	1.939	to_board	poldrack-single-stim	s613	False
0.1	231.821	0.562	232.383	0	PA_with_intermediate	test	ward_and_allport	71	8.0	0.562	to_hand	poldrack-single-stim	s613	False
0.1	232.384	0.826	233.21	0	PA_with_intermediate	test	ward_and_allport	82	8.0	0.826	to_board	poldrack-single-stim	s613	False
0.1	233.214	0.395	233.609	0	PA_with_intermediate	test	ward_and_allport	89	8.0	0.395	to_hand	poldrack-single-stim	s613	False
0.1	233.61	0.251	233.861	0	PA_with_intermediate	test	ward_and_allport	82	8.0	0.251	to_board	poldrack-single-stim	s613	False
1.0	233.867	2.0	233.866	0	PA_with_intermediate	test	ward_and_allport	-1	8.0	n/a	feedback	poldrack-single-stim	s613	False
4.389	235.872	4.389	240.261	1	PA_with_intermediate	test	ward_and_allport	89	9.0	4.389	to_hand	poldrack-single-stim	s613	False
0.1	240.262	0.289	240.551	0	PA_with_intermediate	test	ward_and_allport	82	9.0	0.289	to_board	poldrack-single-stim	s613	False
0.1	240.555	2.53	243.085	0	PA_with_intermediate	test	ward_and_allport	89	9.0	2.53	to_hand	poldrack-single-stim	s613	False
0.1	243.087	0.376	243.463	0	PA_with_intermediate	test	ward_and_allport	71	9.0	0.376	to_board	poldrack-single-stim	s613	False
0.1	243.468	3.576	247.044	0	PA_with_intermediate	test	ward_and_allport	82	9.0	3.576	to_hand	poldrack-single-stim	s613	False
0.1	247.045	0.322	247.367	0	PA_with_intermediate	test	ward_and_allport	89	9.0	0.322	to_board	poldrack-single-stim	s613	False
1.0	247.371	2.0	247.37	0	PA_with_intermediate	test	ward_and_allport	-1	9.0	n/a	feedback	poldrack-single-stim	s613	False
5.527	249.376	5.527	254.903	1	PA_with_intermediate	test	ward_and_allport	89	10.0	5.527	to_hand	poldrack-single-stim	s613	False
0.1	254.904	0.299	255.203	0	PA_with_intermediate	test	ward_and_allport	82	10.0	0.299	to_board	poldrack-single-stim	s613	False
0.1	255.207	0.947	256.154	0	PA_with_intermediate	test	ward_and_allport	89	10.0	0.947	to_hand	poldrack-single-stim	s613	False
0.1	256.156	0.333	256.489	0	PA_with_intermediate	test	ward_and_allport	71	10.0	0.333	to_board	poldrack-single-stim	s613	False
0.1	256.494	0.424	256.918	0	PA_with_intermediate	test	ward_and_allport	82	10.0	0.424	to_hand	poldrack-single-stim	s613	False
0.1	256.919	0.439	257.358	0	PA_with_intermediate	test	ward_and_allport	71	10.0	0.439	to_board	poldrack-single-stim	s613	False
1.0	257.362	2.408	257.361	0	PA_with_intermediate	test	ward_and_allport	-1	10.0	n/a	feedback	poldrack-single-stim	s613	False
3.965	259.775	3.965	263.74	1	PA_without_intermediate	test	ward_and_allport	89	11.0	3.965	to_hand	poldrack-single-stim	s613	False
0.1	263.741	0.365	264.106	0	PA_without_intermediate	test	ward_and_allport	71	11.0	0.365	to_board	poldrack-single-stim	s613	False
0.1	264.111	1.431	265.542	0	PA_without_intermediate	test	ward_and_allport	89	11.0	1.431	to_hand	poldrack-single-stim	s613	False
0.1	265.543	0.298	265.841	0	PA_without_intermediate	test	ward_and_allport	71	11.0	0.298	to_board	poldrack-single-stim	s613	False
0.1	265.85	1.357	267.207	0	PA_without_intermediate	test	ward_and_allport	89	11.0	1.357	to_hand	poldrack-single-stim	s613	False
0.1	267.208	0.278	267.486	0	PA_without_intermediate	test	ward_and_allport	82	11.0	0.278	to_board	poldrack-single-stim	s613	False
1.0	267.494	2.816	267.493	0	PA_without_intermediate	test	ward_and_allport	-1	11.0	n/a	feedback	poldrack-single-stim	s613	False
6.71	270.315	6.71	277.025	1	PA_with_intermediate	test	ward_and_allport	82	12.0	6.71	to_hand	poldrack-single-stim	s613	False
0.1	277.026	0.41	277.436	0	PA_with_intermediate	test	ward_and_allport	71	12.0	0.41	to_board	poldrack-single-stim	s613	False
0.1	277.441	1.327	278.768	0	PA_with_intermediate	test	ward_and_allport	82	12.0	1.327	to_hand	poldrack-single-stim	s613	False
0.1	278.769	0.329	279.098	0	PA_with_intermediate	test	ward_and_allport	89	12.0	0.329	to_board	poldrack-single-stim	s613	False
0.1	279.104	1.268	280.372	0	PA_with_intermediate	test	ward_and_allport	71	12.0	1.268	to_hand	poldrack-single-stim	s613	False
0.1	280.373	0.73	281.103	0	PA_with_intermediate	test	ward_and_allport	82	12.0	0.73	to_board	poldrack-single-stim	s613	False
1.0	281.11	4.176	281.109	0	PA_with_intermediate	test	ward_and_allport	-1	12.0	n/a	feedback	poldrack-single-stim	s613	False
3.138	285.292	3.138	288.43	1	PA_with_intermediate	test	ward_and_allport	71	13.0	3.138	to_hand	poldrack-single-stim	s613	False
0.1	288.431	1.065	289.496	0	PA_with_intermediate	test	ward_and_allport	82	13.0	1.065	to_board	poldrack-single-stim	s613	False
0.1	289.502	0.606	290.108	0	PA_with_intermediate	test	ward_and_allport	71	13.0	0.606	to_hand	poldrack-single-stim	s613	False
0.1	290.109	0.314	290.423	0	PA_with_intermediate	test	ward_and_allport	89	13.0	0.314	to_board	poldrack-single-stim	s613	False
0.1	290.429	0.445	290.874	0	PA_with_intermediate	test	ward_and_allport	71	13.0	0.445	to_hand	poldrack-single-stim	s613	False
0.1	290.875	1.672	292.547	0	PA_with_intermediate	test	ward_and_allport	71	13.0	1.672	to_board	poldrack-single-stim	s613	False
0.1	292.553	0.521	293.074	0	PA_with_intermediate	test	ward_and_allport	82	13.0	0.521	to_hand	poldrack-single-stim	s613	False
0.1	293.075	0.259	293.334	0	PA_with_intermediate	test	ward_and_allport	89	13.0	0.259	to_board	poldrack-single-stim	s613	False
1.0	293.345	3.36	293.344	0	PA_with_intermediate	test	ward_and_allport	-1	13.0	n/a	feedback	poldrack-single-stim	s613	False
11.525	296.711	11.525	308.236	1	PA_with_intermediate	test	ward_and_allport	71	14.0	11.525	to_hand	poldrack-single-stim	s613	False
0.1	308.238	0.445	308.683	0	PA_with_intermediate	test	ward_and_allport	82	14.0	0.445	to_board	poldrack-single-stim	s613	False
0.1	308.689	0.457	309.146	0	PA_with_intermediate	test	ward_and_allport	71	14.0	0.457	to_hand	poldrack-single-stim	s613	False
0.1	309.147	0.436	309.583	0	PA_with_intermediate	test	ward_and_allport	89	14.0	0.436	to_board	poldrack-single-stim	s613	False
0.1	309.589	0.647	310.236	0	PA_with_intermediate	test	ward_and_allport	82	14.0	0.647	to_hand	poldrack-single-stim	s613	False
0.1	310.237	0.387	310.624	0	PA_with_intermediate	test	ward_and_allport	71	14.0	0.387	to_board	poldrack-single-stim	s613	False
1.0	310.63	2.0	310.629	0	PA_with_intermediate	test	ward_and_allport	-1	14.0	n/a	feedback	poldrack-single-stim	s613	False
6.185	317.639	6.185	323.824	1	PA_without_intermediate	test	ward_and_allport	89	15.0	6.185	to_hand	poldrack-single-stim	s613	False
0.1	323.825	0.322	324.147	0	PA_without_intermediate	test	ward_and_allport	82	15.0	0.322	to_board	poldrack-single-stim	s613	False
0.1	324.153	1.241	325.394	0	PA_without_intermediate	test	ward_and_allport	89	15.0	1.241	to_hand	poldrack-single-stim	s613	False
0.1	325.395	0.605	326.0	0	PA_without_intermediate	test	ward_and_allport	71	15.0	0.605	to_board	poldrack-single-stim	s613	False
0.1	326.006	1.457	327.463	0	PA_without_intermediate	test	ward_and_allport	71	15.0	1.457	to_hand	poldrack-single-stim	s613	False
0.1	327.464	0.323	327.787	0	PA_without_intermediate	test	ward_and_allport	82	15.0	0.323	to_board	poldrack-single-stim	s613	False
0.1	327.793	0.709	328.502	0	PA_without_intermediate	test	ward_and_allport	89	15.0	0.709	to_hand	poldrack-single-stim	s613	False
0.1	328.503	0.302	328.805	0	PA_without_intermediate	test	ward_and_allport	71	15.0	0.302	to_board	poldrack-single-stim	s613	False
1.0	328.814	2.408	328.813	0	PA_without_intermediate	test	ward_and_allport	-1	15.0	n/a	feedback	poldrack-single-stim	s613	False
5.111	331.229	5.111	336.34	1	PA_with_intermediate	test	ward_and_allport	89	16.0	5.111	to_hand	poldrack-single-stim	s613	False
0.1	336.34	0.403	336.743	0	PA_with_intermediate	test	ward_and_allport	71	16.0	0.403	to_board	poldrack-single-stim	s613	False
0.1	336.75	1.57	338.32	0	PA_with_intermediate	test	ward_and_allport	89	16.0	1.57	to_hand	poldrack-single-stim	s613	False
0.1	338.321	0.324	338.645	0	PA_with_intermediate	test	ward_and_allport	82	16.0	0.324	to_board	poldrack-single-stim	s613	False
0.1	338.65	0.878	339.528	0	PA_with_intermediate	test	ward_and_allport	71	16.0	0.878	to_hand	poldrack-single-stim	s613	False
0.1	339.53	0.912	340.442	0	PA_with_intermediate	test	ward_and_allport	82	16.0	0.912	to_board	poldrack-single-stim	s613	False
1.0	340.449	2.816	340.448	0	PA_with_intermediate	test	ward_and_allport	-1	16.0	n/a	feedback	poldrack-single-stim	s613	False
7.407	343.271	7.407	350.678	1	PA_without_intermediate	test	ward_and_allport	71	17.0	7.407	to_hand	poldrack-single-stim	s613	False
0.1	350.678	0.333	351.011	0	PA_without_intermediate	test	ward_and_allport	89	17.0	0.333	to_board	poldrack-single-stim	s613	False
0.1	351.018	0.916	351.934	0	PA_without_intermediate	test	ward_and_allport	71	17.0	0.916	to_hand	poldrack-single-stim	s613	False
0.1	351.935	0.363	352.298	0	PA_without_intermediate	test	ward_and_allport	89	17.0	0.363	to_board	poldrack-single-stim	s613	False
0.1	352.304	0.821	353.125	0	PA_without_intermediate	test	ward_and_allport	71	17.0	0.821	to_hand	poldrack-single-stim	s613	False
0.1	353.126	0.377	353.503	0	PA_without_intermediate	test	ward_and_allport	82	17.0	0.377	to_board	poldrack-single-stim	s613	False
1.0	353.51	3.088	353.509	0	PA_without_intermediate	test	ward_and_allport	-1	17.0	n/a	feedback	poldrack-single-stim	s613	False
5.84	356.605	5.84	362.445	1	PA_without_intermediate	test	ward_and_allport	89	18.0	5.84	to_hand	poldrack-single-stim	s613	False
0.1	362.446	0.329	362.775	0	PA_without_intermediate	test	ward_and_allport	82	18.0	0.329	to_board	poldrack-single-stim	s613	False
0.1	362.782	1.405	364.187	0	PA_without_intermediate	test	ward_and_allport	89	18.0	1.405	to_hand	poldrack-single-stim	s613	False
0.1	364.188	0.453	364.641	0	PA_without_intermediate	test	ward_and_allport	71	18.0	0.453	to_board	poldrack-single-stim	s613	False
0.1	364.647	1.728	366.375	0	PA_without_intermediate	test	ward_and_allport	89	18.0	1.728	to_hand	poldrack-single-stim	s613	False
0.1	366.376	0.44	366.816	0	PA_without_intermediate	test	ward_and_allport	82	18.0	0.44	to_board	poldrack-single-stim	s613	False
1.0	366.825	2.136	366.824	0	PA_without_intermediate	test	ward_and_allport	-1	18.0	n/a	feedback	poldrack-single-stim	s613	False
5.243	368.967	5.243	374.21	1	PA_without_intermediate	test	ward_and_allport	71	19.0	5.243	to_hand	poldrack-single-stim	s613	False
0.1	374.212	0.314	374.526	0	PA_without_intermediate	test	ward_and_allport	89	19.0	0.314	to_board	poldrack-single-stim	s613	False
0.1	374.533	1.261	375.794	0	PA_without_intermediate	test	ward_and_allport	71	19.0	1.261	to_hand	poldrack-single-stim	s613	False
0.1	375.795	0.376	376.171	0	PA_without_intermediate	test	ward_and_allport	89	19.0	0.376	to_board	poldrack-single-stim	s613	False
0.1	376.178	1.453	377.631	0	PA_without_intermediate	test	ward_and_allport	71	19.0	1.453	to_hand	poldrack-single-stim	s613	False
0.1	377.632	0.358	377.99	0	PA_without_intermediate	test	ward_and_allport	82	19.0	0.358	to_board	poldrack-single-stim	s613	False
1.0	378.001	7.168	378.0	0	PA_without_intermediate	test	ward_and_allport	-1	19.0	n/a	feedback	poldrack-single-stim	s613	False
3.381	385.175	3.381	388.556	1	PA_without_intermediate	test	ward_and_allport	71	20.0	3.381	to_hand	poldrack-single-stim	s613	False
0.1	388.557	0.436	388.993	0	PA_without_intermediate	test	ward_and_allport	82	20.0	0.436	to_board	poldrack-single-stim	s613	False
0.1	389.0	0.876	389.876	0	PA_without_intermediate	test	ward_and_allport	71	20.0	0.876	to_hand	poldrack-single-stim	s613	False
0.1	389.877	0.333	390.21	0	PA_without_intermediate	test	ward_and_allport	82	20.0	0.333	to_board	poldrack-single-stim	s613	False
0.1	390.218	0.556	390.774	0	PA_without_intermediate	test	ward_and_allport	71	20.0	0.556	to_hand	poldrack-single-stim	s613	False
0.1	390.775	0.267	391.042	0	PA_without_intermediate	test	ward_and_allport	89	20.0	0.267	to_board	poldrack-single-stim	s613	False
1.0	391.051	2.816	391.05	0	PA_without_intermediate	test	ward_and_allport	-1	20.0	n/a	feedback	poldrack-single-stim	s613	False
11.259	393.875	11.259	405.134	1	PA_with_intermediate	test	ward_and_allport	82	21.0	11.259	to_hand	poldrack-single-stim	s613	False
0.1	405.135	0.608	405.743	0	PA_with_intermediate	test	ward_and_allport	71	21.0	0.608	to_board	poldrack-single-stim	s613	False
0.1	405.752	2.047	407.799	0	PA_with_intermediate	test	ward_and_allport	82	21.0	2.047	to_hand	poldrack-single-stim	s613	False
0.1	407.8	0.362	408.162	0	PA_with_intermediate	test	ward_and_allport	89	21.0	0.362	to_board	poldrack-single-stim	s613	False
0.1	408.17	1.065	409.235	0	PA_with_intermediate	test	ward_and_allport	71	21.0	1.065	to_hand	poldrack-single-stim	s613	False
0.1	409.237	0.318	409.555	0	PA_with_intermediate	test	ward_and_allport	82	21.0	0.318	to_board	poldrack-single-stim	s613	False
1.0	409.566	2.952	409.565	0	PA_with_intermediate	test	ward_and_allport	-1	21.0	n/a	feedback	poldrack-single-stim	s613	False
6.025	412.526	6.025	418.551	1	PA_with_intermediate	test	ward_and_allport	89	22.0	6.025	to_hand	poldrack-single-stim	s613	False
0.1	418.552	0.221	418.773	0	PA_with_intermediate	test	ward_and_allport	71	22.0	0.221	to_board	poldrack-single-stim	s613	False
0.1	418.781	1.935	420.716	0	PA_with_intermediate	test	ward_and_allport	89	22.0	1.935	to_hand	poldrack-single-stim	s613	False
0.1	420.717	0.379	421.096	0	PA_with_intermediate	test	ward_and_allport	82	22.0	0.379	to_board	poldrack-single-stim	s613	False
0.1	421.103	1.216	422.319	0	PA_with_intermediate	test	ward_and_allport	71	22.0	1.216	to_hand	poldrack-single-stim	s613	False
0.1	422.32	0.315	422.635	0	PA_with_intermediate	test	ward_and_allport	89	22.0	0.315	to_board	poldrack-single-stim	s613	False
1.0	422.643	2.136	422.642	0	PA_with_intermediate	test	ward_and_allport	-1	22.0	n/a	feedback	poldrack-single-stim	s613	False
4.603	424.788	4.603	429.391	1	PA_without_intermediate	test	ward_and_allport	89	23.0	4.603	to_hand	poldrack-single-stim	s613	False
0.1	429.392	0.261	429.653	0	PA_without_intermediate	test	ward_and_allport	71	23.0	0.261	to_board	poldrack-single-stim	s613	False
0.1	429.661	1.189	430.85	0	PA_without_intermediate	test	ward_and_allport	89	23.0	1.189	to_hand	poldrack-single-stim	s613	False
0.1	430.851	0.326	431.177	0	PA_without_intermediate	test	ward_and_allport	82	23.0	0.326	to_board	poldrack-single-stim	s613	False
0.1	431.186	0.845	432.031	0	PA_without_intermediate	test	ward_and_allport	89	23.0	0.845	to_hand	poldrack-single-stim	s613	False
0.1	432.032	0.265	432.297	0	PA_without_intermediate	test	ward_and_allport	71	23.0	0.265	to_board	poldrack-single-stim	s613	False
1.0	432.307	2.68	432.306	0	PA_without_intermediate	test	ward_and_allport	-1	23.0	n/a	feedback	poldrack-single-stim	s613	False
3.009	434.995	3.009	438.004	1	PA_without_intermediate	test	ward_and_allport	89	24.0	3.009	to_hand	poldrack-single-stim	s613	False
0.1	438.005	0.682	438.687	0	PA_without_intermediate	test	ward_and_allport	82	24.0	0.682	to_board	poldrack-single-stim	s613	False
0.1	438.692	0.808	439.5	0	PA_without_intermediate	test	ward_and_allport	89	24.0	0.808	to_hand	poldrack-single-stim	s613	False
0.1	439.5	0.396	439.896	0	PA_without_intermediate	test	ward_and_allport	82	24.0	0.396	to_board	poldrack-single-stim	s613	False
0.1	439.905	0.638	440.543	0	PA_without_intermediate	test	ward_and_allport	89	24.0	0.638	to_hand	poldrack-single-stim	s613	False
0.1	440.544	0.34	440.884	0	PA_without_intermediate	test	ward_and_allport	71	24.0	0.34	to_board	poldrack-single-stim	s613	False
1.0	440.897	3.088	440.896	0	PA_without_intermediate	test	ward_and_allport	-1	24.0	n/a	feedback	poldrack-single-stim	s613	False
4.651	443.991	4.651	448.642	1	PA_with_intermediate	test	ward_and_allport	82	25.0	4.651	to_hand	poldrack-single-stim	s613	False
0.1	448.643	0.25	448.893	0	PA_with_intermediate	test	ward_and_allport	71	25.0	0.25	to_board	poldrack-single-stim	s613	False
0.1	448.899	0.948	449.847	0	PA_with_intermediate	test	ward_and_allport	82	25.0	0.948	to_hand	poldrack-single-stim	s613	False
0.1	449.849	0.231	450.08	0	PA_with_intermediate	test	ward_and_allport	89	25.0	0.231	to_board	poldrack-single-stim	s613	False
0.1	450.089	0.694	450.783	0	PA_with_intermediate	test	ward_and_allport	71	25.0	0.694	to_hand	poldrack-single-stim	s613	False
0.1	450.784	0.255	451.039	0	PA_with_intermediate	test	ward_and_allport	89	25.0	0.255	to_board	poldrack-single-stim	s613	False
1.0	451.051	2.0	451.05	0	PA_with_intermediate	test	ward_and_allport	-1	25.0	n/a	feedback	poldrack-single-stim	s613	False
4.866	453.06	4.866	457.926	1	PA_without_intermediate	test	ward_and_allport	82	26.0	4.866	to_hand	poldrack-single-stim	s613	False
0.1	457.927	0.296	458.223	0	PA_without_intermediate	test	ward_and_allport	71	26.0	0.296	to_board	poldrack-single-stim	s613	False
0.1	458.231	0.651	458.882	0	PA_without_intermediate	test	ward_and_allport	82	26.0	0.651	to_hand	poldrack-single-stim	s613	False
0.1	458.883	0.282	459.165	0	PA_without_intermediate	test	ward_and_allport	71	26.0	0.282	to_board	poldrack-single-stim	s613	False
0.1	459.174	1.125	460.299	0	PA_without_intermediate	test	ward_and_allport	82	26.0	1.125	to_hand	poldrack-single-stim	s613	False
0.1	460.301	0.258	460.559	0	PA_without_intermediate	test	ward_and_allport	89	26.0	0.258	to_board	poldrack-single-stim	s613	False
1.0	460.571	2.0	460.57	0	PA_without_intermediate	test	ward_and_allport	-1	26.0	n/a	feedback	poldrack-single-stim	s613	False
3.786	462.58	3.786	466.366	1	PA_without_intermediate	test	ward_and_allport	82	27.0	3.786	to_hand	poldrack-single-stim	s613	False
0.1	466.367	0.238	466.605	0	PA_without_intermediate	test	ward_and_allport	89	27.0	0.238	to_board	poldrack-single-stim	s613	False
0.1	466.611	0.4	467.011	0	PA_without_intermediate	test	ward_and_allport	82	27.0	0.4	to_hand	poldrack-single-stim	s613	False
0.1	467.012	0.467	467.479	0	PA_without_intermediate	test	ward_and_allport	89	27.0	0.467	to_board	poldrack-single-stim	s613	False
0.1	467.487	0.601	468.088	0	PA_without_intermediate	test	ward_and_allport	82	27.0	0.601	to_hand	poldrack-single-stim	s613	False
0.1	468.089	0.28	468.369	0	PA_without_intermediate	test	ward_and_allport	71	27.0	0.28	to_board	poldrack-single-stim	s613	False
1.0	468.378	2.0	468.377	0	PA_without_intermediate	test	ward_and_allport	-1	27.0	n/a	feedback	poldrack-single-stim	s613	False
5.638	470.384	5.638	476.022	1	PA_with_intermediate	test	ward_and_allport	71	28.0	5.638	to_hand	poldrack-single-stim	s613	False
0.1	476.022	0.327	476.349	0	PA_with_intermediate	test	ward_and_allport	89	28.0	0.327	to_board	poldrack-single-stim	s613	False
0.1	476.356	0.67	477.026	0	PA_with_intermediate	test	ward_and_allport	71	28.0	0.67	to_hand	poldrack-single-stim	s613	False
0.1	477.026	0.267	477.293	0	PA_with_intermediate	test	ward_and_allport	82	28.0	0.267	to_board	poldrack-single-stim	s613	False
0.1	477.303	0.608	477.911	0	PA_with_intermediate	test	ward_and_allport	89	28.0	0.608	to_hand	poldrack-single-stim	s613	False
0.1	477.912	0.323	478.235	0	PA_with_intermediate	test	ward_and_allport	71	28.0	0.323	to_board	poldrack-single-stim	s613	False
1.0	478.246	2.544	478.245	0	PA_with_intermediate	test	ward_and_allport	-1	28.0	n/a	feedback	poldrack-single-stim	s613	False
3.548	480.799	3.548	484.347	1	PA_without_intermediate	test	ward_and_allport	71	29.0	3.548	to_hand	poldrack-single-stim	s613	False
0.1	484.348	0.195	484.543	0	PA_without_intermediate	test	ward_and_allport	89	29.0	0.195	to_board	poldrack-single-stim	s613	False
0.1	484.551	0.756	485.307	0	PA_without_intermediate	test	ward_and_allport	71	29.0	0.756	to_hand	poldrack-single-stim	s613	False
0.1	485.307	0.254	485.561	0	PA_without_intermediate	test	ward_and_allport	82	29.0	0.254	to_board	poldrack-single-stim	s613	False
0.1	485.571	0.494	486.065	0	PA_without_intermediate	test	ward_and_allport	71	29.0	0.494	to_hand	poldrack-single-stim	s613	False
0.1	486.066	0.209	486.275	0	PA_without_intermediate	test	ward_and_allport	89	29.0	0.209	to_board	poldrack-single-stim	s613	False
1.0	486.283	2.272	486.282	0	PA_without_intermediate	test	ward_and_allport	-1	29.0	n/a	feedback	poldrack-single-stim	s613	False
6.621	493.564	6.621	500.185	1	PA_with_intermediate	test	ward_and_allport	89	30.0	6.621	to_hand	poldrack-single-stim	s613	False
0.1	500.186	0.584	500.77	0	PA_with_intermediate	test	ward_and_allport	82	30.0	0.584	to_board	poldrack-single-stim	s613	False
0.1	500.779	0.692	501.471	0	PA_with_intermediate	test	ward_and_allport	89	30.0	0.692	to_hand	poldrack-single-stim	s613	False
0.1	501.472	0.471	501.943	0	PA_with_intermediate	test	ward_and_allport	71	30.0	0.471	to_board	poldrack-single-stim	s613	False
0.1	501.951	0.61	502.561	0	PA_with_intermediate	test	ward_and_allport	82	30.0	0.61	to_hand	poldrack-single-stim	s613	False
0.1	502.562	0.319	502.881	0	PA_with_intermediate	test	ward_and_allport	89	30.0	0.319	to_board	poldrack-single-stim	s613	False
1.0	502.894	4.04	502.893	0	PA_with_intermediate	test	ward_and_allport	-1	30.0	n/a	feedback	poldrack-single-stim	s613	False
5.458	506.941	5.458	512.399	1	PA_with_intermediate	test	ward_and_allport	89	31.0	5.458	to_hand	poldrack-single-stim	s613	False
0.1	512.401	0.226	512.627	0	PA_with_intermediate	test	ward_and_allport	82	31.0	0.226	to_board	poldrack-single-stim	s613	False
0.1	512.634	2.296	514.93	0	PA_with_intermediate	test	ward_and_allport	89	31.0	2.296	to_hand	poldrack-single-stim	s613	False
0.1	514.932	0.338	515.27	0	PA_with_intermediate	test	ward_and_allport	71	31.0	0.338	to_board	poldrack-single-stim	s613	False
0.1	515.279	0.445	515.724	0	PA_with_intermediate	test	ward_and_allport	82	31.0	0.445	to_hand	poldrack-single-stim	s613	False
0.1	515.725	0.432	516.157	0	PA_with_intermediate	test	ward_and_allport	71	31.0	0.432	to_board	poldrack-single-stim	s613	False
1.0	516.167	2.272	516.166	0	PA_with_intermediate	test	ward_and_allport	-1	31.0	n/a	feedback	poldrack-single-stim	s613	False
7.193	518.448	7.193	525.641	1	PA_with_intermediate	test	ward_and_allport	82	32.0	7.193	to_hand	poldrack-single-stim	s613	False
0.1	525.641	0.387	526.028	0	PA_with_intermediate	test	ward_and_allport	89	32.0	0.387	to_board	poldrack-single-stim	s613	False
0.1	526.035	1.098	527.133	0	PA_with_intermediate	test	ward_and_allport	82	32.0	1.098	to_hand	poldrack-single-stim	s613	False
0.1	527.134	0.523	527.657	0	PA_with_intermediate	test	ward_and_allport	71	32.0	0.523	to_board	poldrack-single-stim	s613	False
0.1	527.666	0.592	528.258	0	PA_with_intermediate	test	ward_and_allport	89	32.0	0.592	to_hand	poldrack-single-stim	s613	False
0.1	528.259	0.233	528.492	0	PA_with_intermediate	test	ward_and_allport	82	32.0	0.233	to_board	poldrack-single-stim	s613	False
1.0	528.505	2.136	528.504	0	PA_with_intermediate	test	ward_and_allport	-1	32.0	n/a	feedback	poldrack-single-stim	s613	False
7.162	530.65	7.162	537.812	1	PA_with_intermediate	test	ward_and_allport	71	33.0	7.162	to_hand	poldrack-single-stim	s613	False
0.1	537.812	0.197	538.009	0	PA_with_intermediate	test	ward_and_allport	89	33.0	0.197	to_board	poldrack-single-stim	s613	False
0.1	538.019	1.162	539.181	0	PA_with_intermediate	test	ward_and_allport	71	33.0	1.162	to_hand	poldrack-single-stim	s613	False
0.1	539.183	0.204	539.387	0	PA_with_intermediate	test	ward_and_allport	82	33.0	0.204	to_board	poldrack-single-stim	s613	False
0.1	539.397	0.769	540.166	0	PA_with_intermediate	test	ward_and_allport	89	33.0	0.769	to_hand	poldrack-single-stim	s613	False
0.1	540.167	0.198	540.365	0	PA_with_intermediate	test	ward_and_allport	71	33.0	0.198	to_board	poldrack-single-stim	s613	False
1.0	540.379	2.0	540.378	0	PA_with_intermediate	test	ward_and_allport	-1	33.0	n/a	feedback	poldrack-single-stim	s613	False
6.177	542.389	6.177	548.566	1	PA_with_intermediate	test	ward_and_allport	82	34.0	6.177	to_hand	poldrack-single-stim	s613	False
0.1	548.567	0.294	548.861	0	PA_with_intermediate	test	ward_and_allport	71	34.0	0.294	to_board	poldrack-single-stim	s613	False
0.1	548.871	0.928	549.799	0	PA_with_intermediate	test	ward_and_allport	82	34.0	0.928	to_hand	poldrack-single-stim	s613	False
0.1	549.8	0.363	550.163	0	PA_with_intermediate	test	ward_and_allport	89	34.0	0.363	to_board	poldrack-single-stim	s613	False
0.1	550.173	1.002	551.175	0	PA_with_intermediate	test	ward_and_allport	71	34.0	1.002	to_hand	poldrack-single-stim	s613	False
0.1	551.176	0.281	551.457	0	PA_with_intermediate	test	ward_and_allport	89	34.0	0.281	to_board	poldrack-single-stim	s613	False
1.0	551.473	2.0	551.472	0	PA_with_intermediate	test	ward_and_allport	-1	34.0	n/a	feedback	poldrack-single-stim	s613	False
11.992	553.482	11.992	565.474	1	PA_without_intermediate	test	ward_and_allport	89	35.0	11.992	to_hand	poldrack-single-stim	s613	False
0.1	565.475	0.215	565.69	0	PA_without_intermediate	test	ward_and_allport	71	35.0	0.215	to_board	poldrack-single-stim	s613	False
0.1	565.701	1.1	566.801	0	PA_without_intermediate	test	ward_and_allport	89	35.0	1.1	to_hand	poldrack-single-stim	s613	False
0.1	566.802	0.298	567.1	0	PA_without_intermediate	test	ward_and_allport	71	35.0	0.298	to_board	poldrack-single-stim	s613	False
0.1	567.107	0.565	567.672	0	PA_without_intermediate	test	ward_and_allport	89	35.0	0.565	to_hand	poldrack-single-stim	s613	False
0.1	567.673	0.165	567.838	0	PA_without_intermediate	test	ward_and_allport	82	35.0	0.165	to_board	poldrack-single-stim	s613	False
1.0	567.85	2.408	567.849	0	PA_without_intermediate	test	ward_and_allport	-1	35.0	n/a	feedback	poldrack-single-stim	s613	False
