onset	duration	movement_onset	CTI	block_duration	correct	correct_response	cue	cue_switch	experiment_exp_id	key_press	response_time	stim_color	stim_number	switch_type	task	task_switch	trial_id	trial_type	worker_id	first_trial_of_block	junk
3.621	1.0	4.823	0.1	2.136	False	89.0	Orange-Blue	switch	twobytwo	71.0	1.102	blue	8.0	cue_switch	color	stay	stim	poldrack-single-stim	s614	1	False
6.668	1.0	8.141	0.9	2.272	True	89.0	Magnitude	n/a	twobytwo	89.0	0.573	blue	1.0	task_switch	magnitude	switch	stim	poldrack-single-stim	s614	0	False
9.052	1.0	9.953	0.1	2.136	True	71.0	Color	n/a	twobytwo	71.0	0.801	orange	3.0	task_switch	color	switch	stim	poldrack-single-stim	s614	0	False
11.297	1.0	12.047	0.1	2.272	True	71.0	Color	stay	twobytwo	71.0	0.65	orange	6.0	cue_stay	color	stay	stim	poldrack-single-stim	s614	0	False
13.673	1.0	14.485	0.1	2.0	True	89.0	Magnitude	n/a	twobytwo	89.0	0.712	blue	3.0	task_switch	magnitude	switch	stim	poldrack-single-stim	s614	0	False
16.581	1.0	18.188	0.9	2.816	False	71.0	Magnitude	stay	twobytwo	89.0	0.707	blue	7.0	cue_stay	magnitude	stay	stim	poldrack-single-stim	s614	0	False
19.503	1.0	20.376	0.1	2.408	True	71.0	High-Low	switch	twobytwo	71.0	0.773	orange	8.0	cue_switch	magnitude	stay	stim	poldrack-single-stim	s614	0	False
22.816	1.0	24.478	0.9	2.0	True	71.0	High-Low	stay	twobytwo	71.0	0.762	blue	8.0	cue_stay	magnitude	stay	stim	poldrack-single-stim	s614	0	False
25.726	1.0	27.564	0.9	2.544	True	89.0	High-Low	stay	twobytwo	89.0	0.938	orange	4.0	cue_stay	magnitude	stay	stim	poldrack-single-stim	s614	0	False
29.179	1.0	30.799	0.9	2.136	True	71.0	Color	n/a	twobytwo	71.0	0.72	orange	8.0	task_switch	color	switch	stim	poldrack-single-stim	s614	0	False
32.221	1.0	34.246	0.9	2.0	True	71.0	Magnitude	n/a	twobytwo	71.0	1.125	blue	8.0	task_switch	magnitude	switch	stim	poldrack-single-stim	s614	0	False
34.328	1.0	35.156	0.1	2.0	True	89.0	Magnitude	stay	twobytwo	89.0	0.728	blue	4.0	cue_stay	magnitude	stay	stim	poldrack-single-stim	s614	0	False
37.238	1.0	39.037	0.9	2.136	True	71.0	High-Low	switch	twobytwo	71.0	0.899	blue	7.0	cue_switch	magnitude	stay	stim	poldrack-single-stim	s614	0	False
39.478	1.0	40.347	0.1	2.136	True	71.0	High-Low	stay	twobytwo	71.0	0.769	orange	6.0	cue_stay	magnitude	stay	stim	poldrack-single-stim	s614	0	False
42.52	1.0	44.189	0.9	2.272	True	71.0	Color	n/a	twobytwo	71.0	0.769	orange	6.0	task_switch	color	switch	stim	poldrack-single-stim	s614	0	False
44.896	1.0	45.74	0.1	3.224	True	89.0	Orange-Blue	switch	twobytwo	89.0	0.744	blue	2.0	cue_switch	color	stay	stim	poldrack-single-stim	s614	0	False
49.023	1.0	50.714	0.9	2.0	True	71.0	Color	switch	twobytwo	71.0	0.791	orange	3.0	cue_switch	color	stay	stim	poldrack-single-stim	s614	0	False
51.934	1.0	53.602	0.9	2.0	True	71.0	High-Low	n/a	twobytwo	71.0	0.768	orange	7.0	task_switch	magnitude	switch	stim	poldrack-single-stim	s614	0	False
54.041	1.0	54.739	0.1	2.272	True	71.0	Orange-Blue	n/a	twobytwo	71.0	0.598	orange	7.0	task_switch	color	switch	stim	poldrack-single-stim	s614	0	False
57.224	1.0	58.945	0.9	2.136	True	71.0	Magnitude	n/a	twobytwo	71.0	0.821	blue	9.0	task_switch	magnitude	switch	stim	poldrack-single-stim	s614	0	False
59.464	1.0	60.433	0.1	2.0	True	89.0	High-Low	switch	twobytwo	89.0	0.869	blue	1.0	cue_switch	magnitude	stay	stim	poldrack-single-stim	s614	0	False
61.572	1.0	62.77	0.1	2.0	True	71.0	High-Low	stay	twobytwo	71.0	1.098	blue	6.0	cue_stay	magnitude	stay	stim	poldrack-single-stim	s614	0	False
64.479	1.0	66.054	0.9	2.0	True	89.0	High-Low	stay	twobytwo	89.0	0.675	blue	4.0	cue_stay	magnitude	stay	stim	poldrack-single-stim	s614	0	False
66.588	1.0	67.426	0.1	2.68	True	89.0	High-Low	stay	twobytwo	89.0	0.738	orange	1.0	cue_stay	magnitude	stay	stim	poldrack-single-stim	s614	0	False
69.374	1.0	70.674	0.1	2.0	False	89.0	Orange-Blue	n/a	twobytwo	71.0	1.2	blue	6.0	task_switch	color	switch	stim	poldrack-single-stim	s614	0	False
71.482	1.0	72.292	0.1	2.272	True	89.0	Magnitude	n/a	twobytwo	89.0	0.71	blue	3.0	task_switch	magnitude	switch	stim	poldrack-single-stim	s614	0	False
74.658	1.0	76.17	0.9	2.0	True	71.0	Color	n/a	twobytwo	71.0	0.612	orange	8.0	task_switch	color	switch	stim	poldrack-single-stim	s614	0	False
76.767	1.0	77.741	0.1	2.272	True	71.0	Orange-Blue	switch	twobytwo	71.0	0.874	orange	9.0	cue_switch	color	stay	stim	poldrack-single-stim	s614	0	False
79.143	1.0	80.01	0.1	2.952	True	89.0	Color	switch	twobytwo	89.0	0.767	blue	8.0	cue_switch	color	stay	stim	poldrack-single-stim	s614	0	False
82.201	1.0	83.13	0.1	2.0	True	71.0	Magnitude	n/a	twobytwo	71.0	0.829	blue	6.0	task_switch	magnitude	switch	stim	poldrack-single-stim	s614	0	False
84.309	1.0	85.402	0.1	2.0	True	71.0	High-Low	switch	twobytwo	71.0	0.993	blue	9.0	cue_switch	magnitude	stay	stim	poldrack-single-stim	s614	0	False
86.415	1.0	87.731	0.1	2.0	True	89.0	Orange-Blue	n/a	twobytwo	89.0	1.216	blue	8.0	task_switch	color	switch	stim	poldrack-single-stim	s614	0	False
88.522	1.0	89.451	0.1	2.0	True	89.0	Orange-Blue	stay	twobytwo	89.0	0.829	blue	9.0	cue_stay	color	stay	stim	poldrack-single-stim	s614	0	False
90.631	1.0	91.222	0.1	2.136	True	89.0	Color	switch	twobytwo	89.0	0.491	blue	2.0	cue_switch	color	stay	stim	poldrack-single-stim	s614	0	False
93.674	1.0	95.132	0.9	2.0	True	71.0	Magnitude	n/a	twobytwo	71.0	0.558	orange	6.0	task_switch	magnitude	switch	stim	poldrack-single-stim	s614	0	False
95.78	1.0	96.664	0.1	2.0	True	71.0	Orange-Blue	n/a	twobytwo	71.0	0.784	orange	6.0	task_switch	color	switch	stim	poldrack-single-stim	s614	0	False
97.887	1.0	98.846	0.1	2.0	True	89.0	Color	switch	twobytwo	89.0	0.859	blue	1.0	cue_switch	color	stay	stim	poldrack-single-stim	s614	0	False
99.994	1.0	100.873	0.1	2.272	False	71.0	Magnitude	n/a	twobytwo	89.0	0.779	blue	7.0	task_switch	magnitude	switch	stim	poldrack-single-stim	s614	0	False
103.171	1.0	104.692	0.9	2.136	True	71.0	Color	n/a	twobytwo	71.0	0.621	orange	4.0	task_switch	color	switch	stim	poldrack-single-stim	s614	0	False
106.214	1.0	107.906	0.9	2.0	False	89.0	High-Low	n/a	twobytwo	71.0	0.792	orange	2.0	task_switch	magnitude	switch	stim	poldrack-single-stim	s614	0	False
109.118	1.0	110.569	0.9	2.136	True	71.0	Orange-Blue	n/a	twobytwo	71.0	0.551	orange	6.0	task_switch	color	switch	stim	poldrack-single-stim	s614	0	False
112.161	1.0	113.829	0.9	2.816	True	89.0	High-Low	n/a	twobytwo	89.0	0.768	blue	2.0	task_switch	magnitude	switch	stim	poldrack-single-stim	s614	0	False
115.881	1.0	117.515	0.9	2.408	True	71.0	Magnitude	switch	twobytwo	71.0	0.734	orange	7.0	cue_switch	magnitude	stay	stim	poldrack-single-stim	s614	0	False
119.195	1.0	120.963	0.9	2.0	True	89.0	Color	n/a	twobytwo	89.0	0.868	blue	7.0	task_switch	color	switch	stim	poldrack-single-stim	s614	0	False
121.3	1.0	122.55	0.1	2.136	True	71.0	Magnitude	n/a	twobytwo	71.0	1.15	blue	8.0	task_switch	magnitude	switch	stim	poldrack-single-stim	s614	0	False
124.344	1.0	126.014	0.9	2.136	False	89.0	Magnitude	stay	twobytwo	71.0	0.77	orange	3.0	cue_stay	magnitude	stay	stim	poldrack-single-stim	s614	0	False
126.585	1.0	128.091	0.1	2.136	True	71.0	High-Low	switch	twobytwo	71.0	1.406	blue	7.0	cue_switch	magnitude	stay	stim	poldrack-single-stim	s614	0	False
128.827	1.0	129.758	0.1	2.544	True	71.0	Color	n/a	twobytwo	71.0	0.831	orange	2.0	task_switch	color	switch	stim	poldrack-single-stim	s614	0	False
131.476	1.0	132.238	0.1	2.136	True	71.0	Magnitude	n/a	twobytwo	71.0	0.662	blue	6.0	task_switch	magnitude	switch	stim	poldrack-single-stim	s614	0	False
134.519	1.0	136.045	0.9	2.0	True	71.0	Orange-Blue	n/a	twobytwo	71.0	0.626	orange	9.0	task_switch	color	switch	stim	poldrack-single-stim	s614	0	False
136.625	1.0	137.741	0.1	2.0	True	71.0	High-Low	n/a	twobytwo	71.0	1.016	blue	7.0	task_switch	magnitude	switch	stim	poldrack-single-stim	s614	0	False
139.532	1.0	141.336	0.9	2.0	True	89.0	High-Low	stay	twobytwo	89.0	0.904	orange	4.0	cue_stay	magnitude	stay	stim	poldrack-single-stim	s614	0	False
141.639	1.0	142.845	0.1	2.0	True	89.0	Color	n/a	twobytwo	89.0	1.106	blue	8.0	task_switch	color	switch	stim	poldrack-single-stim	s614	0	False
144.541	1.0	146.424	0.9	2.136	False	89.0	Magnitude	n/a	twobytwo	71.0	0.983	blue	4.0	task_switch	magnitude	switch	stim	poldrack-single-stim	s614	0	False
147.584	1.0	149.127	0.9	2.0	True	71.0	High-Low	switch	twobytwo	71.0	0.643	orange	8.0	cue_switch	magnitude	stay	stim	poldrack-single-stim	s614	0	False
150.493	1.0	152.285	0.9	2.0	True	89.0	Magnitude	switch	twobytwo	89.0	0.892	orange	2.0	cue_switch	magnitude	stay	stim	poldrack-single-stim	s614	0	False
152.6	1.0	153.491	0.1	2.0	True	71.0	Magnitude	stay	twobytwo	71.0	0.791	orange	9.0	cue_stay	magnitude	stay	stim	poldrack-single-stim	s614	0	False
155.509	1.0	157.022	0.9	2.136	True	71.0	Color	n/a	twobytwo	71.0	0.613	orange	9.0	task_switch	color	switch	stim	poldrack-single-stim	s614	0	False
157.749	1.0	158.782	0.1	2.136	False	89.0	Magnitude	n/a	twobytwo	71.0	0.933	orange	3.0	task_switch	magnitude	switch	stim	poldrack-single-stim	s614	0	False
160.788	1.0	162.507	0.9	2.136	True	89.0	Magnitude	stay	twobytwo	89.0	0.819	blue	3.0	cue_stay	magnitude	stay	stim	poldrack-single-stim	s614	0	False
163.029	1.0	164.028	0.1	2.136	True	89.0	Color	n/a	twobytwo	89.0	0.899	blue	4.0	task_switch	color	switch	stim	poldrack-single-stim	s614	0	False
165.268	1.0	166.062	0.1	2.68	True	89.0	Color	stay	twobytwo	89.0	0.694	blue	3.0	cue_stay	color	stay	stim	poldrack-single-stim	s614	0	False
168.056	1.0	168.877	0.1	2.544	True	71.0	Orange-Blue	switch	twobytwo	71.0	0.721	orange	3.0	cue_switch	color	stay	stim	poldrack-single-stim	s614	0	False
171.507	1.0	173.161	0.9	2.272	True	71.0	Color	switch	twobytwo	71.0	0.754	orange	6.0	cue_switch	color	stay	stim	poldrack-single-stim	s614	0	False
174.691	1.0	176.509	0.9	2.272	False	71.0	Orange-Blue	switch	twobytwo	89.0	0.918	orange	1.0	cue_switch	color	stay	stim	poldrack-single-stim	s614	0	False
177.872	1.0	179.709	0.9	2.408	False	89.0	High-Low	n/a	twobytwo	71.0	0.937	blue	3.0	task_switch	magnitude	switch	stim	poldrack-single-stim	s614	0	False
181.185	1.0	182.848	0.9	2.136	True	89.0	High-Low	stay	twobytwo	89.0	0.763	blue	4.0	cue_stay	magnitude	stay	stim	poldrack-single-stim	s614	0	False
183.427	1.0	184.334	0.1	2.272	False	89.0	Color	n/a	twobytwo	71.0	0.807	blue	7.0	task_switch	color	switch	stim	poldrack-single-stim	s614	0	False
185.806	1.0	187.176	0.1	2.0	True	71.0	Orange-Blue	switch	twobytwo	71.0	1.27	orange	6.0	cue_switch	color	stay	stim	poldrack-single-stim	s614	0	False
188.71	1.0	190.093	0.9	2.136	True	71.0	Color	switch	twobytwo	71.0	0.483	orange	6.0	cue_switch	color	stay	stim	poldrack-single-stim	s614	0	False
191.753	1.0	193.598	0.9	2.272	True	89.0	Color	stay	twobytwo	89.0	0.945	blue	2.0	cue_stay	color	stay	stim	poldrack-single-stim	s614	0	False
194.131	1.0	194.922	0.1	2.0	True	71.0	Magnitude	n/a	twobytwo	71.0	0.691	orange	8.0	task_switch	magnitude	switch	stim	poldrack-single-stim	s614	0	False
197.036	1.0	198.578	0.9	2.68	True	71.0	Color	n/a	twobytwo	71.0	0.642	orange	9.0	task_switch	color	switch	stim	poldrack-single-stim	s614	0	False
200.624	1.0	202.477	0.9	2.0	True	89.0	Orange-Blue	switch	twobytwo	89.0	0.953	blue	6.0	cue_switch	color	stay	stim	poldrack-single-stim	s614	0	False
203.532	1.0	205.749	0.9	2.0	True	89.0	Magnitude	n/a	twobytwo	89.0	1.317	blue	1.0	task_switch	magnitude	switch	stim	poldrack-single-stim	s614	0	False
205.636	1.0	206.474	0.1	2.0	True	71.0	Magnitude	stay	twobytwo	71.0	0.738	orange	6.0	cue_stay	magnitude	stay	stim	poldrack-single-stim	s614	0	False
208.543	1.0	210.748	0.9	2.272	False	71.0	Color	n/a	twobytwo	89.0	1.305	orange	7.0	task_switch	color	switch	stim	poldrack-single-stim	s614	0	False
210.921	1.0	212.218	0.1	2.0	True	89.0	Magnitude	n/a	twobytwo	89.0	1.197	orange	2.0	task_switch	magnitude	switch	stim	poldrack-single-stim	s614	0	False
213.828	1.0	215.483	0.9	2.0	False	71.0	Orange-Blue	n/a	twobytwo	89.0	0.755	orange	4.0	task_switch	color	switch	stim	poldrack-single-stim	s614	0	False
216.735	1.0	218.266	0.9	2.0	True	71.0	Magnitude	n/a	twobytwo	71.0	0.631	orange	8.0	task_switch	magnitude	switch	stim	poldrack-single-stim	s614	0	False
232.36	1.0	233.385	0.1	2.68	True	71.0	High-Low	switch	twobytwo	71.0	0.925	blue	8.0	cue_switch	magnitude	stay	stim	poldrack-single-stim	s614	1	False
235.946	1.0	237.486	0.9	2.0	True	89.0	Color	n/a	twobytwo	89.0	0.64	blue	1.0	task_switch	color	switch	stim	poldrack-single-stim	s614	0	False
238.051	1.0	238.837	0.1	2.136	False	89.0	Magnitude	n/a	twobytwo	71.0	0.686	orange	3.0	task_switch	magnitude	switch	stim	poldrack-single-stim	s614	0	False
240.291	1.0	241.123	0.1	2.408	True	71.0	Magnitude	stay	twobytwo	71.0	0.732	orange	6.0	cue_stay	magnitude	stay	stim	poldrack-single-stim	s614	0	False
242.803	1.0	243.886	0.1	2.136	True	89.0	Orange-Blue	n/a	twobytwo	89.0	0.983	blue	3.0	task_switch	color	switch	stim	poldrack-single-stim	s614	0	False
245.845	1.0	247.764	0.9	2.0	True	89.0	Orange-Blue	stay	twobytwo	89.0	1.019	blue	7.0	cue_stay	color	stay	stim	poldrack-single-stim	s614	0	False
247.952	1.0	248.873	0.1	2.0	True	71.0	Color	switch	twobytwo	71.0	0.821	orange	8.0	cue_switch	color	stay	stim	poldrack-single-stim	s614	0	False
250.859	1.0	252.567	0.9	2.544	True	89.0	Color	stay	twobytwo	89.0	0.808	blue	8.0	cue_stay	color	stay	stim	poldrack-single-stim	s614	0	False
254.307	1.0	256.421	0.9	2.136	True	71.0	Color	stay	twobytwo	71.0	1.214	orange	4.0	cue_stay	color	stay	stim	poldrack-single-stim	s614	0	False
257.35	1.0	258.809	0.9	2.544	True	71.0	High-Low	n/a	twobytwo	71.0	0.559	orange	8.0	task_switch	magnitude	switch	stim	poldrack-single-stim	s614	0	False
260.798	1.0	262.799	0.9	2.68	True	89.0	Color	n/a	twobytwo	89.0	1.101	blue	8.0	task_switch	color	switch	stim	poldrack-single-stim	s614	0	False
263.584	1.0	264.642	0.1	2.0	True	89.0	Color	stay	twobytwo	89.0	0.958	blue	4.0	cue_stay	color	stay	stim	poldrack-single-stim	s614	0	False
266.491	1.0	268.282	0.9	2.272	False	89.0	Orange-Blue	switch	twobytwo	71.0	0.891	blue	7.0	cue_switch	color	stay	stim	poldrack-single-stim	s614	0	False
268.874	1.0	269.949	0.1	3.088	True	71.0	Orange-Blue	stay	twobytwo	71.0	0.975	orange	6.0	cue_stay	color	stay	stim	poldrack-single-stim	s614	0	False
272.871	1.0	274.748	0.9	2.0	True	71.0	Magnitude	n/a	twobytwo	71.0	0.977	orange	6.0	task_switch	magnitude	switch	stim	poldrack-single-stim	s614	0	False
274.98	1.0	275.863	0.1	2.136	True	89.0	High-Low	switch	twobytwo	89.0	0.783	blue	2.0	cue_switch	magnitude	stay	stim	poldrack-single-stim	s614	0	False
278.02	1.0	279.575	0.9	2.136	False	89.0	Magnitude	switch	twobytwo	71.0	0.655	orange	3.0	cue_switch	magnitude	stay	stim	poldrack-single-stim	s614	0	False
281.063	1.0	282.992	0.9	2.0	True	71.0	Orange-Blue	n/a	twobytwo	71.0	1.029	orange	7.0	task_switch	color	switch	stim	poldrack-single-stim	s614	0	False
283.17	1.0	284.546	0.1	2.272	True	71.0	Magnitude	n/a	twobytwo	71.0	1.276	orange	7.0	task_switch	magnitude	switch	stim	poldrack-single-stim	s614	0	False
286.344	1.0	288.197	0.9	2.0	True	89.0	Color	n/a	twobytwo	89.0	0.953	blue	9.0	task_switch	color	switch	stim	poldrack-single-stim	s614	0	False
288.45	1.0	289.229	0.1	2.136	True	89.0	Orange-Blue	switch	twobytwo	89.0	0.679	blue	1.0	cue_switch	color	stay	stim	poldrack-single-stim	s614	0	False
290.694	1.0	291.599	0.1	2.136	True	89.0	Orange-Blue	stay	twobytwo	89.0	0.805	blue	6.0	cue_stay	color	stay	stim	poldrack-single-stim	s614	0	False
293.735	1.0	295.338	0.9	2.544	True	89.0	Orange-Blue	stay	twobytwo	89.0	0.703	blue	4.0	cue_stay	color	stay	stim	poldrack-single-stim	s614	0	False
296.385	1.0	297.245	0.1	2.0	False	71.0	Orange-Blue	stay	twobytwo	89.0	0.76	orange	1.0	cue_stay	color	stay	stim	poldrack-single-stim	s614	0	False
298.49	1.0	299.558	0.1	2.136	False	71.0	Magnitude	n/a	twobytwo	89.0	0.968	blue	6.0	task_switch	magnitude	switch	stim	poldrack-single-stim	s614	0	False
300.73	1.0	301.833	0.1	2.136	True	89.0	Color	n/a	twobytwo	89.0	1.003	blue	3.0	task_switch	color	switch	stim	poldrack-single-stim	s614	0	False
303.773	1.0	305.671	0.9	2.136	True	71.0	Magnitude	n/a	twobytwo	71.0	0.998	orange	8.0	task_switch	magnitude	switch	stim	poldrack-single-stim	s614	0	False
306.013	1.0	306.777	0.1	2.0	True	71.0	High-Low	switch	twobytwo	71.0	0.664	orange	9.0	cue_switch	magnitude	stay	stim	poldrack-single-stim	s614	0	False
308.122	1.0	308.933	0.1	2.136	True	71.0	Magnitude	switch	twobytwo	71.0	0.711	blue	8.0	cue_switch	magnitude	stay	stim	poldrack-single-stim	s614	0	False
310.365	1.0	311.353	0.1	2.0	False	89.0	Orange-Blue	n/a	twobytwo	71.0	0.888	blue	6.0	task_switch	color	switch	stim	poldrack-single-stim	s614	0	False
312.47	1.0	314.069	0.1	2.136	True	89.0	Color	switch	twobytwo	89.0	1.499	blue	9.0	cue_switch	color	stay	stim	poldrack-single-stim	s614	0	False
314.717	1.0	315.838	0.1	2.816	True	71.0	Magnitude	n/a	twobytwo	71.0	1.021	blue	8.0	task_switch	magnitude	switch	stim	poldrack-single-stim	s614	0	False
317.638	1.0	318.926	0.1	2.136	True	71.0	Magnitude	stay	twobytwo	71.0	1.188	blue	9.0	cue_stay	magnitude	stay	stim	poldrack-single-stim	s614	0	False
319.88	1.0	320.695	0.1	2.0	True	89.0	High-Low	switch	twobytwo	89.0	0.715	blue	2.0	cue_switch	magnitude	stay	stim	poldrack-single-stim	s614	0	False
322.786	1.0	324.321	0.9	2.0	True	71.0	Color	n/a	twobytwo	71.0	0.635	orange	6.0	task_switch	color	switch	stim	poldrack-single-stim	s614	0	False
324.899	1.0	326.488	0.1	2.272	True	71.0	Magnitude	n/a	twobytwo	71.0	1.489	orange	6.0	task_switch	magnitude	switch	stim	poldrack-single-stim	s614	0	False
327.278	1.0	328.029	0.1	2.0	True	89.0	High-Low	switch	twobytwo	89.0	0.651	blue	1.0	cue_switch	magnitude	stay	stim	poldrack-single-stim	s614	0	False
329.384	1.0	330.263	0.1	2.0	True	89.0	Color	n/a	twobytwo	89.0	0.779	blue	7.0	task_switch	color	switch	stim	poldrack-single-stim	s614	0	False
332.291	1.0	333.909	0.9	2.0	False	89.0	Magnitude	n/a	twobytwo	71.0	0.718	orange	4.0	task_switch	magnitude	switch	stim	poldrack-single-stim	s614	0	False
335.195	1.0	336.853	0.9	2.408	False	71.0	Orange-Blue	n/a	twobytwo	89.0	0.758	orange	2.0	task_switch	color	switch	stim	poldrack-single-stim	s614	0	False
338.51	1.0	339.98	0.9	2.272	True	71.0	Magnitude	n/a	twobytwo	71.0	0.57	orange	6.0	task_switch	magnitude	switch	stim	poldrack-single-stim	s614	0	False
341.686	1.0	343.271	0.9	2.136	True	89.0	Color	n/a	twobytwo	89.0	0.685	blue	2.0	task_switch	color	switch	stim	poldrack-single-stim	s614	0	False
344.726	1.0	346.601	0.9	2.0	True	71.0	Orange-Blue	switch	twobytwo	71.0	0.975	orange	7.0	cue_switch	color	stay	stim	poldrack-single-stim	s614	0	False
347.63	1.0	349.416	0.9	2.0	False	71.0	High-Low	n/a	twobytwo	89.0	0.886	blue	7.0	task_switch	magnitude	switch	stim	poldrack-single-stim	s614	0	False
349.736	1.0	351.123	0.1	2.136	True	89.0	Color	n/a	twobytwo	89.0	1.287	blue	8.0	task_switch	color	switch	stim	poldrack-single-stim	s614	0	False
352.783	1.0	354.326	0.9	2.0	True	71.0	Color	stay	twobytwo	71.0	0.643	orange	3.0	cue_stay	color	stay	stim	poldrack-single-stim	s614	0	False
354.886	1.0	356.022	0.1	2.136	False	89.0	Orange-Blue	switch	twobytwo	71.0	1.036	blue	7.0	cue_switch	color	stay	stim	poldrack-single-stim	s614	0	False
357.126	1.0	358.273	0.1	2.408	True	89.0	High-Low	n/a	twobytwo	89.0	1.047	orange	2.0	task_switch	magnitude	switch	stim	poldrack-single-stim	s614	0	False
359.639	1.0	361.366	0.1	2.136	True	89.0	Orange-Blue	n/a	twobytwo	89.0	1.627	blue	6.0	task_switch	color	switch	stim	poldrack-single-stim	s614	0	False
362.682	1.0	364.335	0.9	2.0	True	71.0	High-Low	n/a	twobytwo	71.0	0.753	orange	9.0	task_switch	magnitude	switch	stim	poldrack-single-stim	s614	0	False
364.786	1.0	364.785	0.1	2.136	False	89.0	Orange-Blue	n/a	twobytwo	-1.0	n/a	blue	7.0	task_switch	color	switch	stim	poldrack-single-stim	s614	0	False
367.829	1.0	369.435	0.9	2.272	True	71.0	Orange-Blue	stay	twobytwo	71.0	0.706	orange	4.0	cue_stay	color	stay	stim	poldrack-single-stim	s614	0	False
370.209	1.0	370.947	0.1	2.0	True	71.0	Magnitude	n/a	twobytwo	71.0	0.638	blue	8.0	task_switch	magnitude	switch	stim	poldrack-single-stim	s614	0	False
373.114	1.0	374.884	0.9	2.408	True	89.0	Color	n/a	twobytwo	89.0	0.87	blue	4.0	task_switch	color	switch	stim	poldrack-single-stim	s614	0	False
376.432	1.0	377.857	0.9	2.0	True	71.0	Orange-Blue	switch	twobytwo	71.0	0.525	orange	8.0	cue_switch	color	stay	stim	poldrack-single-stim	s614	0	False
379.342	1.0	381.477	0.9	2.136	True	71.0	Color	switch	twobytwo	71.0	1.235	orange	2.0	cue_switch	color	stay	stim	poldrack-single-stim	s614	0	False
381.581	1.0	382.489	0.1	2.408	True	71.0	Color	stay	twobytwo	71.0	0.808	orange	9.0	cue_stay	color	stay	stim	poldrack-single-stim	s614	0	False
384.897	1.0	386.37	0.9	2.136	True	71.0	High-Low	n/a	twobytwo	71.0	0.573	orange	9.0	task_switch	magnitude	switch	stim	poldrack-single-stim	s614	0	False
387.138	1.0	388.029	0.1	2.408	True	71.0	Color	n/a	twobytwo	71.0	0.791	orange	3.0	task_switch	color	switch	stim	poldrack-single-stim	s614	0	False
390.45	1.0	391.832	0.9	2.136	False	89.0	Color	stay	twobytwo	71.0	0.482	blue	3.0	cue_stay	color	stay	stim	poldrack-single-stim	s614	0	False
392.693	1.0	393.377	0.1	2.0	False	89.0	High-Low	n/a	twobytwo	71.0	0.584	blue	4.0	task_switch	magnitude	switch	stim	poldrack-single-stim	s614	0	False
394.8	1.0	395.448	0.1	2.272	False	89.0	High-Low	stay	twobytwo	71.0	0.548	blue	3.0	cue_stay	magnitude	stay	stim	poldrack-single-stim	s614	0	False
397.176	1.0	398.207	0.1	2.0	True	89.0	Magnitude	switch	twobytwo	89.0	0.931	orange	3.0	cue_switch	magnitude	stay	stim	poldrack-single-stim	s614	0	False
400.086	1.0	401.705	0.9	2.272	True	71.0	High-Low	switch	twobytwo	71.0	0.719	orange	6.0	cue_switch	magnitude	stay	stim	poldrack-single-stim	s614	0	False
403.265	1.0	404.827	0.9	2.272	True	89.0	Magnitude	switch	twobytwo	89.0	0.662	orange	1.0	cue_switch	magnitude	stay	stim	poldrack-single-stim	s614	0	False
406.443	1.0	407.993	0.9	2.952	False	89.0	Orange-Blue	n/a	twobytwo	71.0	0.65	blue	3.0	task_switch	color	switch	stim	poldrack-single-stim	s614	0	False
410.302	1.0	411.953	0.9	2.68	True	89.0	Orange-Blue	stay	twobytwo	89.0	0.751	blue	4.0	cue_stay	color	stay	stim	poldrack-single-stim	s614	0	False
413.086	1.0	414.722	0.1	2.136	True	71.0	High-Low	n/a	twobytwo	71.0	1.536	blue	7.0	task_switch	magnitude	switch	stim	poldrack-single-stim	s614	0	False
415.329	1.0	416.287	0.1	2.272	True	71.0	Magnitude	switch	twobytwo	71.0	0.858	orange	6.0	cue_switch	magnitude	stay	stim	poldrack-single-stim	s614	0	False
418.506	1.0	420.242	0.9	2.272	True	71.0	High-Low	switch	twobytwo	71.0	0.836	orange	6.0	cue_switch	magnitude	stay	stim	poldrack-single-stim	s614	0	False
421.683	1.0	423.479	0.9	2.136	True	89.0	High-Low	stay	twobytwo	89.0	0.896	blue	2.0	cue_stay	magnitude	stay	stim	poldrack-single-stim	s614	0	False
423.929	1.0	425.109	0.1	2.408	True	71.0	Orange-Blue	n/a	twobytwo	71.0	1.08	orange	8.0	task_switch	color	switch	stim	poldrack-single-stim	s614	0	False
427.241	1.0	428.997	0.9	2.136	True	71.0	High-Low	n/a	twobytwo	71.0	0.856	orange	9.0	task_switch	magnitude	switch	stim	poldrack-single-stim	s614	0	False
430.281	1.0	431.87	0.9	2.136	True	71.0	Magnitude	switch	twobytwo	71.0	0.689	blue	6.0	cue_switch	magnitude	stay	stim	poldrack-single-stim	s614	0	False
433.322	1.0	434.758	0.9	2.0	True	89.0	Color	n/a	twobytwo	89.0	0.536	blue	1.0	task_switch	color	switch	stim	poldrack-single-stim	s614	0	False
435.431	1.0	436.134	0.1	2.0	True	71.0	Color	stay	twobytwo	71.0	0.603	orange	6.0	cue_stay	color	stay	stim	poldrack-single-stim	s614	0	False
438.338	1.0	439.936	0.9	2.0	True	71.0	Magnitude	n/a	twobytwo	71.0	0.698	orange	7.0	task_switch	magnitude	switch	stim	poldrack-single-stim	s614	0	False
440.443	1.0	441.434	0.1	2.0	True	71.0	Color	n/a	twobytwo	71.0	0.891	orange	2.0	task_switch	color	switch	stim	poldrack-single-stim	s614	0	False
443.352	1.0	444.793	0.9	2.0	False	89.0	Magnitude	n/a	twobytwo	71.0	0.541	orange	4.0	task_switch	magnitude	switch	stim	poldrack-single-stim	s614	0	False
446.258	1.0	447.781	0.9	2.272	True	71.0	Orange-Blue	n/a	twobytwo	71.0	0.623	orange	8.0	task_switch	color	switch	stim	poldrack-single-stim	s614	0	False
462.151	1.0	462.996	0.1	2.408	True	71.0	Magnitude	switch	twobytwo	71.0	0.745	blue	8.0	cue_switch	magnitude	stay	stim	poldrack-single-stim	s614	1	False
465.47	1.0	466.991	0.9	2.0	True	89.0	Color	n/a	twobytwo	89.0	0.621	blue	1.0	task_switch	color	switch	stim	poldrack-single-stim	s614	0	False
467.574	1.0	468.371	0.1	2.136	False	89.0	High-Low	n/a	twobytwo	71.0	0.697	orange	3.0	task_switch	magnitude	switch	stim	poldrack-single-stim	s614	0	False
469.817	1.0	470.572	0.1	2.0	True	71.0	High-Low	stay	twobytwo	71.0	0.655	orange	6.0	cue_stay	magnitude	stay	stim	poldrack-single-stim	s614	0	False
471.921	1.0	472.634	0.1	2.136	True	89.0	Color	n/a	twobytwo	89.0	0.613	blue	3.0	task_switch	color	switch	stim	poldrack-single-stim	s614	0	False
474.963	1.0	476.403	0.9	2.544	True	89.0	Color	stay	twobytwo	89.0	0.54	blue	7.0	cue_stay	color	stay	stim	poldrack-single-stim	s614	0	False
477.611	1.0	478.339	0.1	2.68	True	71.0	Orange-Blue	switch	twobytwo	71.0	0.628	orange	8.0	cue_switch	color	stay	stim	poldrack-single-stim	s614	0	False
481.198	1.0	482.911	0.9	3.088	True	89.0	Orange-Blue	stay	twobytwo	89.0	0.813	blue	8.0	cue_stay	color	stay	stim	poldrack-single-stim	s614	0	False
485.191	1.0	486.859	0.9	2.136	True	71.0	Orange-Blue	stay	twobytwo	71.0	0.768	orange	4.0	cue_stay	color	stay	stim	poldrack-single-stim	s614	0	False
488.233	1.0	489.833	0.9	2.544	True	71.0	Magnitude	n/a	twobytwo	71.0	0.7	orange	8.0	task_switch	magnitude	switch	stim	poldrack-single-stim	s614	0	False
491.681	1.0	493.201	0.9	2.0	True	89.0	Orange-Blue	n/a	twobytwo	89.0	0.62	blue	8.0	task_switch	color	switch	stim	poldrack-single-stim	s614	0	False
493.788	1.0	494.684	0.1	2.136	True	89.0	Orange-Blue	stay	twobytwo	89.0	0.796	blue	4.0	cue_stay	color	stay	stim	poldrack-single-stim	s614	0	False
496.836	1.0	498.354	0.9	2.0	True	89.0	Color	switch	twobytwo	89.0	0.618	blue	7.0	cue_switch	color	stay	stim	poldrack-single-stim	s614	0	False
498.941	1.0	499.989	0.1	2.408	True	71.0	Color	stay	twobytwo	71.0	0.948	orange	6.0	cue_stay	color	stay	stim	poldrack-single-stim	s614	0	False
502.26	1.0	503.846	0.9	2.0	True	71.0	High-Low	n/a	twobytwo	71.0	0.686	orange	6.0	task_switch	magnitude	switch	stim	poldrack-single-stim	s614	0	False
504.367	1.0	505.727	0.1	2.0	True	89.0	Magnitude	switch	twobytwo	89.0	1.26	blue	2.0	cue_switch	magnitude	stay	stim	poldrack-single-stim	s614	0	False
507.274	1.0	508.91	0.9	2.0	False	89.0	High-Low	switch	twobytwo	71.0	0.736	orange	3.0	cue_switch	magnitude	stay	stim	poldrack-single-stim	s614	0	False
510.178	1.0	511.482	0.9	2.68	False	71.0	Orange-Blue	n/a	twobytwo	89.0	0.404	orange	7.0	task_switch	color	switch	stim	poldrack-single-stim	s614	0	False
512.964	1.0	513.816	0.1	2.272	True	71.0	Magnitude	n/a	twobytwo	71.0	0.752	orange	7.0	task_switch	magnitude	switch	stim	poldrack-single-stim	s614	0	False
516.141	1.0	517.783	0.9	2.408	True	89.0	Color	n/a	twobytwo	89.0	0.742	blue	9.0	task_switch	color	switch	stim	poldrack-single-stim	s614	0	False
518.653	1.0	519.674	0.1	3.224	True	89.0	Orange-Blue	switch	twobytwo	89.0	0.921	blue	1.0	cue_switch	color	stay	stim	poldrack-single-stim	s614	0	False
521.981	1.0	523.036	0.1	2.408	True	89.0	Orange-Blue	stay	twobytwo	89.0	0.955	blue	6.0	cue_stay	color	stay	stim	poldrack-single-stim	s614	0	False
525.296	1.0	526.847	0.9	2.816	True	89.0	Orange-Blue	stay	twobytwo	89.0	0.651	blue	4.0	cue_stay	color	stay	stim	poldrack-single-stim	s614	0	False
528.216	1.0	529.086	0.1	2.408	True	71.0	Orange-Blue	stay	twobytwo	71.0	0.77	orange	1.0	cue_stay	color	stay	stim	poldrack-single-stim	s614	0	False
530.73	1.0	532.007	0.1	2.136	True	71.0	High-Low	n/a	twobytwo	71.0	1.177	blue	6.0	task_switch	magnitude	switch	stim	poldrack-single-stim	s614	0	False
532.974	1.0	533.829	0.1	2.136	True	89.0	Color	n/a	twobytwo	89.0	0.755	blue	3.0	task_switch	color	switch	stim	poldrack-single-stim	s614	0	False
536.016	1.0	537.414	0.9	2.0	True	71.0	High-Low	n/a	twobytwo	71.0	0.498	orange	8.0	task_switch	magnitude	switch	stim	poldrack-single-stim	s614	0	False
538.123	1.0	538.896	0.1	2.0	True	71.0	Magnitude	switch	twobytwo	71.0	0.673	orange	9.0	cue_switch	magnitude	stay	stim	poldrack-single-stim	s614	0	False
540.23	1.0	540.88	0.1	2.272	True	71.0	High-Low	switch	twobytwo	71.0	0.55	blue	8.0	cue_switch	magnitude	stay	stim	poldrack-single-stim	s614	0	False
542.611	1.0	543.808	0.1	2.408	True	89.0	Orange-Blue	n/a	twobytwo	89.0	1.097	blue	6.0	task_switch	color	switch	stim	poldrack-single-stim	s614	0	False
545.126	1.0	545.994	0.1	2.0	True	89.0	Color	switch	twobytwo	89.0	0.768	blue	9.0	cue_switch	color	stay	stim	poldrack-single-stim	s614	0	False
547.23	1.0	547.976	0.1	2.136	False	71.0	High-Low	n/a	twobytwo	89.0	0.646	blue	8.0	task_switch	magnitude	switch	stim	poldrack-single-stim	s614	0	False
549.473	1.0	550.685	0.1	2.0	True	71.0	High-Low	stay	twobytwo	71.0	1.112	blue	9.0	cue_stay	magnitude	stay	stim	poldrack-single-stim	s614	0	False
551.578	1.0	552.431	0.1	2.408	True	89.0	Magnitude	switch	twobytwo	89.0	0.753	blue	2.0	cue_switch	magnitude	stay	stim	poldrack-single-stim	s614	0	False
554.892	1.0	556.496	0.9	2.272	True	71.0	Color	n/a	twobytwo	71.0	0.704	orange	6.0	task_switch	color	switch	stim	poldrack-single-stim	s614	0	False
557.27	1.0	558.347	0.1	2.0	True	71.0	High-Low	n/a	twobytwo	71.0	0.977	orange	6.0	task_switch	magnitude	switch	stim	poldrack-single-stim	s614	0	False
559.377	1.0	560.249	0.1	2.272	True	89.0	Magnitude	switch	twobytwo	89.0	0.772	blue	1.0	cue_switch	magnitude	stay	stim	poldrack-single-stim	s614	0	False
561.755	1.0	562.607	0.1	2.0	True	89.0	Color	n/a	twobytwo	89.0	0.752	blue	7.0	task_switch	color	switch	stim	poldrack-single-stim	s614	0	False
564.663	1.0	566.431	0.9	2.0	False	89.0	Magnitude	n/a	twobytwo	71.0	0.868	orange	4.0	task_switch	magnitude	switch	stim	poldrack-single-stim	s614	0	False
567.57	1.0	569.231	0.9	2.272	False	71.0	Color	n/a	twobytwo	89.0	0.761	orange	2.0	task_switch	color	switch	stim	poldrack-single-stim	s614	0	False
570.746	1.0	572.242	0.9	2.136	True	71.0	Magnitude	n/a	twobytwo	71.0	0.596	orange	6.0	task_switch	magnitude	switch	stim	poldrack-single-stim	s614	0	False
573.788	1.0	575.381	0.9	2.0	False	89.0	Color	n/a	twobytwo	71.0	0.693	blue	2.0	task_switch	color	switch	stim	poldrack-single-stim	s614	0	False
576.693	1.0	578.366	0.9	2.0	True	71.0	Orange-Blue	switch	twobytwo	71.0	0.773	orange	7.0	cue_switch	color	stay	stim	poldrack-single-stim	s614	0	False
579.597	1.0	581.269	0.9	2.0	False	71.0	High-Low	n/a	twobytwo	89.0	0.772	blue	7.0	task_switch	magnitude	switch	stim	poldrack-single-stim	s614	0	False
581.704	1.0	583.01	0.1	2.0	True	89.0	Color	n/a	twobytwo	89.0	1.206	blue	8.0	task_switch	color	switch	stim	poldrack-single-stim	s614	0	False
584.616	1.0	586.196	0.9	2.0	True	71.0	Color	stay	twobytwo	71.0	0.68	orange	3.0	cue_stay	color	stay	stim	poldrack-single-stim	s614	0	False
586.719	1.0	586.718	0.1	2.136	False	89.0	Orange-Blue	switch	twobytwo	-1.0	n/a	blue	7.0	cue_switch	color	stay	stim	poldrack-single-stim	s614	0	False
588.959	1.0	589.841	0.1	2.0	True	89.0	Magnitude	n/a	twobytwo	89.0	0.782	orange	2.0	task_switch	magnitude	switch	stim	poldrack-single-stim	s614	0	False
591.064	1.0	591.84	0.1	2.0	False	89.0	Orange-Blue	n/a	twobytwo	71.0	0.676	blue	6.0	task_switch	color	switch	stim	poldrack-single-stim	s614	0	False
593.973	1.0	595.431	0.9	2.136	True	71.0	Magnitude	n/a	twobytwo	71.0	0.558	orange	9.0	task_switch	magnitude	switch	stim	poldrack-single-stim	s614	0	False
596.215	1.0	597.245	0.1	2.0	False	89.0	Color	n/a	twobytwo	71.0	0.93	blue	7.0	task_switch	color	switch	stim	poldrack-single-stim	s614	0	False
599.12	1.0	600.74	0.9	2.136	True	71.0	Color	stay	twobytwo	71.0	0.72	orange	4.0	cue_stay	color	stay	stim	poldrack-single-stim	s614	0	False
601.362	1.0	603.223	0.1	2.68	False	71.0	Magnitude	n/a	twobytwo	89.0	1.761	blue	8.0	task_switch	magnitude	switch	stim	poldrack-single-stim	s614	0	False
604.947	1.0	606.785	0.9	2.272	True	89.0	Color	n/a	twobytwo	89.0	0.938	blue	4.0	task_switch	color	switch	stim	poldrack-single-stim	s614	0	False
608.124	1.0	609.761	0.9	2.136	True	71.0	Orange-Blue	switch	twobytwo	71.0	0.737	orange	8.0	cue_switch	color	stay	stim	poldrack-single-stim	s614	0	False
611.171	1.0	612.849	0.9	2.0	True	71.0	Color	switch	twobytwo	71.0	0.778	orange	2.0	cue_switch	color	stay	stim	poldrack-single-stim	s614	0	False
613.276	1.0	613.86	0.1	2.136	True	71.0	Color	stay	twobytwo	71.0	0.484	orange	9.0	cue_stay	color	stay	stim	poldrack-single-stim	s614	0	False
616.32	1.0	617.835	0.9	2.68	True	71.0	High-Low	n/a	twobytwo	71.0	0.615	orange	9.0	task_switch	magnitude	switch	stim	poldrack-single-stim	s614	0	False
619.107	1.0	619.811	0.1	2.272	True	71.0	Color	n/a	twobytwo	71.0	0.604	orange	3.0	task_switch	color	switch	stim	poldrack-single-stim	s614	0	False
622.286	1.0	623.821	0.9	2.0	True	89.0	Color	stay	twobytwo	89.0	0.635	blue	3.0	cue_stay	color	stay	stim	poldrack-single-stim	s614	0	False
624.392	1.0	625.726	0.1	2.0	True	89.0	Magnitude	n/a	twobytwo	89.0	1.234	blue	4.0	task_switch	magnitude	switch	stim	poldrack-single-stim	s614	0	False
626.5	1.0	627.14	0.1	2.136	True	89.0	Magnitude	stay	twobytwo	89.0	0.54	blue	3.0	cue_stay	magnitude	stay	stim	poldrack-single-stim	s614	0	False
628.745	1.0	629.622	0.1	2.0	False	89.0	High-Low	switch	twobytwo	71.0	0.777	orange	3.0	cue_switch	magnitude	stay	stim	poldrack-single-stim	s614	0	False
631.652	1.0	633.249	0.9	2.0	False	71.0	Magnitude	switch	twobytwo	89.0	0.697	orange	6.0	cue_switch	magnitude	stay	stim	poldrack-single-stim	s614	0	False
634.559	1.0	636.72	0.9	2.0	True	89.0	High-Low	switch	twobytwo	89.0	1.261	orange	1.0	cue_switch	magnitude	stay	stim	poldrack-single-stim	s614	0	False
637.466	1.0	638.942	0.9	2.272	True	89.0	Color	n/a	twobytwo	89.0	0.576	blue	3.0	task_switch	color	switch	stim	poldrack-single-stim	s614	0	False
640.646	1.0	642.119	0.9	2.408	True	89.0	Color	stay	twobytwo	89.0	0.573	blue	4.0	cue_stay	color	stay	stim	poldrack-single-stim	s614	0	False
643.162	1.0	644.137	0.1	2.0	True	71.0	Magnitude	n/a	twobytwo	71.0	0.875	blue	7.0	task_switch	magnitude	switch	stim	poldrack-single-stim	s614	0	False
645.269	1.0	646.495	0.1	2.0	True	71.0	High-Low	switch	twobytwo	71.0	1.126	orange	6.0	cue_switch	magnitude	stay	stim	poldrack-single-stim	s614	0	False
648.175	1.0	649.646	0.9	2.0	True	71.0	Magnitude	switch	twobytwo	71.0	0.571	orange	6.0	cue_switch	magnitude	stay	stim	poldrack-single-stim	s614	0	False
651.08	1.0	652.772	0.9	2.272	True	89.0	Magnitude	stay	twobytwo	89.0	0.792	blue	2.0	cue_stay	magnitude	stay	stim	poldrack-single-stim	s614	0	False
653.458	1.0	654.429	0.1	2.136	True	71.0	Orange-Blue	n/a	twobytwo	71.0	0.871	orange	8.0	task_switch	color	switch	stim	poldrack-single-stim	s614	0	False
656.5	1.0	657.981	0.9	2.0	True	71.0	High-Low	n/a	twobytwo	71.0	0.581	orange	9.0	task_switch	magnitude	switch	stim	poldrack-single-stim	s614	0	False
659.41	1.0	661.034	0.9	2.544	False	71.0	Magnitude	switch	twobytwo	89.0	0.724	blue	6.0	cue_switch	magnitude	stay	stim	poldrack-single-stim	s614	0	False
662.864	1.0	664.382	0.9	2.272	True	89.0	Color	n/a	twobytwo	89.0	0.618	blue	1.0	task_switch	color	switch	stim	poldrack-single-stim	s614	0	False
665.243	1.0	666.032	0.1	2.272	True	71.0	Color	stay	twobytwo	71.0	0.689	orange	6.0	cue_stay	color	stay	stim	poldrack-single-stim	s614	0	False
668.421	1.0	669.93	0.9	2.0	True	71.0	High-Low	n/a	twobytwo	71.0	0.609	orange	7.0	task_switch	magnitude	switch	stim	poldrack-single-stim	s614	0	False
670.526	1.0	671.364	0.1	2.0	True	71.0	Color	n/a	twobytwo	71.0	0.738	orange	2.0	task_switch	color	switch	stim	poldrack-single-stim	s614	0	False
673.432	1.0	675.211	0.9	2.136	False	89.0	Magnitude	n/a	twobytwo	71.0	0.879	orange	4.0	task_switch	magnitude	switch	stim	poldrack-single-stim	s614	0	False
676.474	1.0	678.54	0.9	2.0	True	71.0	Color	n/a	twobytwo	71.0	1.166	orange	8.0	task_switch	color	switch	stim	poldrack-single-stim	s614	0	False
