onset	duration	movement_onset	EV	action	block_duration	experiment_exp_id	gain_amount	gain_probability	key_press	loss_amount	loss_probability	num_cards	num_click_in_round	num_loss_cards	risk	response_time	total_cards	trial_id	trial_type	worker_id	junk	feedback
3.011	1.665	4.676	-0.3295457049525097	draw_card	1.665	columbia_card_task_fmri	12.0	0.8333333333333334	89.0	-70.0	0.1666666666666666	6.0	1.0	1.0	-1.143285726724805	1.665	n/a	stim	poldrack-single-stim	s614	False	1
4.68	2.549	7.229	-3.062879038285842	draw_card	2.549	columbia_card_task_fmri	12.0	0.8	89.0	-70.0	0.2	6.0	2.0	1.0	1.0951231582470309	2.549	n/a	stim	poldrack-single-stim	s614	False	1
7.23	1.597	8.827	-7.162879038285844	draw_card	1.597	columbia_card_task_fmri	12.0	0.75	89.0	-70.0	0.25	6.0	3.0	1.0	3.8000892395786856	1.597	n/a	stim	poldrack-single-stim	s614	False	1
8.829	1.682	10.511	-13.996212371619176	end_round	1.682	columbia_card_task_fmri	12.0	0.6666666666666667	71.0	-70.0	0.3333333333333333	6.0	4.0	1.0	6.946169979704383	1.682	3.0	stim	poldrack-single-stim	s614	False	1
11.267	1.5	10.516	n/a	-1.0	2.454	columbia_card_task_fmri	n/a	n/a	-1.0	n/a	n/a	n/a	n/a	n/a	n/a	n/a	n/a	ITI	poldrack-single-stim	s614	False	0
12.974	1.587	14.561	0.5037876283808242	draw_card	1.587	columbia_card_task_fmri	14.0	0.8333333333333334	89.0	-75.0	0.1666666666666666	6.0	1.0	1.0	1.4631625303491766	1.587	n/a	stim	poldrack-single-stim	s614	False	1
14.563	0.735	15.298	-2.4628790382858425	draw_card	0.735	columbia_card_task_fmri	14.0	0.8	89.0	-75.0	0.2	6.0	2.0	1.0	3.8929820131558337	0.735	n/a	stim	poldrack-single-stim	s614	False	1
15.3	0.927	16.227	-6.912879038285844	draw_card	0.927	columbia_card_task_fmri	14.0	0.75	89.0	-75.0	0.25	6.0	3.0	1.0	6.829199914243805	0.927	n/a	stim	poldrack-single-stim	s614	False	1
16.229	1.929	18.158	-14.32954570495251	draw_card	1.929	columbia_card_task_fmri	14.0	0.6666666666666667	89.0	-75.0	0.3333333333333333	6.0	4.0	1.0	10.244184218510757	1.929	4.0	stim	poldrack-single-stim	s614	False	0
18.913	1.5	18.162	n/a	-1.0	2.454	columbia_card_task_fmri	n/a	n/a	-1.0	n/a	n/a	n/a	n/a	n/a	n/a	n/a	n/a	ITI	poldrack-single-stim	s614	False	0
20.619	1.455	22.074	2.1704542950474903	draw_card	1.455	columbia_card_task_fmri	15.0	0.8333333333333334	89.0	-70.0	0.1666666666666666	6.0	1.0	1.0	-0.0262827525466065	1.455	n/a	stim	poldrack-single-stim	s614	False	1
22.076	0.304	22.38	-0.6628790382858436	draw_card	0.304	columbia_card_task_fmri	15.0	0.8	89.0	-70.0	0.2	6.0	2.0	1.0	2.29416239175875	0.304	n/a	stim	poldrack-single-stim	s614	False	1
22.382	0.262	22.644	-4.912879038285844	draw_card	0.262	columbia_card_task_fmri	15.0	0.75	89.0	-70.0	0.25	6.0	3.0	1.0	5.098239670806446	0.262	3.0	stim	poldrack-single-stim	s614	False	0
23.396	1.5	22.645	n/a	-1.0	2.522	columbia_card_task_fmri	n/a	n/a	-1.0	n/a	n/a	n/a	n/a	n/a	n/a	n/a	n/a	ITI	poldrack-single-stim	s614	False	0
25.171	0.761	25.932	3.003787628380824	draw_card	0.761	columbia_card_task_fmri	17.0	0.8333333333333334	89.0	-75.0	0.1666666666666666	6.0	1.0	1.0	2.5803186916341225	0.761	n/a	stim	poldrack-single-stim	s614	False	1
25.934	0.723	26.657	-0.0628790382858421	draw_card	0.723	columbia_card_task_fmri	17.0	0.8	89.0	-75.0	0.2	6.0	2.0	1.0	5.092164018576636	0.723	n/a	stim	poldrack-single-stim	s614	False	1
26.659	1.315	27.974	-4.662879038285844	end_round	1.315	columbia_card_task_fmri	17.0	0.75	71.0	-75.0	0.25	6.0	3.0	1.0	8.127482275542395	1.315	2.0	stim	poldrack-single-stim	s614	False	1
28.729	1.5	27.978	n/a	-1.0	2.386	columbia_card_task_fmri	n/a	n/a	-1.0	n/a	n/a	n/a	n/a	n/a	n/a	n/a	n/a	ITI	poldrack-single-stim	s614	False	0
30.367	2.261	32.628	4.337120961714156	draw_card	2.261	columbia_card_task_fmri	24.0	0.75	89.0	-60.0	0.25	8.0	1.0	2.0	4.665515822523478	2.261	n/a	stim	poldrack-single-stim	s614	False	1
32.63	1.066	33.696	1.3371209617141564	draw_card	1.066	columbia_card_task_fmri	24.0	0.7142857142857143	89.0	-60.0	0.2857142857142857	8.0	2.0	2.0	6.238762179801785	1.066	n/a	stim	poldrack-single-stim	s614	False	1
33.699	2.401	36.1	-2.662879038285844	draw_card	2.401	columbia_card_task_fmri	24.0	0.6666666666666667	89.0	-60.0	0.3333333333333333	8.0	3.0	2.0	7.88842888006776	2.401	n/a	stim	poldrack-single-stim	s614	False	1
36.102	2.034	38.136	-8.262879038285845	end_round	2.034	columbia_card_task_fmri	24.0	0.6	71.0	-60.0	0.4	8.0	4.0	2.0	9.441025296426094	2.034	3.0	stim	poldrack-single-stim	s614	False	1
38.892	1.5	38.141	n/a	-1.0	2.454	columbia_card_task_fmri	n/a	n/a	-1.0	n/a	n/a	n/a	n/a	n/a	n/a	n/a	n/a	ITI	poldrack-single-stim	s614	False	0
40.598	2.139	42.737	4.337120961714156	draw_card	2.139	columbia_card_task_fmri	29.0	0.75	89.0	-75.0	0.25	8.0	1.0	2.0	13.32104741037762	2.139	n/a	stim	poldrack-single-stim	s614	False	1
42.739	0.556	43.295	0.6228352474284446	draw_card	0.556	columbia_card_task_fmri	29.0	0.7142857142857143	89.0	-75.0	0.2857142857142857	8.0	2.0	2.0	15.26931436680096	0.556	n/a	stim	poldrack-single-stim	s614	False	1
43.297	3.075	46.372	-4.329545704952508	draw_card	3.075	columbia_card_task_fmri	29.0	0.6666666666666667	89.0	-75.0	0.3333333333333333	8.0	3.0	2.0	17.312180885760693	3.075	n/a	stim	poldrack-single-stim	s614	False	1
46.374	2.37	48.744	-11.262879038285844	draw_card	2.37	columbia_card_task_fmri	29.0	0.6	89.0	-75.0	0.4	8.0	4.0	2.0	19.23480941379186	2.37	4.0	stim	poldrack-single-stim	s614	False	0
49.497	1.5	48.746	n/a	-1.0	2.522	columbia_card_task_fmri	n/a	n/a	-1.0	n/a	n/a	n/a	n/a	n/a	n/a	n/a	n/a	ITI	poldrack-single-stim	s614	False	0
51.272	1.172	52.444	0.1148987394919367	draw_card	1.172	columbia_card_task_fmri	17.0	0.7777777777777778	89.0	-65.0	0.2222222222222222	9.0	1.0	2.0	2.38474874424995	1.172	1.0	stim	poldrack-single-stim	s614	False	0
53.198	1.5	52.447	n/a	-1.0	2.522	columbia_card_task_fmri	n/a	n/a	-1.0	n/a	n/a	n/a	n/a	n/a	n/a	n/a	n/a	ITI	poldrack-single-stim	s614	False	0
54.971	1.263	56.234	4.437120961714156	draw_card	1.263	columbia_card_task_fmri	14.0	0.9	89.0	-95.0	0.1	10.0	1.0	1.0	0.995206401157848	1.263	n/a	stim	poldrack-single-stim	s614	False	1
56.235	1.234	57.469	3.226009850603044	draw_card	1.234	columbia_card_task_fmri	14.0	0.8888888888888888	89.0	-95.0	0.1111111111111111	10.0	2.0	1.0	2.549361767510785	1.234	n/a	stim	poldrack-single-stim	s614	False	1
57.471	0.716	58.187	1.7121209617141564	draw_card	0.716	columbia_card_task_fmri	14.0	0.875	89.0	-95.0	0.125	10.0	3.0	1.0	4.341031629156337	0.716	n/a	stim	poldrack-single-stim	s614	False	1
58.189	1.633	59.822	-0.2343076097144147	draw_card	1.633	columbia_card_task_fmri	14.0	0.8571428571428572	89.0	-95.0	0.1428571428571428	10.0	4.0	1.0	6.4333646693758375	1.633	4.0	stim	poldrack-single-stim	s614	False	0
60.578	1.5	59.827	n/a	-1.0	2.59	columbia_card_task_fmri	n/a	n/a	-1.0	n/a	n/a	n/a	n/a	n/a	n/a	n/a	n/a	ITI	poldrack-single-stim	s614	False	0
62.421	1.558	63.979	0.3371209617141564	draw_card	1.558	columbia_card_task_fmri	15.0	0.8	89.0	-65.0	0.2	10.0	1.0	2.0	0.2958036502876489	1.558	n/a	stim	poldrack-single-stim	s614	False	1
63.981	1.466	65.447	-1.4406568160636204	draw_card	1.466	columbia_card_task_fmri	15.0	0.7777777777777778	89.0	-65.0	0.2222222222222222	10.0	2.0	2.0	1.553924115957809	1.466	n/a	stim	poldrack-single-stim	s614	False	1
65.449	1.727	67.176	-3.662879038285844	draw_card	1.727	columbia_card_task_fmri	15.0	0.75	89.0	-65.0	0.25	10.0	3.0	2.0	2.934692565065138	1.727	n/a	stim	poldrack-single-stim	s614	False	1
67.178	1.204	68.382	-6.520021895428698	end_round	1.204	columbia_card_task_fmri	15.0	0.7142857142857143	71.0	-65.0	0.2857142857142857	10.0	4.0	2.0	4.432923100240149	1.204	3.0	stim	poldrack-single-stim	s614	False	1
69.138	1.5	68.387	n/a	-1.0	2.454	columbia_card_task_fmri	n/a	n/a	-1.0	n/a	n/a	n/a	n/a	n/a	n/a	n/a	n/a	ITI	poldrack-single-stim	s614	False	0
70.844	2.873	73.717	1.9371209617141576	draw_card	2.873	columbia_card_task_fmri	17.0	0.8	89.0	-65.0	0.2	10.0	1.0	2.0	1.0951231582470309	2.873	n/a	stim	poldrack-single-stim	s614	False	1
73.72	0.946	74.666	0.1148987394919367	draw_card	0.946	columbia_card_task_fmri	17.0	0.7777777777777778	89.0	-65.0	0.2222222222222222	10.0	2.0	2.0	2.38474874424995	0.946	n/a	stim	poldrack-single-stim	s614	False	1
74.668	1.173	75.841	-2.162879038285844	draw_card	1.173	columbia_card_task_fmri	17.0	0.75	89.0	-65.0	0.25	10.0	3.0	2.0	3.8000892395786856	1.173	n/a	stim	poldrack-single-stim	s614	False	1
75.843	1.425	77.268	-5.091450466857271	draw_card	1.425	columbia_card_task_fmri	17.0	0.7142857142857143	89.0	-65.0	0.2857142857142857	10.0	4.0	2.0	5.335828303712408	1.425	4.0	stim	poldrack-single-stim	s614	False	0
78.021	1.5	77.27	n/a	-1.0	2.318	columbia_card_task_fmri	n/a	n/a	-1.0	n/a	n/a	n/a	n/a	n/a	n/a	n/a	n/a	ITI	poldrack-single-stim	s614	False	0
79.592	1.558	81.15	0.5037876283808242	draw_card	1.558	columbia_card_task_fmri	13.0	0.8333333333333334	89.0	-70.0	0.1666666666666666	12.0	1.0	2.0	-0.7709596716980336	1.558	n/a	stim	poldrack-single-stim	s614	False	1
81.152	0.686	81.838	-0.7537881291949371	draw_card	0.686	columbia_card_task_fmri	13.0	0.8181818181818181	89.0	-70.0	0.1818181818181818	12.0	2.0	2.0	0.3084450809153942	0.686	n/a	stim	poldrack-single-stim	s614	False	1
81.84	0.753	82.593	-2.2628790382858432	draw_card	0.753	columbia_card_task_fmri	13.0	0.8	89.0	-70.0	0.2	12.0	3.0	2.0	1.494795195089775	0.753	n/a	stim	poldrack-single-stim	s614	False	1
82.595	1.012	83.607	-4.107323482730289	end_round	1.012	columbia_card_task_fmri	13.0	0.7777777777777778	71.0	-70.0	0.2222222222222222	12.0	4.0	2.0	2.800172878439785	1.012	3.0	stim	poldrack-single-stim	s614	False	1
84.362	1.5	83.611	n/a	-1.0	2.25	columbia_card_task_fmri	n/a	n/a	-1.0	n/a	n/a	n/a	n/a	n/a	n/a	n/a	n/a	ITI	poldrack-single-stim	s614	False	0
85.864	1.534	87.398	0.5037876283808242	draw_card	1.534	columbia_card_task_fmri	15.0	0.8333333333333334	89.0	-80.0	0.1666666666666666	12.0	1.0	2.0	3.697530233449914	1.534	n/a	stim	poldrack-single-stim	s614	False	1
87.4	0.422	87.822	-0.9356063110131188	draw_card	0.422	columbia_card_task_fmri	15.0	0.8181818181818181	89.0	-80.0	0.1818181818181818	12.0	2.0	2.0	4.933257087212606	0.422	n/a	stim	poldrack-single-stim	s614	False	1
87.825	0.528	88.353	-2.662879038285844	draw_card	0.528	columbia_card_task_fmri	15.0	0.8	89.0	-80.0	0.2	12.0	3.0	2.0	6.291397637297035	0.528	n/a	stim	poldrack-single-stim	s614	False	1
88.356	0.542	88.898	-4.7739901493969565	draw_card	0.542	columbia_card_task_fmri	15.0	0.7777777777777778	89.0	-80.0	0.2222222222222222	12.0	4.0	2.0	7.785780206930109	0.542	n/a	stim	poldrack-single-stim	s614	False	1
88.9	1.372	90.272	-7.412879038285844	draw_card	1.372	columbia_card_task_fmri	15.0	0.75	89.0	-80.0	0.25	12.0	5.0	2.0	9.425812329020058	1.372	n/a	stim	poldrack-single-stim	s614	False	1
90.274	2.488	92.762	-10.805736181142985	draw_card	2.488	columbia_card_task_fmri	15.0	0.7142857142857143	89.0	-80.0	0.2857142857142857	12.0	6.0	2.0	11.20533018446135	2.488	n/a	stim	poldrack-single-stim	s614	False	1
92.764	2.055	94.819	-15.329545704952508	end_round	2.055	columbia_card_task_fmri	15.0	0.6666666666666667	71.0	-80.0	0.3333333333333333	12.0	7.0	2.0	13.071266582446937	2.055	6.0	stim	poldrack-single-stim	s614	False	1
95.576	1.5	94.825	n/a	-1.0	2.658	columbia_card_task_fmri	n/a	n/a	-1.0	n/a	n/a	n/a	n/a	n/a	n/a	n/a	n/a	ITI	poldrack-single-stim	s614	False	0
97.487	2.035	99.522	-0.4628790382858425	draw_card	2.035	columbia_card_task_fmri	14.0	0.8	89.0	-65.0	0.2	15.0	1.0	3.0	-0.1038431999964366	2.035	n/a	stim	poldrack-single-stim	s614	False	1
99.524	0.432	99.956	-1.5914504668572709	draw_card	0.432	columbia_card_task_fmri	14.0	0.7857142857142857	89.0	-65.0	0.2142857142857142	15.0	2.0	3.0	0.711192186103883	0.432	n/a	stim	poldrack-single-stim	s614	False	1
99.959	0.322	100.281	-2.8936482690550758	draw_card	0.322	columbia_card_task_fmri	14.0	0.7692307692307692	89.0	-65.0	0.2307692307692307	15.0	3.0	3.0	1.579405270831206	0.322	n/a	stim	poldrack-single-stim	s614	False	1
100.284	0.656	100.94	-4.412879038285844	draw_card	0.656	columbia_card_task_fmri	14.0	0.75	89.0	-65.0	0.25	15.0	4.0	3.0	2.502006152268546	0.656	n/a	stim	poldrack-single-stim	s614	False	1
100.942	0.593	101.535	-6.208333583740389	draw_card	0.593	columbia_card_task_fmri	14.0	0.7272727272727273	89.0	-65.0	0.2727272727272727	15.0	5.0	3.0	3.47685884001972	0.593	n/a	stim	poldrack-single-stim	s614	False	1
101.538	0.912	102.45	-8.362879038285845	draw_card	0.912	columbia_card_task_fmri	14.0	0.7	89.0	-65.0	0.3	15.0	6.0	3.0	4.494912633992303	0.912	n/a	stim	poldrack-single-stim	s614	False	1
102.451	0.635	103.086	-10.996212371619174	draw_card	0.635	columbia_card_task_fmri	14.0	0.6666666666666667	89.0	-65.0	0.3333333333333333	15.0	7.0	3.0	5.532833808931901	0.635	n/a	stim	poldrack-single-stim	s614	False	1
103.089	2.415	105.504	-14.287879038285844	draw_card	2.415	columbia_card_task_fmri	14.0	0.625	89.0	-65.0	0.375	15.0	8.0	3.0	6.536957184073881	2.415	8.0	stim	poldrack-single-stim	s614	False	0
106.259	1.5	105.508	n/a	-1.0	2.454	columbia_card_task_fmri	n/a	n/a	-1.0	n/a	n/a	n/a	n/a	n/a	n/a	n/a	n/a	ITI	poldrack-single-stim	s614	False	0
107.965	1.136	109.101	-0.5378790382858436	draw_card	1.136	columbia_card_task_fmri	1.0	0.9375	89.0	-45.0	0.0625	16.0	1.0	1.0	-20.517296426923416	1.136	n/a	stim	poldrack-single-stim	s614	False	1
109.103	1.158	110.261	-0.72954570495251	draw_card	1.158	columbia_card_task_fmri	1.0	0.9333333333333332	89.0	-45.0	0.0666666666666666	16.0	2.0	1.0	-20.18005892819348	1.158	n/a	stim	poldrack-single-stim	s614	False	1
110.264	0.317	110.581	-0.9485933240001292	draw_card	0.317	columbia_card_task_fmri	1.0	0.9285714285714286	89.0	-45.0	0.0714285714285714	16.0	3.0	1.0	-19.81008864749012	0.317	n/a	stim	poldrack-single-stim	s614	False	1
110.584	0.259	110.843	-1.201340576747382	draw_card	0.259	columbia_card_task_fmri	1.0	0.9230769230769232	89.0	-45.0	0.0769230769230769	16.0	4.0	1.0	-19.40181531941624	0.259	n/a	stim	poldrack-single-stim	s614	False	1
110.845	0.234	111.079	-1.496212371619177	draw_card	0.234	columbia_card_task_fmri	1.0	0.9166666666666666	89.0	-45.0	0.0833333333333333	16.0	5.0	1.0	-18.948271529865856	0.234	n/a	stim	poldrack-single-stim	s614	False	1
111.081	0.36	111.441	-1.8446972201040253	draw_card	0.36	columbia_card_task_fmri	1.0	0.9090909090909092	89.0	-45.0	0.0909090909090909	16.0	6.0	1.0	-18.44062174396055	0.36	n/a	stim	poldrack-single-stim	s614	False	1
111.444	0.378	111.822	-2.262879038285844	draw_card	0.378	columbia_card_task_fmri	1.0	0.9	89.0	-45.0	0.1	16.0	7.0	1.0	-17.867492603339144	0.378	n/a	stim	poldrack-single-stim	s614	False	1
111.824	0.38	112.204	-2.7739901493969543	draw_card	0.38	columbia_card_task_fmri	1.0	0.8888888888888888	89.0	-45.0	0.1111111111111111	16.0	8.0	1.0	-17.214008993838405	0.38	n/a	stim	poldrack-single-stim	s614	False	1
112.206	0.81	113.016	-3.412879038285844	draw_card	0.81	columbia_card_task_fmri	1.0	0.875	89.0	-45.0	0.125	16.0	9.0	1.0	-16.460401272659404	0.81	9.0	stim	poldrack-single-stim	s614	False	0
113.773	1.5	113.022	n/a	-1.0	2.386	columbia_card_task_fmri	n/a	n/a	-1.0	n/a	n/a	n/a	n/a	n/a	n/a	n/a	n/a	ITI	poldrack-single-stim	s614	False	0
115.412	1.899	117.311	0.3996209617141564	draw_card	1.899	columbia_card_task_fmri	15.0	0.8125	89.0	-70.0	0.1875	16.0	1.0	3.0	1.471366068951287	1.899	n/a	stim	poldrack-single-stim	s614	False	1
117.313	0.435	117.748	-0.6628790382858436	draw_card	0.435	columbia_card_task_fmri	15.0	0.8	89.0	-70.0	0.2	16.0	2.0	3.0	2.29416239175875	0.435	n/a	stim	poldrack-single-stim	s614	False	1
117.751	0.778	118.529	-1.877164752571559	draw_card	0.778	columbia_card_task_fmri	15.0	0.7857142857142857	89.0	-70.0	0.2142857142857142	16.0	3.0	3.0	3.171203266710972	0.778	n/a	stim	poldrack-single-stim	s614	False	1
118.532	1.989	120.521	-3.2782636536704604	end_round	1.989	columbia_card_task_fmri	15.0	0.7692307692307692	71.0	-70.0	0.2307692307692307	16.0	4.0	3.0	4.105461840183342	1.989	3.0	stim	poldrack-single-stim	s614	False	1
121.276	1.5	120.525	n/a	-1.0	2.59	columbia_card_task_fmri	n/a	n/a	-1.0	n/a	n/a	n/a	n/a	n/a	n/a	n/a	n/a	ITI	poldrack-single-stim	s614	False	0
123.12	2.056	125.176	7.337120961714156	draw_card	2.056	columbia_card_task_fmri	30.0	0.7	89.0	-50.0	0.3	10.0	1.0	3.0	4.952861851937183	2.056	1.0	stim	poldrack-single-stim	s614	False	0
125.93	1.5	125.179	n/a	-1.0	2.318	columbia_card_task_fmri	n/a	n/a	-1.0	n/a	n/a	n/a	n/a	n/a	n/a	n/a	n/a	ITI	poldrack-single-stim	s614	False	0
127.501	1.417	128.918	6.737120961714156	draw_card	1.417	columbia_card_task_fmri	17.0	0.8666666666666667	89.0	-70.0	0.1333333333333333	15.0	1.0	2.0	-2.127595121497261	1.417	n/a	stim	poldrack-single-stim	s614	False	1
128.921	0.403	129.324	5.908549533142729	draw_card	0.403	columbia_card_task_fmri	17.0	0.8571428571428572	89.0	-70.0	0.1428571428571428	15.0	2.0	2.0	-1.2591119463728155	0.403	n/a	stim	poldrack-single-stim	s614	False	1
129.327	0.412	129.739	4.952505577098771	draw_card	0.412	columbia_card_task_fmri	17.0	0.8461538461538461	89.0	-70.0	0.1538461538461538	15.0	3.0	2.0	-0.3139484618708117	0.412	n/a	stim	poldrack-single-stim	s614	False	1
129.742	0.429	130.171	3.837120961714158	draw_card	0.429	columbia_card_task_fmri	17.0	0.8333333333333334	89.0	-70.0	0.1666666666666666	15.0	4.0	2.0	0.7184253476563036	0.429	n/a	stim	poldrack-single-stim	s614	False	1
130.175	0.877	131.052	2.5189391435323363	draw_card	0.877	columbia_card_task_fmri	17.0	0.8181818181818181	89.0	-70.0	0.1818181818181818	15.0	5.0	2.0	1.849941216373136	0.877	n/a	stim	poldrack-single-stim	s614	False	1
131.056	1.77	132.826	0.9371209617141578	draw_card	1.77	columbia_card_task_fmri	17.0	0.8	89.0	-70.0	0.2	15.0	6.0	2.0	3.0935586498947494	1.77	n/a	stim	poldrack-single-stim	s614	False	1
132.829	2.057	134.886	-0.9962123716191758	end_round	2.057	columbia_card_task_fmri	17.0	0.7777777777777778	71.0	-70.0	0.2222222222222222	15.0	7.0	2.0	4.461941884315461	2.057	6.0	stim	poldrack-single-stim	s614	False	1
135.64	1.5	134.889	n/a	-1.0	2.59	columbia_card_task_fmri	n/a	n/a	-1.0	n/a	n/a	n/a	n/a	n/a	n/a	n/a	n/a	ITI	poldrack-single-stim	s614	False	0
137.482	2.193	139.675	1.9621209617141564	draw_card	2.193	columbia_card_task_fmri	7.0	0.9375	89.0	-95.0	0.0625	16.0	1.0	1.0	-7.005671242697787	2.193	n/a	stim	poldrack-single-stim	s614	False	1
139.678	0.308	139.986	1.5371209617141566	draw_card	0.308	columbia_card_task_fmri	7.0	0.9333333333333332	89.0	-95.0	0.0666666666666666	16.0	2.0	1.0	-6.253739102301488	0.308	n/a	stim	poldrack-single-stim	s614	False	1
139.988	0.237	140.225	1.0514066759998708	draw_card	0.237	columbia_card_task_fmri	7.0	0.9285714285714286	89.0	-95.0	0.0714285714285714	16.0	3.0	1.0	-5.429095122987771	0.237	n/a	stim	poldrack-single-stim	s614	False	1
140.228	0.215	140.443	0.4909671155603097	draw_card	0.215	columbia_card_task_fmri	7.0	0.9230769230769232	89.0	-95.0	0.0769230769230769	16.0	4.0	1.0	-4.519375644713648	0.215	n/a	stim	poldrack-single-stim	s614	False	1
140.447	0.203	140.65	-0.1628790382858436	draw_card	0.203	columbia_card_task_fmri	7.0	0.9166666666666666	89.0	-95.0	0.0833333333333333	16.0	5.0	1.0	-3.509117090248786	0.203	n/a	stim	poldrack-single-stim	s614	False	1
140.652	0.28	140.932	-0.935606311013117	draw_card	0.28	columbia_card_task_fmri	7.0	0.9090909090909092	89.0	-95.0	0.0909090909090909	16.0	6.0	1.0	-2.378711270880125	0.28	n/a	stim	poldrack-single-stim	s614	False	1
140.935	0.376	141.311	-1.862879038285844	draw_card	0.376	columbia_card_task_fmri	7.0	0.9	89.0	-95.0	0.1	16.0	7.0	1.0	-1.1029199890607906	0.376	n/a	stim	poldrack-single-stim	s614	False	1
141.314	0.662	141.976	-2.996212371619177	draw_card	0.662	columbia_card_task_fmri	7.0	0.8888888888888888	89.0	-95.0	0.1111111111111111	16.0	8.0	1.0	0.3512627534712713	0.662	n/a	stim	poldrack-single-stim	s614	False	1
141.979	0.677	142.656	-4.412879038285844	draw_card	0.677	columbia_card_task_fmri	7.0	0.875	89.0	-95.0	0.125	16.0	9.0	1.0	2.027699214509571	0.677	n/a	stim	poldrack-single-stim	s614	False	1
142.659	0.888	143.547	-6.234307609714415	draw_card	0.888	columbia_card_task_fmri	7.0	0.8571428571428572	89.0	-95.0	0.1428571428571428	16.0	10.0	1.0	3.985481782927384	0.888	n/a	stim	poldrack-single-stim	s614	False	1
143.55	1.883	145.433	-8.662879038285842	draw_card	1.883	columbia_card_task_fmri	7.0	0.8333333333333334	89.0	-95.0	0.1666666666666666	16.0	11.0	1.0	6.304545120830465	1.883	11.0	stim	poldrack-single-stim	s614	False	0
146.191	1.5	145.44	n/a	-1.0	2.386	columbia_card_task_fmri	n/a	n/a	-1.0	n/a	n/a	n/a	n/a	n/a	n/a	n/a	n/a	ITI	poldrack-single-stim	s614	False	0
147.831	0.543	148.374	3.5246209617141564	draw_card	0.543	columbia_card_task_fmri	9.0	0.9375	89.0	-100.0	0.0625	16.0	1.0	1.0	-5.313561429477812	0.543	n/a	stim	poldrack-single-stim	s614	False	1
148.377	0.312	148.689	3.07045429504749	draw_card	0.312	columbia_card_task_fmri	9.0	0.9333333333333332	89.0	-100.0	0.0666666666666666	16.0	2.0	1.0	-4.509884319614098	0.312	n/a	stim	poldrack-single-stim	s614	False	1
148.693	0.288	148.981	2.551406675999872	draw_card	0.288	columbia_card_task_fmri	9.0	0.9285714285714286	89.0	-100.0	0.0714285714285714	16.0	3.0	1.0	-3.628500954677424	0.288	n/a	stim	poldrack-single-stim	s614	False	1
148.984	0.285	149.269	1.9525055770987725	draw_card	0.285	columbia_card_task_fmri	9.0	0.9230769230769232	89.0	-100.0	0.0769230769230769	16.0	4.0	1.0	-2.656198775686708	0.285	n/a	stim	poldrack-single-stim	s614	False	1
149.273	0.657	149.93	1.2537876283808242	draw_card	0.657	columbia_card_task_fmri	9.0	0.9166666666666666	89.0	-100.0	0.0833333333333333	16.0	5.0	1.0	-1.5764525030607075	0.657	n/a	stim	poldrack-single-stim	s614	False	1
149.935	0.876	150.811	0.4280300526232463	draw_card	0.876	columbia_card_task_fmri	9.0	0.9090909090909092	89.0	-100.0	0.0909090909090909	16.0	6.0	1.0	-0.368307735279398	0.876	n/a	stim	poldrack-single-stim	s614	False	1
150.815	1.257	152.072	-0.562879038285844	draw_card	1.257	columbia_card_task_fmri	9.0	0.9	89.0	-100.0	0.1	16.0	7.0	1.0	0.995206401157848	1.257	n/a	stim	poldrack-single-stim	s614	False	1
152.075	3.694	155.769	-1.7739901493969543	end_round	3.694	columbia_card_task_fmri	9.0	0.8888888888888888	71.0	-100.0	0.1111111111111111	16.0	8.0	1.0	2.549361767510785	3.694	7.0	stim	poldrack-single-stim	s614	False	1
156.526	1.5	155.775	n/a	-1.0	2.318	columbia_card_task_fmri	n/a	n/a	-1.0	n/a	n/a	n/a	n/a	n/a	n/a	n/a	n/a	ITI	poldrack-single-stim	s614	False	0
158.098	5.714	163.812	4.462120961714156	draw_card	5.714	columbia_card_task_fmri	15.0	0.875	89.0	-80.0	0.125	16.0	1.0	2.0	-0.2853829938710142	5.714	n/a	stim	poldrack-single-stim	s614	False	1
163.815	3.001	166.816	3.6704542950474894	draw_card	3.001	columbia_card_task_fmri	15.0	0.8666666666666667	89.0	-80.0	0.1333333333333333	16.0	2.0	2.0	0.5893400883937581	3.001	n/a	stim	poldrack-single-stim	s614	False	1
166.819	2.795	169.614	2.765692390285587	draw_card	2.795	columbia_card_task_fmri	15.0	0.8571428571428572	89.0	-80.0	0.1428571428571428	16.0	3.0	2.0	1.5378354282719222	2.795	n/a	stim	poldrack-single-stim	s614	False	1
169.617	4.771	174.388	1.7217363463295396	end_round	4.771	columbia_card_task_fmri	15.0	0.8461538461538461	71.0	-80.0	0.1538461538461538	16.0	4.0	2.0	2.570066000563134	4.771	3.0	stim	poldrack-single-stim	s614	False	1
175.145	1.5	174.394	n/a	-1.0	2.318	columbia_card_task_fmri	n/a	n/a	-1.0	n/a	n/a	n/a	n/a	n/a	n/a	n/a	n/a	ITI	poldrack-single-stim	s614	False	0
176.717	5.099	181.816	6.587120961714156	draw_card	5.099	columbia_card_task_fmri	16.0	0.875	89.0	-70.0	0.125	16.0	1.0	2.0	-3.258880049992211	5.099	n/a	stim	poldrack-single-stim	s614	False	1
181.819	1.023	182.842	5.870454295047489	draw_card	1.023	columbia_card_task_fmri	16.0	0.8666666666666667	89.0	-70.0	0.1333333333333333	16.0	2.0	2.0	-2.467178821835628	1.023	n/a	stim	poldrack-single-stim	s614	False	1
182.845	6.03	188.875	5.051406675999871	draw_card	6.03	columbia_card_task_fmri	16.0	0.8571428571428572	89.0	-70.0	0.1428571428571428	16.0	3.0	2.0	-1.608698110091673	6.03	n/a	stim	poldrack-single-stim	s614	False	1
188.877	0.561	189.438	4.106351730944924	draw_card	0.561	columbia_card_task_fmri	16.0	0.8461538461538461	89.0	-70.0	0.1538461538461538	16.0	4.0	2.0	-0.6744189786718451	0.561	n/a	stim	poldrack-single-stim	s614	False	1
189.442	1.481	190.923	3.003787628380824	end_round	1.481	columbia_card_task_fmri	16.0	0.8333333333333334	71.0	-70.0	0.1666666666666666	16.0	5.0	2.0	0.3460675356489169	1.481	4.0	stim	poldrack-single-stim	s614	False	1
191.679	1.5	190.928	n/a	-1.0	2.318	columbia_card_task_fmri	n/a	n/a	-1.0	n/a	n/a	n/a	n/a	n/a	n/a	n/a	n/a	ITI	poldrack-single-stim	s614	False	0
193.251	3.722	196.973	7.899620961714156	draw_card	3.722	columbia_card_task_fmri	30.0	0.6875	89.0	-45.0	0.3125	16.0	1.0	5.0	3.057016050996271	3.722	n/a	stim	poldrack-single-stim	s614	False	1
196.977	6.084	203.061	6.33712096171416	draw_card	6.084	columbia_card_task_fmri	30.0	0.6666666666666667	89.0	-45.0	0.3333333333333333	16.0	2.0	5.0	3.648494656065889	6.084	n/a	stim	poldrack-single-stim	s614	False	1
203.065	1.009	204.074	4.551406675999868	end_round	1.009	columbia_card_task_fmri	30.0	0.6428571428571428	71.0	-45.0	0.3571428571428571	16.0	3.0	5.0	4.229553697002562	1.009	2.0	stim	poldrack-single-stim	s614	False	1
204.829	1.5	204.078	n/a	-1.0	2.386	columbia_card_task_fmri	n/a	n/a	-1.0	n/a	n/a	n/a	n/a	n/a	n/a	n/a	n/a	ITI	poldrack-single-stim	s614	False	0
206.468	3.305	209.773	-0.3295457049525097	draw_card	3.305	columbia_card_task_fmri	13.0	0.8333333333333334	89.0	-75.0	0.1666666666666666	6.0	1.0	1.0	1.0907904274150615	3.305	n/a	stim	poldrack-single-stim	s614	False	1
209.776	3.992	213.768	-3.2628790382858432	draw_card	3.992	columbia_card_task_fmri	13.0	0.8	89.0	-75.0	0.2	6.0	2.0	1.0	3.493267058721546	3.992	n/a	stim	poldrack-single-stim	s614	False	1
213.771	0.948	214.719	-7.662879038285844	end_round	0.948	columbia_card_task_fmri	13.0	0.75	71.0	-75.0	0.25	6.0	3.0	1.0	6.396450567446312	0.948	2.0	stim	poldrack-single-stim	s614	False	1
215.473	1.5	214.722	n/a	-1.0	2.25	columbia_card_task_fmri	n/a	n/a	-1.0	n/a	n/a	n/a	n/a	n/a	n/a	n/a	n/a	ITI	poldrack-single-stim	s614	False	0
216.976	2.463	219.439	1.3371209617141582	draw_card	2.463	columbia_card_task_fmri	14.0	0.8333333333333334	89.0	-70.0	0.1666666666666666	6.0	1.0	1.0	-0.3986252487035457	2.463	n/a	stim	poldrack-single-stim	s614	False	1
219.444	2.332	221.776	-1.4628790382858423	draw_card	2.332	columbia_card_task_fmri	14.0	0.8	89.0	-70.0	0.2	6.0	2.0	1.0	1.8944750312055767	2.332	n/a	stim	poldrack-single-stim	s614	False	1
221.779	1.576	223.355	-5.662879038285844	end_round	1.576	columbia_card_task_fmri	14.0	0.75	71.0	-70.0	0.25	6.0	3.0	1.0	4.665515822523478	1.576	2.0	stim	poldrack-single-stim	s614	False	1
224.108	1.5	223.357	n/a	-1.0	2.386	columbia_card_task_fmri	n/a	n/a	-1.0	n/a	n/a	n/a	n/a	n/a	n/a	n/a	n/a	ITI	poldrack-single-stim	s614	False	0
225.748	2.202	227.95	1.3371209617141582	draw_card	2.202	columbia_card_task_fmri	16.0	0.8333333333333334	89.0	-80.0	0.1666666666666666	6.0	1.0	1.0	4.069945491429902	2.202	n/a	stim	poldrack-single-stim	s614	False	1
227.953	2.647	230.6	-1.862879038285843	draw_card	2.647	columbia_card_task_fmri	16.0	0.8	89.0	-80.0	0.2	6.0	2.0	1.0	6.69115281121238	2.647	n/a	stim	poldrack-single-stim	s614	False	1
230.604	1.042	231.646	-6.662879038285844	end_round	1.042	columbia_card_task_fmri	16.0	0.75	71.0	-80.0	0.25	6.0	3.0	1.0	9.858598839809904	1.042	2.0	stim	poldrack-single-stim	s614	False	1
232.4	1.5	231.649	n/a	-1.0	2.59	columbia_card_task_fmri	n/a	n/a	-1.0	n/a	n/a	n/a	n/a	n/a	n/a	n/a	n/a	ITI	poldrack-single-stim	s614	False	0
234.243	1.775	236.018	3.837120961714158	draw_card	1.775	columbia_card_task_fmri	17.0	0.8333333333333334	89.0	-70.0	0.1666666666666666	6.0	1.0	1.0	0.7184253476563036	1.775	n/a	stim	poldrack-single-stim	s614	False	1
236.021	1.292	237.313	0.9371209617141578	draw_card	1.292	columbia_card_task_fmri	17.0	0.8	89.0	-70.0	0.2	6.0	2.0	1.0	3.0935586498947494	1.292	n/a	stim	poldrack-single-stim	s614	False	1
237.316	1.247	238.563	-3.412879038285844	end_round	1.247	columbia_card_task_fmri	17.0	0.75	71.0	-70.0	0.25	6.0	3.0	1.0	5.963707269139622	1.247	2.0	stim	poldrack-single-stim	s614	False	1
239.317	1.5	238.566	n/a	-1.0	2.658	columbia_card_task_fmri	n/a	n/a	-1.0	n/a	n/a	n/a	n/a	n/a	n/a	n/a	n/a	ITI	poldrack-single-stim	s614	False	0
241.228	1.844	243.072	3.837120961714157	draw_card	1.844	columbia_card_task_fmri	25.0	0.75	89.0	-65.0	0.25	8.0	1.0	2.0	7.261955108156858	1.844	1.0	stim	poldrack-single-stim	s614	False	0
243.83	1.5	243.079	n/a	-1.0	2.386	columbia_card_task_fmri	n/a	n/a	-1.0	n/a	n/a	n/a	n/a	n/a	n/a	n/a	n/a	ITI	poldrack-single-stim	s614	False	0
245.47	1.516	246.986	3.837120961714157	draw_card	1.516	columbia_card_task_fmri	30.0	0.75	89.0	-80.0	0.25	8.0	1.0	2.0	15.918041529412069	1.516	n/a	stim	poldrack-single-stim	s614	False	1
246.989	1.507	248.496	-0.0914504668572671	draw_card	1.507	columbia_card_task_fmri	30.0	0.7142857142857143	89.0	-80.0	0.2857142857142857	8.0	2.0	2.0	17.978800821665313	1.507	n/a	stim	poldrack-single-stim	s614	False	1
248.5	1.57	250.07	-5.329545704952505	draw_card	1.57	columbia_card_task_fmri	30.0	0.6666666666666667	89.0	-80.0	0.3333333333333333	8.0	3.0	2.0	20.13961394811724	1.57	3.0	stim	poldrack-single-stim	s614	False	0
250.827	1.5	250.076	n/a	-1.0	2.386	columbia_card_task_fmri	n/a	n/a	-1.0	n/a	n/a	n/a	n/a	n/a	n/a	n/a	n/a	ITI	poldrack-single-stim	s614	False	0
252.467	0.559	253.026	3.537120961714157	draw_card	0.559	columbia_card_task_fmri	13.0	0.9	89.0	-95.0	0.1	10.0	1.0	1.0	0.6954592090569882	0.559	n/a	stim	poldrack-single-stim	s614	False	1
253.03	0.515	253.545	2.3371209617141564	draw_card	0.515	columbia_card_task_fmri	13.0	0.8888888888888888	89.0	-95.0	0.1111111111111111	10.0	2.0	1.0	2.2353334429958487	0.515	n/a	stim	poldrack-single-stim	s614	False	1
253.549	3.975	257.524	0.8371209617141564	draw_card	3.975	columbia_card_task_fmri	13.0	0.875	89.0	-95.0	0.125	10.0	3.0	1.0	4.0105420923931625	3.975	n/a	stim	poldrack-single-stim	s614	False	1
257.527	1.066	258.593	-1.0914504668572709	end_round	1.066	columbia_card_task_fmri	13.0	0.8571428571428572	71.0	-95.0	0.1428571428571428	10.0	4.0	1.0	6.083654373497875	1.066	3.0	stim	poldrack-single-stim	s614	False	1
259.35	1.5	258.599	n/a	-1.0	2.25	columbia_card_task_fmri	n/a	n/a	-1.0	n/a	n/a	n/a	n/a	n/a	n/a	n/a	n/a	ITI	poldrack-single-stim	s614	False	0
260.853	0.923	261.776	4.937120961714156	draw_card	0.923	columbia_card_task_fmri	14.0	0.9	89.0	-90.0	0.1	10.0	1.0	1.0	-0.5034810074560951	0.923	n/a	stim	poldrack-single-stim	s614	False	1
261.781	1.055	262.836	3.7815654061585993	draw_card	1.055	columbia_card_task_fmri	14.0	0.8888888888888888	89.0	-90.0	0.1111111111111111	10.0	2.0	1.0	0.9792665029859542	1.055	n/a	stim	poldrack-single-stim	s614	False	1
262.841	2.979	265.82	2.3371209617141564	draw_card	2.979	columbia_card_task_fmri	14.0	0.875	89.0	-90.0	0.125	10.0	3.0	1.0	2.688628007772568	2.979	n/a	stim	poldrack-single-stim	s614	False	1
265.824	1.176	267.0	0.4799781045713005	draw_card	1.176	columbia_card_task_fmri	14.0	0.8571428571428572	89.0	-90.0	0.1428571428571428	10.0	4.0	1.0	4.684854843263448	1.176	n/a	stim	poldrack-single-stim	s614	False	1
267.004	1.212	268.216	-1.996212371619176	end_round	1.212	columbia_card_task_fmri	14.0	0.8333333333333334	71.0	-90.0	0.1666666666666666	10.0	5.0	1.0	7.049449279194281	1.212	4.0	stim	poldrack-single-stim	s614	False	1
268.975	1.5	268.224	n/a	-1.0	2.318	columbia_card_task_fmri	n/a	n/a	-1.0	n/a	n/a	n/a	n/a	n/a	n/a	n/a	n/a	ITI	poldrack-single-stim	s614	False	0
270.546	0.856	271.402	0.1371209617141571	draw_card	0.856	columbia_card_task_fmri	16.0	0.8	89.0	-70.0	0.2	10.0	1.0	2.0	2.6938570146719734	0.856	1.0	stim	poldrack-single-stim	s614	False	0
272.161	1.5	271.41	n/a	-1.0	2.25	columbia_card_task_fmri	n/a	n/a	-1.0	n/a	n/a	n/a	n/a	n/a	n/a	n/a	n/a	ITI	poldrack-single-stim	s614	False	0
273.665	1.961	275.626	-0.5795457049525097	draw_card	1.961	columbia_card_task_fmri	7.0	0.9166666666666666	89.0	-100.0	0.0833333333333333	12.0	1.0	1.0	-2.128669488771638	1.961	n/a	stim	poldrack-single-stim	s614	False	1
275.63	3.212	278.842	-1.390151765558572	draw_card	3.212	columbia_card_task_fmri	7.0	0.9090909090909092	89.0	-100.0	0.0909090909090909	12.0	2.0	1.0	-0.9427348092890676	3.212	n/a	stim	poldrack-single-stim	s614	False	1
278.846	3.483	282.329	-2.362879038285844	draw_card	3.483	columbia_card_task_fmri	7.0	0.9	89.0	-100.0	0.1	12.0	3.0	1.0	0.3957167362542328	3.483	n/a	stim	poldrack-single-stim	s614	False	1
282.333	3.109	285.442	-3.551767927174733	end_round	3.109	columbia_card_task_fmri	7.0	0.8888888888888888	71.0	-100.0	0.1111111111111111	12.0	4.0	1.0	1.921309624515299	3.109	3.0	stim	poldrack-single-stim	s614	False	1
286.199	1.5	285.448	n/a	-1.0	2.25	columbia_card_task_fmri	n/a	n/a	-1.0	n/a	n/a	n/a	n/a	n/a	n/a	n/a	n/a	ITI	poldrack-single-stim	s614	False	0
287.701	2.328	290.029	-0.3295457049525079	draw_card	2.328	columbia_card_task_fmri	14.0	0.8333333333333334	89.0	-80.0	0.1666666666666666	12.0	1.0	2.0	3.325120559609605	2.328	n/a	stim	poldrack-single-stim	s614	False	1
290.033	1.146	291.179	-1.753788129194937	draw_card	1.146	columbia_card_task_fmri	14.0	0.8181818181818181	89.0	-80.0	0.1818181818181818	12.0	2.0	2.0	4.547821764803555	1.146	n/a	stim	poldrack-single-stim	s614	False	1
291.182	0.506	291.688	-3.4628790382858425	draw_card	0.506	columbia_card_task_fmri	14.0	0.8	89.0	-80.0	0.2	12.0	3.0	2.0	5.891647667563877	0.506	n/a	stim	poldrack-single-stim	s614	False	1
291.692	0.933	292.625	-5.551767927174733	draw_card	0.933	columbia_card_task_fmri	14.0	0.7777777777777778	89.0	-80.0	0.2222222222222222	12.0	4.0	2.0	7.370281078281277	0.933	n/a	stim	poldrack-single-stim	s614	False	1
292.628	3.399	296.027	-8.162879038285844	end_round	3.399	columbia_card_task_fmri	14.0	0.75	71.0	-80.0	0.25	12.0	5.0	2.0	8.993030626956209	3.399	4.0	stim	poldrack-single-stim	s614	False	1
296.783	1.5	296.032	n/a	-1.0	2.386	columbia_card_task_fmri	n/a	n/a	-1.0	n/a	n/a	n/a	n/a	n/a	n/a	n/a	n/a	ITI	poldrack-single-stim	s614	False	0
298.423	1.923	300.346	1.3371209617141564	draw_card	1.923	columbia_card_task_fmri	15.0	0.8333333333333334	89.0	-75.0	0.1666666666666666	12.0	1.0	2.0	1.8355414227305964	1.923	n/a	stim	poldrack-single-stim	s614	False	1
300.35	0.564	300.914	-0.0265154019222086	draw_card	0.564	columbia_card_task_fmri	15.0	0.8181818181818181	89.0	-75.0	0.1818181818181818	12.0	2.0	2.0	3.0061380321650155	0.564	n/a	stim	poldrack-single-stim	s614	False	1
300.918	0.896	301.814	-1.6628790382858436	draw_card	0.896	columbia_card_task_fmri	15.0	0.8	89.0	-75.0	0.2	12.0	3.0	2.0	4.292703295316425	0.896	n/a	stim	poldrack-single-stim	s614	False	1
301.818	0.874	302.692	-3.662879038285842	end_round	0.874	columbia_card_task_fmri	15.0	0.7777777777777778	71.0	-75.0	0.2222222222222222	12.0	4.0	2.0	5.708337976602994	0.874	3.0	stim	poldrack-single-stim	s614	False	1
303.448	1.5	302.697	n/a	-1.0	2.386	columbia_card_task_fmri	n/a	n/a	-1.0	n/a	n/a	n/a	n/a	n/a	n/a	n/a	n/a	ITI	poldrack-single-stim	s614	False	0
305.089	0.924	306.013	0.3371209617141564	draw_card	0.924	columbia_card_task_fmri	15.0	0.8	89.0	-65.0	0.2	15.0	1.0	3.0	0.2958036502876489	0.924	1.0	stim	poldrack-single-stim	s614	False	0
306.769	1.5	306.018	n/a	-1.0	2.726	columbia_card_task_fmri	n/a	n/a	-1.0	n/a	n/a	n/a	n/a	n/a	n/a	n/a	n/a	ITI	poldrack-single-stim	s614	False	0
308.749	1.263	310.012	-0.4128790382858436	draw_card	1.263	columbia_card_task_fmri	14.0	0.8125	89.0	-70.0	0.1875	16.0	1.0	3.0	1.081374074394116	1.263	n/a	stim	poldrack-single-stim	s614	False	1
310.016	0.389	310.405	-1.4628790382858423	end_round	0.389	columbia_card_task_fmri	14.0	0.8	71.0	-70.0	0.2	16.0	2.0	3.0	1.8944750312055767	0.389	1.0	stim	poldrack-single-stim	s614	False	1
311.16	1.5	310.409	n/a	-1.0	2.454	columbia_card_task_fmri	n/a	n/a	-1.0	n/a	n/a	n/a	n/a	n/a	n/a	n/a	n/a	ITI	poldrack-single-stim	s614	False	0
312.868	1.845	314.713	-0.4753790382858436	draw_card	1.845	columbia_card_task_fmri	11.0	0.6875	89.0	-30.0	0.3125	16.0	1.0	5.0	-12.681129560100874	1.845	n/a	stim	poldrack-single-stim	s614	False	1
314.718	1.817	316.535	-1.3295457049525097	draw_card	1.817	columbia_card_task_fmri	11.0	0.6666666666666667	89.0	-30.0	0.3333333333333333	16.0	2.0	5.0	-12.358337494883024	1.817	n/a	stim	poldrack-single-stim	s614	False	1
316.539	1.75	318.289	-2.305736181142988	draw_card	1.75	columbia_card_task_fmri	11.0	0.6428571428571428	89.0	-30.0	0.3571428571428571	16.0	3.0	5.0	-12.041214216878224	1.75	3.0	stim	poldrack-single-stim	s614	False	0
319.044	1.5	318.293	n/a	-1.0	2.318	columbia_card_task_fmri	n/a	n/a	-1.0	n/a	n/a	n/a	n/a	n/a	n/a	n/a	n/a	ITI	poldrack-single-stim	s614	False	0
320.615	0.712	321.327	4.337120961714156	draw_card	0.712	columbia_card_task_fmri	15.0	0.8666666666666667	89.0	-75.0	0.1333333333333333	15.0	1.0	2.0	-1.1087972980142382	0.712	n/a	stim	poldrack-single-stim	s614	False	1
321.331	1.794	323.125	3.4799781045713005	draw_card	1.794	columbia_card_task_fmri	15.0	0.8571428571428572	89.0	-75.0	0.1428571428571428	15.0	2.0	2.0	-0.2103080592408197	1.794	n/a	stim	poldrack-single-stim	s614	False	1
323.129	0.463	323.592	2.4909671155603097	draw_card	0.463	columbia_card_task_fmri	15.0	0.8461538461538461	89.0	-75.0	0.1538461538461538	15.0	3.0	2.0	0.767507123770752	0.463	n/a	stim	poldrack-single-stim	s614	False	1
323.595	0.431	324.026	1.3371209617141564	draw_card	0.431	columbia_card_task_fmri	15.0	0.8333333333333334	89.0	-75.0	0.1666666666666666	15.0	4.0	2.0	1.8355414227305964	0.431	4.0	stim	poldrack-single-stim	s614	False	0
324.783	1.5	324.032	n/a	-1.0	2.318	columbia_card_task_fmri	n/a	n/a	-1.0	n/a	n/a	n/a	n/a	n/a	n/a	n/a	n/a	ITI	poldrack-single-stim	s614	False	0
326.355	0.591	326.946	6.07045429504749	draw_card	0.591	columbia_card_task_fmri	17.0	0.8666666666666667	89.0	-75.0	0.1333333333333333	15.0	1.0	2.0	-0.4295623480941088	0.591	n/a	stim	poldrack-single-stim	s614	False	1
326.95	0.287	327.237	5.194263818857015	draw_card	0.287	columbia_card_task_fmri	17.0	0.8571428571428572	89.0	-75.0	0.1428571428571428	15.0	2.0	2.0	0.488929899394666	0.287	n/a	stim	poldrack-single-stim	s614	False	1
327.241	0.633	327.874	4.183274807868003	draw_card	0.633	columbia_card_task_fmri	17.0	0.8461538461538461	89.0	-75.0	0.1538461538461538	15.0	3.0	2.0	1.4885118210327697	0.633	n/a	stim	poldrack-single-stim	s614	False	1
327.878	2.749	330.627	3.003787628380824	end_round	2.749	columbia_card_task_fmri	17.0	0.8333333333333334	71.0	-75.0	0.1666666666666666	15.0	4.0	2.0	2.5803186916341225	2.749	3.0	stim	poldrack-single-stim	s614	False	1
331.382	1.5	330.631	n/a	-1.0	2.59	columbia_card_task_fmri	n/a	n/a	-1.0	n/a	n/a	n/a	n/a	n/a	n/a	n/a	n/a	ITI	poldrack-single-stim	s614	False	0
333.226	0.806	334.032	1.6496209617141564	draw_card	0.806	columbia_card_task_fmri	2.0	0.9375	89.0	-25.0	0.0625	16.0	1.0	1.0	-25.06108286923475	0.806	n/a	stim	poldrack-single-stim	s614	False	1
334.036	0.303	334.339	1.5371209617141564	draw_card	0.303	columbia_card_task_fmri	2.0	0.9333333333333332	89.0	-25.0	0.0666666666666666	16.0	2.0	1.0	-24.865687690901485	0.303	n/a	stim	poldrack-single-stim	s614	False	1
334.343	0.348	334.691	1.408549533142728	draw_card	0.348	columbia_card_task_fmri	2.0	0.9285714285714286	89.0	-25.0	0.0714285714285714	16.0	3.0	1.0	-24.651164310428936	0.348	n/a	stim	poldrack-single-stim	s614	False	1
334.696	0.85	335.546	1.2601978847910795	draw_card	0.85	columbia_card_task_fmri	2.0	0.9230769230769232	89.0	-25.0	0.0769230769230769	16.0	4.0	1.0	-24.41425102895816	0.85	n/a	stim	poldrack-single-stim	s614	False	1
335.551	2.889	338.44	1.0871209617141566	draw_card	2.889	columbia_card_task_fmri	2.0	0.9166666666666666	89.0	-25.0	0.0833333333333333	16.0	5.0	1.0	-24.150867288532982	2.889	n/a	stim	poldrack-single-stim	s614	False	1
338.445	1.98	340.425	0.8825755071687016	draw_card	1.98	columbia_card_task_fmri	2.0	0.9090909090909092	89.0	-25.0	0.0909090909090909	16.0	6.0	1.0	-23.855837465228166	1.98	n/a	stim	poldrack-single-stim	s614	False	1
340.43	1.135	341.565	0.6371209617141564	end_round	1.135	columbia_card_task_fmri	2.0	0.9	71.0	-25.0	0.1	16.0	7.0	1.0	-23.522498042051016	1.135	6.0	stim	poldrack-single-stim	s614	False	1
342.322	1.5	341.571	n/a	-1.0	2.726	columbia_card_task_fmri	n/a	n/a	-1.0	n/a	n/a	n/a	n/a	n/a	n/a	n/a	n/a	ITI	poldrack-single-stim	s614	False	0
344.302	0.983	345.285	3.837120961714157	draw_card	0.983	columbia_card_task_fmri	9.0	0.9375	89.0	-95.0	0.0625	16.0	1.0	1.0	-6.522243103021488	0.983	n/a	stim	poldrack-single-stim	s614	False	1
345.289	0.413	345.702	3.403787628380824	draw_card	0.413	columbia_card_task_fmri	9.0	0.9333333333333332	89.0	-95.0	0.0666666666666666	16.0	2.0	1.0	-5.755525751763951	0.413	n/a	stim	poldrack-single-stim	s614	False	1
345.706	0.362	346.068	2.9085495331427285	draw_card	0.362	columbia_card_task_fmri	9.0	0.9285714285714286	89.0	-95.0	0.0714285714285714	16.0	3.0	1.0	-4.914669556172534	0.362	3.0	stim	poldrack-single-stim	s614	False	0
346.824	1.5	346.073	n/a	-1.0	2.522	columbia_card_task_fmri	n/a	n/a	-1.0	n/a	n/a	n/a	n/a	n/a	n/a	n/a	n/a	ITI	poldrack-single-stim	s614	False	0
348.601	0.989	349.59	5.399620961714156	draw_card	0.989	columbia_card_task_fmri	11.0	0.9375	89.0	-100.0	0.0625	16.0	1.0	1.0	-4.8300478315325215	0.989	n/a	stim	poldrack-single-stim	s614	False	1
349.593	0.421	350.014	4.937120961714157	draw_card	0.421	columbia_card_task_fmri	11.0	0.9333333333333332	89.0	-100.0	0.0666666666666666	16.0	2.0	1.0	-4.011588020436879	0.421	n/a	stim	poldrack-single-stim	s614	False	1
350.02	1.214	351.234	4.408549533142729	draw_card	1.214	columbia_card_task_fmri	11.0	0.9285714285714286	89.0	-100.0	0.0714285714285714	16.0	3.0	1.0	-3.113995027734948	1.214	3.0	stim	poldrack-single-stim	s614	False	0
351.989	1.5	351.238	n/a	-1.0	3.134	columbia_card_task_fmri	n/a	n/a	-1.0	n/a	n/a	n/a	n/a	n/a	n/a	n/a	n/a	ITI	poldrack-single-stim	s614	False	0
354.378	0.87	355.248	5.962120961714156	draw_card	0.87	columbia_card_task_fmri	16.0	0.875	89.0	-75.0	0.125	16.0	1.0	2.0	-1.6070097380236916	0.87	n/a	stim	poldrack-single-stim	s614	False	1
355.252	0.375	355.627	5.203787628380823	draw_card	0.375	columbia_card_task_fmri	16.0	0.8666666666666667	89.0	-75.0	0.1333333333333333	16.0	2.0	2.0	-0.769183303445061	0.375	n/a	stim	poldrack-single-stim	s614	False	1
355.631	0.337	355.968	4.337120961714158	draw_card	0.337	columbia_card_task_fmri	16.0	0.8571428571428572	89.0	-75.0	0.1428571428571428	16.0	3.0	2.0	0.1393075385390112	0.337	n/a	stim	poldrack-single-stim	s614	False	1
355.973	1.468	357.441	3.3371209617141564	end_round	1.468	columbia_card_task_fmri	16.0	0.8461538461538461	71.0	-75.0	0.1538461538461538	16.0	4.0	2.0	1.1280061922650295	1.468	3.0	stim	poldrack-single-stim	s614	False	1
358.199	1.5	357.448	n/a	-1.0	2.386	columbia_card_task_fmri	n/a	n/a	-1.0	n/a	n/a	n/a	n/a	n/a	n/a	n/a	n/a	ITI	poldrack-single-stim	s614	False	0
359.84	1.059	360.899	6.212120961714156	draw_card	1.059	columbia_card_task_fmri	17.0	0.875	89.0	-80.0	0.125	16.0	1.0	2.0	0.3754689526269068	1.059	n/a	stim	poldrack-single-stim	s614	False	1
360.904	0.517	361.421	5.403787628380824	draw_card	0.517	columbia_card_task_fmri	17.0	0.8666666666666667	89.0	-80.0	0.1333333333333333	16.0	2.0	2.0	1.2686393185017373	0.517	n/a	stim	poldrack-single-stim	s614	False	1
361.426	2.819	364.245	4.479978104571302	draw_card	2.819	columbia_card_task_fmri	17.0	0.8571428571428572	89.0	-80.0	0.1428571428571428	16.0	3.0	2.0	2.237135840858979	2.819	n/a	stim	poldrack-single-stim	s614	False	1
364.25	1.148	365.398	3.414044038637233	draw_card	1.148	columbia_card_task_fmri	17.0	0.8461538461538461	89.0	-80.0	0.1538461538461538	16.0	4.0	2.0	3.2911312785088107	1.148	n/a	stim	poldrack-single-stim	s614	False	1
365.404	1.167	366.571	2.170454295047492	end_round	1.167	columbia_card_task_fmri	17.0	0.8333333333333334	71.0	-80.0	0.1666666666666666	16.0	5.0	2.0	4.442366161083914	1.167	4.0	stim	poldrack-single-stim	s614	False	1
367.329	1.5	366.578	n/a	-1.0	2.386	columbia_card_task_fmri	n/a	n/a	-1.0	n/a	n/a	n/a	n/a	n/a	n/a	n/a	n/a	ITI	poldrack-single-stim	s614	False	0
379.979	0.97	380.949	0.5037876283808242	draw_card	0.97	columbia_card_task_fmri	13.0	0.8333333333333334	89.0	-70.0	0.1666666666666666	6.0	1.0	1.0	-0.7709596716980336	0.97	1.0	stim	poldrack-single-stim	s614	False	0
381.707	1.5	380.956	n/a	-1.0	2.318	columbia_card_task_fmri	n/a	n/a	-1.0	n/a	n/a	n/a	n/a	n/a	n/a	n/a	n/a	ITI	poldrack-single-stim	s614	False	0
383.279	0.559	383.838	0.5037876283808242	draw_card	0.559	columbia_card_task_fmri	15.0	0.8333333333333334	89.0	-80.0	0.1666666666666666	6.0	1.0	1.0	3.697530233449914	0.559	n/a	stim	poldrack-single-stim	s614	False	1
383.842	0.356	384.198	-2.662879038285844	draw_card	0.356	columbia_card_task_fmri	15.0	0.8	89.0	-80.0	0.2	6.0	2.0	1.0	6.291397637297035	0.356	n/a	stim	poldrack-single-stim	s614	False	1
384.203	0.346	384.549	-7.412879038285844	end_round	0.346	columbia_card_task_fmri	15.0	0.75	71.0	-80.0	0.25	6.0	3.0	1.0	9.425812329020058	0.346	2.0	stim	poldrack-single-stim	s614	False	1
385.304	1.5	384.553	n/a	-1.0	2.318	columbia_card_task_fmri	n/a	n/a	-1.0	n/a	n/a	n/a	n/a	n/a	n/a	n/a	n/a	ITI	poldrack-single-stim	s614	False	0
386.876	0.899	387.775	2.1704542950474903	draw_card	0.899	columbia_card_task_fmri	16.0	0.8333333333333334	89.0	-75.0	0.1666666666666666	6.0	1.0	1.0	2.2079268810846493	0.899	n/a	stim	poldrack-single-stim	s614	False	1
387.779	1.411	389.19	-0.8628790382858429	draw_card	1.411	columbia_card_task_fmri	16.0	0.8	89.0	-75.0	0.2	6.0	2.0	1.0	4.692430696882806	1.411	n/a	stim	poldrack-single-stim	s614	False	1
389.194	0.758	389.952	-5.412879038285844	draw_card	0.758	columbia_card_task_fmri	16.0	0.75	89.0	-75.0	0.25	6.0	3.0	1.0	7.694715956648888	0.758	n/a	stim	poldrack-single-stim	s614	False	1
389.957	1.489	391.446	-12.996212371619176	end_round	1.489	columbia_card_task_fmri	16.0	0.6666666666666667	71.0	-75.0	0.3333333333333333	6.0	4.0	1.0	11.186525317285192	1.489	3.0	stim	poldrack-single-stim	s614	False	1
392.204	1.5	391.453	n/a	-1.0	2.862	columbia_card_task_fmri	n/a	n/a	-1.0	n/a	n/a	n/a	n/a	n/a	n/a	n/a	n/a	ITI	poldrack-single-stim	s614	False	0
394.32	0.564	394.884	3.3371209617141564	draw_card	0.564	columbia_card_task_fmri	21.0	0.75	89.0	-55.0	0.25	8.0	1.0	2.0	1.2039983713818394	0.564	n/a	stim	poldrack-single-stim	s614	False	1
394.888	0.297	395.185	0.6228352474284429	draw_card	0.297	columbia_card_task_fmri	21.0	0.7142857142857143	89.0	-55.0	0.2857142857142857	8.0	2.0	2.0	2.6272077526928364	0.297	n/a	stim	poldrack-single-stim	s614	False	1
395.189	0.619	395.808	-2.996212371619174	draw_card	0.619	columbia_card_task_fmri	21.0	0.6666666666666667	89.0	-55.0	0.3333333333333333	8.0	3.0	2.0	4.119566836319965	0.619	3.0	stim	poldrack-single-stim	s614	False	0
396.564	1.5	395.813	n/a	-1.0	2.726	columbia_card_task_fmri	n/a	n/a	-1.0	n/a	n/a	n/a	n/a	n/a	n/a	n/a	n/a	ITI	poldrack-single-stim	s614	False	0
398.544	0.558	399.102	4.587120961714156	draw_card	0.558	columbia_card_task_fmri	26.0	0.75	89.0	-65.0	0.25	8.0	1.0	2.0	7.694715956648888	0.558	n/a	stim	poldrack-single-stim	s614	False	1
399.106	0.269	399.375	1.33712096171416	draw_card	0.269	columbia_card_task_fmri	26.0	0.7142857142857143	89.0	-65.0	0.2857142857142857	8.0	2.0	2.0	9.39922928007422	0.269	2.0	stim	poldrack-single-stim	s614	False	0
400.134	1.5	399.383	n/a	-1.0	2.25	columbia_card_task_fmri	n/a	n/a	-1.0	n/a	n/a	n/a	n/a	n/a	n/a	n/a	n/a	ITI	poldrack-single-stim	s614	False	0
401.638	0.628	402.266	-0.3295457049525097	draw_card	0.628	columbia_card_task_fmri	15.0	0.7777777777777778	89.0	-60.0	0.2222222222222222	9.0	1.0	2.0	-0.5229848702288074	0.628	n/a	stim	poldrack-single-stim	s614	False	1
402.271	0.305	402.576	-2.412879038285844	draw_card	0.305	columbia_card_task_fmri	15.0	0.75	89.0	-60.0	0.25	9.0	2.0	2.0	0.7713474052131879	0.305	2.0	stim	poldrack-single-stim	s614	False	0
403.335	1.5	402.584	n/a	-1.0	2.318	columbia_card_task_fmri	n/a	n/a	-1.0	n/a	n/a	n/a	n/a	n/a	n/a	n/a	n/a	ITI	poldrack-single-stim	s614	False	0
404.907	0.45	405.357	4.037120961714157	draw_card	0.45	columbia_card_task_fmri	13.0	0.9	89.0	-90.0	0.1	10.0	1.0	1.0	-0.8032032178303474	0.45	n/a	stim	poldrack-single-stim	s614	False	1
405.362	0.308	405.67	2.892676517269712	draw_card	0.308	columbia_card_task_fmri	13.0	0.8888888888888888	89.0	-90.0	0.1111111111111111	10.0	2.0	1.0	0.6652620314950077	0.308	n/a	stim	poldrack-single-stim	s614	False	1
405.675	1.96	407.635	1.4621209617141564	draw_card	1.96	columbia_card_task_fmri	13.0	0.875	89.0	-90.0	0.125	10.0	3.0	1.0	2.3581611429514986	1.96	n/a	stim	poldrack-single-stim	s614	False	1
407.64	1.172	408.812	-0.3771647525715553	end_round	1.172	columbia_card_task_fmri	13.0	0.8571428571428572	71.0	-90.0	0.1428571428571428	10.0	4.0	1.0	4.335165979814708	1.172	3.0	stim	poldrack-single-stim	s614	False	1
409.567	1.5	408.816	n/a	-1.0	2.454	columbia_card_task_fmri	n/a	n/a	-1.0	n/a	n/a	n/a	n/a	n/a	n/a	n/a	n/a	ITI	poldrack-single-stim	s614	False	0
411.276	0.505	411.781	5.337120961714156	draw_card	0.505	columbia_card_task_fmri	15.0	0.9	89.0	-95.0	0.1	10.0	1.0	1.0	1.294958184062576	0.505	n/a	stim	poldrack-single-stim	s614	False	1
411.786	0.546	412.332	4.114898739491933	draw_card	0.546	columbia_card_task_fmri	15.0	0.8888888888888888	89.0	-95.0	0.1111111111111111	10.0	2.0	1.0	2.8633944753544007	0.546	n/a	stim	poldrack-single-stim	s614	False	1
412.337	2.093	414.43	2.5871209617141564	draw_card	2.093	columbia_card_task_fmri	15.0	0.875	89.0	-95.0	0.125	10.0	3.0	1.0	4.67152533215334	2.093	n/a	stim	poldrack-single-stim	s614	False	1
414.435	0.956	415.391	0.6228352474284429	end_round	0.956	columbia_card_task_fmri	15.0	0.8571428571428572	71.0	-95.0	0.1428571428571428	10.0	4.0	1.0	6.783078903661515	0.956	3.0	stim	poldrack-single-stim	s614	False	1
416.146	1.5	415.395	n/a	-1.0	2.522	columbia_card_task_fmri	n/a	n/a	-1.0	n/a	n/a	n/a	n/a	n/a	n/a	n/a	n/a	ITI	poldrack-single-stim	s614	False	0
417.923	0.687	418.61	1.137120961714157	draw_card	0.687	columbia_card_task_fmri	16.0	0.8	89.0	-65.0	0.2	10.0	1.0	2.0	0.6954592090569953	0.687	1.0	stim	poldrack-single-stim	s614	False	0
419.366	1.5	418.615	n/a	-1.0	2.318	columbia_card_task_fmri	n/a	n/a	-1.0	n/a	n/a	n/a	n/a	n/a	n/a	n/a	n/a	ITI	poldrack-single-stim	s614	False	0
420.939	0.531	421.47	-0.1628790382858436	draw_card	0.531	columbia_card_task_fmri	7.0	0.9166666666666666	89.0	-95.0	0.0833333333333333	12.0	1.0	1.0	-3.509117090248786	0.531	n/a	stim	poldrack-single-stim	s614	False	1
421.475	0.326	421.801	-0.935606311013117	draw_card	0.326	columbia_card_task_fmri	7.0	0.9090909090909092	89.0	-95.0	0.0909090909090909	12.0	2.0	1.0	-2.378711270880125	0.326	n/a	stim	poldrack-single-stim	s614	False	1
421.806	2.299	424.105	-1.862879038285844	draw_card	2.299	columbia_card_task_fmri	7.0	0.9	89.0	-95.0	0.1	12.0	3.0	1.0	-1.1029199890607906	2.299	n/a	stim	poldrack-single-stim	s614	False	1
424.11	0.684	424.794	-2.996212371619177	end_round	0.684	columbia_card_task_fmri	7.0	0.8888888888888888	71.0	-95.0	0.1111111111111111	12.0	4.0	1.0	0.3512627534712713	0.684	3.0	stim	poldrack-single-stim	s614	False	1
425.553	1.5	424.802	n/a	-1.0	2.522	columbia_card_task_fmri	n/a	n/a	-1.0	n/a	n/a	n/a	n/a	n/a	n/a	n/a	n/a	ITI	poldrack-single-stim	s614	False	0
427.329	0.873	428.202	0.5037876283808242	draw_card	0.873	columbia_card_task_fmri	14.0	0.8333333333333334	89.0	-75.0	0.1666666666666666	12.0	1.0	2.0	1.4631625303491766	0.873	n/a	stim	poldrack-single-stim	s614	False	1
428.207	0.862	429.069	-0.844697220104027	draw_card	0.862	columbia_card_task_fmri	14.0	0.8181818181818181	89.0	-75.0	0.1818181818181818	12.0	2.0	2.0	2.6207324568936663	0.862	n/a	stim	poldrack-single-stim	s614	False	1
429.074	2.461	431.535	-2.4628790382858425	draw_card	2.461	columbia_card_task_fmri	14.0	0.8	89.0	-75.0	0.2	12.0	3.0	2.0	3.8929820131558337	2.461	n/a	stim	poldrack-single-stim	s614	False	1
431.54	0.808	432.348	-4.440656816063619	draw_card	0.808	columbia_card_task_fmri	14.0	0.7777777777777778	89.0	-75.0	0.2222222222222222	12.0	4.0	2.0	5.292866453493669	0.808	4.0	stim	poldrack-single-stim	s614	False	0
433.104	1.5	432.353	n/a	-1.0	2.998	columbia_card_task_fmri	n/a	n/a	-1.0	n/a	n/a	n/a	n/a	n/a	n/a	n/a	n/a	ITI	poldrack-single-stim	s614	False	0
435.357	0.78	436.137	2.1704542950474903	draw_card	0.78	columbia_card_task_fmri	15.0	0.8333333333333334	89.0	-70.0	0.1666666666666666	12.0	1.0	2.0	-0.0262827525466065	0.78	n/a	stim	poldrack-single-stim	s614	False	1
436.142	0.496	436.638	0.8825755071686996	draw_card	0.496	columbia_card_task_fmri	15.0	0.8181818181818181	89.0	-70.0	0.1818181818181818	12.0	2.0	2.0	1.0791780816058072	0.496	n/a	stim	poldrack-single-stim	s614	False	1
436.643	0.862	437.505	-0.6628790382858436	draw_card	0.862	columbia_card_task_fmri	15.0	0.8	89.0	-70.0	0.2	12.0	3.0	2.0	2.29416239175875	0.862	3.0	stim	poldrack-single-stim	s614	False	0
438.265	1.5	437.514	n/a	-1.0	2.318	columbia_card_task_fmri	n/a	n/a	-1.0	n/a	n/a	n/a	n/a	n/a	n/a	n/a	n/a	ITI	poldrack-single-stim	s614	False	0
439.837	0.56	440.397	0.1371209617141571	draw_card	0.56	columbia_card_task_fmri	16.0	0.8	89.0	-70.0	0.2	15.0	1.0	3.0	2.6938570146719734	0.56	1.0	stim	poldrack-single-stim	s614	False	0
441.154	1.5	440.403	n/a	-1.0	2.25	columbia_card_task_fmri	n/a	n/a	-1.0	n/a	n/a	n/a	n/a	n/a	n/a	n/a	n/a	ITI	poldrack-single-stim	s614	False	0
442.659	0.725	443.384	0.5246209617141564	draw_card	0.725	columbia_card_task_fmri	14.0	0.8125	89.0	-65.0	0.1875	16.0	1.0	3.0	-0.868464398847081	0.725	n/a	stim	poldrack-single-stim	s614	False	1
443.39	0.424	443.814	-0.4628790382858425	draw_card	0.424	columbia_card_task_fmri	14.0	0.8	89.0	-65.0	0.2	16.0	2.0	3.0	-0.1038431999964366	0.424	n/a	stim	poldrack-single-stim	s614	False	1
443.819	1.981	445.8	-1.5914504668572709	draw_card	1.981	columbia_card_task_fmri	14.0	0.7857142857142857	89.0	-65.0	0.2142857142857142	16.0	3.0	3.0	0.711192186103883	1.981	n/a	stim	poldrack-single-stim	s614	False	1
445.806	0.76	446.566	-2.8936482690550758	end_round	0.76	columbia_card_task_fmri	14.0	0.7692307692307692	71.0	-65.0	0.2307692307692307	16.0	4.0	3.0	1.579405270831206	0.76	3.0	stim	poldrack-single-stim	s614	False	1
447.324	1.5	446.573	n/a	-1.0	2.454	columbia_card_task_fmri	n/a	n/a	-1.0	n/a	n/a	n/a	n/a	n/a	n/a	n/a	n/a	ITI	poldrack-single-stim	s614	False	0
449.033	0.643	449.676	0.2746209617141564	draw_card	0.643	columbia_card_task_fmri	16.0	0.8125	89.0	-75.0	0.1875	16.0	1.0	3.0	3.8114657391388422	0.643	1.0	stim	poldrack-single-stim	s614	False	0
450.436	1.5	449.685	n/a	-1.0	2.318	columbia_card_task_fmri	n/a	n/a	-1.0	n/a	n/a	n/a	n/a	n/a	n/a	n/a	n/a	ITI	poldrack-single-stim	s614	False	0
452.008	0.512	452.52	4.537120961714157	draw_card	0.512	columbia_card_task_fmri	16.0	0.8666666666666667	89.0	-80.0	0.1333333333333333	15.0	1.0	2.0	0.9289867382307015	0.512	n/a	stim	poldrack-single-stim	s614	False	1
452.525	0.328	452.853	3.6228352474284446	draw_card	0.328	columbia_card_task_fmri	16.0	0.8571428571428572	89.0	-80.0	0.1428571428571428	15.0	2.0	2.0	1.8874827536149503	0.328	2.0	stim	poldrack-single-stim	s614	False	0
453.609	1.5	452.858	n/a	-1.0	2.318	columbia_card_task_fmri	n/a	n/a	-1.0	n/a	n/a	n/a	n/a	n/a	n/a	n/a	n/a	ITI	poldrack-single-stim	s614	False	0
455.181	0.456	455.637	5.403787628380824	draw_card	0.456	columbia_card_task_fmri	17.0	0.8666666666666667	89.0	-80.0	0.1333333333333333	15.0	1.0	2.0	1.2686393185017373	0.456	n/a	stim	poldrack-single-stim	s614	False	1
455.643	0.349	455.992	4.479978104571302	draw_card	0.349	columbia_card_task_fmri	17.0	0.8571428571428572	89.0	-80.0	0.1428571428571428	15.0	2.0	2.0	2.237135840858979	0.349	n/a	stim	poldrack-single-stim	s614	False	1
455.997	0.509	456.506	3.414044038637233	draw_card	0.509	columbia_card_task_fmri	17.0	0.8461538461538461	89.0	-80.0	0.1538461538461538	15.0	3.0	2.0	3.2911312785088107	0.509	n/a	stim	poldrack-single-stim	s614	False	1
456.512	1.277	457.789	2.170454295047492	draw_card	1.277	columbia_card_task_fmri	17.0	0.8333333333333334	89.0	-80.0	0.1666666666666666	15.0	4.0	2.0	4.442366161083914	1.277	n/a	stim	poldrack-single-stim	s614	False	1
457.794	2.476	460.27	0.7007573253505179	draw_card	2.476	columbia_card_task_fmri	17.0	0.8181818181818181	89.0	-80.0	0.1818181818181818	15.0	5.0	2.0	5.704143754692222	2.476	n/a	stim	poldrack-single-stim	s614	False	1
460.275	2.169	462.444	-1.0628790382858422	draw_card	2.169	columbia_card_task_fmri	17.0	0.8	89.0	-80.0	0.2	15.0	6.0	2.0	7.090913028549768	2.169	6.0	stim	poldrack-single-stim	s614	False	0
463.204	1.5	462.453	n/a	-1.0	2.59	columbia_card_task_fmri	n/a	n/a	-1.0	n/a	n/a	n/a	n/a	n/a	n/a	n/a	n/a	ITI	poldrack-single-stim	s614	False	0
465.049	0.431	465.48	1.3371209617141564	draw_card	0.431	columbia_card_task_fmri	1.0	0.9375	89.0	-15.0	0.0625	16.0	1.0	1.0	-27.63481691392742	0.431	n/a	stim	poldrack-single-stim	s614	False	1
465.485	0.649	466.134	1.2704542950474895	draw_card	0.649	columbia_card_task_fmri	1.0	0.9333333333333332	89.0	-15.0	0.0666666666666666	16.0	2.0	1.0	-27.522989273696798	0.649	n/a	stim	poldrack-single-stim	s614	False	1
466.14	0.393	466.533	1.1942638188570136	draw_card	0.393	columbia_card_task_fmri	1.0	0.9285714285714286	89.0	-15.0	0.0714285714285714	16.0	3.0	1.0	-27.39997452433269	0.393	n/a	stim	poldrack-single-stim	s614	False	1
466.539	0.285	466.824	1.1063517309449256	draw_card	0.285	columbia_card_task_fmri	1.0	0.9230769230769232	89.0	-15.0	0.0769230769230769	16.0	4.0	1.0	-27.263853291055725	0.285	n/a	stim	poldrack-single-stim	s614	False	1
466.83	0.336	467.166	1.003787628380823	draw_card	0.336	columbia_card_task_fmri	1.0	0.9166666666666666	89.0	-15.0	0.0833333333333333	16.0	5.0	1.0	-27.112223015315884	0.336	n/a	stim	poldrack-single-stim	s614	False	1
467.171	0.462	467.633	0.8825755071687017	draw_card	0.462	columbia_card_task_fmri	1.0	0.9090909090909092	89.0	-15.0	0.0909090909090909	16.0	6.0	1.0	-26.942034678044333	0.462	n/a	stim	poldrack-single-stim	s614	False	1
467.639	0.993	468.632	0.7371209617141564	draw_card	0.993	columbia_card_task_fmri	1.0	0.9	89.0	-15.0	0.1	16.0	7.0	1.0	-26.74936046300295	0.993	7.0	stim	poldrack-single-stim	s614	False	0
469.39	1.5	468.639	n/a	-1.0	2.25	columbia_card_task_fmri	n/a	n/a	-1.0	n/a	n/a	n/a	n/a	n/a	n/a	n/a	n/a	ITI	poldrack-single-stim	s614	False	0
470.897	0.509	471.406	4.462120961714156	draw_card	0.509	columbia_card_task_fmri	10.0	0.9375	89.0	-100.0	0.0625	16.0	1.0	1.0	-5.071807394916544	0.509	n/a	stim	poldrack-single-stim	s614	False	1
471.411	0.227	471.638	4.003787628380824	draw_card	0.227	columbia_card_task_fmri	10.0	0.9333333333333332	89.0	-100.0	0.0666666666666666	16.0	2.0	1.0	-4.260738853213688	0.227	n/a	stim	poldrack-single-stim	s614	False	1
471.643	0.28	471.923	3.4799781045713005	draw_card	0.28	columbia_card_task_fmri	10.0	0.9285714285714286	89.0	-100.0	0.0714285714285714	16.0	3.0	1.0	-3.371250590622104	0.28	n/a	stim	poldrack-single-stim	s614	False	1
471.927	0.38	472.307	2.875582500175696	draw_card	0.38	columbia_card_task_fmri	10.0	0.9230769230769232	89.0	-100.0	0.0769230769230769	16.0	4.0	1.0	-2.3900087789614908	0.38	4.0	stim	poldrack-single-stim	s614	False	0
473.064	1.5	472.313	n/a	-1.0	2.25	columbia_card_task_fmri	n/a	n/a	-1.0	n/a	n/a	n/a	n/a	n/a	n/a	n/a	n/a	ITI	poldrack-single-stim	s614	False	0
474.568	0.626	475.194	5.087120961714156	draw_card	0.626	columbia_card_task_fmri	15.0	0.875	89.0	-75.0	0.125	16.0	1.0	2.0	-1.9373991037216167	0.626	n/a	stim	poldrack-single-stim	s614	False	1
475.198	0.282	475.48	4.337120961714156	draw_card	0.282	columbia_card_task_fmri	15.0	0.8666666666666667	89.0	-75.0	0.1333333333333333	16.0	2.0	2.0	-1.1087972980142382	0.282	n/a	stim	poldrack-single-stim	s614	False	1
475.485	0.219	475.704	3.4799781045713005	draw_card	0.219	columbia_card_task_fmri	15.0	0.8571428571428572	89.0	-75.0	0.1428571428571428	16.0	3.0	2.0	-0.2103080592408197	0.219	n/a	stim	poldrack-single-stim	s614	False	1
475.709	0.614	476.323	2.4909671155603097	draw_card	0.614	columbia_card_task_fmri	15.0	0.8461538461538461	89.0	-75.0	0.1538461538461538	16.0	4.0	2.0	0.767507123770752	0.614	n/a	stim	poldrack-single-stim	s614	False	1
476.327	1.211	477.538	1.3371209617141564	draw_card	1.211	columbia_card_task_fmri	15.0	0.8333333333333334	89.0	-75.0	0.1666666666666666	16.0	5.0	2.0	1.8355414227305964	1.211	5.0	stim	poldrack-single-stim	s614	False	0
478.295	1.5	477.544	n/a	-1.0	2.522	columbia_card_task_fmri	n/a	n/a	-1.0	n/a	n/a	n/a	n/a	n/a	n/a	n/a	n/a	ITI	poldrack-single-stim	s614	False	0
480.072	0.416	480.488	5.337120961714156	draw_card	0.416	columbia_card_task_fmri	16.0	0.875	89.0	-80.0	0.125	16.0	1.0	2.0	0.0450399319660057	0.416	n/a	stim	poldrack-single-stim	s614	False	1
480.493	0.302	480.795	4.537120961714157	draw_card	0.302	columbia_card_task_fmri	16.0	0.8666666666666667	89.0	-80.0	0.1333333333333333	16.0	2.0	2.0	0.9289867382307015	0.302	n/a	stim	poldrack-single-stim	s614	False	1
480.8	0.312	481.112	3.6228352474284446	draw_card	0.312	columbia_card_task_fmri	16.0	0.8571428571428572	89.0	-80.0	0.1428571428571428	16.0	3.0	2.0	1.8874827536149503	0.312	n/a	stim	poldrack-single-stim	s614	False	1
481.118	0.377	481.495	2.5678901924833863	draw_card	0.377	columbia_card_task_fmri	16.0	0.8461538461538461	89.0	-80.0	0.1538461538461538	16.0	4.0	2.0	2.930595845020082	0.377	n/a	stim	poldrack-single-stim	s614	False	1
481.501	1.044	482.545	1.3371209617141582	draw_card	1.044	columbia_card_task_fmri	16.0	0.8333333333333334	89.0	-80.0	0.1666666666666666	16.0	5.0	2.0	4.069945491429902	1.044	n/a	stim	poldrack-single-stim	s614	False	1
482.55	1.633	484.183	-0.1174244928313004	end_round	1.633	columbia_card_task_fmri	16.0	0.8181818181818181	71.0	-80.0	0.1818181818181818	16.0	6.0	2.0	5.318697806070215	1.633	5.0	stim	poldrack-single-stim	s614	False	1
484.941	1.5	484.19	n/a	-1.0	2.454	columbia_card_task_fmri	n/a	n/a	-1.0	n/a	n/a	n/a	n/a	n/a	n/a	n/a	n/a	ITI	poldrack-single-stim	s614	False	0
486.65	0.854	487.504	2.5246209617141564	draw_card	0.854	columbia_card_task_fmri	4.0	0.6875	89.0	-5.0	0.3125	16.0	1.0	5.0	-27.351453802154424	0.854	n/a	stim	poldrack-single-stim	s614	False	1
487.508	0.493	488.001	2.337120961714157	draw_card	0.493	columbia_card_task_fmri	4.0	0.6666666666666667	89.0	-5.0	0.3333333333333333	16.0	2.0	5.0	-27.28376158494262	0.493	n/a	stim	poldrack-single-stim	s614	False	1
488.007	1.103	489.11	2.122835247428441	end_round	1.103	columbia_card_task_fmri	4.0	0.6428571428571428	71.0	-5.0	0.3571428571428571	16.0	3.0	5.0	-27.217163591998165	1.103	2.0	stim	poldrack-single-stim	s614	False	1
489.866	1.5	489.115	n/a	-1.0	2.25	columbia_card_task_fmri	n/a	n/a	-1.0	n/a	n/a	n/a	n/a	n/a	n/a	n/a	n/a	ITI	poldrack-single-stim	s614	False	0
491.371	1.412	492.783	-0.3295457049525079	draw_card	1.412	columbia_card_task_fmri	14.0	0.8333333333333334	89.0	-80.0	0.1666666666666666	6.0	1.0	1.0	3.325120559609605	1.412	n/a	stim	poldrack-single-stim	s614	False	1
492.789	0.941	493.73	-3.4628790382858425	draw_card	0.941	columbia_card_task_fmri	14.0	0.8	89.0	-80.0	0.2	6.0	2.0	1.0	5.891647667563877	0.941	n/a	stim	poldrack-single-stim	s614	False	1
493.736	1.142	494.878	-8.162879038285844	end_round	1.142	columbia_card_task_fmri	14.0	0.75	71.0	-80.0	0.25	6.0	3.0	1.0	8.993030626956209	1.142	2.0	stim	poldrack-single-stim	s614	False	1
495.634	1.5	494.883	n/a	-1.0	2.454	columbia_card_task_fmri	n/a	n/a	-1.0	n/a	n/a	n/a	n/a	n/a	n/a	n/a	n/a	ITI	poldrack-single-stim	s614	False	0
497.344	1.688	499.032	1.3371209617141564	draw_card	1.688	columbia_card_task_fmri	15.0	0.8333333333333334	89.0	-75.0	0.1666666666666666	6.0	1.0	1.0	1.8355414227305964	1.688	n/a	stim	poldrack-single-stim	s614	False	1
499.037	0.368	499.405	-1.6628790382858436	draw_card	0.368	columbia_card_task_fmri	15.0	0.8	89.0	-75.0	0.2	6.0	2.0	1.0	4.292703295316425	0.368	n/a	stim	poldrack-single-stim	s614	False	1
499.41	1.25	500.66	-6.162879038285844	end_round	1.25	columbia_card_task_fmri	15.0	0.75	71.0	-75.0	0.25	6.0	3.0	1.0	7.261955108156858	1.25	2.0	stim	poldrack-single-stim	s614	False	1
501.416	1.5	500.665	n/a	-1.0	2.454	columbia_card_task_fmri	n/a	n/a	-1.0	n/a	n/a	n/a	n/a	n/a	n/a	n/a	n/a	ITI	poldrack-single-stim	s614	False	0
503.125	0.645	503.77	3.003787628380824	draw_card	0.645	columbia_card_task_fmri	16.0	0.8333333333333334	89.0	-70.0	0.1666666666666666	6.0	1.0	1.0	0.3460675356489169	0.645	n/a	stim	poldrack-single-stim	s614	False	1
503.775	0.304	504.079	0.1371209617141571	draw_card	0.304	columbia_card_task_fmri	16.0	0.8	89.0	-70.0	0.2	6.0	2.0	1.0	2.6938570146719734	0.304	2.0	stim	poldrack-single-stim	s614	False	0
504.836	1.5	504.085	n/a	-1.0	2.522	columbia_card_task_fmri	n/a	n/a	-1.0	n/a	n/a	n/a	n/a	n/a	n/a	n/a	n/a	ITI	poldrack-single-stim	s614	False	0
506.614	0.594	507.208	3.5871209617141564	draw_card	0.594	columbia_card_task_fmri	23.0	0.75	89.0	-60.0	0.25	8.0	1.0	2.0	4.232798927437084	0.594	n/a	stim	poldrack-single-stim	s614	False	1
507.214	0.297	507.511	0.6228352474284446	draw_card	0.297	columbia_card_task_fmri	23.0	0.7142857142857143	89.0	-60.0	0.2857142857142857	8.0	2.0	2.0	5.78729178705883	0.297	2.0	stim	poldrack-single-stim	s614	False	0
508.268	1.5	507.517	n/a	-1.0	2.454	columbia_card_task_fmri	n/a	n/a	-1.0	n/a	n/a	n/a	n/a	n/a	n/a	n/a	n/a	ITI	poldrack-single-stim	s614	False	0
509.979	0.637	510.616	4.087120961714156	draw_card	0.637	columbia_card_task_fmri	27.0	0.75	89.0	-70.0	0.25	8.0	1.0	2.0	10.291390010755196	0.637	1.0	stim	poldrack-single-stim	s614	False	0
511.373	1.5	510.622	n/a	-1.0	2.658	columbia_card_task_fmri	n/a	n/a	-1.0	n/a	n/a	n/a	n/a	n/a	n/a	n/a	n/a	ITI	poldrack-single-stim	s614	False	0
513.285	0.67	513.955	-0.6628790382858418	draw_card	0.67	columbia_card_task_fmri	16.0	0.7777777777777778	89.0	-65.0	0.2222222222222222	9.0	1.0	2.0	1.9693323929572168	0.67	n/a	stim	poldrack-single-stim	s614	False	1
513.961	0.314	514.275	-2.912879038285844	draw_card	0.314	columbia_card_task_fmri	16.0	0.75	89.0	-65.0	0.25	9.0	2.0	2.0	3.3673870255022145	0.314	n/a	stim	poldrack-single-stim	s614	False	1
514.281	0.986	515.267	-5.805736181142985	end_round	0.986	columbia_card_task_fmri	16.0	0.7142857142857143	71.0	-65.0	0.2857142857142857	9.0	3.0	2.0	4.884371985330983	0.986	2.0	stim	poldrack-single-stim	s614	False	1
516.024	1.5	515.273	n/a	-1.0	2.386	columbia_card_task_fmri	n/a	n/a	-1.0	n/a	n/a	n/a	n/a	n/a	n/a	n/a	n/a	ITI	poldrack-single-stim	s614	False	0
517.666	0.707	518.373	4.537120961714157	draw_card	0.707	columbia_card_task_fmri	13.0	0.9	89.0	-85.0	0.1	10.0	1.0	1.0	-2.3017293590810475	0.707	n/a	stim	poldrack-single-stim	s614	False	1
518.378	0.254	518.632	3.448232072825267	draw_card	0.254	columbia_card_task_fmri	13.0	0.8888888888888888	89.0	-85.0	0.1111111111111111	10.0	2.0	1.0	-0.9046792500427792	0.254	2.0	stim	poldrack-single-stim	s614	False	0
519.392	1.5	518.641	n/a	-1.0	2.522	columbia_card_task_fmri	n/a	n/a	-1.0	n/a	n/a	n/a	n/a	n/a	n/a	n/a	n/a	ITI	poldrack-single-stim	s614	False	0
521.169	0.478	521.647	-0.4628790382858425	end_round	0.478	columbia_card_task_fmri	14.0	0.8	71.0	-65.0	0.2	10.0	1.0	2.0	-0.1038431999964366	0.478	0.0	stim	poldrack-single-stim	s614	False	1
522.406	1.5	521.655	n/a	-1.0	2.59	columbia_card_task_fmri	n/a	n/a	-1.0	n/a	n/a	n/a	n/a	n/a	n/a	n/a	n/a	ITI	poldrack-single-stim	s614	False	0
524.252	0.647	524.899	0.9371209617141578	draw_card	0.647	columbia_card_task_fmri	17.0	0.8	89.0	-70.0	0.2	10.0	1.0	2.0	3.0935586498947494	0.647	n/a	stim	poldrack-single-stim	s614	False	1
524.905	0.27	525.175	-0.9962123716191758	draw_card	0.27	columbia_card_task_fmri	17.0	0.7777777777777778	89.0	-70.0	0.2222222222222222	10.0	2.0	2.0	4.461941884315461	0.27	n/a	stim	poldrack-single-stim	s614	False	1
525.181	2.875	528.056	-3.412879038285844	draw_card	2.875	columbia_card_task_fmri	17.0	0.75	89.0	-70.0	0.25	10.0	3.0	2.0	5.963707269139622	2.875	n/a	stim	poldrack-single-stim	s614	False	1
528.061	0.711	528.772	-6.520021895428702	end_round	0.711	columbia_card_task_fmri	17.0	0.7142857142857143	71.0	-70.0	0.2857142857142857	10.0	4.0	2.0	7.593212434713447	0.711	3.0	stim	poldrack-single-stim	s614	False	1
529.529	1.5	528.778	n/a	-1.0	2.386	columbia_card_task_fmri	n/a	n/a	-1.0	n/a	n/a	n/a	n/a	n/a	n/a	n/a	n/a	ITI	poldrack-single-stim	s614	False	0
531.17	0.627	531.797	-0.3295457049525097	draw_card	0.627	columbia_card_task_fmri	13.0	0.8333333333333334	89.0	-75.0	0.1666666666666666	12.0	1.0	2.0	1.0907904274150615	0.627	n/a	stim	poldrack-single-stim	s614	False	1
531.802	0.502	532.304	-1.6628790382858454	draw_card	0.502	columbia_card_task_fmri	13.0	0.8181818181818181	89.0	-75.0	0.1818181818181818	12.0	2.0	2.0	2.2353334429958416	0.502	n/a	stim	poldrack-single-stim	s614	False	1
532.309	0.622	532.931	-3.2628790382858432	draw_card	0.622	columbia_card_task_fmri	13.0	0.8	89.0	-75.0	0.2	12.0	3.0	2.0	3.493267058721546	0.622	n/a	stim	poldrack-single-stim	s614	False	1
532.937	1.593	534.53	-5.218434593841398	draw_card	1.593	columbia_card_task_fmri	13.0	0.7777777777777778	89.0	-75.0	0.2222222222222222	12.0	4.0	2.0	4.877401019501892	1.593	n/a	stim	poldrack-single-stim	s614	False	1
534.535	0.654	535.189	-7.662879038285844	end_round	0.654	columbia_card_task_fmri	13.0	0.75	71.0	-75.0	0.25	12.0	5.0	2.0	6.396450567446312	0.654	4.0	stim	poldrack-single-stim	s614	False	1
535.948	1.5	535.197	n/a	-1.0	2.59	columbia_card_task_fmri	n/a	n/a	-1.0	n/a	n/a	n/a	n/a	n/a	n/a	n/a	n/a	ITI	poldrack-single-stim	s614	False	0
537.794	1.762	539.556	1.3371209617141582	draw_card	1.762	columbia_card_task_fmri	14.0	0.8333333333333334	89.0	-70.0	0.1666666666666666	12.0	1.0	2.0	-0.3986252487035457	1.762	n/a	stim	poldrack-single-stim	s614	False	1
539.561	0.502	540.063	0.0643936889868812	draw_card	0.502	columbia_card_task_fmri	14.0	0.8181818181818181	89.0	-70.0	0.1818181818181818	12.0	2.0	2.0	0.6938076802006599	0.502	n/a	stim	poldrack-single-stim	s614	False	1
540.069	0.734	540.803	-1.4628790382858423	draw_card	0.734	columbia_card_task_fmri	14.0	0.8	89.0	-70.0	0.2	12.0	3.0	2.0	1.8944750312055767	0.734	n/a	stim	poldrack-single-stim	s614	False	1
540.809	1.199	542.008	-3.3295457049525097	draw_card	1.199	columbia_card_task_fmri	14.0	0.7777777777777778	89.0	-70.0	0.2222222222222222	12.0	4.0	2.0	3.21560451798047	1.199	n/a	stim	poldrack-single-stim	s614	False	1
542.014	0.704	542.718	-5.662879038285844	end_round	0.704	columbia_card_task_fmri	14.0	0.75	71.0	-70.0	0.25	12.0	5.0	2.0	4.665515822523478	0.704	4.0	stim	poldrack-single-stim	s614	False	1
543.475	1.5	542.724	n/a	-1.0	2.318	columbia_card_task_fmri	n/a	n/a	-1.0	n/a	n/a	n/a	n/a	n/a	n/a	n/a	n/a	ITI	poldrack-single-stim	s614	False	0
545.05	0.952	546.002	1.3371209617141582	draw_card	0.952	columbia_card_task_fmri	16.0	0.8333333333333334	89.0	-80.0	0.1666666666666666	12.0	1.0	2.0	4.069945491429902	0.952	n/a	stim	poldrack-single-stim	s614	False	1
546.011	0.297	546.308	-0.1174244928313004	draw_card	0.297	columbia_card_task_fmri	16.0	0.8181818181818181	89.0	-80.0	0.1818181818181818	12.0	2.0	2.0	5.318697806070215	0.297	n/a	stim	poldrack-single-stim	s614	False	1
546.314	0.291	546.605	-1.862879038285843	draw_card	0.291	columbia_card_task_fmri	16.0	0.8	89.0	-80.0	0.2	12.0	3.0	2.0	6.69115281121238	0.291	n/a	stim	poldrack-single-stim	s614	False	1
546.612	0.666	547.278	-3.9962123716191775	draw_card	0.666	columbia_card_task_fmri	16.0	0.7777777777777778	89.0	-80.0	0.2222222222222222	12.0	4.0	2.0	8.201284343423392	0.666	n/a	stim	poldrack-single-stim	s614	False	1
547.282	0.622	547.904	-6.662879038285844	end_round	0.622	columbia_card_task_fmri	16.0	0.75	71.0	-80.0	0.25	12.0	5.0	2.0	9.858598839809904	0.622	4.0	stim	poldrack-single-stim	s614	False	1
548.662	1.5	547.911	n/a	-1.0	2.25	columbia_card_task_fmri	n/a	n/a	-1.0	n/a	n/a	n/a	n/a	n/a	n/a	n/a	n/a	ITI	poldrack-single-stim	s614	False	0
550.17	1.037	551.207	1.137120961714157	draw_card	1.037	columbia_card_task_fmri	16.0	0.8	89.0	-65.0	0.2	15.0	1.0	3.0	0.6954592090569953	1.037	n/a	stim	poldrack-single-stim	s614	False	1
551.212	0.338	551.55	-0.0200218954286994	draw_card	0.338	columbia_card_task_fmri	16.0	0.7857142857142857	89.0	-65.0	0.2142857142857142	15.0	2.0	3.0	1.5311639125663596	0.338	n/a	stim	poldrack-single-stim	s614	False	1
551.556	0.555	552.111	-1.355186730593537	draw_card	0.555	columbia_card_task_fmri	16.0	0.7692307692307692	89.0	-65.0	0.2307692307692307	15.0	3.0	3.0	2.4213929909096485	0.555	n/a	stim	poldrack-single-stim	s614	False	1
552.116	0.709	552.825	-2.912879038285844	draw_card	0.709	columbia_card_task_fmri	16.0	0.75	89.0	-65.0	0.25	15.0	4.0	3.0	3.3673870255022145	0.709	n/a	stim	poldrack-single-stim	s614	False	1
552.831	2.007	554.838	-4.753788129194934	end_round	2.007	columbia_card_task_fmri	16.0	0.7272727272727273	71.0	-65.0	0.2727272727272727	15.0	5.0	3.0	4.366955685696507	2.007	4.0	stim	poldrack-single-stim	s614	False	1
555.594	1.5	554.843	n/a	-1.0	2.454	columbia_card_task_fmri	n/a	n/a	-1.0	n/a	n/a	n/a	n/a	n/a	n/a	n/a	n/a	ITI	poldrack-single-stim	s614	False	0
557.304	0.714	558.018	-0.5378790382858436	draw_card	0.714	columbia_card_task_fmri	15.0	0.8125	89.0	-75.0	0.1875	16.0	1.0	3.0	3.42143271426728	0.714	n/a	stim	poldrack-single-stim	s614	False	1
558.024	0.42	558.444	-1.6628790382858436	draw_card	0.42	columbia_card_task_fmri	15.0	0.8	89.0	-75.0	0.2	16.0	2.0	3.0	4.292703295316425	0.42	n/a	stim	poldrack-single-stim	s614	False	1
558.451	0.62	559.071	-2.9485933240001283	draw_card	0.62	columbia_card_task_fmri	15.0	0.7857142857142857	89.0	-75.0	0.2142857142857142	16.0	3.0	3.0	5.221410327810919	0.62	n/a	stim	poldrack-single-stim	s614	False	1
559.078	0.942	560.02	-4.432109807516618	draw_card	0.942	columbia_card_task_fmri	15.0	0.7692307692307692	89.0	-75.0	0.2307692307692307	16.0	4.0	3.0	6.210701666249637	0.942	n/a	stim	poldrack-single-stim	s614	False	1
560.027	1.828	561.855	-6.162879038285844	end_round	1.828	columbia_card_task_fmri	15.0	0.75	71.0	-75.0	0.25	16.0	5.0	3.0	7.261955108156858	1.828	4.0	stim	poldrack-single-stim	s614	False	1
562.613	1.5	561.862	n/a	-1.0	3.27	columbia_card_task_fmri	n/a	n/a	-1.0	n/a	n/a	n/a	n/a	n/a	n/a	n/a	n/a	ITI	poldrack-single-stim	s614	False	0
565.139	0.694	565.833	0.0246209617141563	draw_card	0.694	columbia_card_task_fmri	14.0	0.6875	89.0	-35.0	0.3125	16.0	1.0	5.0	-8.980686268406764	0.694	n/a	stim	poldrack-single-stim	s614	False	1
565.84	0.486	566.326	-0.9962123716191758	draw_card	0.486	columbia_card_task_fmri	14.0	0.6666666666666667	89.0	-35.0	0.3333333333333333	16.0	2.0	5.0	-8.594629888510589	0.486	n/a	stim	poldrack-single-stim	s614	False	1
566.333	0.687	567.02	-2.162879038285844	draw_card	0.687	columbia_card_task_fmri	14.0	0.6428571428571428	89.0	-35.0	0.3571428571428571	16.0	3.0	5.0	-8.215362291630338	0.687	n/a	stim	poldrack-single-stim	s614	False	1
567.027	0.464	567.491	-3.5090328844396885	draw_card	0.464	columbia_card_task_fmri	14.0	0.6153846153846154	89.0	-35.0	0.3846153846153846	16.0	4.0	5.0	-7.855941143392616	0.464	n/a	stim	poldrack-single-stim	s614	False	1
567.499	0.561	568.06	-5.079545704952512	draw_card	0.561	columbia_card_task_fmri	14.0	0.5833333333333333	89.0	-35.0	0.4166666666666667	16.0	5.0	5.0	-7.537817323094437	0.561	n/a	stim	poldrack-single-stim	s614	False	1
568.069	2.099	570.168	-6.935606311013117	end_round	2.099	columbia_card_task_fmri	14.0	0.5454545454545454	71.0	-35.0	0.4545454545454545	16.0	6.0	5.0	-7.296957849160613	2.099	5.0	stim	poldrack-single-stim	s614	False	1
570.928	1.5	570.177	n/a	-1.0	2.25	columbia_card_task_fmri	n/a	n/a	-1.0	n/a	n/a	n/a	n/a	n/a	n/a	n/a	n/a	ITI	poldrack-single-stim	s614	False	0
572.435	0.997	573.432	5.203787628380823	draw_card	0.997	columbia_card_task_fmri	16.0	0.8666666666666667	89.0	-75.0	0.1333333333333333	15.0	1.0	2.0	-0.769183303445061	0.997	n/a	stim	poldrack-single-stim	s614	False	1
573.44	0.445	573.885	4.337120961714158	draw_card	0.445	columbia_card_task_fmri	16.0	0.8571428571428572	89.0	-75.0	0.1428571428571428	15.0	2.0	2.0	0.1393075385390112	0.445	2.0	stim	poldrack-single-stim	s614	False	0
574.642	1.5	573.891	n/a	-1.0	2.25	columbia_card_task_fmri	n/a	n/a	-1.0	n/a	n/a	n/a	n/a	n/a	n/a	n/a	n/a	ITI	poldrack-single-stim	s614	False	0
576.149	0.587	576.736	5.870454295047489	draw_card	0.587	columbia_card_task_fmri	16.0	0.8666666666666667	89.0	-70.0	0.1333333333333333	15.0	1.0	2.0	-2.467178821835628	0.587	n/a	stim	poldrack-single-stim	s614	False	1
576.744	0.475	577.219	5.051406675999871	draw_card	0.475	columbia_card_task_fmri	16.0	0.8571428571428572	89.0	-70.0	0.1428571428571428	15.0	2.0	2.0	-1.608698110091673	0.475	n/a	stim	poldrack-single-stim	s614	False	1
577.227	1.065	578.292	4.106351730944924	draw_card	1.065	columbia_card_task_fmri	16.0	0.8461538461538461	89.0	-70.0	0.1538461538461538	15.0	3.0	2.0	-0.6744189786718451	1.065	n/a	stim	poldrack-single-stim	s614	False	1
578.298	0.454	578.752	3.003787628380824	draw_card	0.454	columbia_card_task_fmri	16.0	0.8333333333333334	89.0	-70.0	0.1666666666666666	15.0	4.0	2.0	0.3460675356489169	0.454	4.0	stim	poldrack-single-stim	s614	False	0
579.509	1.5	578.758	n/a	-1.0	2.318	columbia_card_task_fmri	n/a	n/a	-1.0	n/a	n/a	n/a	n/a	n/a	n/a	n/a	n/a	ITI	poldrack-single-stim	s614	False	0
581.082	0.668	581.75	3.2121209617141564	draw_card	0.668	columbia_card_task_fmri	8.0	0.9375	89.0	-90.0	0.0625	16.0	1.0	1.0	-7.972442642744983	0.668	n/a	stim	poldrack-single-stim	s614	False	1
581.756	0.325	582.081	2.803787628380823	draw_card	0.325	columbia_card_task_fmri	8.0	0.9333333333333332	89.0	-90.0	0.0666666666666666	16.0	2.0	1.0	-7.250083414720162	0.325	n/a	stim	poldrack-single-stim	s614	False	1
582.087	0.407	582.494	2.3371209617141573	draw_card	0.407	columbia_card_task_fmri	8.0	0.9285714285714286	89.0	-90.0	0.0714285714285714	16.0	3.0	1.0	-6.457866437083752	0.407	n/a	stim	poldrack-single-stim	s614	False	1
582.499	0.36	582.859	1.798659423252618	draw_card	0.36	columbia_card_task_fmri	8.0	0.9230769230769232	89.0	-90.0	0.0769230769230769	16.0	4.0	1.0	-5.583913147731341	0.36	n/a	stim	poldrack-single-stim	s614	False	1
582.864	1.103	583.967	1.1704542950474894	draw_card	1.103	columbia_card_task_fmri	8.0	0.9166666666666666	89.0	-90.0	0.0833333333333333	16.0	5.0	1.0	-4.613366671310811	1.103	n/a	stim	poldrack-single-stim	s614	False	1
583.974	1.916	585.89	0.4280300526232472	draw_card	1.916	columbia_card_task_fmri	8.0	0.9090909090909092	89.0	-90.0	0.0909090909090909	16.0	6.0	1.0	-3.527388100763929	1.916	n/a	stim	poldrack-single-stim	s614	False	1
585.896	0.929	586.825	-0.4628790382858434	draw_card	0.929	columbia_card_task_fmri	8.0	0.9	89.0	-90.0	0.1	16.0	7.0	1.0	-2.3017293590810475	0.929	n/a	stim	poldrack-single-stim	s614	False	1
586.83	0.702	587.532	-1.5517679271747329	draw_card	0.702	columbia_card_task_fmri	8.0	0.8888888888888888	89.0	-90.0	0.1111111111111111	16.0	8.0	1.0	-0.9046792500427792	0.702	n/a	stim	poldrack-single-stim	s614	False	1
587.537	0.941	588.478	-2.912879038285844	end_round	0.941	columbia_card_task_fmri	8.0	0.875	71.0	-90.0	0.125	16.0	9.0	1.0	0.7059038818574344	0.941	8.0	stim	poldrack-single-stim	s614	False	1
589.238	1.5	588.487	n/a	-1.0	2.726	columbia_card_task_fmri	n/a	n/a	-1.0	n/a	n/a	n/a	n/a	n/a	n/a	n/a	n/a	ITI	poldrack-single-stim	s614	False	0
591.22	1.994	593.214	4.774620961714156	draw_card	1.994	columbia_card_task_fmri	10.0	0.9375	89.0	-95.0	0.0625	16.0	1.0	1.0	-6.28051912859172	1.994	n/a	stim	poldrack-single-stim	s614	False	1
593.22	0.449	593.669	4.337120961714158	draw_card	0.449	columbia_card_task_fmri	10.0	0.9333333333333332	89.0	-95.0	0.0666666666666666	16.0	2.0	1.0	-5.506409462651387	0.449	n/a	stim	poldrack-single-stim	s614	False	1
593.677	0.363	594.04	3.837120961714157	draw_card	0.363	columbia_card_task_fmri	10.0	0.9285714285714286	89.0	-95.0	0.0714285714285714	16.0	3.0	1.0	-4.6574474588188615	0.363	n/a	stim	poldrack-single-stim	s614	False	1
594.048	0.779	594.827	3.26019788479108	draw_card	0.779	columbia_card_task_fmri	10.0	0.9230769230769232	89.0	-95.0	0.0769230769230769	16.0	4.0	1.0	-3.720905639955184	0.779	n/a	stim	poldrack-single-stim	s614	False	1
594.834	0.68	595.514	2.5871209617141564	draw_card	0.68	columbia_card_task_fmri	10.0	0.9166666666666666	89.0	-95.0	0.0833333333333333	16.0	5.0	1.0	-2.680865409765097	0.68	n/a	stim	poldrack-single-stim	s614	False	1
595.522	1.009	596.531	1.7916664162596097	draw_card	1.009	columbia_card_task_fmri	10.0	0.9090909090909092	89.0	-95.0	0.0909090909090909	16.0	6.0	1.0	-1.5171416268140518	1.009	n/a	stim	poldrack-single-stim	s614	False	1
596.538	0.965	597.503	0.8371209617141564	draw_card	0.965	columbia_card_task_fmri	10.0	0.9	89.0	-95.0	0.1	16.0	7.0	1.0	-0.2037535130585723	0.965	n/a	stim	poldrack-single-stim	s614	False	1
597.509	0.802	598.311	-0.3295457049525097	draw_card	0.802	columbia_card_task_fmri	10.0	0.8888888888888888	89.0	-95.0	0.1111111111111111	16.0	8.0	1.0	1.293276019806104	0.802	n/a	stim	poldrack-single-stim	s614	False	1
598.317	2.419	600.736	-1.7878790382858436	end_round	2.419	columbia_card_task_fmri	10.0	0.875	71.0	-95.0	0.125	16.0	9.0	1.0	3.019099668145227	2.419	8.0	stim	poldrack-single-stim	s614	False	1
601.493	1.5	600.742	n/a	-1.0	2.386	columbia_card_task_fmri	n/a	n/a	-1.0	n/a	n/a	n/a	n/a	n/a	n/a	n/a	n/a	ITI	poldrack-single-stim	s614	False	0
603.136	1.297	604.433	5.712120961714156	draw_card	1.297	columbia_card_task_fmri	15.0	0.875	89.0	-70.0	0.125	16.0	1.0	2.0	-3.589229810084923	1.297	n/a	stim	poldrack-single-stim	s614	False	1
604.441	0.482	604.923	5.003787628380822	draw_card	0.482	columbia_card_task_fmri	15.0	0.8666666666666667	89.0	-70.0	0.1333333333333333	16.0	2.0	2.0	-2.806754277989416	0.482	n/a	stim	poldrack-single-stim	s614	False	1
604.93	0.686	605.616	4.194263818857014	draw_card	0.686	columbia_card_task_fmri	15.0	0.8571428571428572	89.0	-70.0	0.1428571428571428	16.0	3.0	2.0	-1.958276263633465	0.686	n/a	stim	poldrack-single-stim	s614	False	1
605.623	1.056	606.679	3.260197884791078	draw_card	1.056	columbia_card_task_fmri	15.0	0.8461538461538461	89.0	-70.0	0.1538461538461538	16.0	4.0	2.0	-1.0348817253491165	1.056	n/a	stim	poldrack-single-stim	s614	False	1
606.686	0.69	607.376	2.1704542950474903	end_round	0.69	columbia_card_task_fmri	15.0	0.8333333333333334	71.0	-70.0	0.1666666666666666	16.0	5.0	2.0	-0.0262827525466065	0.69	4.0	stim	poldrack-single-stim	s614	False	1
608.138	1.5	607.387	n/a	-1.0	2.318	columbia_card_task_fmri	n/a	n/a	-1.0	n/a	n/a	n/a	n/a	n/a	n/a	n/a	n/a	ITI	poldrack-single-stim	s614	False	0
609.711	0.489	610.2	4.712120961714156	draw_card	0.489	columbia_card_task_fmri	16.0	0.875	89.0	-85.0	0.125	16.0	1.0	2.0	1.697242368840744	0.489	n/a	stim	poldrack-single-stim	s614	False	1
610.206	0.43	610.636	3.8704542950474896	draw_card	0.43	columbia_card_task_fmri	16.0	0.8666666666666667	89.0	-85.0	0.1333333333333333	16.0	2.0	2.0	2.627305426440291	0.43	2.0	stim	poldrack-single-stim	s614	False	0
611.395	1.5	610.644	n/a	-1.0	2.25	columbia_card_task_fmri	n/a	n/a	-1.0	n/a	n/a	n/a	n/a	n/a	n/a	n/a	n/a	ITI	poldrack-single-stim	s614	False	0
