onset	duration	movement_onset	block_duration	condition	correct	correct_response	experiment_exp_id	key_press	response_time	trial_id	trial_type	worker_id	junk
3.013	0.5	3.012	0.5	BY	n/a	n/a	dot_pattern_expectancy	-1.0	n/a	cue	BY	s615	False
5.52	0.5	5.907	1.636	BY	1.0	71.0	dot_pattern_expectancy	71.0	0.387	probe	BY	s615	False
7.159	0.5	7.158	0.5	AY	n/a	n/a	dot_pattern_expectancy	-1.0	n/a	cue	AY	s615	False
9.668	0.5	10.154	1.5	AY	1.0	71.0	dot_pattern_expectancy	71.0	0.486	probe	AY	s615	False
11.17	0.5	11.169	0.5	AX	n/a	n/a	dot_pattern_expectancy	-1.0	n/a	cue	AX	s615	False
13.678	0.5	14.025	2.044	AX	1.0	89.0	dot_pattern_expectancy	89.0	0.347	probe	AX	s615	False
15.727	0.5	15.726	0.5	BY	n/a	n/a	dot_pattern_expectancy	-1.0	n/a	cue	BY	s615	False
18.234	0.5	18.672	1.772	BY	1.0	71.0	dot_pattern_expectancy	71.0	0.438	probe	BY	s615	False
20.007	0.5	20.006	0.5	BX	n/a	n/a	dot_pattern_expectancy	-1.0	n/a	cue	BX	s615	False
22.514	0.5	22.821	1.636	BX	1.0	71.0	dot_pattern_expectancy	71.0	0.307	probe	BX	s615	False
24.156	0.5	24.155	0.5	AX	n/a	n/a	dot_pattern_expectancy	-1.0	n/a	cue	AX	s615	False
26.663	0.5	27.025	1.636	AX	1.0	89.0	dot_pattern_expectancy	89.0	0.362	probe	AX	s615	False
28.303	0.5	28.302	0.5	AX	n/a	n/a	dot_pattern_expectancy	-1.0	n/a	cue	AX	s615	False
30.81	0.5	31.299	1.5	AX	1.0	89.0	dot_pattern_expectancy	89.0	0.489	probe	AX	s615	False
32.311	0.5	32.31	0.5	AX	n/a	n/a	dot_pattern_expectancy	-1.0	n/a	cue	AX	s615	False
34.815	0.5	35.251	1.5	AX	1.0	89.0	dot_pattern_expectancy	89.0	0.436	probe	AX	s615	False
36.317	0.5	36.316	0.5	AY	n/a	n/a	dot_pattern_expectancy	-1.0	n/a	cue	AY	s615	False
38.826	0.5	39.335	2.044	AY	1.0	71.0	dot_pattern_expectancy	71.0	0.509	probe	AY	s615	False
40.873	0.5	40.872	0.5	AX	n/a	n/a	dot_pattern_expectancy	-1.0	n/a	cue	AX	s615	False
43.378	0.5	43.762	2.452	AX	1.0	89.0	dot_pattern_expectancy	89.0	0.384	probe	AX	s615	False
45.837	0.5	45.836	0.5	AX	n/a	n/a	dot_pattern_expectancy	-1.0	n/a	cue	AX	s615	False
48.343	0.5	48.75	1.908	AX	1.0	89.0	dot_pattern_expectancy	89.0	0.407	probe	AX	s615	False
50.253	0.5	50.252	0.5	AX	n/a	n/a	dot_pattern_expectancy	-1.0	n/a	cue	AX	s615	False
52.762	0.5	53.267	1.5	AX	1.0	89.0	dot_pattern_expectancy	89.0	0.505	probe	AX	s615	False
54.267	0.5	54.266	0.5	AX	n/a	n/a	dot_pattern_expectancy	-1.0	n/a	cue	AX	s615	False
56.77	0.5	57.177	1.908	AX	1.0	89.0	dot_pattern_expectancy	89.0	0.407	probe	AX	s615	False
58.679	0.5	58.678	0.5	BX	n/a	n/a	dot_pattern_expectancy	-1.0	n/a	cue	BX	s615	False
61.191	0.5	61.517	2.18	BX	1.0	71.0	dot_pattern_expectancy	71.0	0.326	probe	BX	s615	False
63.373	0.5	63.372	0.5	AX	n/a	n/a	dot_pattern_expectancy	-1.0	n/a	cue	AX	s615	False
65.881	0.5	66.208	1.5	AX	1.0	89.0	dot_pattern_expectancy	89.0	0.327	probe	AX	s615	False
67.385	0.5	67.384	0.5	BY	n/a	n/a	dot_pattern_expectancy	-1.0	n/a	cue	BY	s615	False
69.891	0.5	70.286	1.908	BY	1.0	71.0	dot_pattern_expectancy	71.0	0.395	probe	BY	s615	False
71.805	0.5	71.804	0.5	BX	n/a	n/a	dot_pattern_expectancy	-1.0	n/a	cue	BX	s615	False
74.314	0.5	74.629	2.316	BX	1.0	71.0	dot_pattern_expectancy	71.0	0.315	probe	BX	s615	False
76.631	0.5	76.63	0.5	AY	n/a	n/a	dot_pattern_expectancy	-1.0	n/a	cue	AY	s615	False
79.14	0.5	79.464	2.316	AY	0.0	71.0	dot_pattern_expectancy	89.0	0.324	probe	AY	s615	False
81.458	0.5	81.457	0.5	BX	n/a	n/a	dot_pattern_expectancy	-1.0	n/a	cue	BX	s615	False
83.965	0.5	84.344	1.636	BX	1.0	71.0	dot_pattern_expectancy	71.0	0.379	probe	BX	s615	False
85.602	0.5	85.601	0.5	AY	n/a	n/a	dot_pattern_expectancy	-1.0	n/a	cue	AY	s615	False
88.111	0.5	88.669	1.5	AY	1.0	71.0	dot_pattern_expectancy	71.0	0.558	probe	AY	s615	False
89.615	0.5	89.614	0.5	BY	n/a	n/a	dot_pattern_expectancy	-1.0	n/a	cue	BY	s615	False
92.119	0.5	92.445	1.908	BY	1.0	71.0	dot_pattern_expectancy	71.0	0.326	probe	BY	s615	False
94.028	0.5	94.027	0.5	AX	n/a	n/a	dot_pattern_expectancy	-1.0	n/a	cue	AX	s615	False
96.538	0.5	96.951	1.5	AX	1.0	89.0	dot_pattern_expectancy	89.0	0.413	probe	AX	s615	False
98.039	0.5	98.038	0.5	AY	n/a	n/a	dot_pattern_expectancy	-1.0	n/a	cue	AY	s615	False
100.548	0.5	101.0	2.316	AY	1.0	71.0	dot_pattern_expectancy	71.0	0.452	probe	AY	s615	False
102.866	0.5	102.865	0.5	AX	n/a	n/a	dot_pattern_expectancy	-1.0	n/a	cue	AX	s615	False
105.375	0.5	105.919	1.5	AX	1.0	89.0	dot_pattern_expectancy	89.0	0.544	probe	AX	s615	False
106.877	0.5	106.876	0.5	AY	n/a	n/a	dot_pattern_expectancy	-1.0	n/a	cue	AY	s615	False
109.383	0.5	109.874	2.724	AY	1.0	71.0	dot_pattern_expectancy	71.0	0.491	probe	AY	s615	False
112.109	0.5	112.108	0.5	AX	n/a	n/a	dot_pattern_expectancy	-1.0	n/a	cue	AX	s615	False
114.618	0.5	115.13	1.5	AX	1.0	89.0	dot_pattern_expectancy	89.0	0.512	probe	AX	s615	False
116.119	0.5	116.118	0.5	AX	n/a	n/a	dot_pattern_expectancy	-1.0	n/a	cue	AX	s615	False
118.626	0.5	119.037	1.636	AX	1.0	89.0	dot_pattern_expectancy	89.0	0.411	probe	AX	s615	False
120.263	0.5	120.262	0.5	AX	n/a	n/a	dot_pattern_expectancy	-1.0	n/a	cue	AX	s615	False
122.77	0.5	123.258	1.636	AX	1.0	89.0	dot_pattern_expectancy	89.0	0.488	probe	AX	s615	False
124.407	0.5	124.406	0.5	AX	n/a	n/a	dot_pattern_expectancy	-1.0	n/a	cue	AX	s615	False
126.915	0.5	127.357	1.772	AX	1.0	89.0	dot_pattern_expectancy	89.0	0.442	probe	AX	s615	False
128.692	0.5	128.691	0.5	BY	n/a	n/a	dot_pattern_expectancy	-1.0	n/a	cue	BY	s615	False
131.198	0.5	131.643	1.772	BY	1.0	71.0	dot_pattern_expectancy	71.0	0.445	probe	BY	s615	False
132.975	0.5	132.974	0.5	AX	n/a	n/a	dot_pattern_expectancy	-1.0	n/a	cue	AX	s615	False
135.484	0.5	135.886	1.5	AX	1.0	89.0	dot_pattern_expectancy	89.0	0.402	probe	AX	s615	False
136.989	0.5	136.988	0.5	BY	n/a	n/a	dot_pattern_expectancy	-1.0	n/a	cue	BY	s615	False
139.495	0.5	139.76	2.452	BY	1.0	71.0	dot_pattern_expectancy	71.0	0.265	probe	BY	s615	False
141.949	0.5	141.948	0.5	AX	n/a	n/a	dot_pattern_expectancy	-1.0	n/a	cue	AX	s615	False
144.455	0.5	145.183	1.636	AX	1.0	89.0	dot_pattern_expectancy	89.0	0.728	probe	AX	s615	False
146.093	0.5	146.092	0.5	AX	n/a	n/a	dot_pattern_expectancy	-1.0	n/a	cue	AX	s615	False
148.599	0.5	149.072	1.636	AX	1.0	89.0	dot_pattern_expectancy	89.0	0.473	probe	AX	s615	False
150.237	0.5	150.236	0.5	BX	n/a	n/a	dot_pattern_expectancy	-1.0	n/a	cue	BX	s615	False
152.747	0.5	153.051	1.5	BX	1.0	71.0	dot_pattern_expectancy	71.0	0.304	probe	BX	s615	False
154.253	0.5	154.252	0.5	BX	n/a	n/a	dot_pattern_expectancy	-1.0	n/a	cue	BX	s615	False
156.762	0.5	157.1	1.5	BX	1.0	71.0	dot_pattern_expectancy	71.0	0.338	probe	BX	s615	False
158.265	0.5	158.264	0.5	AX	n/a	n/a	dot_pattern_expectancy	-1.0	n/a	cue	AX	s615	False
160.772	0.5	161.131	2.316	AX	1.0	89.0	dot_pattern_expectancy	89.0	0.359	probe	AX	s615	False
163.09	0.5	163.089	0.5	AY	n/a	n/a	dot_pattern_expectancy	-1.0	n/a	cue	AY	s615	False
165.599	0.5	166.182	2.044	AY	1.0	71.0	dot_pattern_expectancy	71.0	0.583	probe	AY	s615	False
167.645	0.5	167.644	0.5	AX	n/a	n/a	dot_pattern_expectancy	-1.0	n/a	cue	AX	s615	False
170.153	0.5	170.512	3.948	AX	1.0	89.0	dot_pattern_expectancy	89.0	0.359	probe	AX	s615	False
174.103	0.5	174.102	0.5	AX	n/a	n/a	dot_pattern_expectancy	-1.0	n/a	cue	AX	s615	False
176.61	0.5	176.992	1.636	AX	1.0	89.0	dot_pattern_expectancy	89.0	0.382	probe	AX	s615	False
188.768	0.5	188.767	0.5	AY	n/a	n/a	dot_pattern_expectancy	-1.0	n/a	cue	AY	s615	False
191.273	0.5	191.798	1.636	AY	1.0	71.0	dot_pattern_expectancy	71.0	0.525	probe	AY	s615	False
192.914	0.5	192.913	0.5	AX	n/a	n/a	dot_pattern_expectancy	-1.0	n/a	cue	AX	s615	False
195.424	0.5	195.832	1.636	AX	1.0	89.0	dot_pattern_expectancy	89.0	0.408	probe	AX	s615	False
197.063	0.5	197.062	0.5	AX	n/a	n/a	dot_pattern_expectancy	-1.0	n/a	cue	AX	s615	False
199.572	0.5	200.034	1.5	AX	1.0	89.0	dot_pattern_expectancy	89.0	0.462	probe	AX	s615	False
201.074	0.5	201.073	0.5	AX	n/a	n/a	dot_pattern_expectancy	-1.0	n/a	cue	AX	s615	False
203.583	0.5	203.965	1.5	AX	1.0	89.0	dot_pattern_expectancy	89.0	0.382	probe	AX	s615	False
205.085	0.5	205.084	0.5	AX	n/a	n/a	dot_pattern_expectancy	-1.0	n/a	cue	AX	s615	False
207.591	0.5	207.938	1.908	AX	1.0	89.0	dot_pattern_expectancy	89.0	0.347	probe	AX	s615	False
209.504	0.5	209.503	0.5	BX	n/a	n/a	dot_pattern_expectancy	-1.0	n/a	cue	BX	s615	False
212.007	0.5	212.296	1.636	BX	1.0	71.0	dot_pattern_expectancy	71.0	0.289	probe	BX	s615	False
213.645	0.5	213.644	0.5	AX	n/a	n/a	dot_pattern_expectancy	-1.0	n/a	cue	AX	s615	False
216.153	0.5	216.49	2.044	AX	1.0	89.0	dot_pattern_expectancy	89.0	0.337	probe	AX	s615	False
218.202	0.5	218.201	0.5	AX	n/a	n/a	dot_pattern_expectancy	-1.0	n/a	cue	AX	s615	False
220.708	0.5	221.086	1.772	AX	1.0	89.0	dot_pattern_expectancy	89.0	0.378	probe	AX	s615	False
222.482	0.5	222.481	0.5	AX	n/a	n/a	dot_pattern_expectancy	-1.0	n/a	cue	AX	s615	False
224.991	0.5	225.361	1.5	AX	1.0	89.0	dot_pattern_expectancy	89.0	0.37	probe	AX	s615	False
226.493	0.5	226.492	0.5	AX	n/a	n/a	dot_pattern_expectancy	-1.0	n/a	cue	AX	s615	False
228.999	0.5	229.331	2.18	AX	1.0	89.0	dot_pattern_expectancy	89.0	0.332	probe	AX	s615	False
231.181	0.5	231.18	0.5	AX	n/a	n/a	dot_pattern_expectancy	-1.0	n/a	cue	AX	s615	False
233.69	0.5	234.041	1.5	AX	1.0	89.0	dot_pattern_expectancy	89.0	0.351	probe	AX	s615	False
235.197	0.5	235.196	0.5	BX	n/a	n/a	dot_pattern_expectancy	-1.0	n/a	cue	BX	s615	False
237.703	0.5	237.965	3.676	BX	1.0	71.0	dot_pattern_expectancy	71.0	0.262	probe	BX	s615	False
241.383	0.5	241.382	0.5	BY	n/a	n/a	dot_pattern_expectancy	-1.0	n/a	cue	BY	s615	False
243.89	0.5	244.194	1.636	BY	1.0	71.0	dot_pattern_expectancy	71.0	0.304	probe	BY	s615	False
245.527	0.5	245.526	0.5	BY	n/a	n/a	dot_pattern_expectancy	-1.0	n/a	cue	BY	s615	False
248.036	0.5	248.327	1.636	BY	1.0	71.0	dot_pattern_expectancy	71.0	0.291	probe	BY	s615	False
249.677	0.5	249.676	0.5	BX	n/a	n/a	dot_pattern_expectancy	-1.0	n/a	cue	BX	s615	False
252.188	0.5	252.473	1.5	BX	1.0	71.0	dot_pattern_expectancy	71.0	0.285	probe	BX	s615	False
253.691	0.5	253.69	0.5	AX	n/a	n/a	dot_pattern_expectancy	-1.0	n/a	cue	AX	s615	False
256.194	0.5	256.589	1.908	AX	1.0	89.0	dot_pattern_expectancy	89.0	0.395	probe	AX	s615	False
258.103	0.5	258.102	0.5	AX	n/a	n/a	dot_pattern_expectancy	-1.0	n/a	cue	AX	s615	False
260.61	0.5	261.051	1.636	AX	1.0	89.0	dot_pattern_expectancy	89.0	0.441	probe	AX	s615	False
262.247	0.5	262.246	0.5	BX	n/a	n/a	dot_pattern_expectancy	-1.0	n/a	cue	BX	s615	False
264.756	0.5	265.093	1.5	BX	1.0	71.0	dot_pattern_expectancy	71.0	0.337	probe	BX	s615	False
266.258	0.5	266.257	0.5	AX	n/a	n/a	dot_pattern_expectancy	-1.0	n/a	cue	AX	s615	False
268.764	0.5	269.063	1.908	AX	1.0	89.0	dot_pattern_expectancy	89.0	0.299	probe	AX	s615	False
270.674	0.5	270.673	0.5	BY	n/a	n/a	dot_pattern_expectancy	-1.0	n/a	cue	BY	s615	False
273.184	0.5	273.457	2.18	BY	1.0	71.0	dot_pattern_expectancy	71.0	0.273	probe	BY	s615	False
275.37	0.5	275.369	0.5	AX	n/a	n/a	dot_pattern_expectancy	-1.0	n/a	cue	AX	s615	False
277.877	0.5	278.227	1.772	AX	1.0	89.0	dot_pattern_expectancy	89.0	0.35	probe	AX	s615	False
279.65	0.5	279.649	0.5	AX	n/a	n/a	dot_pattern_expectancy	-1.0	n/a	cue	AX	s615	False
282.157	0.5	282.616	1.5	AX	1.0	89.0	dot_pattern_expectancy	89.0	0.459	probe	AX	s615	False
283.661	0.5	283.66	0.5	AX	n/a	n/a	dot_pattern_expectancy	-1.0	n/a	cue	AX	s615	False
286.17	0.5	286.557	1.5	AX	1.0	89.0	dot_pattern_expectancy	89.0	0.387	probe	AX	s615	False
287.674	0.5	287.673	0.5	AX	n/a	n/a	dot_pattern_expectancy	-1.0	n/a	cue	AX	s615	False
290.181	0.5	290.621	2.044	AX	1.0	89.0	dot_pattern_expectancy	89.0	0.44	probe	AX	s615	False
292.226	0.5	292.225	0.5	AX	n/a	n/a	dot_pattern_expectancy	-1.0	n/a	cue	AX	s615	False
294.735	0.5	295.146	2.86	AX	1.0	89.0	dot_pattern_expectancy	89.0	0.411	probe	AX	s615	False
297.597	0.5	297.596	0.5	BX	n/a	n/a	dot_pattern_expectancy	-1.0	n/a	cue	BX	s615	False
300.105	0.5	300.438	1.5	BX	1.0	71.0	dot_pattern_expectancy	71.0	0.333	probe	BX	s615	False
301.607	0.5	301.606	0.5	BY	n/a	n/a	dot_pattern_expectancy	-1.0	n/a	cue	BY	s615	False
304.117	0.5	304.454	1.772	BY	1.0	71.0	dot_pattern_expectancy	71.0	0.337	probe	BY	s615	False
305.89	0.5	305.889	0.5	AX	n/a	n/a	dot_pattern_expectancy	-1.0	n/a	cue	AX	s615	False
308.398	0.5	308.856	1.772	AX	1.0	89.0	dot_pattern_expectancy	89.0	0.458	probe	AX	s615	False
310.173	0.5	310.172	0.5	AX	n/a	n/a	dot_pattern_expectancy	-1.0	n/a	cue	AX	s615	False
312.682	0.5	313.066	2.86	AX	1.0	89.0	dot_pattern_expectancy	89.0	0.384	probe	AX	s615	False
315.543	0.5	315.542	0.5	AX	n/a	n/a	dot_pattern_expectancy	-1.0	n/a	cue	AX	s615	False
318.052	0.5	318.442	1.772	AX	1.0	89.0	dot_pattern_expectancy	89.0	0.39	probe	AX	s615	False
319.829	0.5	319.828	0.5	BX	n/a	n/a	dot_pattern_expectancy	-1.0	n/a	cue	BX	s615	False
322.333	0.5	322.698	1.636	BX	1.0	71.0	dot_pattern_expectancy	71.0	0.365	probe	BX	s615	False
323.97	0.5	323.969	0.5	BX	n/a	n/a	dot_pattern_expectancy	-1.0	n/a	cue	BX	s615	False
326.476	0.5	326.804	2.452	BX	1.0	71.0	dot_pattern_expectancy	71.0	0.328	probe	BX	s615	False
328.934	0.5	328.933	0.5	AX	n/a	n/a	dot_pattern_expectancy	-1.0	n/a	cue	AX	s615	False
331.436	0.5	331.822	1.636	AX	1.0	89.0	dot_pattern_expectancy	89.0	0.386	probe	AX	s615	False
333.074	0.5	333.073	0.5	BX	n/a	n/a	dot_pattern_expectancy	-1.0	n/a	cue	BX	s615	False
335.583	0.5	335.889	1.5	BX	1.0	71.0	dot_pattern_expectancy	71.0	0.306	probe	BX	s615	False
337.088	0.5	337.087	0.5	AX	n/a	n/a	dot_pattern_expectancy	-1.0	n/a	cue	AX	s615	False
339.591	0.5	339.935	1.636	AX	1.0	89.0	dot_pattern_expectancy	89.0	0.344	probe	AX	s615	False
341.229	0.5	341.228	0.5	AX	n/a	n/a	dot_pattern_expectancy	-1.0	n/a	cue	AX	s615	False
343.735	0.5	344.099	1.636	AX	1.0	89.0	dot_pattern_expectancy	89.0	0.364	probe	AX	s615	False
345.378	0.5	345.377	0.5	BY	n/a	n/a	dot_pattern_expectancy	-1.0	n/a	cue	BY	s615	False
347.884	0.5	348.153	2.18	BY	1.0	71.0	dot_pattern_expectancy	71.0	0.269	probe	BY	s615	False
350.066	0.5	350.065	0.5	AX	n/a	n/a	dot_pattern_expectancy	-1.0	n/a	cue	AX	s615	False
352.577	0.5	352.985	1.5	AX	1.0	89.0	dot_pattern_expectancy	89.0	0.408	probe	AX	s615	False
354.081	0.5	354.08	0.5	AY	n/a	n/a	dot_pattern_expectancy	-1.0	n/a	cue	AY	s615	False
356.589	0.5	357.027	1.636	AY	1.0	71.0	dot_pattern_expectancy	71.0	0.438	probe	AY	s615	False
358.231	0.5	358.23	0.5	AX	n/a	n/a	dot_pattern_expectancy	-1.0	n/a	cue	AX	s615	False
360.738	0.5	361.078	1.636	AX	1.0	89.0	dot_pattern_expectancy	89.0	0.34	probe	AX	s615	False
372.89	0.5	372.889	0.5	AX	n/a	n/a	dot_pattern_expectancy	-1.0	n/a	cue	AX	s615	False
375.394	0.5	375.845	2.18	AX	1.0	89.0	dot_pattern_expectancy	89.0	0.451	probe	AX	s615	False
377.575	0.5	377.574	0.5	AY	n/a	n/a	dot_pattern_expectancy	-1.0	n/a	cue	AY	s615	False
380.084	0.5	380.616	2.316	AY	1.0	71.0	dot_pattern_expectancy	71.0	0.532	probe	AY	s615	False
382.405	0.5	382.404	0.5	AY	n/a	n/a	dot_pattern_expectancy	-1.0	n/a	cue	AY	s615	False
384.914	0.5	385.318	1.636	AY	1.0	71.0	dot_pattern_expectancy	71.0	0.404	probe	AY	s615	False
386.551	0.5	386.55	0.5	BX	n/a	n/a	dot_pattern_expectancy	-1.0	n/a	cue	BX	s615	False
389.059	0.5	389.424	1.908	BX	1.0	71.0	dot_pattern_expectancy	71.0	0.365	probe	BX	s615	False
390.972	0.5	390.971	0.5	AX	n/a	n/a	dot_pattern_expectancy	-1.0	n/a	cue	AX	s615	False
393.479	0.5	393.831	3.54	AX	1.0	89.0	dot_pattern_expectancy	89.0	0.352	probe	AX	s615	False
397.021	0.5	397.02	0.5	BX	n/a	n/a	dot_pattern_expectancy	-1.0	n/a	cue	BX	s615	False
399.527	0.5	399.992	1.636	BX	1.0	71.0	dot_pattern_expectancy	71.0	0.465	probe	BX	s615	False
401.165	0.5	401.164	0.5	BY	n/a	n/a	dot_pattern_expectancy	-1.0	n/a	cue	BY	s615	False
403.676	0.5	403.987	1.5	BY	1.0	71.0	dot_pattern_expectancy	71.0	0.311	probe	BY	s615	False
405.181	0.5	405.18	0.5	AX	n/a	n/a	dot_pattern_expectancy	-1.0	n/a	cue	AX	s615	False
407.69	0.5	408.259	1.5	AX	1.0	89.0	dot_pattern_expectancy	89.0	0.569	probe	AX	s615	False
409.191	0.5	409.19	0.5	AX	n/a	n/a	dot_pattern_expectancy	-1.0	n/a	cue	AX	s615	False
411.7	0.5	412.109	1.772	AX	1.0	89.0	dot_pattern_expectancy	89.0	0.409	probe	AX	s615	False
413.474	0.5	413.473	0.5	BY	n/a	n/a	dot_pattern_expectancy	-1.0	n/a	cue	BY	s615	False
415.98	0.5	416.274	2.452	BY	1.0	71.0	dot_pattern_expectancy	71.0	0.294	probe	BY	s615	False
418.434	0.5	418.433	0.5	AX	n/a	n/a	dot_pattern_expectancy	-1.0	n/a	cue	AX	s615	False
420.94	0.5	421.335	1.908	AX	1.0	89.0	dot_pattern_expectancy	89.0	0.395	probe	AX	s615	False
422.85	0.5	422.849	0.5	BX	n/a	n/a	dot_pattern_expectancy	-1.0	n/a	cue	BX	s615	False
425.357	0.5	425.768	1.636	BX	1.0	71.0	dot_pattern_expectancy	71.0	0.411	probe	BX	s615	False
426.994	0.5	426.993	0.5	AX	n/a	n/a	dot_pattern_expectancy	-1.0	n/a	cue	AX	s615	False
429.503	0.5	429.986	1.5	AX	1.0	89.0	dot_pattern_expectancy	89.0	0.483	probe	AX	s615	False
431.005	0.5	431.004	0.5	AX	n/a	n/a	dot_pattern_expectancy	-1.0	n/a	cue	AX	s615	False
433.511	0.5	433.973	1.636	AX	1.0	89.0	dot_pattern_expectancy	89.0	0.462	probe	AX	s615	False
435.149	0.5	435.148	0.5	AX	n/a	n/a	dot_pattern_expectancy	-1.0	n/a	cue	AX	s615	False
437.655	0.5	438.092	1.636	AX	1.0	89.0	dot_pattern_expectancy	89.0	0.437	probe	AX	s615	False
439.293	0.5	439.292	0.5	BY	n/a	n/a	dot_pattern_expectancy	-1.0	n/a	cue	BY	s615	False
441.799	0.5	442.123	2.452	BY	1.0	71.0	dot_pattern_expectancy	71.0	0.324	probe	BY	s615	False
444.253	0.5	444.252	0.5	AX	n/a	n/a	dot_pattern_expectancy	-1.0	n/a	cue	AX	s615	False
446.761	0.5	447.155	1.5	AX	0.0	89.0	dot_pattern_expectancy	71.0	0.394	probe	AX	s615	False
448.263	0.5	448.262	0.5	BY	n/a	n/a	dot_pattern_expectancy	-1.0	n/a	cue	BY	s615	False
450.772	0.5	451.085	1.5	BY	1.0	71.0	dot_pattern_expectancy	71.0	0.313	probe	BY	s615	False
452.274	0.5	452.273	0.5	AX	n/a	n/a	dot_pattern_expectancy	-1.0	n/a	cue	AX	s615	False
454.782	0.5	455.169	1.636	AX	1.0	89.0	dot_pattern_expectancy	89.0	0.387	probe	AX	s615	False
456.423	0.5	456.422	0.5	AX	n/a	n/a	dot_pattern_expectancy	-1.0	n/a	cue	AX	s615	False
458.93	0.5	459.407	1.636	AX	1.0	89.0	dot_pattern_expectancy	89.0	0.477	probe	AX	s615	False
460.567	0.5	460.566	0.5	AY	n/a	n/a	dot_pattern_expectancy	-1.0	n/a	cue	AY	s615	False
463.074	0.5	463.58	1.636	AY	1.0	71.0	dot_pattern_expectancy	71.0	0.506	probe	AY	s615	False
464.711	0.5	464.71	0.5	AX	n/a	n/a	dot_pattern_expectancy	-1.0	n/a	cue	AX	s615	False
467.22	0.5	467.561	1.5	AX	1.0	89.0	dot_pattern_expectancy	89.0	0.341	probe	AX	s615	False
468.722	0.5	468.721	0.5	AX	n/a	n/a	dot_pattern_expectancy	-1.0	n/a	cue	AX	s615	False
471.226	0.5	471.595	1.5	AX	1.0	89.0	dot_pattern_expectancy	89.0	0.369	probe	AX	s615	False
472.727	0.5	472.726	0.5	AX	n/a	n/a	dot_pattern_expectancy	-1.0	n/a	cue	AX	s615	False
475.235	0.5	475.561	1.772	AX	1.0	89.0	dot_pattern_expectancy	89.0	0.326	probe	AX	s615	False
477.01	0.5	477.009	0.5	AX	n/a	n/a	dot_pattern_expectancy	-1.0	n/a	cue	AX	s615	False
479.52	0.5	479.928	2.18	AX	1.0	89.0	dot_pattern_expectancy	89.0	0.408	probe	AX	s615	False
481.703	0.5	481.702	0.5	BX	n/a	n/a	dot_pattern_expectancy	-1.0	n/a	cue	BX	s615	False
484.212	0.5	484.485	1.772	BX	1.0	71.0	dot_pattern_expectancy	71.0	0.273	probe	BX	s615	False
485.986	0.5	485.985	0.5	BY	n/a	n/a	dot_pattern_expectancy	-1.0	n/a	cue	BY	s615	False
488.495	0.5	488.763	1.5	BY	1.0	71.0	dot_pattern_expectancy	71.0	0.268	probe	BY	s615	False
489.997	0.5	489.996	0.5	AX	n/a	n/a	dot_pattern_expectancy	-1.0	n/a	cue	AX	s615	False
492.506	0.5	492.824	1.5	AX	1.0	89.0	dot_pattern_expectancy	89.0	0.318	probe	AX	s615	False
494.007	0.5	494.006	0.5	AX	n/a	n/a	dot_pattern_expectancy	-1.0	n/a	cue	AX	s615	False
496.519	0.5	496.83	1.636	AX	1.0	89.0	dot_pattern_expectancy	89.0	0.311	probe	AX	s615	False
498.157	0.5	498.156	0.5	AY	n/a	n/a	dot_pattern_expectancy	-1.0	n/a	cue	AY	s615	False
500.663	0.5	501.11	2.18	AY	1.0	71.0	dot_pattern_expectancy	71.0	0.447	probe	AY	s615	False
502.845	0.5	502.844	0.5	AY	n/a	n/a	dot_pattern_expectancy	-1.0	n/a	cue	AY	s615	False
505.354	0.5	505.73	2.316	AY	1.0	71.0	dot_pattern_expectancy	71.0	0.376	probe	AY	s615	False
507.671	0.5	507.67	0.5	BX	n/a	n/a	dot_pattern_expectancy	-1.0	n/a	cue	BX	s615	False
510.178	0.5	510.488	1.636	BX	1.0	71.0	dot_pattern_expectancy	71.0	0.31	probe	BX	s615	False
511.815	0.5	511.814	0.5	BX	n/a	n/a	dot_pattern_expectancy	-1.0	n/a	cue	BX	s615	False
514.327	0.5	514.643	2.18	BX	1.0	71.0	dot_pattern_expectancy	71.0	0.316	probe	BX	s615	False
516.509	0.5	516.508	0.5	AY	n/a	n/a	dot_pattern_expectancy	-1.0	n/a	cue	AY	s615	False
519.018	0.5	519.475	2.044	AY	1.0	71.0	dot_pattern_expectancy	71.0	0.457	probe	AY	s615	False
521.063	0.5	521.062	0.5	AX	n/a	n/a	dot_pattern_expectancy	-1.0	n/a	cue	AX	s615	False
523.572	0.5	524.138	1.772	AX	1.0	89.0	dot_pattern_expectancy	89.0	0.566	probe	AX	s615	False
525.35	0.5	525.349	0.5	AX	n/a	n/a	dot_pattern_expectancy	-1.0	n/a	cue	AX	s615	False
527.855	0.5	528.344	1.5	AX	1.0	89.0	dot_pattern_expectancy	89.0	0.489	probe	AX	s615	False
529.357	0.5	529.356	0.5	AX	n/a	n/a	dot_pattern_expectancy	-1.0	n/a	cue	AX	s615	False
531.863	0.5	532.28	2.18	AX	1.0	89.0	dot_pattern_expectancy	89.0	0.417	probe	AX	s615	False
534.045	0.5	534.044	0.5	AY	n/a	n/a	dot_pattern_expectancy	-1.0	n/a	cue	AY	s615	False
536.556	0.5	537.072	2.452	AY	1.0	71.0	dot_pattern_expectancy	71.0	0.516	probe	AY	s615	False
539.01	0.5	539.009	0.5	AX	n/a	n/a	dot_pattern_expectancy	-1.0	n/a	cue	AX	s615	False
541.518	0.5	541.943	1.636	AX	1.0	89.0	dot_pattern_expectancy	89.0	0.425	probe	AX	s615	False
543.159	0.5	543.158	0.5	AX	n/a	n/a	dot_pattern_expectancy	-1.0	n/a	cue	AX	s615	False
545.666	0.5	546.045	1.908	AX	1.0	89.0	dot_pattern_expectancy	89.0	0.379	probe	AX	s615	False
558.089	0.5	558.088	0.5	AX	n/a	n/a	dot_pattern_expectancy	-1.0	n/a	cue	AX	s615	False
560.596	0.5	560.967	1.772	AX	1.0	89.0	dot_pattern_expectancy	89.0	0.371	probe	AX	s615	False
562.37	0.5	562.369	0.5	AX	n/a	n/a	dot_pattern_expectancy	-1.0	n/a	cue	AX	s615	False
564.878	0.5	565.24	1.5	AX	1.0	89.0	dot_pattern_expectancy	89.0	0.362	probe	AX	s615	False
566.381	0.5	566.38	0.5	AY	n/a	n/a	dot_pattern_expectancy	-1.0	n/a	cue	AY	s615	False
568.891	0.5	569.277	2.452	AY	1.0	71.0	dot_pattern_expectancy	71.0	0.386	probe	AY	s615	False
571.348	0.5	571.347	0.5	AY	n/a	n/a	dot_pattern_expectancy	-1.0	n/a	cue	AY	s615	False
573.855	0.5	574.287	1.772	AY	1.0	71.0	dot_pattern_expectancy	71.0	0.432	probe	AY	s615	False
575.629	0.5	575.628	0.5	AX	n/a	n/a	dot_pattern_expectancy	-1.0	n/a	cue	AX	s615	False
578.135	0.5	578.5	1.908	AX	1.0	89.0	dot_pattern_expectancy	89.0	0.365	probe	AX	s615	False
580.046	0.5	580.045	0.5	AX	n/a	n/a	dot_pattern_expectancy	-1.0	n/a	cue	AX	s615	False
582.551	0.5	583.02	1.908	AX	1.0	89.0	dot_pattern_expectancy	89.0	0.469	probe	AX	s615	False
584.464	0.5	584.463	0.5	AX	n/a	n/a	dot_pattern_expectancy	-1.0	n/a	cue	AX	s615	False
586.968	0.5	587.383	2.588	AX	1.0	89.0	dot_pattern_expectancy	89.0	0.415	probe	AX	s615	False
589.559	0.5	589.558	0.5	AY	n/a	n/a	dot_pattern_expectancy	-1.0	n/a	cue	AY	s615	False
592.068	0.5	592.574	1.5	AY	1.0	71.0	dot_pattern_expectancy	71.0	0.506	probe	AY	s615	False
593.57	0.5	593.569	0.5	BY	n/a	n/a	dot_pattern_expectancy	-1.0	n/a	cue	BY	s615	False
596.079	0.5	596.408	1.5	BY	1.0	71.0	dot_pattern_expectancy	71.0	0.329	probe	BY	s615	False
597.581	0.5	597.58	0.5	BY	n/a	n/a	dot_pattern_expectancy	-1.0	n/a	cue	BY	s615	False
600.09	0.5	600.365	1.5	BY	1.0	71.0	dot_pattern_expectancy	71.0	0.275	probe	BY	s615	False
601.591	0.5	601.59	0.5	AX	n/a	n/a	dot_pattern_expectancy	-1.0	n/a	cue	AX	s615	False
604.098	0.5	604.405	1.636	AX	1.0	89.0	dot_pattern_expectancy	89.0	0.307	probe	AX	s615	False
605.735	0.5	605.734	0.5	BX	n/a	n/a	dot_pattern_expectancy	-1.0	n/a	cue	BX	s615	False
608.245	0.5	608.517	2.044	BX	1.0	71.0	dot_pattern_expectancy	71.0	0.272	probe	BX	s615	False
610.29	0.5	610.289	0.5	AX	n/a	n/a	dot_pattern_expectancy	-1.0	n/a	cue	AX	s615	False
612.799	0.5	613.214	1.772	AX	1.0	89.0	dot_pattern_expectancy	89.0	0.415	probe	AX	s615	False
614.573	0.5	614.572	0.5	BX	n/a	n/a	dot_pattern_expectancy	-1.0	n/a	cue	BX	s615	False
617.082	0.5	617.379	2.588	BX	1.0	71.0	dot_pattern_expectancy	71.0	0.297	probe	BX	s615	False
619.674	0.5	619.673	0.5	AY	n/a	n/a	dot_pattern_expectancy	-1.0	n/a	cue	AY	s615	False
622.178	0.5	622.602	1.5	AY	1.0	71.0	dot_pattern_expectancy	71.0	0.424	probe	AY	s615	False
623.68	0.5	623.679	0.5	AX	n/a	n/a	dot_pattern_expectancy	-1.0	n/a	cue	AX	s615	False
626.183	0.5	626.611	2.452	AX	1.0	89.0	dot_pattern_expectancy	89.0	0.428	probe	AX	s615	False
628.637	0.5	628.636	0.5	BY	n/a	n/a	dot_pattern_expectancy	-1.0	n/a	cue	BY	s615	False
631.143	0.5	631.461	1.636	BY	1.0	71.0	dot_pattern_expectancy	71.0	0.318	probe	BY	s615	False
632.781	0.5	632.78	0.5	AX	n/a	n/a	dot_pattern_expectancy	-1.0	n/a	cue	AX	s615	False
635.287	0.5	635.624	1.636	AX	1.0	89.0	dot_pattern_expectancy	89.0	0.337	probe	AX	s615	False
636.925	0.5	636.924	0.5	AX	n/a	n/a	dot_pattern_expectancy	-1.0	n/a	cue	AX	s615	False
639.434	0.5	639.79	1.5	AX	1.0	89.0	dot_pattern_expectancy	89.0	0.356	probe	AX	s615	False
640.935	0.5	640.934	0.5	BY	n/a	n/a	dot_pattern_expectancy	-1.0	n/a	cue	BY	s615	False
643.443	0.5	643.694	1.636	BY	1.0	71.0	dot_pattern_expectancy	71.0	0.251	probe	BY	s615	False
645.085	0.5	645.084	0.5	AX	n/a	n/a	dot_pattern_expectancy	-1.0	n/a	cue	AX	s615	False
647.594	0.5	647.926	1.5	AX	1.0	89.0	dot_pattern_expectancy	89.0	0.332	probe	AX	s615	False
649.095	0.5	649.094	0.5	AY	n/a	n/a	dot_pattern_expectancy	-1.0	n/a	cue	AY	s615	False
651.602	0.5	652.1	2.18	AY	1.0	71.0	dot_pattern_expectancy	71.0	0.498	probe	AY	s615	False
653.784	0.5	653.783	0.5	AX	n/a	n/a	dot_pattern_expectancy	-1.0	n/a	cue	AX	s615	False
656.292	0.5	656.643	1.5	AX	1.0	89.0	dot_pattern_expectancy	89.0	0.351	probe	AX	s615	False
657.794	0.5	657.793	0.5	AX	n/a	n/a	dot_pattern_expectancy	-1.0	n/a	cue	AX	s615	False
660.304	0.5	660.815	1.908	AX	1.0	89.0	dot_pattern_expectancy	89.0	0.511	probe	AX	s615	False
662.216	0.5	662.215	0.5	BY	n/a	n/a	dot_pattern_expectancy	-1.0	n/a	cue	BY	s615	False
664.722	0.5	665.051	1.636	BY	1.0	71.0	dot_pattern_expectancy	71.0	0.329	probe	BY	s615	False
666.359	0.5	666.358	0.5	BY	n/a	n/a	dot_pattern_expectancy	-1.0	n/a	cue	BY	s615	False
668.866	0.5	669.317	1.636	BY	1.0	71.0	dot_pattern_expectancy	71.0	0.451	probe	BY	s615	False
670.503	0.5	670.502	0.5	AX	n/a	n/a	dot_pattern_expectancy	-1.0	n/a	cue	AX	s615	False
673.01	0.5	673.314	1.636	AX	1.0	89.0	dot_pattern_expectancy	89.0	0.304	probe	AX	s615	False
674.647	0.5	674.646	0.5	AX	n/a	n/a	dot_pattern_expectancy	-1.0	n/a	cue	AX	s615	False
677.158	0.5	677.51	1.5	AX	1.0	89.0	dot_pattern_expectancy	89.0	0.352	probe	AX	s615	False
678.663	0.5	678.662	0.5	BY	n/a	n/a	dot_pattern_expectancy	-1.0	n/a	cue	BY	s615	False
681.171	0.5	681.514	2.044	BY	1.0	71.0	dot_pattern_expectancy	71.0	0.343	probe	BY	s615	False
683.218	0.5	683.217	0.5	AY	n/a	n/a	dot_pattern_expectancy	-1.0	n/a	cue	AY	s615	False
685.724	0.5	686.214	2.18	AY	1.0	71.0	dot_pattern_expectancy	71.0	0.49	probe	AY	s615	False
687.906	0.5	687.905	0.5	AY	n/a	n/a	dot_pattern_expectancy	-1.0	n/a	cue	AY	s615	False
690.413	0.5	690.829	1.636	AY	1.0	71.0	dot_pattern_expectancy	71.0	0.416	probe	AY	s615	False
692.05	0.5	692.049	0.5	AY	n/a	n/a	dot_pattern_expectancy	-1.0	n/a	cue	AY	s615	False
694.559	0.5	695.029	1.772	AY	1.0	71.0	dot_pattern_expectancy	71.0	0.47	probe	AY	s615	False
696.333	0.5	696.332	0.5	BY	n/a	n/a	dot_pattern_expectancy	-1.0	n/a	cue	BY	s615	False
698.842	0.5	699.119	1.5	BY	1.0	71.0	dot_pattern_expectancy	71.0	0.277	probe	BY	s615	False
700.343	0.5	700.342	0.5	BX	n/a	n/a	dot_pattern_expectancy	-1.0	n/a	cue	BX	s615	False
702.85	0.5	703.118	1.908	BX	1.0	71.0	dot_pattern_expectancy	71.0	0.268	probe	BX	s615	False
704.759	0.5	704.758	0.5	AX	n/a	n/a	dot_pattern_expectancy	-1.0	n/a	cue	AX	s615	False
707.269	0.5	707.539	2.044	AX	1.0	89.0	dot_pattern_expectancy	89.0	0.27	probe	AX	s615	False
709.314	0.5	709.313	0.5	AX	n/a	n/a	dot_pattern_expectancy	-1.0	n/a	cue	AX	s615	False
711.82	0.5	712.162	1.636	AX	1.0	89.0	dot_pattern_expectancy	89.0	0.342	probe	AX	s615	False
713.458	0.5	713.457	0.5	AX	n/a	n/a	dot_pattern_expectancy	-1.0	n/a	cue	AX	s615	False
715.962	0.5	716.386	1.772	AX	1.0	89.0	dot_pattern_expectancy	89.0	0.424	probe	AX	s615	False
717.735	0.5	717.734	0.5	AX	n/a	n/a	dot_pattern_expectancy	-1.0	n/a	cue	AX	s615	False
720.244	0.5	720.589	1.636	AX	1.0	89.0	dot_pattern_expectancy	89.0	0.345	probe	AX	s615	False
721.885	0.5	721.884	0.5	BX	n/a	n/a	dot_pattern_expectancy	-1.0	n/a	cue	BX	s615	False
724.394	0.5	724.698	1.772	BX	1.0	71.0	dot_pattern_expectancy	71.0	0.304	probe	BX	s615	False
726.167	0.5	726.166	0.5	AX	n/a	n/a	dot_pattern_expectancy	-1.0	n/a	cue	AX	s615	False
728.674	0.5	729.018	1.5	AX	1.0	89.0	dot_pattern_expectancy	89.0	0.344	probe	AX	s615	False
