onset	duration	movement_onset	EV	action	block_duration	experiment_exp_id	gain_amount	gain_probability	key_press	loss_amount	loss_probability	num_cards	num_click_in_round	num_loss_cards	risk	response_time	total_cards	trial_id	trial_type	worker_id	junk	feedback
3.013	10.441	13.454	-1.1867106391341085	draw_card	10.441	columbia_card_task_fmri	12.0	0.8333333333333334	89.0	-70.0	0.1666666666666666	6.0	1.0	1.0	-1.181519426602602	10.441	n/a	stim	poldrack-single-stim	s615	False	1
13.456	1.613	15.069	-3.920043972467441	draw_card	1.613	columbia_card_task_fmri	12.0	0.8	89.0	-70.0	0.2	6.0	2.0	1.0	1.0586274842548136	1.613	2.0	stim	poldrack-single-stim	s615	False	0
15.825	1.5	15.074	n/a	-1.0	2.454	columbia_card_task_fmri	n/a	n/a	-1.0	n/a	n/a	n/a	n/a	n/a	n/a	n/a	n/a	ITI	poldrack-single-stim	s615	False	0
17.532	2.925	20.457	-0.3533773058007745	draw_card	2.925	columbia_card_task_fmri	14.0	0.8333333333333334	89.0	-75.0	0.1666666666666666	6.0	1.0	1.0	1.4269301601469806	2.925	n/a	stim	poldrack-single-stim	s615	False	1
20.458	1.025	21.483	-3.3200439724674413	end_round	1.025	columbia_card_task_fmri	14.0	0.8	71.0	-75.0	0.2	6.0	2.0	1.0	3.858351335748353	1.025	1.0	stim	poldrack-single-stim	s615	False	1
22.235	1.5	21.484	n/a	-1.0	2.454	columbia_card_task_fmri	n/a	n/a	-1.0	n/a	n/a	n/a	n/a	n/a	n/a	n/a	n/a	ITI	poldrack-single-stim	s615	False	0
23.942	2.406	26.348	1.3132893608658915	draw_card	2.406	columbia_card_task_fmri	15.0	0.8333333333333334	89.0	-70.0	0.1666666666666666	6.0	1.0	1.0	-0.0636184373796489	2.406	n/a	stim	poldrack-single-stim	s615	False	1
26.35	1.104	27.454	-1.5200439724674424	end_round	1.104	columbia_card_task_fmri	15.0	0.8	71.0	-70.0	0.2	6.0	2.0	1.0	2.258503566343151	1.104	1.0	stim	poldrack-single-stim	s615	False	1
28.206	1.5	27.455	n/a	-1.0	2.522	columbia_card_task_fmri	n/a	n/a	-1.0	n/a	n/a	n/a	n/a	n/a	n/a	n/a	n/a	ITI	poldrack-single-stim	s615	False	0
29.981	2.642	32.623	2.146622694199225	draw_card	2.642	columbia_card_task_fmri	17.0	0.8333333333333334	89.0	-75.0	0.1666666666666666	6.0	1.0	1.0	2.5448509306106004	2.642	n/a	stim	poldrack-single-stim	s615	False	1
32.625	3.111	35.736	-0.920043972467441	draw_card	3.111	columbia_card_task_fmri	17.0	0.8	89.0	-75.0	0.2	6.0	2.0	1.0	5.058245848723296	3.111	n/a	stim	poldrack-single-stim	s615	False	1
35.738	1.114	36.852	-5.520043972467443	end_round	1.114	columbia_card_task_fmri	17.0	0.75	71.0	-75.0	0.25	6.0	3.0	1.0	8.09517583170988	1.114	2.0	stim	poldrack-single-stim	s615	False	1
37.607	1.5	36.856	n/a	-1.0	2.454	columbia_card_task_fmri	n/a	n/a	-1.0	n/a	n/a	n/a	n/a	n/a	n/a	n/a	n/a	ITI	poldrack-single-stim	s615	False	0
39.312	4.302	43.614	3.4799560275325576	draw_card	4.302	columbia_card_task_fmri	24.0	0.75	89.0	-60.0	0.25	8.0	1.0	2.0	4.631349540033504	4.302	n/a	stim	poldrack-single-stim	s615	False	1
43.617	0.823	44.44	0.4799560275325576	end_round	0.823	columbia_card_task_fmri	24.0	0.7142857142857143	71.0	-60.0	0.2857142857142857	8.0	2.0	2.0	6.20548315156519	0.823	1.0	stim	poldrack-single-stim	s615	False	1
45.194	1.5	44.443	n/a	-1.0	2.658	columbia_card_task_fmri	n/a	n/a	-1.0	n/a	n/a	n/a	n/a	n/a	n/a	n/a	n/a	ITI	poldrack-single-stim	s615	False	0
47.103	4.298	51.401	3.4799560275325576	draw_card	4.298	columbia_card_task_fmri	29.0	0.75	89.0	-75.0	0.25	8.0	1.0	2.0	13.290994681857534	4.298	n/a	stim	poldrack-single-stim	s615	False	1
51.403	0.736	52.139	-0.2343296867531541	draw_card	0.736	columbia_card_task_fmri	29.0	0.7142857142857143	89.0	-75.0	0.2857142857142857	8.0	2.0	2.0	15.239978539890656	0.736	n/a	stim	poldrack-single-stim	s615	False	1
52.141	3.193	55.334	-5.186710639134107	end_round	3.193	columbia_card_task_fmri	29.0	0.6666666666666667	71.0	-75.0	0.3333333333333333	8.0	3.0	2.0	17.283535566259616	3.193	2.0	stim	poldrack-single-stim	s615	False	1
56.086	1.5	55.335	n/a	-1.0	2.386	columbia_card_task_fmri	n/a	n/a	-1.0	n/a	n/a	n/a	n/a	n/a	n/a	n/a	n/a	ITI	poldrack-single-stim	s615	False	0
57.724	5.575	63.299	-0.742266194689662	draw_card	5.575	columbia_card_task_fmri	17.0	0.7777777777777778	89.0	-65.0	0.2222222222222222	9.0	1.0	2.0	2.349150749717857	5.575	1.0	stim	poldrack-single-stim	s615	False	0
64.051	1.5	63.3	n/a	-1.0	2.522	columbia_card_task_fmri	n/a	n/a	-1.0	n/a	n/a	n/a	n/a	n/a	n/a	n/a	n/a	ITI	poldrack-single-stim	s615	False	0
65.825	8.172	73.997	3.5799560275325573	draw_card	8.172	columbia_card_task_fmri	14.0	0.9	89.0	-95.0	0.1	10.0	1.0	1.0	0.958638221215388	8.172	n/a	stim	poldrack-single-stim	s615	False	1
73.998	2.968	76.966	2.368844916421445	draw_card	2.968	columbia_card_task_fmri	14.0	0.8888888888888888	89.0	-95.0	0.1111111111111111	10.0	2.0	1.0	2.513873490807292	2.968	n/a	stim	poldrack-single-stim	s615	False	1
76.969	7.138	84.107	0.8549560275325576	draw_card	7.138	columbia_card_task_fmri	14.0	0.875	89.0	-95.0	0.125	10.0	3.0	1.0	4.306672713695114	7.138	n/a	stim	poldrack-single-stim	s615	False	1
84.108	2.021	86.129	-1.0914725438960136	end_round	2.021	columbia_card_task_fmri	14.0	0.8571428571428572	71.0	-95.0	0.1428571428571428	10.0	4.0	1.0	6.400190302144921	2.021	3.0	stim	poldrack-single-stim	s615	False	1
86.886	1.5	86.135	n/a	-1.0	2.59	columbia_card_task_fmri	n/a	n/a	-1.0	n/a	n/a	n/a	n/a	n/a	n/a	n/a	n/a	ITI	poldrack-single-stim	s615	False	0
88.728	2.531	91.259	-0.5200439724674424	draw_card	2.531	columbia_card_task_fmri	15.0	0.8	89.0	-65.0	0.2	10.0	1.0	2.0	0.25871525859543	2.531	n/a	stim	poldrack-single-stim	s615	False	1
91.262	2.955	94.217	-2.297821750245219	draw_card	2.955	columbia_card_task_fmri	15.0	0.7777777777777778	89.0	-65.0	0.2222222222222222	10.0	2.0	2.0	1.5177557827128396	2.955	n/a	stim	poldrack-single-stim	s615	False	1
94.219	0.706	94.925	-4.520043972467443	draw_card	0.706	columbia_card_task_fmri	15.0	0.75	89.0	-65.0	0.25	10.0	3.0	2.0	2.8994570406588736	0.706	n/a	stim	poldrack-single-stim	s615	False	1
94.927	2.773	97.7	-7.377186829610297	draw_card	2.773	columbia_card_task_fmri	15.0	0.7142857142857143	89.0	-65.0	0.2857142857142857	10.0	4.0	2.0	4.398619088142084	2.773	n/a	stim	poldrack-single-stim	s615	False	1
97.702	1.256	98.958	-11.186710639134104	end_round	1.256	columbia_card_task_fmri	15.0	0.6666666666666667	71.0	-65.0	0.3333333333333333	10.0	5.0	2.0	5.970531801819973	1.256	4.0	stim	poldrack-single-stim	s615	False	1
99.71	1.5	98.959	n/a	-1.0	2.386	columbia_card_task_fmri	n/a	n/a	-1.0	n/a	n/a	n/a	n/a	n/a	n/a	n/a	n/a	ITI	poldrack-single-stim	s615	False	0
101.348	3.252	104.6	1.079956027532559	draw_card	3.252	columbia_card_task_fmri	17.0	0.8	89.0	-65.0	0.2	10.0	1.0	2.0	1.0586274842548136	3.252	1.0	stim	poldrack-single-stim	s615	False	0
105.353	1.5	104.602	n/a	-1.0	2.59	columbia_card_task_fmri	n/a	n/a	-1.0	n/a	n/a	n/a	n/a	n/a	n/a	n/a	n/a	ITI	poldrack-single-stim	s615	False	0
107.195	3.347	110.542	-0.3533773058007745	draw_card	3.347	columbia_card_task_fmri	13.0	0.8333333333333334	89.0	-70.0	0.1666666666666666	12.0	1.0	2.0	-0.8088868316054523	3.347	1.0	stim	poldrack-single-stim	s615	False	0
111.297	1.5	110.546	n/a	-1.0	2.318	columbia_card_task_fmri	n/a	n/a	-1.0	n/a	n/a	n/a	n/a	n/a	n/a	n/a	n/a	ITI	poldrack-single-stim	s615	False	0
112.867	4.353	117.22	-0.3533773058007745	draw_card	4.353	columbia_card_task_fmri	15.0	0.8333333333333334	89.0	-80.0	0.1666666666666666	12.0	1.0	2.0	3.66277885068456	4.353	1.0	stim	poldrack-single-stim	s615	False	0
117.973	1.5	117.222	n/a	-1.0	2.25	columbia_card_task_fmri	n/a	n/a	-1.0	n/a	n/a	n/a	n/a	n/a	n/a	n/a	n/a	ITI	poldrack-single-stim	s615	False	0
119.476	2.939	122.415	-1.320043972467441	draw_card	2.939	columbia_card_task_fmri	14.0	0.8	89.0	-65.0	0.2	15.0	1.0	3.0	-0.1412391879164261	2.939	n/a	stim	poldrack-single-stim	s615	False	1
122.416	14.971	137.387	-2.448615401038869	draw_card	14.971	columbia_card_task_fmri	14.0	0.7857142857142857	89.0	-65.0	0.2142857142857142	15.0	2.0	3.0	0.6744154657487513	14.971	n/a	stim	poldrack-single-stim	s615	False	1
137.39	1.284	138.674	-3.750813203236674	draw_card	1.284	columbia_card_task_fmri	14.0	0.7692307692307692	89.0	-65.0	0.2307692307692307	15.0	3.0	3.0	1.543254853046335	1.284	3.0	stim	poldrack-single-stim	s615	False	0
139.429	1.5	138.678	n/a	-1.0	2.454	columbia_card_task_fmri	n/a	n/a	-1.0	n/a	n/a	n/a	n/a	n/a	n/a	n/a	n/a	ITI	poldrack-single-stim	s615	False	0
141.136	5.153	146.289	-1.3950439724674424	draw_card	5.153	columbia_card_task_fmri	1.0	0.9375	89.0	-45.0	0.0625	16.0	1.0	1.0	-20.5997175375562	5.153	n/a	stim	poldrack-single-stim	s615	False	1
146.291	0.495	146.786	-1.5867106391341088	draw_card	0.495	columbia_card_task_fmri	1.0	0.9333333333333332	89.0	-45.0	0.0666666666666666	16.0	2.0	1.0	-20.2604343928308	0.495	n/a	stim	poldrack-single-stim	s615	False	1
146.788	1.155	147.943	-1.805758258181728	draw_card	1.155	columbia_card_task_fmri	1.0	0.9285714285714286	89.0	-45.0	0.0714285714285714	16.0	3.0	1.0	-19.88835417788892	1.155	n/a	stim	poldrack-single-stim	s615	False	1
147.945	0.631	148.576	-2.0585055109289807	end_round	0.631	columbia_card_task_fmri	1.0	0.9230769230769232	71.0	-45.0	0.0769230769230769	16.0	4.0	1.0	-19.477900611402664	0.631	3.0	stim	poldrack-single-stim	s615	False	1
149.331	1.5	148.58	n/a	-1.0	3.27	columbia_card_task_fmri	n/a	n/a	-1.0	n/a	n/a	n/a	n/a	n/a	n/a	n/a	n/a	ITI	poldrack-single-stim	s615	False	0
151.854	2.381	154.235	-0.4575439724674424	draw_card	2.381	columbia_card_task_fmri	15.0	0.8125	89.0	-70.0	0.1875	16.0	1.0	3.0	1.4351395011733885	2.381	n/a	stim	poldrack-single-stim	s615	False	1
154.238	1.448	155.686	-1.5200439724674424	draw_card	1.448	columbia_card_task_fmri	15.0	0.8	89.0	-70.0	0.2	16.0	2.0	3.0	2.258503566343151	1.448	n/a	stim	poldrack-single-stim	s615	False	1
155.688	3.454	159.142	-2.7343296867531577	end_round	3.454	columbia_card_task_fmri	15.0	0.7857142857142857	71.0	-70.0	0.2142857142857142	16.0	3.0	3.0	3.1361201115676	3.454	2.0	stim	poldrack-single-stim	s615	False	1
159.895	1.5	159.144	n/a	-1.0	2.25	columbia_card_task_fmri	n/a	n/a	-1.0	n/a	n/a	n/a	n/a	n/a	n/a	n/a	n/a	ITI	poldrack-single-stim	s615	False	0
161.397	1.815	163.212	6.479956027532557	draw_card	1.815	columbia_card_task_fmri	30.0	0.7	89.0	-50.0	0.3	10.0	1.0	3.0	4.918863307502285	1.815	n/a	stim	poldrack-single-stim	s615	False	1
163.215	0.535	163.75	3.813289360865897	end_round	0.535	columbia_card_task_fmri	30.0	0.6666666666666667	71.0	-50.0	0.3333333333333333	10.0	2.0	3.0	5.970531801819966	0.535	1.0	stim	poldrack-single-stim	s615	False	1
164.503	1.5	163.752	n/a	-1.0	2.25	columbia_card_task_fmri	n/a	n/a	-1.0	n/a	n/a	n/a	n/a	n/a	n/a	n/a	n/a	ITI	poldrack-single-stim	s615	False	0
166.006	1.859	167.865	5.8799560275325575	draw_card	1.859	columbia_card_task_fmri	17.0	0.8666666666666667	89.0	-70.0	0.1333333333333333	15.0	1.0	2.0	-2.166676398456893	1.859	1.0	stim	poldrack-single-stim	s615	False	0
168.622	1.5	167.871	n/a	-1.0	2.318	columbia_card_task_fmri	n/a	n/a	-1.0	n/a	n/a	n/a	n/a	n/a	n/a	n/a	n/a	ITI	poldrack-single-stim	s615	False	0
170.193	2.985	173.178	1.1049560275325576	draw_card	2.985	columbia_card_task_fmri	7.0	0.9375	89.0	-95.0	0.0625	16.0	1.0	1.0	-7.04995053698833	2.985	n/a	stim	poldrack-single-stim	s615	False	1
173.181	1.013	174.194	0.6799560275325578	draw_card	1.013	columbia_card_task_fmri	7.0	0.9333333333333332	89.0	-95.0	0.0666666666666666	16.0	2.0	1.0	-6.297087161686143	1.013	n/a	stim	poldrack-single-stim	s615	False	1
174.196	2.05	176.246	0.194241741818272	draw_card	2.05	columbia_card_task_fmri	7.0	0.9285714285714286	89.0	-95.0	0.0714285714285714	16.0	3.0	1.0	-5.471483218735415	2.05	n/a	stim	poldrack-single-stim	s615	False	1
176.248	0.721	176.969	-0.3661978186212891	draw_card	0.721	columbia_card_task_fmri	7.0	0.9230769230769232	89.0	-95.0	0.0769230769230769	16.0	4.0	1.0	-4.560772344974037	0.721	n/a	stim	poldrack-single-stim	s615	False	1
176.971	0.956	177.927	-1.0200439724674424	draw_card	0.956	columbia_card_task_fmri	7.0	0.9166666666666666	89.0	-95.0	0.0833333333333333	16.0	5.0	1.0	-3.5494878405811363	0.956	n/a	stim	poldrack-single-stim	s615	False	1
177.929	3.688	181.617	-1.7927712451947158	draw_card	3.688	columbia_card_task_fmri	7.0	0.9090909090909092	89.0	-95.0	0.0909090909090909	16.0	6.0	1.0	-2.418017893932973	3.688	n/a	stim	poldrack-single-stim	s615	False	1
181.62	1.252	182.872	-2.7200439724674426	end_round	1.252	columbia_card_task_fmri	7.0	0.9	71.0	-95.0	0.1	16.0	7.0	1.0	-1.1411200947667872	1.252	6.0	stim	poldrack-single-stim	s615	False	1
183.627	1.5	182.876	n/a	-1.0	2.726	columbia_card_task_fmri	n/a	n/a	-1.0	n/a	n/a	n/a	n/a	n/a	n/a	n/a	n/a	ITI	poldrack-single-stim	s615	False	0
185.606	2.336	187.942	2.6674560275325576	draw_card	2.336	columbia_card_task_fmri	9.0	0.9375	89.0	-100.0	0.0625	16.0	1.0	1.0	-5.355819827486297	2.336	n/a	stim	poldrack-single-stim	s615	False	1
187.945	0.752	188.697	2.213289360865891	draw_card	0.752	columbia_card_task_fmri	9.0	0.9333333333333332	89.0	-100.0	0.0666666666666666	16.0	2.0	1.0	-4.551271026228868	0.752	n/a	stim	poldrack-single-stim	s615	False	1
188.7	0.599	189.299	1.694241741818273	draw_card	0.599	columbia_card_task_fmri	9.0	0.9285714285714286	89.0	-100.0	0.0714285714285714	16.0	3.0	1.0	-3.668989094194405	0.599	n/a	stim	poldrack-single-stim	s615	False	1
189.302	1.606	190.908	1.0953406429171737	draw_card	1.606	columbia_card_task_fmri	9.0	0.9230769230769232	89.0	-100.0	0.0769230769230769	16.0	4.0	1.0	-2.695758943166304	1.606	n/a	stim	poldrack-single-stim	s615	False	1
190.911	1.239	192.15	0.3966226941992254	draw_card	1.239	columbia_card_task_fmri	9.0	0.9166666666666666	89.0	-100.0	0.0833333333333333	16.0	5.0	1.0	-1.6150523718299965	1.239	n/a	stim	poldrack-single-stim	s615	False	1
192.153	2.127	194.28	-0.4291348815583524	draw_card	2.127	columbia_card_task_fmri	9.0	0.9090909090909092	89.0	-100.0	0.0909090909090909	16.0	6.0	1.0	-0.4059115887864735	2.127	6.0	stim	poldrack-single-stim	s615	False	0
195.035	1.5	194.284	n/a	-1.0	2.386	columbia_card_task_fmri	n/a	n/a	-1.0	n/a	n/a	n/a	n/a	n/a	n/a	n/a	n/a	ITI	poldrack-single-stim	s615	False	0
196.674	2.729	199.403	3.6049560275325576	draw_card	2.729	columbia_card_task_fmri	15.0	0.875	89.0	-80.0	0.125	16.0	1.0	2.0	-0.3229212929294682	2.729	n/a	stim	poldrack-single-stim	s615	False	1
199.404	0.543	199.947	2.8132893608658915	draw_card	0.543	columbia_card_task_fmri	15.0	0.8666666666666667	89.0	-80.0	0.1333333333333333	16.0	2.0	2.0	0.5524727721026821	0.543	n/a	stim	poldrack-single-stim	s615	False	1
199.95	0.418	200.368	1.908527456103988	draw_card	0.418	columbia_card_task_fmri	15.0	0.8571428571428572	89.0	-80.0	0.1428571428571428	16.0	3.0	2.0	1.5016557691366117	0.418	n/a	stim	poldrack-single-stim	s615	False	1
200.37	0.699	201.069	0.8645714121479409	draw_card	0.699	columbia_card_task_fmri	15.0	0.8461538461538461	89.0	-80.0	0.1538461538461538	16.0	4.0	2.0	2.534591449012119	0.699	n/a	stim	poldrack-single-stim	s615	False	1
201.07	1.593	202.663	-0.3533773058007745	end_round	1.593	columbia_card_task_fmri	15.0	0.8333333333333334	71.0	-80.0	0.1666666666666666	16.0	5.0	2.0	3.66277885068456	1.593	4.0	stim	poldrack-single-stim	s615	False	1
203.417	1.5	202.666	n/a	-1.0	2.318	columbia_card_task_fmri	n/a	n/a	-1.0	n/a	n/a	n/a	n/a	n/a	n/a	n/a	n/a	ITI	poldrack-single-stim	s615	False	0
204.988	3.701	208.689	5.729956027532557	draw_card	3.701	columbia_card_task_fmri	16.0	0.875	89.0	-70.0	0.125	16.0	1.0	2.0	-3.29900794305696	3.701	n/a	stim	poldrack-single-stim	s615	False	1
208.692	0.343	209.035	5.01328936086589	draw_card	0.343	columbia_card_task_fmri	16.0	0.8666666666666667	89.0	-70.0	0.1333333333333333	16.0	2.0	2.0	-2.506565756179608	0.343	n/a	stim	poldrack-single-stim	s615	False	1
209.038	0.35	209.388	4.1942417418182725	draw_card	0.35	columbia_card_task_fmri	16.0	0.8571428571428572	89.0	-70.0	0.1428571428571428	16.0	3.0	2.0	-1.647325658725407	0.35	n/a	stim	poldrack-single-stim	s615	False	1
209.391	0.423	209.814	3.249186796763326	draw_card	0.423	columbia_card_task_fmri	16.0	0.8461538461538461	89.0	-70.0	0.1538461538461538	16.0	4.0	2.0	-0.7122678569974923	0.423	n/a	stim	poldrack-single-stim	s615	False	1
209.816	1.473	211.289	2.146622694199225	draw_card	1.473	columbia_card_task_fmri	16.0	0.8333333333333334	89.0	-70.0	0.1666666666666666	16.0	5.0	2.0	0.3090172873490999	1.473	n/a	stim	poldrack-single-stim	s615	False	1
211.292	0.513	211.805	0.8435923911689192	end_round	0.513	columbia_card_task_fmri	16.0	0.8181818181818181	71.0	-70.0	0.1818181818181818	16.0	6.0	2.0	1.428324629034563	0.513	5.0	stim	poldrack-single-stim	s615	False	1
212.56	1.5	211.809	n/a	-1.0	2.25	columbia_card_task_fmri	n/a	n/a	-1.0	n/a	n/a	n/a	n/a	n/a	n/a	n/a	n/a	ITI	poldrack-single-stim	s615	False	0
214.062	8.335	222.397	7.042456027532557	draw_card	8.335	columbia_card_task_fmri	30.0	0.6875	89.0	-45.0	0.3125	16.0	1.0	5.0	3.02185959098064	8.335	n/a	stim	poldrack-single-stim	s615	False	1
222.4	1.467	223.867	5.479956027532561	draw_card	1.467	columbia_card_task_fmri	30.0	0.6666666666666667	89.0	-45.0	0.3333333333333333	16.0	2.0	5.0	3.613712780891845	1.467	n/a	stim	poldrack-single-stim	s615	False	1
223.87	1.725	225.595	3.694241741818269	end_round	1.725	columbia_card_task_fmri	30.0	0.6428571428571428	71.0	-45.0	0.3571428571428571	16.0	3.0	5.0	4.195127798642105	1.725	2.0	stim	poldrack-single-stim	s615	False	1
226.349	1.5	225.598	n/a	-1.0	2.25	columbia_card_task_fmri	n/a	n/a	-1.0	n/a	n/a	n/a	n/a	n/a	n/a	n/a	n/a	ITI	poldrack-single-stim	s615	False	0
227.852	1.97	229.822	-1.1867106391341085	draw_card	1.97	columbia_card_task_fmri	13.0	0.8333333333333334	89.0	-75.0	0.1666666666666666	6.0	1.0	1.0	1.0542916184838802	1.97	1.0	stim	poldrack-single-stim	s615	False	0
230.579	1.5	229.828	n/a	-1.0	2.454	columbia_card_task_fmri	n/a	n/a	-1.0	n/a	n/a	n/a	n/a	n/a	n/a	n/a	n/a	ITI	poldrack-single-stim	s615	False	0
232.286	2.188	234.474	0.4799560275325594	draw_card	2.188	columbia_card_task_fmri	14.0	0.8333333333333334	89.0	-70.0	0.1666666666666666	6.0	1.0	1.0	-0.4362531558189353	2.188	n/a	stim	poldrack-single-stim	s615	False	1
234.476	0.741	235.217	-2.3200439724674413	end_round	0.741	columbia_card_task_fmri	14.0	0.8	71.0	-70.0	0.2	6.0	2.0	1.0	1.858543888989324	0.741	1.0	stim	poldrack-single-stim	s615	False	1
235.971	1.5	235.22	n/a	-1.0	2.454	columbia_card_task_fmri	n/a	n/a	-1.0	n/a	n/a	n/a	n/a	n/a	n/a	n/a	n/a	ITI	poldrack-single-stim	s615	False	0
237.678	3.334	241.012	0.4799560275325594	draw_card	3.334	columbia_card_task_fmri	16.0	0.8333333333333334	89.0	-80.0	0.1666666666666666	6.0	1.0	1.0	4.03542296368289	3.334	n/a	stim	poldrack-single-stim	s615	False	1
241.015	0.882	241.897	-2.7200439724674417	end_round	0.882	columbia_card_task_fmri	16.0	0.8	71.0	-80.0	0.2	6.0	2.0	1.0	6.658115453789193	0.882	1.0	stim	poldrack-single-stim	s615	False	1
242.652	1.5	241.901	n/a	-1.0	2.522	columbia_card_task_fmri	n/a	n/a	-1.0	n/a	n/a	n/a	n/a	n/a	n/a	n/a	n/a	ITI	poldrack-single-stim	s615	False	0
244.427	2.059	246.486	2.9799560275325594	draw_card	2.059	columbia_card_task_fmri	17.0	0.8333333333333334	89.0	-70.0	0.1666666666666666	6.0	1.0	1.0	0.6816539836754245	2.059	n/a	stim	poldrack-single-stim	s615	False	1
246.489	0.496	246.985	0.079956027532559	end_round	0.496	columbia_card_task_fmri	17.0	0.8	71.0	-70.0	0.2	6.0	2.0	1.0	3.0584257015184733	0.496	1.0	stim	poldrack-single-stim	s615	False	1
247.741	1.5	246.99	n/a	-1.0	2.386	columbia_card_task_fmri	n/a	n/a	-1.0	n/a	n/a	n/a	n/a	n/a	n/a	n/a	n/a	ITI	poldrack-single-stim	s615	False	0
249.38	7.417	256.797	2.9799560275325576	draw_card	7.417	columbia_card_task_fmri	25.0	0.75	89.0	-65.0	0.25	8.0	1.0	2.0	7.2292146705969955	7.417	n/a	stim	poldrack-single-stim	s615	False	1
256.799	0.693	257.492	-0.2343296867531541	end_round	0.693	columbia_card_task_fmri	25.0	0.7142857142857143	71.0	-65.0	0.2857142857142857	8.0	2.0	2.0	8.915804534281875	0.693	1.0	stim	poldrack-single-stim	s615	False	1
258.249	1.5	257.498	n/a	-1.0	2.454	columbia_card_task_fmri	n/a	n/a	-1.0	n/a	n/a	n/a	n/a	n/a	n/a	n/a	n/a	ITI	poldrack-single-stim	s615	False	0
259.956	1.967	261.923	2.9799560275325576	draw_card	1.967	columbia_card_task_fmri	30.0	0.75	89.0	-80.0	0.25	8.0	1.0	2.0	15.888931396978007	1.967	n/a	stim	poldrack-single-stim	s615	False	1
261.927	1.185	263.112	-0.948615401038866	end_round	1.185	columbia_card_task_fmri	30.0	0.7142857142857143	71.0	-80.0	0.2857142857142857	8.0	2.0	2.0	17.95036853857208	1.185	1.0	stim	poldrack-single-stim	s615	False	1
263.866	1.5	263.115	n/a	-1.0	2.522	columbia_card_task_fmri	n/a	n/a	-1.0	n/a	n/a	n/a	n/a	n/a	n/a	n/a	n/a	ITI	poldrack-single-stim	s615	False	0
265.642	2.079	267.721	2.6799560275325587	draw_card	2.079	columbia_card_task_fmri	13.0	0.9	89.0	-95.0	0.1	10.0	1.0	1.0	0.658670829697364	2.079	n/a	stim	poldrack-single-stim	s615	False	1
267.724	0.967	268.691	1.4799560275325576	draw_card	0.967	columbia_card_task_fmri	13.0	0.8888888888888888	89.0	-95.0	0.1111111111111111	10.0	2.0	1.0	2.1996349385966454	0.967	n/a	stim	poldrack-single-stim	s615	False	1
268.695	0.479	269.174	-0.0200439724674423	end_round	0.479	columbia_card_task_fmri	13.0	0.875	71.0	-95.0	0.125	10.0	3.0	1.0	3.975983380300868	0.479	2.0	stim	poldrack-single-stim	s615	False	1
269.931	1.5	269.18	n/a	-1.0	2.522	columbia_card_task_fmri	n/a	n/a	-1.0	n/a	n/a	n/a	n/a	n/a	n/a	n/a	n/a	ITI	poldrack-single-stim	s615	False	0
271.705	1.704	273.409	4.079956027532557	draw_card	1.704	columbia_card_task_fmri	14.0	0.9	89.0	-90.0	0.1	10.0	1.0	1.0	-0.5411924665947865	1.704	n/a	stim	poldrack-single-stim	s615	False	1
273.412	0.442	273.854	2.9244004719770005	draw_card	0.442	columbia_card_task_fmri	14.0	0.8888888888888888	89.0	-90.0	0.1111111111111111	10.0	2.0	1.0	0.942686715027591	0.442	n/a	stim	poldrack-single-stim	s615	False	1
273.859	0.774	274.633	1.4799560275325576	end_round	0.774	columbia_card_task_fmri	14.0	0.875	71.0	-90.0	0.125	10.0	3.0	1.0	2.6532317344717526	0.774	2.0	stim	poldrack-single-stim	s615	False	1
275.388	1.5	274.637	n/a	-1.0	2.59	columbia_card_task_fmri	n/a	n/a	-1.0	n/a	n/a	n/a	n/a	n/a	n/a	n/a	n/a	ITI	poldrack-single-stim	s615	False	0
277.232	1.883	279.115	-0.7200439724674417	draw_card	1.883	columbia_card_task_fmri	16.0	0.8	89.0	-70.0	0.2	10.0	1.0	2.0	2.658464181294434	1.883	1.0	stim	poldrack-single-stim	s615	False	0
279.871	1.5	279.12	n/a	-1.0	2.454	columbia_card_task_fmri	n/a	n/a	-1.0	n/a	n/a	n/a	n/a	n/a	n/a	n/a	n/a	ITI	poldrack-single-stim	s615	False	0
281.578	2.314	283.892	-1.4367106391341085	draw_card	2.314	columbia_card_task_fmri	7.0	0.9166666666666666	89.0	-100.0	0.0833333333333333	12.0	1.0	1.0	-2.1677517216905926	2.314	n/a	stim	poldrack-single-stim	s615	False	1
283.895	0.414	284.309	-2.247316699740171	end_round	0.414	columbia_card_task_fmri	7.0	0.9090909090909092	71.0	-100.0	0.0909090909090909	12.0	2.0	1.0	-0.9808024711562168	0.414	1.0	stim	poldrack-single-stim	s615	False	1
285.063	1.5	284.312	n/a	-1.0	2.318	columbia_card_task_fmri	n/a	n/a	-1.0	n/a	n/a	n/a	n/a	n/a	n/a	n/a	n/a	ITI	poldrack-single-stim	s615	False	0
286.634	2.156	288.79	-1.186710639134107	draw_card	2.156	columbia_card_task_fmri	14.0	0.8333333333333334	89.0	-80.0	0.1666666666666666	12.0	1.0	2.0	3.2901354585060787	2.156	n/a	stim	poldrack-single-stim	s615	False	1
288.793	1.165	289.958	-2.610953063376536	end_round	1.165	columbia_card_task_fmri	14.0	0.8181818181818181	71.0	-80.0	0.1818181818181818	12.0	2.0	2.0	4.513586010776784	1.165	1.0	stim	poldrack-single-stim	s615	False	1
290.715	1.5	289.964	n/a	-1.0	2.25	columbia_card_task_fmri	n/a	n/a	-1.0	n/a	n/a	n/a	n/a	n/a	n/a	n/a	n/a	ITI	poldrack-single-stim	s615	False	0
292.217	2.261	294.478	0.4799560275325576	draw_card	2.261	columbia_card_task_fmri	15.0	0.8333333333333334	89.0	-75.0	0.1666666666666666	12.0	1.0	2.0	1.7995695784425365	2.261	n/a	stim	poldrack-single-stim	s615	False	1
294.482	0.46	294.942	-0.8836803361038075	draw_card	0.46	columbia_card_task_fmri	15.0	0.8181818181818181	89.0	-75.0	0.1818181818181818	12.0	2.0	2.0	2.970948754590069	0.46	n/a	stim	poldrack-single-stim	s615	False	1
294.945	1.538	296.483	-2.5200439724674424	draw_card	1.538	columbia_card_task_fmri	15.0	0.8	89.0	-75.0	0.2	12.0	3.0	2.0	4.258315392125077	1.538	n/a	stim	poldrack-single-stim	s615	False	1
296.487	1.168	297.655	-4.520043972467441	end_round	1.168	columbia_card_task_fmri	15.0	0.7777777777777778	71.0	-75.0	0.2222222222222222	12.0	4.0	2.0	5.674768147108971	1.168	3.0	stim	poldrack-single-stim	s615	False	1
298.409	1.5	297.658	n/a	-1.0	2.658	columbia_card_task_fmri	n/a	n/a	-1.0	n/a	n/a	n/a	n/a	n/a	n/a	n/a	n/a	ITI	poldrack-single-stim	s615	False	0
300.32	5.424	305.744	-0.5200439724674424	draw_card	5.424	columbia_card_task_fmri	15.0	0.8	89.0	-65.0	0.2	15.0	1.0	3.0	0.25871525859543	5.424	n/a	stim	poldrack-single-stim	s615	False	1
305.747	0.671	306.418	-1.6629011153245847	draw_card	0.671	columbia_card_task_fmri	15.0	0.7857142857142857	89.0	-65.0	0.2142857142857142	15.0	2.0	3.0	1.0846969615670543	0.671	n/a	stim	poldrack-single-stim	s615	False	1
306.421	2.48	308.901	-2.981582434005906	draw_card	2.48	columbia_card_task_fmri	15.0	0.7692307692307692	89.0	-65.0	0.2307692307692307	15.0	3.0	3.0	1.964536648718877	2.48	n/a	stim	poldrack-single-stim	s615	False	1
308.905	0.672	309.577	-4.520043972467443	draw_card	0.672	columbia_card_task_fmri	15.0	0.75	89.0	-65.0	0.25	15.0	4.0	3.0	2.8994570406588736	0.672	n/a	stim	poldrack-single-stim	s615	False	1
309.581	0.726	310.307	-6.338225790649259	draw_card	0.726	columbia_card_task_fmri	15.0	0.7272727272727273	89.0	-65.0	0.2727272727272727	15.0	5.0	3.0	3.8872904212020174	0.726	n/a	stim	poldrack-single-stim	s615	False	1
310.312	1.574	311.886	-8.520043972467443	end_round	1.574	columbia_card_task_fmri	15.0	0.7	71.0	-65.0	0.3	15.0	6.0	3.0	4.918863307502285	1.574	5.0	stim	poldrack-single-stim	s615	False	1
312.64	1.5	311.889	n/a	-1.0	2.454	columbia_card_task_fmri	n/a	n/a	-1.0	n/a	n/a	n/a	n/a	n/a	n/a	n/a	n/a	ITI	poldrack-single-stim	s615	False	0
314.349	2.822	317.171	-1.2700439724674424	draw_card	2.822	columbia_card_task_fmri	14.0	0.8125	89.0	-70.0	0.1875	16.0	1.0	3.0	1.0448684494211378	2.822	n/a	stim	poldrack-single-stim	s615	False	1
317.174	0.384	317.558	-2.3200439724674413	draw_card	0.384	columbia_card_task_fmri	14.0	0.8	89.0	-70.0	0.2	16.0	2.0	3.0	1.858543888989324	0.384	n/a	stim	poldrack-single-stim	s615	False	1
317.563	0.358	317.921	-3.5200439724674424	draw_card	0.358	columbia_card_task_fmri	14.0	0.7857142857142857	89.0	-70.0	0.2142857142857142	16.0	3.0	3.0	2.7258335164605185	0.358	n/a	stim	poldrack-single-stim	s615	False	1
317.925	0.288	318.213	-4.904659357082828	draw_card	0.288	columbia_card_task_fmri	14.0	0.7692307692307692	89.0	-70.0	0.2307692307692307	16.0	4.0	3.0	3.6496741272120232	0.288	n/a	stim	poldrack-single-stim	s615	False	1
318.217	0.361	318.578	-6.520043972467443	draw_card	0.361	columbia_card_task_fmri	14.0	0.75	89.0	-70.0	0.25	16.0	5.0	3.0	4.631349540033504	0.361	n/a	stim	poldrack-single-stim	s615	False	1
318.581	3.648	322.229	-8.429134881558351	draw_card	3.648	columbia_card_task_fmri	14.0	0.7272727272727273	89.0	-70.0	0.2727272727272727	16.0	6.0	3.0	5.668583587110803	3.648	n/a	stim	poldrack-single-stim	s615	False	1
322.233	1.101	323.334	-10.720043972467444	end_round	1.101	columbia_card_task_fmri	14.0	0.7	71.0	-70.0	0.3	16.0	7.0	3.0	6.751743996102562	1.101	6.0	stim	poldrack-single-stim	s615	False	1
324.087	1.5	323.336	n/a	-1.0	2.386	columbia_card_task_fmri	n/a	n/a	-1.0	n/a	n/a	n/a	n/a	n/a	n/a	n/a	n/a	ITI	poldrack-single-stim	s615	False	0
325.727	1.977	327.704	-1.3325439724674424	draw_card	1.977	columbia_card_task_fmri	11.0	0.6875	89.0	-30.0	0.3125	16.0	1.0	5.0	-12.734815454045393	1.977	n/a	stim	poldrack-single-stim	s615	False	1
327.707	1.314	329.021	-2.1867106391341085	end_round	1.314	columbia_card_task_fmri	11.0	0.6666666666666667	71.0	-30.0	0.3333333333333333	16.0	2.0	5.0	-12.411340144683624	1.314	1.0	stim	poldrack-single-stim	s615	False	1
329.779	1.5	329.028	n/a	-1.0	2.59	columbia_card_task_fmri	n/a	n/a	-1.0	n/a	n/a	n/a	n/a	n/a	n/a	n/a	n/a	ITI	poldrack-single-stim	s615	False	0
331.623	1.175	332.798	3.4799560275325576	draw_card	1.175	columbia_card_task_fmri	15.0	0.8666666666666667	89.0	-75.0	0.1333333333333333	15.0	1.0	2.0	-1.1470022895639571	1.175	n/a	stim	poldrack-single-stim	s615	False	1
332.802	2.651	335.453	2.6228131703897017	draw_card	2.651	columbia_card_task_fmri	15.0	0.8571428571428572	89.0	-75.0	0.1428571428571428	15.0	2.0	2.0	-0.2477873071852094	2.651	n/a	stim	poldrack-single-stim	s615	False	1
335.457	1.8	337.257	1.633802181378711	draw_card	1.8	columbia_card_task_fmri	15.0	0.8461538461538461	89.0	-75.0	0.1538461538461538	15.0	3.0	2.0	0.730772043274527	1.8	n/a	stim	poldrack-single-stim	s615	False	1
337.262	2.95	340.212	0.4799560275325576	draw_card	2.95	columbia_card_task_fmri	15.0	0.8333333333333334	89.0	-75.0	0.1666666666666666	15.0	4.0	2.0	1.7995695784425365	2.95	n/a	stim	poldrack-single-stim	s615	False	1
340.216	1.387	341.603	-0.8836803361038075	draw_card	1.387	columbia_card_task_fmri	15.0	0.8181818181818181	89.0	-75.0	0.1818181818181818	15.0	5.0	2.0	2.970948754590069	1.387	n/a	stim	poldrack-single-stim	s615	False	1
341.607	1.248	342.855	-2.5200439724674424	draw_card	1.248	columbia_card_task_fmri	15.0	0.8	89.0	-75.0	0.2	15.0	6.0	2.0	4.258315392125077	1.248	n/a	stim	poldrack-single-stim	s615	False	1
342.858	0.772	343.63	-4.520043972467441	end_round	0.772	columbia_card_task_fmri	15.0	0.7777777777777778	71.0	-75.0	0.2222222222222222	15.0	7.0	2.0	5.674768147108971	0.772	6.0	stim	poldrack-single-stim	s615	False	1
344.384	1.5	343.633	n/a	-1.0	2.318	columbia_card_task_fmri	n/a	n/a	-1.0	n/a	n/a	n/a	n/a	n/a	n/a	n/a	n/a	ITI	poldrack-single-stim	s615	False	0
345.955	1.448	347.403	5.213289360865892	draw_card	1.448	columbia_card_task_fmri	17.0	0.8666666666666667	89.0	-75.0	0.1333333333333333	15.0	1.0	2.0	-0.4672148484797311	1.448	n/a	stim	poldrack-single-stim	s615	False	1
347.406	0.456	347.862	4.337098884675417	draw_card	0.456	columbia_card_task_fmri	17.0	0.8571428571428572	89.0	-75.0	0.1428571428571428	15.0	2.0	2.0	0.4519874134879273	0.456	n/a	stim	poldrack-single-stim	s615	False	1
347.866	0.457	348.323	3.3261098736864043	draw_card	0.457	columbia_card_task_fmri	17.0	0.8461538461538461	89.0	-75.0	0.1538461538461538	15.0	3.0	2.0	1.4522973713100669	0.457	n/a	stim	poldrack-single-stim	s615	False	1
348.327	1.425	349.752	2.146622694199225	draw_card	1.425	columbia_card_task_fmri	17.0	0.8333333333333334	89.0	-75.0	0.1666666666666666	15.0	4.0	2.0	2.5448509306106004	1.425	4.0	stim	poldrack-single-stim	s615	False	0
350.511	1.5	349.76	n/a	-1.0	2.59	columbia_card_task_fmri	n/a	n/a	-1.0	n/a	n/a	n/a	n/a	n/a	n/a	n/a	n/a	ITI	poldrack-single-stim	s615	False	0
352.355	2.243	354.598	0.7924560275325576	draw_card	2.243	columbia_card_task_fmri	2.0	0.9375	89.0	-25.0	0.0625	16.0	1.0	1.0	-25.19162503072184	2.243	n/a	stim	poldrack-single-stim	s615	False	1
354.602	0.357	354.959	0.6799560275325576	draw_card	0.357	columbia_card_task_fmri	2.0	0.9333333333333332	89.0	-25.0	0.0666666666666666	16.0	2.0	1.0	-24.99282065489145	0.357	n/a	stim	poldrack-single-stim	s615	False	1
354.963	0.325	355.288	0.5513845989611292	draw_card	0.325	columbia_card_task_fmri	2.0	0.9285714285714286	89.0	-25.0	0.0714285714285714	16.0	3.0	1.0	-24.774776376350435	0.325	n/a	stim	poldrack-single-stim	s615	False	1
355.291	0.349	355.64	0.4030329506094807	draw_card	0.349	columbia_card_task_fmri	2.0	0.9230769230769232	89.0	-25.0	0.0769230769230769	16.0	4.0	1.0	-24.5342201514768	0.349	n/a	stim	poldrack-single-stim	s615	False	1
355.645	1.722	357.367	0.2299560275325578	end_round	1.722	columbia_card_task_fmri	2.0	0.9166666666666666	71.0	-25.0	0.0833333333333333	16.0	5.0	1.0	-24.26705947736328	1.722	4.0	stim	poldrack-single-stim	s615	False	1
358.124	1.5	357.373	n/a	-1.0	2.386	columbia_card_task_fmri	n/a	n/a	-1.0	n/a	n/a	n/a	n/a	n/a	n/a	n/a	n/a	ITI	poldrack-single-stim	s615	False	0
359.764	1.836	361.6	2.9799560275325576	draw_card	1.836	columbia_card_task_fmri	9.0	0.9375	89.0	-95.0	0.0625	16.0	1.0	1.0	-6.565917304377258	1.836	n/a	stim	poldrack-single-stim	s615	False	1
361.604	0.371	361.975	2.546622694199225	draw_card	0.371	columbia_card_task_fmri	9.0	0.9333333333333332	89.0	-95.0	0.0666666666666666	16.0	2.0	1.0	-5.798286542916756	0.371	n/a	stim	poldrack-single-stim	s615	False	1
361.979	1.059	363.038	2.0513845989611297	draw_card	1.059	columbia_card_task_fmri	9.0	0.9285714285714286	89.0	-95.0	0.0714285714285714	16.0	3.0	1.0	-4.956488763454562	1.059	n/a	stim	poldrack-single-stim	s615	False	1
363.042	1.421	364.463	1.4799560275325576	draw_card	1.421	columbia_card_task_fmri	9.0	0.9230769230769232	89.0	-95.0	0.0769230769230769	16.0	4.0	1.0	-4.027915109603306	1.421	n/a	stim	poldrack-single-stim	s615	False	1
364.467	0.409	364.876	0.8132893608658915	draw_card	0.409	columbia_card_task_fmri	9.0	0.9166666666666666	89.0	-95.0	0.0833333333333333	16.0	5.0	1.0	-2.99679559499376	0.409	n/a	stim	poldrack-single-stim	s615	False	1
364.879	1.608	366.487	0.0254105729871025	draw_card	1.608	columbia_card_task_fmri	9.0	0.9090909090909092	89.0	-95.0	0.0909090909090909	16.0	6.0	1.0	-1.8431338418796024	1.608	n/a	stim	poldrack-single-stim	s615	False	1
366.493	1.224	367.717	-0.9200439724674428	draw_card	1.224	columbia_card_task_fmri	9.0	0.9	89.0	-95.0	0.1	16.0	7.0	1.0	-0.5411924665947865	1.224	n/a	stim	poldrack-single-stim	s615	False	1
367.721	2.203	369.924	-2.0755995280229977	draw_card	2.203	columbia_card_task_fmri	9.0	0.8888888888888888	89.0	-95.0	0.1111111111111111	16.0	8.0	1.0	0.9426867150275982	2.203	n/a	stim	poldrack-single-stim	s615	False	1
369.93	0.628	370.558	-3.5200439724674424	end_round	0.628	columbia_card_task_fmri	9.0	0.875	71.0	-95.0	0.125	16.0	9.0	1.0	2.6532317344717526	0.628	8.0	stim	poldrack-single-stim	s615	False	1
371.317	1.5	370.566	n/a	-1.0	2.318	columbia_card_task_fmri	n/a	n/a	-1.0	n/a	n/a	n/a	n/a	n/a	n/a	n/a	n/a	ITI	poldrack-single-stim	s615	False	0
372.889	1.793	374.682	4.542456027532557	draw_card	1.793	columbia_card_task_fmri	11.0	0.9375	89.0	-100.0	0.0625	16.0	1.0	1.0	-4.8717755453058444	1.793	n/a	stim	poldrack-single-stim	s615	False	1
374.687	0.383	375.07	4.079956027532559	draw_card	0.383	columbia_card_task_fmri	11.0	0.9333333333333332	89.0	-100.0	0.0666666666666666	16.0	2.0	1.0	-4.0524596845793575	0.383	n/a	stim	poldrack-single-stim	s615	False	1
375.074	0.298	375.372	3.5513845989611306	draw_card	0.298	columbia_card_task_fmri	11.0	0.9285714285714286	89.0	-100.0	0.0714285714285714	16.0	3.0	1.0	-3.153984252783204	0.298	n/a	stim	poldrack-single-stim	s615	False	1
375.376	0.852	376.228	2.94149448907102	draw_card	0.852	columbia_card_task_fmri	11.0	0.9230769230769232	89.0	-100.0	0.0769230769230769	16.0	4.0	1.0	-2.162891669422621	0.852	n/a	stim	poldrack-single-stim	s615	False	1
376.231	1.212	377.443	2.2299560275325576	draw_card	1.212	columbia_card_task_fmri	11.0	0.9166666666666666	89.0	-100.0	0.0833333333333333	16.0	5.0	1.0	-1.0623504477288144	1.212	n/a	stim	poldrack-single-stim	s615	False	1
377.448	0.982	378.43	1.389046936623466	draw_card	0.982	columbia_card_task_fmri	11.0	0.9090909090909092	89.0	-100.0	0.0909090909090909	16.0	6.0	1.0	0.1689817685503811	0.982	n/a	stim	poldrack-single-stim	s615	False	1
378.435	0.874	379.309	0.3799560275325579	draw_card	0.874	columbia_card_task_fmri	11.0	0.9	89.0	-100.0	0.1	16.0	7.0	1.0	1.5585747665932956	0.874	n/a	stim	poldrack-single-stim	s615	False	1
379.313	0.898	380.211	-0.8533773058007763	draw_card	0.898	columbia_card_task_fmri	11.0	0.8888888888888888	89.0	-100.0	0.1111111111111111	16.0	8.0	1.0	3.142352277597773	0.898	n/a	stim	poldrack-single-stim	s615	False	1
380.216	1.151	381.367	-2.3950439724674424	end_round	1.151	columbia_card_task_fmri	11.0	0.875	71.0	-100.0	0.125	16.0	9.0	1.0	4.968052979220836	1.151	8.0	stim	poldrack-single-stim	s615	False	1
382.122	1.5	381.371	n/a	-1.0	2.318	columbia_card_task_fmri	n/a	n/a	-1.0	n/a	n/a	n/a	n/a	n/a	n/a	n/a	n/a	ITI	poldrack-single-stim	s615	False	0
383.694	1.889	385.583	5.104956027532557	draw_card	1.889	columbia_card_task_fmri	16.0	0.875	89.0	-75.0	0.125	16.0	1.0	2.0	-1.6456358358745256	1.889	n/a	stim	poldrack-single-stim	s615	False	1
385.587	0.352	385.939	4.346622694199224	draw_card	0.352	columbia_card_task_fmri	16.0	0.8666666666666667	89.0	-75.0	0.1333333333333333	16.0	2.0	2.0	-0.8071090185417482	0.352	n/a	stim	poldrack-single-stim	s615	False	1
385.942	0.327	386.269	3.4799560275325594	draw_card	0.327	columbia_card_task_fmri	16.0	0.8571428571428572	89.0	-75.0	0.1428571428571428	16.0	3.0	2.0	0.1020996164590073	0.327	n/a	stim	poldrack-single-stim	s615	False	1
386.274	1.188	387.462	2.4799560275325576	draw_card	1.188	columbia_card_task_fmri	16.0	0.8461538461538461	89.0	-75.0	0.1538461538461538	16.0	4.0	2.0	1.0915342837527433	1.188	n/a	stim	poldrack-single-stim	s615	False	1
387.465	0.446	387.911	1.3132893608658915	draw_card	0.446	columbia_card_task_fmri	16.0	0.8333333333333334	89.0	-75.0	0.1666666666666666	16.0	5.0	2.0	2.1722098444764555	0.446	5.0	stim	poldrack-single-stim	s615	False	0
388.666	1.5	387.915	n/a	-1.0	2.318	columbia_card_task_fmri	n/a	n/a	-1.0	n/a	n/a	n/a	n/a	n/a	n/a	n/a	n/a	ITI	poldrack-single-stim	s615	False	0
390.239	3.501	393.74	5.354956027532557	draw_card	3.501	columbia_card_task_fmri	17.0	0.875	89.0	-80.0	0.125	16.0	1.0	2.0	0.3384409605459808	3.501	n/a	stim	poldrack-single-stim	s615	False	1
393.745	0.281	394.026	4.546622694199225	draw_card	0.281	columbia_card_task_fmri	17.0	0.8666666666666667	89.0	-80.0	0.1333333333333333	16.0	2.0	2.0	1.2322685144565213	0.281	n/a	stim	poldrack-single-stim	s615	False	1
394.03	0.269	394.299	3.622813170389704	draw_card	0.269	columbia_card_task_fmri	17.0	0.8571428571428572	89.0	-80.0	0.1428571428571428	16.0	3.0	2.0	2.201438554185053	0.269	n/a	stim	poldrack-single-stim	s615	False	1
394.303	1.54	395.843	2.5568791044556343	draw_card	1.54	columbia_card_task_fmri	17.0	0.8461538461538461	89.0	-80.0	0.1538461538461538	16.0	4.0	2.0	3.2561245985228098	1.54	n/a	stim	poldrack-single-stim	s615	False	1
395.847	1.449	397.296	1.313289360865893	draw_card	1.449	columbia_card_task_fmri	17.0	0.8333333333333334	89.0	-80.0	0.1666666666666666	16.0	5.0	2.0	4.408067775211634	1.449	n/a	stim	poldrack-single-stim	s615	False	1
397.3	1.337	398.637	-0.1564076088310808	draw_card	1.337	columbia_card_task_fmri	17.0	0.8181818181818181	89.0	-80.0	0.1818181818181818	16.0	6.0	2.0	5.670571592880982	1.337	n/a	stim	poldrack-single-stim	s615	False	1
398.642	1.75	400.392	-1.920043972467441	draw_card	1.75	columbia_card_task_fmri	17.0	0.8	89.0	-80.0	0.2	16.0	7.0	2.0	7.058084535205779	1.75	n/a	stim	poldrack-single-stim	s615	False	1
400.396	1.08	401.476	-4.075599528022998	end_round	1.08	columbia_card_task_fmri	17.0	0.7777777777777778	71.0	-80.0	0.2222222222222222	16.0	8.0	2.0	8.584723995770375	1.08	7.0	stim	poldrack-single-stim	s615	False	1
402.233	1.5	401.482	n/a	-1.0	2.386	columbia_card_task_fmri	n/a	n/a	-1.0	n/a	n/a	n/a	n/a	n/a	n/a	n/a	n/a	ITI	poldrack-single-stim	s615	False	0
414.874	1.705	416.579	-0.3533773058007745	draw_card	1.705	columbia_card_task_fmri	13.0	0.8333333333333334	89.0	-70.0	0.1666666666666666	6.0	1.0	1.0	-0.8088868316054523	1.705	n/a	stim	poldrack-single-stim	s615	False	1
416.584	0.578	417.162	-3.120043972467442	end_round	0.578	columbia_card_task_fmri	13.0	0.8	71.0	-70.0	0.2	6.0	2.0	1.0	1.458585183115062	0.578	1.0	stim	poldrack-single-stim	s615	False	1
417.92	1.5	417.169	n/a	-1.0	2.25	columbia_card_task_fmri	n/a	n/a	-1.0	n/a	n/a	n/a	n/a	n/a	n/a	n/a	n/a	ITI	poldrack-single-stim	s615	False	0
419.423	1.182	420.605	-0.3533773058007745	draw_card	1.182	columbia_card_task_fmri	15.0	0.8333333333333334	89.0	-80.0	0.1666666666666666	6.0	1.0	1.0	3.66277885068456	1.182	n/a	stim	poldrack-single-stim	s615	False	1
420.609	0.446	421.055	-3.5200439724674424	end_round	0.446	columbia_card_task_fmri	15.0	0.8	71.0	-80.0	0.2	6.0	2.0	1.0	6.258147023213084	0.446	1.0	stim	poldrack-single-stim	s615	False	1
421.81	1.5	421.059	n/a	-1.0	2.386	columbia_card_task_fmri	n/a	n/a	-1.0	n/a	n/a	n/a	n/a	n/a	n/a	n/a	n/a	ITI	poldrack-single-stim	s615	False	0
423.45	1.177	424.627	1.3132893608658915	draw_card	1.177	columbia_card_task_fmri	16.0	0.8333333333333334	89.0	-75.0	0.1666666666666666	6.0	1.0	1.0	2.1722098444764555	1.177	1.0	stim	poldrack-single-stim	s615	False	0
425.382	1.5	424.631	n/a	-1.0	2.59	columbia_card_task_fmri	n/a	n/a	-1.0	n/a	n/a	n/a	n/a	n/a	n/a	n/a	n/a	ITI	poldrack-single-stim	s615	False	0
427.226	1.985	429.211	2.4799560275325576	draw_card	1.985	columbia_card_task_fmri	21.0	0.75	89.0	-55.0	0.25	8.0	1.0	2.0	1.1675812027754873	1.985	n/a	stim	poldrack-single-stim	s615	False	1
429.216	0.47	429.686	-0.2343296867531559	end_round	0.47	columbia_card_task_fmri	21.0	0.7142857142857143	71.0	-55.0	0.2857142857142857	8.0	2.0	2.0	2.591770995374489	0.47	1.0	stim	poldrack-single-stim	s615	False	1
430.44	1.5	429.689	n/a	-1.0	2.658	columbia_card_task_fmri	n/a	n/a	-1.0	n/a	n/a	n/a	n/a	n/a	n/a	n/a	n/a	ITI	poldrack-single-stim	s615	False	0
432.352	1.693	434.045	3.7299560275325576	draw_card	1.693	columbia_card_task_fmri	26.0	0.75	89.0	-65.0	0.25	8.0	1.0	2.0	7.662194898210998	1.693	n/a	stim	poldrack-single-stim	s615	False	1
434.048	0.588	434.636	0.4799560275325611	end_round	0.588	columbia_card_task_fmri	26.0	0.7142857142857143	71.0	-65.0	0.2857142857142857	8.0	2.0	2.0	9.36752735838423	0.588	1.0	stim	poldrack-single-stim	s615	False	1
435.395	1.5	434.644	n/a	-1.0	2.386	columbia_card_task_fmri	n/a	n/a	-1.0	n/a	n/a	n/a	n/a	n/a	n/a	n/a	n/a	ITI	poldrack-single-stim	s615	False	0
437.035	1.719	438.754	-1.1867106391341085	draw_card	1.719	columbia_card_task_fmri	15.0	0.7777777777777778	89.0	-60.0	0.2222222222222222	9.0	1.0	2.0	-0.5607119325966465	1.719	n/a	stim	poldrack-single-stim	s615	False	1
438.759	0.347	439.106	-3.2700439724674424	end_round	0.347	columbia_card_task_fmri	15.0	0.75	71.0	-60.0	0.25	9.0	2.0	2.0	0.734615159000505	0.347	1.0	stim	poldrack-single-stim	s615	False	1
439.864	1.5	439.113	n/a	-1.0	2.386	columbia_card_task_fmri	n/a	n/a	-1.0	n/a	n/a	n/a	n/a	n/a	n/a	n/a	n/a	ITI	poldrack-single-stim	s615	False	0
441.504	1.684	443.188	3.1799560275325587	draw_card	1.684	columbia_card_task_fmri	13.0	0.9	89.0	-90.0	0.1	10.0	1.0	1.0	-0.8411566319367871	1.684	n/a	stim	poldrack-single-stim	s615	False	1
443.193	0.635	443.828	2.035511583088113	draw_card	0.635	columbia_card_task_fmri	13.0	0.8888888888888888	89.0	-90.0	0.1111111111111111	10.0	2.0	1.0	0.6284512425992688	0.635	n/a	stim	poldrack-single-stim	s615	False	1
443.832	1.193	445.025	0.6049560275325576	draw_card	1.193	columbia_card_task_fmri	13.0	0.875	89.0	-90.0	0.125	10.0	3.0	1.0	2.3225453277667327	1.193	n/a	stim	poldrack-single-stim	s615	False	1
445.03	0.495	445.525	-1.234329686753154	end_round	0.495	columbia_card_task_fmri	13.0	0.8571428571428572	71.0	-90.0	0.1428571428571428	10.0	4.0	1.0	4.300803550234853	0.495	3.0	stim	poldrack-single-stim	s615	False	1
446.283	1.5	445.532	n/a	-1.0	2.25	columbia_card_task_fmri	n/a	n/a	-1.0	n/a	n/a	n/a	n/a	n/a	n/a	n/a	n/a	ITI	poldrack-single-stim	s615	False	0
447.786	2.46	450.246	4.479956027532557	draw_card	2.46	columbia_card_task_fmri	15.0	0.9	89.0	-95.0	0.1	10.0	1.0	1.0	1.258606205519996	2.46	n/a	stim	poldrack-single-stim	s615	False	1
450.251	0.482	450.733	3.2577338053103344	draw_card	0.482	columbia_card_task_fmri	15.0	0.8888888888888888	89.0	-95.0	0.1111111111111111	10.0	2.0	1.0	2.8281126089047675	0.482	n/a	stim	poldrack-single-stim	s615	False	1
450.736	0.918	451.654	1.7299560275325576	draw_card	0.918	columbia_card_task_fmri	15.0	0.875	89.0	-95.0	0.125	10.0	3.0	1.0	4.637362584845583	0.918	n/a	stim	poldrack-single-stim	s615	False	1
451.659	0.69	452.349	-0.2343296867531559	end_round	0.69	columbia_card_task_fmri	15.0	0.8571428571428572	71.0	-95.0	0.1428571428571428	10.0	4.0	1.0	6.7500899593512855	0.69	3.0	stim	poldrack-single-stim	s615	False	1
453.105	1.5	452.354	n/a	-1.0	2.318	columbia_card_task_fmri	n/a	n/a	-1.0	n/a	n/a	n/a	n/a	n/a	n/a	n/a	n/a	ITI	poldrack-single-stim	s615	False	0
454.678	1.644	456.322	0.2799560275325583	draw_card	1.644	columbia_card_task_fmri	16.0	0.8	89.0	-65.0	0.2	10.0	1.0	2.0	0.6586708296973711	1.644	n/a	stim	poldrack-single-stim	s615	False	1
456.325	0.479	456.804	-1.5200439724674406	draw_card	0.479	columbia_card_task_fmri	16.0	0.7777777777777778	89.0	-65.0	0.2222222222222222	10.0	2.0	2.0	1.9334527449844077	0.479	n/a	stim	poldrack-single-stim	s615	False	1
456.809	0.603	457.412	-3.7700439724674415	end_round	0.603	columbia_card_task_fmri	16.0	0.75	71.0	-65.0	0.25	10.0	3.0	2.0	3.332428699890152	0.603	2.0	stim	poldrack-single-stim	s615	False	1
458.171	1.5	457.42	n/a	-1.0	2.25	columbia_card_task_fmri	n/a	n/a	-1.0	n/a	n/a	n/a	n/a	n/a	n/a	n/a	n/a	ITI	poldrack-single-stim	s615	False	0
459.676	2.553	462.229	-1.0200439724674424	draw_card	2.553	columbia_card_task_fmri	7.0	0.9166666666666666	89.0	-95.0	0.0833333333333333	12.0	1.0	1.0	-3.5494878405811363	2.553	n/a	stim	poldrack-single-stim	s615	False	1
462.234	0.651	462.885	-1.7927712451947158	draw_card	0.651	columbia_card_task_fmri	7.0	0.9090909090909092	89.0	-95.0	0.0909090909090909	12.0	2.0	1.0	-2.418017893932973	0.651	n/a	stim	poldrack-single-stim	s615	False	1
462.89	1.734	464.624	-2.7200439724674426	draw_card	1.734	columbia_card_task_fmri	7.0	0.9	89.0	-95.0	0.1	12.0	3.0	1.0	-1.1411200947667872	1.734	n/a	stim	poldrack-single-stim	s615	False	1
464.63	1.463	466.093	-3.853377305800776	draw_card	1.463	columbia_card_task_fmri	7.0	0.8888888888888888	89.0	-95.0	0.1111111111111111	12.0	4.0	1.0	0.3142164408063053	1.463	n/a	stim	poldrack-single-stim	s615	False	1
466.098	0.551	466.649	-5.270043972467443	end_round	0.551	columbia_card_task_fmri	7.0	0.875	71.0	-95.0	0.125	12.0	5.0	1.0	1.991859558361547	0.551	4.0	stim	poldrack-single-stim	s615	False	1
467.409	1.5	466.658	n/a	-1.0	2.25	columbia_card_task_fmri	n/a	n/a	-1.0	n/a	n/a	n/a	n/a	n/a	n/a	n/a	n/a	ITI	poldrack-single-stim	s615	False	0
468.914	1.871	470.785	-0.3533773058007745	draw_card	1.871	columbia_card_task_fmri	14.0	0.8333333333333334	89.0	-75.0	0.1666666666666666	12.0	1.0	2.0	1.4269301601469806	1.871	1.0	stim	poldrack-single-stim	s615	False	0
471.545	1.5	470.794	n/a	-1.0	2.386	columbia_card_task_fmri	n/a	n/a	-1.0	n/a	n/a	n/a	n/a	n/a	n/a	n/a	n/a	ITI	poldrack-single-stim	s615	False	0
473.187	1.567	474.754	1.3132893608658915	draw_card	1.567	columbia_card_task_fmri	15.0	0.8333333333333334	89.0	-70.0	0.1666666666666666	12.0	1.0	2.0	-0.0636184373796489	1.567	n/a	stim	poldrack-single-stim	s615	False	1
474.758	1.448	476.206	0.0254105729871008	draw_card	1.448	columbia_card_task_fmri	15.0	0.8181818181818181	89.0	-70.0	0.1818181818181818	12.0	2.0	2.0	1.042670866496863	1.448	2.0	stim	poldrack-single-stim	s615	False	0
476.964	1.5	476.213	n/a	-1.0	2.386	columbia_card_task_fmri	n/a	n/a	-1.0	n/a	n/a	n/a	n/a	n/a	n/a	n/a	n/a	ITI	poldrack-single-stim	s615	False	0
478.604	2.618	481.222	-0.7200439724674417	draw_card	2.618	columbia_card_task_fmri	16.0	0.8	89.0	-70.0	0.2	15.0	1.0	3.0	2.658464181294434	2.618	n/a	stim	poldrack-single-stim	s615	False	1
481.228	0.353	481.581	-1.9486154010388712	draw_card	0.353	columbia_card_task_fmri	16.0	0.7857142857142857	89.0	-70.0	0.2142857142857142	15.0	2.0	3.0	3.5464076206909496	0.353	2.0	stim	poldrack-single-stim	s615	False	0
482.336	1.5	481.585	n/a	-1.0	2.726	columbia_card_task_fmri	n/a	n/a	-1.0	n/a	n/a	n/a	n/a	n/a	n/a	n/a	n/a	ITI	poldrack-single-stim	s615	False	0
484.317	2.571	486.888	-0.3325439724674424	draw_card	2.571	columbia_card_task_fmri	14.0	0.8125	89.0	-65.0	0.1875	16.0	1.0	3.0	-0.9064711197327816	2.571	n/a	stim	poldrack-single-stim	s615	False	1
486.894	0.473	487.367	-1.320043972467441	draw_card	0.473	columbia_card_task_fmri	14.0	0.8	89.0	-65.0	0.2	16.0	2.0	3.0	-0.1412391879164261	0.473	2.0	stim	poldrack-single-stim	s615	False	0
488.125	1.5	487.374	n/a	-1.0	2.454	columbia_card_task_fmri	n/a	n/a	-1.0	n/a	n/a	n/a	n/a	n/a	n/a	n/a	n/a	ITI	poldrack-single-stim	s615	False	0
489.835	2.128	491.963	-0.5825439724674424	draw_card	2.128	columbia_card_task_fmri	16.0	0.8125	89.0	-75.0	0.1875	16.0	1.0	3.0	3.7767848811634153	2.128	n/a	stim	poldrack-single-stim	s615	False	1
491.968	0.553	492.521	-1.7200439724674417	end_round	0.553	columbia_card_task_fmri	16.0	0.8	71.0	-75.0	0.2	16.0	2.0	3.0	4.658280238367404	0.553	1.0	stim	poldrack-single-stim	s615	False	1
493.278	1.5	492.527	n/a	-1.0	2.318	columbia_card_task_fmri	n/a	n/a	-1.0	n/a	n/a	n/a	n/a	n/a	n/a	n/a	n/a	ITI	poldrack-single-stim	s615	False	0
494.851	1.347	496.198	3.679956027532559	draw_card	1.347	columbia_card_task_fmri	16.0	0.8666666666666667	89.0	-80.0	0.1333333333333333	15.0	1.0	2.0	0.8923702603931503	1.347	n/a	stim	poldrack-single-stim	s615	False	1
496.204	0.262	496.466	2.765670313246846	draw_card	0.262	columbia_card_task_fmri	16.0	0.8571428571428572	89.0	-80.0	0.1428571428571428	15.0	2.0	2.0	1.8515467897012456	0.262	n/a	stim	poldrack-single-stim	s615	False	1
496.471	0.588	497.059	1.7107252583017876	draw_card	0.588	columbia_card_task_fmri	16.0	0.8461538461538461	89.0	-80.0	0.1538461538461538	15.0	3.0	2.0	2.8953576630117297	0.588	n/a	stim	poldrack-single-stim	s615	False	1
497.064	2.795	499.859	0.4799560275325594	draw_card	2.795	columbia_card_task_fmri	16.0	0.8333333333333334	89.0	-80.0	0.1666666666666666	15.0	4.0	2.0	4.03542296368289	2.795	4.0	stim	poldrack-single-stim	s615	False	0
500.616	1.5	499.865	n/a	-1.0	2.318	columbia_card_task_fmri	n/a	n/a	-1.0	n/a	n/a	n/a	n/a	n/a	n/a	n/a	n/a	ITI	poldrack-single-stim	s615	False	0
502.19	1.344	503.534	4.546622694199225	draw_card	1.344	columbia_card_task_fmri	17.0	0.8666666666666667	89.0	-80.0	0.1333333333333333	15.0	1.0	2.0	1.2322685144565213	1.344	n/a	stim	poldrack-single-stim	s615	False	1
503.539	0.587	504.126	3.622813170389704	draw_card	0.587	columbia_card_task_fmri	17.0	0.8571428571428572	89.0	-80.0	0.1428571428571428	15.0	2.0	2.0	2.201438554185053	0.587	n/a	stim	poldrack-single-stim	s615	False	1
504.132	3.693	507.825	2.5568791044556343	draw_card	3.693	columbia_card_task_fmri	17.0	0.8461538461538461	89.0	-80.0	0.1538461538461538	15.0	3.0	2.0	3.2561245985228098	3.693	3.0	stim	poldrack-single-stim	s615	False	0
508.585	1.5	507.834	n/a	-1.0	2.59	columbia_card_task_fmri	n/a	n/a	-1.0	n/a	n/a	n/a	n/a	n/a	n/a	n/a	n/a	ITI	poldrack-single-stim	s615	False	0
510.428	1.523	511.951	0.4799560275325576	draw_card	1.523	columbia_card_task_fmri	1.0	0.9375	89.0	-15.0	0.0625	16.0	1.0	1.0	-27.842274779321475	1.523	n/a	stim	poldrack-single-stim	s615	False	1
511.955	0.479	512.434	0.4132893608658909	draw_card	0.479	columbia_card_task_fmri	1.0	0.9333333333333332	89.0	-15.0	0.0666666666666666	16.0	2.0	1.0	-27.72502733010696	0.479	n/a	stim	poldrack-single-stim	s615	False	1
512.439	0.293	512.732	0.3370988846754148	draw_card	0.293	columbia_card_task_fmri	1.0	0.9285714285714286	89.0	-15.0	0.0714285714285714	16.0	3.0	1.0	-27.5963962483797	0.293	n/a	stim	poldrack-single-stim	s615	False	1
512.737	0.911	513.648	0.2491867967633267	draw_card	0.911	columbia_card_task_fmri	1.0	0.9230769230769232	89.0	-15.0	0.0769230769230769	16.0	4.0	1.0	-27.454444207189187	0.911	n/a	stim	poldrack-single-stim	s615	False	1
513.653	1.337	514.99	0.1466226941992242	draw_card	1.337	columbia_card_task_fmri	1.0	0.9166666666666666	89.0	-15.0	0.0833333333333333	16.0	5.0	1.0	-27.29674793908495	1.337	n/a	stim	poldrack-single-stim	s615	False	1
514.994	0.594	515.588	0.0254105729871029	draw_card	0.594	columbia_card_task_fmri	1.0	0.9090909090909092	89.0	-15.0	0.0909090909090909	16.0	6.0	1.0	-27.1202344244316	0.594	6.0	stim	poldrack-single-stim	s615	False	0
516.343	1.5	515.592	n/a	-1.0	2.726	columbia_card_task_fmri	n/a	n/a	-1.0	n/a	n/a	n/a	n/a	n/a	n/a	n/a	n/a	ITI	poldrack-single-stim	s615	False	0
518.323	1.098	519.421	3.6049560275325576	draw_card	1.098	columbia_card_task_fmri	10.0	0.9375	89.0	-100.0	0.0625	16.0	1.0	1.0	-5.113798043745788	1.098	n/a	stim	poldrack-single-stim	s615	False	1
519.426	0.483	519.909	3.1466226941992246	draw_card	0.483	columbia_card_task_fmri	10.0	0.9333333333333332	89.0	-100.0	0.0666666666666666	16.0	2.0	1.0	-4.301865702187808	0.483	n/a	stim	poldrack-single-stim	s615	False	1
519.914	0.502	520.416	2.6228131703897017	draw_card	0.502	columbia_card_task_fmri	10.0	0.9285714285714286	89.0	-100.0	0.0714285714285714	16.0	3.0	1.0	-3.4114870093811582	0.502	n/a	stim	poldrack-single-stim	s615	False	1
520.421	1.743	522.164	2.018417565994097	draw_card	1.743	columbia_card_task_fmri	10.0	0.9230769230769232	89.0	-100.0	0.0769230769230769	16.0	4.0	1.0	-2.429325630939534	1.743	4.0	stim	poldrack-single-stim	s615	False	0
522.921	1.5	522.17	n/a	-1.0	2.522	columbia_card_task_fmri	n/a	n/a	-1.0	n/a	n/a	n/a	n/a	n/a	n/a	n/a	n/a	ITI	poldrack-single-stim	s615	False	0
524.698	1.493	526.191	4.229956027532557	draw_card	1.493	columbia_card_task_fmri	15.0	0.875	89.0	-75.0	0.125	16.0	1.0	2.0	-1.976312234362986	1.493	n/a	stim	poldrack-single-stim	s615	False	1
526.196	0.936	527.132	3.4799560275325576	draw_card	0.936	columbia_card_task_fmri	15.0	0.8666666666666667	89.0	-75.0	0.1333333333333333	16.0	2.0	2.0	-1.1470022895639571	0.936	n/a	stim	poldrack-single-stim	s615	False	1
527.136	0.353	527.489	2.6228131703897017	draw_card	0.353	columbia_card_task_fmri	15.0	0.8571428571428572	89.0	-75.0	0.1428571428571428	16.0	3.0	2.0	-0.2477873071852094	0.353	n/a	stim	poldrack-single-stim	s615	False	1
527.494	0.529	528.023	1.633802181378711	draw_card	0.529	columbia_card_task_fmri	15.0	0.8461538461538461	89.0	-75.0	0.1538461538461538	16.0	4.0	2.0	0.730772043274527	0.529	n/a	stim	poldrack-single-stim	s615	False	1
528.029	1.768	529.797	0.4799560275325576	draw_card	1.768	columbia_card_task_fmri	15.0	0.8333333333333334	89.0	-75.0	0.1666666666666666	16.0	5.0	2.0	1.7995695784425365	1.768	n/a	stim	poldrack-single-stim	s615	False	1
529.802	1.571	531.373	-0.8836803361038075	end_round	1.571	columbia_card_task_fmri	15.0	0.8181818181818181	71.0	-75.0	0.1818181818181818	16.0	6.0	2.0	2.970948754590069	1.571	5.0	stim	poldrack-single-stim	s615	False	1
532.132	1.5	531.381	n/a	-1.0	3.134	columbia_card_task_fmri	n/a	n/a	-1.0	n/a	n/a	n/a	n/a	n/a	n/a	n/a	n/a	ITI	poldrack-single-stim	s615	False	0
534.521	2.8	537.321	4.479956027532557	draw_card	2.8	columbia_card_task_fmri	16.0	0.875	89.0	-80.0	0.125	16.0	1.0	2.0	0.0077594402596119	2.8	n/a	stim	poldrack-single-stim	s615	False	1
537.327	0.332	537.659	3.679956027532559	draw_card	0.332	columbia_card_task_fmri	16.0	0.8666666666666667	89.0	-80.0	0.1333333333333333	16.0	2.0	2.0	0.8923702603931503	0.332	n/a	stim	poldrack-single-stim	s615	False	1
537.663	0.303	537.966	2.765670313246846	draw_card	0.303	columbia_card_task_fmri	16.0	0.8571428571428572	89.0	-80.0	0.1428571428571428	16.0	3.0	2.0	1.8515467897012456	0.303	n/a	stim	poldrack-single-stim	s615	False	1
537.971	0.315	538.286	1.7107252583017876	draw_card	0.315	columbia_card_task_fmri	16.0	0.8461538461538461	89.0	-80.0	0.1538461538461538	16.0	4.0	2.0	2.8953576630117297	0.315	n/a	stim	poldrack-single-stim	s615	False	1
538.292	0.808	539.1	0.4799560275325594	draw_card	0.808	columbia_card_task_fmri	16.0	0.8333333333333334	89.0	-80.0	0.1666666666666666	16.0	5.0	2.0	4.03542296368289	0.808	n/a	stim	poldrack-single-stim	s615	False	1
539.105	0.458	539.563	-0.9745894270128992	draw_card	0.458	columbia_card_task_fmri	16.0	0.8181818181818181	89.0	-80.0	0.1818181818181818	16.0	6.0	2.0	5.284909050032141	0.458	6.0	stim	poldrack-single-stim	s615	False	0
540.321	1.5	539.57	n/a	-1.0	2.386	columbia_card_task_fmri	n/a	n/a	-1.0	n/a	n/a	n/a	n/a	n/a	n/a	n/a	n/a	ITI	poldrack-single-stim	s615	False	0
541.962	1.58	543.542	1.6674560275325576	draw_card	1.58	columbia_card_task_fmri	4.0	0.6875	89.0	-5.0	0.3125	16.0	1.0	5.0	-27.545752833815783	1.58	1.0	stim	poldrack-single-stim	s615	False	0
544.302	1.5	543.551	n/a	-1.0	2.386	columbia_card_task_fmri	n/a	n/a	-1.0	n/a	n/a	n/a	n/a	n/a	n/a	n/a	n/a	ITI	poldrack-single-stim	s615	False	0
545.943	2.38	548.323	-1.186710639134107	draw_card	2.38	columbia_card_task_fmri	14.0	0.8333333333333334	89.0	-80.0	0.1666666666666666	6.0	1.0	1.0	3.2901354585060787	2.38	n/a	stim	poldrack-single-stim	s615	False	1
548.327	0.49	548.817	-4.320043972467442	end_round	0.49	columbia_card_task_fmri	14.0	0.8	71.0	-80.0	0.2	6.0	2.0	1.0	5.858179264245642	0.49	1.0	stim	poldrack-single-stim	s615	False	1
549.573	1.5	548.822	n/a	-1.0	2.318	columbia_card_task_fmri	n/a	n/a	-1.0	n/a	n/a	n/a	n/a	n/a	n/a	n/a	n/a	ITI	poldrack-single-stim	s615	False	0
551.146	1.665	552.811	0.4799560275325576	draw_card	1.665	columbia_card_task_fmri	15.0	0.8333333333333334	89.0	-75.0	0.1666666666666666	6.0	1.0	1.0	1.7995695784425365	1.665	n/a	stim	poldrack-single-stim	s615	False	1
552.816	0.383	553.199	-2.5200439724674424	end_round	0.383	columbia_card_task_fmri	15.0	0.8	71.0	-75.0	0.2	6.0	2.0	1.0	4.258315392125077	0.383	1.0	stim	poldrack-single-stim	s615	False	1
553.957	1.5	553.206	n/a	-1.0	2.318	columbia_card_task_fmri	n/a	n/a	-1.0	n/a	n/a	n/a	n/a	n/a	n/a	n/a	n/a	ITI	poldrack-single-stim	s615	False	0
555.531	1.549	557.08	2.146622694199225	draw_card	1.549	columbia_card_task_fmri	16.0	0.8333333333333334	89.0	-70.0	0.1666666666666666	6.0	1.0	1.0	0.3090172873490999	1.549	n/a	stim	poldrack-single-stim	s615	False	1
557.085	0.404	557.489	-0.7200439724674417	end_round	0.404	columbia_card_task_fmri	16.0	0.8	71.0	-70.0	0.2	6.0	2.0	1.0	2.658464181294434	0.404	1.0	stim	poldrack-single-stim	s615	False	1
558.245	1.5	557.494	n/a	-1.0	2.862	columbia_card_task_fmri	n/a	n/a	-1.0	n/a	n/a	n/a	n/a	n/a	n/a	n/a	n/a	ITI	poldrack-single-stim	s615	False	0
560.362	1.388	561.75	2.7299560275325576	draw_card	1.388	columbia_card_task_fmri	23.0	0.75	89.0	-60.0	0.25	8.0	1.0	2.0	4.198374984887053	1.388	n/a	stim	poldrack-single-stim	s615	False	1
561.756	1.066	562.822	-0.2343296867531541	end_round	1.066	columbia_card_task_fmri	23.0	0.7142857142857143	71.0	-60.0	0.2857142857142857	8.0	2.0	2.0	5.753765764713172	1.066	1.0	stim	poldrack-single-stim	s615	False	1
563.581	1.5	562.83	n/a	-1.0	2.726	columbia_card_task_fmri	n/a	n/a	-1.0	n/a	n/a	n/a	n/a	n/a	n/a	n/a	n/a	ITI	poldrack-single-stim	s615	False	0
565.564	1.748	567.312	3.2299560275325576	draw_card	1.748	columbia_card_task_fmri	27.0	0.75	89.0	-70.0	0.25	8.0	1.0	2.0	10.260090323479917	1.748	n/a	stim	poldrack-single-stim	s615	False	1
567.316	0.797	568.113	-0.2343296867531576	draw_card	0.797	columbia_card_task_fmri	27.0	0.7142857142857143	89.0	-70.0	0.2857142857142857	8.0	2.0	2.0	12.07787777954954	0.797	n/a	stim	poldrack-single-stim	s615	False	1
568.118	0.432	568.55	-4.853377305800771	end_round	0.432	columbia_card_task_fmri	27.0	0.6666666666666667	71.0	-70.0	0.3333333333333333	8.0	3.0	2.0	13.983873447616476	0.432	2.0	stim	poldrack-single-stim	s615	False	1
569.309	1.5	568.558	n/a	-1.0	2.25	columbia_card_task_fmri	n/a	n/a	-1.0	n/a	n/a	n/a	n/a	n/a	n/a	n/a	n/a	ITI	poldrack-single-stim	s615	False	0
570.813	1.608	572.421	-1.5200439724674406	draw_card	1.608	columbia_card_task_fmri	16.0	0.7777777777777778	89.0	-65.0	0.2222222222222222	9.0	1.0	2.0	1.9334527449844077	1.608	n/a	stim	poldrack-single-stim	s615	False	1
572.426	1.172	573.598	-3.7700439724674415	draw_card	1.172	columbia_card_task_fmri	16.0	0.75	89.0	-65.0	0.25	9.0	2.0	2.0	3.332428699890152	1.172	n/a	stim	poldrack-single-stim	s615	False	1
573.604	0.42	574.024	-6.662901115324583	end_round	0.42	columbia_card_task_fmri	16.0	0.7142857142857143	71.0	-65.0	0.2857142857142857	9.0	3.0	2.0	4.8503336991556125	0.42	2.0	stim	poldrack-single-stim	s615	False	1
574.779	1.5	574.028	n/a	-1.0	2.318	columbia_card_task_fmri	n/a	n/a	-1.0	n/a	n/a	n/a	n/a	n/a	n/a	n/a	n/a	ITI	poldrack-single-stim	s615	False	0
576.351	1.246	577.597	3.679956027532559	draw_card	1.246	columbia_card_task_fmri	13.0	0.9	89.0	-85.0	0.1	10.0	1.0	1.0	-2.3409664909679897	1.246	n/a	stim	poldrack-single-stim	s615	False	1
577.602	1.065	578.667	2.5910671386436683	draw_card	1.065	columbia_card_task_fmri	13.0	0.8888888888888888	89.0	-85.0	0.1111111111111111	10.0	2.0	1.0	-0.9427156495147456	1.065	n/a	stim	poldrack-single-stim	s615	False	1
578.673	0.51	579.183	1.2299560275325576	draw_card	0.51	columbia_card_task_fmri	13.0	0.875	89.0	-85.0	0.125	10.0	3.0	1.0	0.6691232438401755	0.51	n/a	stim	poldrack-single-stim	s615	False	1
579.187	0.448	579.635	-0.5200439724674406	end_round	0.448	columbia_card_task_fmri	13.0	0.8571428571428572	71.0	-85.0	0.1428571428571428	10.0	4.0	1.0	2.551331039819537	0.448	3.0	stim	poldrack-single-stim	s615	False	1
580.392	1.5	579.641	n/a	-1.0	2.454	columbia_card_task_fmri	n/a	n/a	-1.0	n/a	n/a	n/a	n/a	n/a	n/a	n/a	n/a	ITI	poldrack-single-stim	s615	False	0
582.102	2.254	584.356	-1.320043972467441	draw_card	2.254	columbia_card_task_fmri	14.0	0.8	89.0	-65.0	0.2	10.0	1.0	2.0	-0.1412391879164261	2.254	n/a	stim	poldrack-single-stim	s615	False	1
584.362	0.395	584.757	-3.075599528022996	draw_card	0.395	columbia_card_task_fmri	14.0	0.7777777777777778	89.0	-65.0	0.2222222222222222	10.0	2.0	2.0	1.1020599024820117	0.395	n/a	stim	poldrack-single-stim	s615	False	1
584.762	1.634	586.396	-5.270043972467443	end_round	1.634	columbia_card_task_fmri	14.0	0.75	71.0	-65.0	0.25	10.0	3.0	2.0	2.466486420330824	1.634	2.0	stim	poldrack-single-stim	s615	False	1
587.157	1.5	586.406	n/a	-1.0	2.522	columbia_card_task_fmri	n/a	n/a	-1.0	n/a	n/a	n/a	n/a	n/a	n/a	n/a	n/a	ITI	poldrack-single-stim	s615	False	0
588.934	1.412	590.346	0.079956027532559	draw_card	1.412	columbia_card_task_fmri	17.0	0.8	89.0	-70.0	0.2	10.0	1.0	2.0	3.0584257015184733	1.412	n/a	stim	poldrack-single-stim	s615	False	1
590.352	1.559	591.911	-1.8533773058007743	draw_card	1.559	columbia_card_task_fmri	17.0	0.7777777777777778	89.0	-70.0	0.2222222222222222	10.0	2.0	2.0	4.4276551524035455	1.559	n/a	stim	poldrack-single-stim	s615	False	1
591.918	0.535	592.453	-4.270043972467443	draw_card	0.535	columbia_card_task_fmri	17.0	0.75	89.0	-70.0	0.25	10.0	3.0	2.0	5.930278466434615	0.535	n/a	stim	poldrack-single-stim	s615	False	1
592.459	0.412	592.871	-7.3771868296103005	end_round	0.412	columbia_card_task_fmri	17.0	0.7142857142857143	71.0	-70.0	0.2857142857142857	10.0	4.0	2.0	7.560640354934655	0.412	3.0	stim	poldrack-single-stim	s615	False	1
593.628	1.5	592.877	n/a	-1.0	2.318	columbia_card_task_fmri	n/a	n/a	-1.0	n/a	n/a	n/a	n/a	n/a	n/a	n/a	n/a	ITI	poldrack-single-stim	s615	False	0
595.201	1.563	596.764	-1.1867106391341085	draw_card	1.563	columbia_card_task_fmri	13.0	0.8333333333333334	89.0	-75.0	0.1666666666666666	12.0	1.0	2.0	1.0542916184838802	1.563	n/a	stim	poldrack-single-stim	s615	False	1
596.77	0.364	597.134	-2.520043972467444	draw_card	0.364	columbia_card_task_fmri	13.0	0.8181818181818181	89.0	-75.0	0.1818181818181818	12.0	2.0	2.0	2.1996349385966454	0.364	n/a	stim	poldrack-single-stim	s615	False	1
597.139	0.36	597.499	-4.1200439724674425	draw_card	0.36	columbia_card_task_fmri	13.0	0.8	89.0	-75.0	0.2	12.0	3.0	2.0	3.4583880961595383	0.36	n/a	stim	poldrack-single-stim	s615	False	1
597.505	0.437	597.942	-6.075599528022996	draw_card	0.437	columbia_card_task_fmri	13.0	0.7777777777777778	89.0	-75.0	0.2222222222222222	12.0	4.0	2.0	4.8433586800283095	0.437	n/a	stim	poldrack-single-stim	s615	False	1
597.947	0.467	598.414	-8.520043972467443	draw_card	0.467	columbia_card_task_fmri	13.0	0.75	89.0	-75.0	0.25	12.0	5.0	2.0	6.363256429265753	0.467	5.0	stim	poldrack-single-stim	s615	False	0
599.17	1.5	598.419	n/a	-1.0	2.522	columbia_card_task_fmri	n/a	n/a	-1.0	n/a	n/a	n/a	n/a	n/a	n/a	n/a	n/a	ITI	poldrack-single-stim	s615	False	0
600.946	3.565	604.511	0.4799560275325594	draw_card	3.565	columbia_card_task_fmri	14.0	0.8333333333333334	89.0	-70.0	0.1666666666666666	12.0	1.0	2.0	-0.4362531558189353	3.565	n/a	stim	poldrack-single-stim	s615	False	1
604.517	0.359	604.876	-0.7927712451947175	draw_card	0.359	columbia_card_task_fmri	14.0	0.8181818181818181	89.0	-70.0	0.1818181818181818	12.0	2.0	2.0	0.657018076310095	0.359	n/a	stim	poldrack-single-stim	s615	False	1
604.88	0.793	605.673	-2.3200439724674413	draw_card	0.793	columbia_card_task_fmri	14.0	0.8	89.0	-70.0	0.2	12.0	3.0	2.0	1.858543888989324	0.793	n/a	stim	poldrack-single-stim	s615	False	1
605.679	0.632	606.311	-4.186710639134109	draw_card	0.632	columbia_card_task_fmri	14.0	0.7777777777777778	89.0	-70.0	0.2222222222222222	12.0	4.0	2.0	3.180549737676202	0.632	n/a	stim	poldrack-single-stim	s615	False	1
606.317	0.965	607.282	-6.520043972467443	end_round	0.965	columbia_card_task_fmri	14.0	0.75	71.0	-70.0	0.25	12.0	5.0	2.0	4.631349540033504	0.965	4.0	stim	poldrack-single-stim	s615	False	1
608.041	1.5	607.29	n/a	-1.0	2.998	columbia_card_task_fmri	n/a	n/a	-1.0	n/a	n/a	n/a	n/a	n/a	n/a	n/a	n/a	ITI	poldrack-single-stim	s615	False	0
610.294	1.262	611.556	0.4799560275325594	draw_card	1.262	columbia_card_task_fmri	16.0	0.8333333333333334	89.0	-80.0	0.1666666666666666	12.0	1.0	2.0	4.03542296368289	1.262	1.0	stim	poldrack-single-stim	s615	False	0
612.316	1.5	611.565	n/a	-1.0	2.318	columbia_card_task_fmri	n/a	n/a	-1.0	n/a	n/a	n/a	n/a	n/a	n/a	n/a	n/a	ITI	poldrack-single-stim	s615	False	0
613.89	1.887	615.777	0.2799560275325583	draw_card	1.887	columbia_card_task_fmri	16.0	0.8	89.0	-65.0	0.2	15.0	1.0	3.0	0.6586708296973711	1.887	n/a	stim	poldrack-single-stim	s615	False	1
615.783	0.485	616.268	-0.8771868296102983	draw_card	0.485	columbia_card_task_fmri	16.0	0.7857142857142857	89.0	-65.0	0.2142857142857142	15.0	2.0	3.0	1.494979553693362	0.485	n/a	stim	poldrack-single-stim	s615	False	1
616.274	0.433	616.707	-2.212351664775136	draw_card	0.433	columbia_card_task_fmri	16.0	0.7692307692307692	89.0	-65.0	0.2307692307692307	15.0	3.0	3.0	2.3858195120967736	0.433	n/a	stim	poldrack-single-stim	s615	False	1
616.713	0.555	617.268	-3.7700439724674415	draw_card	0.555	columbia_card_task_fmri	16.0	0.75	89.0	-65.0	0.25	15.0	4.0	3.0	3.332428699890152	0.555	n/a	stim	poldrack-single-stim	s615	False	1
617.275	0.982	618.257	-5.610953063376533	end_round	0.982	columbia_card_task_fmri	16.0	0.7272727272727273	71.0	-65.0	0.2727272727272727	15.0	5.0	3.0	4.332612287684043	0.982	4.0	stim	poldrack-single-stim	s615	False	1
619.014	1.5	618.263	n/a	-1.0	2.25	columbia_card_task_fmri	n/a	n/a	-1.0	n/a	n/a	n/a	n/a	n/a	n/a	n/a	n/a	ITI	poldrack-single-stim	s615	False	0
620.52	2.178	622.698	-1.3950439724674424	draw_card	2.178	columbia_card_task_fmri	15.0	0.8125	89.0	-75.0	0.1875	16.0	1.0	3.0	3.386508532305257	2.178	n/a	stim	poldrack-single-stim	s615	False	1
622.704	1.003	623.707	-2.5200439724674424	draw_card	1.003	columbia_card_task_fmri	15.0	0.8	89.0	-75.0	0.2	16.0	2.0	3.0	4.258315392125077	1.003	n/a	stim	poldrack-single-stim	s615	False	1
623.713	0.738	624.451	-3.805758258181727	draw_card	0.738	columbia_card_task_fmri	15.0	0.7857142857142857	89.0	-75.0	0.2142857142857142	16.0	3.0	3.0	5.18756618811031	0.738	n/a	stim	poldrack-single-stim	s615	False	1
624.456	1.861	626.317	-5.289274741698216	draw_card	1.861	columbia_card_task_fmri	15.0	0.7692307692307692	89.0	-75.0	0.2307692307692307	16.0	4.0	3.0	6.177407457888407	1.861	4.0	stim	poldrack-single-stim	s615	False	0
627.077	1.5	626.326	n/a	-1.0	2.454	columbia_card_task_fmri	n/a	n/a	-1.0	n/a	n/a	n/a	n/a	n/a	n/a	n/a	n/a	ITI	poldrack-single-stim	s615	False	0
628.786	1.472	630.258	-0.8325439724674424	draw_card	1.472	columbia_card_task_fmri	14.0	0.6875	89.0	-35.0	0.3125	16.0	1.0	5.0	-9.027705323594866	1.472	n/a	stim	poldrack-single-stim	s615	False	1
630.263	1.952	632.215	-1.8533773058007743	draw_card	1.952	columbia_card_task_fmri	14.0	0.6666666666666667	89.0	-35.0	0.3333333333333333	16.0	2.0	5.0	-8.641076545069723	1.952	n/a	stim	poldrack-single-stim	s615	False	1
632.221	2.34	634.561	-3.0200439724674424	draw_card	2.34	columbia_card_task_fmri	14.0	0.6428571428571428	89.0	-35.0	0.3571428571428571	16.0	3.0	5.0	-8.2612649550037	2.34	n/a	stim	poldrack-single-stim	s615	False	1
634.568	0.967	635.535	-4.366197818621288	end_round	0.967	columbia_card_task_fmri	14.0	0.6153846153846154	71.0	-35.0	0.3846153846153846	16.0	4.0	5.0	-7.901344262663752	0.967	3.0	stim	poldrack-single-stim	s615	False	1
636.291	1.5	635.54	n/a	-1.0	2.318	columbia_card_task_fmri	n/a	n/a	-1.0	n/a	n/a	n/a	n/a	n/a	n/a	n/a	n/a	ITI	poldrack-single-stim	s615	False	0
637.865	1.486	639.351	4.346622694199224	draw_card	1.486	columbia_card_task_fmri	16.0	0.8666666666666667	89.0	-75.0	0.1333333333333333	15.0	1.0	2.0	-0.8071090185417482	1.486	n/a	stim	poldrack-single-stim	s615	False	1
639.357	0.282	639.639	3.4799560275325594	draw_card	0.282	columbia_card_task_fmri	16.0	0.8571428571428572	89.0	-75.0	0.1428571428571428	15.0	2.0	2.0	0.1020996164590073	0.282	n/a	stim	poldrack-single-stim	s615	False	1
639.645	0.291	639.936	2.4799560275325576	draw_card	0.291	columbia_card_task_fmri	16.0	0.8461538461538461	89.0	-75.0	0.1538461538461538	15.0	3.0	2.0	1.0915342837527433	0.291	n/a	stim	poldrack-single-stim	s615	False	1
639.94	0.506	640.446	1.3132893608658915	draw_card	0.506	columbia_card_task_fmri	16.0	0.8333333333333334	89.0	-75.0	0.1666666666666666	15.0	4.0	2.0	2.1722098444764555	0.506	n/a	stim	poldrack-single-stim	s615	False	1
640.452	0.496	640.948	-0.0654985179219891	draw_card	0.496	columbia_card_task_fmri	16.0	0.8181818181818181	89.0	-75.0	0.1818181818181818	15.0	5.0	2.0	3.356606905264485	0.496	5.0	stim	poldrack-single-stim	s615	False	0
641.709	1.5	640.958	n/a	-1.0	2.318	columbia_card_task_fmri	n/a	n/a	-1.0	n/a	n/a	n/a	n/a	n/a	n/a	n/a	n/a	ITI	poldrack-single-stim	s615	False	0
643.283	1.594	644.877	5.01328936086589	draw_card	1.594	columbia_card_task_fmri	16.0	0.8666666666666667	89.0	-70.0	0.1333333333333333	15.0	1.0	2.0	-2.506565756179608	1.594	n/a	stim	poldrack-single-stim	s615	False	1
644.882	0.358	645.24	4.1942417418182725	draw_card	0.358	columbia_card_task_fmri	16.0	0.8571428571428572	89.0	-70.0	0.1428571428571428	15.0	2.0	2.0	-1.647325658725407	0.358	n/a	stim	poldrack-single-stim	s615	False	1
645.245	0.401	645.646	3.249186796763326	draw_card	0.401	columbia_card_task_fmri	16.0	0.8461538461538461	89.0	-70.0	0.1538461538461538	15.0	3.0	2.0	-0.7122678569974923	0.401	3.0	stim	poldrack-single-stim	s615	False	0
646.403	1.5	645.652	n/a	-1.0	2.59	columbia_card_task_fmri	n/a	n/a	-1.0	n/a	n/a	n/a	n/a	n/a	n/a	n/a	n/a	ITI	poldrack-single-stim	s615	False	0
648.249	2.548	650.797	2.3549560275325576	draw_card	2.548	columbia_card_task_fmri	8.0	0.9375	89.0	-90.0	0.0625	16.0	1.0	1.0	-8.018006023553855	2.548	n/a	stim	poldrack-single-stim	s615	False	1
650.803	0.344	651.147	1.9466226941992244	draw_card	0.344	columbia_card_task_fmri	8.0	0.9333333333333332	89.0	-90.0	0.0666666666666666	16.0	2.0	1.0	-7.294677745127846	0.344	n/a	stim	poldrack-single-stim	s615	False	1
651.153	0.861	652.014	1.4799560275325585	draw_card	0.861	columbia_card_task_fmri	8.0	0.9285714285714286	89.0	-90.0	0.0714285714285714	16.0	3.0	1.0	-6.50146180975765	0.861	n/a	stim	poldrack-single-stim	s615	False	1
652.021	0.466	652.487	0.9414944890710192	draw_card	0.466	columbia_card_task_fmri	8.0	0.9230769230769232	89.0	-90.0	0.0769230769230769	16.0	4.0	1.0	-5.626476841672847	0.466	n/a	stim	poldrack-single-stim	s615	False	1
652.494	0.466	652.96	0.3132893608658906	draw_card	0.466	columbia_card_task_fmri	8.0	0.9166666666666666	89.0	-90.0	0.0833333333333333	16.0	5.0	1.0	-4.654862715236426	0.466	n/a	stim	poldrack-single-stim	s615	False	1
652.966	0.682	653.648	-0.4291348815583515	draw_card	0.682	columbia_card_task_fmri	8.0	0.9090909090909092	89.0	-90.0	0.0909090909090909	16.0	6.0	1.0	-3.5677767523312767	0.682	n/a	stim	poldrack-single-stim	s615	False	1
653.654	0.519	654.173	-1.3200439724674422	draw_card	0.519	columbia_card_task_fmri	8.0	0.9	89.0	-90.0	0.1	16.0	7.0	1.0	-2.3409664909679897	0.519	n/a	stim	poldrack-single-stim	s615	False	1
654.177	1.49	655.667	-2.408932861356332	draw_card	1.49	columbia_card_task_fmri	8.0	0.8888888888888888	89.0	-90.0	0.1111111111111111	16.0	8.0	1.0	-0.9427156495147456	1.49	n/a	stim	poldrack-single-stim	s615	False	1
655.675	0.488	656.163	-3.7700439724674415	end_round	0.488	columbia_card_task_fmri	8.0	0.875	71.0	-90.0	0.125	16.0	9.0	1.0	0.6691232438401755	0.488	8.0	stim	poldrack-single-stim	s615	False	1
656.925	1.5	656.174	n/a	-1.0	2.25	columbia_card_task_fmri	n/a	n/a	-1.0	n/a	n/a	n/a	n/a	n/a	n/a	n/a	n/a	ITI	poldrack-single-stim	s615	False	0
658.431	2.044	660.475	3.9174560275325576	draw_card	2.044	columbia_card_task_fmri	10.0	0.9375	89.0	-95.0	0.0625	16.0	1.0	1.0	-6.32389940719494	2.044	n/a	stim	poldrack-single-stim	s615	False	1
660.481	0.684	661.165	3.4799560275325585	draw_card	0.684	columbia_card_task_fmri	10.0	0.9333333333333332	89.0	-95.0	0.0666666666666666	16.0	2.0	1.0	-5.548884990523455	0.684	n/a	stim	poldrack-single-stim	s615	False	1
661.171	0.369	661.54	2.9799560275325585	draw_card	0.369	columbia_card_task_fmri	10.0	0.9285714285714286	89.0	-95.0	0.0714285714285714	16.0	3.0	1.0	-4.698990331840044	0.369	n/a	stim	poldrack-single-stim	s615	False	1
661.547	0.371	661.918	2.403032950609481	draw_card	0.371	columbia_card_task_fmri	10.0	0.9230769230769232	89.0	-95.0	0.0769230769230769	16.0	4.0	1.0	-3.7614853282544978	0.371	4.0	stim	poldrack-single-stim	s615	False	0
662.679	1.5	661.928	n/a	-1.0	2.25	columbia_card_task_fmri	n/a	n/a	-1.0	n/a	n/a	n/a	n/a	n/a	n/a	n/a	n/a	ITI	poldrack-single-stim	s615	False	0
664.187	1.503	665.69	4.854956027532557	draw_card	1.503	columbia_card_task_fmri	15.0	0.875	89.0	-70.0	0.125	16.0	1.0	2.0	-3.6296792245188714	1.503	1.0	stim	poldrack-single-stim	s615	False	0
666.445	1.5	665.694	n/a	-1.0	2.522	columbia_card_task_fmri	n/a	n/a	-1.0	n/a	n/a	n/a	n/a	n/a	n/a	n/a	n/a	ITI	poldrack-single-stim	s615	False	0
668.224	1.367	669.591	3.8549560275325576	draw_card	1.367	columbia_card_task_fmri	16.0	0.875	89.0	-85.0	0.125	16.0	1.0	2.0	1.6611744451820272	1.367	n/a	stim	poldrack-single-stim	s615	False	1
669.598	0.362	669.96	3.013289360865891	draw_card	0.362	columbia_card_task_fmri	16.0	0.8666666666666667	89.0	-85.0	0.1333333333333333	16.0	2.0	2.0	2.591868733616792	0.362	2.0	stim	poldrack-single-stim	s615	False	0
670.721	1.5	669.97	n/a	-1.0	2.454	columbia_card_task_fmri	n/a	n/a	-1.0	n/a	n/a	n/a	n/a	n/a	n/a	n/a	n/a	ITI	poldrack-single-stim	s615	False	0
