onset	duration	block_duration	choice	experiment_exp_id	key_press	large_amount	later_delay	response_time	small_amount	trial_id	trial_type	worker_id	junk
3.016	4.0	4.636	smaller_sooner	discount_fixed	71	67.0	74.0	1.81	20.0	n/a	smaller_sooner	s616	False
7.653	4.0	5.316	smaller_sooner	discount_fixed	71	29.0	58.0	2.914	20.0	n/a	smaller_sooner	s616	False
12.974	4.0	4.976	smaller_sooner	discount_fixed	71	39.0	104.0	2.538	20.0	n/a	smaller_sooner	s616	False
17.953	4.0	4.568	smaller_sooner	discount_fixed	71	33.0	103.0	2.265	20.0	n/a	smaller_sooner	s616	False
22.526	4.0	5.52	smaller_sooner	discount_fixed	71	33.0	78.0	2.073	20.0	n/a	smaller_sooner	s616	False
28.048	4.0	5.588	larger_later	discount_fixed	89	74.0	52.0	1.801	20.0	n/a	larger_later	s616	False
33.64	4.0	5.792	smaller_sooner	discount_fixed	71	28.0	132.0	1.596	20.0	n/a	smaller_sooner	s616	False
39.436	4.0	4.568	smaller_sooner	discount_fixed	71	28.0	59.0	2.419	20.0	n/a	smaller_sooner	s616	False
44.006	4.0	5.112	smaller_sooner	discount_fixed	71	28.0	163.0	1.19	20.0	n/a	smaller_sooner	s616	False
49.12	4.0	4.5	smaller_sooner	discount_fixed	71	32.0	74.0	1.731	20.0	n/a	smaller_sooner	s616	False
53.624	4.0	4.84	smaller_sooner	discount_fixed	71	57.0	89.0	2.315	20.0	n/a	smaller_sooner	s616	False
58.465	4.0	4.568	larger_later	discount_fixed	89	70.0	108.0	1.985	20.0	n/a	larger_later	s616	False
63.039	4.0	5.384	larger_later	discount_fixed	89	72.0	95.0	2.558	20.0	n/a	larger_later	s616	False
68.426	4.0	5.044	larger_later	discount_fixed	89	30.0	36.0	2.394	20.0	n/a	larger_later	s616	False
73.474	4.0	4.704	smaller_sooner	discount_fixed	71	41.0	129.0	1.045	20.0	n/a	smaller_sooner	s616	False
78.184	4.0	4.908	smaller_sooner	discount_fixed	71	78.0	129.0	1.316	20.0	n/a	smaller_sooner	s616	False
83.096	4.0	4.908	larger_later	discount_fixed	89	71.0	88.0	1.46	20.0	n/a	larger_later	s616	False
88.006	4.0	4.84	smaller_sooner	discount_fixed	71	65.0	159.0	1.269	20.0	n/a	smaller_sooner	s616	False
92.849	4.0	5.112	smaller_sooner	discount_fixed	71	24.0	125.0	1.16	20.0	n/a	smaller_sooner	s616	False
97.964	4.0	5.112	larger_later	discount_fixed	89	58.0	36.0	1.654	20.0	n/a	larger_later	s616	False
103.081	4.0	4.704	larger_later	discount_fixed	89	63.0	37.0	1.168	20.0	n/a	larger_later	s616	False
107.788	4.0	4.84	larger_later	discount_fixed	89	75.0	41.0	1.843	20.0	n/a	larger_later	s616	False
112.63	4.0	4.84	smaller_sooner	discount_fixed	71	45.0	72.0	2.29	20.0	n/a	smaller_sooner	s616	False
117.476	4.0	6.88	smaller_sooner	discount_fixed	71	25.0	74.0	1.329	20.0	n/a	smaller_sooner	s616	False
124.358	4.0	4.568	smaller_sooner	discount_fixed	71	65.0	137.0	1.997	20.0	n/a	smaller_sooner	s616	False
128.927	4.0	4.772	smaller_sooner	discount_fixed	71	49.0	140.0	0.882	20.0	n/a	smaller_sooner	s616	False
133.702	4.0	7.016	smaller_sooner	discount_fixed	71	67.0	103.0	0.818	20.0	n/a	smaller_sooner	s616	False
140.724	4.0	4.704	smaller_sooner	discount_fixed	71	69.0	172.0	0.925	20.0	n/a	smaller_sooner	s616	False
145.432	4.0	5.18	larger_later	discount_fixed	89	66.0	71.0	2.791	20.0	n/a	larger_later	s616	False
150.613	4.0	5.044	smaller_sooner	discount_fixed	71	71.0	176.0	0.742	20.0	n/a	smaller_sooner	s616	False
155.658	4.0	5.316	larger_later	discount_fixed	89	31.0	76.0	1.125	20.0	n/a	larger_later	s616	False
160.977	4.0	4.568	larger_later	discount_fixed	89	43.0	19.0	1.376	20.0	n/a	larger_later	s616	False
165.549	4.0	4.636	smaller_sooner	discount_fixed	71	60.0	124.0	1.265	20.0	n/a	smaller_sooner	s616	False
170.189	4.0	4.908	smaller_sooner	discount_fixed	71	27.0	142.0	0.935	20.0	n/a	smaller_sooner	s616	False
175.101	4.0	4.5	smaller_sooner	discount_fixed	71	25.0	70.0	1.272	20.0	n/a	smaller_sooner	s616	False
179.604	4.0	4.976	smaller_sooner	discount_fixed	71	44.0	92.0	1.562	20.0	n/a	smaller_sooner	s616	False
184.584	4.0	4.908	larger_later	discount_fixed	89	41.0	27.0	1.405	20.0	n/a	larger_later	s616	False
189.494	4.0	4.568	smaller_sooner	discount_fixed	71	64.0	89.0	2.613	20.0	n/a	smaller_sooner	s616	False
194.064	4.0	4.5	smaller_sooner	discount_fixed	71	78.0	108.0	0.844	20.0	n/a	smaller_sooner	s616	False
198.567	4.0	6.2	smaller_sooner	discount_fixed	71	80.0	145.0	2.217	20.0	n/a	smaller_sooner	s616	False
204.772	4.0	4.704	smaller_sooner	discount_fixed	71	41.0	174.0	0.88	20.0	n/a	smaller_sooner	s616	False
209.477	4.0	5.044	smaller_sooner	discount_fixed	71	42.0	145.0	0.919	20.0	n/a	smaller_sooner	s616	False
214.522	4.0	5.044	smaller_sooner	discount_fixed	71	36.0	114.0	1.411	20.0	n/a	smaller_sooner	s616	False
219.569	4.0	5.18	larger_later	discount_fixed	89	58.0	55.0	0.932	20.0	n/a	larger_later	s616	False
224.754	4.0	4.976	larger_later	discount_fixed	89	81.0	58.0	2.053	20.0	n/a	larger_later	s616	False
229.733	4.0	4.772	smaller_sooner	discount_fixed	71	32.0	111.0	1.068	20.0	n/a	smaller_sooner	s616	False
234.508	4.0	4.772	smaller_sooner	discount_fixed	71	25.0	141.0	0.752	20.0	n/a	smaller_sooner	s616	False
239.282	4.0	5.18	larger_later	discount_fixed	89	67.0	23.0	1.15	20.0	n/a	larger_later	s616	False
244.466	4.0	5.18	smaller_sooner	discount_fixed	71	77.0	161.0	1.089	20.0	n/a	smaller_sooner	s616	False
249.648	4.0	5.248	smaller_sooner	discount_fixed	71	55.0	163.0	1.245	20.0	n/a	smaller_sooner	s616	False
254.902	4.0	4.568	smaller_sooner	discount_fixed	71	40.0	159.0	0.735	20.0	n/a	smaller_sooner	s616	False
259.472	4.0	4.5	smaller_sooner	discount_fixed	71	76.0	161.0	0.793	20.0	n/a	smaller_sooner	s616	False
263.976	4.0	4.908	smaller_sooner	discount_fixed	71	48.0	128.0	0.716	20.0	n/a	smaller_sooner	s616	False
268.886	4.0	4.568	smaller_sooner	discount_fixed	71	39.0	95.0	2.553	20.0	n/a	smaller_sooner	s616	False
273.457	4.0	6.2	smaller_sooner	discount_fixed	71	83.0	105.0	0.754	20.0	n/a	smaller_sooner	s616	False
279.659	4.0	4.908	larger_later	discount_fixed	89	67.0	41.0	0.999	20.0	n/a	larger_later	s616	False
284.568	4.0	5.248	smaller_sooner	discount_fixed	71	56.0	172.0	0.614	20.0	n/a	smaller_sooner	s616	False
289.818	4.0	5.044	smaller_sooner	discount_fixed	71	28.0	123.0	0.524	20.0	n/a	smaller_sooner	s616	False
294.866	4.0	4.636	smaller_sooner	discount_fixed	71	50.0	129.0	0.5	20.0	n/a	smaller_sooner	s616	False
299.508	4.0	4.704	smaller_sooner	discount_fixed	71	23.0	61.0	1.815	20.0	n/a	smaller_sooner	s616	False
304.216	4.0	4.636	larger_later	discount_fixed	89	79.0	92.0	1.153	20.0	n/a	larger_later	s616	False
317.363	4.0	4.568	smaller_sooner	discount_fixed	71	61.0	141.0	1.112	20.0	n/a	smaller_sooner	s616	False
321.937	4.0	4.568	larger_later	discount_fixed	89	43.0	38.0	1.187	20.0	n/a	larger_later	s616	False
326.509	4.0	4.908	smaller_sooner	discount_fixed	71	66.0	145.0	0.782	20.0	n/a	smaller_sooner	s616	False
331.42	4.0	4.84	larger_later	discount_fixed	89	30.0	23.0	0.852	20.0	n/a	larger_later	s616	False
336.264	4.0	5.248	larger_later	discount_fixed	89	32.0	57.0	0.954	20.0	n/a	larger_later	s616	False
341.514	4.0	4.772	smaller_sooner	discount_fixed	71	27.0	91.0	1.331	20.0	n/a	smaller_sooner	s616	False
346.29	4.0	5.996	smaller_sooner	discount_fixed	71	43.0	120.0	0.469	20.0	n/a	smaller_sooner	s616	False
352.288	4.0	5.588	larger_later	discount_fixed	89	75.0	60.0	1.396	20.0	n/a	larger_later	s616	False
357.877	4.0	4.568	smaller_sooner	discount_fixed	71	34.0	176.0	0.757	20.0	n/a	smaller_sooner	s616	False
362.449	4.0	5.112	larger_later	discount_fixed	89	24.0	38.0	1.068	20.0	n/a	larger_later	s616	False
367.564	4.0	5.656	larger_later	discount_fixed	89	82.0	74.0	2.097	20.0	n/a	larger_later	s616	False
373.222	4.0	4.568	larger_later	discount_fixed	89	58.0	53.0	0.995	20.0	n/a	larger_later	s616	False
377.792	4.0	4.772	larger_later	discount_fixed	89	54.0	23.0	0.922	20.0	n/a	larger_later	s616	False
382.565	4.0	5.044	larger_later	discount_fixed	89	41.0	55.0	0.854	20.0	n/a	larger_later	s616	False
387.611	4.0	4.84	smaller_sooner	discount_fixed	71	77.0	142.0	0.715	20.0	n/a	smaller_sooner	s616	False
392.456	4.0	5.18	smaller_sooner	discount_fixed	71	25.0	108.0	0.969	20.0	n/a	smaller_sooner	s616	False
397.637	4.0	5.044	smaller_sooner	discount_fixed	71	33.0	163.0	0.433	20.0	n/a	smaller_sooner	s616	False
402.686	4.0	4.976	smaller_sooner	discount_fixed	71	29.0	75.0	1.42	20.0	n/a	smaller_sooner	s616	False
407.668	4.0	4.976	smaller_sooner	discount_fixed	71	45.0	157.0	0.73	20.0	n/a	smaller_sooner	s616	False
412.645	4.0	5.316	smaller_sooner	discount_fixed	71	31.0	74.0	0.917	20.0	n/a	smaller_sooner	s616	False
417.962	4.0	4.5	larger_later	discount_fixed	89	80.0	39.0	0.905	20.0	n/a	larger_later	s616	False
422.467	4.0	5.044	smaller_sooner	discount_fixed	71	22.0	21.0	2.45	20.0	n/a	smaller_sooner	s616	False
427.513	4.0	4.704	smaller_sooner	discount_fixed	71	52.0	139.0	0.636	20.0	n/a	smaller_sooner	s616	False
432.22	4.0	4.84	smaller_sooner	discount_fixed	71	54.0	126.0	0.829	20.0	n/a	smaller_sooner	s616	False
437.062	4.0	6.744	smaller_sooner	discount_fixed	71	23.0	176.0	0.64	20.0	n/a	smaller_sooner	s616	False
443.808	4.0	4.5	smaller_sooner	discount_fixed	71	24.0	87.0	1.209	20.0	n/a	smaller_sooner	s616	False
448.31	4.0	4.568	smaller_sooner	discount_fixed	71	36.0	140.0	0.775	20.0	n/a	smaller_sooner	s616	False
452.884	4.0	4.704	smaller_sooner	discount_fixed	71	35.0	171.0	0.68	20.0	n/a	smaller_sooner	s616	False
457.592	4.0	4.908	larger_later	discount_fixed	89	34.0	43.0	1.549	20.0	n/a	larger_later	s616	False
462.503	4.0	4.568	smaller_sooner	discount_fixed	71	74.0	121.0	0.755	20.0	n/a	smaller_sooner	s616	False
467.072	4.0	4.772	smaller_sooner	discount_fixed	71	45.0	107.0	0.682	20.0	n/a	smaller_sooner	s616	False
471.848	4.0	4.636	larger_later	discount_fixed	89	77.0	24.0	1.435	20.0	n/a	larger_later	s616	False
476.487	4.0	4.568	smaller_sooner	discount_fixed	71	39.0	161.0	0.662	20.0	n/a	smaller_sooner	s616	False
481.056	4.0	5.452	smaller_sooner	discount_fixed	71	62.0	180.0	1.092	20.0	n/a	smaller_sooner	s616	False
486.512	4.0	5.384	smaller_sooner	discount_fixed	71	24.0	139.0	0.656	20.0	n/a	smaller_sooner	s616	False
491.9	4.0	4.568	larger_later	discount_fixed	89	58.0	72.0	1.372	20.0	n/a	larger_later	s616	False
496.471	4.0	6.268	smaller_sooner	discount_fixed	71	56.0	93.0	1.031	20.0	n/a	smaller_sooner	s616	False
502.743	4.0	5.52	larger_later	discount_fixed	89	45.0	26.0	0.982	20.0	n/a	larger_later	s616	False
508.268	4.0	4.568	smaller_sooner	discount_fixed	71	23.0	42.0	1.563	20.0	n/a	smaller_sooner	s616	False
512.838	4.0	4.636	larger_later	discount_fixed	89	50.0	41.0	2.046	20.0	n/a	larger_later	s616	False
517.477	4.0	4.636	smaller_sooner	discount_fixed	71	25.0	176.0	0.847	20.0	n/a	smaller_sooner	s616	False
522.118	4.0	5.112	larger_later	discount_fixed	89	54.0	22.0	1.305	20.0	n/a	larger_later	s616	False
527.232	4.0	5.316	larger_later	discount_fixed	89	29.0	44.0	1.036	20.0	n/a	larger_later	s616	False
532.55	4.0	4.568	smaller_sooner	discount_fixed	71	24.0	89.0	1.12	20.0	n/a	smaller_sooner	s616	False
537.121	4.0	4.568	smaller_sooner	discount_fixed	71	23.0	77.0	1.711	20.0	n/a	smaller_sooner	s616	False
541.692	4.0	4.568	smaller_sooner	discount_fixed	71	27.0	130.0	0.854	20.0	n/a	smaller_sooner	s616	False
546.262	4.0	4.84	smaller_sooner	discount_fixed	71	23.0	134.0	0.852	20.0	n/a	smaller_sooner	s616	False
551.104	4.0	4.5	smaller_sooner	discount_fixed	71	55.0	107.0	0.72	20.0	n/a	smaller_sooner	s616	False
555.606	4.0	5.656	smaller_sooner	discount_fixed	71	44.0	143.0	0.836	20.0	n/a	smaller_sooner	s616	False
561.266	4.0	4.908	smaller_sooner	discount_fixed	71	23.0	110.0	0.915	20.0	n/a	smaller_sooner	s616	False
566.178	4.0	4.636	smaller_sooner	discount_fixed	71	65.0	156.0	1.204	20.0	n/a	smaller_sooner	s616	False
570.816	4.0	4.5	smaller_sooner	discount_fixed	71	22.0	27.0	1.387	20.0	n/a	smaller_sooner	s616	False
575.317	4.0	4.5	larger_later	discount_fixed	89	50.0	59.0	1.376	20.0	n/a	larger_later	s616	False
579.819	4.0	5.112	smaller_sooner	discount_fixed	71	85.0	129.0	1.149	20.0	n/a	smaller_sooner	s616	False
584.933	4.0	6.132	larger_later	discount_fixed	89	66.0	58.0	1.55	20.0	n/a	larger_later	s616	False
591.068	4.0	4.84	smaller_sooner	discount_fixed	71	49.0	172.0	0.831	20.0	n/a	smaller_sooner	s616	False
595.91	4.0	4.568	larger_later	discount_fixed	89	73.0	44.0	1.568	20.0	n/a	larger_later	s616	False
600.48	4.0	4.704	larger_later	discount_fixed	89	58.0	73.0	0.855	20.0	n/a	larger_later	s616	False
605.189	4.0	5.86	larger_later	discount_fixed	89	71.0	76.0	0.742	20.0	n/a	larger_later	s616	False
