onset	duration	movement_onset	CTI	block_duration	correct	correct_response	cue	cue_switch	experiment_exp_id	key_press	response_time	stim_color	stim_number	switch_type	task	task_switch	trial_id	trial_type	worker_id	first_trial_of_block	junk
4.421	1.0	5.788	0.9	2.136	True	71.0	Orange-Blue	n/a	twobytwo	71.0	0.467	blue	8.0	task_switch	color	switch	stim	poldrack-single-stim	s617	1	False
7.466	1.0	8.864	0.9	2.68	True	71.0	Orange-Blue	stay	twobytwo	71.0	0.498	blue	7.0	cue_stay	color	stay	stim	poldrack-single-stim	s617	0	False
11.055	1.0	12.464	0.9	2.544	True	71.0	Color	switch	twobytwo	71.0	0.509	blue	3.0	cue_switch	color	stay	stim	poldrack-single-stim	s617	0	False
14.507	1.0	15.869	0.9	2.272	True	71.0	Orange-Blue	switch	twobytwo	71.0	0.462	blue	4.0	cue_switch	color	stay	stim	poldrack-single-stim	s617	0	False
16.888	1.0	17.65	0.1	2.272	True	89.0	Color	switch	twobytwo	89.0	0.662	orange	4.0	cue_switch	color	stay	stim	poldrack-single-stim	s617	0	False
19.266	1.0	20.142	0.1	2.408	True	71.0	High-Low	n/a	twobytwo	71.0	0.776	orange	8.0	task_switch	magnitude	switch	stim	poldrack-single-stim	s617	0	False
22.581	1.0	23.9	0.9	2.136	True	71.0	High-Low	stay	twobytwo	71.0	0.419	orange	7.0	cue_stay	magnitude	stay	stim	poldrack-single-stim	s617	0	False
25.62	1.0	26.919	0.9	2.272	True	89.0	Color	n/a	twobytwo	89.0	0.399	orange	9.0	task_switch	color	switch	stim	poldrack-single-stim	s617	0	False
28.003	1.0	28.657	0.1	2.0	True	89.0	Orange-Blue	switch	twobytwo	89.0	0.554	orange	6.0	cue_switch	color	stay	stim	poldrack-single-stim	s617	0	False
30.112	1.0	30.877	0.1	2.136	True	71.0	Color	switch	twobytwo	71.0	0.665	blue	8.0	cue_switch	color	stay	stim	poldrack-single-stim	s617	0	False
32.355	1.0	33.084	0.1	2.272	True	89.0	Color	stay	twobytwo	89.0	0.629	orange	2.0	cue_stay	color	stay	stim	poldrack-single-stim	s617	0	False
34.729	1.0	35.627	0.1	2.0	True	71.0	High-Low	n/a	twobytwo	71.0	0.798	orange	9.0	task_switch	magnitude	switch	stim	poldrack-single-stim	s617	0	False
36.838	1.0	37.606	0.1	2.68	True	71.0	Color	n/a	twobytwo	71.0	0.668	blue	6.0	task_switch	color	switch	stim	poldrack-single-stim	s617	0	False
39.624	1.0	40.394	0.1	2.0	True	71.0	Orange-Blue	switch	twobytwo	71.0	0.67	blue	6.0	cue_switch	color	stay	stim	poldrack-single-stim	s617	0	False
41.731	1.0	42.63	0.1	2.0	False	89.0	High-Low	n/a	twobytwo	71.0	0.799	blue	3.0	task_switch	magnitude	switch	stim	poldrack-single-stim	s617	0	False
44.637	1.0	46.208	0.9	2.0	True	71.0	High-Low	stay	twobytwo	71.0	0.671	orange	8.0	cue_stay	magnitude	stay	stim	poldrack-single-stim	s617	0	False
46.746	1.0	47.576	0.1	2.272	True	71.0	Orange-Blue	n/a	twobytwo	71.0	0.73	blue	8.0	task_switch	color	switch	stim	poldrack-single-stim	s617	0	False
49.924	1.0	51.347	0.9	2.0	True	89.0	Magnitude	n/a	twobytwo	89.0	0.523	orange	1.0	task_switch	magnitude	switch	stim	poldrack-single-stim	s617	0	False
52.835	1.0	54.264	0.9	2.0	True	71.0	Color	n/a	twobytwo	71.0	0.529	blue	4.0	task_switch	color	switch	stim	poldrack-single-stim	s617	0	False
54.948	1.0	55.757	0.1	2.0	True	71.0	High-Low	n/a	twobytwo	71.0	0.709	blue	7.0	task_switch	magnitude	switch	stim	poldrack-single-stim	s617	0	False
57.856	1.0	59.306	0.9	2.68	True	71.0	High-Low	stay	twobytwo	71.0	0.55	orange	9.0	cue_stay	magnitude	stay	stim	poldrack-single-stim	s617	0	False
60.644	1.0	61.428	0.1	2.0	True	89.0	High-Low	stay	twobytwo	89.0	0.684	blue	3.0	cue_stay	magnitude	stay	stim	poldrack-single-stim	s617	0	False
63.548	1.0	64.997	0.9	2.136	True	71.0	Color	n/a	twobytwo	71.0	0.549	blue	8.0	task_switch	color	switch	stim	poldrack-single-stim	s617	0	False
66.588	1.0	67.879	0.9	2.408	True	89.0	Orange-Blue	switch	twobytwo	89.0	0.391	orange	3.0	cue_switch	color	stay	stim	poldrack-single-stim	s617	0	False
69.9	1.0	71.336	0.9	2.136	True	71.0	Orange-Blue	stay	twobytwo	71.0	0.536	blue	6.0	cue_stay	color	stay	stim	poldrack-single-stim	s617	0	False
72.143	1.0	72.99	0.1	2.0	True	89.0	Orange-Blue	stay	twobytwo	89.0	0.747	orange	4.0	cue_stay	color	stay	stim	poldrack-single-stim	s617	0	False
75.055	1.0	76.5	0.9	2.0	True	89.0	High-Low	n/a	twobytwo	89.0	0.545	blue	4.0	task_switch	magnitude	switch	stim	poldrack-single-stim	s617	0	False
77.958	1.0	79.476	0.9	2.544	False	71.0	Color	n/a	twobytwo	89.0	0.618	blue	1.0	task_switch	color	switch	stim	poldrack-single-stim	s617	0	False
80.609	1.0	81.569	0.1	2.136	True	71.0	Color	stay	twobytwo	71.0	0.86	blue	2.0	cue_stay	color	stay	stim	poldrack-single-stim	s617	0	False
83.652	1.0	84.942	0.9	2.544	True	71.0	Color	stay	twobytwo	71.0	0.39	blue	7.0	cue_stay	color	stay	stim	poldrack-single-stim	s617	0	False
87.102	1.0	88.476	0.9	2.68	True	71.0	High-Low	n/a	twobytwo	71.0	0.474	orange	8.0	task_switch	magnitude	switch	stim	poldrack-single-stim	s617	0	False
90.692	1.0	92.008	0.9	2.0	True	71.0	Magnitude	switch	twobytwo	71.0	0.416	orange	9.0	cue_switch	magnitude	stay	stim	poldrack-single-stim	s617	0	False
92.799	1.0	93.927	0.1	2.272	True	71.0	Orange-Blue	n/a	twobytwo	71.0	1.028	blue	9.0	task_switch	color	switch	stim	poldrack-single-stim	s617	0	False
95.979	1.0	97.365	0.9	3.088	True	89.0	Magnitude	n/a	twobytwo	89.0	0.486	orange	4.0	task_switch	magnitude	switch	stim	poldrack-single-stim	s617	0	False
99.177	1.0	99.933	0.1	2.0	True	71.0	Orange-Blue	n/a	twobytwo	71.0	0.656	blue	6.0	task_switch	color	switch	stim	poldrack-single-stim	s617	0	False
102.082	1.0	103.429	0.9	2.136	True	89.0	Orange-Blue	stay	twobytwo	89.0	0.447	orange	4.0	cue_stay	color	stay	stim	poldrack-single-stim	s617	0	False
105.124	1.0	106.585	0.9	2.136	True	71.0	High-Low	n/a	twobytwo	71.0	0.561	blue	8.0	task_switch	magnitude	switch	stim	poldrack-single-stim	s617	0	False
108.167	1.0	109.492	0.9	2.0	True	71.0	High-Low	stay	twobytwo	71.0	0.425	blue	8.0	cue_stay	magnitude	stay	stim	poldrack-single-stim	s617	0	False
111.071	1.0	112.425	0.9	2.272	True	71.0	Magnitude	switch	twobytwo	71.0	0.454	orange	8.0	cue_switch	magnitude	stay	stim	poldrack-single-stim	s617	0	False
114.252	1.0	115.956	0.9	2.0	True	89.0	Color	n/a	twobytwo	89.0	0.804	orange	2.0	task_switch	color	switch	stim	poldrack-single-stim	s617	0	False
117.16	1.0	118.853	0.9	2.136	False	89.0	Magnitude	n/a	twobytwo	71.0	0.793	blue	1.0	task_switch	magnitude	switch	stim	poldrack-single-stim	s617	0	False
119.399	1.0	120.359	0.1	2.136	True	89.0	Color	n/a	twobytwo	89.0	0.86	orange	9.0	task_switch	color	switch	stim	poldrack-single-stim	s617	0	False
122.443	1.0	123.882	0.9	2.544	True	71.0	Color	stay	twobytwo	71.0	0.539	blue	9.0	cue_stay	color	stay	stim	poldrack-single-stim	s617	0	False
125.093	1.0	126.206	0.1	2.0	True	89.0	Magnitude	n/a	twobytwo	89.0	1.013	orange	3.0	task_switch	magnitude	switch	stim	poldrack-single-stim	s617	0	False
127.197	1.0	127.947	0.1	2.136	True	71.0	Magnitude	stay	twobytwo	71.0	0.65	blue	7.0	cue_stay	magnitude	stay	stim	poldrack-single-stim	s617	0	False
129.437	1.0	130.357	0.1	2.136	True	71.0	Color	n/a	twobytwo	71.0	0.82	blue	4.0	task_switch	color	switch	stim	poldrack-single-stim	s617	0	False
132.478	1.0	134.06	0.9	2.136	True	71.0	Magnitude	n/a	twobytwo	71.0	0.682	blue	6.0	task_switch	magnitude	switch	stim	poldrack-single-stim	s617	0	False
134.723	1.0	135.935	0.1	2.0	True	89.0	Orange-Blue	n/a	twobytwo	89.0	1.112	orange	1.0	task_switch	color	switch	stim	poldrack-single-stim	s617	0	False
137.63	1.0	139.162	0.9	2.136	True	71.0	Magnitude	n/a	twobytwo	71.0	0.632	orange	9.0	task_switch	magnitude	switch	stim	poldrack-single-stim	s617	0	False
139.873	1.0	140.666	0.1	2.0	True	89.0	Magnitude	stay	twobytwo	89.0	0.693	blue	4.0	cue_stay	magnitude	stay	stim	poldrack-single-stim	s617	0	False
141.977	1.0	142.877	0.1	2.136	True	71.0	High-Low	switch	twobytwo	71.0	0.8	blue	6.0	cue_switch	magnitude	stay	stim	poldrack-single-stim	s617	0	False
144.223	1.0	144.998	0.1	2.816	True	89.0	Orange-Blue	n/a	twobytwo	89.0	0.675	orange	8.0	task_switch	color	switch	stim	poldrack-single-stim	s617	0	False
147.947	1.0	149.267	0.9	2.136	True	71.0	Orange-Blue	stay	twobytwo	71.0	0.42	blue	4.0	cue_stay	color	stay	stim	poldrack-single-stim	s617	0	False
150.193	1.0	151.13	0.1	2.0	True	89.0	Orange-Blue	stay	twobytwo	89.0	0.837	orange	4.0	cue_stay	color	stay	stim	poldrack-single-stim	s617	0	False
153.097	1.0	154.633	0.9	2.0	True	89.0	High-Low	n/a	twobytwo	89.0	0.636	blue	4.0	task_switch	magnitude	switch	stim	poldrack-single-stim	s617	0	False
155.207	1.0	156.052	0.1	2.272	True	89.0	High-Low	stay	twobytwo	89.0	0.745	orange	4.0	cue_stay	magnitude	stay	stim	poldrack-single-stim	s617	0	False
158.382	1.0	159.846	0.9	2.0	True	71.0	Orange-Blue	n/a	twobytwo	71.0	0.564	blue	9.0	task_switch	color	switch	stim	poldrack-single-stim	s617	0	False
161.291	1.0	162.739	0.9	2.0	True	89.0	High-Low	n/a	twobytwo	89.0	0.548	blue	2.0	task_switch	magnitude	switch	stim	poldrack-single-stim	s617	0	False
164.198	1.0	165.935	0.9	2.0	True	89.0	Color	n/a	twobytwo	89.0	0.837	orange	9.0	task_switch	color	switch	stim	poldrack-single-stim	s617	0	False
167.103	1.0	168.58	0.9	2.408	True	71.0	High-Low	n/a	twobytwo	71.0	0.577	blue	8.0	task_switch	magnitude	switch	stim	poldrack-single-stim	s617	0	False
169.614	1.0	170.4	0.1	2.272	True	89.0	High-Low	stay	twobytwo	89.0	0.686	orange	1.0	cue_stay	magnitude	stay	stim	poldrack-single-stim	s617	0	False
171.993	1.0	172.764	0.1	2.136	False	71.0	Orange-Blue	n/a	twobytwo	89.0	0.671	blue	3.0	task_switch	color	switch	stim	poldrack-single-stim	s617	0	False
174.237	1.0	175.097	0.1	2.0	True	89.0	Color	switch	twobytwo	89.0	0.76	orange	7.0	cue_switch	color	stay	stim	poldrack-single-stim	s617	0	False
177.149	1.0	178.668	0.9	2.0	True	89.0	High-Low	n/a	twobytwo	89.0	0.619	orange	4.0	task_switch	magnitude	switch	stim	poldrack-single-stim	s617	0	False
179.253	1.0	180.065	0.1	2.136	True	89.0	Color	n/a	twobytwo	89.0	0.712	orange	7.0	task_switch	color	switch	stim	poldrack-single-stim	s617	0	False
182.296	1.0	183.748	0.9	2.0	True	89.0	High-Low	n/a	twobytwo	89.0	0.552	blue	4.0	task_switch	magnitude	switch	stim	poldrack-single-stim	s617	0	False
184.402	1.0	185.398	0.1	2.136	True	71.0	Color	n/a	twobytwo	71.0	0.896	blue	9.0	task_switch	color	switch	stim	poldrack-single-stim	s617	0	False
186.643	1.0	187.415	0.1	2.408	True	89.0	Color	stay	twobytwo	89.0	0.672	orange	3.0	cue_stay	color	stay	stim	poldrack-single-stim	s617	0	False
189.157	1.0	189.926	0.1	2.136	True	71.0	High-Low	n/a	twobytwo	71.0	0.669	blue	6.0	task_switch	magnitude	switch	stim	poldrack-single-stim	s617	0	False
192.2	1.0	193.907	0.9	2.0	True	71.0	Color	n/a	twobytwo	71.0	0.807	blue	1.0	task_switch	color	switch	stim	poldrack-single-stim	s617	0	False
194.307	1.0	195.402	0.1	2.136	True	89.0	Magnitude	n/a	twobytwo	89.0	0.995	orange	2.0	task_switch	magnitude	switch	stim	poldrack-single-stim	s617	0	False
196.546	1.0	197.237	0.1	2.272	True	89.0	Magnitude	stay	twobytwo	89.0	0.591	orange	3.0	cue_stay	magnitude	stay	stim	poldrack-single-stim	s617	0	False
198.925	1.0	199.774	0.1	2.0	True	71.0	Color	n/a	twobytwo	71.0	0.749	blue	3.0	task_switch	color	switch	stim	poldrack-single-stim	s617	0	False
201.829	1.0	203.245	0.9	2.408	True	71.0	High-Low	n/a	twobytwo	71.0	0.516	blue	6.0	task_switch	magnitude	switch	stim	poldrack-single-stim	s617	0	False
205.144	1.0	206.752	0.9	2.0	True	71.0	Magnitude	switch	twobytwo	71.0	0.708	blue	8.0	cue_switch	magnitude	stay	stim	poldrack-single-stim	s617	0	False
207.251	1.0	208.143	0.1	2.136	True	71.0	Orange-Blue	n/a	twobytwo	71.0	0.792	blue	3.0	task_switch	color	switch	stim	poldrack-single-stim	s617	0	False
210.292	1.0	211.725	0.9	2.408	True	71.0	High-Low	n/a	twobytwo	71.0	0.533	orange	7.0	task_switch	magnitude	switch	stim	poldrack-single-stim	s617	0	False
213.606	1.0	214.965	0.9	2.136	True	89.0	Color	n/a	twobytwo	89.0	0.459	orange	6.0	task_switch	color	switch	stim	poldrack-single-stim	s617	0	False
216.651	1.0	218.156	0.9	2.408	True	89.0	Magnitude	n/a	twobytwo	89.0	0.605	orange	1.0	task_switch	magnitude	switch	stim	poldrack-single-stim	s617	0	False
219.962	1.0	221.428	0.9	2.136	True	71.0	Orange-Blue	n/a	twobytwo	71.0	0.566	blue	1.0	task_switch	color	switch	stim	poldrack-single-stim	s617	0	False
236.521	1.0	237.98	0.9	2.0	True	71.0	High-Low	n/a	twobytwo	71.0	0.559	blue	8.0	task_switch	magnitude	switch	stim	poldrack-single-stim	s617	1	False
239.427	1.0	240.852	0.9	2.272	True	71.0	High-Low	stay	twobytwo	71.0	0.525	blue	7.0	cue_stay	magnitude	stay	stim	poldrack-single-stim	s617	0	False
242.607	1.0	243.926	0.9	2.0	False	89.0	Magnitude	switch	twobytwo	71.0	0.419	blue	3.0	cue_switch	magnitude	stay	stim	poldrack-single-stim	s617	0	False
245.513	1.0	247.278	0.9	2.272	True	89.0	High-Low	switch	twobytwo	89.0	0.865	blue	4.0	cue_switch	magnitude	stay	stim	poldrack-single-stim	s617	0	False
247.888	1.0	248.595	0.1	2.272	True	89.0	Magnitude	switch	twobytwo	89.0	0.607	orange	4.0	cue_switch	magnitude	stay	stim	poldrack-single-stim	s617	0	False
250.263	1.0	251.156	0.1	2.952	True	89.0	Orange-Blue	n/a	twobytwo	89.0	0.793	orange	8.0	task_switch	color	switch	stim	poldrack-single-stim	s617	0	False
254.124	1.0	255.489	0.9	2.68	True	89.0	Orange-Blue	stay	twobytwo	89.0	0.465	orange	7.0	cue_stay	color	stay	stim	poldrack-single-stim	s617	0	False
257.707	1.0	259.188	0.9	2.136	True	71.0	High-Low	n/a	twobytwo	71.0	0.581	orange	9.0	task_switch	magnitude	switch	stim	poldrack-single-stim	s617	0	False
259.951	1.0	260.926	0.1	2.272	True	71.0	Magnitude	switch	twobytwo	71.0	0.875	orange	6.0	cue_switch	magnitude	stay	stim	poldrack-single-stim	s617	0	False
262.327	1.0	263.086	0.1	2.272	True	71.0	High-Low	switch	twobytwo	71.0	0.659	blue	8.0	cue_switch	magnitude	stay	stim	poldrack-single-stim	s617	0	False
264.705	1.0	265.576	0.1	2.136	True	89.0	High-Low	stay	twobytwo	89.0	0.771	orange	2.0	cue_stay	magnitude	stay	stim	poldrack-single-stim	s617	0	False
266.946	1.0	267.805	0.1	2.408	True	89.0	Color	n/a	twobytwo	89.0	0.759	orange	9.0	task_switch	color	switch	stim	poldrack-single-stim	s617	0	False
269.458	1.0	270.393	0.1	2.136	True	71.0	High-Low	n/a	twobytwo	71.0	0.835	blue	6.0	task_switch	magnitude	switch	stim	poldrack-single-stim	s617	0	False
271.704	1.0	272.427	0.1	2.136	True	71.0	Magnitude	switch	twobytwo	71.0	0.623	blue	6.0	cue_switch	magnitude	stay	stim	poldrack-single-stim	s617	0	False
273.946	1.0	274.938	0.1	2.0	True	71.0	Color	n/a	twobytwo	71.0	0.892	blue	3.0	task_switch	color	switch	stim	poldrack-single-stim	s617	0	False
276.852	1.0	278.19	0.9	2.0	True	89.0	Color	stay	twobytwo	89.0	0.438	orange	8.0	cue_stay	color	stay	stim	poldrack-single-stim	s617	0	False
278.96	1.0	279.738	0.1	2.0	True	71.0	High-Low	n/a	twobytwo	71.0	0.678	blue	8.0	task_switch	magnitude	switch	stim	poldrack-single-stim	s617	0	False
281.867	1.0	283.131	0.9	2.0	True	89.0	Color	n/a	twobytwo	89.0	0.364	orange	1.0	task_switch	color	switch	stim	poldrack-single-stim	s617	0	False
284.773	1.0	286.526	0.9	2.0	True	89.0	Magnitude	n/a	twobytwo	89.0	0.853	blue	4.0	task_switch	magnitude	switch	stim	poldrack-single-stim	s617	0	False
286.88	1.0	287.907	0.1	2.272	True	71.0	Color	n/a	twobytwo	71.0	0.927	blue	7.0	task_switch	color	switch	stim	poldrack-single-stim	s617	0	False
290.056	1.0	291.37	0.9	2.408	True	89.0	Color	stay	twobytwo	89.0	0.414	orange	9.0	cue_stay	color	stay	stim	poldrack-single-stim	s617	0	False
292.57	1.0	293.351	0.1	2.0	True	71.0	Color	stay	twobytwo	71.0	0.681	blue	3.0	cue_stay	color	stay	stim	poldrack-single-stim	s617	0	False
295.48	1.0	297.006	0.9	2.136	True	71.0	High-Low	n/a	twobytwo	71.0	0.626	blue	8.0	task_switch	magnitude	switch	stim	poldrack-single-stim	s617	0	False
298.522	1.0	300.159	0.9	2.0	True	89.0	Magnitude	switch	twobytwo	89.0	0.737	orange	3.0	cue_switch	magnitude	stay	stim	poldrack-single-stim	s617	0	False
301.427	1.0	303.133	0.9	2.136	True	71.0	Magnitude	stay	twobytwo	71.0	0.806	blue	6.0	cue_stay	magnitude	stay	stim	poldrack-single-stim	s617	0	False
303.669	1.0	304.427	0.1	2.544	True	89.0	Magnitude	stay	twobytwo	89.0	0.658	orange	4.0	cue_stay	magnitude	stay	stim	poldrack-single-stim	s617	0	False
307.118	1.0	308.516	0.9	2.68	True	71.0	Color	n/a	twobytwo	71.0	0.498	blue	4.0	task_switch	color	switch	stim	poldrack-single-stim	s617	0	False
310.705	1.0	312.108	0.9	3.088	True	89.0	High-Low	n/a	twobytwo	89.0	0.503	blue	1.0	task_switch	magnitude	switch	stim	poldrack-single-stim	s617	0	False
313.9	1.0	314.69	0.1	2.136	True	89.0	High-Low	stay	twobytwo	89.0	0.69	blue	2.0	cue_stay	magnitude	stay	stim	poldrack-single-stim	s617	0	False
316.945	1.0	318.387	0.9	2.544	True	71.0	High-Low	stay	twobytwo	71.0	0.542	blue	7.0	cue_stay	magnitude	stay	stim	poldrack-single-stim	s617	0	False
320.401	1.0	321.753	0.9	2.0	True	89.0	Orange-Blue	n/a	twobytwo	89.0	0.452	orange	8.0	task_switch	color	switch	stim	poldrack-single-stim	s617	0	False
323.305	1.0	324.596	0.9	2.136	True	89.0	Color	switch	twobytwo	89.0	0.391	orange	9.0	cue_switch	color	stay	stim	poldrack-single-stim	s617	0	False
325.548	1.0	326.34	0.1	2.0	True	71.0	Magnitude	n/a	twobytwo	71.0	0.692	blue	9.0	task_switch	magnitude	switch	stim	poldrack-single-stim	s617	0	False
328.456	1.0	329.847	0.9	2.408	True	89.0	Color	n/a	twobytwo	89.0	0.491	orange	4.0	task_switch	color	switch	stim	poldrack-single-stim	s617	0	False
330.967	1.0	332.067	0.1	2.0	True	71.0	Magnitude	n/a	twobytwo	71.0	1.0	blue	6.0	task_switch	magnitude	switch	stim	poldrack-single-stim	s617	0	False
333.875	1.0	335.269	0.9	2.0	True	89.0	Magnitude	stay	twobytwo	89.0	0.494	orange	4.0	cue_stay	magnitude	stay	stim	poldrack-single-stim	s617	0	False
336.786	1.0	338.212	0.9	2.0	True	71.0	Color	n/a	twobytwo	71.0	0.526	blue	8.0	task_switch	color	switch	stim	poldrack-single-stim	s617	0	False
339.69	1.0	341.078	0.9	2.68	True	71.0	Color	stay	twobytwo	71.0	0.488	blue	8.0	cue_stay	color	stay	stim	poldrack-single-stim	s617	0	False
343.276	1.0	344.618	0.9	2.272	True	89.0	Orange-Blue	switch	twobytwo	89.0	0.442	orange	8.0	cue_switch	color	stay	stim	poldrack-single-stim	s617	0	False
346.451	1.0	347.81	0.9	2.408	True	89.0	Magnitude	n/a	twobytwo	89.0	0.459	orange	2.0	task_switch	magnitude	switch	stim	poldrack-single-stim	s617	0	False
349.763	1.0	351.4	0.9	3.224	True	71.0	Orange-Blue	n/a	twobytwo	71.0	0.737	blue	1.0	task_switch	color	switch	stim	poldrack-single-stim	s617	0	False
353.093	1.0	353.973	0.1	2.408	False	71.0	High-Low	n/a	twobytwo	89.0	0.78	orange	9.0	task_switch	magnitude	switch	stim	poldrack-single-stim	s617	0	False
356.407	1.0	358.143	0.9	2.816	True	71.0	High-Low	stay	twobytwo	71.0	0.836	blue	9.0	cue_stay	magnitude	stay	stim	poldrack-single-stim	s617	0	False
359.329	1.0	360.842	0.1	2.408	True	89.0	Orange-Blue	n/a	twobytwo	89.0	1.413	orange	3.0	task_switch	color	switch	stim	poldrack-single-stim	s617	0	False
361.845	1.0	362.522	0.1	2.136	True	71.0	Orange-Blue	stay	twobytwo	71.0	0.577	blue	7.0	cue_stay	color	stay	stim	poldrack-single-stim	s617	0	False
364.09	1.0	365.099	0.1	2.136	True	89.0	High-Low	n/a	twobytwo	89.0	0.909	blue	4.0	task_switch	magnitude	switch	stim	poldrack-single-stim	s617	0	False
367.133	1.0	368.71	0.9	2.0	True	71.0	Color	n/a	twobytwo	71.0	0.677	blue	6.0	task_switch	color	switch	stim	poldrack-single-stim	s617	0	False
369.24	1.0	370.037	0.1	2.0	True	89.0	High-Low	n/a	twobytwo	89.0	0.697	orange	1.0	task_switch	magnitude	switch	stim	poldrack-single-stim	s617	0	False
372.146	1.0	373.437	0.9	2.272	True	89.0	Color	n/a	twobytwo	89.0	0.391	orange	9.0	task_switch	color	switch	stim	poldrack-single-stim	s617	0	False
374.522	1.0	375.208	0.1	2.408	True	71.0	Color	stay	twobytwo	71.0	0.586	blue	4.0	cue_stay	color	stay	stim	poldrack-single-stim	s617	0	False
377.037	1.0	377.758	0.1	2.0	True	71.0	Orange-Blue	switch	twobytwo	71.0	0.621	blue	6.0	cue_switch	color	stay	stim	poldrack-single-stim	s617	0	False
379.143	1.0	380.146	0.1	2.136	True	71.0	High-Low	n/a	twobytwo	71.0	0.903	orange	8.0	task_switch	magnitude	switch	stim	poldrack-single-stim	s617	0	False
382.185	1.0	383.883	0.9	2.0	False	89.0	High-Low	stay	twobytwo	71.0	0.798	blue	4.0	cue_stay	magnitude	stay	stim	poldrack-single-stim	s617	0	False
384.294	1.0	385.223	0.1	2.408	True	89.0	High-Low	stay	twobytwo	89.0	0.829	orange	4.0	cue_stay	magnitude	stay	stim	poldrack-single-stim	s617	0	False
387.608	1.0	389.012	0.9	2.272	True	71.0	Orange-Blue	n/a	twobytwo	71.0	0.504	blue	4.0	task_switch	color	switch	stim	poldrack-single-stim	s617	0	False
389.987	1.0	390.97	0.1	2.0	True	89.0	Orange-Blue	stay	twobytwo	89.0	0.883	orange	4.0	cue_stay	color	stay	stim	poldrack-single-stim	s617	0	False
392.893	1.0	394.478	0.9	2.272	True	71.0	High-Low	n/a	twobytwo	71.0	0.685	blue	9.0	task_switch	magnitude	switch	stim	poldrack-single-stim	s617	0	False
396.073	1.0	397.609	0.9	2.0	False	71.0	Color	n/a	twobytwo	89.0	0.636	blue	2.0	task_switch	color	switch	stim	poldrack-single-stim	s617	0	False
398.979	1.0	400.808	0.9	2.0	True	71.0	Magnitude	n/a	twobytwo	71.0	0.929	orange	9.0	task_switch	magnitude	switch	stim	poldrack-single-stim	s617	0	False
401.886	1.0	403.654	0.9	2.272	True	71.0	Orange-Blue	n/a	twobytwo	71.0	0.868	blue	8.0	task_switch	color	switch	stim	poldrack-single-stim	s617	0	False
404.262	1.0	405.386	0.1	2.136	True	89.0	Orange-Blue	stay	twobytwo	89.0	1.024	orange	1.0	cue_stay	color	stay	stim	poldrack-single-stim	s617	0	False
406.505	1.0	407.528	0.1	2.0	True	89.0	High-Low	n/a	twobytwo	89.0	0.923	blue	3.0	task_switch	magnitude	switch	stim	poldrack-single-stim	s617	0	False
408.612	1.0	409.556	0.1	2.0	True	71.0	Magnitude	switch	twobytwo	71.0	0.844	orange	7.0	cue_switch	magnitude	stay	stim	poldrack-single-stim	s617	0	False
411.518	1.0	413.021	0.9	2.0	True	89.0	Color	n/a	twobytwo	89.0	0.603	orange	4.0	task_switch	color	switch	stim	poldrack-single-stim	s617	0	False
413.625	1.0	414.749	0.1	2.0	True	71.0	Magnitude	n/a	twobytwo	71.0	1.024	orange	7.0	task_switch	magnitude	switch	stim	poldrack-single-stim	s617	0	False
416.532	1.0	417.975	0.9	2.0	True	71.0	Orange-Blue	n/a	twobytwo	71.0	0.543	blue	4.0	task_switch	color	switch	stim	poldrack-single-stim	s617	0	False
418.64	1.0	419.503	0.1	2.136	True	71.0	High-Low	n/a	twobytwo	71.0	0.763	blue	9.0	task_switch	magnitude	switch	stim	poldrack-single-stim	s617	0	False
420.884	1.0	421.726	0.1	2.0	True	89.0	High-Low	stay	twobytwo	89.0	0.742	orange	3.0	cue_stay	magnitude	stay	stim	poldrack-single-stim	s617	0	False
422.991	1.0	423.749	0.1	2.0	True	71.0	Orange-Blue	n/a	twobytwo	71.0	0.658	blue	6.0	task_switch	color	switch	stim	poldrack-single-stim	s617	0	False
425.9	1.0	427.331	0.9	2.136	True	89.0	Magnitude	n/a	twobytwo	89.0	0.531	blue	1.0	task_switch	magnitude	switch	stim	poldrack-single-stim	s617	0	False
428.143	1.0	429.199	0.1	2.0	True	89.0	Orange-Blue	n/a	twobytwo	89.0	0.956	orange	2.0	task_switch	color	switch	stim	poldrack-single-stim	s617	0	False
430.247	1.0	430.946	0.1	2.136	True	89.0	Orange-Blue	stay	twobytwo	89.0	0.599	orange	3.0	cue_stay	color	stay	stim	poldrack-single-stim	s617	0	False
432.487	1.0	433.299	0.1	2.68	True	89.0	High-Low	n/a	twobytwo	89.0	0.712	blue	3.0	task_switch	magnitude	switch	stim	poldrack-single-stim	s617	0	False
436.073	1.0	437.464	0.9	2.272	True	71.0	Color	n/a	twobytwo	71.0	0.491	blue	6.0	task_switch	color	switch	stim	poldrack-single-stim	s617	0	False
439.255	1.0	440.675	0.9	2.136	True	71.0	Orange-Blue	switch	twobytwo	71.0	0.52	blue	8.0	cue_switch	color	stay	stim	poldrack-single-stim	s617	0	False
441.498	1.0	442.486	0.1	2.0	True	89.0	Magnitude	n/a	twobytwo	89.0	0.888	blue	3.0	task_switch	magnitude	switch	stim	poldrack-single-stim	s617	0	False
444.408	1.0	446.442	0.9	2.136	True	89.0	Orange-Blue	n/a	twobytwo	89.0	1.134	orange	7.0	task_switch	color	switch	stim	poldrack-single-stim	s617	0	False
447.448	1.0	448.869	0.9	2.68	True	71.0	Magnitude	n/a	twobytwo	71.0	0.521	orange	6.0	task_switch	magnitude	switch	stim	poldrack-single-stim	s617	0	False
451.034	1.0	452.44	0.9	2.272	True	89.0	Color	n/a	twobytwo	89.0	0.506	orange	1.0	task_switch	color	switch	stim	poldrack-single-stim	s617	0	False
454.212	1.0	455.846	0.9	2.0	True	89.0	High-Low	n/a	twobytwo	89.0	0.734	blue	1.0	task_switch	magnitude	switch	stim	poldrack-single-stim	s617	0	False
470.64	1.0	472.098	0.9	2.0	True	71.0	Color	n/a	twobytwo	71.0	0.558	blue	8.0	task_switch	color	switch	stim	poldrack-single-stim	s617	1	False
473.544	1.0	474.992	0.9	2.136	True	71.0	Color	stay	twobytwo	71.0	0.548	blue	7.0	cue_stay	color	stay	stim	poldrack-single-stim	s617	0	False
476.586	1.0	478.308	0.9	2.0	True	71.0	Orange-Blue	switch	twobytwo	71.0	0.822	blue	3.0	cue_switch	color	stay	stim	poldrack-single-stim	s617	0	False
479.494	1.0	481.072	0.9	2.0	True	71.0	Color	switch	twobytwo	71.0	0.678	blue	4.0	cue_switch	color	stay	stim	poldrack-single-stim	s617	0	False
481.599	1.0	482.317	0.1	2.0	True	89.0	Orange-Blue	switch	twobytwo	89.0	0.618	orange	4.0	cue_switch	color	stay	stim	poldrack-single-stim	s617	0	False
483.707	1.0	484.64	0.1	2.272	True	71.0	High-Low	n/a	twobytwo	71.0	0.833	orange	8.0	task_switch	magnitude	switch	stim	poldrack-single-stim	s617	0	False
486.882	1.0	488.379	0.9	2.408	True	71.0	High-Low	stay	twobytwo	71.0	0.597	orange	7.0	cue_stay	magnitude	stay	stim	poldrack-single-stim	s617	0	False
490.198	1.0	491.46	0.9	2.0	True	89.0	Color	n/a	twobytwo	89.0	0.362	orange	9.0	task_switch	color	switch	stim	poldrack-single-stim	s617	0	False
492.306	1.0	493.246	0.1	2.0	True	89.0	Orange-Blue	switch	twobytwo	89.0	0.84	orange	6.0	cue_switch	color	stay	stim	poldrack-single-stim	s617	0	False
494.413	1.0	495.211	0.1	2.0	True	71.0	Color	switch	twobytwo	71.0	0.698	blue	8.0	cue_switch	color	stay	stim	poldrack-single-stim	s617	0	False
496.518	1.0	497.234	0.1	2.272	True	89.0	Color	stay	twobytwo	89.0	0.616	orange	2.0	cue_stay	color	stay	stim	poldrack-single-stim	s617	0	False
498.895	1.0	499.662	0.1	2.136	True	71.0	Magnitude	n/a	twobytwo	71.0	0.667	orange	9.0	task_switch	magnitude	switch	stim	poldrack-single-stim	s617	0	False
501.142	1.0	501.939	0.1	2.0	True	71.0	Orange-Blue	n/a	twobytwo	71.0	0.697	blue	6.0	task_switch	color	switch	stim	poldrack-single-stim	s617	0	False
503.249	1.0	504.21	0.1	2.544	True	71.0	Color	switch	twobytwo	71.0	0.861	blue	6.0	cue_switch	color	stay	stim	poldrack-single-stim	s617	0	False
505.9	1.0	506.742	0.1	2.272	True	89.0	High-Low	n/a	twobytwo	89.0	0.742	blue	3.0	task_switch	magnitude	switch	stim	poldrack-single-stim	s617	0	False
509.079	1.0	510.495	0.9	2.272	True	71.0	High-Low	stay	twobytwo	71.0	0.516	orange	8.0	cue_stay	magnitude	stay	stim	poldrack-single-stim	s617	0	False
511.457	1.0	512.256	0.1	2.0	True	71.0	Orange-Blue	n/a	twobytwo	71.0	0.699	blue	8.0	task_switch	color	switch	stim	poldrack-single-stim	s617	0	False
514.364	1.0	515.831	0.9	2.0	True	89.0	High-Low	n/a	twobytwo	89.0	0.567	orange	1.0	task_switch	magnitude	switch	stim	poldrack-single-stim	s617	0	False
517.269	1.0	518.783	0.9	2.136	True	71.0	Orange-Blue	n/a	twobytwo	71.0	0.614	blue	4.0	task_switch	color	switch	stim	poldrack-single-stim	s617	0	False
519.511	1.0	520.539	0.1	2.0	True	71.0	High-Low	n/a	twobytwo	71.0	0.928	blue	7.0	task_switch	magnitude	switch	stim	poldrack-single-stim	s617	0	False
522.417	1.0	523.846	0.9	2.136	True	71.0	High-Low	stay	twobytwo	71.0	0.529	orange	9.0	cue_stay	magnitude	stay	stim	poldrack-single-stim	s617	0	False
524.663	1.0	525.475	0.1	2.272	True	89.0	High-Low	stay	twobytwo	89.0	0.712	blue	3.0	cue_stay	magnitude	stay	stim	poldrack-single-stim	s617	0	False
527.84	1.0	529.345	0.9	2.136	True	71.0	Orange-Blue	n/a	twobytwo	71.0	0.605	blue	8.0	task_switch	color	switch	stim	poldrack-single-stim	s617	0	False
530.882	1.0	532.186	0.9	2.272	True	89.0	Color	switch	twobytwo	89.0	0.404	orange	3.0	cue_switch	color	stay	stim	poldrack-single-stim	s617	0	False
534.061	1.0	535.398	0.9	2.0	True	71.0	Color	stay	twobytwo	71.0	0.437	blue	6.0	cue_stay	color	stay	stim	poldrack-single-stim	s617	0	False
536.168	1.0	536.91	0.1	2.816	True	89.0	Color	stay	twobytwo	89.0	0.642	orange	4.0	cue_stay	color	stay	stim	poldrack-single-stim	s617	0	False
539.888	1.0	541.787	0.9	2.408	True	89.0	Magnitude	n/a	twobytwo	89.0	0.999	blue	4.0	task_switch	magnitude	switch	stim	poldrack-single-stim	s617	0	False
543.202	1.0	544.785	0.9	2.0	True	71.0	Orange-Blue	n/a	twobytwo	71.0	0.683	blue	1.0	task_switch	color	switch	stim	poldrack-single-stim	s617	0	False
545.309	1.0	546.298	0.1	2.544	True	71.0	Orange-Blue	stay	twobytwo	71.0	0.889	blue	2.0	cue_stay	color	stay	stim	poldrack-single-stim	s617	0	False
548.763	1.0	550.376	0.9	2.136	True	71.0	Orange-Blue	stay	twobytwo	71.0	0.713	blue	7.0	cue_stay	color	stay	stim	poldrack-single-stim	s617	0	False
551.805	1.0	553.325	0.9	2.0	True	71.0	Magnitude	n/a	twobytwo	71.0	0.62	orange	8.0	task_switch	magnitude	switch	stim	poldrack-single-stim	s617	0	False
554.712	1.0	556.135	0.9	2.0	True	71.0	High-Low	switch	twobytwo	71.0	0.523	orange	9.0	cue_switch	magnitude	stay	stim	poldrack-single-stim	s617	0	False
556.816	1.0	557.715	0.1	2.136	True	71.0	Orange-Blue	n/a	twobytwo	71.0	0.799	blue	9.0	task_switch	color	switch	stim	poldrack-single-stim	s617	0	False
559.856	1.0	561.349	0.9	2.136	True	89.0	High-Low	n/a	twobytwo	89.0	0.593	orange	4.0	task_switch	magnitude	switch	stim	poldrack-single-stim	s617	0	False
562.099	1.0	562.914	0.1	2.272	True	71.0	Color	n/a	twobytwo	71.0	0.715	blue	6.0	task_switch	color	switch	stim	poldrack-single-stim	s617	0	False
565.278	1.0	566.564	0.9	3.224	True	89.0	Color	stay	twobytwo	89.0	0.386	orange	4.0	cue_stay	color	stay	stim	poldrack-single-stim	s617	0	False
569.411	1.0	570.763	0.9	2.0	True	71.0	Magnitude	n/a	twobytwo	71.0	0.452	blue	8.0	task_switch	magnitude	switch	stim	poldrack-single-stim	s617	0	False
572.323	1.0	573.747	0.9	2.0	True	71.0	Magnitude	stay	twobytwo	71.0	0.524	blue	8.0	cue_stay	magnitude	stay	stim	poldrack-single-stim	s617	0	False
575.235	1.0	576.621	0.9	2.272	True	71.0	High-Low	switch	twobytwo	71.0	0.486	orange	8.0	cue_switch	magnitude	stay	stim	poldrack-single-stim	s617	0	False
578.412	1.0	579.978	0.9	2.136	True	89.0	Color	n/a	twobytwo	89.0	0.666	orange	2.0	task_switch	color	switch	stim	poldrack-single-stim	s617	0	False
581.451	1.0	583.165	0.9	2.0	True	89.0	Magnitude	n/a	twobytwo	89.0	0.814	blue	1.0	task_switch	magnitude	switch	stim	poldrack-single-stim	s617	0	False
583.561	1.0	584.378	0.1	2.0	True	89.0	Color	n/a	twobytwo	89.0	0.717	orange	9.0	task_switch	color	switch	stim	poldrack-single-stim	s617	0	False
586.466	1.0	587.853	0.9	2.0	True	71.0	Color	stay	twobytwo	71.0	0.487	blue	9.0	cue_stay	color	stay	stim	poldrack-single-stim	s617	0	False
588.572	1.0	589.432	0.1	2.68	True	89.0	High-Low	n/a	twobytwo	89.0	0.76	orange	3.0	task_switch	magnitude	switch	stim	poldrack-single-stim	s617	0	False
591.359	1.0	592.142	0.1	2.0	True	71.0	High-Low	stay	twobytwo	71.0	0.683	blue	7.0	cue_stay	magnitude	stay	stim	poldrack-single-stim	s617	0	False
593.465	1.0	594.3	0.1	2.272	True	71.0	Orange-Blue	n/a	twobytwo	71.0	0.735	blue	4.0	task_switch	color	switch	stim	poldrack-single-stim	s617	0	False
596.644	1.0	598.053	0.9	2.0	True	71.0	High-Low	n/a	twobytwo	71.0	0.509	blue	6.0	task_switch	magnitude	switch	stim	poldrack-single-stim	s617	0	False
598.751	1.0	599.409	0.1	2.272	True	89.0	Color	n/a	twobytwo	89.0	0.558	orange	1.0	task_switch	color	switch	stim	poldrack-single-stim	s617	0	False
601.927	1.0	603.261	0.9	2.952	True	71.0	Magnitude	n/a	twobytwo	71.0	0.434	orange	9.0	task_switch	magnitude	switch	stim	poldrack-single-stim	s617	0	False
604.991	1.0	605.765	0.1	2.0	True	89.0	Magnitude	stay	twobytwo	89.0	0.674	blue	4.0	cue_stay	magnitude	stay	stim	poldrack-single-stim	s617	0	False
607.097	1.0	607.902	0.1	2.0	True	71.0	High-Low	switch	twobytwo	71.0	0.705	blue	6.0	cue_switch	magnitude	stay	stim	poldrack-single-stim	s617	0	False
609.204	1.0	610.14	0.1	2.0	True	89.0	Orange-Blue	n/a	twobytwo	89.0	0.836	orange	8.0	task_switch	color	switch	stim	poldrack-single-stim	s617	0	False
612.117	1.0	613.552	0.9	2.0	True	71.0	Orange-Blue	stay	twobytwo	71.0	0.535	blue	4.0	cue_stay	color	stay	stim	poldrack-single-stim	s617	0	False
614.226	1.0	614.948	0.1	2.136	True	89.0	Orange-Blue	stay	twobytwo	89.0	0.622	orange	4.0	cue_stay	color	stay	stim	poldrack-single-stim	s617	0	False
617.268	1.0	618.711	0.9	2.0	True	89.0	High-Low	n/a	twobytwo	89.0	0.543	blue	4.0	task_switch	magnitude	switch	stim	poldrack-single-stim	s617	0	False
619.375	1.0	620.04	0.1	2.0	True	89.0	High-Low	stay	twobytwo	89.0	0.565	orange	4.0	cue_stay	magnitude	stay	stim	poldrack-single-stim	s617	0	False
622.283	1.0	623.819	0.9	2.0	True	71.0	Orange-Blue	n/a	twobytwo	71.0	0.636	blue	9.0	task_switch	color	switch	stim	poldrack-single-stim	s617	0	False
625.189	1.0	626.57	0.9	2.272	True	89.0	High-Low	n/a	twobytwo	89.0	0.481	blue	2.0	task_switch	magnitude	switch	stim	poldrack-single-stim	s617	0	False
628.365	1.0	629.938	0.9	2.136	True	89.0	Color	n/a	twobytwo	89.0	0.673	orange	9.0	task_switch	color	switch	stim	poldrack-single-stim	s617	0	False
631.407	1.0	632.766	0.9	2.0	True	71.0	Magnitude	n/a	twobytwo	71.0	0.459	blue	8.0	task_switch	magnitude	switch	stim	poldrack-single-stim	s617	0	False
633.516	1.0	634.245	0.1	2.136	True	89.0	Magnitude	stay	twobytwo	89.0	0.629	orange	1.0	cue_stay	magnitude	stay	stim	poldrack-single-stim	s617	0	False
635.759	1.0	636.727	0.1	2.816	True	71.0	Color	n/a	twobytwo	71.0	0.868	blue	3.0	task_switch	color	switch	stim	poldrack-single-stim	s617	0	False
638.68	1.0	639.475	0.1	2.408	True	89.0	Orange-Blue	switch	twobytwo	89.0	0.695	orange	7.0	cue_switch	color	stay	stim	poldrack-single-stim	s617	0	False
641.991	1.0	643.387	0.9	2.0	True	89.0	High-Low	n/a	twobytwo	89.0	0.496	orange	4.0	task_switch	magnitude	switch	stim	poldrack-single-stim	s617	0	False
644.099	1.0	644.838	0.1	2.136	True	89.0	Color	n/a	twobytwo	89.0	0.639	orange	7.0	task_switch	color	switch	stim	poldrack-single-stim	s617	0	False
647.139	1.0	648.642	0.9	2.136	True	89.0	Magnitude	n/a	twobytwo	89.0	0.603	blue	4.0	task_switch	magnitude	switch	stim	poldrack-single-stim	s617	0	False
649.378	1.0	650.139	0.1	2.136	True	71.0	Orange-Blue	n/a	twobytwo	71.0	0.661	blue	9.0	task_switch	color	switch	stim	poldrack-single-stim	s617	0	False
651.617	1.0	652.362	0.1	2.544	True	89.0	Orange-Blue	stay	twobytwo	89.0	0.645	orange	3.0	cue_stay	color	stay	stim	poldrack-single-stim	s617	0	False
654.269	1.0	655.034	0.1	2.136	True	71.0	High-Low	n/a	twobytwo	71.0	0.665	blue	6.0	task_switch	magnitude	switch	stim	poldrack-single-stim	s617	0	False
657.31	1.0	658.757	0.9	2.0	False	71.0	Orange-Blue	n/a	twobytwo	89.0	0.547	blue	1.0	task_switch	color	switch	stim	poldrack-single-stim	s617	0	False
659.419	1.0	660.399	0.1	2.0	True	89.0	Magnitude	n/a	twobytwo	89.0	0.88	orange	2.0	task_switch	magnitude	switch	stim	poldrack-single-stim	s617	0	False
661.526	1.0	662.458	0.1	2.0	True	89.0	Magnitude	stay	twobytwo	89.0	0.832	orange	3.0	cue_stay	magnitude	stay	stim	poldrack-single-stim	s617	0	False
663.633	1.0	664.419	0.1	2.0	True	71.0	Color	n/a	twobytwo	71.0	0.686	blue	3.0	task_switch	color	switch	stim	poldrack-single-stim	s617	0	False
666.537	1.0	667.951	0.9	2.136	True	71.0	Magnitude	n/a	twobytwo	71.0	0.514	blue	6.0	task_switch	magnitude	switch	stim	poldrack-single-stim	s617	0	False
669.58	1.0	671.005	0.9	2.0	True	71.0	High-Low	switch	twobytwo	71.0	0.525	blue	8.0	cue_switch	magnitude	stay	stim	poldrack-single-stim	s617	0	False
671.687	1.0	672.89	0.1	2.0	True	71.0	Color	n/a	twobytwo	71.0	1.103	blue	3.0	task_switch	color	switch	stim	poldrack-single-stim	s617	0	False
674.593	1.0	676.018	0.9	2.0	True	71.0	Magnitude	n/a	twobytwo	71.0	0.525	orange	7.0	task_switch	magnitude	switch	stim	poldrack-single-stim	s617	0	False
677.497	1.0	679.2	0.9	2.136	True	89.0	Orange-Blue	n/a	twobytwo	89.0	0.803	orange	6.0	task_switch	color	switch	stim	poldrack-single-stim	s617	0	False
680.542	1.0	682.189	0.9	2.136	True	89.0	Magnitude	n/a	twobytwo	89.0	0.747	orange	1.0	task_switch	magnitude	switch	stim	poldrack-single-stim	s617	0	False
683.586	1.0	685.46	0.9	2.136	True	71.0	Orange-Blue	n/a	twobytwo	71.0	0.974	blue	1.0	task_switch	color	switch	stim	poldrack-single-stim	s617	0	False
