onset	duration	movement_onset	EV	action	block_duration	experiment_exp_id	gain_amount	gain_probability	key_press	loss_amount	loss_probability	num_cards	num_click_in_round	num_loss_cards	risk	response_time	total_cards	trial_id	trial_type	worker_id	junk	feedback
3.009	3.23	6.239	-1.1324193072472888	draw_card	3.23	columbia_card_task_fmri	12.0	0.8333333333333334	89.0	-70.0	0.1666666666666666	6.0	1.0	1.0	-2.0679465036827764	3.23	n/a	stim	poldrack-single-stim	s617	False	1
6.243	1.829	8.072	-3.865752640580621	draw_card	1.829	columbia_card_task_fmri	12.0	0.8	89.0	-70.0	0.2	6.0	2.0	1.0	0.1721388947784419	1.829	2.0	stim	poldrack-single-stim	s617	False	0
8.829	1.5	8.078	n/a	-1.0	2.25	columbia_card_task_fmri	n/a	n/a	-1.0	n/a	n/a	n/a	n/a	n/a	n/a	n/a	n/a	ITI	poldrack-single-stim	s617	False	0
10.332	1.597	11.929	-0.2990859739139548	draw_card	1.597	columbia_card_task_fmri	14.0	0.8333333333333334	89.0	-75.0	0.1666666666666666	6.0	1.0	1.0	0.5404322526344245	1.597	1.0	stim	poldrack-single-stim	s617	False	0
12.681	1.5	11.93	n/a	-1.0	2.386	columbia_card_task_fmri	n/a	n/a	-1.0	n/a	n/a	n/a	n/a	n/a	n/a	n/a	n/a	ITI	poldrack-single-stim	s617	False	0
14.318	1.961	16.279	1.3675806927527112	draw_card	1.961	columbia_card_task_fmri	15.0	0.8333333333333334	89.0	-70.0	0.1666666666666666	6.0	1.0	1.0	-0.9500772983233254	1.961	n/a	stim	poldrack-single-stim	s617	False	1
16.28	1.83	18.11	-1.4657526405806227	draw_card	1.83	columbia_card_task_fmri	15.0	0.8	89.0	-70.0	0.2	6.0	2.0	1.0	1.3719853624387213	1.83	2.0	stim	poldrack-single-stim	s617	False	0
18.863	1.5	18.112	n/a	-1.0	2.59	columbia_card_task_fmri	n/a	n/a	-1.0	n/a	n/a	n/a	n/a	n/a	n/a	n/a	n/a	ITI	poldrack-single-stim	s617	False	0
20.705	1.233	21.938	2.2009140260860454	draw_card	1.233	columbia_card_task_fmri	17.0	0.8333333333333334	89.0	-75.0	0.1666666666666666	6.0	1.0	1.0	1.6583259656109206	1.233	n/a	stim	poldrack-single-stim	s617	False	1
21.94	0.733	22.673	-0.8657526405806213	end_round	0.733	columbia_card_task_fmri	17.0	0.8	71.0	-75.0	0.2	6.0	2.0	1.0	4.171666053101269	0.733	1.0	stim	poldrack-single-stim	s617	False	1
23.429	1.5	22.678	n/a	-1.0	2.658	columbia_card_task_fmri	n/a	n/a	-1.0	n/a	n/a	n/a	n/a	n/a	n/a	n/a	n/a	ITI	poldrack-single-stim	s617	False	0
25.339	1.657	26.996	3.534247359419377	draw_card	1.657	columbia_card_task_fmri	24.0	0.75	89.0	-60.0	0.25	8.0	1.0	2.0	3.744778523149293	1.657	1.0	stim	poldrack-single-stim	s617	False	0
27.749	1.5	26.998	n/a	-1.0	2.386	columbia_card_task_fmri	n/a	n/a	-1.0	n/a	n/a	n/a	n/a	n/a	n/a	n/a	n/a	ITI	poldrack-single-stim	s617	False	0
29.387	1.796	31.183	3.534247359419377	draw_card	1.796	columbia_card_task_fmri	29.0	0.75	89.0	-75.0	0.25	8.0	1.0	2.0	12.4042781397848	1.796	n/a	stim	poldrack-single-stim	s617	False	1
31.186	2.258	33.444	-0.1800383548663344	draw_card	2.258	columbia_card_task_fmri	29.0	0.7142857142857143	89.0	-75.0	0.2857142857142857	8.0	2.0	2.0	14.353236640184498	2.258	n/a	stim	poldrack-single-stim	s617	False	1
33.446	1.788	35.234	-5.132419307247287	end_round	1.788	columbia_card_task_fmri	29.0	0.6666666666666667	71.0	-75.0	0.3333333333333333	8.0	3.0	2.0	16.39676924357223	1.788	2.0	stim	poldrack-single-stim	s617	False	1
35.99	1.5	35.239	n/a	-1.0	2.386	columbia_card_task_fmri	n/a	n/a	-1.0	n/a	n/a	n/a	n/a	n/a	n/a	n/a	n/a	ITI	poldrack-single-stim	s617	False	0
37.627	2.517	40.144	-0.6879748628028424	draw_card	2.517	columbia_card_task_fmri	17.0	0.7777777777777778	89.0	-65.0	0.2222222222222222	9.0	1.0	2.0	1.462630393211029	2.517	n/a	stim	poldrack-single-stim	s617	False	1
40.146	0.974	41.12	-2.9657526405806225	draw_card	0.974	columbia_card_task_fmri	17.0	0.75	89.0	-65.0	0.25	9.0	2.0	2.0	2.878848798888278	0.974	n/a	stim	poldrack-single-stim	s617	False	1
41.123	1.207	42.33	-5.8943240691520495	draw_card	1.207	columbia_card_task_fmri	17.0	0.7142857142857143	89.0	-65.0	0.2857142857142857	9.0	3.0	2.0	4.415464551113821	1.207	n/a	stim	poldrack-single-stim	s617	False	1
42.332	3.317	45.649	-9.799085973913954	draw_card	3.317	columbia_card_task_fmri	17.0	0.6666666666666667	89.0	-65.0	0.3333333333333333	9.0	4.0	2.0	6.026650670194215	3.317	n/a	stim	poldrack-single-stim	s617	False	1
45.651	1.333	46.984	-15.265752640580624	end_round	1.333	columbia_card_task_fmri	17.0	0.6	71.0	-65.0	0.4	9.0	5.0	2.0	7.542972399506901	1.333	4.0	stim	poldrack-single-stim	s617	False	1
47.737	1.5	46.986	n/a	-1.0	2.25	columbia_card_task_fmri	n/a	n/a	-1.0	n/a	n/a	n/a	n/a	n/a	n/a	n/a	n/a	ITI	poldrack-single-stim	s617	False	0
49.238	1.875	51.113	3.634247359419377	draw_card	1.875	columbia_card_task_fmri	14.0	0.9	89.0	-95.0	0.1	10.0	1.0	1.0	0.0721521976840335	1.875	n/a	stim	poldrack-single-stim	s617	False	1
51.116	1.514	52.63	2.423136248308265	draw_card	1.514	columbia_card_task_fmri	14.0	0.8888888888888888	89.0	-95.0	0.1111111111111111	10.0	2.0	1.0	1.627349251779954	1.514	2.0	stim	poldrack-single-stim	s617	False	0
53.386	1.5	52.635	n/a	-1.0	2.318	columbia_card_task_fmri	n/a	n/a	-1.0	n/a	n/a	n/a	n/a	n/a	n/a	n/a	n/a	ITI	poldrack-single-stim	s617	False	0
54.955	1.414	56.369	-0.4657526405806227	draw_card	1.414	columbia_card_task_fmri	15.0	0.8	89.0	-65.0	0.2	10.0	1.0	2.0	-0.6277523544474874	1.414	1.0	stim	poldrack-single-stim	s617	False	0
57.124	1.5	56.373	n/a	-1.0	2.25	columbia_card_task_fmri	n/a	n/a	-1.0	n/a	n/a	n/a	n/a	n/a	n/a	n/a	n/a	ITI	poldrack-single-stim	s617	False	0
58.627	2.269	60.896	1.1342473594193787	draw_card	2.269	columbia_card_task_fmri	17.0	0.8	89.0	-65.0	0.2	10.0	1.0	2.0	0.1721388947784419	2.269	n/a	stim	poldrack-single-stim	s617	False	1
60.898	1.219	62.117	-0.6879748628028424	draw_card	1.219	columbia_card_task_fmri	17.0	0.7777777777777778	89.0	-65.0	0.2222222222222222	10.0	2.0	2.0	1.462630393211029	1.219	n/a	stim	poldrack-single-stim	s617	False	1
62.119	1.689	63.808	-2.9657526405806225	end_round	1.689	columbia_card_task_fmri	17.0	0.75	71.0	-65.0	0.25	10.0	3.0	2.0	2.878848798888278	1.689	2.0	stim	poldrack-single-stim	s617	False	1
64.564	1.5	63.813	n/a	-1.0	2.25	columbia_card_task_fmri	n/a	n/a	-1.0	n/a	n/a	n/a	n/a	n/a	n/a	n/a	n/a	ITI	poldrack-single-stim	s617	False	0
66.067	1.649	67.716	-0.2990859739139548	draw_card	1.649	columbia_card_task_fmri	13.0	0.8333333333333334	89.0	-70.0	0.1666666666666666	12.0	1.0	2.0	-1.6953247584960778	1.649	1.0	stim	poldrack-single-stim	s617	False	0
68.469	1.5	67.718	n/a	-1.0	2.386	columbia_card_task_fmri	n/a	n/a	-1.0	n/a	n/a	n/a	n/a	n/a	n/a	n/a	n/a	ITI	poldrack-single-stim	s617	False	0
70.108	1.743	71.851	-0.2990859739139548	draw_card	1.743	columbia_card_task_fmri	15.0	0.8333333333333334	89.0	-80.0	0.1666666666666666	12.0	1.0	2.0	2.7762285365468244	1.743	n/a	stim	poldrack-single-stim	s617	False	1
71.854	1.06	72.914	-1.738479913307898	draw_card	1.06	columbia_card_task_fmri	15.0	0.8181818181818181	89.0	-80.0	0.1818181818181818	12.0	2.0	2.0	4.012670632290607	1.06	n/a	stim	poldrack-single-stim	s617	False	1
72.916	1.833	74.749	-3.4657526405806225	draw_card	1.833	columbia_card_task_fmri	15.0	0.8	89.0	-80.0	0.2	12.0	3.0	2.0	5.371543608932903	1.833	n/a	stim	poldrack-single-stim	s617	False	1
74.751	2.528	77.279	-5.576863751691735	draw_card	2.528	columbia_card_task_fmri	15.0	0.7777777777777778	89.0	-80.0	0.2222222222222222	12.0	4.0	2.0	6.8666738625887405	2.528	n/a	stim	poldrack-single-stim	s617	False	1
77.281	1.094	78.375	-8.215752640580623	end_round	1.094	columbia_card_task_fmri	15.0	0.75	71.0	-80.0	0.25	12.0	5.0	2.0	8.507464008028734	1.094	4.0	stim	poldrack-single-stim	s617	False	1
79.127	1.5	78.376	n/a	-1.0	2.386	columbia_card_task_fmri	n/a	n/a	-1.0	n/a	n/a	n/a	n/a	n/a	n/a	n/a	n/a	ITI	poldrack-single-stim	s617	False	0
80.764	2.53	83.294	-1.2657526405806216	draw_card	2.53	columbia_card_task_fmri	14.0	0.8	89.0	-65.0	0.2	15.0	1.0	3.0	-1.0276959146076443	2.53	n/a	stim	poldrack-single-stim	s617	False	1
83.296	1.77	85.066	-2.394324069152049	draw_card	1.77	columbia_card_task_fmri	14.0	0.7857142857142857	89.0	-65.0	0.2142857142857142	15.0	2.0	3.0	-0.2120631775621646	1.77	2.0	stim	poldrack-single-stim	s617	False	0
85.822	1.5	85.071	n/a	-1.0	2.726	columbia_card_task_fmri	n/a	n/a	-1.0	n/a	n/a	n/a	n/a	n/a	n/a	n/a	n/a	ITI	poldrack-single-stim	s617	False	0
87.801	3.815	91.616	-1.3407526405806227	end_round	3.815	columbia_card_task_fmri	1.0	0.9375	71.0	-45.0	0.0625	16.0	1.0	1.0	-21.4845754276395	3.815	0.0	stim	poldrack-single-stim	s617	False	1
92.371	1.5	91.62	n/a	-1.0	2.454	columbia_card_task_fmri	n/a	n/a	-1.0	n/a	n/a	n/a	n/a	n/a	n/a	n/a	n/a	ITI	poldrack-single-stim	s617	False	0
94.077	1.464	95.541	-0.4032526405806227	draw_card	1.464	columbia_card_task_fmri	15.0	0.8125	89.0	-70.0	0.1875	16.0	1.0	3.0	0.5486413883217338	1.464	n/a	stim	poldrack-single-stim	s617	False	1
95.543	1.986	97.529	-1.4657526405806227	draw_card	1.986	columbia_card_task_fmri	15.0	0.8	89.0	-70.0	0.2	16.0	2.0	3.0	1.3719853624387213	1.986	2.0	stim	poldrack-single-stim	s617	False	0
98.283	1.5	97.532	n/a	-1.0	2.318	columbia_card_task_fmri	n/a	n/a	-1.0	n/a	n/a	n/a	n/a	n/a	n/a	n/a	n/a	ITI	poldrack-single-stim	s617	False	0
99.854	1.947	101.801	6.5342473594193775	draw_card	1.947	columbia_card_task_fmri	30.0	0.7	89.0	-50.0	0.3	10.0	1.0	3.0	4.032286355680199	1.947	n/a	stim	poldrack-single-stim	s617	False	1
101.803	1.884	103.687	3.8675806927527168	draw_card	1.884	columbia_card_task_fmri	30.0	0.6666666666666667	89.0	-50.0	0.3333333333333333	10.0	2.0	3.0	5.083933911973617	1.884	n/a	stim	poldrack-single-stim	s617	False	1
103.69	1.003	104.693	0.5342473594193773	end_round	1.003	columbia_card_task_fmri	30.0	0.625	71.0	-50.0	0.375	10.0	3.0	3.0	6.10130631128024	1.003	2.0	stim	poldrack-single-stim	s617	False	1
105.446	1.5	104.695	n/a	-1.0	2.318	columbia_card_task_fmri	n/a	n/a	-1.0	n/a	n/a	n/a	n/a	n/a	n/a	n/a	n/a	ITI	poldrack-single-stim	s617	False	0
107.017	1.638	108.655	5.934247359419378	draw_card	1.638	columbia_card_task_fmri	17.0	0.8666666666666667	89.0	-70.0	0.1333333333333333	15.0	1.0	2.0	-3.053073474371008	1.638	n/a	stim	poldrack-single-stim	s617	False	1
108.658	0.92	109.578	5.105675930847951	draw_card	0.92	columbia_card_task_fmri	17.0	0.8571428571428572	89.0	-70.0	0.1428571428571428	15.0	2.0	2.0	-2.1838661843460407	0.92	n/a	stim	poldrack-single-stim	s617	False	1
109.581	1.935	111.516	4.1496319748039925	draw_card	1.935	columbia_card_task_fmri	17.0	0.8461538461538461	89.0	-70.0	0.1538461538461538	15.0	3.0	2.0	-1.2379601957630155	1.935	n/a	stim	poldrack-single-stim	s617	False	1
111.518	1.034	112.552	3.0342473594193797	end_round	1.034	columbia_card_task_fmri	17.0	0.8333333333333334	71.0	-70.0	0.1666666666666666	15.0	4.0	2.0	-0.2048248491986655	1.034	3.0	stim	poldrack-single-stim	s617	False	1
113.309	1.5	112.558	n/a	-1.0	2.59	columbia_card_task_fmri	n/a	n/a	-1.0	n/a	n/a	n/a	n/a	n/a	n/a	n/a	n/a	ITI	poldrack-single-stim	s617	False	0
115.151	3.37	118.521	1.1592473594193773	draw_card	3.37	columbia_card_task_fmri	7.0	0.9375	89.0	-95.0	0.0625	16.0	1.0	1.0	-7.936163564465776	3.37	n/a	stim	poldrack-single-stim	s617	False	1
118.525	0.77	119.295	0.7342473594193775	draw_card	0.77	columbia_card_task_fmri	7.0	0.9333333333333332	89.0	-95.0	0.0666666666666666	16.0	2.0	1.0	-7.18333316950412	0.77	n/a	stim	poldrack-single-stim	s617	False	1
119.297	1.363	120.66	0.2485330737050917	draw_card	1.363	columbia_card_task_fmri	7.0	0.9285714285714286	89.0	-95.0	0.0714285714285714	16.0	3.0	1.0	-6.357763220689339	1.363	n/a	stim	poldrack-single-stim	s617	False	1
120.661	0.747	121.408	-0.3119064867344694	draw_card	0.747	columbia_card_task_fmri	7.0	0.9230769230769232	89.0	-95.0	0.0769230769230769	16.0	4.0	1.0	-5.447087450355749	0.747	n/a	stim	poldrack-single-stim	s617	False	1
121.411	1.642	123.053	-0.9657526405806228	draw_card	1.642	columbia_card_task_fmri	7.0	0.9166666666666666	89.0	-95.0	0.0833333333333333	16.0	5.0	1.0	-4.43583926900024	1.642	n/a	stim	poldrack-single-stim	s617	False	1
123.055	1.004	124.059	-1.738479913307896	draw_card	1.004	columbia_card_task_fmri	7.0	0.9090909090909092	89.0	-95.0	0.0909090909090909	16.0	6.0	1.0	-3.3044069929944264	1.004	n/a	stim	poldrack-single-stim	s617	False	1
124.062	1.744	125.806	-2.6657526405806227	draw_card	1.744	columbia_card_task_fmri	7.0	0.9	89.0	-95.0	0.1	16.0	7.0	1.0	-2.0275483609091403	1.744	n/a	stim	poldrack-single-stim	s617	False	1
125.808	2.018	127.826	-3.799085973913957	end_round	2.018	columbia_card_task_fmri	7.0	0.8888888888888888	71.0	-95.0	0.1111111111111111	16.0	8.0	1.0	-0.5722526614610643	2.018	7.0	stim	poldrack-single-stim	s617	False	1
128.581	1.5	127.83	n/a	-1.0	2.726	columbia_card_task_fmri	n/a	n/a	-1.0	n/a	n/a	n/a	n/a	n/a	n/a	n/a	n/a	ITI	poldrack-single-stim	s617	False	0
130.56	2.553	133.113	2.721747359419377	draw_card	2.553	columbia_card_task_fmri	9.0	0.9375	89.0	-100.0	0.0625	16.0	1.0	1.0	-6.242104422005472	2.553	n/a	stim	poldrack-single-stim	s617	False	1
133.116	1.104	134.22	2.267580692752711	draw_card	1.104	columbia_card_task_fmri	9.0	0.9333333333333332	89.0	-100.0	0.0666666666666666	16.0	2.0	1.0	-5.437586485447483	1.104	n/a	stim	poldrack-single-stim	s617	False	1
134.223	1.49	135.713	1.7485330737050926	draw_card	1.49	columbia_card_task_fmri	9.0	0.9285714285714286	89.0	-100.0	0.0714285714285714	16.0	3.0	1.0	-4.555336366728174	1.49	n/a	stim	poldrack-single-stim	s617	False	1
135.716	1.661	137.377	1.1496319748039932	draw_card	1.661	columbia_card_task_fmri	9.0	0.9230769230769232	89.0	-100.0	0.0769230769230769	16.0	4.0	1.0	-3.582139066991964	1.661	n/a	stim	poldrack-single-stim	s617	False	1
137.38	0.934	138.314	0.4509140260860451	draw_card	0.934	columbia_card_task_fmri	9.0	0.9166666666666666	89.0	-100.0	0.0833333333333333	16.0	5.0	1.0	-2.501466488154517	0.934	n/a	stim	poldrack-single-stim	s617	False	1
138.316	1.281	139.597	-0.3748435496715327	draw_card	1.281	columbia_card_task_fmri	9.0	0.9090909090909092	89.0	-100.0	0.0909090909090909	16.0	6.0	1.0	-1.2923609585890148	1.281	n/a	stim	poldrack-single-stim	s617	False	1
139.6	1.395	140.995	-1.365752640580623	draw_card	1.395	columbia_card_task_fmri	9.0	0.9	89.0	-100.0	0.1	16.0	7.0	1.0	0.0721521976840335	1.395	n/a	stim	poldrack-single-stim	s617	False	1
140.998	1.206	142.204	-2.576863751691733	draw_card	1.206	columbia_card_task_fmri	9.0	0.8888888888888888	89.0	-100.0	0.1111111111111111	16.0	8.0	1.0	1.627349251779954	1.206	n/a	stim	poldrack-single-stim	s617	False	1
142.206	1.082	143.288	-4.090752640580623	draw_card	1.082	columbia_card_task_fmri	9.0	0.875	89.0	-100.0	0.125	16.0	9.0	1.0	3.42010851268288	1.082	n/a	stim	poldrack-single-stim	s617	False	1
143.29	1.182	144.472	-6.037181212009192	end_round	1.182	columbia_card_task_fmri	9.0	0.8571428571428572	71.0	-100.0	0.1428571428571428	16.0	10.0	1.0	5.513584190267075	1.182	9.0	stim	poldrack-single-stim	s617	False	1
145.228	1.5	144.477	n/a	-1.0	2.522	columbia_card_task_fmri	n/a	n/a	-1.0	n/a	n/a	n/a	n/a	n/a	n/a	n/a	n/a	ITI	poldrack-single-stim	s617	False	0
147.002	1.949	148.951	3.6592473594193775	draw_card	1.949	columbia_card_task_fmri	15.0	0.875	89.0	-80.0	0.125	16.0	1.0	2.0	-1.2093729828848652	1.949	n/a	stim	poldrack-single-stim	s617	False	1
148.953	1.74	150.693	2.8675806927527114	draw_card	1.74	columbia_card_task_fmri	15.0	0.8666666666666667	89.0	-80.0	0.1333333333333333	16.0	2.0	2.0	-0.3340026649861016	1.74	2.0	stim	poldrack-single-stim	s617	False	0
151.448	1.5	150.697	n/a	-1.0	3.134	columbia_card_task_fmri	n/a	n/a	-1.0	n/a	n/a	n/a	n/a	n/a	n/a	n/a	n/a	ITI	poldrack-single-stim	s617	False	0
153.835	1.417	155.252	5.7842473594193775	draw_card	1.417	columbia_card_task_fmri	16.0	0.875	89.0	-70.0	0.125	16.0	1.0	2.0	-4.185367969102305	1.417	n/a	stim	poldrack-single-stim	s617	False	1
155.254	0.748	156.002	5.067580692752711	draw_card	0.748	columbia_card_task_fmri	16.0	0.8666666666666667	89.0	-70.0	0.1333333333333333	16.0	2.0	2.0	-3.3929520123207872	0.748	n/a	stim	poldrack-single-stim	s617	False	1
156.004	1.424	157.428	4.248533073705093	draw_card	1.424	columbia_card_task_fmri	16.0	0.8571428571428572	89.0	-70.0	0.1428571428571428	16.0	3.0	2.0	-2.5337387952869825	1.424	3.0	stim	poldrack-single-stim	s617	False	0
158.181	1.5	157.43	n/a	-1.0	2.386	columbia_card_task_fmri	n/a	n/a	-1.0	n/a	n/a	n/a	n/a	n/a	n/a	n/a	n/a	ITI	poldrack-single-stim	s617	False	0
159.821	2.103	161.924	7.0967473594193775	draw_card	2.103	columbia_card_task_fmri	30.0	0.6875	89.0	-45.0	0.3125	16.0	1.0	5.0	2.1353236103688005	2.103	1.0	stim	poldrack-single-stim	s617	False	0
162.682	1.5	161.931	n/a	-1.0	2.386	columbia_card_task_fmri	n/a	n/a	-1.0	n/a	n/a	n/a	n/a	n/a	n/a	n/a	n/a	ITI	poldrack-single-stim	s617	False	0
164.321	2.742	167.063	-1.1324193072472888	draw_card	2.742	columbia_card_task_fmri	13.0	0.8333333333333334	89.0	-75.0	0.1666666666666666	6.0	1.0	1.0	0.1678031399509052	2.742	n/a	stim	poldrack-single-stim	s617	False	1
167.066	1.232	168.298	-4.065752640580622	end_round	1.232	columbia_card_task_fmri	13.0	0.8	71.0	-75.0	0.2	6.0	2.0	1.0	2.571842296339554	1.232	1.0	stim	poldrack-single-stim	s617	False	1
169.054	1.5	168.303	n/a	-1.0	2.318	columbia_card_task_fmri	n/a	n/a	-1.0	n/a	n/a	n/a	n/a	n/a	n/a	n/a	n/a	ITI	poldrack-single-stim	s617	False	0
170.625	1.149	171.774	0.5342473594193791	draw_card	1.149	columbia_card_task_fmri	14.0	0.8333333333333334	89.0	-70.0	0.1666666666666666	6.0	1.0	1.0	-1.3227016742943682	1.149	n/a	stim	poldrack-single-stim	s617	False	1
171.777	0.684	172.461	-2.265752640580621	draw_card	0.684	columbia_card_task_fmri	14.0	0.8	89.0	-70.0	0.2	6.0	2.0	1.0	0.9720353216066258	0.684	n/a	stim	poldrack-single-stim	s617	False	1
172.464	1.342	173.806	-6.465752640580623	end_round	1.342	columbia_card_task_fmri	14.0	0.75	71.0	-70.0	0.25	6.0	3.0	1.0	3.744778523149293	1.342	2.0	stim	poldrack-single-stim	s617	False	1
174.559	1.5	173.808	n/a	-1.0	2.318	columbia_card_task_fmri	n/a	n/a	-1.0	n/a	n/a	n/a	n/a	n/a	n/a	n/a	n/a	ITI	poldrack-single-stim	s617	False	0
176.13	0.976	177.106	0.5342473594193791	draw_card	0.976	columbia_card_task_fmri	16.0	0.8333333333333334	89.0	-80.0	0.1666666666666666	6.0	1.0	1.0	3.1488645517955334	0.976	n/a	stim	poldrack-single-stim	s617	False	1
177.11	0.543	177.653	-2.665752640580622	draw_card	0.543	columbia_card_task_fmri	16.0	0.8	89.0	-80.0	0.2	6.0	2.0	1.0	5.771504494572284	0.543	n/a	stim	poldrack-single-stim	s617	False	1
177.656	1.399	179.055	-7.4657526405806225	draw_card	1.399	columbia_card_task_fmri	16.0	0.75	89.0	-80.0	0.25	6.0	3.0	1.0	8.940440576845006	1.399	3.0	stim	poldrack-single-stim	s617	False	0
179.812	1.5	179.061	n/a	-1.0	2.862	columbia_card_task_fmri	n/a	n/a	-1.0	n/a	n/a	n/a	n/a	n/a	n/a	n/a	n/a	ITI	poldrack-single-stim	s617	False	0
181.926	1.294	183.22	3.0342473594193797	draw_card	1.294	columbia_card_task_fmri	17.0	0.8333333333333334	89.0	-70.0	0.1666666666666666	6.0	1.0	1.0	-0.2048248491986655	1.294	1.0	stim	poldrack-single-stim	s617	False	0
183.974	1.5	183.223	n/a	-1.0	2.726	columbia_card_task_fmri	n/a	n/a	-1.0	n/a	n/a	n/a	n/a	n/a	n/a	n/a	n/a	ITI	poldrack-single-stim	s617	False	0
185.952	2.136	188.088	3.034247359419377	draw_card	2.136	columbia_card_task_fmri	25.0	0.75	89.0	-65.0	0.25	8.0	1.0	2.0	6.342593206673797	2.136	n/a	stim	poldrack-single-stim	s617	False	1
188.092	0.943	189.035	-0.1800383548663344	end_round	0.943	columbia_card_task_fmri	25.0	0.7142857142857143	71.0	-65.0	0.2857142857142857	8.0	2.0	2.0	8.029153770001628	0.943	1.0	stim	poldrack-single-stim	s617	False	1
189.789	1.5	189.038	n/a	-1.0	2.25	columbia_card_task_fmri	n/a	n/a	-1.0	n/a	n/a	n/a	n/a	n/a	n/a	n/a	n/a	ITI	poldrack-single-stim	s617	False	0
191.292	1.804	193.096	3.034247359419377	draw_card	1.804	columbia_card_task_fmri	30.0	0.75	89.0	-80.0	0.25	8.0	1.0	2.0	15.002181514432976	1.804	n/a	stim	poldrack-single-stim	s617	False	1
193.1	1.976	195.076	-0.8943240691520462	draw_card	1.976	columbia_card_task_fmri	30.0	0.7142857142857143	89.0	-80.0	0.2857142857142857	8.0	2.0	2.0	17.063594681071883	1.976	n/a	stim	poldrack-single-stim	s617	False	1
195.08	0.612	195.692	-6.132419307247283	end_round	0.612	columbia_card_task_fmri	30.0	0.6666666666666667	71.0	-80.0	0.3333333333333333	8.0	3.0	2.0	19.225037605189318	0.612	2.0	stim	poldrack-single-stim	s617	False	1
196.447	1.5	195.696	n/a	-1.0	2.318	columbia_card_task_fmri	n/a	n/a	-1.0	n/a	n/a	n/a	n/a	n/a	n/a	n/a	n/a	ITI	poldrack-single-stim	s617	False	0
198.018	2.648	200.666	2.7342473594193786	draw_card	2.648	columbia_card_task_fmri	13.0	0.9	89.0	-95.0	0.1	10.0	1.0	1.0	-0.2278074009987278	2.648	n/a	stim	poldrack-single-stim	s617	False	1
200.669	1.358	202.027	1.5342473594193773	draw_card	1.358	columbia_card_task_fmri	13.0	0.8888888888888888	89.0	-95.0	0.1111111111111111	10.0	2.0	1.0	1.313118138805308	1.358	2.0	stim	poldrack-single-stim	s617	False	0
202.785	1.5	202.034	n/a	-1.0	2.454	columbia_card_task_fmri	n/a	n/a	-1.0	n/a	n/a	n/a	n/a	n/a	n/a	n/a	n/a	ITI	poldrack-single-stim	s617	False	0
204.493	1.126	205.619	4.134247359419377	draw_card	1.126	columbia_card_task_fmri	14.0	0.9	89.0	-90.0	0.1	10.0	1.0	1.0	-1.427638027906582	1.126	1.0	stim	poldrack-single-stim	s617	False	0
206.376	1.5	205.625	n/a	-1.0	2.522	columbia_card_task_fmri	n/a	n/a	-1.0	n/a	n/a	n/a	n/a	n/a	n/a	n/a	n/a	ITI	poldrack-single-stim	s617	False	0
208.151	1.171	209.322	-0.665752640580622	draw_card	1.171	columbia_card_task_fmri	16.0	0.8	89.0	-70.0	0.2	10.0	1.0	2.0	1.7719365648993133	1.171	n/a	stim	poldrack-single-stim	s617	False	1
209.325	1.376	210.701	-2.576863751691733	draw_card	1.376	columbia_card_task_fmri	16.0	0.7777777777777778	89.0	-70.0	0.2222222222222222	10.0	2.0	2.0	3.1253945592669865	1.376	2.0	stim	poldrack-single-stim	s617	False	0
211.455	1.5	210.704	n/a	-1.0	2.318	columbia_card_task_fmri	n/a	n/a	-1.0	n/a	n/a	n/a	n/a	n/a	n/a	n/a	n/a	ITI	poldrack-single-stim	s617	False	0
213.027	1.225	214.252	-1.3824193072472888	draw_card	1.225	columbia_card_task_fmri	7.0	0.9166666666666666	89.0	-100.0	0.0833333333333333	12.0	1.0	1.0	-3.054148763765813	1.225	n/a	stim	poldrack-single-stim	s617	False	1
214.255	1.32	215.575	-2.193025367853351	draw_card	1.32	columbia_card_task_fmri	7.0	0.9090909090909092	89.0	-100.0	0.0909090909090909	12.0	2.0	1.0	-1.867235425097558	1.32	2.0	stim	poldrack-single-stim	s617	False	0
216.329	1.5	215.578	n/a	-1.0	2.522	columbia_card_task_fmri	n/a	n/a	-1.0	n/a	n/a	n/a	n/a	n/a	n/a	n/a	n/a	ITI	poldrack-single-stim	s617	False	0
218.104	0.997	219.101	-1.132419307247287	draw_card	0.997	columbia_card_task_fmri	14.0	0.8333333333333334	89.0	-80.0	0.1666666666666666	12.0	1.0	2.0	2.40359341435677	0.997	n/a	stim	poldrack-single-stim	s617	False	1
219.102	1.523	220.625	-2.556661731489716	end_round	1.523	columbia_card_task_fmri	14.0	0.8181818181818181	71.0	-80.0	0.1818181818181818	12.0	2.0	2.0	3.627017451970076	1.523	1.0	stim	poldrack-single-stim	s617	False	1
221.379	1.5	220.628	n/a	-1.0	2.998	columbia_card_task_fmri	n/a	n/a	-1.0	n/a	n/a	n/a	n/a	n/a	n/a	n/a	n/a	ITI	poldrack-single-stim	s617	False	0
223.63	1.539	225.169	0.5342473594193773	draw_card	1.539	columbia_card_task_fmri	15.0	0.8333333333333334	89.0	-75.0	0.1666666666666666	12.0	1.0	2.0	0.9130624514104396	1.539	n/a	stim	poldrack-single-stim	s617	False	1
225.172	1.306	226.478	-0.8293890042169878	end_round	1.306	columbia_card_task_fmri	15.0	0.8181818181818181	71.0	-75.0	0.1818181818181818	12.0	2.0	2.0	2.084413935237869	1.306	1.0	stim	poldrack-single-stim	s617	False	1
227.232	1.5	226.481	n/a	-1.0	2.318	columbia_card_task_fmri	n/a	n/a	-1.0	n/a	n/a	n/a	n/a	n/a	n/a	n/a	n/a	ITI	poldrack-single-stim	s617	False	0
228.804	2.515	231.319	-0.4657526405806227	draw_card	2.515	columbia_card_task_fmri	15.0	0.8	89.0	-65.0	0.2	15.0	1.0	3.0	-0.6277523544474874	2.515	n/a	stim	poldrack-single-stim	s617	False	1
231.322	1.006	232.328	-1.608609783437765	draw_card	1.006	columbia_card_task_fmri	15.0	0.7857142857142857	89.0	-65.0	0.2142857142857142	15.0	2.0	3.0	0.1982077056591222	1.006	n/a	stim	poldrack-single-stim	s617	False	1
232.333	0.821	233.154	-2.927291102119086	draw_card	0.821	columbia_card_task_fmri	15.0	0.7692307692307692	89.0	-65.0	0.2307692307692307	15.0	3.0	3.0	1.078025505305341	0.821	n/a	stim	poldrack-single-stim	s617	False	1
233.157	1.658	234.815	-4.465752640580623	draw_card	1.658	columbia_card_task_fmri	15.0	0.75	89.0	-65.0	0.25	15.0	4.0	3.0	2.0129238577707085	1.658	n/a	stim	poldrack-single-stim	s617	False	1
234.819	1.47	236.289	-6.283934458762439	end_round	1.47	columbia_card_task_fmri	15.0	0.7272727272727273	71.0	-65.0	0.2727272727272727	15.0	5.0	3.0	3.0007352080299228	1.47	4.0	stim	poldrack-single-stim	s617	False	1
237.047	1.5	236.296	n/a	-1.0	2.25	columbia_card_task_fmri	n/a	n/a	-1.0	n/a	n/a	n/a	n/a	n/a	n/a	n/a	n/a	ITI	poldrack-single-stim	s617	False	0
238.55	2.032	240.582	-1.2157526405806227	draw_card	2.032	columbia_card_task_fmri	14.0	0.8125	89.0	-70.0	0.1875	16.0	1.0	3.0	0.1583802121034452	2.032	n/a	stim	poldrack-single-stim	s617	False	1
240.586	1.395	241.981	-2.265752640580621	draw_card	1.395	columbia_card_task_fmri	14.0	0.8	89.0	-70.0	0.2	16.0	2.0	3.0	0.9720353216066258	1.395	n/a	stim	poldrack-single-stim	s617	False	1
241.985	1.238	243.223	-3.4657526405806225	draw_card	1.238	columbia_card_task_fmri	14.0	0.7857142857142857	89.0	-70.0	0.2142857142857142	16.0	3.0	3.0	1.8393043361197243	1.238	n/a	stim	poldrack-single-stim	s617	False	1
243.228	0.974	244.202	-4.850368025196008	end_round	0.974	columbia_card_task_fmri	14.0	0.7692307692307692	71.0	-70.0	0.2307692307692307	16.0	4.0	3.0	2.7631241009502148	0.974	3.0	stim	poldrack-single-stim	s617	False	1
244.957	1.5	244.206	n/a	-1.0	2.454	columbia_card_task_fmri	n/a	n/a	-1.0	n/a	n/a	n/a	n/a	n/a	n/a	n/a	n/a	ITI	poldrack-single-stim	s617	False	0
246.665	1.688	248.353	-1.2782526405806227	draw_card	1.688	columbia_card_task_fmri	11.0	0.6875	89.0	-30.0	0.3125	16.0	1.0	5.0	-13.620695120293073	1.688	1.0	stim	poldrack-single-stim	s617	False	0
249.11	1.5	248.359	n/a	-1.0	2.318	columbia_card_task_fmri	n/a	n/a	-1.0	n/a	n/a	n/a	n/a	n/a	n/a	n/a	n/a	ITI	poldrack-single-stim	s617	False	0
250.681	2.179	252.86	3.534247359419377	draw_card	2.179	columbia_card_task_fmri	15.0	0.8666666666666667	89.0	-75.0	0.1333333333333333	15.0	1.0	2.0	-2.0334303827726146	2.179	n/a	stim	poldrack-single-stim	s617	False	1
252.862	1.267	254.129	2.6771045022765216	draw_card	1.267	columbia_card_task_fmri	15.0	0.8571428571428572	89.0	-75.0	0.1428571428571428	15.0	2.0	2.0	-1.1342410871105244	1.267	n/a	stim	poldrack-single-stim	s617	False	1
254.132	0.934	255.066	1.6880935132655306	end_round	0.934	columbia_card_task_fmri	15.0	0.8461538461538461	71.0	-75.0	0.1538461538461538	15.0	3.0	2.0	-0.1557080736769975	0.934	2.0	stim	poldrack-single-stim	s617	False	1
255.821	1.5	255.07	n/a	-1.0	2.318	columbia_card_task_fmri	n/a	n/a	-1.0	n/a	n/a	n/a	n/a	n/a	n/a	n/a	n/a	ITI	poldrack-single-stim	s617	False	0
257.392	3.107	260.499	5.267580692752712	draw_card	3.107	columbia_card_task_fmri	17.0	0.8666666666666667	89.0	-75.0	0.1333333333333333	15.0	1.0	2.0	-1.353662496525896	3.107	n/a	stim	poldrack-single-stim	s617	False	1
260.502	1.298	261.8	4.391390216562237	draw_card	1.298	columbia_card_task_fmri	17.0	0.8571428571428572	89.0	-75.0	0.1428571428571428	15.0	2.0	2.0	-0.4344853633018886	1.298	n/a	stim	poldrack-single-stim	s617	False	1
261.803	1.705	263.508	3.380401205573224	end_round	1.705	columbia_card_task_fmri	17.0	0.8461538461538461	71.0	-75.0	0.1538461538461538	15.0	3.0	2.0	0.5657988296189416	1.705	2.0	stim	poldrack-single-stim	s617	False	1
264.262	1.5	263.511	n/a	-1.0	2.59	columbia_card_task_fmri	n/a	n/a	-1.0	n/a	n/a	n/a	n/a	n/a	n/a	n/a	n/a	ITI	poldrack-single-stim	s617	False	0
266.105	1.943	268.048	0.8467473594193773	end_round	1.943	columbia_card_task_fmri	2.0	0.9375	71.0	-25.0	0.0625	16.0	1.0	1.0	-26.074753081594224	1.943	0.0	stim	poldrack-single-stim	s617	False	1
268.805	1.5	268.054	n/a	-1.0	2.25	columbia_card_task_fmri	n/a	n/a	-1.0	n/a	n/a	n/a	n/a	n/a	n/a	n/a	n/a	ITI	poldrack-single-stim	s617	False	0
270.308	1.651	271.959	3.034247359419377	draw_card	1.651	columbia_card_task_fmri	9.0	0.9375	89.0	-95.0	0.0625	16.0	1.0	1.0	-7.452151762050118	1.651	n/a	stim	poldrack-single-stim	s617	False	1
271.963	0.814	272.777	2.600914026086045	draw_card	0.814	columbia_card_task_fmri	9.0	0.9333333333333332	89.0	-95.0	0.0666666666666666	16.0	2.0	1.0	-6.684553347451473	0.814	n/a	stim	poldrack-single-stim	s617	False	1
272.781	1.074	273.855	2.1056759308479496	end_round	1.074	columbia_card_task_fmri	9.0	0.9285714285714286	71.0	-95.0	0.0714285714285714	16.0	3.0	1.0	-5.84278890912686	1.074	2.0	stim	poldrack-single-stim	s617	False	1
274.61	1.5	273.859	n/a	-1.0	2.25	columbia_card_task_fmri	n/a	n/a	-1.0	n/a	n/a	n/a	n/a	n/a	n/a	n/a	n/a	ITI	poldrack-single-stim	s617	False	0
276.112	2.995	279.107	4.5967473594193775	draw_card	2.995	columbia_card_task_fmri	11.0	0.9375	89.0	-100.0	0.0625	16.0	1.0	1.0	-5.758078930547068	2.995	n/a	stim	poldrack-single-stim	s617	False	1
279.111	1.532	280.643	4.134247359419378	end_round	1.532	columbia_card_task_fmri	11.0	0.9333333333333332	71.0	-100.0	0.0666666666666666	16.0	2.0	1.0	-4.938793378982929	1.532	1.0	stim	poldrack-single-stim	s617	False	1
281.4	1.5	280.649	n/a	-1.0	2.522	columbia_card_task_fmri	n/a	n/a	-1.0	n/a	n/a	n/a	n/a	n/a	n/a	n/a	n/a	ITI	poldrack-single-stim	s617	False	0
283.177	1.872	285.049	5.1592473594193775	draw_card	1.872	columbia_card_task_fmri	16.0	0.875	89.0	-75.0	0.125	16.0	1.0	2.0	-2.5320490237884137	1.872	n/a	stim	poldrack-single-stim	s617	False	1
285.051	0.452	285.503	4.400914026086045	draw_card	0.452	columbia_card_task_fmri	16.0	0.8666666666666667	89.0	-75.0	0.1333333333333333	16.0	2.0	2.0	-1.6935469965699	0.452	n/a	stim	poldrack-single-stim	s617	False	1
285.509	1.391	286.9	3.5342473594193797	end_round	1.391	columbia_card_task_fmri	16.0	0.8571428571428572	71.0	-75.0	0.1428571428571428	16.0	3.0	2.0	-0.7843637662371243	1.391	2.0	stim	poldrack-single-stim	s617	False	1
287.658	1.5	286.907	n/a	-1.0	2.454	columbia_card_task_fmri	n/a	n/a	-1.0	n/a	n/a	n/a	n/a	n/a	n/a	n/a	n/a	ITI	poldrack-single-stim	s617	False	0
289.366	4.239	293.605	5.4092473594193775	draw_card	4.239	columbia_card_task_fmri	17.0	0.875	89.0	-80.0	0.125	16.0	1.0	2.0	-0.5480287901058531	4.239	n/a	stim	poldrack-single-stim	s617	False	1
293.608	1.812	295.42	4.600914026086046	draw_card	1.812	columbia_card_task_fmri	17.0	0.8666666666666667	89.0	-80.0	0.1333333333333333	16.0	2.0	2.0	0.3457755059410345	1.812	2.0	stim	poldrack-single-stim	s617	False	0
296.177	1.5	295.426	n/a	-1.0	2.25	columbia_card_task_fmri	n/a	n/a	-1.0	n/a	n/a	n/a	n/a	n/a	n/a	n/a	n/a	ITI	poldrack-single-stim	s617	False	0
308.688	1.697	310.385	-0.2990859739139548	draw_card	1.697	columbia_card_task_fmri	13.0	0.8333333333333334	89.0	-70.0	0.1666666666666666	6.0	1.0	1.0	-1.6953247584960778	1.697	n/a	stim	poldrack-single-stim	s617	False	1
310.388	2.526	312.914	-3.065752640580622	end_round	2.526	columbia_card_task_fmri	13.0	0.8	71.0	-70.0	0.2	6.0	2.0	1.0	0.5720864843789215	2.526	1.0	stim	poldrack-single-stim	s617	False	1
313.669	1.5	312.918	n/a	-1.0	2.454	columbia_card_task_fmri	n/a	n/a	-1.0	n/a	n/a	n/a	n/a	n/a	n/a	n/a	n/a	ITI	poldrack-single-stim	s617	False	0
315.376	1.377	316.753	-0.2990859739139548	draw_card	1.377	columbia_card_task_fmri	15.0	0.8333333333333334	89.0	-80.0	0.1666666666666666	6.0	1.0	1.0	2.7762285365468244	1.377	n/a	stim	poldrack-single-stim	s617	False	1
316.756	0.949	317.705	-3.4657526405806225	draw_card	0.949	columbia_card_task_fmri	15.0	0.8	89.0	-80.0	0.2	6.0	2.0	1.0	5.371543608932903	0.949	n/a	stim	poldrack-single-stim	s617	False	1
317.709	1.858	319.567	-8.215752640580623	end_round	1.858	columbia_card_task_fmri	15.0	0.75	71.0	-80.0	0.25	6.0	3.0	1.0	8.507464008028734	1.858	2.0	stim	poldrack-single-stim	s617	False	1
320.319	1.5	319.568	n/a	-1.0	2.454	columbia_card_task_fmri	n/a	n/a	-1.0	n/a	n/a	n/a	n/a	n/a	n/a	n/a	n/a	ITI	poldrack-single-stim	s617	False	0
322.027	1.284	323.311	1.3675806927527112	draw_card	1.284	columbia_card_task_fmri	16.0	0.8333333333333334	89.0	-75.0	0.1666666666666666	6.0	1.0	1.0	1.2856937004827105	1.284	n/a	stim	poldrack-single-stim	s617	False	1
323.314	1.117	324.431	-1.665752640580622	draw_card	1.117	columbia_card_task_fmri	16.0	0.8	89.0	-75.0	0.2	6.0	2.0	1.0	3.771708661593131	1.117	n/a	stim	poldrack-single-stim	s617	False	1
324.434	1.093	325.527	-6.215752640580623	end_round	1.093	columbia_card_task_fmri	16.0	0.75	71.0	-75.0	0.25	6.0	3.0	1.0	6.775565673038706	1.093	2.0	stim	poldrack-single-stim	s617	False	1
326.284	1.5	325.533	n/a	-1.0	2.522	columbia_card_task_fmri	n/a	n/a	-1.0	n/a	n/a	n/a	n/a	n/a	n/a	n/a	n/a	ITI	poldrack-single-stim	s617	False	0
328.059	2.883	330.942	2.534247359419377	draw_card	2.883	columbia_card_task_fmri	21.0	0.75	89.0	-55.0	0.25	8.0	1.0	2.0	0.281089835055937	2.883	n/a	stim	poldrack-single-stim	s617	False	1
330.946	1.189	332.135	-0.1800383548663362	draw_card	1.189	columbia_card_task_fmri	21.0	0.7142857142857143	89.0	-55.0	0.2857142857142857	8.0	2.0	2.0	1.7052449332732849	1.189	n/a	stim	poldrack-single-stim	s617	False	1
332.138	1.531	333.669	-3.799085973913953	draw_card	1.531	columbia_card_task_fmri	21.0	0.6666666666666667	89.0	-55.0	0.3333333333333333	8.0	3.0	2.0	3.198514964259637	1.531	n/a	stim	poldrack-single-stim	s617	False	1
333.673	0.91	334.583	-8.865752640580624	end_round	0.91	columbia_card_task_fmri	21.0	0.6	71.0	-55.0	0.4	8.0	4.0	2.0	4.6038651292656425	0.91	3.0	stim	poldrack-single-stim	s617	False	1
335.339	1.5	334.588	n/a	-1.0	2.454	columbia_card_task_fmri	n/a	n/a	-1.0	n/a	n/a	n/a	n/a	n/a	n/a	n/a	n/a	ITI	poldrack-single-stim	s617	False	0
337.047	2.017	339.064	3.7842473594193775	draw_card	2.017	columbia_card_task_fmri	26.0	0.75	89.0	-65.0	0.25	8.0	1.0	2.0	6.775565673038706	2.017	1.0	stim	poldrack-single-stim	s617	False	0
339.818	1.5	339.067	n/a	-1.0	2.658	columbia_card_task_fmri	n/a	n/a	-1.0	n/a	n/a	n/a	n/a	n/a	n/a	n/a	n/a	ITI	poldrack-single-stim	s617	False	0
341.73	1.189	342.919	-1.1324193072472888	draw_card	1.189	columbia_card_task_fmri	15.0	0.7777777777777778	89.0	-60.0	0.2222222222222222	9.0	1.0	2.0	-1.4471569416595251	1.189	n/a	stim	poldrack-single-stim	s617	False	1
342.924	1.199	344.123	-3.2157526405806225	draw_card	1.199	columbia_card_task_fmri	15.0	0.75	89.0	-60.0	0.25	9.0	2.0	2.0	-0.1518650582565186	1.199	2.0	stim	poldrack-single-stim	s617	False	0
344.879	1.5	344.128	n/a	-1.0	2.386	columbia_card_task_fmri	n/a	n/a	-1.0	n/a	n/a	n/a	n/a	n/a	n/a	n/a	n/a	ITI	poldrack-single-stim	s617	False	0
346.518	0.865	347.383	3.2342473594193786	draw_card	0.865	columbia_card_task_fmri	13.0	0.9	89.0	-90.0	0.1	10.0	1.0	1.0	-1.7275936295869805	0.865	n/a	stim	poldrack-single-stim	s617	False	1
347.388	1.884	349.272	2.089802914974933	end_round	1.884	columbia_card_task_fmri	13.0	0.8888888888888888	71.0	-90.0	0.1111111111111111	10.0	2.0	1.0	-0.258026195017031	1.884	1.0	stim	poldrack-single-stim	s617	False	1
350.028	1.5	349.277	n/a	-1.0	2.522	columbia_card_task_fmri	n/a	n/a	-1.0	n/a	n/a	n/a	n/a	n/a	n/a	n/a	n/a	ITI	poldrack-single-stim	s617	False	0
351.804	1.113	352.917	4.5342473594193775	draw_card	1.113	columbia_card_task_fmri	15.0	0.9	89.0	-95.0	0.1	10.0	1.0	1.0	0.3721125307905026	1.113	n/a	stim	poldrack-single-stim	s617	False	1
352.921	0.745	353.666	3.3120251371971543	end_round	0.745	columbia_card_task_fmri	15.0	0.8888888888888888	71.0	-95.0	0.1111111111111111	10.0	2.0	1.0	1.9415810658560917	0.745	1.0	stim	poldrack-single-stim	s617	False	1
354.42	1.5	353.669	n/a	-1.0	2.59	columbia_card_task_fmri	n/a	n/a	-1.0	n/a	n/a	n/a	n/a	n/a	n/a	n/a	n/a	ITI	poldrack-single-stim	s617	False	0
356.263	1.107	357.37	0.334247359419378	draw_card	1.107	columbia_card_task_fmri	16.0	0.8	89.0	-65.0	0.2	10.0	1.0	2.0	-0.2278074009987278	1.107	n/a	stim	poldrack-single-stim	s617	False	1
357.373	0.65	358.023	-1.465752640580621	draw_card	0.65	columbia_card_task_fmri	16.0	0.7777777777777778	89.0	-65.0	0.2222222222222222	10.0	2.0	2.0	1.046942355348769	0.65	2.0	stim	poldrack-single-stim	s617	False	0
358.778	1.5	358.027	n/a	-1.0	2.386	columbia_card_task_fmri	n/a	n/a	-1.0	n/a	n/a	n/a	n/a	n/a	n/a	n/a	n/a	ITI	poldrack-single-stim	s617	False	0
360.418	1.455	361.873	-0.9657526405806228	draw_card	1.455	columbia_card_task_fmri	7.0	0.9166666666666666	89.0	-95.0	0.0833333333333333	12.0	1.0	1.0	-4.43583926900024	1.455	n/a	stim	poldrack-single-stim	s617	False	1
361.877	0.653	362.53	-1.738479913307896	end_round	0.653	columbia_card_task_fmri	7.0	0.9090909090909092	71.0	-95.0	0.0909090909090909	12.0	2.0	1.0	-3.3044069929944264	0.653	1.0	stim	poldrack-single-stim	s617	False	1
363.284	1.5	362.533	n/a	-1.0	2.59	columbia_card_task_fmri	n/a	n/a	-1.0	n/a	n/a	n/a	n/a	n/a	n/a	n/a	n/a	ITI	poldrack-single-stim	s617	False	0
365.128	0.919	366.047	-0.2990859739139548	draw_card	0.919	columbia_card_task_fmri	14.0	0.8333333333333334	89.0	-75.0	0.1666666666666666	12.0	1.0	2.0	0.5404322526344245	0.919	n/a	stim	poldrack-single-stim	s617	False	1
366.051	1.585	367.636	-1.647570822398806	draw_card	1.585	columbia_card_task_fmri	14.0	0.8181818181818181	89.0	-75.0	0.1818181818181818	12.0	2.0	2.0	1.6987655122887872	1.585	n/a	stim	poldrack-single-stim	s617	False	1
367.64	1.101	368.741	-3.265752640580621	end_round	1.101	columbia_card_task_fmri	14.0	0.8	71.0	-75.0	0.2	12.0	3.0	2.0	2.971796750583188	1.101	2.0	stim	poldrack-single-stim	s617	False	1
369.497	1.5	368.746	n/a	-1.0	2.318	columbia_card_task_fmri	n/a	n/a	-1.0	n/a	n/a	n/a	n/a	n/a	n/a	n/a	n/a	ITI	poldrack-single-stim	s617	False	0
371.069	1.228	372.297	1.3675806927527112	draw_card	1.228	columbia_card_task_fmri	15.0	0.8333333333333334	89.0	-70.0	0.1666666666666666	12.0	1.0	2.0	-0.9500772983233254	1.228	n/a	stim	poldrack-single-stim	s617	False	1
372.301	1.224	373.525	0.0797019048739204	draw_card	1.224	columbia_card_task_fmri	15.0	0.8181818181818181	89.0	-70.0	0.1818181818181818	12.0	2.0	2.0	0.1561826854530537	1.224	n/a	stim	poldrack-single-stim	s617	False	1
373.529	1.27	374.799	-1.4657526405806227	draw_card	1.27	columbia_card_task_fmri	15.0	0.8	89.0	-70.0	0.2	12.0	3.0	2.0	1.3719853624387213	1.27	n/a	stim	poldrack-single-stim	s617	False	1
374.802	0.749	375.551	-3.354641529469512	end_round	0.749	columbia_card_task_fmri	15.0	0.7777777777777778	71.0	-70.0	0.2222222222222222	12.0	4.0	2.0	2.709701800351212	0.749	3.0	stim	poldrack-single-stim	s617	False	1
376.305	1.5	375.554	n/a	-1.0	2.25	columbia_card_task_fmri	n/a	n/a	-1.0	n/a	n/a	n/a	n/a	n/a	n/a	n/a	n/a	ITI	poldrack-single-stim	s617	False	0
377.809	1.231	379.04	-0.665752640580622	draw_card	1.231	columbia_card_task_fmri	16.0	0.8	89.0	-70.0	0.2	15.0	1.0	3.0	1.7719365648993133	1.231	n/a	stim	poldrack-single-stim	s617	False	1
379.044	0.897	379.941	-1.8943240691520515	draw_card	0.897	columbia_card_task_fmri	16.0	0.7857142857142857	89.0	-70.0	0.2142857142857142	15.0	2.0	3.0	2.6598598703996927	0.897	2.0	stim	poldrack-single-stim	s617	False	0
380.695	1.5	379.944	n/a	-1.0	2.454	columbia_card_task_fmri	n/a	n/a	-1.0	n/a	n/a	n/a	n/a	n/a	n/a	n/a	n/a	ITI	poldrack-single-stim	s617	False	0
382.403	2.166	384.569	-0.2782526405806227	draw_card	2.166	columbia_card_task_fmri	14.0	0.8125	89.0	-65.0	0.1875	16.0	1.0	3.0	-1.7929062306372003	2.166	n/a	stim	poldrack-single-stim	s617	False	1
384.573	0.861	385.434	-1.2657526405806216	end_round	0.861	columbia_card_task_fmri	14.0	0.8	71.0	-65.0	0.2	16.0	2.0	3.0	-1.0276959146076443	0.861	1.0	stim	poldrack-single-stim	s617	False	1
386.189	1.5	385.438	n/a	-1.0	3.27	columbia_card_task_fmri	n/a	n/a	-1.0	n/a	n/a	n/a	n/a	n/a	n/a	n/a	n/a	ITI	poldrack-single-stim	s617	False	0
388.713	1.221	389.934	-0.5282526405806227	draw_card	1.221	columbia_card_task_fmri	16.0	0.8125	89.0	-75.0	0.1875	16.0	1.0	3.0	2.890232071577813	1.221	n/a	stim	poldrack-single-stim	s617	False	1
389.938	1.108	391.046	-1.665752640580622	draw_card	1.108	columbia_card_task_fmri	16.0	0.8	89.0	-75.0	0.2	16.0	2.0	3.0	3.771708661593131	1.108	n/a	stim	poldrack-single-stim	s617	False	1
391.05	1.443	392.493	-2.9657526405806207	draw_card	1.443	columbia_card_task_fmri	16.0	0.7857142857142857	89.0	-75.0	0.2142857142857142	16.0	3.0	3.0	4.711267217040614	1.443	n/a	stim	poldrack-single-stim	s617	False	1
392.497	1.432	393.929	-4.465752640580626	end_round	1.432	columbia_card_task_fmri	16.0	0.7692307692307692	71.0	-75.0	0.2307692307692307	16.0	4.0	3.0	5.712089278860098	1.432	3.0	stim	poldrack-single-stim	s617	False	1
394.686	1.5	393.935	n/a	-1.0	2.25	columbia_card_task_fmri	n/a	n/a	-1.0	n/a	n/a	n/a	n/a	n/a	n/a	n/a	n/a	ITI	poldrack-single-stim	s617	False	0
396.19	1.913	398.103	3.7342473594193786	draw_card	1.913	columbia_card_task_fmri	16.0	0.8666666666666667	89.0	-80.0	0.1333333333333333	15.0	1.0	2.0	0.0058859461064102	1.913	n/a	stim	poldrack-single-stim	s617	False	1
398.107	2.641	400.748	2.8199616451336658	draw_card	2.641	columbia_card_task_fmri	16.0	0.8571428571428572	89.0	-80.0	0.1428571428571428	15.0	2.0	2.0	0.9650383929468092	2.641	2.0	stim	poldrack-single-stim	s617	False	0
401.506	1.5	400.755	n/a	-1.0	2.25	columbia_card_task_fmri	n/a	n/a	-1.0	n/a	n/a	n/a	n/a	n/a	n/a	n/a	n/a	ITI	poldrack-single-stim	s617	False	0
403.011	1.52	404.531	4.600914026086046	draw_card	1.52	columbia_card_task_fmri	17.0	0.8666666666666667	89.0	-80.0	0.1333333333333333	15.0	1.0	2.0	0.3457755059410345	1.52	n/a	stim	poldrack-single-stim	s617	False	1
404.536	0.515	405.051	3.6771045022765234	end_round	0.515	columbia_card_task_fmri	17.0	0.8571428571428572	71.0	-80.0	0.1428571428571428	15.0	2.0	2.0	1.314921711302219	0.515	1.0	stim	poldrack-single-stim	s617	False	1
405.808	1.5	405.057	n/a	-1.0	2.318	columbia_card_task_fmri	n/a	n/a	-1.0	n/a	n/a	n/a	n/a	n/a	n/a	n/a	n/a	ITI	poldrack-single-stim	s617	False	0
407.379	3.006	410.385	0.5342473594193773	draw_card	3.006	columbia_card_task_fmri	1.0	0.9375	89.0	-15.0	0.0625	16.0	1.0	1.0	-28.722554430184896	3.006	n/a	stim	poldrack-single-stim	s617	False	1
410.389	1.333	411.722	0.4675806927527106	end_round	1.333	columbia_card_task_fmri	1.0	0.9333333333333332	71.0	-15.0	0.0666666666666666	16.0	2.0	1.0	-28.60551220188552	1.333	1.0	stim	poldrack-single-stim	s617	False	1
412.477	1.5	411.726	n/a	-1.0	2.726	columbia_card_task_fmri	n/a	n/a	-1.0	n/a	n/a	n/a	n/a	n/a	n/a	n/a	n/a	ITI	poldrack-single-stim	s617	False	0
414.458	1.27	415.728	3.6592473594193775	draw_card	1.27	columbia_card_task_fmri	10.0	0.9375	89.0	-100.0	0.0625	16.0	1.0	1.0	-6.00009211899177	1.27	n/a	stim	poldrack-single-stim	s617	False	1
415.733	1.119	416.852	3.2009140260860445	draw_card	1.119	columbia_card_task_fmri	10.0	0.9333333333333332	89.0	-100.0	0.0666666666666666	16.0	2.0	1.0	-5.188190361843535	1.119	n/a	stim	poldrack-single-stim	s617	False	1
416.857	1.604	418.461	2.6771045022765216	end_round	1.604	columbia_card_task_fmri	10.0	0.9285714285714286	71.0	-100.0	0.0714285714285714	16.0	3.0	1.0	-4.297843193429252	1.604	2.0	stim	poldrack-single-stim	s617	False	1
419.217	1.5	418.466	n/a	-1.0	2.386	columbia_card_task_fmri	n/a	n/a	-1.0	n/a	n/a	n/a	n/a	n/a	n/a	n/a	n/a	ITI	poldrack-single-stim	s617	False	0
420.858	1.622	422.48	4.2842473594193775	draw_card	1.622	columbia_card_task_fmri	15.0	0.875	89.0	-75.0	0.125	16.0	1.0	2.0	-2.8627152622443965	1.622	n/a	stim	poldrack-single-stim	s617	False	1
422.483	1.076	423.559	3.534247359419377	end_round	1.076	columbia_card_task_fmri	15.0	0.8666666666666667	71.0	-75.0	0.1333333333333333	16.0	2.0	2.0	-2.0334303827726146	1.076	1.0	stim	poldrack-single-stim	s617	False	1
424.315	1.5	423.564	n/a	-1.0	2.318	columbia_card_task_fmri	n/a	n/a	-1.0	n/a	n/a	n/a	n/a	n/a	n/a	n/a	n/a	ITI	poldrack-single-stim	s617	False	0
425.889	1.736	427.625	4.5342473594193775	end_round	1.736	columbia_card_task_fmri	16.0	0.875	71.0	-80.0	0.125	16.0	1.0	2.0	-0.8787013740740335	1.736	0.0	stim	poldrack-single-stim	s617	False	1
428.383	1.5	427.632	n/a	-1.0	2.25	columbia_card_task_fmri	n/a	n/a	-1.0	n/a	n/a	n/a	n/a	n/a	n/a	n/a	n/a	ITI	poldrack-single-stim	s617	False	0
429.887	3.698	433.585	1.7217473594193773	draw_card	3.698	columbia_card_task_fmri	4.0	0.6875	89.0	-5.0	0.3125	16.0	1.0	5.0	-28.42652938951815	3.698	n/a	stim	poldrack-single-stim	s617	False	1
433.59	0.504	434.094	1.5342473594193775	draw_card	0.504	columbia_card_task_fmri	4.0	0.6666666666666667	89.0	-5.0	0.3333333333333333	16.0	2.0	5.0	-28.356066246233446	0.504	2.0	stim	poldrack-single-stim	s617	False	0
434.853	1.5	434.102	n/a	-1.0	2.25	columbia_card_task_fmri	n/a	n/a	-1.0	n/a	n/a	n/a	n/a	n/a	n/a	n/a	n/a	ITI	poldrack-single-stim	s617	False	0
436.358	2.281	438.639	-1.132419307247287	draw_card	2.281	columbia_card_task_fmri	14.0	0.8333333333333334	89.0	-80.0	0.1666666666666666	6.0	1.0	1.0	2.40359341435677	2.281	n/a	stim	poldrack-single-stim	s617	False	1
438.643	2.186	440.829	-4.265752640580621	draw_card	2.186	columbia_card_task_fmri	14.0	0.8	89.0	-80.0	0.2	6.0	2.0	1.0	4.971583555389294	2.186	2.0	stim	poldrack-single-stim	s617	False	0
441.587	1.5	440.836	n/a	-1.0	2.454	columbia_card_task_fmri	n/a	n/a	-1.0	n/a	n/a	n/a	n/a	n/a	n/a	n/a	n/a	ITI	poldrack-single-stim	s617	False	0
443.296	1.503	444.799	0.5342473594193773	draw_card	1.503	columbia_card_task_fmri	15.0	0.8333333333333334	89.0	-75.0	0.1666666666666666	6.0	1.0	1.0	0.9130624514104396	1.503	n/a	stim	poldrack-single-stim	s617	False	1
444.803	0.649	445.452	-2.4657526405806225	end_round	0.649	columbia_card_task_fmri	15.0	0.8	71.0	-75.0	0.2	6.0	2.0	1.0	3.3717522167857013	0.649	1.0	stim	poldrack-single-stim	s617	False	1
446.21	1.5	445.459	n/a	-1.0	2.454	columbia_card_task_fmri	n/a	n/a	-1.0	n/a	n/a	n/a	n/a	n/a	n/a	n/a	n/a	ITI	poldrack-single-stim	s617	False	0
447.918	1.912	449.83	2.2009140260860454	draw_card	1.912	columbia_card_task_fmri	16.0	0.8333333333333334	89.0	-70.0	0.1666666666666666	6.0	1.0	1.0	-0.5774516756319343	1.912	n/a	stim	poldrack-single-stim	s617	False	1
449.835	1.277	451.112	-0.665752640580622	draw_card	1.277	columbia_card_task_fmri	16.0	0.8	89.0	-70.0	0.2	6.0	2.0	1.0	1.7719365648993133	1.277	n/a	stim	poldrack-single-stim	s617	False	1
451.117	0.84	451.957	-4.965752640580623	end_round	0.84	columbia_card_task_fmri	16.0	0.75	71.0	-70.0	0.25	6.0	3.0	1.0	4.610712696917254	0.84	2.0	stim	poldrack-single-stim	s617	False	1
452.714	1.5	451.963	n/a	-1.0	2.522	columbia_card_task_fmri	n/a	n/a	-1.0	n/a	n/a	n/a	n/a	n/a	n/a	n/a	n/a	ITI	poldrack-single-stim	s617	False	0
454.491	1.849	456.34	2.784247359419377	draw_card	1.849	columbia_card_task_fmri	23.0	0.75	89.0	-60.0	0.25	8.0	1.0	2.0	3.311813084731625	1.849	n/a	stim	poldrack-single-stim	s617	False	1
456.345	1.881	458.226	-0.1800383548663344	draw_card	1.881	columbia_card_task_fmri	23.0	0.7142857142857143	89.0	-60.0	0.2857142857142857	8.0	2.0	2.0	4.867172094450332	1.881	n/a	stim	poldrack-single-stim	s617	False	1
458.231	0.799	459.03	-4.132419307247287	end_round	0.799	columbia_card_task_fmri	23.0	0.6666666666666667	71.0	-60.0	0.3333333333333333	8.0	3.0	2.0	6.498010716839076	0.799	2.0	stim	poldrack-single-stim	s617	False	1
459.785	1.5	459.034	n/a	-1.0	2.386	columbia_card_task_fmri	n/a	n/a	-1.0	n/a	n/a	n/a	n/a	n/a	n/a	n/a	n/a	ITI	poldrack-single-stim	s617	False	0
461.426	1.631	463.057	3.284247359419377	draw_card	1.631	columbia_card_task_fmri	27.0	0.75	89.0	-70.0	0.25	8.0	1.0	2.0	9.37341789058182	1.631	1.0	stim	poldrack-single-stim	s617	False	0
463.813	1.5	463.062	n/a	-1.0	2.454	columbia_card_task_fmri	n/a	n/a	-1.0	n/a	n/a	n/a	n/a	n/a	n/a	n/a	n/a	ITI	poldrack-single-stim	s617	False	0
465.522	1.77	467.292	-1.465752640580621	draw_card	1.77	columbia_card_task_fmri	16.0	0.7777777777777778	89.0	-65.0	0.2222222222222222	9.0	1.0	2.0	1.046942355348769	1.77	n/a	stim	poldrack-single-stim	s617	False	1
467.297	1.052	468.349	-3.7157526405806234	draw_card	1.052	columbia_card_task_fmri	16.0	0.75	89.0	-65.0	0.25	9.0	2.0	2.0	2.4458857082974745	1.052	2.0	stim	poldrack-single-stim	s617	False	0
469.104	1.5	468.353	n/a	-1.0	2.522	columbia_card_task_fmri	n/a	n/a	-1.0	n/a	n/a	n/a	n/a	n/a	n/a	n/a	n/a	ITI	poldrack-single-stim	s617	False	0
470.882	1.259	472.141	3.7342473594193786	draw_card	1.259	columbia_card_task_fmri	13.0	0.9	89.0	-85.0	0.1	10.0	1.0	1.0	-3.2273580499125	1.259	n/a	stim	poldrack-single-stim	s617	False	1
472.146	0.593	472.739	2.645358470530488	end_round	0.593	columbia_card_task_fmri	13.0	0.8888888888888888	71.0	-85.0	0.1111111111111111	10.0	2.0	1.0	-1.829149709968075	0.593	1.0	stim	poldrack-single-stim	s617	False	1
473.495	1.5	472.744	n/a	-1.0	2.522	columbia_card_task_fmri	n/a	n/a	-1.0	n/a	n/a	n/a	n/a	n/a	n/a	n/a	n/a	ITI	poldrack-single-stim	s617	False	0
475.273	0.955	476.228	-1.2657526405806216	draw_card	0.955	columbia_card_task_fmri	14.0	0.8	89.0	-65.0	0.2	10.0	1.0	2.0	-1.0276959146076443	0.955	n/a	stim	poldrack-single-stim	s617	False	1
476.234	1.665	477.899	-3.021308196136176	draw_card	1.665	columbia_card_task_fmri	14.0	0.7777777777777778	89.0	-65.0	0.2222222222222222	10.0	2.0	2.0	0.2155702033004516	1.665	n/a	stim	poldrack-single-stim	s617	False	1
477.904	0.817	478.721	-5.215752640580623	end_round	0.817	columbia_card_task_fmri	14.0	0.75	71.0	-65.0	0.25	10.0	3.0	2.0	1.5799632943877455	0.817	2.0	stim	poldrack-single-stim	s617	False	1
479.479	1.5	478.728	n/a	-1.0	2.59	columbia_card_task_fmri	n/a	n/a	-1.0	n/a	n/a	n/a	n/a	n/a	n/a	n/a	n/a	ITI	poldrack-single-stim	s617	False	0
481.323	1.041	482.364	0.1342473594193787	draw_card	1.041	columbia_card_task_fmri	17.0	0.8	89.0	-70.0	0.2	10.0	1.0	2.0	2.171888888941851	1.041	n/a	stim	poldrack-single-stim	s617	False	1
482.368	1.078	483.446	-1.7990859739139549	draw_card	1.078	columbia_card_task_fmri	17.0	0.7777777777777778	89.0	-70.0	0.2222222222222222	10.0	2.0	2.0	3.541088397331137	1.078	n/a	stim	poldrack-single-stim	s617	False	1
483.45	0.939	484.389	-4.215752640580623	end_round	0.939	columbia_card_task_fmri	17.0	0.75	71.0	-70.0	0.25	10.0	3.0	2.0	5.043681356491604	0.939	2.0	stim	poldrack-single-stim	s617	False	1
485.146	1.5	484.395	n/a	-1.0	2.454	columbia_card_task_fmri	n/a	n/a	-1.0	n/a	n/a	n/a	n/a	n/a	n/a	n/a	n/a	ITI	poldrack-single-stim	s617	False	0
486.856	1.69	488.546	-1.1324193072472888	draw_card	1.69	columbia_card_task_fmri	13.0	0.8333333333333334	89.0	-75.0	0.1666666666666666	12.0	1.0	2.0	0.1678031399509052	1.69	n/a	stim	poldrack-single-stim	s617	False	1
488.551	0.949	489.5	-2.4657526405806243	draw_card	0.949	columbia_card_task_fmri	13.0	0.8181818181818181	89.0	-75.0	0.1818181818181818	12.0	2.0	2.0	1.313118138805308	0.949	n/a	stim	poldrack-single-stim	s617	False	1
489.505	1.218	490.723	-4.065752640580622	end_round	1.218	columbia_card_task_fmri	13.0	0.8	71.0	-75.0	0.2	12.0	3.0	2.0	2.571842296339554	1.218	2.0	stim	poldrack-single-stim	s617	False	1
491.48	1.5	490.729	n/a	-1.0	2.318	columbia_card_task_fmri	n/a	n/a	-1.0	n/a	n/a	n/a	n/a	n/a	n/a	n/a	n/a	ITI	poldrack-single-stim	s617	False	0
493.053	1.796	494.849	0.5342473594193791	draw_card	1.796	columbia_card_task_fmri	14.0	0.8333333333333334	89.0	-70.0	0.1666666666666666	12.0	1.0	2.0	-1.3227016742943682	1.796	n/a	stim	poldrack-single-stim	s617	False	1
494.854	0.907	495.761	-0.7384799133078979	end_round	0.907	columbia_card_task_fmri	14.0	0.8181818181818181	71.0	-70.0	0.1818181818181818	12.0	2.0	2.0	-0.2294601110495406	0.907	1.0	stim	poldrack-single-stim	s617	False	1
496.518	1.5	495.767	n/a	-1.0	2.25	columbia_card_task_fmri	n/a	n/a	-1.0	n/a	n/a	n/a	n/a	n/a	n/a	n/a	n/a	ITI	poldrack-single-stim	s617	False	0
498.024	1.429	499.453	0.5342473594193791	draw_card	1.429	columbia_card_task_fmri	16.0	0.8333333333333334	89.0	-80.0	0.1666666666666666	12.0	1.0	2.0	3.1488645517955334	1.429	n/a	stim	poldrack-single-stim	s617	False	1
499.458	0.755	500.213	-0.9202980951260796	draw_card	0.755	columbia_card_task_fmri	16.0	0.8181818181818181	89.0	-80.0	0.1818181818181818	12.0	2.0	2.0	4.398324675549965	0.755	n/a	stim	poldrack-single-stim	s617	False	1
500.218	1.276	501.494	-2.665752640580622	draw_card	1.276	columbia_card_task_fmri	16.0	0.8	89.0	-80.0	0.2	12.0	3.0	2.0	5.771504494572284	1.276	3.0	stim	poldrack-single-stim	s617	False	0
502.249	1.5	501.498	n/a	-1.0	2.658	columbia_card_task_fmri	n/a	n/a	-1.0	n/a	n/a	n/a	n/a	n/a	n/a	n/a	n/a	ITI	poldrack-single-stim	s617	False	0
504.162	1.772	505.934	0.334247359419378	draw_card	1.772	columbia_card_task_fmri	16.0	0.8	89.0	-65.0	0.2	15.0	1.0	3.0	-0.2278074009987278	1.772	n/a	stim	poldrack-single-stim	s617	False	1
505.939	0.677	506.616	-0.8228954977234786	draw_card	0.677	columbia_card_task_fmri	16.0	0.7857142857142857	89.0	-65.0	0.2142857142857142	15.0	2.0	3.0	0.6084799471349669	0.677	2.0	stim	poldrack-single-stim	s617	False	0
507.373	1.5	506.622	n/a	-1.0	2.454	columbia_card_task_fmri	n/a	n/a	-1.0	n/a	n/a	n/a	n/a	n/a	n/a	n/a	n/a	ITI	poldrack-single-stim	s617	False	0
509.081	4.35	513.431	-1.3407526405806227	draw_card	4.35	columbia_card_task_fmri	15.0	0.8125	89.0	-75.0	0.1875	16.0	1.0	3.0	2.499964332552004	4.35	1.0	stim	poldrack-single-stim	s617	False	0
514.186	1.5	513.435	n/a	-1.0	2.386	columbia_card_task_fmri	n/a	n/a	-1.0	n/a	n/a	n/a	n/a	n/a	n/a	n/a	n/a	ITI	poldrack-single-stim	s617	False	0
515.827	1.698	517.525	-0.7782526405806227	draw_card	1.698	columbia_card_task_fmri	14.0	0.6875	89.0	-35.0	0.3125	16.0	1.0	5.0	-9.913821299246798	1.698	n/a	stim	poldrack-single-stim	s617	False	1
517.53	2.325	519.855	-1.7990859739139549	draw_card	2.325	columbia_card_task_fmri	14.0	0.6666666666666667	89.0	-35.0	0.3333333333333333	16.0	2.0	5.0	-9.527212799772087	2.325	n/a	stim	poldrack-single-stim	s617	False	1
519.859	0.812	520.671	-2.9657526405806225	draw_card	0.812	columbia_card_task_fmri	14.0	0.6428571428571428	89.0	-35.0	0.3571428571428571	16.0	3.0	5.0	-9.147420481055844	0.812	3.0	stim	poldrack-single-stim	s617	False	0
521.427	1.5	520.676	n/a	-1.0	2.59	columbia_card_task_fmri	n/a	n/a	-1.0	n/a	n/a	n/a	n/a	n/a	n/a	n/a	n/a	ITI	poldrack-single-stim	s617	False	0
523.272	2.027	525.299	4.400914026086045	draw_card	2.027	columbia_card_task_fmri	16.0	0.8666666666666667	89.0	-75.0	0.1333333333333333	15.0	1.0	2.0	-1.6935469965699	2.027	n/a	stim	poldrack-single-stim	s617	False	1
525.304	0.716	526.02	3.5342473594193797	end_round	0.716	columbia_card_task_fmri	16.0	0.8571428571428572	71.0	-75.0	0.1428571428571428	15.0	2.0	2.0	-0.7843637662371243	0.716	1.0	stim	poldrack-single-stim	s617	False	1
526.776	1.5	526.025	n/a	-1.0	2.318	columbia_card_task_fmri	n/a	n/a	-1.0	n/a	n/a	n/a	n/a	n/a	n/a	n/a	n/a	ITI	poldrack-single-stim	s617	False	0
528.35	1.667	530.017	5.067580692752711	draw_card	1.667	columbia_card_task_fmri	16.0	0.8666666666666667	89.0	-70.0	0.1333333333333333	15.0	1.0	2.0	-3.3929520123207872	1.667	n/a	stim	poldrack-single-stim	s617	False	1
530.022	0.777	530.799	4.248533073705093	draw_card	0.777	columbia_card_task_fmri	16.0	0.8571428571428572	89.0	-70.0	0.1428571428571428	15.0	2.0	2.0	-2.5337387952869825	0.777	n/a	stim	poldrack-single-stim	s617	False	1
530.804	0.52	531.324	3.303478128650146	end_round	0.52	columbia_card_task_fmri	16.0	0.8461538461538461	71.0	-70.0	0.1538461538461538	15.0	3.0	2.0	-1.5987085545708268	0.52	2.0	stim	poldrack-single-stim	s617	False	1
532.084	1.5	531.333	n/a	-1.0	2.59	columbia_card_task_fmri	n/a	n/a	-1.0	n/a	n/a	n/a	n/a	n/a	n/a	n/a	n/a	ITI	poldrack-single-stim	s617	False	0
533.928	1.335	535.263	2.409247359419377	end_round	1.335	columbia_card_task_fmri	8.0	0.9375	71.0	-90.0	0.0625	16.0	1.0	1.0	-8.904173568279706	1.335	0.0	stim	poldrack-single-stim	s617	False	1
536.02	1.5	535.269	n/a	-1.0	2.386	columbia_card_task_fmri	n/a	n/a	-1.0	n/a	n/a	n/a	n/a	n/a	n/a	n/a	n/a	ITI	poldrack-single-stim	s617	False	0
537.661	2.188	539.849	3.9717473594193775	draw_card	2.188	columbia_card_task_fmri	10.0	0.9375	89.0	-95.0	0.0625	16.0	1.0	1.0	-7.210144274005497	2.188	n/a	stim	poldrack-single-stim	s617	False	1
539.855	0.79	540.645	3.5342473594193784	end_round	0.79	columbia_card_task_fmri	10.0	0.9333333333333332	71.0	-95.0	0.0666666666666666	16.0	2.0	1.0	-6.435161896490225	0.79	1.0	stim	poldrack-single-stim	s617	False	1
541.401	1.5	540.65	n/a	-1.0	2.318	columbia_card_task_fmri	n/a	n/a	-1.0	n/a	n/a	n/a	n/a	n/a	n/a	n/a	n/a	ITI	poldrack-single-stim	s617	False	0
542.975	1.249	544.224	4.9092473594193775	draw_card	1.249	columbia_card_task_fmri	15.0	0.875	89.0	-70.0	0.125	16.0	1.0	2.0	-4.516027868027788	1.249	n/a	stim	poldrack-single-stim	s617	False	1
544.228	1.593	545.821	4.200914026086044	draw_card	1.593	columbia_card_task_fmri	15.0	0.8666666666666667	89.0	-70.0	0.1333333333333333	16.0	2.0	2.0	-3.732829230692289	1.593	n/a	stim	poldrack-single-stim	s617	False	1
545.826	0.869	546.695	3.391390216562235	end_round	0.869	columbia_card_task_fmri	15.0	0.8571428571428572	71.0	-70.0	0.1428571428571428	16.0	3.0	2.0	-2.8836101242951955	0.869	2.0	stim	poldrack-single-stim	s617	False	1
547.455	1.5	546.704	n/a	-1.0	2.318	columbia_card_task_fmri	n/a	n/a	-1.0	n/a	n/a	n/a	n/a	n/a	n/a	n/a	n/a	ITI	poldrack-single-stim	s617	False	0
549.028	1.915	550.943	3.9092473594193775	draw_card	1.915	columbia_card_task_fmri	16.0	0.875	89.0	-85.0	0.125	16.0	1.0	2.0	0.7746707181929722	1.915	n/a	stim	poldrack-single-stim	s617	False	1
550.947	1.254	552.201	3.0675806927527107	draw_card	1.254	columbia_card_task_fmri	16.0	0.8666666666666667	89.0	-85.0	0.1333333333333333	16.0	2.0	2.0	1.7053426692333673	1.254	n/a	stim	poldrack-single-stim	s617	False	1
552.206	1.965	554.171	2.1056759308479505	draw_card	1.965	columbia_card_task_fmri	16.0	0.8571428571428572	89.0	-85.0	0.1428571428571428	16.0	3.0	2.0	2.7144636540348586	1.965	n/a	stim	poldrack-single-stim	s617	False	1
554.177	0.884	555.061	0.9957858209578372	end_round	0.884	columbia_card_task_fmri	16.0	0.8461538461538461	71.0	-85.0	0.1538461538461538	16.0	4.0	2.0	3.812626701243019	0.884	3.0	stim	poldrack-single-stim	s617	False	1
555.817	1.5	555.066	n/a	-1.0	2.318	columbia_card_task_fmri	n/a	n/a	-1.0	n/a	n/a	n/a	n/a	n/a	n/a	n/a	n/a	ITI	poldrack-single-stim	s617	False	0
