duration	onset	block_duration	movement_onset	planning	condition	exp_stage	experiment_exp_id	key_press	problem_id	response_time	trial_id	trial_type	worker_id	junk
2.492	3.009	2.492	5.501	1	UA_with_intermediate	practice	ward_and_allport	71	0.0	2.492	to_hand	poldrack-single-stim	s617	False
0.1	5.502	0.588	6.09	0	UA_with_intermediate	practice	ward_and_allport	89	0.0	0.588	to_board	poldrack-single-stim	s617	False
0.1	6.092	2.224	8.316	0	UA_with_intermediate	practice	ward_and_allport	89	0.0	2.224	to_hand	poldrack-single-stim	s617	False
0.1	8.317	0.515	8.832	0	UA_with_intermediate	practice	ward_and_allport	82	0.0	0.515	to_board	poldrack-single-stim	s617	False
0.1	8.834	0.725	9.559	0	UA_with_intermediate	practice	ward_and_allport	71	0.0	0.725	to_hand	poldrack-single-stim	s617	False
0.1	9.56	0.905	10.465	0	UA_with_intermediate	practice	ward_and_allport	89	0.0	0.905	to_board	poldrack-single-stim	s617	False
0.1	10.467	0.931	11.398	0	UA_with_intermediate	practice	ward_and_allport	82	0.0	0.931	to_hand	poldrack-single-stim	s617	False
0.1	11.399	0.48	11.879	0	UA_with_intermediate	practice	ward_and_allport	89	0.0	0.48	to_board	poldrack-single-stim	s617	False
1.0	11.883	2.5	11.882	0	UA_with_intermediate	practice	ward_and_allport	-1	0.0	n/a	feedback	poldrack-single-stim	s617	False
2.711	14.386	2.711	17.097	1	UA_with_intermediate	practice	ward_and_allport	89	1.0	2.711	to_hand	poldrack-single-stim	s617	False
0.1	17.098	0.499	17.597	0	UA_with_intermediate	practice	ward_and_allport	82	1.0	0.499	to_board	poldrack-single-stim	s617	False
0.1	17.599	0.735	18.334	0	UA_with_intermediate	practice	ward_and_allport	71	1.0	0.735	to_hand	poldrack-single-stim	s617	False
0.1	18.334	0.631	18.965	0	UA_with_intermediate	practice	ward_and_allport	89	1.0	0.631	to_board	poldrack-single-stim	s617	False
0.1	18.968	0.607	19.575	0	UA_with_intermediate	practice	ward_and_allport	82	1.0	0.607	to_hand	poldrack-single-stim	s617	False
0.1	19.577	0.414	19.991	0	UA_with_intermediate	practice	ward_and_allport	89	1.0	0.414	to_board	poldrack-single-stim	s617	False
1.0	19.995	2.1	19.994	0	UA_with_intermediate	practice	ward_and_allport	-1	1.0	n/a	feedback	poldrack-single-stim	s617	False
2.634	22.096	2.634	24.73	1	UA_without_intermediate	practice	ward_and_allport	82	2.0	2.634	to_hand	poldrack-single-stim	s617	False
0.1	24.731	0.401	25.132	0	UA_without_intermediate	practice	ward_and_allport	89	2.0	0.401	to_board	poldrack-single-stim	s617	False
0.1	25.134	0.691	25.825	0	UA_without_intermediate	practice	ward_and_allport	71	2.0	0.691	to_hand	poldrack-single-stim	s617	False
0.1	25.826	0.307	26.133	0	UA_without_intermediate	practice	ward_and_allport	89	2.0	0.307	to_board	poldrack-single-stim	s617	False
0.1	26.136	0.706	26.842	0	UA_without_intermediate	practice	ward_and_allport	71	2.0	0.706	to_hand	poldrack-single-stim	s617	False
0.1	26.843	0.322	27.165	0	UA_without_intermediate	practice	ward_and_allport	89	2.0	0.322	to_board	poldrack-single-stim	s617	False
1.0	27.171	2.2	27.17	0	UA_without_intermediate	practice	ward_and_allport	-1	2.0	n/a	feedback	poldrack-single-stim	s617	False
1.675	29.374	1.675	31.049	1	UA_without_intermediate	practice	ward_and_allport	71	3.0	1.675	to_hand	poldrack-single-stim	s617	False
0.1	31.049	0.719	31.768	0	UA_without_intermediate	practice	ward_and_allport	89	3.0	0.719	to_board	poldrack-single-stim	s617	False
0.1	31.77	0.866	32.636	0	UA_without_intermediate	practice	ward_and_allport	82	3.0	0.866	to_hand	poldrack-single-stim	s617	False
0.1	32.637	0.629	33.266	0	UA_without_intermediate	practice	ward_and_allport	89	3.0	0.629	to_board	poldrack-single-stim	s617	False
0.1	33.268	1.003	34.271	0	UA_without_intermediate	practice	ward_and_allport	71	3.0	1.003	to_hand	poldrack-single-stim	s617	False
0.1	34.273	0.378	34.651	0	UA_without_intermediate	practice	ward_and_allport	89	3.0	0.378	to_board	poldrack-single-stim	s617	False
1.0	34.655	2.0	34.654	0	UA_without_intermediate	practice	ward_and_allport	-1	3.0	n/a	feedback	poldrack-single-stim	s617	False
4.25	38.663	4.25	42.913	1	PA_with_intermediate	test	ward_and_allport	71	0.0	4.25	to_hand	poldrack-single-stim	s617	False
0.1	42.915	0.361	43.276	0	PA_with_intermediate	test	ward_and_allport	89	0.0	0.361	to_board	poldrack-single-stim	s617	False
0.1	43.278	2.421	45.699	0	PA_with_intermediate	test	ward_and_allport	71	0.0	2.421	to_hand	poldrack-single-stim	s617	False
0.1	45.7	0.392	46.092	0	PA_with_intermediate	test	ward_and_allport	82	0.0	0.392	to_board	poldrack-single-stim	s617	False
0.1	46.094	1.27	47.364	0	PA_with_intermediate	test	ward_and_allport	89	0.0	1.27	to_hand	poldrack-single-stim	s617	False
0.1	47.366	0.435	47.801	0	PA_with_intermediate	test	ward_and_allport	82	0.0	0.435	to_board	poldrack-single-stim	s617	False
1.0	47.807	2.408	47.806	0	PA_with_intermediate	test	ward_and_allport	-1	0.0	n/a	feedback	poldrack-single-stim	s617	False
2.485	50.218	2.485	52.703	1	PA_without_intermediate	test	ward_and_allport	82	1.0	2.485	to_hand	poldrack-single-stim	s617	False
0.1	52.704	0.437	53.141	0	PA_without_intermediate	test	ward_and_allport	89	1.0	0.437	to_board	poldrack-single-stim	s617	False
0.1	53.144	1.814	54.958	0	PA_without_intermediate	test	ward_and_allport	82	1.0	1.814	to_hand	poldrack-single-stim	s617	False
0.1	54.959	0.479	55.438	0	PA_without_intermediate	test	ward_and_allport	71	1.0	0.479	to_board	poldrack-single-stim	s617	False
0.1	55.441	1.283	56.724	0	PA_without_intermediate	test	ward_and_allport	82	1.0	1.283	to_hand	poldrack-single-stim	s617	False
0.1	56.725	0.381	57.106	0	PA_without_intermediate	test	ward_and_allport	89	1.0	0.381	to_board	poldrack-single-stim	s617	False
1.0	57.113	2.68	57.112	0	PA_without_intermediate	test	ward_and_allport	-1	1.0	n/a	feedback	poldrack-single-stim	s617	False
2.978	59.796	2.978	62.774	1	PA_with_intermediate	test	ward_and_allport	82	2.0	2.978	to_hand	poldrack-single-stim	s617	False
0.1	62.776	0.414	63.19	0	PA_with_intermediate	test	ward_and_allport	71	2.0	0.414	to_board	poldrack-single-stim	s617	False
0.1	63.193	2.181	65.374	0	PA_with_intermediate	test	ward_and_allport	82	2.0	2.181	to_hand	poldrack-single-stim	s617	False
0.1	65.375	0.47	65.845	0	PA_with_intermediate	test	ward_and_allport	89	2.0	0.47	to_board	poldrack-single-stim	s617	False
0.1	65.847	2.145	67.992	0	PA_with_intermediate	test	ward_and_allport	71	2.0	2.145	to_hand	poldrack-single-stim	s617	False
0.1	67.993	0.314	68.307	0	PA_with_intermediate	test	ward_and_allport	89	2.0	0.314	to_board	poldrack-single-stim	s617	False
1.0	68.311	4.72	68.31	0	PA_with_intermediate	test	ward_and_allport	-1	2.0	n/a	feedback	poldrack-single-stim	s617	False
2.936	73.035	2.936	75.971	1	PA_without_intermediate	test	ward_and_allport	71	3.0	2.936	to_hand	poldrack-single-stim	s617	False
0.1	75.973	0.483	76.456	0	PA_without_intermediate	test	ward_and_allport	82	3.0	0.483	to_board	poldrack-single-stim	s617	False
0.1	76.459	0.755	77.214	0	PA_without_intermediate	test	ward_and_allport	71	3.0	0.755	to_hand	poldrack-single-stim	s617	False
0.1	77.216	0.343	77.559	0	PA_without_intermediate	test	ward_and_allport	89	3.0	0.343	to_board	poldrack-single-stim	s617	False
0.1	77.562	0.543	78.105	0	PA_without_intermediate	test	ward_and_allport	71	3.0	0.543	to_hand	poldrack-single-stim	s617	False
0.1	78.107	0.486	78.593	0	PA_without_intermediate	test	ward_and_allport	82	3.0	0.486	to_board	poldrack-single-stim	s617	False
1.0	78.596	3.224	78.595	0	PA_without_intermediate	test	ward_and_allport	-1	3.0	n/a	feedback	poldrack-single-stim	s617	False
2.529	81.824	2.529	84.353	1	PA_without_intermediate	test	ward_and_allport	71	4.0	2.529	to_hand	poldrack-single-stim	s617	False
0.1	84.355	0.36	84.715	0	PA_without_intermediate	test	ward_and_allport	89	4.0	0.36	to_board	poldrack-single-stim	s617	False
0.1	84.719	0.945	85.664	0	PA_without_intermediate	test	ward_and_allport	71	4.0	0.945	to_hand	poldrack-single-stim	s617	False
0.1	85.665	0.354	86.019	0	PA_without_intermediate	test	ward_and_allport	89	4.0	0.354	to_board	poldrack-single-stim	s617	False
0.1	86.021	0.757	86.778	0	PA_without_intermediate	test	ward_and_allport	71	4.0	0.757	to_hand	poldrack-single-stim	s617	False
0.1	86.779	0.34	87.119	0	PA_without_intermediate	test	ward_and_allport	82	4.0	0.34	to_board	poldrack-single-stim	s617	False
1.0	87.126	2.272	87.125	0	PA_without_intermediate	test	ward_and_allport	-1	4.0	n/a	feedback	poldrack-single-stim	s617	False
2.27	89.401	2.27	91.671	1	PA_with_intermediate	test	ward_and_allport	71	5.0	2.27	to_hand	poldrack-single-stim	s617	False
0.1	91.672	0.362	92.034	0	PA_with_intermediate	test	ward_and_allport	82	5.0	0.362	to_board	poldrack-single-stim	s617	False
0.1	92.037	0.829	92.866	0	PA_with_intermediate	test	ward_and_allport	71	5.0	0.829	to_hand	poldrack-single-stim	s617	False
0.1	92.867	0.347	93.214	0	PA_with_intermediate	test	ward_and_allport	89	5.0	0.347	to_board	poldrack-single-stim	s617	False
0.1	93.217	0.878	94.095	0	PA_with_intermediate	test	ward_and_allport	82	5.0	0.878	to_hand	poldrack-single-stim	s617	False
0.1	94.096	0.374	94.47	0	PA_with_intermediate	test	ward_and_allport	71	5.0	0.374	to_board	poldrack-single-stim	s617	False
1.0	94.476	3.632	94.475	0	PA_with_intermediate	test	ward_and_allport	-1	5.0	n/a	feedback	poldrack-single-stim	s617	False
4.388	98.112	4.388	102.5	1	PA_without_intermediate	test	ward_and_allport	82	6.0	4.388	to_hand	poldrack-single-stim	s617	False
0.1	102.501	0.34	102.841	0	PA_without_intermediate	test	ward_and_allport	71	6.0	0.34	to_board	poldrack-single-stim	s617	False
0.1	102.845	1.613	104.458	0	PA_without_intermediate	test	ward_and_allport	82	6.0	1.613	to_hand	poldrack-single-stim	s617	False
0.1	104.459	0.334	104.793	0	PA_without_intermediate	test	ward_and_allport	89	6.0	0.334	to_board	poldrack-single-stim	s617	False
0.1	104.796	0.877	105.673	0	PA_without_intermediate	test	ward_and_allport	82	6.0	0.877	to_hand	poldrack-single-stim	s617	False
0.1	105.674	0.341	106.015	0	PA_without_intermediate	test	ward_and_allport	71	6.0	0.341	to_board	poldrack-single-stim	s617	False
1.0	106.022	2.408	106.021	0	PA_without_intermediate	test	ward_and_allport	-1	6.0	n/a	feedback	poldrack-single-stim	s617	False
2.624	108.433	2.624	111.057	1	PA_without_intermediate	test	ward_and_allport	82	7.0	2.624	to_hand	poldrack-single-stim	s617	False
0.1	111.059	0.322	111.381	0	PA_without_intermediate	test	ward_and_allport	89	7.0	0.322	to_board	poldrack-single-stim	s617	False
0.1	111.386	0.971	112.357	0	PA_without_intermediate	test	ward_and_allport	82	7.0	0.971	to_hand	poldrack-single-stim	s617	False
0.1	112.359	0.33	112.689	0	PA_without_intermediate	test	ward_and_allport	89	7.0	0.33	to_board	poldrack-single-stim	s617	False
0.1	112.693	1.38	114.073	0	PA_without_intermediate	test	ward_and_allport	82	7.0	1.38	to_hand	poldrack-single-stim	s617	False
0.1	114.075	0.33	114.405	0	PA_without_intermediate	test	ward_and_allport	71	7.0	0.33	to_board	poldrack-single-stim	s617	False
1.0	114.413	2.0	114.412	0	PA_without_intermediate	test	ward_and_allport	-1	7.0	n/a	feedback	poldrack-single-stim	s617	False
2.288	116.418	2.288	118.706	1	PA_with_intermediate	test	ward_and_allport	82	8.0	2.288	to_hand	poldrack-single-stim	s617	False
0.1	118.708	0.349	119.057	0	PA_with_intermediate	test	ward_and_allport	71	8.0	0.349	to_board	poldrack-single-stim	s617	False
0.1	119.062	1.177	120.239	0	PA_with_intermediate	test	ward_and_allport	82	8.0	1.177	to_hand	poldrack-single-stim	s617	False
0.1	120.24	0.388	120.628	0	PA_with_intermediate	test	ward_and_allport	89	8.0	0.388	to_board	poldrack-single-stim	s617	False
0.1	120.633	2.041	122.674	0	PA_with_intermediate	test	ward_and_allport	71	8.0	2.041	to_hand	poldrack-single-stim	s617	False
0.1	122.677	0.32	122.997	0	PA_with_intermediate	test	ward_and_allport	82	8.0	0.32	to_board	poldrack-single-stim	s617	False
1.0	123.006	2.0	123.005	0	PA_with_intermediate	test	ward_and_allport	-1	8.0	n/a	feedback	poldrack-single-stim	s617	False
2.12	125.01	2.12	127.13	1	PA_with_intermediate	test	ward_and_allport	89	9.0	2.12	to_hand	poldrack-single-stim	s617	False
0.1	127.131	1.211	128.342	0	PA_with_intermediate	test	ward_and_allport	82	9.0	1.211	to_board	poldrack-single-stim	s617	False
0.1	128.348	1.751	130.099	0	PA_with_intermediate	test	ward_and_allport	89	9.0	1.751	to_hand	poldrack-single-stim	s617	False
0.1	130.101	0.422	130.523	0	PA_with_intermediate	test	ward_and_allport	71	9.0	0.422	to_board	poldrack-single-stim	s617	False
0.1	130.527	1.44	131.967	0	PA_with_intermediate	test	ward_and_allport	82	9.0	1.44	to_hand	poldrack-single-stim	s617	False
0.1	131.968	0.307	132.275	0	PA_with_intermediate	test	ward_and_allport	89	9.0	0.307	to_board	poldrack-single-stim	s617	False
1.0	132.281	2.0	132.28	0	PA_with_intermediate	test	ward_and_allport	-1	9.0	n/a	feedback	poldrack-single-stim	s617	False
2.573	134.285	2.573	136.858	1	PA_with_intermediate	test	ward_and_allport	71	10.0	2.573	to_hand	poldrack-single-stim	s617	False
0.1	136.86	0.462	137.322	0	PA_with_intermediate	test	ward_and_allport	82	10.0	0.462	to_board	poldrack-single-stim	s617	False
0.1	137.328	0.858	138.186	0	PA_with_intermediate	test	ward_and_allport	71	10.0	0.858	to_hand	poldrack-single-stim	s617	False
0.1	138.187	0.341	138.528	0	PA_with_intermediate	test	ward_and_allport	89	10.0	0.341	to_board	poldrack-single-stim	s617	False
0.1	138.534	1.03	139.564	0	PA_with_intermediate	test	ward_and_allport	82	10.0	1.03	to_hand	poldrack-single-stim	s617	False
0.1	139.565	0.351	139.916	0	PA_with_intermediate	test	ward_and_allport	89	10.0	0.351	to_board	poldrack-single-stim	s617	False
1.0	139.926	2.408	139.925	0	PA_with_intermediate	test	ward_and_allport	-1	10.0	n/a	feedback	poldrack-single-stim	s617	False
2.308	142.339	2.308	144.647	1	PA_without_intermediate	test	ward_and_allport	89	11.0	2.308	to_hand	poldrack-single-stim	s617	False
0.1	144.649	0.358	145.007	0	PA_without_intermediate	test	ward_and_allport	71	11.0	0.358	to_board	poldrack-single-stim	s617	False
0.1	145.011	0.777	145.788	0	PA_without_intermediate	test	ward_and_allport	89	11.0	0.777	to_hand	poldrack-single-stim	s617	False
0.1	145.789	0.609	146.398	0	PA_without_intermediate	test	ward_and_allport	71	11.0	0.609	to_board	poldrack-single-stim	s617	False
0.1	146.403	0.78	147.183	0	PA_without_intermediate	test	ward_and_allport	89	11.0	0.78	to_hand	poldrack-single-stim	s617	False
0.1	147.185	0.529	147.714	0	PA_without_intermediate	test	ward_and_allport	82	11.0	0.529	to_board	poldrack-single-stim	s617	False
1.0	147.721	2.816	147.72	0	PA_without_intermediate	test	ward_and_allport	-1	11.0	n/a	feedback	poldrack-single-stim	s617	False
2.798	150.541	2.798	153.339	1	PA_with_intermediate	test	ward_and_allport	82	12.0	2.798	to_hand	poldrack-single-stim	s617	False
0.1	153.341	0.374	153.715	0	PA_with_intermediate	test	ward_and_allport	71	12.0	0.374	to_board	poldrack-single-stim	s617	False
0.1	153.72	1.289	155.009	0	PA_with_intermediate	test	ward_and_allport	82	12.0	1.289	to_hand	poldrack-single-stim	s617	False
0.1	155.01	0.349	155.359	0	PA_with_intermediate	test	ward_and_allport	89	12.0	0.349	to_board	poldrack-single-stim	s617	False
0.1	155.364	1.554	156.918	0	PA_with_intermediate	test	ward_and_allport	71	12.0	1.554	to_hand	poldrack-single-stim	s617	False
0.1	156.919	0.379	157.298	0	PA_with_intermediate	test	ward_and_allport	82	12.0	0.379	to_board	poldrack-single-stim	s617	False
1.0	157.305	4.176	157.304	0	PA_with_intermediate	test	ward_and_allport	-1	12.0	n/a	feedback	poldrack-single-stim	s617	False
2.098	161.487	2.098	163.585	1	PA_with_intermediate	test	ward_and_allport	82	13.0	2.098	to_hand	poldrack-single-stim	s617	False
0.1	163.586	0.677	164.263	0	PA_with_intermediate	test	ward_and_allport	71	13.0	0.677	to_board	poldrack-single-stim	s617	False
0.1	164.269	2.692	166.961	0	PA_with_intermediate	test	ward_and_allport	82	13.0	2.692	to_hand	poldrack-single-stim	s617	False
0.1	166.963	0.396	167.359	0	PA_with_intermediate	test	ward_and_allport	89	13.0	0.396	to_board	poldrack-single-stim	s617	False
0.1	167.364	1.4	168.764	0	PA_with_intermediate	test	ward_and_allport	71	13.0	1.4	to_hand	poldrack-single-stim	s617	False
0.1	168.765	0.426	169.191	0	PA_with_intermediate	test	ward_and_allport	82	13.0	0.426	to_board	poldrack-single-stim	s617	False
0.1	169.196	0.629	169.825	0	PA_with_intermediate	test	ward_and_allport	89	13.0	0.629	to_hand	poldrack-single-stim	s617	False
0.1	169.826	0.402	170.228	0	PA_with_intermediate	test	ward_and_allport	71	13.0	0.402	to_board	poldrack-single-stim	s617	False
1.0	170.233	3.36	170.232	0	PA_with_intermediate	test	ward_and_allport	-1	13.0	n/a	feedback	poldrack-single-stim	s617	False
3.163	173.599	3.163	176.762	1	PA_with_intermediate	test	ward_and_allport	82	14.0	3.163	to_hand	poldrack-single-stim	s617	False
0.1	176.764	0.335	177.099	0	PA_with_intermediate	test	ward_and_allport	89	14.0	0.335	to_board	poldrack-single-stim	s617	False
0.1	177.103	1.877	178.98	0	PA_with_intermediate	test	ward_and_allport	82	14.0	1.877	to_hand	poldrack-single-stim	s617	False
0.1	178.982	0.359	179.341	0	PA_with_intermediate	test	ward_and_allport	71	14.0	0.359	to_board	poldrack-single-stim	s617	False
0.1	179.346	1.39	180.736	0	PA_with_intermediate	test	ward_and_allport	89	14.0	1.39	to_hand	poldrack-single-stim	s617	False
0.1	180.738	0.382	181.12	0	PA_with_intermediate	test	ward_and_allport	71	14.0	0.382	to_board	poldrack-single-stim	s617	False
1.0	181.13	2.0	181.129	0	PA_with_intermediate	test	ward_and_allport	-1	14.0	n/a	feedback	poldrack-single-stim	s617	False
2.313	188.137	2.313	190.45	1	PA_without_intermediate	test	ward_and_allport	89	15.0	2.313	to_hand	poldrack-single-stim	s617	False
0.1	190.451	0.342	190.793	0	PA_without_intermediate	test	ward_and_allport	82	15.0	0.342	to_board	poldrack-single-stim	s617	False
0.1	190.799	1.591	192.39	0	PA_without_intermediate	test	ward_and_allport	89	15.0	1.591	to_hand	poldrack-single-stim	s617	False
0.1	192.391	0.336	192.727	0	PA_without_intermediate	test	ward_and_allport	71	15.0	0.336	to_board	poldrack-single-stim	s617	False
0.1	192.731	0.56	193.291	0	PA_without_intermediate	test	ward_and_allport	89	15.0	0.56	to_hand	poldrack-single-stim	s617	False
0.1	193.293	0.355	193.648	0	PA_without_intermediate	test	ward_and_allport	82	15.0	0.355	to_board	poldrack-single-stim	s617	False
1.0	193.657	2.408	193.656	0	PA_without_intermediate	test	ward_and_allport	-1	15.0	n/a	feedback	poldrack-single-stim	s617	False
2.538	196.07	2.538	198.608	1	PA_with_intermediate	test	ward_and_allport	82	16.0	2.538	to_hand	poldrack-single-stim	s617	False
0.1	198.609	0.299	198.908	0	PA_with_intermediate	test	ward_and_allport	89	16.0	0.299	to_board	poldrack-single-stim	s617	False
0.1	198.914	1.633	200.547	0	PA_with_intermediate	test	ward_and_allport	82	16.0	1.633	to_hand	poldrack-single-stim	s617	False
0.1	200.548	0.344	200.892	0	PA_with_intermediate	test	ward_and_allport	71	16.0	0.344	to_board	poldrack-single-stim	s617	False
0.1	200.897	0.852	201.749	0	PA_with_intermediate	test	ward_and_allport	89	16.0	0.852	to_hand	poldrack-single-stim	s617	False
0.1	201.75	0.306	202.056	0	PA_with_intermediate	test	ward_and_allport	71	16.0	0.306	to_board	poldrack-single-stim	s617	False
1.0	202.064	2.816	202.063	0	PA_with_intermediate	test	ward_and_allport	-1	16.0	n/a	feedback	poldrack-single-stim	s617	False
1.91	204.886	1.91	206.796	1	PA_without_intermediate	test	ward_and_allport	82	17.0	1.91	to_hand	poldrack-single-stim	s617	False
0.1	206.798	0.352	207.15	0	PA_without_intermediate	test	ward_and_allport	71	17.0	0.352	to_board	poldrack-single-stim	s617	False
0.1	207.156	0.708	207.864	0	PA_without_intermediate	test	ward_and_allport	82	17.0	0.708	to_hand	poldrack-single-stim	s617	False
0.1	207.865	0.524	208.389	0	PA_without_intermediate	test	ward_and_allport	71	17.0	0.524	to_board	poldrack-single-stim	s617	False
0.1	208.395	1.206	209.601	0	PA_without_intermediate	test	ward_and_allport	82	17.0	1.206	to_hand	poldrack-single-stim	s617	False
0.1	209.603	0.304	209.907	0	PA_without_intermediate	test	ward_and_allport	89	17.0	0.304	to_board	poldrack-single-stim	s617	False
1.0	209.916	3.088	209.915	0	PA_without_intermediate	test	ward_and_allport	-1	17.0	n/a	feedback	poldrack-single-stim	s617	False
2.12	213.01	2.12	215.13	1	PA_without_intermediate	test	ward_and_allport	89	18.0	2.12	to_hand	poldrack-single-stim	s617	False
0.1	215.132	0.413	215.545	0	PA_without_intermediate	test	ward_and_allport	71	18.0	0.413	to_board	poldrack-single-stim	s617	False
0.1	215.55	0.979	216.529	0	PA_without_intermediate	test	ward_and_allport	89	18.0	0.979	to_hand	poldrack-single-stim	s617	False
0.1	216.531	0.385	216.916	0	PA_without_intermediate	test	ward_and_allport	71	18.0	0.385	to_board	poldrack-single-stim	s617	False
0.1	216.921	0.959	217.88	0	PA_without_intermediate	test	ward_and_allport	89	18.0	0.959	to_hand	poldrack-single-stim	s617	False
0.1	217.881	0.48	218.361	0	PA_without_intermediate	test	ward_and_allport	82	18.0	0.48	to_board	poldrack-single-stim	s617	False
1.0	218.371	2.136	218.37	0	PA_without_intermediate	test	ward_and_allport	-1	18.0	n/a	feedback	poldrack-single-stim	s617	False
2.674	220.512	2.674	223.186	1	PA_without_intermediate	test	ward_and_allport	71	19.0	2.674	to_hand	poldrack-single-stim	s617	False
0.1	223.187	0.339	223.526	0	PA_without_intermediate	test	ward_and_allport	89	19.0	0.339	to_board	poldrack-single-stim	s617	False
0.1	223.533	0.712	224.245	0	PA_without_intermediate	test	ward_and_allport	71	19.0	0.712	to_hand	poldrack-single-stim	s617	False
0.1	224.245	0.311	224.556	0	PA_without_intermediate	test	ward_and_allport	89	19.0	0.311	to_board	poldrack-single-stim	s617	False
0.1	224.561	0.429	224.99	0	PA_without_intermediate	test	ward_and_allport	71	19.0	0.429	to_hand	poldrack-single-stim	s617	False
0.1	224.992	0.354	225.346	0	PA_without_intermediate	test	ward_and_allport	82	19.0	0.354	to_board	poldrack-single-stim	s617	False
1.0	225.355	7.168	225.354	0	PA_without_intermediate	test	ward_and_allport	-1	19.0	n/a	feedback	poldrack-single-stim	s617	False
1.52	232.529	1.52	234.049	1	PA_without_intermediate	test	ward_and_allport	71	20.0	1.52	to_hand	poldrack-single-stim	s617	False
0.1	234.05	0.417	234.467	0	PA_without_intermediate	test	ward_and_allport	82	20.0	0.417	to_board	poldrack-single-stim	s617	False
0.1	234.473	0.432	234.905	0	PA_without_intermediate	test	ward_and_allport	71	20.0	0.432	to_hand	poldrack-single-stim	s617	False
0.1	234.906	0.649	235.555	0	PA_without_intermediate	test	ward_and_allport	82	20.0	0.649	to_board	poldrack-single-stim	s617	False
0.1	235.561	0.569	236.13	0	PA_without_intermediate	test	ward_and_allport	71	20.0	0.569	to_hand	poldrack-single-stim	s617	False
0.1	236.131	0.31	236.441	0	PA_without_intermediate	test	ward_and_allport	89	20.0	0.31	to_board	poldrack-single-stim	s617	False
1.0	236.45	2.816	236.449	0	PA_without_intermediate	test	ward_and_allport	-1	20.0	n/a	feedback	poldrack-single-stim	s617	False
2.368	239.272	2.368	241.64	1	PA_with_intermediate	test	ward_and_allport	89	21.0	2.368	to_hand	poldrack-single-stim	s617	False
0.1	241.642	0.334	241.976	0	PA_with_intermediate	test	ward_and_allport	71	21.0	0.334	to_board	poldrack-single-stim	s617	False
0.1	241.982	0.845	242.827	0	PA_with_intermediate	test	ward_and_allport	89	21.0	0.845	to_hand	poldrack-single-stim	s617	False
0.1	242.829	0.593	243.422	0	PA_with_intermediate	test	ward_and_allport	82	21.0	0.593	to_board	poldrack-single-stim	s617	False
0.1	243.428	0.564	243.992	0	PA_with_intermediate	test	ward_and_allport	71	21.0	0.564	to_hand	poldrack-single-stim	s617	False
0.1	243.993	0.407	244.4	0	PA_with_intermediate	test	ward_and_allport	82	21.0	0.407	to_board	poldrack-single-stim	s617	False
1.0	244.409	2.952	244.408	0	PA_with_intermediate	test	ward_and_allport	-1	21.0	n/a	feedback	poldrack-single-stim	s617	False
2.92	247.368	2.92	250.288	1	PA_with_intermediate	test	ward_and_allport	89	22.0	2.92	to_hand	poldrack-single-stim	s617	False
0.1	250.289	0.513	250.802	0	PA_with_intermediate	test	ward_and_allport	82	22.0	0.513	to_board	poldrack-single-stim	s617	False
0.1	250.809	1.453	252.262	0	PA_with_intermediate	test	ward_and_allport	89	22.0	1.453	to_hand	poldrack-single-stim	s617	False
0.1	252.264	0.401	252.665	0	PA_with_intermediate	test	ward_and_allport	71	22.0	0.401	to_board	poldrack-single-stim	s617	False
0.1	252.671	0.584	253.255	0	PA_with_intermediate	test	ward_and_allport	82	22.0	0.584	to_hand	poldrack-single-stim	s617	False
0.1	253.256	0.328	253.584	0	PA_with_intermediate	test	ward_and_allport	89	22.0	0.328	to_board	poldrack-single-stim	s617	False
1.0	253.594	2.136	253.593	0	PA_with_intermediate	test	ward_and_allport	-1	22.0	n/a	feedback	poldrack-single-stim	s617	False
2.3	255.737	2.3	258.037	1	PA_without_intermediate	test	ward_and_allport	71	23.0	2.3	to_hand	poldrack-single-stim	s617	False
0.1	258.038	0.415	258.453	0	PA_without_intermediate	test	ward_and_allport	82	23.0	0.415	to_board	poldrack-single-stim	s617	False
0.1	258.462	1.268	259.73	0	PA_without_intermediate	test	ward_and_allport	71	23.0	1.268	to_hand	poldrack-single-stim	s617	False
0.1	259.731	0.358	260.089	0	PA_without_intermediate	test	ward_and_allport	82	23.0	0.358	to_board	poldrack-single-stim	s617	False
0.1	260.096	0.429	260.525	0	PA_without_intermediate	test	ward_and_allport	71	23.0	0.429	to_hand	poldrack-single-stim	s617	False
0.1	260.527	0.29	260.817	0	PA_without_intermediate	test	ward_and_allport	89	23.0	0.29	to_board	poldrack-single-stim	s617	False
1.0	260.826	2.68	260.825	0	PA_without_intermediate	test	ward_and_allport	-1	23.0	n/a	feedback	poldrack-single-stim	s617	False
1.725	263.514	1.725	265.239	1	PA_without_intermediate	test	ward_and_allport	89	24.0	1.725	to_hand	poldrack-single-stim	s617	False
0.1	265.24	0.34	265.58	0	PA_without_intermediate	test	ward_and_allport	71	24.0	0.34	to_board	poldrack-single-stim	s617	False
0.1	265.588	0.649	266.237	0	PA_without_intermediate	test	ward_and_allport	89	24.0	0.649	to_hand	poldrack-single-stim	s617	False
0.1	266.238	0.372	266.61	0	PA_without_intermediate	test	ward_and_allport	82	24.0	0.372	to_board	poldrack-single-stim	s617	False
0.1	266.618	0.431	267.049	0	PA_without_intermediate	test	ward_and_allport	89	24.0	0.431	to_hand	poldrack-single-stim	s617	False
0.1	267.05	0.352	267.402	0	PA_without_intermediate	test	ward_and_allport	71	24.0	0.352	to_board	poldrack-single-stim	s617	False
1.0	267.41	3.088	267.409	0	PA_without_intermediate	test	ward_and_allport	-1	24.0	n/a	feedback	poldrack-single-stim	s617	False
2.689	270.506	2.689	273.195	1	PA_with_intermediate	test	ward_and_allport	82	25.0	2.689	to_hand	poldrack-single-stim	s617	False
0.1	273.196	0.316	273.512	0	PA_with_intermediate	test	ward_and_allport	89	25.0	0.316	to_board	poldrack-single-stim	s617	False
0.1	273.521	1.7	275.221	0	PA_with_intermediate	test	ward_and_allport	82	25.0	1.7	to_hand	poldrack-single-stim	s617	False
0.1	275.223	0.307	275.53	0	PA_with_intermediate	test	ward_and_allport	71	25.0	0.307	to_board	poldrack-single-stim	s617	False
0.1	275.541	0.38	275.921	0	PA_with_intermediate	test	ward_and_allport	89	25.0	0.38	to_hand	poldrack-single-stim	s617	False
0.1	275.923	0.364	276.287	0	PA_with_intermediate	test	ward_and_allport	82	25.0	0.364	to_board	poldrack-single-stim	s617	False
1.0	276.296	2.0	276.295	0	PA_with_intermediate	test	ward_and_allport	-1	25.0	n/a	feedback	poldrack-single-stim	s617	False
1.67	278.304	1.67	279.974	1	PA_without_intermediate	test	ward_and_allport	89	26.0	1.67	to_hand	poldrack-single-stim	s617	False
0.1	279.975	0.508	280.483	0	PA_without_intermediate	test	ward_and_allport	82	26.0	0.508	to_board	poldrack-single-stim	s617	False
0.1	280.492	0.99	281.482	0	PA_without_intermediate	test	ward_and_allport	89	26.0	0.99	to_hand	poldrack-single-stim	s617	False
0.1	281.484	0.281	281.765	0	PA_without_intermediate	test	ward_and_allport	71	26.0	0.281	to_board	poldrack-single-stim	s617	False
0.1	281.773	0.369	282.142	0	PA_without_intermediate	test	ward_and_allport	89	26.0	0.369	to_hand	poldrack-single-stim	s617	False
0.1	282.144	0.337	282.481	0	PA_without_intermediate	test	ward_and_allport	82	26.0	0.337	to_board	poldrack-single-stim	s617	False
1.0	282.493	2.0	282.492	0	PA_without_intermediate	test	ward_and_allport	-1	26.0	n/a	feedback	poldrack-single-stim	s617	False
1.512	284.5	1.512	286.012	1	PA_without_intermediate	test	ward_and_allport	82	27.0	1.512	to_hand	poldrack-single-stim	s617	False
0.1	286.013	0.752	286.765	0	PA_without_intermediate	test	ward_and_allport	71	27.0	0.752	to_board	poldrack-single-stim	s617	False
0.1	286.773	0.898	287.671	0	PA_without_intermediate	test	ward_and_allport	82	27.0	0.898	to_hand	poldrack-single-stim	s617	False
0.1	287.672	0.364	288.036	0	PA_without_intermediate	test	ward_and_allport	71	27.0	0.364	to_board	poldrack-single-stim	s617	False
0.1	288.045	1.205	289.25	0	PA_without_intermediate	test	ward_and_allport	82	27.0	1.205	to_hand	poldrack-single-stim	s617	False
0.1	289.251	0.285	289.536	0	PA_without_intermediate	test	ward_and_allport	89	27.0	0.285	to_board	poldrack-single-stim	s617	False
1.0	289.549	2.0	289.548	0	PA_without_intermediate	test	ward_and_allport	-1	27.0	n/a	feedback	poldrack-single-stim	s617	False
1.766	291.558	1.766	293.324	1	PA_with_intermediate	test	ward_and_allport	89	28.0	1.766	to_hand	poldrack-single-stim	s617	False
0.1	293.324	0.339	293.663	0	PA_with_intermediate	test	ward_and_allport	82	28.0	0.339	to_board	poldrack-single-stim	s617	False
0.1	293.672	0.359	294.031	0	PA_with_intermediate	test	ward_and_allport	89	28.0	0.359	to_hand	poldrack-single-stim	s617	False
0.1	294.032	0.4	294.432	0	PA_with_intermediate	test	ward_and_allport	71	28.0	0.4	to_board	poldrack-single-stim	s617	False
0.1	294.442	0.421	294.863	0	PA_with_intermediate	test	ward_and_allport	82	28.0	0.421	to_hand	poldrack-single-stim	s617	False
0.1	294.865	0.32	295.185	0	PA_with_intermediate	test	ward_and_allport	89	28.0	0.32	to_board	poldrack-single-stim	s617	False
0.1	295.193	2.139	297.332	0	PA_with_intermediate	test	ward_and_allport	89	28.0	2.139	to_hand	poldrack-single-stim	s617	False
0.1	297.333	0.708	298.041	0	PA_with_intermediate	test	ward_and_allport	71	28.0	0.708	to_board	poldrack-single-stim	s617	False
1.0	298.053	2.544	298.052	0	PA_with_intermediate	test	ward_and_allport	-1	28.0	n/a	feedback	poldrack-single-stim	s617	False
1.668	300.605	1.668	302.273	1	PA_without_intermediate	test	ward_and_allport	82	29.0	1.668	to_hand	poldrack-single-stim	s617	False
0.1	302.274	0.409	302.683	0	PA_without_intermediate	test	ward_and_allport	89	29.0	0.409	to_board	poldrack-single-stim	s617	False
0.1	302.692	2.295	304.987	0	PA_without_intermediate	test	ward_and_allport	89	29.0	2.295	to_hand	poldrack-single-stim	s617	False
0.1	304.988	0.657	305.645	0	PA_without_intermediate	test	ward_and_allport	71	29.0	0.657	to_board	poldrack-single-stim	s617	False
0.1	305.654	1.425	307.079	0	PA_without_intermediate	test	ward_and_allport	82	29.0	1.425	to_hand	poldrack-single-stim	s617	False
0.1	307.081	0.347	307.428	0	PA_without_intermediate	test	ward_and_allport	89	29.0	0.347	to_board	poldrack-single-stim	s617	False
0.1	307.437	0.853	308.29	0	PA_without_intermediate	test	ward_and_allport	82	29.0	0.853	to_hand	poldrack-single-stim	s617	False
0.1	308.292	0.337	308.629	0	PA_without_intermediate	test	ward_and_allport	71	29.0	0.337	to_board	poldrack-single-stim	s617	False
1.0	308.643	2.272	308.642	0	PA_without_intermediate	test	ward_and_allport	-1	29.0	n/a	feedback	poldrack-single-stim	s617	False
3.859	315.925	3.859	319.784	1	PA_with_intermediate	test	ward_and_allport	82	30.0	3.859	to_hand	poldrack-single-stim	s617	False
0.1	319.785	0.483	320.268	0	PA_with_intermediate	test	ward_and_allport	71	30.0	0.483	to_board	poldrack-single-stim	s617	False
0.1	320.278	0.911	321.189	0	PA_with_intermediate	test	ward_and_allport	82	30.0	0.911	to_hand	poldrack-single-stim	s617	False
0.1	321.189	0.277	321.466	0	PA_with_intermediate	test	ward_and_allport	89	30.0	0.277	to_board	poldrack-single-stim	s617	False
0.1	321.474	0.461	321.935	0	PA_with_intermediate	test	ward_and_allport	71	30.0	0.461	to_hand	poldrack-single-stim	s617	False
0.1	321.936	0.252	322.188	0	PA_with_intermediate	test	ward_and_allport	89	30.0	0.252	to_board	poldrack-single-stim	s617	False
1.0	322.204	4.04	322.203	0	PA_with_intermediate	test	ward_and_allport	-1	30.0	n/a	feedback	poldrack-single-stim	s617	False
6.601	326.255	6.601	332.856	1	PA_with_intermediate	test	ward_and_allport	71	31.0	6.601	to_hand	poldrack-single-stim	s617	False
0.1	332.857	0.293	333.15	0	PA_with_intermediate	test	ward_and_allport	89	31.0	0.293	to_board	poldrack-single-stim	s617	False
0.1	333.161	0.416	333.577	0	PA_with_intermediate	test	ward_and_allport	71	31.0	0.416	to_hand	poldrack-single-stim	s617	False
0.1	333.578	0.343	333.921	0	PA_with_intermediate	test	ward_and_allport	82	31.0	0.343	to_board	poldrack-single-stim	s617	False
0.1	333.931	0.398	334.329	0	PA_with_intermediate	test	ward_and_allport	89	31.0	0.398	to_hand	poldrack-single-stim	s617	False
0.1	334.33	0.348	334.678	0	PA_with_intermediate	test	ward_and_allport	71	31.0	0.348	to_board	poldrack-single-stim	s617	False
1.0	334.692	2.272	334.691	0	PA_with_intermediate	test	ward_and_allport	-1	31.0	n/a	feedback	poldrack-single-stim	s617	False
3.352	336.975	3.352	340.327	1	PA_with_intermediate	test	ward_and_allport	89	32.0	3.352	to_hand	poldrack-single-stim	s617	False
0.1	340.328	0.315	340.643	0	PA_with_intermediate	test	ward_and_allport	71	32.0	0.315	to_board	poldrack-single-stim	s617	False
0.1	340.654	0.33	340.984	0	PA_with_intermediate	test	ward_and_allport	89	32.0	0.33	to_hand	poldrack-single-stim	s617	False
0.1	340.986	0.371	341.357	0	PA_with_intermediate	test	ward_and_allport	82	32.0	0.371	to_board	poldrack-single-stim	s617	False
0.1	341.368	0.309	341.677	0	PA_with_intermediate	test	ward_and_allport	71	32.0	0.309	to_hand	poldrack-single-stim	s617	False
0.1	341.678	0.295	341.973	0	PA_with_intermediate	test	ward_and_allport	89	32.0	0.295	to_board	poldrack-single-stim	s617	False
1.0	341.985	2.136	341.984	0	PA_with_intermediate	test	ward_and_allport	-1	32.0	n/a	feedback	poldrack-single-stim	s617	False
2.962	344.128	2.962	347.09	1	PA_with_intermediate	test	ward_and_allport	71	33.0	2.962	to_hand	poldrack-single-stim	s617	False
0.1	347.092	0.273	347.365	0	PA_with_intermediate	test	ward_and_allport	89	33.0	0.273	to_board	poldrack-single-stim	s617	False
0.1	347.372	0.308	347.68	0	PA_with_intermediate	test	ward_and_allport	71	33.0	0.308	to_hand	poldrack-single-stim	s617	False
0.1	347.681	0.351	348.032	0	PA_with_intermediate	test	ward_and_allport	82	33.0	0.351	to_board	poldrack-single-stim	s617	False
0.1	348.043	0.293	348.336	0	PA_with_intermediate	test	ward_and_allport	89	33.0	0.293	to_hand	poldrack-single-stim	s617	False
0.1	348.338	0.434	348.772	0	PA_with_intermediate	test	ward_and_allport	82	33.0	0.434	to_board	poldrack-single-stim	s617	False
1.0	348.783	2.0	348.782	0	PA_with_intermediate	test	ward_and_allport	-1	33.0	n/a	feedback	poldrack-single-stim	s617	False
1.911	350.791	1.911	352.702	1	PA_with_intermediate	test	ward_and_allport	89	34.0	1.911	to_hand	poldrack-single-stim	s617	False
0.1	352.704	0.311	353.015	0	PA_with_intermediate	test	ward_and_allport	82	34.0	0.311	to_board	poldrack-single-stim	s617	False
0.1	353.021	0.298	353.319	0	PA_with_intermediate	test	ward_and_allport	89	34.0	0.298	to_hand	poldrack-single-stim	s617	False
0.1	353.32	0.425	353.745	0	PA_with_intermediate	test	ward_and_allport	71	34.0	0.425	to_board	poldrack-single-stim	s617	False
0.1	353.753	0.894	354.647	0	PA_with_intermediate	test	ward_and_allport	82	34.0	0.894	to_hand	poldrack-single-stim	s617	False
0.1	354.648	0.258	354.906	0	PA_with_intermediate	test	ward_and_allport	89	34.0	0.258	to_board	poldrack-single-stim	s617	False
0.1	354.912	2.008	356.92	0	PA_with_intermediate	test	ward_and_allport	89	34.0	2.008	to_hand	poldrack-single-stim	s617	False
0.1	356.922	0.296	357.218	0	PA_with_intermediate	test	ward_and_allport	71	34.0	0.296	to_board	poldrack-single-stim	s617	False
1.0	357.226	2.0	357.225	0	PA_with_intermediate	test	ward_and_allport	-1	34.0	n/a	feedback	poldrack-single-stim	s617	False
3.304	359.236	3.304	362.54	1	PA_without_intermediate	test	ward_and_allport	71	35.0	3.304	to_hand	poldrack-single-stim	s617	False
0.1	362.541	0.277	362.818	0	PA_without_intermediate	test	ward_and_allport	89	35.0	0.277	to_board	poldrack-single-stim	s617	False
0.1	362.831	0.377	363.208	0	PA_without_intermediate	test	ward_and_allport	71	35.0	0.377	to_hand	poldrack-single-stim	s617	False
0.1	363.209	0.339	363.548	0	PA_without_intermediate	test	ward_and_allport	82	35.0	0.339	to_board	poldrack-single-stim	s617	False
0.1	363.56	0.293	363.853	0	PA_without_intermediate	test	ward_and_allport	71	35.0	0.293	to_hand	poldrack-single-stim	s617	False
0.1	363.854	0.285	364.139	0	PA_without_intermediate	test	ward_and_allport	89	35.0	0.285	to_board	poldrack-single-stim	s617	False
1.0	364.152	2.408	364.151	0	PA_without_intermediate	test	ward_and_allport	-1	35.0	n/a	feedback	poldrack-single-stim	s617	False
2.628	366.567	2.628	369.195	1	PA_with_intermediate	test	ward_and_allport	89	36.0	2.628	to_hand	poldrack-single-stim	s617	False
0.1	369.196	0.699	369.895	0	PA_with_intermediate	test	ward_and_allport	71	36.0	0.699	to_board	poldrack-single-stim	s617	False
0.1	369.902	0.343	370.245	0	PA_with_intermediate	test	ward_and_allport	89	36.0	0.343	to_hand	poldrack-single-stim	s617	False
0.1	370.247	0.407	370.654	0	PA_with_intermediate	test	ward_and_allport	82	36.0	0.407	to_board	poldrack-single-stim	s617	False
0.1	370.666	1.265	371.931	0	PA_with_intermediate	test	ward_and_allport	71	36.0	1.265	to_hand	poldrack-single-stim	s617	False
0.1	371.933	0.231	372.164	0	PA_with_intermediate	test	ward_and_allport	89	36.0	0.231	to_board	poldrack-single-stim	s617	False
1.0	372.179	3.768	372.178	0	PA_with_intermediate	test	ward_and_allport	-1	36.0	n/a	feedback	poldrack-single-stim	s617	False
2.737	375.96	2.737	378.697	1	PA_with_intermediate	test	ward_and_allport	71	37.0	2.737	to_hand	poldrack-single-stim	s617	False
0.1	378.698	0.313	379.011	0	PA_with_intermediate	test	ward_and_allport	89	37.0	0.313	to_board	poldrack-single-stim	s617	False
0.1	379.02	0.594	379.614	0	PA_with_intermediate	test	ward_and_allport	71	37.0	0.594	to_hand	poldrack-single-stim	s617	False
0.1	379.616	0.327	379.943	0	PA_with_intermediate	test	ward_and_allport	82	37.0	0.327	to_board	poldrack-single-stim	s617	False
0.1	379.954	0.383	380.337	0	PA_with_intermediate	test	ward_and_allport	89	37.0	0.383	to_hand	poldrack-single-stim	s617	False
0.1	380.338	0.281	380.619	0	PA_with_intermediate	test	ward_and_allport	71	37.0	0.281	to_board	poldrack-single-stim	s617	False
1.0	380.632	2.68	380.631	0	PA_with_intermediate	test	ward_and_allport	-1	37.0	n/a	feedback	poldrack-single-stim	s617	False
1.807	383.323	1.807	385.13	1	PA_without_intermediate	test	ward_and_allport	89	38.0	1.807	to_hand	poldrack-single-stim	s617	False
0.1	385.131	0.302	385.433	0	PA_without_intermediate	test	ward_and_allport	82	38.0	0.302	to_board	poldrack-single-stim	s617	False
0.1	385.44	0.318	385.758	0	PA_without_intermediate	test	ward_and_allport	89	38.0	0.318	to_hand	poldrack-single-stim	s617	False
0.1	385.759	0.301	386.06	0	PA_without_intermediate	test	ward_and_allport	82	38.0	0.301	to_board	poldrack-single-stim	s617	False
0.1	386.069	0.575	386.644	0	PA_without_intermediate	test	ward_and_allport	89	38.0	0.575	to_hand	poldrack-single-stim	s617	False
0.1	386.645	0.241	386.886	0	PA_without_intermediate	test	ward_and_allport	71	38.0	0.241	to_board	poldrack-single-stim	s617	False
1.0	386.894	3.224	386.893	0	PA_without_intermediate	test	ward_and_allport	-1	38.0	n/a	feedback	poldrack-single-stim	s617	False
1.378	390.128	1.378	391.506	1	PA_without_intermediate	test	ward_and_allport	89	39.0	1.378	to_hand	poldrack-single-stim	s617	False
0.1	391.507	0.301	391.808	0	PA_without_intermediate	test	ward_and_allport	82	39.0	0.301	to_board	poldrack-single-stim	s617	False
0.1	391.819	0.293	392.112	0	PA_without_intermediate	test	ward_and_allport	89	39.0	0.293	to_hand	poldrack-single-stim	s617	False
0.1	392.113	1.001	393.114	0	PA_without_intermediate	test	ward_and_allport	82	39.0	1.001	to_board	poldrack-single-stim	s617	False
0.1	393.126	0.383	393.509	0	PA_without_intermediate	test	ward_and_allport	89	39.0	0.383	to_hand	poldrack-single-stim	s617	False
0.1	393.51	0.286	393.796	0	PA_without_intermediate	test	ward_and_allport	71	39.0	0.286	to_board	poldrack-single-stim	s617	False
1.0	393.809	3.36	393.808	0	PA_without_intermediate	test	ward_and_allport	-1	39.0	n/a	feedback	poldrack-single-stim	s617	False
1.847	397.177	1.847	399.024	1	PA_without_intermediate	test	ward_and_allport	71	40.0	1.847	to_hand	poldrack-single-stim	s617	False
0.1	399.025	0.347	399.372	0	PA_without_intermediate	test	ward_and_allport	82	40.0	0.347	to_board	poldrack-single-stim	s617	False
0.1	399.382	0.488	399.87	0	PA_without_intermediate	test	ward_and_allport	71	40.0	0.488	to_hand	poldrack-single-stim	s617	False
0.1	399.871	0.318	400.189	0	PA_without_intermediate	test	ward_and_allport	89	40.0	0.318	to_board	poldrack-single-stim	s617	False
0.1	400.201	0.269	400.47	0	PA_without_intermediate	test	ward_and_allport	71	40.0	0.269	to_hand	poldrack-single-stim	s617	False
0.1	400.472	0.313	400.785	0	PA_without_intermediate	test	ward_and_allport	82	40.0	0.313	to_board	poldrack-single-stim	s617	False
1.0	400.801	2.0	400.8	0	PA_without_intermediate	test	ward_and_allport	-1	40.0	n/a	feedback	poldrack-single-stim	s617	False
1.64	402.81	1.64	404.45	1	PA_without_intermediate	test	ward_and_allport	82	41.0	1.64	to_hand	poldrack-single-stim	s617	False
0.1	404.451	0.293	404.744	0	PA_without_intermediate	test	ward_and_allport	89	41.0	0.293	to_board	poldrack-single-stim	s617	False
0.1	404.752	1.077	405.829	0	PA_without_intermediate	test	ward_and_allport	82	41.0	1.077	to_hand	poldrack-single-stim	s617	False
0.1	405.83	0.328	406.158	0	PA_without_intermediate	test	ward_and_allport	71	41.0	0.328	to_board	poldrack-single-stim	s617	False
0.1	406.166	0.843	407.009	0	PA_without_intermediate	test	ward_and_allport	82	41.0	0.843	to_hand	poldrack-single-stim	s617	False
0.1	407.011	0.3	407.311	0	PA_without_intermediate	test	ward_and_allport	89	41.0	0.3	to_board	poldrack-single-stim	s617	False
1.0	407.321	2.408	407.32	0	PA_without_intermediate	test	ward_and_allport	-1	41.0	n/a	feedback	poldrack-single-stim	s617	False
2.131	409.736	2.131	411.867	1	PA_with_intermediate	test	ward_and_allport	71	42.0	2.131	to_hand	poldrack-single-stim	s617	False
0.1	411.868	0.341	412.209	0	PA_with_intermediate	test	ward_and_allport	82	42.0	0.341	to_board	poldrack-single-stim	s617	False
0.1	412.218	0.36	412.578	0	PA_with_intermediate	test	ward_and_allport	71	42.0	0.36	to_hand	poldrack-single-stim	s617	False
0.1	412.58	0.3	412.88	0	PA_with_intermediate	test	ward_and_allport	89	42.0	0.3	to_board	poldrack-single-stim	s617	False
0.1	412.891	0.9	413.791	0	PA_with_intermediate	test	ward_and_allport	82	42.0	0.9	to_hand	poldrack-single-stim	s617	False
0.1	413.793	0.314	414.107	0	PA_with_intermediate	test	ward_and_allport	89	42.0	0.314	to_board	poldrack-single-stim	s617	False
1.0	414.121	2.136	414.12	0	PA_with_intermediate	test	ward_and_allport	-1	42.0	n/a	feedback	poldrack-single-stim	s617	False
2.231	416.269	2.231	418.5	1	PA_without_intermediate	test	ward_and_allport	89	43.0	2.231	to_hand	poldrack-single-stim	s617	False
0.1	418.502	1.277	419.779	0	PA_without_intermediate	test	ward_and_allport	71	43.0	1.277	to_board	poldrack-single-stim	s617	False
0.1	419.788	0.853	420.641	0	PA_without_intermediate	test	ward_and_allport	89	43.0	0.853	to_hand	poldrack-single-stim	s617	False
0.1	420.641	0.37	421.011	0	PA_without_intermediate	test	ward_and_allport	82	43.0	0.37	to_board	poldrack-single-stim	s617	False
0.1	421.022	0.299	421.321	0	PA_without_intermediate	test	ward_and_allport	89	43.0	0.299	to_hand	poldrack-single-stim	s617	False
0.1	421.322	0.295	421.617	0	PA_without_intermediate	test	ward_and_allport	71	43.0	0.295	to_board	poldrack-single-stim	s617	False
1.0	421.626	5.128	421.625	0	PA_without_intermediate	test	ward_and_allport	-1	43.0	n/a	feedback	poldrack-single-stim	s617	False
1.727	426.764	1.727	428.491	1	PA_without_intermediate	test	ward_and_allport	82	44.0	1.727	to_hand	poldrack-single-stim	s617	False
0.1	428.492	0.316	428.808	0	PA_without_intermediate	test	ward_and_allport	89	44.0	0.316	to_board	poldrack-single-stim	s617	False
0.1	428.821	0.895	429.716	0	PA_without_intermediate	test	ward_and_allport	82	44.0	0.895	to_hand	poldrack-single-stim	s617	False
0.1	429.717	0.332	430.049	0	PA_without_intermediate	test	ward_and_allport	89	44.0	0.332	to_board	poldrack-single-stim	s617	False
0.1	430.064	1.477	431.541	0	PA_without_intermediate	test	ward_and_allport	82	44.0	1.477	to_hand	poldrack-single-stim	s617	False
0.1	431.542	0.224	431.766	0	PA_without_intermediate	test	ward_and_allport	71	44.0	0.224	to_board	poldrack-single-stim	s617	False
1.0	431.781	2.136	431.78	0	PA_without_intermediate	test	ward_and_allport	-1	44.0	n/a	feedback	poldrack-single-stim	s617	False
1.617	438.93	1.617	440.547	1	PA_without_intermediate	test	ward_and_allport	71	45.0	1.617	to_hand	poldrack-single-stim	s617	False
0.1	440.549	0.279	440.828	0	PA_without_intermediate	test	ward_and_allport	89	45.0	0.279	to_board	poldrack-single-stim	s617	False
0.1	440.838	0.309	441.147	0	PA_without_intermediate	test	ward_and_allport	71	45.0	0.309	to_hand	poldrack-single-stim	s617	False
0.1	441.149	0.29	441.439	0	PA_without_intermediate	test	ward_and_allport	82	45.0	0.29	to_board	poldrack-single-stim	s617	False
0.1	441.451	0.21	441.661	0	PA_without_intermediate	test	ward_and_allport	71	45.0	0.21	to_hand	poldrack-single-stim	s617	False
0.1	441.663	0.268	441.931	0	PA_without_intermediate	test	ward_and_allport	89	45.0	0.268	to_board	poldrack-single-stim	s617	False
1.0	441.949	5.264	441.948	0	PA_without_intermediate	test	ward_and_allport	-1	45.0	n/a	feedback	poldrack-single-stim	s617	False
2.105	447.227	2.105	449.332	1	PA_with_intermediate	test	ward_and_allport	89	46.0	2.105	to_hand	poldrack-single-stim	s617	False
0.1	449.333	0.283	449.616	0	PA_with_intermediate	test	ward_and_allport	71	46.0	0.283	to_board	poldrack-single-stim	s617	False
0.1	449.63	0.783	450.413	0	PA_with_intermediate	test	ward_and_allport	89	46.0	0.783	to_hand	poldrack-single-stim	s617	False
0.1	450.414	0.403	450.817	0	PA_with_intermediate	test	ward_and_allport	82	46.0	0.403	to_board	poldrack-single-stim	s617	False
0.1	450.83	0.381	451.211	0	PA_with_intermediate	test	ward_and_allport	71	46.0	0.381	to_hand	poldrack-single-stim	s617	False
0.1	451.214	0.307	451.521	0	PA_with_intermediate	test	ward_and_allport	82	46.0	0.307	to_board	poldrack-single-stim	s617	False
1.0	451.536	4.04	451.535	0	PA_with_intermediate	test	ward_and_allport	-1	46.0	n/a	feedback	poldrack-single-stim	s617	False
2.263	455.585	2.263	457.848	1	PA_with_intermediate	test	ward_and_allport	71	47.0	2.263	to_hand	poldrack-single-stim	s617	False
0.1	457.849	0.371	458.22	0	PA_with_intermediate	test	ward_and_allport	82	47.0	0.371	to_board	poldrack-single-stim	s617	False
0.1	458.229	0.299	458.528	0	PA_with_intermediate	test	ward_and_allport	71	47.0	0.299	to_hand	poldrack-single-stim	s617	False
0.1	458.53	0.304	458.834	0	PA_with_intermediate	test	ward_and_allport	89	47.0	0.304	to_board	poldrack-single-stim	s617	False
0.1	458.847	0.276	459.123	0	PA_with_intermediate	test	ward_and_allport	71	47.0	0.276	to_hand	poldrack-single-stim	s617	False
0.1	459.124	1.253	460.377	0	PA_with_intermediate	test	ward_and_allport	71	47.0	1.253	to_board	poldrack-single-stim	s617	False
0.1	460.392	0.713	461.105	0	PA_with_intermediate	test	ward_and_allport	82	47.0	0.713	to_hand	poldrack-single-stim	s617	False
0.1	461.106	0.239	461.345	0	PA_with_intermediate	test	ward_and_allport	71	47.0	0.239	to_board	poldrack-single-stim	s617	False
1.0	461.36	2.136	461.359	0	PA_with_intermediate	test	ward_and_allport	-1	47.0	n/a	feedback	poldrack-single-stim	s617	False
