onset	duration	movement_onset	EV	action	block_duration	experiment_exp_id	gain_amount	gain_probability	key_press	loss_amount	loss_probability	num_cards	num_click_in_round	num_loss_cards	risk	response_time	total_cards	trial_id	trial_type	worker_id	junk	feedback
3.013	9.452	12.465	-1.6231785683452349	end_round	9.452	columbia_card_task_fmri	12.0	0.8333333333333334	71.0	-70.0	0.1666666666666666	6.0	1.0	1.0	-1.74123868227705	9.452	0.0	stim	poldrack-single-stim	s618	False	1
13.218	1.5	12.467	n/a	-1.0	2.454	columbia_card_task_fmri	n/a	n/a	-1.0	n/a	n/a	n/a	n/a	n/a	n/a	n/a	n/a	ITI	poldrack-single-stim	s618	False	0
14.924	5.711	20.635	-0.789845235011901	end_round	5.711	columbia_card_task_fmri	14.0	0.8333333333333334	71.0	-75.0	0.1666666666666666	6.0	1.0	1.0	0.8675048577524436	5.711	0.0	stim	poldrack-single-stim	s618	False	1
21.389	1.5	20.638	n/a	-1.0	2.454	columbia_card_task_fmri	n/a	n/a	-1.0	n/a	n/a	n/a	n/a	n/a	n/a	n/a	n/a	ITI	poldrack-single-stim	s618	False	0
23.094	2.717	25.811	0.8768214316547651	draw_card	2.717	columbia_card_task_fmri	15.0	0.8333333333333334	89.0	-70.0	0.1666666666666666	6.0	1.0	1.0	-0.6232057856334947	2.717	n/a	stim	poldrack-single-stim	s618	False	1
25.813	1.232	27.045	-1.9565119016785688	end_round	1.232	columbia_card_task_fmri	15.0	0.8	71.0	-70.0	0.2	6.0	2.0	1.0	1.6991624941527448	1.232	1.0	stim	poldrack-single-stim	s618	False	1
27.801	1.5	27.05	n/a	-1.0	2.522	columbia_card_task_fmri	n/a	n/a	-1.0	n/a	n/a	n/a	n/a	n/a	n/a	n/a	n/a	ITI	poldrack-single-stim	s618	False	0
29.576	2.411	31.987	1.710154764988099	draw_card	2.411	columbia_card_task_fmri	17.0	0.8333333333333334	89.0	-75.0	0.1666666666666666	6.0	1.0	1.0	1.9855379168512852	2.411	n/a	stim	poldrack-single-stim	s618	False	1
31.989	1.201	33.19	-1.3565119016785674	end_round	1.201	columbia_card_task_fmri	17.0	0.8	71.0	-75.0	0.2	6.0	2.0	1.0	4.499160378026168	1.201	1.0	stim	poldrack-single-stim	s618	False	1
33.943	1.5	33.192	n/a	-1.0	2.386	columbia_card_task_fmri	n/a	n/a	-1.0	n/a	n/a	n/a	n/a	n/a	n/a	n/a	n/a	ITI	poldrack-single-stim	s618	False	0
35.579	2.224	37.803	3.043488098321431	draw_card	2.224	columbia_card_task_fmri	24.0	0.75	89.0	-60.0	0.25	8.0	1.0	2.0	4.07222763858028	2.224	n/a	stim	poldrack-single-stim	s618	False	1
37.805	0.378	38.183	0.0434880983214311	draw_card	0.378	columbia_card_task_fmri	24.0	0.7142857142857143	89.0	-60.0	0.2857142857142857	8.0	2.0	2.0	5.646491523137264	0.378	2.0	stim	poldrack-single-stim	s618	False	0
38.936	1.5	38.185	n/a	-1.0	2.454	columbia_card_task_fmri	n/a	n/a	-1.0	n/a	n/a	n/a	n/a	n/a	n/a	n/a	n/a	ITI	poldrack-single-stim	s618	False	0
40.642	2.567	43.209	3.043488098321431	draw_card	2.567	columbia_card_task_fmri	29.0	0.75	89.0	-75.0	0.25	8.0	1.0	2.0	12.73247667691755	2.567	n/a	stim	poldrack-single-stim	s618	False	1
43.211	0.999	44.21	-0.6707976159642806	draw_card	0.999	columbia_card_task_fmri	29.0	0.7142857142857143	89.0	-75.0	0.2857142857142857	8.0	2.0	2.0	14.681565760089498	0.999	n/a	stim	poldrack-single-stim	s618	False	1
44.211	0.683	44.894	-5.623178568345233	end_round	0.683	columbia_card_task_fmri	29.0	0.6666666666666667	71.0	-75.0	0.3333333333333333	8.0	3.0	2.0	16.725224132293953	0.683	2.0	stim	poldrack-single-stim	s618	False	1
45.647	1.5	44.896	n/a	-1.0	2.522	columbia_card_task_fmri	n/a	n/a	-1.0	n/a	n/a	n/a	n/a	n/a	n/a	n/a	n/a	ITI	poldrack-single-stim	s618	False	0
47.42	1.952	49.372	-1.1787341239007885	draw_card	1.952	columbia_card_task_fmri	17.0	0.7777777777777778	89.0	-65.0	0.2222222222222222	9.0	1.0	2.0	1.7898186108003458	1.952	n/a	stim	poldrack-single-stim	s618	False	1
49.373	0.458	49.831	-3.456511901678569	draw_card	0.458	columbia_card_task_fmri	17.0	0.75	89.0	-65.0	0.25	9.0	2.0	2.0	3.206202868879529	0.458	n/a	stim	poldrack-single-stim	s618	False	1
49.832	0.425	50.257	-6.385083330249996	end_round	0.425	columbia_card_task_fmri	17.0	0.7142857142857143	71.0	-65.0	0.2857142857142857	9.0	3.0	2.0	4.742984228010464	0.425	2.0	stim	poldrack-single-stim	s618	False	1
51.013	1.5	50.262	n/a	-1.0	2.522	columbia_card_task_fmri	n/a	n/a	-1.0	n/a	n/a	n/a	n/a	n/a	n/a	n/a	n/a	ITI	poldrack-single-stim	s618	False	0
52.786	4.436	57.222	3.1434880983214306	draw_card	4.436	columbia_card_task_fmri	14.0	0.9	89.0	-95.0	0.1	10.0	1.0	1.0	0.3991635998264087	4.436	n/a	stim	poldrack-single-stim	s618	False	1
57.224	0.665	57.889	1.9323769872103187	draw_card	0.665	columbia_card_task_fmri	14.0	0.8888888888888888	89.0	-95.0	0.1111111111111111	10.0	2.0	1.0	1.954557464279091	0.665	n/a	stim	poldrack-single-stim	s618	False	1
57.89	0.748	58.638	0.4184880983214311	draw_card	0.748	columbia_card_task_fmri	14.0	0.875	89.0	-95.0	0.125	10.0	3.0	1.0	3.747522527060575	0.748	n/a	stim	poldrack-single-stim	s618	False	1
58.64	0.695	59.335	-1.52794047310714	end_round	0.695	columbia_card_task_fmri	14.0	0.8571428571428572	71.0	-95.0	0.1428571428571428	10.0	4.0	1.0	5.84121404009597	0.695	3.0	stim	poldrack-single-stim	s618	False	1
60.092	1.5	59.341	n/a	-1.0	2.59	columbia_card_task_fmri	n/a	n/a	-1.0	n/a	n/a	n/a	n/a	n/a	n/a	n/a	n/a	ITI	poldrack-single-stim	s618	False	0
61.933	1.841	63.774	-0.9565119016785688	draw_card	1.841	columbia_card_task_fmri	15.0	0.8	89.0	-65.0	0.2	10.0	1.0	2.0	-0.3008357676007236	1.841	n/a	stim	poldrack-single-stim	s618	False	1
63.774	0.335	64.109	-2.734289679456346	draw_card	0.335	columbia_card_task_fmri	15.0	0.7777777777777778	89.0	-65.0	0.2222222222222222	10.0	2.0	2.0	0.9583398849669108	0.335	n/a	stim	poldrack-single-stim	s618	False	1
64.11	0.259	64.369	-4.956511901678569	draw_card	0.259	columbia_card_task_fmri	15.0	0.75	89.0	-65.0	0.25	10.0	3.0	2.0	2.340178130882933	0.259	n/a	stim	poldrack-single-stim	s618	False	1
64.37	0.414	64.784	-7.813654758821423	draw_card	0.414	columbia_card_task_fmri	15.0	0.7142857142857143	89.0	-65.0	0.2857142857142857	10.0	4.0	2.0	3.8394769632725527	0.414	n/a	stim	poldrack-single-stim	s618	False	1
64.786	0.802	65.588	-11.623178568345232	end_round	0.802	columbia_card_task_fmri	15.0	0.6666666666666667	71.0	-65.0	0.3333333333333333	10.0	5.0	2.0	5.411521419658797	0.802	4.0	stim	poldrack-single-stim	s618	False	1
66.344	1.5	65.593	n/a	-1.0	2.454	columbia_card_task_fmri	n/a	n/a	-1.0	n/a	n/a	n/a	n/a	n/a	n/a	n/a	n/a	ITI	poldrack-single-stim	s618	False	0
68.05	2.344	70.394	0.6434880983214326	draw_card	2.344	columbia_card_task_fmri	17.0	0.8	89.0	-65.0	0.2	10.0	1.0	2.0	0.4991635116629425	2.344	1.0	stim	poldrack-single-stim	s618	False	0
71.148	1.5	70.397	n/a	-1.0	2.318	columbia_card_task_fmri	n/a	n/a	-1.0	n/a	n/a	n/a	n/a	n/a	n/a	n/a	n/a	ITI	poldrack-single-stim	s618	False	0
72.718	3.29	76.008	-0.789845235011901	draw_card	3.29	columbia_card_task_fmri	13.0	0.8333333333333334	89.0	-70.0	0.1666666666666666	12.0	1.0	2.0	-1.3685610588344517	3.29	n/a	stim	poldrack-single-stim	s618	False	1
76.01	0.712	76.722	-2.0474209925876625	draw_card	0.712	columbia_card_task_fmri	13.0	0.8181818181818181	89.0	-70.0	0.1818181818181818	12.0	2.0	2.0	-0.2881833219253309	0.712	n/a	stim	poldrack-single-stim	s618	False	1
76.723	0.367	77.09	-3.5565119016785687	draw_card	0.367	columbia_card_task_fmri	13.0	0.8	89.0	-70.0	0.2	12.0	3.0	2.0	0.8991631643201146	0.367	3.0	stim	poldrack-single-stim	s618	False	0
77.846	1.5	77.095	n/a	-1.0	2.25	columbia_card_task_fmri	n/a	n/a	-1.0	n/a	n/a	n/a	n/a	n/a	n/a	n/a	n/a	ITI	poldrack-single-stim	s618	False	0
79.348	2.257	81.605	-0.789845235011901	draw_card	2.257	columbia_card_task_fmri	15.0	0.8333333333333334	89.0	-80.0	0.1666666666666666	12.0	1.0	2.0	3.10357103466486	2.257	n/a	stim	poldrack-single-stim	s618	False	1
81.607	0.347	81.954	-2.229239174405844	end_round	0.347	columbia_card_task_fmri	15.0	0.8181818181818181	71.0	-80.0	0.1818181818181818	12.0	2.0	2.0	4.3401482419331145	0.347	1.0	stim	poldrack-single-stim	s618	False	1
82.707	1.5	81.956	n/a	-1.0	2.658	columbia_card_task_fmri	n/a	n/a	-1.0	n/a	n/a	n/a	n/a	n/a	n/a	n/a	n/a	ITI	poldrack-single-stim	s618	False	0
84.616	2.283	86.899	-1.7565119016785675	end_round	2.283	columbia_card_task_fmri	14.0	0.8	71.0	-65.0	0.2	15.0	1.0	3.0	-0.7008353935477096	2.283	0.0	stim	poldrack-single-stim	s618	False	1
87.653	1.5	86.902	n/a	-1.0	2.454	columbia_card_task_fmri	n/a	n/a	-1.0	n/a	n/a	n/a	n/a	n/a	n/a	n/a	n/a	ITI	poldrack-single-stim	s618	False	0
89.359	2.244	91.603	-1.8315119016785688	draw_card	2.244	columbia_card_task_fmri	1.0	0.9375	89.0	-45.0	0.0625	16.0	1.0	1.0	-21.165953274396884	2.244	1.0	stim	poldrack-single-stim	s618	False	0
92.355	1.5	91.604	n/a	-1.0	2.386	columbia_card_task_fmri	n/a	n/a	-1.0	n/a	n/a	n/a	n/a	n/a	n/a	n/a	n/a	ITI	poldrack-single-stim	s618	False	0
93.993	2.938	96.931	-0.8940119016785688	end_round	2.938	columbia_card_task_fmri	15.0	0.8125	71.0	-70.0	0.1875	16.0	1.0	3.0	0.8757150509418565	2.938	0.0	stim	poldrack-single-stim	s618	False	1
97.686	1.5	96.935	n/a	-1.0	2.59	columbia_card_task_fmri	n/a	n/a	-1.0	n/a	n/a	n/a	n/a	n/a	n/a	n/a	n/a	ITI	poldrack-single-stim	s618	False	0
99.528	1.777	101.305	6.043488098321431	draw_card	1.777	columbia_card_task_fmri	30.0	0.7	89.0	-50.0	0.3	10.0	1.0	3.0	4.359766035375998	1.777	1.0	stim	poldrack-single-stim	s618	False	0
102.061	1.5	101.31	n/a	-1.0	2.318	columbia_card_task_fmri	n/a	n/a	-1.0	n/a	n/a	n/a	n/a	n/a	n/a	n/a	n/a	ITI	poldrack-single-stim	s618	False	0
103.631	1.376	105.007	5.443488098321431	draw_card	1.376	columbia_card_task_fmri	17.0	0.8666666666666667	89.0	-70.0	0.1333333333333333	15.0	1.0	2.0	-2.726520165054726	1.376	n/a	stim	poldrack-single-stim	s618	False	1
105.009	0.476	105.485	4.614916669750004	draw_card	0.476	columbia_card_task_fmri	17.0	0.8571428571428572	89.0	-70.0	0.1428571428571428	15.0	2.0	2.0	-1.8571760252012623	0.476	n/a	stim	poldrack-single-stim	s618	False	1
105.487	0.417	105.904	3.658872713706046	end_round	0.417	columbia_card_task_fmri	17.0	0.8461538461538461	71.0	-70.0	0.1538461538461538	15.0	3.0	2.0	-0.9111297234834588	0.417	2.0	stim	poldrack-single-stim	s618	False	1
106.659	1.5	105.908	n/a	-1.0	2.59	columbia_card_task_fmri	n/a	n/a	-1.0	n/a	n/a	n/a	n/a	n/a	n/a	n/a	n/a	ITI	poldrack-single-stim	s618	False	0
108.501	1.705	110.206	0.6684880983214312	draw_card	1.705	columbia_card_task_fmri	7.0	0.9375	89.0	-95.0	0.0625	16.0	1.0	1.0	-7.610558186987088	1.705	n/a	stim	poldrack-single-stim	s618	False	1
110.208	2.004	112.212	0.2434880983214313	draw_card	2.004	columbia_card_task_fmri	7.0	0.9333333333333332	89.0	-95.0	0.0666666666666666	16.0	2.0	1.0	-6.857557922458373	2.004	n/a	stim	poldrack-single-stim	s618	False	1
112.214	0.664	112.878	-0.2422261873928544	draw_card	0.664	columbia_card_task_fmri	7.0	0.9285714285714286	89.0	-95.0	0.0714285714285714	16.0	3.0	1.0	-6.0318128852585104	0.664	n/a	stim	poldrack-single-stim	s618	False	1
112.879	1.249	114.128	-0.8026657478324155	draw_card	1.249	columbia_card_task_fmri	7.0	0.9230769230769232	89.0	-95.0	0.0769230769230769	16.0	4.0	1.0	-5.120956316039798	1.249	n/a	stim	poldrack-single-stim	s618	False	1
114.131	1.13	115.261	-1.4565119016785688	draw_card	1.13	columbia_card_task_fmri	7.0	0.9166666666666666	89.0	-95.0	0.0833333333333333	16.0	5.0	1.0	-4.109521057304828	1.13	n/a	stim	poldrack-single-stim	s618	False	1
115.262	0.785	116.047	-2.2292391744058424	end_round	0.785	columbia_card_task_fmri	7.0	0.9090909090909092	71.0	-95.0	0.0909090909090909	16.0	6.0	1.0	-2.9778947664128523	0.785	5.0	stim	poldrack-single-stim	s618	False	1
116.804	1.5	116.053	n/a	-1.0	2.386	columbia_card_task_fmri	n/a	n/a	-1.0	n/a	n/a	n/a	n/a	n/a	n/a	n/a	n/a	ITI	poldrack-single-stim	s618	False	0
118.442	1.828	120.27	2.230988098321431	end_round	1.828	columbia_card_task_fmri	9.0	0.9375	71.0	-100.0	0.0625	16.0	1.0	1.0	-5.916130432571109	1.828	0.0	stim	poldrack-single-stim	s618	False	1
121.027	1.5	120.276	n/a	-1.0	2.318	columbia_card_task_fmri	n/a	n/a	-1.0	n/a	n/a	n/a	n/a	n/a	n/a	n/a	n/a	ITI	poldrack-single-stim	s618	False	0
122.596	2.351	124.947	3.168488098321431	draw_card	2.351	columbia_card_task_fmri	15.0	0.875	89.0	-80.0	0.125	16.0	1.0	2.0	-0.8825384015931768	2.351	n/a	stim	poldrack-single-stim	s618	False	1
124.948	0.347	125.295	2.376821431654765	draw_card	0.347	columbia_card_task_fmri	15.0	0.8666666666666667	89.0	-80.0	0.1333333333333333	16.0	2.0	2.0	-0.007045783676979	0.347	n/a	stim	poldrack-single-stim	s618	False	1
125.298	0.33	125.628	1.4720595268928618	draw_card	0.33	columbia_card_task_fmri	15.0	0.8571428571428572	89.0	-80.0	0.1428571428571428	16.0	3.0	2.0	0.9422382080429444	0.33	n/a	stim	poldrack-single-stim	s618	False	1
125.631	0.358	125.989	0.4281034829368144	draw_card	0.358	columbia_card_task_fmri	15.0	0.8461538461538461	89.0	-80.0	0.1538461538461538	16.0	4.0	2.0	1.9752774380508669	0.358	n/a	stim	poldrack-single-stim	s618	False	1
125.99	0.328	126.318	-0.789845235011901	draw_card	0.328	columbia_card_task_fmri	15.0	0.8333333333333334	89.0	-80.0	0.1666666666666666	16.0	5.0	2.0	3.10357103466486	0.328	n/a	stim	poldrack-single-stim	s618	False	1
126.32	0.334	126.654	-2.229239174405844	draw_card	0.334	columbia_card_task_fmri	15.0	0.8181818181818181	89.0	-80.0	0.1818181818181818	16.0	6.0	2.0	4.3401482419331145	0.334	n/a	stim	poldrack-single-stim	s618	False	1
126.657	0.802	127.459	-3.956511901678569	end_round	0.802	columbia_card_task_fmri	15.0	0.8	71.0	-80.0	0.2	16.0	7.0	2.0	5.699159566579041	0.802	6.0	stim	poldrack-single-stim	s618	False	1
128.211	1.5	127.46	n/a	-1.0	2.318	columbia_card_task_fmri	n/a	n/a	-1.0	n/a	n/a	n/a	n/a	n/a	n/a	n/a	n/a	ITI	poldrack-single-stim	s618	False	0
129.781	1.785	131.566	5.293488098321431	draw_card	1.785	columbia_card_task_fmri	16.0	0.875	89.0	-70.0	0.125	16.0	1.0	2.0	-3.859005476823608	1.785	n/a	stim	poldrack-single-stim	s618	False	1
131.567	0.351	131.918	4.576821431654764	draw_card	0.351	columbia_card_task_fmri	16.0	0.8666666666666667	89.0	-70.0	0.1333333333333333	16.0	2.0	2.0	-3.066454427504844	0.351	n/a	stim	poldrack-single-stim	s618	False	1
131.921	2.678	134.599	3.7577738126071454	draw_card	2.678	columbia_card_task_fmri	16.0	0.8571428571428572	89.0	-70.0	0.1428571428571428	16.0	3.0	2.0	-2.20710277014048	2.678	n/a	stim	poldrack-single-stim	s618	False	1
134.602	0.359	134.961	2.8127188675521992	draw_card	0.359	columbia_card_task_fmri	16.0	0.8461538461538461	89.0	-70.0	0.1538461538461538	16.0	4.0	2.0	-1.2719305854901677	0.359	n/a	stim	poldrack-single-stim	s618	False	1
134.964	0.919	135.883	1.710154764988099	draw_card	0.919	columbia_card_task_fmri	16.0	0.8333333333333334	89.0	-70.0	0.1666666666666666	16.0	5.0	2.0	-0.2505281364871123	0.919	n/a	stim	poldrack-single-stim	s618	False	1
135.885	0.758	136.643	0.4071244619577926	end_round	0.758	columbia_card_task_fmri	16.0	0.8181818181818181	71.0	-70.0	0.1818181818181818	16.0	6.0	2.0	0.868899471421301	0.758	5.0	stim	poldrack-single-stim	s618	False	1
137.395	1.5	136.644	n/a	-1.0	2.318	columbia_card_task_fmri	n/a	n/a	-1.0	n/a	n/a	n/a	n/a	n/a	n/a	n/a	n/a	ITI	poldrack-single-stim	s618	False	0
138.966	2.966	141.932	6.605988098321431	draw_card	2.966	columbia_card_task_fmri	30.0	0.6875	89.0	-45.0	0.3125	16.0	1.0	5.0	2.4625922916429133	2.966	1.0	stim	poldrack-single-stim	s618	False	0
142.688	1.5	141.937	n/a	-1.0	2.386	columbia_card_task_fmri	n/a	n/a	-1.0	n/a	n/a	n/a	n/a	n/a	n/a	n/a	n/a	ITI	poldrack-single-stim	s618	False	0
144.325	4.139	148.464	-1.6231785683452349	draw_card	4.139	columbia_card_task_fmri	13.0	0.8333333333333334	89.0	-75.0	0.1666666666666666	6.0	1.0	1.0	0.4948271854717632	4.139	n/a	stim	poldrack-single-stim	s618	False	1
148.466	0.341	148.807	-4.556511901678569	end_round	0.341	columbia_card_task_fmri	13.0	0.8	71.0	-75.0	0.2	6.0	2.0	1.0	2.8991615460181563	0.341	1.0	stim	poldrack-single-stim	s618	False	1
149.56	1.5	148.809	n/a	-1.0	2.25	columbia_card_task_fmri	n/a	n/a	-1.0	n/a	n/a	n/a	n/a	n/a	n/a	n/a	n/a	ITI	poldrack-single-stim	s618	False	0
151.061	1.414	152.475	0.0434880983214329	draw_card	1.414	columbia_card_task_fmri	14.0	0.8333333333333334	89.0	-70.0	0.1666666666666666	6.0	1.0	1.0	-0.9958834265155084	1.414	n/a	stim	poldrack-single-stim	s618	False	1
152.478	0.416	152.894	-2.756511901678568	end_round	0.416	columbia_card_task_fmri	14.0	0.8	71.0	-70.0	0.2	6.0	2.0	1.0	1.2991628252473433	0.416	1.0	stim	poldrack-single-stim	s618	False	1
153.648	1.5	152.897	n/a	-1.0	2.386	columbia_card_task_fmri	n/a	n/a	-1.0	n/a	n/a	n/a	n/a	n/a	n/a	n/a	n/a	ITI	poldrack-single-stim	s618	False	0
155.286	1.857	157.143	0.0434880983214329	end_round	1.857	columbia_card_task_fmri	16.0	0.8333333333333334	71.0	-80.0	0.1666666666666666	6.0	1.0	1.0	3.4762487526990427	1.857	0.0	stim	poldrack-single-stim	s618	False	1
157.897	1.5	157.146	n/a	-1.0	2.59	columbia_card_task_fmri	n/a	n/a	-1.0	n/a	n/a	n/a	n/a	n/a	n/a	n/a	n/a	ITI	poldrack-single-stim	s618	False	0
159.74	1.228	160.968	2.5434880983214327	draw_card	1.228	columbia_card_task_fmri	17.0	0.8333333333333334	89.0	-70.0	0.1666666666666666	6.0	1.0	1.0	0.1221495206386436	1.228	n/a	stim	poldrack-single-stim	s618	False	1
160.969	0.401	161.37	-0.3565119016785674	end_round	0.401	columbia_card_task_fmri	17.0	0.8	71.0	-70.0	0.2	6.0	2.0	1.0	2.4991618547976278	0.401	1.0	stim	poldrack-single-stim	s618	False	1
162.128	1.5	161.377	n/a	-1.0	2.658	columbia_card_task_fmri	n/a	n/a	-1.0	n/a	n/a	n/a	n/a	n/a	n/a	n/a	n/a	ITI	poldrack-single-stim	s618	False	0
164.038	3.199	167.237	2.543488098321431	draw_card	3.199	columbia_card_task_fmri	25.0	0.75	89.0	-65.0	0.25	8.0	1.0	2.0	6.670302116771346	3.199	n/a	stim	poldrack-single-stim	s618	False	1
167.239	1.077	168.316	-0.6707976159642806	draw_card	1.077	columbia_card_task_fmri	25.0	0.7142857142857143	89.0	-65.0	0.2857142857142857	8.0	2.0	2.0	8.357013570591768	1.077	n/a	stim	poldrack-single-stim	s618	False	1
168.318	0.806	169.124	-4.9565119016785655	end_round	0.806	columbia_card_task_fmri	25.0	0.6666666666666667	71.0	-65.0	0.3333333333333333	8.0	3.0	2.0	10.12556384154923	0.806	2.0	stim	poldrack-single-stim	s618	False	1
169.881	1.5	169.13	n/a	-1.0	2.386	columbia_card_task_fmri	n/a	n/a	-1.0	n/a	n/a	n/a	n/a	n/a	n/a	n/a	n/a	ITI	poldrack-single-stim	s618	False	0
171.52	2.028	173.548	2.543488098321431	draw_card	2.028	columbia_card_task_fmri	30.0	0.75	89.0	-80.0	0.25	8.0	1.0	2.0	15.33055174292899	2.028	n/a	stim	poldrack-single-stim	s618	False	1
173.551	0.912	174.463	-1.3850833302499923	end_round	0.912	columbia_card_task_fmri	30.0	0.7142857142857143	71.0	-80.0	0.2857142857142857	8.0	2.0	2.0	17.392088370978414	0.912	1.0	stim	poldrack-single-stim	s618	False	1
175.217	1.5	174.466	n/a	-1.0	2.386	columbia_card_task_fmri	n/a	n/a	-1.0	n/a	n/a	n/a	n/a	n/a	n/a	n/a	n/a	ITI	poldrack-single-stim	s618	False	0
176.855	3.297	180.152	2.243488098321432	draw_card	3.297	columbia_card_task_fmri	13.0	0.9	89.0	-95.0	0.1	10.0	1.0	1.0	0.0991638675821278	3.297	1.0	stim	poldrack-single-stim	s618	False	0
180.91	1.5	180.159	n/a	-1.0	2.25	columbia_card_task_fmri	n/a	n/a	-1.0	n/a	n/a	n/a	n/a	n/a	n/a	n/a	n/a	ITI	poldrack-single-stim	s618	False	0
182.413	3.711	186.124	3.643488098321431	draw_card	3.711	columbia_card_task_fmri	14.0	0.9	89.0	-90.0	0.1	10.0	1.0	1.0	-1.1008350099036086	3.711	n/a	stim	poldrack-single-stim	s618	False	1
186.127	1.625	187.752	2.487932542765874	draw_card	1.625	columbia_card_task_fmri	14.0	0.8888888888888888	89.0	-90.0	0.1111111111111111	10.0	2.0	1.0	0.3832103887860896	1.625	n/a	stim	poldrack-single-stim	s618	False	1
187.753	0.417	188.17	1.0434880983214312	end_round	0.417	columbia_card_task_fmri	14.0	0.875	71.0	-90.0	0.125	10.0	3.0	1.0	2.093929218779905	0.417	2.0	stim	poldrack-single-stim	s618	False	1
188.928	1.5	188.177	n/a	-1.0	2.318	columbia_card_task_fmri	n/a	n/a	-1.0	n/a	n/a	n/a	n/a	n/a	n/a	n/a	n/a	ITI	poldrack-single-stim	s618	False	0
190.498	1.525	192.023	-1.156511901678568	draw_card	1.525	columbia_card_task_fmri	16.0	0.8	89.0	-70.0	0.2	10.0	1.0	2.0	2.0991621707580137	1.525	1.0	stim	poldrack-single-stim	s618	False	0
192.777	1.5	192.026	n/a	-1.0	2.25	columbia_card_task_fmri	n/a	n/a	-1.0	n/a	n/a	n/a	n/a	n/a	n/a	n/a	n/a	ITI	poldrack-single-stim	s618	False	0
194.28	2.99	197.27	-1.8731785683452349	draw_card	2.99	columbia_card_task_fmri	7.0	0.9166666666666666	89.0	-100.0	0.0833333333333333	12.0	1.0	1.0	-2.7275956287278014	2.99	n/a	stim	poldrack-single-stim	s618	False	1
197.272	0.847	198.119	-2.683784628951297	end_round	0.847	columbia_card_task_fmri	7.0	0.9090909090909092	71.0	-100.0	0.0909090909090909	12.0	2.0	1.0	-1.540497336888162	0.847	1.0	stim	poldrack-single-stim	s618	False	1
198.874	1.5	198.123	n/a	-1.0	2.25	columbia_card_task_fmri	n/a	n/a	-1.0	n/a	n/a	n/a	n/a	n/a	n/a	n/a	n/a	ITI	poldrack-single-stim	s618	False	0
200.376	2.94	203.316	-1.623178568345233	draw_card	2.94	columbia_card_task_fmri	14.0	0.8333333333333334	89.0	-80.0	0.1666666666666666	12.0	1.0	2.0	2.730893322550152	2.94	n/a	stim	poldrack-single-stim	s618	False	1
203.319	0.701	204.02	-3.0474209925876625	end_round	0.701	columbia_card_task_fmri	14.0	0.8181818181818181	71.0	-80.0	0.1818181818181818	12.0	2.0	2.0	3.954453908559323	0.701	1.0	stim	poldrack-single-stim	s618	False	1
204.778	1.5	204.027	n/a	-1.0	2.386	columbia_card_task_fmri	n/a	n/a	-1.0	n/a	n/a	n/a	n/a	n/a	n/a	n/a	n/a	ITI	poldrack-single-stim	s618	False	0
206.417	1.841	208.258	0.0434880983214311	draw_card	1.841	columbia_card_task_fmri	15.0	0.8333333333333334	89.0	-75.0	0.1666666666666666	12.0	1.0	2.0	1.2401825372324282	1.841	n/a	stim	poldrack-single-stim	s618	False	1
208.26	1.043	209.303	-1.320148265314934	draw_card	1.043	columbia_card_task_fmri	15.0	0.8181818181818181	89.0	-75.0	0.1818181818181818	12.0	2.0	2.0	2.411676636074347	1.043	n/a	stim	poldrack-single-stim	s618	False	1
209.306	0.461	209.767	-2.956511901678569	end_round	0.461	columbia_card_task_fmri	15.0	0.8	71.0	-75.0	0.2	12.0	3.0	2.0	3.69916094904449	0.461	2.0	stim	poldrack-single-stim	s618	False	1
210.524	1.5	209.773	n/a	-1.0	2.386	columbia_card_task_fmri	n/a	n/a	-1.0	n/a	n/a	n/a	n/a	n/a	n/a	n/a	n/a	ITI	poldrack-single-stim	s618	False	0
212.163	1.705	213.868	-0.9565119016785688	end_round	1.705	columbia_card_task_fmri	15.0	0.8	71.0	-65.0	0.2	15.0	1.0	3.0	-0.3008357676007236	1.705	0.0	stim	poldrack-single-stim	s618	False	1
214.622	1.5	213.871	n/a	-1.0	2.726	columbia_card_task_fmri	n/a	n/a	-1.0	n/a	n/a	n/a	n/a	n/a	n/a	n/a	n/a	ITI	poldrack-single-stim	s618	False	0
216.601	1.611	218.212	-1.7065119016785688	draw_card	1.611	columbia_card_task_fmri	14.0	0.8125	89.0	-70.0	0.1875	16.0	1.0	3.0	0.4854030153543647	1.611	n/a	stim	poldrack-single-stim	s618	False	1
218.215	1.528	219.743	-2.756511901678568	draw_card	1.528	columbia_card_task_fmri	14.0	0.8	89.0	-70.0	0.2	16.0	2.0	3.0	1.2991628252473433	1.528	n/a	stim	poldrack-single-stim	s618	False	1
219.745	0.927	220.672	-3.956511901678569	end_round	0.927	columbia_card_task_fmri	14.0	0.7857142857142857	71.0	-70.0	0.2142857142857142	16.0	3.0	3.0	2.166537996252316	0.927	2.0	stim	poldrack-single-stim	s618	False	1
221.428	1.5	220.677	n/a	-1.0	2.454	columbia_card_task_fmri	n/a	n/a	-1.0	n/a	n/a	n/a	n/a	n/a	n/a	n/a	n/a	ITI	poldrack-single-stim	s618	False	0
223.134	3.491	226.625	-1.7690119016785688	end_round	3.491	columbia_card_task_fmri	11.0	0.6875	71.0	-30.0	0.3125	16.0	1.0	5.0	-13.296806936389444	3.491	0.0	stim	poldrack-single-stim	s618	False	1
227.382	1.5	226.631	n/a	-1.0	2.318	columbia_card_task_fmri	n/a	n/a	-1.0	n/a	n/a	n/a	n/a	n/a	n/a	n/a	n/a	ITI	poldrack-single-stim	s618	False	0
228.953	1.825	230.778	3.043488098321431	draw_card	1.825	columbia_card_task_fmri	15.0	0.8666666666666667	89.0	-75.0	0.1333333333333333	15.0	1.0	2.0	-1.7067173281325374	1.825	n/a	stim	poldrack-single-stim	s618	False	1
230.781	0.491	231.272	2.186345241178575	draw_card	0.491	columbia_card_task_fmri	15.0	0.8571428571428572	89.0	-75.0	0.1428571428571428	15.0	2.0	2.0	-0.8073957422273352	0.491	n/a	stim	poldrack-single-stim	s618	False	1
231.275	0.447	231.722	1.1973342521675845	draw_card	0.447	columbia_card_task_fmri	15.0	0.8461538461538461	89.0	-75.0	0.1538461538461538	15.0	3.0	2.0	0.1712729092415941	0.447	n/a	stim	poldrack-single-stim	s618	False	1
231.725	0.721	232.446	0.0434880983214311	draw_card	0.721	columbia_card_task_fmri	15.0	0.8333333333333334	89.0	-75.0	0.1666666666666666	15.0	4.0	2.0	1.2401825372324282	0.721	n/a	stim	poldrack-single-stim	s618	False	1
232.449	0.758	233.207	-1.320148265314934	end_round	0.758	columbia_card_task_fmri	15.0	0.8181818181818181	71.0	-75.0	0.1818181818181818	15.0	5.0	2.0	2.411676636074347	0.758	4.0	stim	poldrack-single-stim	s618	False	1
233.964	1.5	233.213	n/a	-1.0	2.318	columbia_card_task_fmri	n/a	n/a	-1.0	n/a	n/a	n/a	n/a	n/a	n/a	n/a	n/a	ITI	poldrack-single-stim	s618	False	0
235.535	1.72	237.255	4.776821431654765	draw_card	1.72	columbia_card_task_fmri	17.0	0.8666666666666667	89.0	-75.0	0.1333333333333333	15.0	1.0	2.0	-1.0268487315686556	1.72	1.0	stim	poldrack-single-stim	s618	False	0
238.012	1.5	237.261	n/a	-1.0	2.59	columbia_card_task_fmri	n/a	n/a	-1.0	n/a	n/a	n/a	n/a	n/a	n/a	n/a	n/a	ITI	poldrack-single-stim	s618	False	0
239.854	3.202	243.056	0.3559880983214311	draw_card	3.202	columbia_card_task_fmri	2.0	0.9375	89.0	-25.0	0.0625	16.0	1.0	1.0	-25.765061238386565	3.202	n/a	stim	poldrack-single-stim	s618	False	1
243.059	0.379	243.438	0.2434880983214311	draw_card	0.379	columbia_card_task_fmri	2.0	0.9333333333333332	89.0	-25.0	0.0666666666666666	16.0	2.0	1.0	-25.565741620756963	0.379	n/a	stim	poldrack-single-stim	s618	False	1
243.44	0.809	244.249	0.1149166697500027	draw_card	0.809	columbia_card_task_fmri	2.0	0.9285714285714286	89.0	-25.0	0.0714285714285714	16.0	3.0	1.0	-25.347166156145832	0.809	n/a	stim	poldrack-single-stim	s618	False	1
244.252	0.901	245.153	-0.0334349786016457	end_round	0.901	columbia_card_task_fmri	2.0	0.9230769230769232	71.0	-25.0	0.0769230769230769	16.0	4.0	1.0	-25.1060613021285	0.901	3.0	stim	poldrack-single-stim	s618	False	1
245.91	1.5	245.159	n/a	-1.0	2.726	columbia_card_task_fmri	n/a	n/a	-1.0	n/a	n/a	n/a	n/a	n/a	n/a	n/a	n/a	ITI	poldrack-single-stim	s618	False	0
247.889	3.511	251.4	2.543488098321431	draw_card	3.511	columbia_card_task_fmri	9.0	0.9375	89.0	-95.0	0.0625	16.0	1.0	1.0	-7.126436005224615	3.511	n/a	stim	poldrack-single-stim	s618	False	1
251.403	0.703	252.106	2.1101547649880983	draw_card	0.703	columbia_card_task_fmri	9.0	0.9333333333333332	89.0	-95.0	0.0666666666666666	16.0	2.0	1.0	-6.358670985604725	0.703	n/a	stim	poldrack-single-stim	s618	False	1
252.108	0.474	252.582	1.6149166697500033	draw_card	0.474	columbia_card_task_fmri	9.0	0.9285714285714286	89.0	-95.0	0.0714285714285714	16.0	3.0	1.0	-5.516734823870543	0.474	n/a	stim	poldrack-single-stim	s618	False	1
252.584	0.906	253.49	1.0434880983214312	end_round	0.906	columbia_card_task_fmri	9.0	0.9230769230769232	71.0	-95.0	0.0769230769230769	16.0	4.0	1.0	-4.588018275069619	0.906	3.0	stim	poldrack-single-stim	s618	False	1
254.246	1.5	253.495	n/a	-1.0	2.522	columbia_card_task_fmri	n/a	n/a	-1.0	n/a	n/a	n/a	n/a	n/a	n/a	n/a	n/a	ITI	poldrack-single-stim	s618	False	0
256.02	3.166	259.186	4.105988098321431	draw_card	3.166	columbia_card_task_fmri	11.0	0.9375	89.0	-100.0	0.0625	16.0	1.0	1.0	-5.432008160045818	3.166	n/a	stim	poldrack-single-stim	s618	False	1
259.189	0.387	259.576	3.643488098321432	draw_card	0.387	columbia_card_task_fmri	11.0	0.9333333333333332	89.0	-100.0	0.0666666666666666	16.0	2.0	1.0	-4.612566503792472	0.387	n/a	stim	poldrack-single-stim	s618	False	1
259.579	0.314	259.893	3.114916669750004	draw_card	0.314	columbia_card_task_fmri	11.0	0.9285714285714286	89.0	-100.0	0.0714285714285714	16.0	3.0	1.0	-3.713961412563776	0.314	n/a	stim	poldrack-single-stim	s618	False	1
259.895	1.1	260.995	2.505026559859893	draw_card	1.1	columbia_card_task_fmri	11.0	0.9230769230769232	89.0	-100.0	0.0769230769230769	16.0	4.0	1.0	-2.7227349418084934	1.1	n/a	stim	poldrack-single-stim	s618	False	1
260.997	0.745	261.742	1.7934880983214312	draw_card	0.745	columbia_card_task_fmri	11.0	0.9166666666666666	89.0	-100.0	0.0833333333333333	16.0	5.0	1.0	-1.62205518419686	0.745	n/a	stim	poldrack-single-stim	s618	False	1
261.744	0.896	262.64	0.9525790074123396	draw_card	0.896	columbia_card_task_fmri	11.0	0.9090909090909092	89.0	-100.0	0.0909090909090909	16.0	6.0	1.0	-0.3905792955226843	0.896	n/a	stim	poldrack-single-stim	s618	False	1
262.643	0.46	263.103	-0.0565119016785684	end_round	0.46	columbia_card_task_fmri	11.0	0.9	71.0	-100.0	0.1	16.0	7.0	1.0	0.9991630787882428	0.46	6.0	stim	poldrack-single-stim	s618	False	1
263.858	1.5	263.107	n/a	-1.0	3.134	columbia_card_task_fmri	n/a	n/a	-1.0	n/a	n/a	n/a	n/a	n/a	n/a	n/a	n/a	ITI	poldrack-single-stim	s618	False	0
266.244	3.552	269.796	4.668488098321431	draw_card	3.552	columbia_card_task_fmri	16.0	0.875	89.0	-75.0	0.125	16.0	1.0	2.0	-2.205412734167197	3.552	n/a	stim	poldrack-single-stim	s618	False	1
269.799	0.398	270.197	3.910154764988098	draw_card	0.398	columbia_card_task_fmri	16.0	0.8666666666666667	89.0	-75.0	0.1333333333333333	16.0	2.0	2.0	-1.3667830335424362	0.398	n/a	stim	poldrack-single-stim	s618	False	1
270.2	0.39	270.59	3.0434880983214327	draw_card	0.39	columbia_card_task_fmri	16.0	0.8571428571428572	89.0	-75.0	0.1428571428571428	16.0	3.0	2.0	-0.4574689660659103	0.39	n/a	stim	poldrack-single-stim	s618	False	1
270.594	0.364	270.958	2.043488098321431	end_round	0.364	columbia_card_task_fmri	16.0	0.8461538461538461	71.0	-75.0	0.1538461538461538	16.0	4.0	2.0	0.5320738015295277	0.364	3.0	stim	poldrack-single-stim	s618	False	1
271.714	1.5	270.963	n/a	-1.0	2.386	columbia_card_task_fmri	n/a	n/a	-1.0	n/a	n/a	n/a	n/a	n/a	n/a	n/a	n/a	ITI	poldrack-single-stim	s618	False	0
273.355	2.87	276.225	4.918488098321431	draw_card	2.87	columbia_card_task_fmri	17.0	0.875	89.0	-80.0	0.125	16.0	1.0	2.0	-0.2211011943899876	2.87	n/a	stim	poldrack-single-stim	s618	False	1
276.228	0.667	276.895	4.110154764988099	draw_card	0.667	columbia_card_task_fmri	17.0	0.8666666666666667	89.0	-80.0	0.1333333333333333	16.0	2.0	2.0	0.672822881062686	0.667	n/a	stim	poldrack-single-stim	s618	False	1
276.898	1.106	278.004	3.186345241178577	draw_card	1.106	columbia_card_task_fmri	17.0	0.8571428571428572	89.0	-80.0	0.1428571428571428	16.0	3.0	2.0	1.6420918337675945	1.106	n/a	stim	poldrack-single-stim	s618	False	1
278.006	0.407	278.413	2.120411175244508	end_round	0.407	columbia_card_task_fmri	17.0	0.8461538461538461	71.0	-80.0	0.1538461538461538	16.0	4.0	2.0	2.696879293816295	0.407	3.0	stim	poldrack-single-stim	s618	False	1
279.167	1.5	278.416	n/a	-1.0	2.386	columbia_card_task_fmri	n/a	n/a	-1.0	n/a	n/a	n/a	n/a	n/a	n/a	n/a	n/a	ITI	poldrack-single-stim	s618	False	0
291.814	1.976	293.79	-0.789845235011901	draw_card	1.976	columbia_card_task_fmri	13.0	0.8333333333333334	89.0	-70.0	0.1666666666666666	6.0	1.0	1.0	-1.3685610588344517	1.976	n/a	stim	poldrack-single-stim	s618	False	1
293.793	0.861	294.654	-3.5565119016785687	end_round	0.861	columbia_card_task_fmri	13.0	0.8	71.0	-70.0	0.2	6.0	2.0	1.0	0.8991631643201146	0.861	1.0	stim	poldrack-single-stim	s618	False	1
295.411	1.5	294.66	n/a	-1.0	2.318	columbia_card_task_fmri	n/a	n/a	-1.0	n/a	n/a	n/a	n/a	n/a	n/a	n/a	n/a	ITI	poldrack-single-stim	s618	False	0
296.983	2.648	299.631	-0.789845235011901	end_round	2.648	columbia_card_task_fmri	15.0	0.8333333333333334	71.0	-80.0	0.1666666666666666	6.0	1.0	1.0	3.10357103466486	2.648	0.0	stim	poldrack-single-stim	s618	False	1
300.384	1.5	299.633	n/a	-1.0	2.318	columbia_card_task_fmri	n/a	n/a	-1.0	n/a	n/a	n/a	n/a	n/a	n/a	n/a	n/a	ITI	poldrack-single-stim	s618	False	0
301.956	1.2	303.156	0.8768214316547651	draw_card	1.2	columbia_card_task_fmri	16.0	0.8333333333333334	89.0	-75.0	0.1666666666666666	6.0	1.0	1.0	1.6128602236743743	1.2	n/a	stim	poldrack-single-stim	s618	False	1
303.159	0.5	303.659	-2.1565119016785683	end_round	0.5	columbia_card_task_fmri	16.0	0.8	71.0	-75.0	0.2	6.0	2.0	1.0	4.099160660397871	0.5	1.0	stim	poldrack-single-stim	s618	False	1
304.414	1.5	303.663	n/a	-1.0	2.862	columbia_card_task_fmri	n/a	n/a	-1.0	n/a	n/a	n/a	n/a	n/a	n/a	n/a	n/a	ITI	poldrack-single-stim	s618	False	0
306.53	1.962	308.492	2.043488098321431	draw_card	1.962	columbia_card_task_fmri	21.0	0.75	89.0	-55.0	0.25	8.0	1.0	2.0	0.6081287600139902	1.962	n/a	stim	poldrack-single-stim	s618	False	1
308.495	0.427	308.922	-0.6707976159642823	end_round	0.427	columbia_card_task_fmri	21.0	0.7142857142857143	71.0	-55.0	0.2857142857142857	8.0	2.0	2.0	2.032462534559876	0.427	1.0	stim	poldrack-single-stim	s618	False	1
309.676	1.5	308.925	n/a	-1.0	2.726	columbia_card_task_fmri	n/a	n/a	-1.0	n/a	n/a	n/a	n/a	n/a	n/a	n/a	n/a	ITI	poldrack-single-stim	s618	False	0
311.655	3.162	314.817	3.293488098321431	draw_card	3.162	columbia_card_task_fmri	26.0	0.75	89.0	-65.0	0.25	8.0	1.0	2.0	7.103314552023193	3.162	n/a	stim	poldrack-single-stim	s618	False	1
314.82	0.958	315.778	0.0434880983214347	draw_card	0.958	columbia_card_task_fmri	26.0	0.7142857142857143	89.0	-65.0	0.2857142857142857	8.0	2.0	2.0	8.808767266465722	0.958	n/a	stim	poldrack-single-stim	s618	False	1
315.781	0.674	316.455	-4.289845235011898	end_round	0.674	columbia_card_task_fmri	26.0	0.6666666666666667	71.0	-65.0	0.3333333333333333	8.0	3.0	2.0	10.596968117415408	0.674	2.0	stim	poldrack-single-stim	s618	False	1
317.21	1.5	316.459	n/a	-1.0	2.25	columbia_card_task_fmri	n/a	n/a	-1.0	n/a	n/a	n/a	n/a	n/a	n/a	n/a	n/a	ITI	poldrack-single-stim	s618	False	0
318.713	3.617	322.33	-1.6231785683452349	draw_card	3.617	columbia_card_task_fmri	15.0	0.7777777777777778	89.0	-60.0	0.2222222222222222	9.0	1.0	2.0	-1.1203567678119732	3.617	n/a	stim	poldrack-single-stim	s618	False	1
322.334	0.961	323.295	-3.706511901678569	draw_card	0.961	columbia_card_task_fmri	15.0	0.75	89.0	-60.0	0.25	9.0	2.0	2.0	0.1751164412417267	0.961	n/a	stim	poldrack-single-stim	s618	False	1
323.298	0.466	323.764	-6.385083330249996	end_round	0.466	columbia_card_task_fmri	15.0	0.7142857142857143	71.0	-60.0	0.2857142857142857	9.0	3.0	2.0	1.5807089503333105	0.466	2.0	stim	poldrack-single-stim	s618	False	1
324.522	1.5	323.771	n/a	-1.0	2.318	columbia_card_task_fmri	n/a	n/a	-1.0	n/a	n/a	n/a	n/a	n/a	n/a	n/a	n/a	ITI	poldrack-single-stim	s618	False	0
326.093	4.492	330.585	2.743488098321432	draw_card	4.492	columbia_card_task_fmri	13.0	0.9	89.0	-90.0	0.1	10.0	1.0	1.0	-1.4008347156523089	4.492	n/a	stim	poldrack-single-stim	s618	False	1
330.589	0.728	331.317	1.5990436538769863	end_round	0.728	columbia_card_task_fmri	13.0	0.8888888888888888	71.0	-90.0	0.1111111111111111	10.0	2.0	1.0	0.0689409891493326	0.728	1.0	stim	poldrack-single-stim	s618	False	1
332.071	1.5	331.32	n/a	-1.0	2.454	columbia_card_task_fmri	n/a	n/a	-1.0	n/a	n/a	n/a	n/a	n/a	n/a	n/a	n/a	ITI	poldrack-single-stim	s618	False	0
333.777	1.702	335.479	4.043488098321431	draw_card	1.702	columbia_card_task_fmri	15.0	0.9	89.0	-95.0	0.1	10.0	1.0	1.0	0.6991633369389731	1.702	n/a	stim	poldrack-single-stim	s618	False	1
335.482	1.031	336.513	2.821265876099208	end_round	1.031	columbia_card_task_fmri	15.0	0.8888888888888888	71.0	-95.0	0.1111111111111111	10.0	2.0	1.0	2.26882689385561	1.031	1.0	stim	poldrack-single-stim	s618	False	1
337.271	1.5	336.52	n/a	-1.0	2.522	columbia_card_task_fmri	n/a	n/a	-1.0	n/a	n/a	n/a	n/a	n/a	n/a	n/a	n/a	ITI	poldrack-single-stim	s618	False	0
339.046	1.237	340.283	-0.1565119016785681	draw_card	1.237	columbia_card_task_fmri	16.0	0.8	89.0	-65.0	0.2	10.0	1.0	2.0	0.0991638675821207	1.237	n/a	stim	poldrack-single-stim	s618	False	1
340.286	0.338	340.624	-1.956511901678567	draw_card	0.338	columbia_card_task_fmri	16.0	0.7777777777777778	89.0	-65.0	0.2222222222222222	10.0	2.0	2.0	1.374079243603077	0.338	n/a	stim	poldrack-single-stim	s618	False	1
340.627	0.782	341.409	-4.206511901678569	draw_card	0.782	columbia_card_task_fmri	16.0	0.75	89.0	-65.0	0.25	10.0	3.0	2.0	2.7731904957714377	0.782	n/a	stim	poldrack-single-stim	s618	False	1
341.412	0.452	341.864	-7.09936904453571	end_round	0.452	columbia_card_task_fmri	16.0	0.7142857142857143	71.0	-65.0	0.2857142857142857	10.0	4.0	2.0	4.2912305917022096	0.452	3.0	stim	poldrack-single-stim	s618	False	1
342.618	1.5	341.867	n/a	-1.0	2.318	columbia_card_task_fmri	n/a	n/a	-1.0	n/a	n/a	n/a	n/a	n/a	n/a	n/a	n/a	ITI	poldrack-single-stim	s618	False	0
344.189	1.365	345.554	-1.4565119016785688	draw_card	1.365	columbia_card_task_fmri	7.0	0.9166666666666666	89.0	-95.0	0.0833333333333333	12.0	1.0	1.0	-4.109521057304828	1.365	1.0	stim	poldrack-single-stim	s618	False	0
346.308	1.5	345.557	n/a	-1.0	2.522	columbia_card_task_fmri	n/a	n/a	-1.0	n/a	n/a	n/a	n/a	n/a	n/a	n/a	n/a	ITI	poldrack-single-stim	s618	False	0
348.083	1.469	349.552	-0.789845235011901	draw_card	1.469	columbia_card_task_fmri	14.0	0.8333333333333334	89.0	-75.0	0.1666666666666666	12.0	1.0	2.0	0.8675048577524436	1.469	n/a	stim	poldrack-single-stim	s618	False	1
349.555	0.352	349.907	-2.1383300834967525	draw_card	0.352	columbia_card_task_fmri	14.0	0.8181818181818181	89.0	-75.0	0.1818181818181818	12.0	2.0	2.0	2.025982334233909	0.352	n/a	stim	poldrack-single-stim	s618	False	1
349.911	0.42	350.331	-3.756511901678568	draw_card	0.42	columbia_card_task_fmri	14.0	0.8	89.0	-75.0	0.2	12.0	3.0	2.0	3.2991612441775477	0.42	n/a	stim	poldrack-single-stim	s618	False	1
350.333	0.345	350.678	-5.734289679456344	draw_card	0.345	columbia_card_task_fmri	14.0	0.7777777777777778	89.0	-75.0	0.2222222222222222	12.0	4.0	2.0	4.699994396651526	0.345	n/a	stim	poldrack-single-stim	s618	False	1
350.68	0.424	351.104	-8.206511901678569	end_round	0.424	columbia_card_task_fmri	14.0	0.75	71.0	-75.0	0.25	12.0	5.0	2.0	6.237289687511407	0.424	4.0	stim	poldrack-single-stim	s618	False	1
351.859	1.5	351.108	n/a	-1.0	2.998	columbia_card_task_fmri	n/a	n/a	-1.0	n/a	n/a	n/a	n/a	n/a	n/a	n/a	n/a	ITI	poldrack-single-stim	s618	False	0
354.109	3.931	358.04	0.8768214316547651	end_round	3.931	columbia_card_task_fmri	15.0	0.8333333333333334	71.0	-70.0	0.1666666666666666	12.0	1.0	2.0	-0.6232057856334947	3.931	0.0	stim	poldrack-single-stim	s618	False	1
358.795	1.5	358.044	n/a	-1.0	2.318	columbia_card_task_fmri	n/a	n/a	-1.0	n/a	n/a	n/a	n/a	n/a	n/a	n/a	n/a	ITI	poldrack-single-stim	s618	False	0
360.365	1.713	362.078	-1.156511901678568	end_round	1.713	columbia_card_task_fmri	16.0	0.8	71.0	-70.0	0.2	15.0	1.0	3.0	2.0991621707580137	1.713	0.0	stim	poldrack-single-stim	s618	False	1
362.836	1.5	362.085	n/a	-1.0	2.25	columbia_card_task_fmri	n/a	n/a	-1.0	n/a	n/a	n/a	n/a	n/a	n/a	n/a	n/a	ITI	poldrack-single-stim	s618	False	0
364.34	3.214	367.554	-0.7690119016785688	draw_card	3.214	columbia_card_task_fmri	14.0	0.8125	89.0	-65.0	0.1875	16.0	1.0	3.0	-1.4661570337304752	3.214	n/a	stim	poldrack-single-stim	s618	False	1
367.557	0.674	368.231	-1.7565119016785675	end_round	0.674	columbia_card_task_fmri	14.0	0.8	71.0	-65.0	0.2	16.0	2.0	3.0	-0.7008353935477096	0.674	1.0	stim	poldrack-single-stim	s618	False	1
368.99	1.5	368.239	n/a	-1.0	2.454	columbia_card_task_fmri	n/a	n/a	-1.0	n/a	n/a	n/a	n/a	n/a	n/a	n/a	n/a	ITI	poldrack-single-stim	s618	False	0
370.698	1.88	372.578	-1.0190119016785688	draw_card	1.88	columbia_card_task_fmri	16.0	0.8125	89.0	-75.0	0.1875	16.0	1.0	3.0	3.217587421072359	1.88	n/a	stim	poldrack-single-stim	s618	False	1
372.582	0.464	373.046	-2.1565119016785683	end_round	0.464	columbia_card_task_fmri	16.0	0.8	71.0	-75.0	0.2	16.0	2.0	3.0	4.099160660397871	0.464	1.0	stim	poldrack-single-stim	s618	False	1
373.802	1.5	373.051	n/a	-1.0	2.318	columbia_card_task_fmri	n/a	n/a	-1.0	n/a	n/a	n/a	n/a	n/a	n/a	n/a	n/a	ITI	poldrack-single-stim	s618	False	0
375.373	1.806	377.179	3.243488098321432	draw_card	1.806	columbia_card_task_fmri	16.0	0.8666666666666667	89.0	-80.0	0.1333333333333333	15.0	1.0	2.0	0.3328885455483856	1.806	n/a	stim	poldrack-single-stim	s618	False	1
377.182	0.435	377.617	2.329202384035719	end_round	0.435	columbia_card_task_fmri	16.0	0.8571428571428572	71.0	-80.0	0.1428571428571428	15.0	2.0	2.0	1.2921650178505928	0.435	1.0	stim	poldrack-single-stim	s618	False	1
378.374	1.5	377.623	n/a	-1.0	2.318	columbia_card_task_fmri	n/a	n/a	-1.0	n/a	n/a	n/a	n/a	n/a	n/a	n/a	n/a	ITI	poldrack-single-stim	s618	False	0
379.946	1.514	381.46	4.110154764988099	draw_card	1.514	columbia_card_task_fmri	17.0	0.8666666666666667	89.0	-80.0	0.1333333333333333	15.0	1.0	2.0	0.672822881062686	1.514	n/a	stim	poldrack-single-stim	s618	False	1
381.464	1.041	382.505	3.186345241178577	draw_card	1.041	columbia_card_task_fmri	17.0	0.8571428571428572	89.0	-80.0	0.1428571428571428	15.0	2.0	2.0	1.6420918337675945	1.041	n/a	stim	poldrack-single-stim	s618	False	1
382.509	0.67	383.179	2.120411175244508	draw_card	0.67	columbia_card_task_fmri	17.0	0.8461538461538461	89.0	-80.0	0.1538461538461538	15.0	3.0	2.0	2.696879293816295	0.67	n/a	stim	poldrack-single-stim	s618	False	1
383.181	0.431	383.612	0.8768214316547669	end_round	0.431	columbia_card_task_fmri	17.0	0.8333333333333334	71.0	-80.0	0.1666666666666666	15.0	4.0	2.0	3.8489264764696216	0.431	3.0	stim	poldrack-single-stim	s618	False	1
384.369	1.5	383.618	n/a	-1.0	2.59	columbia_card_task_fmri	n/a	n/a	-1.0	n/a	n/a	n/a	n/a	n/a	n/a	n/a	n/a	ITI	poldrack-single-stim	s618	False	0
386.212	1.945	388.157	0.0434880983214311	draw_card	1.945	columbia_card_task_fmri	1.0	0.9375	89.0	-15.0	0.0625	16.0	1.0	1.0	-28.42763782453728	1.945	n/a	stim	poldrack-single-stim	s618	False	1
388.16	0.728	388.888	-0.0231785683452355	end_round	0.728	columbia_card_task_fmri	1.0	0.9333333333333332	71.0	-15.0	0.0666666666666666	16.0	2.0	1.0	-28.30952718335797	0.728	1.0	stim	poldrack-single-stim	s618	False	1
389.646	1.5	388.895	n/a	-1.0	2.25	columbia_card_task_fmri	n/a	n/a	-1.0	n/a	n/a	n/a	n/a	n/a	n/a	n/a	n/a	ITI	poldrack-single-stim	s618	False	0
391.148	3.57	394.718	3.168488098321431	draw_card	3.57	columbia_card_task_fmri	10.0	0.9375	89.0	-100.0	0.0625	16.0	1.0	1.0	-5.674069299243687	3.57	n/a	stim	poldrack-single-stim	s618	False	1
394.722	1.385	396.107	2.710154764988098	draw_card	1.385	columbia_card_task_fmri	10.0	0.9333333333333332	89.0	-100.0	0.0666666666666666	16.0	2.0	1.0	-4.862010019105995	1.385	n/a	stim	poldrack-single-stim	s618	False	1
396.11	0.357	396.467	2.186345241178575	end_round	0.357	columbia_card_task_fmri	10.0	0.9285714285714286	71.0	-100.0	0.0714285714285714	16.0	3.0	1.0	-3.9715004886706247	0.357	2.0	stim	poldrack-single-stim	s618	False	1
397.221	1.5	396.47	n/a	-1.0	2.25	columbia_card_task_fmri	n/a	n/a	-1.0	n/a	n/a	n/a	n/a	n/a	n/a	n/a	n/a	ITI	poldrack-single-stim	s618	False	0
398.725	1.794	400.519	3.793488098321431	draw_card	1.794	columbia_card_task_fmri	15.0	0.875	89.0	-75.0	0.125	16.0	1.0	2.0	-2.536131298936308	1.794	n/a	stim	poldrack-single-stim	s618	False	1
400.522	0.377	400.899	3.043488098321431	draw_card	0.377	columbia_card_task_fmri	15.0	0.8666666666666667	89.0	-75.0	0.1333333333333333	16.0	2.0	2.0	-1.7067173281325374	0.377	n/a	stim	poldrack-single-stim	s618	False	1
400.903	0.395	401.298	2.186345241178575	end_round	0.395	columbia_card_task_fmri	15.0	0.8571428571428572	71.0	-75.0	0.1428571428571428	16.0	3.0	2.0	-0.8073957422273352	0.395	2.0	stim	poldrack-single-stim	s618	False	1
402.053	1.5	401.302	n/a	-1.0	2.522	columbia_card_task_fmri	n/a	n/a	-1.0	n/a	n/a	n/a	n/a	n/a	n/a	n/a	n/a	ITI	poldrack-single-stim	s618	False	0
403.829	1.44	405.269	4.043488098321431	draw_card	1.44	columbia_card_task_fmri	16.0	0.875	89.0	-80.0	0.125	16.0	1.0	2.0	-0.5518198012236759	1.44	1.0	stim	poldrack-single-stim	s618	False	0
406.026	1.5	405.275	n/a	-1.0	2.454	columbia_card_task_fmri	n/a	n/a	-1.0	n/a	n/a	n/a	n/a	n/a	n/a	n/a	n/a	ITI	poldrack-single-stim	s618	False	0
407.733	2.911	410.644	1.2309880983214312	draw_card	2.911	columbia_card_task_fmri	4.0	0.6875	89.0	-5.0	0.3125	16.0	1.0	5.0	-28.129026998239155	2.911	1.0	stim	poldrack-single-stim	s618	False	0
411.398	1.5	410.647	n/a	-1.0	2.25	columbia_card_task_fmri	n/a	n/a	-1.0	n/a	n/a	n/a	n/a	n/a	n/a	n/a	n/a	ITI	poldrack-single-stim	s618	False	0
412.902	1.86	414.762	-1.623178568345233	draw_card	1.86	columbia_card_task_fmri	14.0	0.8333333333333334	89.0	-80.0	0.1666666666666666	6.0	1.0	1.0	2.730893322550152	1.86	n/a	stim	poldrack-single-stim	s618	False	1
414.766	0.495	415.261	-4.756511901678568	end_round	0.495	columbia_card_task_fmri	14.0	0.8	71.0	-80.0	0.2	6.0	2.0	1.0	5.299159831306483	0.495	1.0	stim	poldrack-single-stim	s618	False	1
416.017	1.5	415.266	n/a	-1.0	2.454	columbia_card_task_fmri	n/a	n/a	-1.0	n/a	n/a	n/a	n/a	n/a	n/a	n/a	n/a	ITI	poldrack-single-stim	s618	False	0
417.723	2.361	420.084	0.0434880983214311	draw_card	2.361	columbia_card_task_fmri	15.0	0.8333333333333334	89.0	-75.0	0.1666666666666666	6.0	1.0	1.0	1.2401825372324282	2.361	n/a	stim	poldrack-single-stim	s618	False	1
420.087	0.486	420.573	-2.956511901678569	end_round	0.486	columbia_card_task_fmri	15.0	0.8	71.0	-75.0	0.2	6.0	2.0	1.0	3.69916094904449	0.486	1.0	stim	poldrack-single-stim	s618	False	1
421.327	1.5	420.576	n/a	-1.0	2.454	columbia_card_task_fmri	n/a	n/a	-1.0	n/a	n/a	n/a	n/a	n/a	n/a	n/a	n/a	ITI	poldrack-single-stim	s618	False	0
423.035	3.149	426.184	1.710154764988099	draw_card	3.149	columbia_card_task_fmri	16.0	0.8333333333333334	89.0	-70.0	0.1666666666666666	6.0	1.0	1.0	-0.2505281364871123	3.149	n/a	stim	poldrack-single-stim	s618	False	1
426.187	0.94	427.127	-1.156511901678568	draw_card	0.94	columbia_card_task_fmri	16.0	0.8	89.0	-70.0	0.2	6.0	2.0	1.0	2.0991621707580137	0.94	n/a	stim	poldrack-single-stim	s618	False	1
427.13	0.425	427.555	-5.456511901678569	end_round	0.425	columbia_card_task_fmri	16.0	0.75	71.0	-70.0	0.25	6.0	3.0	1.0	4.938252437773265	0.425	2.0	stim	poldrack-single-stim	s618	False	1
428.31	1.5	427.559	n/a	-1.0	2.522	columbia_card_task_fmri	n/a	n/a	-1.0	n/a	n/a	n/a	n/a	n/a	n/a	n/a	n/a	ITI	poldrack-single-stim	s618	False	0
430.085	1.321	431.406	2.293488098321431	draw_card	1.321	columbia_card_task_fmri	23.0	0.75	89.0	-60.0	0.25	8.0	1.0	2.0	3.63921524991013	1.321	n/a	stim	poldrack-single-stim	s618	False	1
431.409	0.385	431.794	-0.6707976159642806	draw_card	0.385	columbia_card_task_fmri	23.0	0.7142857142857143	89.0	-60.0	0.2857142857142857	8.0	2.0	2.0	5.194737871912551	0.385	n/a	stim	poldrack-single-stim	s618	False	1
431.799	0.434	432.233	-4.623178568345233	end_round	0.434	columbia_card_task_fmri	23.0	0.6666666666666667	71.0	-60.0	0.3333333333333333	8.0	3.0	2.0	6.825734075736335	0.434	2.0	stim	poldrack-single-stim	s618	False	1
432.986	1.5	432.235	n/a	-1.0	2.454	columbia_card_task_fmri	n/a	n/a	-1.0	n/a	n/a	n/a	n/a	n/a	n/a	n/a	n/a	ITI	poldrack-single-stim	s618	False	0
434.694	1.563	436.257	2.793488098321431	draw_card	1.563	columbia_card_task_fmri	27.0	0.75	89.0	-70.0	0.25	8.0	1.0	2.0	9.701389278986738	1.563	n/a	stim	poldrack-single-stim	s618	False	1
436.261	0.59	436.851	-0.6707976159642841	draw_card	0.59	columbia_card_task_fmri	27.0	0.7142857142857143	89.0	-70.0	0.2857142857142857	8.0	2.0	2.0	11.519289552372292	0.59	2.0	stim	poldrack-single-stim	s618	False	0
437.607	1.5	436.856	n/a	-1.0	2.658	columbia_card_task_fmri	n/a	n/a	-1.0	n/a	n/a	n/a	n/a	n/a	n/a	n/a	n/a	ITI	poldrack-single-stim	s618	False	0
439.519	1.898	441.417	-1.956511901678567	draw_card	1.898	columbia_card_task_fmri	16.0	0.7777777777777778	89.0	-65.0	0.2222222222222222	9.0	1.0	2.0	1.374079243603077	1.898	n/a	stim	poldrack-single-stim	s618	False	1
441.421	1.149	442.57	-4.206511901678569	draw_card	1.149	columbia_card_task_fmri	16.0	0.75	89.0	-65.0	0.25	9.0	2.0	2.0	2.7731904957714377	1.149	n/a	stim	poldrack-single-stim	s618	False	1
442.573	0.454	443.027	-7.09936904453571	end_round	0.454	columbia_card_task_fmri	16.0	0.7142857142857143	71.0	-65.0	0.2857142857142857	9.0	3.0	2.0	4.2912305917022096	0.454	2.0	stim	poldrack-single-stim	s618	False	1
443.781	1.5	443.03	n/a	-1.0	2.386	columbia_card_task_fmri	n/a	n/a	-1.0	n/a	n/a	n/a	n/a	n/a	n/a	n/a	n/a	ITI	poldrack-single-stim	s618	False	0
445.419	3.385	448.804	3.243488098321432	draw_card	3.385	columbia_card_task_fmri	13.0	0.9	89.0	-85.0	0.1	10.0	1.0	1.0	-2.900833154319063	3.385	n/a	stim	poldrack-single-stim	s618	False	1
448.808	0.476	449.284	2.1545992094325417	draw_card	0.476	columbia_card_task_fmri	13.0	0.8888888888888888	89.0	-85.0	0.1111111111111111	10.0	2.0	1.0	-1.502405923047636	0.476	n/a	stim	poldrack-single-stim	s618	False	1
449.288	0.369	449.657	0.7934880983214312	draw_card	0.369	columbia_card_task_fmri	13.0	0.875	89.0	-85.0	0.125	10.0	3.0	1.0	0.1096174187100089	0.369	n/a	stim	poldrack-single-stim	s618	False	1
449.66	0.406	450.066	-0.956511901678567	end_round	0.406	columbia_card_task_fmri	13.0	0.8571428571428572	71.0	-85.0	0.1428571428571428	10.0	4.0	1.0	1.992018655606934	0.406	3.0	stim	poldrack-single-stim	s618	False	1
450.823	1.5	450.072	n/a	-1.0	2.522	columbia_card_task_fmri	n/a	n/a	-1.0	n/a	n/a	n/a	n/a	n/a	n/a	n/a	n/a	ITI	poldrack-single-stim	s618	False	0
452.598	2.962	455.56	-1.7565119016785675	draw_card	2.962	columbia_card_task_fmri	14.0	0.8	89.0	-65.0	0.2	10.0	1.0	2.0	-0.7008353935477096	2.962	n/a	stim	poldrack-single-stim	s618	False	1
455.563	0.392	455.955	-3.5120674572341226	draw_card	0.392	columbia_card_task_fmri	14.0	0.7777777777777778	89.0	-65.0	0.2222222222222222	10.0	2.0	2.0	0.5426005352169412	0.392	n/a	stim	poldrack-single-stim	s618	False	1
455.959	0.353	456.312	-5.706511901678569	end_round	0.353	columbia_card_task_fmri	14.0	0.75	71.0	-65.0	0.25	10.0	3.0	2.0	1.907165774526156	0.353	2.0	stim	poldrack-single-stim	s618	False	1
457.07	1.5	456.319	n/a	-1.0	2.59	columbia_card_task_fmri	n/a	n/a	-1.0	n/a	n/a	n/a	n/a	n/a	n/a	n/a	n/a	ITI	poldrack-single-stim	s618	False	0
458.914	2.103	461.017	-0.3565119016785674	draw_card	2.103	columbia_card_task_fmri	17.0	0.8	89.0	-70.0	0.2	10.0	1.0	2.0	2.4991618547976278	2.103	n/a	stim	poldrack-single-stim	s618	False	1
461.02	0.398	461.418	-2.289845235011901	draw_card	0.398	columbia_card_task_fmri	17.0	0.7777777777777778	89.0	-70.0	0.2222222222222222	10.0	2.0	2.0	3.868515564870769	0.398	n/a	stim	poldrack-single-stim	s618	False	1
461.422	0.415	461.837	-4.706511901678569	draw_card	0.415	columbia_card_task_fmri	17.0	0.75	89.0	-70.0	0.25	10.0	3.0	2.0	5.371264847793732	0.415	n/a	stim	poldrack-single-stim	s618	False	1
461.84	0.425	462.265	-7.813654758821427	end_round	0.425	columbia_card_task_fmri	17.0	0.7142857142857143	71.0	-70.0	0.2857142857142857	10.0	4.0	2.0	7.001752518222112	0.425	3.0	stim	poldrack-single-stim	s618	False	1
463.023	1.5	462.272	n/a	-1.0	2.386	columbia_card_task_fmri	n/a	n/a	-1.0	n/a	n/a	n/a	n/a	n/a	n/a	n/a	n/a	ITI	poldrack-single-stim	s618	False	0
464.663	2.088	466.751	-1.6231785683452349	draw_card	2.088	columbia_card_task_fmri	13.0	0.8333333333333334	89.0	-75.0	0.1666666666666666	12.0	1.0	2.0	0.4948271854717632	2.088	n/a	stim	poldrack-single-stim	s618	False	1
466.754	0.46	467.214	-2.956511901678571	draw_card	0.46	columbia_card_task_fmri	13.0	0.8181818181818181	89.0	-75.0	0.1818181818181818	12.0	2.0	2.0	1.6402880393498125	0.46	2.0	stim	poldrack-single-stim	s618	False	0
467.972	1.5	467.221	n/a	-1.0	2.59	columbia_card_task_fmri	n/a	n/a	-1.0	n/a	n/a	n/a	n/a	n/a	n/a	n/a	n/a	ITI	poldrack-single-stim	s618	False	0
469.816	1.13	470.946	0.0434880983214329	draw_card	1.13	columbia_card_task_fmri	14.0	0.8333333333333334	89.0	-70.0	0.1666666666666666	12.0	1.0	2.0	-0.9958834265155084	1.13	n/a	stim	poldrack-single-stim	s618	False	1
470.949	0.392	471.341	-1.229239174405844	draw_card	0.392	columbia_card_task_fmri	14.0	0.8181818181818181	89.0	-70.0	0.1818181818181818	12.0	2.0	2.0	0.0975109343456779	0.392	n/a	stim	poldrack-single-stim	s618	False	1
471.346	0.461	471.807	-2.756511901678568	draw_card	0.461	columbia_card_task_fmri	14.0	0.8	89.0	-70.0	0.2	12.0	3.0	2.0	1.2991628252473433	0.461	n/a	stim	poldrack-single-stim	s618	False	1
471.81	0.376	472.186	-4.623178568345235	end_round	0.376	columbia_card_task_fmri	14.0	0.7777777777777778	71.0	-70.0	0.2222222222222222	12.0	4.0	2.0	2.621297369655146	0.376	3.0	stim	poldrack-single-stim	s618	False	1
472.944	1.5	472.193	n/a	-1.0	2.318	columbia_card_task_fmri	n/a	n/a	-1.0	n/a	n/a	n/a	n/a	n/a	n/a	n/a	n/a	ITI	poldrack-single-stim	s618	False	0
474.517	1.669	476.186	0.0434880983214329	draw_card	1.669	columbia_card_task_fmri	16.0	0.8333333333333334	89.0	-80.0	0.1666666666666666	12.0	1.0	2.0	3.4762487526990427	1.669	n/a	stim	poldrack-single-stim	s618	False	1
476.188	0.35	476.538	-1.4110573562240256	draw_card	0.35	columbia_card_task_fmri	16.0	0.8181818181818181	89.0	-80.0	0.1818181818181818	12.0	2.0	2.0	4.725842581026612	0.35	n/a	stim	poldrack-single-stim	s618	False	1
476.542	1.048	477.59	-3.1565119016785683	end_round	1.048	columbia_card_task_fmri	16.0	0.8	71.0	-80.0	0.2	12.0	3.0	2.0	6.0991593073667545	1.048	2.0	stim	poldrack-single-stim	s618	False	1
478.344	1.5	477.593	n/a	-1.0	2.25	columbia_card_task_fmri	n/a	n/a	-1.0	n/a	n/a	n/a	n/a	n/a	n/a	n/a	n/a	ITI	poldrack-single-stim	s618	False	0
479.848	1.778	481.626	-0.1565119016785681	draw_card	1.778	columbia_card_task_fmri	16.0	0.8	89.0	-65.0	0.2	15.0	1.0	3.0	0.0991638675821207	1.778	n/a	stim	poldrack-single-stim	s618	False	1
481.63	0.413	482.043	-1.313654758821425	end_round	0.413	columbia_card_task_fmri	16.0	0.7857142857142857	71.0	-65.0	0.2142857142857142	15.0	2.0	3.0	0.9355613023842366	0.413	1.0	stim	poldrack-single-stim	s618	False	1
482.802	1.5	482.051	n/a	-1.0	2.454	columbia_card_task_fmri	n/a	n/a	-1.0	n/a	n/a	n/a	n/a	n/a	n/a	n/a	n/a	ITI	poldrack-single-stim	s618	False	0
484.509	1.694	486.203	-1.8315119016785688	draw_card	1.694	columbia_card_task_fmri	15.0	0.8125	89.0	-75.0	0.1875	16.0	1.0	3.0	2.827275341983324	1.694	n/a	stim	poldrack-single-stim	s618	False	1
486.208	0.389	486.597	-2.956511901678569	end_round	0.389	columbia_card_task_fmri	15.0	0.8	71.0	-75.0	0.2	16.0	2.0	3.0	3.69916094904449	0.389	1.0	stim	poldrack-single-stim	s618	False	1
487.356	1.5	486.605	n/a	-1.0	3.27	columbia_card_task_fmri	n/a	n/a	-1.0	n/a	n/a	n/a	n/a	n/a	n/a	n/a	n/a	ITI	poldrack-single-stim	s618	False	0
489.881	2.797	492.678	-1.2690119016785688	draw_card	2.797	columbia_card_task_fmri	14.0	0.6875	89.0	-35.0	0.3125	16.0	1.0	5.0	-9.588715816620304	2.797	1.0	stim	poldrack-single-stim	s618	False	0
493.432	1.5	492.681	n/a	-1.0	2.25	columbia_card_task_fmri	n/a	n/a	-1.0	n/a	n/a	n/a	n/a	n/a	n/a	n/a	n/a	ITI	poldrack-single-stim	s618	False	0
494.936	1.178	496.114	3.910154764988098	draw_card	1.178	columbia_card_task_fmri	16.0	0.8666666666666667	89.0	-75.0	0.1333333333333333	15.0	1.0	2.0	-1.3667830335424362	1.178	n/a	stim	poldrack-single-stim	s618	False	1
496.118	0.33	496.448	3.0434880983214327	draw_card	0.33	columbia_card_task_fmri	16.0	0.8571428571428572	89.0	-75.0	0.1428571428571428	15.0	2.0	2.0	-0.4574689660659103	0.33	n/a	stim	poldrack-single-stim	s618	False	1
496.451	0.386	496.837	2.043488098321431	draw_card	0.386	columbia_card_task_fmri	16.0	0.8461538461538461	89.0	-75.0	0.1538461538461538	15.0	3.0	2.0	0.5320738015295277	0.386	n/a	stim	poldrack-single-stim	s618	False	1
496.842	0.379	497.221	0.8768214316547651	draw_card	0.379	columbia_card_task_fmri	16.0	0.8333333333333334	89.0	-75.0	0.1666666666666666	15.0	4.0	2.0	1.6128602236743743	0.379	n/a	stim	poldrack-single-stim	s618	False	1
497.225	0.413	497.638	-0.5019664471331156	end_round	0.413	columbia_card_task_fmri	16.0	0.8181818181818181	71.0	-75.0	0.1818181818181818	15.0	5.0	2.0	2.7973709446417985	0.413	4.0	stim	poldrack-single-stim	s618	False	1
498.397	1.5	497.646	n/a	-1.0	2.25	columbia_card_task_fmri	n/a	n/a	-1.0	n/a	n/a	n/a	n/a	n/a	n/a	n/a	n/a	ITI	poldrack-single-stim	s618	False	0
499.901	2.198	502.099	4.576821431654764	draw_card	2.198	columbia_card_task_fmri	16.0	0.8666666666666667	89.0	-70.0	0.1333333333333333	15.0	1.0	2.0	-3.066454427504844	2.198	n/a	stim	poldrack-single-stim	s618	False	1
502.104	0.363	502.467	3.7577738126071454	draw_card	0.363	columbia_card_task_fmri	16.0	0.8571428571428572	89.0	-70.0	0.1428571428571428	15.0	2.0	2.0	-2.20710277014048	0.363	n/a	stim	poldrack-single-stim	s618	False	1
502.471	0.318	502.789	2.8127188675521992	draw_card	0.318	columbia_card_task_fmri	16.0	0.8461538461538461	89.0	-70.0	0.1538461538461538	15.0	3.0	2.0	-1.2719305854901677	0.318	n/a	stim	poldrack-single-stim	s618	False	1
502.793	0.361	503.154	1.710154764988099	end_round	0.361	columbia_card_task_fmri	16.0	0.8333333333333334	71.0	-70.0	0.1666666666666666	15.0	4.0	2.0	-0.2505281364871123	0.361	3.0	stim	poldrack-single-stim	s618	False	1
503.909	1.5	503.158	n/a	-1.0	2.318	columbia_card_task_fmri	n/a	n/a	-1.0	n/a	n/a	n/a	n/a	n/a	n/a	n/a	n/a	ITI	poldrack-single-stim	s618	False	0
505.481	1.67	507.151	1.9184880983214312	draw_card	1.67	columbia_card_task_fmri	8.0	0.9375	89.0	-90.0	0.0625	16.0	1.0	1.0	-8.578802460326933	1.67	n/a	stim	poldrack-single-stim	s618	False	1
507.154	1.614	508.768	1.510154764988098	end_round	1.614	columbia_card_task_fmri	8.0	0.9333333333333332	71.0	-90.0	0.0666666666666666	16.0	2.0	1.0	-7.8553317086496115	1.614	1.0	stim	poldrack-single-stim	s618	False	1
509.522	1.5	508.771	n/a	-1.0	2.726	columbia_card_task_fmri	n/a	n/a	-1.0	n/a	n/a	n/a	n/a	n/a	n/a	n/a	n/a	ITI	poldrack-single-stim	s618	False	0
511.502	1.933	513.435	3.480988098321431	draw_card	1.933	columbia_card_task_fmri	10.0	0.9375	89.0	-95.0	0.0625	16.0	1.0	1.0	-6.884374903821779	1.933	n/a	stim	poldrack-single-stim	s618	False	1
513.438	0.586	514.024	3.043488098321432	draw_card	0.586	columbia_card_task_fmri	10.0	0.9333333333333332	89.0	-95.0	0.0666666666666666	16.0	2.0	1.0	-6.109227506967688	0.586	n/a	stim	poldrack-single-stim	s618	False	1
514.029	0.329	514.358	2.543488098321432	draw_card	0.329	columbia_card_task_fmri	10.0	0.9285714285714286	89.0	-95.0	0.0714285714285714	16.0	3.0	1.0	-5.259195783287296	0.329	n/a	stim	poldrack-single-stim	s618	False	1
514.362	0.485	514.847	1.9665650213983543	draw_card	0.485	columbia_card_task_fmri	10.0	0.9230769230769232	89.0	-95.0	0.0769230769230769	16.0	4.0	1.0	-4.321549245026677	0.485	n/a	stim	poldrack-single-stim	s618	False	1
514.851	0.628	515.479	1.2934880983214312	end_round	0.628	columbia_card_task_fmri	10.0	0.9166666666666666	71.0	-95.0	0.0833333333333333	16.0	5.0	1.0	-3.2803658180717754	0.628	4.0	stim	poldrack-single-stim	s618	False	1
516.236	1.5	515.485	n/a	-1.0	2.386	columbia_card_task_fmri	n/a	n/a	-1.0	n/a	n/a	n/a	n/a	n/a	n/a	n/a	n/a	ITI	poldrack-single-stim	s618	False	0
517.875	1.977	519.852	4.418488098321431	draw_card	1.977	columbia_card_task_fmri	15.0	0.875	89.0	-70.0	0.125	16.0	1.0	2.0	-4.189723999565398	1.977	n/a	stim	poldrack-single-stim	s618	False	1
519.855	0.328	520.183	3.710154764988097	draw_card	0.328	columbia_card_task_fmri	15.0	0.8666666666666667	89.0	-70.0	0.1333333333333333	16.0	2.0	2.0	-3.406388681206991	0.328	n/a	stim	poldrack-single-stim	s618	False	1
520.187	0.397	520.584	2.9006309554642886	end_round	0.397	columbia_card_task_fmri	15.0	0.8571428571428572	71.0	-70.0	0.1428571428571428	16.0	3.0	2.0	-2.557029506581525	0.397	2.0	stim	poldrack-single-stim	s618	False	1
521.344	1.5	520.593	n/a	-1.0	2.318	columbia_card_task_fmri	n/a	n/a	-1.0	n/a	n/a	n/a	n/a	n/a	n/a	n/a	n/a	ITI	poldrack-single-stim	s618	False	0
522.917	1.888	524.805	3.418488098321431	draw_card	1.888	columbia_card_task_fmri	16.0	0.875	89.0	-85.0	0.125	16.0	1.0	2.0	1.1017732937465397	1.888	n/a	stim	poldrack-single-stim	s618	False	1
524.81	0.618	525.428	2.576821431654764	draw_card	0.618	columbia_card_task_fmri	16.0	0.8666666666666667	89.0	-85.0	0.1333333333333333	16.0	2.0	2.0	2.0325602822733373	0.618	2.0	stim	poldrack-single-stim	s618	False	0
526.184	1.5	525.433	n/a	-1.0	2.25	columbia_card_task_fmri	n/a	n/a	-1.0	n/a	n/a	n/a	n/a	n/a	n/a	n/a	n/a	ITI	poldrack-single-stim	s618	False	0
