onset	duration	block_duration	correct	correct_response	cue	experiment_exp_id	flanker_location	flanker_middle_direction	flanker_type	key_press	response_time	trial_id	worker_id	junk
3.524	1.7	2.1	1.0	89.0	spatial	attention_network_task	down	left	incongruent	89	0.569	stim	s618	False
6.134	1.7	2.1	1.0	89.0	spatial	attention_network_task	up	left	incongruent	89	0.664	stim	s618	False
8.741864	1.7	2.100136	1.0	71.0	spatial	attention_network_task	down	right	congruent	71	0.484	stim	s618	False
11.349727999999999	1.7	2.100272	1.0	71.0	spatial	attention_network_task	up	right	congruent	71	0.52	stim	s618	False
13.958592000000001	1.7	2.100408	1.0	89.0	double	attention_network_task	down	left	incongruent	89	0.517	stim	s618	False
16.567	1.7	2.1	1.0	89.0	double	attention_network_task	down	left	congruent	89	0.629	stim	s618	False
19.176864000000002	1.7	2.100136	1.0	89.0	double	attention_network_task	down	left	congruent	89	0.46	stim	s618	False
21.787864000000003	1.7	2.100136	1.0	71.0	spatial	attention_network_task	down	right	congruent	71	0.604	stim	s618	False
24.4	1.7	2.1	1.0	89.0	double	attention_network_task	up	left	congruent	89	0.561	stim	s618	False
27.009592	1.7	2.100408	1.0	89.0	double	attention_network_task	down	left	incongruent	89	0.447	stim	s618	False
29.617455999999997	1.7	2.1005439999999997	1.0	71.0	spatial	attention_network_task	up	right	congruent	71	0.481	stim	s618	False
32.225864	1.7	2.100136	1.0	71.0	spatial	attention_network_task	down	right	congruent	71	0.521	stim	s618	False
34.833864	1.7	2.100136	1.0	89.0	spatial	attention_network_task	down	left	congruent	89	0.414	stim	s618	False
37.442	1.7	2.1	1.0	71.0	spatial	attention_network_task	down	right	incongruent	71	0.627	stim	s618	False
40.052	1.7	2.1	1.0	89.0	double	attention_network_task	up	left	congruent	89	0.446	stim	s618	False
42.662864	1.7	2.100136	1.0	89.0	double	attention_network_task	down	left	congruent	89	0.385	stim	s618	False
45.277	1.7	2.1	1.0	71.0	double	attention_network_task	up	right	congruent	71	0.604	stim	s618	False
47.889864	1.7	2.100136	1.0	71.0	double	attention_network_task	up	right	congruent	71	0.537	stim	s618	False
50.498	1.7	2.1	1.0	71.0	double	attention_network_task	up	right	congruent	71	0.527	stim	s618	False
53.105591999999994	1.7	2.100408	1.0	89.0	spatial	attention_network_task	down	left	congruent	89	0.348	stim	s618	False
55.714	1.7	2.1	1.0	71.0	spatial	attention_network_task	down	right	incongruent	71	0.539	stim	s618	False
58.321184	1.7	2.100816	1.0	89.0	double	attention_network_task	down	left	incongruent	89	0.406	stim	s618	False
60.93332	1.7	2.1006799999999997	1.0	89.0	spatial	attention_network_task	down	left	congruent	89	0.46	stim	s618	False
63.548	1.7	2.1	1.0	71.0	spatial	attention_network_task	up	right	congruent	71	0.472	stim	s618	False
66.156864	1.7	2.100136	1.0	89.0	spatial	attention_network_task	down	left	congruent	89	0.358	stim	s618	False
68.764864	1.7	2.100136	1.0	71.0	double	attention_network_task	up	right	incongruent	71	0.579	stim	s618	False
71.372864	1.7	2.100136	1.0	71.0	double	attention_network_task	up	right	incongruent	71	0.589	stim	s618	False
73.982	1.7	2.1	1.0	71.0	double	attention_network_task	down	right	incongruent	71	0.604	stim	s618	False
76.589864	1.7	2.100136	1.0	89.0	spatial	attention_network_task	up	left	incongruent	89	0.437	stim	s618	False
79.20204799999999	1.7	2.1009520000000004	1.0	89.0	spatial	attention_network_task	up	left	incongruent	89	0.459	stim	s618	False
81.810864	1.7	2.100136	1.0	71.0	double	attention_network_task	down	right	incongruent	71	0.614	stim	s618	False
84.418592	1.7	2.100408	1.0	71.0	double	attention_network_task	down	right	incongruent	71	0.66	stim	s618	False
87.02604799999999	1.7	2.1009520000000004	1.0	71.0	spatial	attention_network_task	down	right	incongruent	71	0.506	stim	s618	False
89.63486400000001	1.7	2.100136	1.0	71.0	double	attention_network_task	down	right	incongruent	71	0.541	stim	s618	False
92.24472800000001	1.7	2.100272	1.0	89.0	double	attention_network_task	up	left	incongruent	89	0.637	stim	s618	False
94.85172800000001	1.7	2.100272	1.0	71.0	double	attention_network_task	down	right	incongruent	71	0.587	stim	s618	False
97.46	1.7	2.1	1.0	71.0	double	attention_network_task	down	right	congruent	71	0.524	stim	s618	False
100.068	1.7	2.1	1.0	89.0	spatial	attention_network_task	down	left	incongruent	89	0.465	stim	s618	False
102.675728	1.7	2.100272	1.0	89.0	spatial	attention_network_task	up	left	congruent	89	0.884	stim	s618	False
105.284	1.7	2.1	1.0	71.0	spatial	attention_network_task	up	right	congruent	71	0.435	stim	s618	False
107.892	1.7	2.1	1.0	71.0	spatial	attention_network_task	up	right	incongruent	71	0.605	stim	s618	False
110.499728	1.7	2.100272	1.0	89.0	double	attention_network_task	down	left	congruent	89	0.378	stim	s618	False
113.108	1.7	2.1	1.0	71.0	spatial	attention_network_task	up	right	incongruent	71	0.401	stim	s618	False
115.715864	1.7	2.100136	1.0	71.0	spatial	attention_network_task	down	right	congruent	71	0.504	stim	s618	False
118.323728	1.7	2.100272	1.0	89.0	spatial	attention_network_task	up	left	congruent	89	0.379	stim	s618	False
120.932	1.7	2.1	1.0	71.0	spatial	attention_network_task	up	right	congruent	71	0.367	stim	s618	False
123.54	1.7	2.1	1.0	89.0	double	attention_network_task	up	left	incongruent	89	0.368	stim	s618	False
126.154	1.7	2.1	1.0	89.0	double	attention_network_task	up	left	congruent	89	0.418	stim	s618	False
128.762	1.7	2.1	1.0	89.0	spatial	attention_network_task	up	left	incongruent	89	0.358	stim	s618	False
131.37	1.7	2.1	1.0	71.0	double	attention_network_task	up	right	congruent	71	0.398	stim	s618	False
133.978	1.7	2.1	1.0	89.0	spatial	attention_network_task	down	left	incongruent	89	0.6	stim	s618	False
136.585728	1.7	2.100272	1.0	71.0	double	attention_network_task	up	right	congruent	71	0.44	stim	s618	False
139.194864	1.7	2.100136	1.0	71.0	double	attention_network_task	up	right	incongruent	71	0.508	stim	s618	False
141.811912	1.7	2.1010880000000003	1.0	89.0	double	attention_network_task	down	left	incongruent	89	0.591	stim	s618	False
144.420728	1.7	2.100272	1.0	71.0	spatial	attention_network_task	down	right	congruent	71	0.538	stim	s618	False
147.028864	1.7	2.100136	1.0	89.0	spatial	attention_network_task	up	left	congruent	89	0.418	stim	s618	False
149.636864	1.7	2.100136	1.0	89.0	double	attention_network_task	up	left	congruent	89	0.413	stim	s618	False
152.245	1.7	2.1	0.0	89.0	double	attention_network_task	down	left	congruent	71	0.439	stim	s618	False
154.856	1.7	2.1	1.0	71.0	spatial	attention_network_task	down	right	incongruent	71	0.594	stim	s618	False
157.467	1.7	2.1	1.0	89.0	spatial	attention_network_task	up	left	congruent	89	0.441	stim	s618	False
160.08	1.7	2.1	1.0	89.0	double	attention_network_task	up	left	incongruent	89	0.528	stim	s618	False
162.687864	1.7	2.100136	1.0	89.0	spatial	attention_network_task	up	left	incongruent	89	0.379	stim	s618	False
165.29972800000002	1.7	2.100272	1.0	71.0	double	attention_network_task	up	right	incongruent	71	0.529	stim	s618	False
167.909864	1.7	2.100136	1.0	89.0	spatial	attention_network_task	down	left	congruent	89	0.592	stim	s618	False
181.029864	1.7	2.100136	1.0	71.0	double	attention_network_task	down	right	congruent	71	0.596	stim	s618	False
183.638	1.7	2.1	1.0	89.0	double	attention_network_task	up	left	incongruent	89	0.444	stim	s618	False
186.246	1.7	2.1	1.0	71.0	spatial	attention_network_task	down	right	congruent	71	0.574	stim	s618	False
188.853592	1.7	2.100408	1.0	89.0	double	attention_network_task	down	left	congruent	89	0.432	stim	s618	False
191.461456	1.7	2.1005439999999997	1.0	71.0	double	attention_network_task	down	right	congruent	71	0.459	stim	s618	False
194.070592	1.7	2.100408	0.0	71.0	spatial	attention_network_task	up	right	incongruent	89	0.472	stim	s618	False
196.678	1.7	2.1	1.0	71.0	spatial	attention_network_task	up	right	congruent	71	0.425	stim	s618	False
199.285592	1.7	2.100408	1.0	89.0	double	attention_network_task	up	left	congruent	89	0.397	stim	s618	False
201.894	1.7	2.1	1.0	89.0	spatial	attention_network_task	down	left	congruent	89	0.711	stim	s618	False
204.502592	1.7	2.100408	1.0	71.0	spatial	attention_network_task	up	right	congruent	71	0.438	stim	s618	False
207.111	1.7	2.1	1.0	71.0	spatial	attention_network_task	up	right	incongruent	71	0.383	stim	s618	False
209.719	1.7	2.1	1.0	71.0	spatial	attention_network_task	up	right	incongruent	71	0.383	stim	s618	False
212.326592	1.7	2.100408	1.0	89.0	spatial	attention_network_task	down	left	incongruent	89	0.656	stim	s618	False
214.939864	1.7	2.100136	1.0	89.0	spatial	attention_network_task	down	left	incongruent	89	0.381	stim	s618	False
217.547728	1.7	2.100272	1.0	71.0	double	attention_network_task	up	right	incongruent	71	0.585	stim	s618	False
220.15545600000002	1.7	2.1005439999999997	1.0	71.0	double	attention_network_task	down	right	incongruent	71	0.51	stim	s618	False
222.764728	1.7	2.100272	1.0	71.0	spatial	attention_network_task	down	right	incongruent	71	0.384	stim	s618	False
225.378	1.7	2.1	1.0	71.0	spatial	attention_network_task	down	right	incongruent	71	0.372	stim	s618	False
227.985592	1.7	2.100408	1.0	89.0	spatial	attention_network_task	down	left	incongruent	89	0.441	stim	s618	False
230.595	1.7	2.1	1.0	89.0	spatial	attention_network_task	up	left	congruent	89	0.635	stim	s618	False
233.202	1.7	2.1	1.0	89.0	double	attention_network_task	up	left	congruent	89	0.418	stim	s618	False
235.809456	1.7	2.1005439999999997	1.0	71.0	double	attention_network_task	down	right	incongruent	71	0.66	stim	s618	False
238.417592	1.7	2.100408	1.0	71.0	spatial	attention_network_task	up	right	congruent	71	0.61	stim	s618	False
241.026	1.7	2.1	1.0	89.0	spatial	attention_network_task	up	left	congruent	89	0.395	stim	s618	False
243.633864	1.7	2.100136	1.0	89.0	spatial	attention_network_task	up	left	congruent	89	0.386	stim	s618	False
246.247184	1.7	2.100816	1.0	71.0	spatial	attention_network_task	up	right	incongruent	71	0.442	stim	s618	False
248.855864	1.7	2.100136	1.0	71.0	double	attention_network_task	down	right	congruent	71	0.55	stim	s618	False
251.464	1.7	2.1	1.0	89.0	spatial	attention_network_task	down	left	congruent	89	0.828	stim	s618	False
254.074864	1.7	2.100136	1.0	89.0	double	attention_network_task	up	left	incongruent	89	0.502	stim	s618	False
256.685864	1.7	2.100136	1.0	89.0	spatial	attention_network_task	down	left	incongruent	89	0.606	stim	s618	False
259.293864	1.7	2.100136	1.0	89.0	double	attention_network_task	down	left	incongruent	89	0.588	stim	s618	False
261.905456	1.7	2.1005439999999997	1.0	71.0	spatial	attention_network_task	down	right	congruent	71	0.501	stim	s618	False
264.515	1.7	2.1	1.0	89.0	spatial	attention_network_task	up	left	congruent	89	0.405	stim	s618	False
267.122728	1.7	2.100272	1.0	71.0	double	attention_network_task	up	right	incongruent	71	0.545	stim	s618	False
269.735	1.7	2.1	1.0	89.0	spatial	attention_network_task	down	left	congruent	89	0.481	stim	s618	False
272.34486400000003	1.7	2.100136	1.0	71.0	spatial	attention_network_task	down	right	congruent	71	0.58	stim	s618	False
274.957592	1.7	2.100408	1.0	89.0	double	attention_network_task	down	left	incongruent	89	0.497	stim	s618	False
277.566456	1.7	2.1005439999999997	1.0	71.0	double	attention_network_task	up	right	congruent	71	0.484	stim	s618	False
280.18	1.7	2.1	1.0	71.0	double	attention_network_task	up	right	incongruent	71	0.541	stim	s618	False
282.787864	1.7	2.100136	1.0	71.0	spatial	attention_network_task	down	right	incongruent	71	0.618	stim	s618	False
285.395864	1.7	2.100136	1.0	71.0	double	attention_network_task	up	right	incongruent	71	0.629	stim	s618	False
288.003864	1.7	2.100136	1.0	89.0	spatial	attention_network_task	down	left	incongruent	89	0.615	stim	s618	False
290.611864	1.7	2.100136	1.0	71.0	double	attention_network_task	down	right	congruent	71	0.738	stim	s618	False
293.219728	1.7	2.100272	1.0	89.0	spatial	attention_network_task	up	left	incongruent	89	0.562	stim	s618	False
295.83286400000003	1.7	2.100136	1.0	89.0	spatial	attention_network_task	up	left	incongruent	89	0.368	stim	s618	False
298.446592	1.7	2.100408	1.0	71.0	spatial	attention_network_task	up	right	incongruent	71	1.025	stim	s618	False
301.056	1.7	2.1	1.0	89.0	double	attention_network_task	up	left	incongruent	89	0.537	stim	s618	False
303.667864	1.7	2.100136	1.0	89.0	double	attention_network_task	up	left	congruent	89	0.465	stim	s618	False
306.276	1.7	2.1	1.0	71.0	spatial	attention_network_task	down	right	congruent	71	0.552	stim	s618	False
308.883864	1.7	2.100136	1.0	89.0	double	attention_network_task	down	left	incongruent	89	0.617	stim	s618	False
311.49104800000003	1.7	2.1009520000000004	1.0	89.0	spatial	attention_network_task	down	left	congruent	89	0.605	stim	s618	False
314.105728	1.7	2.100272	1.0	71.0	double	attention_network_task	up	right	congruent	71	0.572	stim	s618	False
316.713864	1.7	2.100136	1.0	89.0	double	attention_network_task	down	left	congruent	89	0.514	stim	s618	False
319.322	1.7	2.1	1.0	89.0	double	attention_network_task	up	left	incongruent	89	0.549	stim	s618	False
321.934864	1.7	2.100136	1.0	71.0	spatial	attention_network_task	up	right	incongruent	71	0.717	stim	s618	False
324.546	1.7	2.1	1.0	71.0	double	attention_network_task	down	right	congruent	71	0.568	stim	s618	False
327.156864	1.7	2.100136	1.0	71.0	spatial	attention_network_task	down	right	incongruent	71	0.513	stim	s618	False
329.764728	1.7	2.100272	1.0	71.0	double	attention_network_task	down	right	incongruent	71	0.557	stim	s618	False
332.372728	1.7	2.100272	1.0	89.0	spatial	attention_network_task	up	left	incongruent	89	0.701	stim	s618	False
334.985864	1.7	2.100136	1.0	89.0	double	attention_network_task	up	left	congruent	89	0.699	stim	s618	False
337.6	1.7	2.1	1.0	89.0	double	attention_network_task	down	left	incongruent	89	0.575	stim	s618	False
340.212864	1.7	2.100136	1.0	89.0	double	attention_network_task	up	left	incongruent	89	0.608	stim	s618	False
342.821	1.7	2.1	1.0	71.0	spatial	attention_network_task	down	right	congruent	71	0.531	stim	s618	False
345.429728	1.7	2.100272	1.0	71.0	double	attention_network_task	up	right	congruent	71	0.69	stim	s618	False
