duration	onset	block_duration	movement_onset	planning	condition	exp_stage	experiment_exp_id	key_press	problem_id	response_time	trial_id	trial_type	worker_id	junk
4.354	3.007	4.354	7.361	1	UA_with_intermediate	practice	ward_and_allport	71	0.0	4.354	to_hand	poldrack-single-stim	s618	False
0.1	7.363	1.429	8.792	0	UA_with_intermediate	practice	ward_and_allport	89	0.0	1.429	to_board	poldrack-single-stim	s618	False
0.1	8.793	0.485	9.278	0	UA_with_intermediate	practice	ward_and_allport	71	0.0	0.485	to_hand	poldrack-single-stim	s618	False
0.1	9.279	0.319	9.598	0	UA_with_intermediate	practice	ward_and_allport	89	0.0	0.319	to_board	poldrack-single-stim	s618	False
0.1	9.6	5.493	15.093	0	UA_with_intermediate	practice	ward_and_allport	89	0.0	5.493	to_hand	poldrack-single-stim	s618	False
0.1	15.094	0.559	15.653	0	UA_with_intermediate	practice	ward_and_allport	71	0.0	0.559	to_board	poldrack-single-stim	s618	False
0.1	15.657	2.235	17.892	0	UA_with_intermediate	practice	ward_and_allport	89	0.0	2.235	to_hand	poldrack-single-stim	s618	False
0.1	17.893	0.379	18.272	0	UA_with_intermediate	practice	ward_and_allport	82	0.0	0.379	to_board	poldrack-single-stim	s618	False
0.1	18.273	0.618	18.891	0	UA_with_intermediate	practice	ward_and_allport	71	0.0	0.618	to_hand	poldrack-single-stim	s618	False
0.1	18.892	0.404	19.296	0	UA_with_intermediate	practice	ward_and_allport	89	0.0	0.404	to_board	poldrack-single-stim	s618	False
0.1	19.297	0.519	19.816	0	UA_with_intermediate	practice	ward_and_allport	82	0.0	0.519	to_hand	poldrack-single-stim	s618	False
0.1	19.818	0.364	20.182	0	UA_with_intermediate	practice	ward_and_allport	89	0.0	0.364	to_board	poldrack-single-stim	s618	False
1.0	20.187	2.5	20.186	0	UA_with_intermediate	practice	ward_and_allport	-1	0.0	n/a	feedback	poldrack-single-stim	s618	False
2.833	22.689	2.833	25.522	1	UA_with_intermediate	practice	ward_and_allport	89	1.0	2.833	to_hand	poldrack-single-stim	s618	False
0.1	25.524	0.366	25.89	0	UA_with_intermediate	practice	ward_and_allport	82	1.0	0.366	to_board	poldrack-single-stim	s618	False
0.1	25.891	0.386	26.277	0	UA_with_intermediate	practice	ward_and_allport	71	1.0	0.386	to_hand	poldrack-single-stim	s618	False
0.1	26.279	0.344	26.623	0	UA_with_intermediate	practice	ward_and_allport	89	1.0	0.344	to_board	poldrack-single-stim	s618	False
0.1	26.625	0.421	27.046	0	UA_with_intermediate	practice	ward_and_allport	82	1.0	0.421	to_hand	poldrack-single-stim	s618	False
0.1	27.047	0.314	27.361	0	UA_with_intermediate	practice	ward_and_allport	89	1.0	0.314	to_board	poldrack-single-stim	s618	False
1.0	27.366	2.1	27.365	0	UA_with_intermediate	practice	ward_and_allport	-1	1.0	n/a	feedback	poldrack-single-stim	s618	False
2.591	29.469	2.591	32.06	1	UA_without_intermediate	practice	ward_and_allport	82	2.0	2.591	to_hand	poldrack-single-stim	s618	False
0.1	32.061	0.67	32.731	0	UA_without_intermediate	practice	ward_and_allport	89	2.0	0.67	to_board	poldrack-single-stim	s618	False
0.1	32.732	0.495	33.227	0	UA_without_intermediate	practice	ward_and_allport	71	2.0	0.495	to_hand	poldrack-single-stim	s618	False
0.1	33.228	0.538	33.766	0	UA_without_intermediate	practice	ward_and_allport	89	2.0	0.538	to_board	poldrack-single-stim	s618	False
0.1	33.768	0.392	34.16	0	UA_without_intermediate	practice	ward_and_allport	71	2.0	0.392	to_hand	poldrack-single-stim	s618	False
0.1	34.161	0.393	34.554	0	UA_without_intermediate	practice	ward_and_allport	89	2.0	0.393	to_board	poldrack-single-stim	s618	False
1.0	34.556	2.2	34.555	0	UA_without_intermediate	practice	ward_and_allport	-1	2.0	n/a	feedback	poldrack-single-stim	s618	False
2.207	36.758	2.207	38.965	1	UA_without_intermediate	practice	ward_and_allport	71	3.0	2.207	to_hand	poldrack-single-stim	s618	False
0.1	38.967	0.681	39.648	0	UA_without_intermediate	practice	ward_and_allport	89	3.0	0.681	to_board	poldrack-single-stim	s618	False
0.1	39.65	0.681	40.331	0	UA_without_intermediate	practice	ward_and_allport	82	3.0	0.681	to_hand	poldrack-single-stim	s618	False
0.1	40.332	0.394	40.726	0	UA_without_intermediate	practice	ward_and_allport	89	3.0	0.394	to_board	poldrack-single-stim	s618	False
0.1	40.727	0.399	41.126	0	UA_without_intermediate	practice	ward_and_allport	71	3.0	0.399	to_hand	poldrack-single-stim	s618	False
0.1	41.127	0.367	41.494	0	UA_without_intermediate	practice	ward_and_allport	89	3.0	0.367	to_board	poldrack-single-stim	s618	False
1.0	41.498	2.0	41.497	0	UA_without_intermediate	practice	ward_and_allport	-1	3.0	n/a	feedback	poldrack-single-stim	s618	False
4.072	45.509	4.072	49.581	1	PA_with_intermediate	test	ward_and_allport	82	0.0	4.072	to_hand	poldrack-single-stim	s618	False
0.1	49.582	0.671	50.253	0	PA_with_intermediate	test	ward_and_allport	89	0.0	0.671	to_board	poldrack-single-stim	s618	False
0.1	50.255	1.864	52.119	0	PA_with_intermediate	test	ward_and_allport	82	0.0	1.864	to_hand	poldrack-single-stim	s618	False
0.1	52.12	0.496	52.616	0	PA_with_intermediate	test	ward_and_allport	71	0.0	0.496	to_board	poldrack-single-stim	s618	False
0.1	52.618	1.331	53.949	0	PA_with_intermediate	test	ward_and_allport	89	0.0	1.331	to_hand	poldrack-single-stim	s618	False
0.1	53.95	0.457	54.407	0	PA_with_intermediate	test	ward_and_allport	71	0.0	0.457	to_board	poldrack-single-stim	s618	False
1.0	54.413	3.768	54.412	0	PA_with_intermediate	test	ward_and_allport	-1	0.0	n/a	feedback	poldrack-single-stim	s618	False
3.346	58.184	3.346	61.53	1	PA_with_intermediate	test	ward_and_allport	71	1.0	3.346	to_hand	poldrack-single-stim	s618	False
0.1	61.531	0.512	62.043	0	PA_with_intermediate	test	ward_and_allport	89	1.0	0.512	to_board	poldrack-single-stim	s618	False
0.1	62.045	0.41	62.455	0	PA_with_intermediate	test	ward_and_allport	71	1.0	0.41	to_hand	poldrack-single-stim	s618	False
0.1	62.456	0.664	63.12	0	PA_with_intermediate	test	ward_and_allport	82	1.0	0.664	to_board	poldrack-single-stim	s618	False
0.1	63.122	1.3	64.422	0	PA_with_intermediate	test	ward_and_allport	89	1.0	1.3	to_hand	poldrack-single-stim	s618	False
0.1	64.423	0.259	64.682	0	PA_with_intermediate	test	ward_and_allport	71	1.0	0.259	to_board	poldrack-single-stim	s618	False
1.0	64.688	2.68	64.687	0	PA_with_intermediate	test	ward_and_allport	-1	1.0	n/a	feedback	poldrack-single-stim	s618	False
2.423	67.37	2.423	69.793	1	PA_without_intermediate	test	ward_and_allport	71	2.0	2.423	to_hand	poldrack-single-stim	s618	False
0.1	69.794	0.848	70.642	0	PA_without_intermediate	test	ward_and_allport	82	2.0	0.848	to_board	poldrack-single-stim	s618	False
0.1	70.644	1.242	71.886	0	PA_without_intermediate	test	ward_and_allport	71	2.0	1.242	to_hand	poldrack-single-stim	s618	False
0.1	71.887	2.046	73.933	0	PA_without_intermediate	test	ward_and_allport	89	2.0	2.046	to_board	poldrack-single-stim	s618	False
0.1	73.936	0.438	74.374	0	PA_without_intermediate	test	ward_and_allport	82	2.0	0.438	to_hand	poldrack-single-stim	s618	False
0.1	74.375	0.421	74.796	0	PA_without_intermediate	test	ward_and_allport	89	2.0	0.421	to_board	poldrack-single-stim	s618	False
0.1	74.797	1.274	76.071	0	PA_without_intermediate	test	ward_and_allport	71	2.0	1.274	to_hand	poldrack-single-stim	s618	False
0.1	76.073	0.328	76.401	0	PA_without_intermediate	test	ward_and_allport	82	2.0	0.328	to_board	poldrack-single-stim	s618	False
0.1	76.404	1.489	77.893	0	PA_without_intermediate	test	ward_and_allport	89	2.0	1.489	to_hand	poldrack-single-stim	s618	False
0.1	77.895	0.447	78.342	0	PA_without_intermediate	test	ward_and_allport	82	2.0	0.447	to_board	poldrack-single-stim	s618	False
0.1	78.344	1.926	80.27	0	PA_without_intermediate	test	ward_and_allport	89	2.0	1.926	to_hand	poldrack-single-stim	s618	False
0.1	80.272	1.202	81.474	0	PA_without_intermediate	test	ward_and_allport	71	2.0	1.202	to_board	poldrack-single-stim	s618	False
0.1	81.476	0.694	82.17	0	PA_without_intermediate	test	ward_and_allport	82	2.0	0.694	to_hand	poldrack-single-stim	s618	False
0.1	82.172	0.403	82.575	0	PA_without_intermediate	test	ward_and_allport	71	2.0	0.403	to_board	poldrack-single-stim	s618	False
0.1	82.578	0.343	82.921	0	PA_without_intermediate	test	ward_and_allport	82	2.0	0.343	to_hand	poldrack-single-stim	s618	False
0.1	82.921	1.757	84.678	0	PA_without_intermediate	test	ward_and_allport	82	2.0	1.757	to_board	poldrack-single-stim	s618	False
0.1	84.681	0.386	85.067	0	PA_without_intermediate	test	ward_and_allport	71	2.0	0.386	to_hand	poldrack-single-stim	s618	False
0.1	85.069	0.248	85.317	0	PA_without_intermediate	test	ward_and_allport	89	2.0	0.248	to_board	poldrack-single-stim	s618	False
0.1	85.32	0.771	86.091	0	PA_without_intermediate	test	ward_and_allport	82	2.0	0.771	to_hand	poldrack-single-stim	s618	False
0.1	86.092	0.283	86.375	0	PA_without_intermediate	test	ward_and_allport	89	2.0	0.283	to_board	poldrack-single-stim	s618	False
0.1	86.378	0.909	87.287	0	PA_without_intermediate	test	ward_and_allport	71	2.0	0.909	to_hand	poldrack-single-stim	s618	False
0.1	87.288	0.156	87.444	0	PA_without_intermediate	test	ward_and_allport	82	2.0	0.156	to_board	poldrack-single-stim	s618	False
1.0	87.449	3.224	87.448	0	PA_without_intermediate	test	ward_and_allport	-1	2.0	n/a	feedback	poldrack-single-stim	s618	False
3.923	90.676	3.923	94.599	1	PA_without_intermediate	test	ward_and_allport	71	3.0	3.923	to_hand	poldrack-single-stim	s618	False
0.1	94.6	1.302	95.902	0	PA_without_intermediate	test	ward_and_allport	89	3.0	1.302	to_board	poldrack-single-stim	s618	False
0.1	95.905	1.196	97.101	0	PA_without_intermediate	test	ward_and_allport	71	3.0	1.196	to_hand	poldrack-single-stim	s618	False
0.1	97.101	0.838	97.939	0	PA_without_intermediate	test	ward_and_allport	82	3.0	0.838	to_board	poldrack-single-stim	s618	False
0.1	97.942	0.513	98.455	0	PA_without_intermediate	test	ward_and_allport	89	3.0	0.513	to_hand	poldrack-single-stim	s618	False
0.1	98.457	0.554	99.011	0	PA_without_intermediate	test	ward_and_allport	71	3.0	0.554	to_board	poldrack-single-stim	s618	False
0.1	99.014	0.929	99.943	0	PA_without_intermediate	test	ward_and_allport	71	3.0	0.929	to_hand	poldrack-single-stim	s618	False
0.1	99.944	0.238	100.182	0	PA_without_intermediate	test	ward_and_allport	89	3.0	0.238	to_board	poldrack-single-stim	s618	False
0.1	100.184	0.609	100.793	0	PA_without_intermediate	test	ward_and_allport	82	3.0	0.609	to_hand	poldrack-single-stim	s618	False
0.1	100.794	0.244	101.038	0	PA_without_intermediate	test	ward_and_allport	89	3.0	0.244	to_board	poldrack-single-stim	s618	False
0.1	101.042	0.742	101.784	0	PA_without_intermediate	test	ward_and_allport	71	3.0	0.742	to_hand	poldrack-single-stim	s618	False
0.1	101.784	0.207	101.991	0	PA_without_intermediate	test	ward_and_allport	82	3.0	0.207	to_board	poldrack-single-stim	s618	False
1.0	101.996	3.36	101.995	0	PA_without_intermediate	test	ward_and_allport	-1	3.0	n/a	feedback	poldrack-single-stim	s618	False
4.231	105.361	4.231	109.592	1	PA_without_intermediate	test	ward_and_allport	82	4.0	4.231	to_hand	poldrack-single-stim	s618	False
0.1	109.593	0.469	110.062	0	PA_without_intermediate	test	ward_and_allport	71	4.0	0.469	to_board	poldrack-single-stim	s618	False
0.1	110.065	1.383	111.448	0	PA_without_intermediate	test	ward_and_allport	82	4.0	1.383	to_hand	poldrack-single-stim	s618	False
0.1	111.449	0.306	111.755	0	PA_without_intermediate	test	ward_and_allport	71	4.0	0.306	to_board	poldrack-single-stim	s618	False
0.1	111.759	0.801	112.56	0	PA_without_intermediate	test	ward_and_allport	82	4.0	0.801	to_hand	poldrack-single-stim	s618	False
0.1	112.56	0.296	112.856	0	PA_without_intermediate	test	ward_and_allport	89	4.0	0.296	to_board	poldrack-single-stim	s618	False
1.0	112.865	2.0	112.864	0	PA_without_intermediate	test	ward_and_allport	-1	4.0	n/a	feedback	poldrack-single-stim	s618	False
2.379	114.869	2.379	117.248	1	PA_without_intermediate	test	ward_and_allport	82	5.0	2.379	to_hand	poldrack-single-stim	s618	False
0.1	117.248	0.635	117.883	0	PA_without_intermediate	test	ward_and_allport	89	5.0	0.635	to_board	poldrack-single-stim	s618	False
0.1	117.887	0.584	118.471	0	PA_without_intermediate	test	ward_and_allport	82	5.0	0.584	to_hand	poldrack-single-stim	s618	False
0.1	118.472	0.523	118.995	0	PA_without_intermediate	test	ward_and_allport	89	5.0	0.523	to_board	poldrack-single-stim	s618	False
0.1	118.999	0.546	119.545	0	PA_without_intermediate	test	ward_and_allport	82	5.0	0.546	to_hand	poldrack-single-stim	s618	False
0.1	119.546	0.312	119.858	0	PA_without_intermediate	test	ward_and_allport	71	5.0	0.312	to_board	poldrack-single-stim	s618	False
1.0	119.861	2.408	119.86	0	PA_without_intermediate	test	ward_and_allport	-1	5.0	n/a	feedback	poldrack-single-stim	s618	False
1.7	122.273	1.7	123.973	1	PA_with_intermediate	test	ward_and_allport	71	6.0	1.7	to_hand	poldrack-single-stim	s618	False
0.1	123.974	0.43	124.404	0	PA_with_intermediate	test	ward_and_allport	82	6.0	0.43	to_board	poldrack-single-stim	s618	False
0.1	124.407	0.358	124.765	0	PA_with_intermediate	test	ward_and_allport	71	6.0	0.358	to_hand	poldrack-single-stim	s618	False
0.1	124.766	0.506	125.272	0	PA_with_intermediate	test	ward_and_allport	89	6.0	0.506	to_board	poldrack-single-stim	s618	False
0.1	125.275	2.127	127.402	0	PA_with_intermediate	test	ward_and_allport	82	6.0	2.127	to_hand	poldrack-single-stim	s618	False
0.1	127.404	0.193	127.597	0	PA_with_intermediate	test	ward_and_allport	71	6.0	0.193	to_board	poldrack-single-stim	s618	False
1.0	127.603	2.136	127.602	0	PA_with_intermediate	test	ward_and_allport	-1	6.0	n/a	feedback	poldrack-single-stim	s618	False
3.369	129.743	3.369	133.112	1	PA_without_intermediate	test	ward_and_allport	89	7.0	3.369	to_hand	poldrack-single-stim	s618	False
0.1	133.112	0.248	133.36	0	PA_without_intermediate	test	ward_and_allport	71	7.0	0.248	to_board	poldrack-single-stim	s618	False
0.1	133.364	2.545	135.909	0	PA_without_intermediate	test	ward_and_allport	89	7.0	2.545	to_hand	poldrack-single-stim	s618	False
0.1	135.911	0.342	136.253	0	PA_without_intermediate	test	ward_and_allport	71	7.0	0.342	to_board	poldrack-single-stim	s618	False
0.1	136.256	0.357	136.613	0	PA_without_intermediate	test	ward_and_allport	89	7.0	0.357	to_hand	poldrack-single-stim	s618	False
0.1	136.615	0.447	137.062	0	PA_without_intermediate	test	ward_and_allport	82	7.0	0.447	to_board	poldrack-single-stim	s618	False
1.0	137.072	5.128	137.071	0	PA_without_intermediate	test	ward_and_allport	-1	7.0	n/a	feedback	poldrack-single-stim	s618	False
4.617	142.203	4.617	146.82	1	PA_without_intermediate	test	ward_and_allport	89	8.0	4.617	to_hand	poldrack-single-stim	s618	False
0.1	146.821	0.387	147.208	0	PA_without_intermediate	test	ward_and_allport	71	8.0	0.387	to_board	poldrack-single-stim	s618	False
0.1	147.213	0.323	147.536	0	PA_without_intermediate	test	ward_and_allport	89	8.0	0.323	to_hand	poldrack-single-stim	s618	False
0.1	147.536	0.508	148.044	0	PA_without_intermediate	test	ward_and_allport	82	8.0	0.508	to_board	poldrack-single-stim	s618	False
0.1	148.049	1.172	149.221	0	PA_without_intermediate	test	ward_and_allport	89	8.0	1.172	to_hand	poldrack-single-stim	s618	False
0.1	149.222	0.158	149.38	0	PA_without_intermediate	test	ward_and_allport	71	8.0	0.158	to_board	poldrack-single-stim	s618	False
1.0	149.386	2.136	149.385	0	PA_without_intermediate	test	ward_and_allport	-1	8.0	n/a	feedback	poldrack-single-stim	s618	False
2.318	151.526	2.318	153.844	1	PA_without_intermediate	test	ward_and_allport	71	9.0	2.318	to_hand	poldrack-single-stim	s618	False
0.1	153.845	0.332	154.177	0	PA_without_intermediate	test	ward_and_allport	82	9.0	0.332	to_board	poldrack-single-stim	s618	False
0.1	154.182	3.68	157.862	0	PA_without_intermediate	test	ward_and_allport	82	9.0	3.68	to_hand	poldrack-single-stim	s618	False
0.1	157.863	0.236	158.099	0	PA_without_intermediate	test	ward_and_allport	89	9.0	0.236	to_board	poldrack-single-stim	s618	False
0.1	158.104	1.704	159.808	0	PA_without_intermediate	test	ward_and_allport	89	9.0	1.704	to_hand	poldrack-single-stim	s618	False
0.1	159.809	0.2	160.009	0	PA_without_intermediate	test	ward_and_allport	82	9.0	0.2	to_board	poldrack-single-stim	s618	False
0.1	160.014	1.085	161.099	0	PA_without_intermediate	test	ward_and_allport	71	9.0	1.085	to_hand	poldrack-single-stim	s618	False
0.1	161.099	0.314	161.413	0	PA_without_intermediate	test	ward_and_allport	82	9.0	0.314	to_board	poldrack-single-stim	s618	False
0.1	161.417	1.248	162.665	0	PA_without_intermediate	test	ward_and_allport	71	9.0	1.248	to_hand	poldrack-single-stim	s618	False
0.1	162.667	0.139	162.806	0	PA_without_intermediate	test	ward_and_allport	89	9.0	0.139	to_board	poldrack-single-stim	s618	False
1.0	162.814	5.264	162.813	0	PA_without_intermediate	test	ward_and_allport	-1	9.0	n/a	feedback	poldrack-single-stim	s618	False
3.148	168.082	3.148	171.23	1	PA_with_intermediate	test	ward_and_allport	89	10.0	3.148	to_hand	poldrack-single-stim	s618	False
0.1	171.23	1.126	172.356	0	PA_with_intermediate	test	ward_and_allport	71	10.0	1.126	to_board	poldrack-single-stim	s618	False
0.1	172.359	0.26	172.619	0	PA_with_intermediate	test	ward_and_allport	89	10.0	0.26	to_hand	poldrack-single-stim	s618	False
0.1	172.621	0.448	173.069	0	PA_with_intermediate	test	ward_and_allport	82	10.0	0.448	to_board	poldrack-single-stim	s618	False
0.1	173.073	0.714	173.787	0	PA_with_intermediate	test	ward_and_allport	71	10.0	0.714	to_hand	poldrack-single-stim	s618	False
0.1	173.789	0.176	173.965	0	PA_with_intermediate	test	ward_and_allport	89	10.0	0.176	to_board	poldrack-single-stim	s618	False
1.0	173.973	4.04	173.972	0	PA_with_intermediate	test	ward_and_allport	-1	10.0	n/a	feedback	poldrack-single-stim	s618	False
6.695	178.018	6.695	184.713	1	PA_with_intermediate	test	ward_and_allport	82	11.0	6.695	to_hand	poldrack-single-stim	s618	False
0.1	184.715	0.428	185.143	0	PA_with_intermediate	test	ward_and_allport	89	11.0	0.428	to_board	poldrack-single-stim	s618	False
0.1	185.147	1.477	186.624	0	PA_with_intermediate	test	ward_and_allport	82	11.0	1.477	to_hand	poldrack-single-stim	s618	False
0.1	186.625	0.2	186.825	0	PA_with_intermediate	test	ward_and_allport	71	11.0	0.2	to_board	poldrack-single-stim	s618	False
0.1	186.828	0.385	187.213	0	PA_with_intermediate	test	ward_and_allport	89	11.0	0.385	to_hand	poldrack-single-stim	s618	False
0.1	187.215	0.167	187.382	0	PA_with_intermediate	test	ward_and_allport	82	11.0	0.167	to_board	poldrack-single-stim	s618	False
1.0	187.387	2.136	187.386	0	PA_with_intermediate	test	ward_and_allport	-1	11.0	n/a	feedback	poldrack-single-stim	s618	False
2.365	189.527	2.365	191.892	1	PA_with_intermediate	test	ward_and_allport	82	12.0	2.365	to_hand	poldrack-single-stim	s618	False
0.1	191.894	0.291	192.185	0	PA_with_intermediate	test	ward_and_allport	89	12.0	0.291	to_board	poldrack-single-stim	s618	False
0.1	192.189	0.386	192.575	0	PA_with_intermediate	test	ward_and_allport	82	12.0	0.386	to_hand	poldrack-single-stim	s618	False
0.1	192.575	0.302	192.877	0	PA_with_intermediate	test	ward_and_allport	71	12.0	0.302	to_board	poldrack-single-stim	s618	False
0.1	192.882	0.302	193.184	0	PA_with_intermediate	test	ward_and_allport	89	12.0	0.302	to_hand	poldrack-single-stim	s618	False
0.1	193.185	0.255	193.44	0	PA_with_intermediate	test	ward_and_allport	82	12.0	0.255	to_board	poldrack-single-stim	s618	False
1.0	193.446	2.408	193.445	0	PA_with_intermediate	test	ward_and_allport	-1	12.0	n/a	feedback	poldrack-single-stim	s618	False
3.138	195.859	3.138	198.997	1	PA_without_intermediate	test	ward_and_allport	89	13.0	3.138	to_hand	poldrack-single-stim	s618	False
0.1	198.997	0.33	199.327	0	PA_without_intermediate	test	ward_and_allport	82	13.0	0.33	to_board	poldrack-single-stim	s618	False
0.1	199.331	0.963	200.294	0	PA_without_intermediate	test	ward_and_allport	89	13.0	0.963	to_hand	poldrack-single-stim	s618	False
0.1	200.296	0.233	200.529	0	PA_without_intermediate	test	ward_and_allport	71	13.0	0.233	to_board	poldrack-single-stim	s618	False
0.1	200.533	0.369	200.902	0	PA_without_intermediate	test	ward_and_allport	89	13.0	0.369	to_hand	poldrack-single-stim	s618	False
0.1	200.904	0.243	201.147	0	PA_without_intermediate	test	ward_and_allport	82	13.0	0.243	to_board	poldrack-single-stim	s618	False
1.0	201.153	2.68	201.152	0	PA_without_intermediate	test	ward_and_allport	-1	13.0	n/a	feedback	poldrack-single-stim	s618	False
2.756	203.837	2.756	206.593	1	PA_with_intermediate	test	ward_and_allport	82	14.0	2.756	to_hand	poldrack-single-stim	s618	False
0.1	206.595	0.392	206.987	0	PA_with_intermediate	test	ward_and_allport	71	14.0	0.392	to_board	poldrack-single-stim	s618	False
0.1	206.991	0.886	207.877	0	PA_with_intermediate	test	ward_and_allport	82	14.0	0.886	to_hand	poldrack-single-stim	s618	False
0.1	207.878	0.338	208.216	0	PA_with_intermediate	test	ward_and_allport	89	14.0	0.338	to_board	poldrack-single-stim	s618	False
0.1	208.22	0.889	209.109	0	PA_with_intermediate	test	ward_and_allport	71	14.0	0.889	to_hand	poldrack-single-stim	s618	False
0.1	209.11	0.204	209.314	0	PA_with_intermediate	test	ward_and_allport	89	14.0	0.204	to_board	poldrack-single-stim	s618	False
1.0	209.322	4.72	209.321	0	PA_with_intermediate	test	ward_and_allport	-1	14.0	n/a	feedback	poldrack-single-stim	s618	False
5.488	219.05	5.488	224.538	1	PA_without_intermediate	test	ward_and_allport	89	15.0	5.488	to_hand	poldrack-single-stim	s618	False
0.1	224.539	0.179	224.718	0	PA_without_intermediate	test	ward_and_allport	71	15.0	0.179	to_board	poldrack-single-stim	s618	False
0.1	224.723	1.111	225.834	0	PA_without_intermediate	test	ward_and_allport	89	15.0	1.111	to_hand	poldrack-single-stim	s618	False
0.1	225.835	0.203	226.038	0	PA_without_intermediate	test	ward_and_allport	82	15.0	0.203	to_board	poldrack-single-stim	s618	False
0.1	226.043	0.597	226.64	0	PA_without_intermediate	test	ward_and_allport	89	15.0	0.597	to_hand	poldrack-single-stim	s618	False
0.1	226.641	0.154	226.795	0	PA_without_intermediate	test	ward_and_allport	71	15.0	0.154	to_board	poldrack-single-stim	s618	False
1.0	226.802	3.224	226.801	0	PA_without_intermediate	test	ward_and_allport	-1	15.0	n/a	feedback	poldrack-single-stim	s618	False
2.056	230.03	2.056	232.086	1	PA_without_intermediate	test	ward_and_allport	82	16.0	2.056	to_hand	poldrack-single-stim	s618	False
0.1	232.087	0.373	232.46	0	PA_without_intermediate	test	ward_and_allport	89	16.0	0.373	to_board	poldrack-single-stim	s618	False
0.1	232.467	0.245	232.712	0	PA_without_intermediate	test	ward_and_allport	82	16.0	0.245	to_hand	poldrack-single-stim	s618	False
0.1	232.712	0.265	232.977	0	PA_without_intermediate	test	ward_and_allport	89	16.0	0.265	to_board	poldrack-single-stim	s618	False
0.1	232.983	0.654	233.637	0	PA_without_intermediate	test	ward_and_allport	82	16.0	0.654	to_hand	poldrack-single-stim	s618	False
0.1	233.638	0.122	233.76	0	PA_without_intermediate	test	ward_and_allport	71	16.0	0.122	to_board	poldrack-single-stim	s618	False
1.0	233.766	2.272	233.765	0	PA_without_intermediate	test	ward_and_allport	-1	16.0	n/a	feedback	poldrack-single-stim	s618	False
3.088	236.045	3.088	239.133	1	PA_with_intermediate	test	ward_and_allport	71	17.0	3.088	to_hand	poldrack-single-stim	s618	False
0.1	239.135	0.315	239.45	0	PA_with_intermediate	test	ward_and_allport	82	17.0	0.315	to_board	poldrack-single-stim	s618	False
0.1	239.456	0.315	239.771	0	PA_with_intermediate	test	ward_and_allport	71	17.0	0.315	to_hand	poldrack-single-stim	s618	False
0.1	239.771	0.326	240.097	0	PA_with_intermediate	test	ward_and_allport	89	17.0	0.326	to_board	poldrack-single-stim	s618	False
0.1	240.102	0.337	240.439	0	PA_with_intermediate	test	ward_and_allport	82	17.0	0.337	to_hand	poldrack-single-stim	s618	False
0.1	240.44	0.192	240.632	0	PA_with_intermediate	test	ward_and_allport	89	17.0	0.192	to_board	poldrack-single-stim	s618	False
1.0	240.64	3.632	240.639	0	PA_with_intermediate	test	ward_and_allport	-1	17.0	n/a	feedback	poldrack-single-stim	s618	False
3.101	244.278	3.101	247.379	1	PA_without_intermediate	test	ward_and_allport	82	18.0	3.101	to_hand	poldrack-single-stim	s618	False
0.1	247.379	0.285	247.664	0	PA_without_intermediate	test	ward_and_allport	71	18.0	0.285	to_board	poldrack-single-stim	s618	False
0.1	247.67	0.232	247.902	0	PA_without_intermediate	test	ward_and_allport	82	18.0	0.232	to_hand	poldrack-single-stim	s618	False
0.1	247.903	0.209	248.112	0	PA_without_intermediate	test	ward_and_allport	71	18.0	0.209	to_board	poldrack-single-stim	s618	False
0.1	248.118	0.705	248.823	0	PA_without_intermediate	test	ward_and_allport	82	18.0	0.705	to_hand	poldrack-single-stim	s618	False
0.1	248.824	0.157	248.981	0	PA_without_intermediate	test	ward_and_allport	89	18.0	0.157	to_board	poldrack-single-stim	s618	False
1.0	248.99	2.408	248.989	0	PA_without_intermediate	test	ward_and_allport	-1	18.0	n/a	feedback	poldrack-single-stim	s618	False
2.1	251.404	2.1	253.504	1	PA_without_intermediate	test	ward_and_allport	82	19.0	2.1	to_hand	poldrack-single-stim	s618	False
0.1	253.505	0.293	253.798	0	PA_without_intermediate	test	ward_and_allport	71	19.0	0.293	to_board	poldrack-single-stim	s618	False
0.1	253.804	0.337	254.141	0	PA_without_intermediate	test	ward_and_allport	82	19.0	0.337	to_hand	poldrack-single-stim	s618	False
0.1	254.142	0.416	254.558	0	PA_without_intermediate	test	ward_and_allport	89	19.0	0.416	to_board	poldrack-single-stim	s618	False
0.1	254.564	0.87	255.434	0	PA_without_intermediate	test	ward_and_allport	82	19.0	0.87	to_hand	poldrack-single-stim	s618	False
0.1	255.435	0.182	255.617	0	PA_without_intermediate	test	ward_and_allport	71	19.0	0.182	to_board	poldrack-single-stim	s618	False
1.0	255.627	2.0	255.626	0	PA_without_intermediate	test	ward_and_allport	-1	19.0	n/a	feedback	poldrack-single-stim	s618	False
2.453	257.633	2.453	260.086	1	PA_with_intermediate	test	ward_and_allport	89	20.0	2.453	to_hand	poldrack-single-stim	s618	False
0.1	260.088	0.284	260.372	0	PA_with_intermediate	test	ward_and_allport	82	20.0	0.284	to_board	poldrack-single-stim	s618	False
0.1	260.378	0.324	260.702	0	PA_with_intermediate	test	ward_and_allport	89	20.0	0.324	to_hand	poldrack-single-stim	s618	False
0.1	260.703	0.325	261.028	0	PA_with_intermediate	test	ward_and_allport	71	20.0	0.325	to_board	poldrack-single-stim	s618	False
0.1	261.034	0.415	261.449	0	PA_with_intermediate	test	ward_and_allport	82	20.0	0.415	to_hand	poldrack-single-stim	s618	False
0.1	261.45	0.174	261.624	0	PA_with_intermediate	test	ward_and_allport	71	20.0	0.174	to_board	poldrack-single-stim	s618	False
1.0	261.633	2.0	261.632	0	PA_with_intermediate	test	ward_and_allport	-1	20.0	n/a	feedback	poldrack-single-stim	s618	False
2.4	263.639	2.4	266.039	1	PA_with_intermediate	test	ward_and_allport	89	21.0	2.4	to_hand	poldrack-single-stim	s618	False
0.1	266.04	0.62	266.66	0	PA_with_intermediate	test	ward_and_allport	82	21.0	0.62	to_board	poldrack-single-stim	s618	False
0.1	266.667	0.662	267.329	0	PA_with_intermediate	test	ward_and_allport	89	21.0	0.662	to_hand	poldrack-single-stim	s618	False
0.1	267.329	0.24	267.569	0	PA_with_intermediate	test	ward_and_allport	71	21.0	0.24	to_board	poldrack-single-stim	s618	False
0.1	267.575	0.266	267.841	0	PA_with_intermediate	test	ward_and_allport	82	21.0	0.266	to_hand	poldrack-single-stim	s618	False
0.1	267.841	0.214	268.055	0	PA_with_intermediate	test	ward_and_allport	71	21.0	0.214	to_board	poldrack-single-stim	s618	False
1.0	268.062	2.0	268.061	0	PA_with_intermediate	test	ward_and_allport	-1	21.0	n/a	feedback	poldrack-single-stim	s618	False
2.603	270.068	2.603	272.671	1	PA_with_intermediate	test	ward_and_allport	71	22.0	2.603	to_hand	poldrack-single-stim	s618	False
0.1	272.672	0.206	272.878	0	PA_with_intermediate	test	ward_and_allport	89	22.0	0.206	to_board	poldrack-single-stim	s618	False
0.1	272.884	1.204	274.088	0	PA_with_intermediate	test	ward_and_allport	71	22.0	1.204	to_hand	poldrack-single-stim	s618	False
0.1	274.089	0.174	274.263	0	PA_with_intermediate	test	ward_and_allport	82	22.0	0.174	to_board	poldrack-single-stim	s618	False
0.1	274.269	1.354	275.623	0	PA_with_intermediate	test	ward_and_allport	89	22.0	1.354	to_hand	poldrack-single-stim	s618	False
0.1	275.625	0.126	275.751	0	PA_with_intermediate	test	ward_and_allport	82	22.0	0.126	to_board	poldrack-single-stim	s618	False
1.0	275.758	2.408	275.757	0	PA_with_intermediate	test	ward_and_allport	-1	22.0	n/a	feedback	poldrack-single-stim	s618	False
2.442	278.173	2.442	280.615	1	PA_without_intermediate	test	ward_and_allport	89	23.0	2.442	to_hand	poldrack-single-stim	s618	False
0.1	280.616	0.289	280.905	0	PA_without_intermediate	test	ward_and_allport	82	23.0	0.289	to_board	poldrack-single-stim	s618	False
0.1	280.911	0.228	281.139	0	PA_without_intermediate	test	ward_and_allport	89	23.0	0.228	to_hand	poldrack-single-stim	s618	False
0.1	281.139	0.296	281.435	0	PA_without_intermediate	test	ward_and_allport	82	23.0	0.296	to_board	poldrack-single-stim	s618	False
0.1	281.442	0.32	281.762	0	PA_without_intermediate	test	ward_and_allport	89	23.0	0.32	to_hand	poldrack-single-stim	s618	False
0.1	281.763	0.169	281.932	0	PA_without_intermediate	test	ward_and_allport	71	23.0	0.169	to_board	poldrack-single-stim	s618	False
1.0	281.942	2.816	281.941	0	PA_without_intermediate	test	ward_and_allport	-1	23.0	n/a	feedback	poldrack-single-stim	s618	False
1.741	284.765	1.741	286.506	1	PA_with_intermediate	test	ward_and_allport	71	24.0	1.741	to_hand	poldrack-single-stim	s618	False
0.1	286.507	0.334	286.841	0	PA_with_intermediate	test	ward_and_allport	82	24.0	0.334	to_board	poldrack-single-stim	s618	False
0.1	286.847	0.542	287.389	0	PA_with_intermediate	test	ward_and_allport	71	24.0	0.542	to_hand	poldrack-single-stim	s618	False
0.1	287.39	0.279	287.669	0	PA_with_intermediate	test	ward_and_allport	89	24.0	0.279	to_board	poldrack-single-stim	s618	False
0.1	287.675	1.525	289.2	0	PA_with_intermediate	test	ward_and_allport	82	24.0	1.525	to_hand	poldrack-single-stim	s618	False
0.1	289.202	0.191	289.393	0	PA_with_intermediate	test	ward_and_allport	71	24.0	0.191	to_board	poldrack-single-stim	s618	False
1.0	289.404	4.176	289.403	0	PA_with_intermediate	test	ward_and_allport	-1	24.0	n/a	feedback	poldrack-single-stim	s618	False
2.375	293.586	2.375	295.961	1	PA_with_intermediate	test	ward_and_allport	89	25.0	2.375	to_hand	poldrack-single-stim	s618	False
0.1	295.961	0.311	296.272	0	PA_with_intermediate	test	ward_and_allport	82	25.0	0.311	to_board	poldrack-single-stim	s618	False
0.1	296.28	2.245	298.525	0	PA_with_intermediate	test	ward_and_allport	89	25.0	2.245	to_hand	poldrack-single-stim	s618	False
0.1	298.525	0.25	298.775	0	PA_with_intermediate	test	ward_and_allport	71	25.0	0.25	to_board	poldrack-single-stim	s618	False
0.1	298.781	0.347	299.128	0	PA_with_intermediate	test	ward_and_allport	82	25.0	0.347	to_hand	poldrack-single-stim	s618	False
0.1	299.13	0.237	299.367	0	PA_with_intermediate	test	ward_and_allport	89	25.0	0.237	to_board	poldrack-single-stim	s618	False
1.0	299.377	3.36	299.376	0	PA_with_intermediate	test	ward_and_allport	-1	25.0	n/a	feedback	poldrack-single-stim	s618	False
2.681	302.744	2.681	305.425	1	PA_with_intermediate	test	ward_and_allport	89	26.0	2.681	to_hand	poldrack-single-stim	s618	False
0.1	305.425	0.21	305.635	0	PA_with_intermediate	test	ward_and_allport	71	26.0	0.21	to_board	poldrack-single-stim	s618	False
0.1	305.642	0.507	306.149	0	PA_with_intermediate	test	ward_and_allport	89	26.0	0.507	to_hand	poldrack-single-stim	s618	False
0.1	306.15	0.948	307.098	0	PA_with_intermediate	test	ward_and_allport	82	26.0	0.948	to_board	poldrack-single-stim	s618	False
0.1	307.104	1.171	308.275	0	PA_with_intermediate	test	ward_and_allport	71	26.0	1.171	to_hand	poldrack-single-stim	s618	False
0.1	308.277	0.231	308.508	0	PA_with_intermediate	test	ward_and_allport	82	26.0	0.231	to_board	poldrack-single-stim	s618	False
1.0	308.519	2.0	308.518	0	PA_with_intermediate	test	ward_and_allport	-1	26.0	n/a	feedback	poldrack-single-stim	s618	False
2.086	310.525	2.086	312.611	1	PA_without_intermediate	test	ward_and_allport	89	27.0	2.086	to_hand	poldrack-single-stim	s618	False
0.1	312.613	0.324	312.937	0	PA_without_intermediate	test	ward_and_allport	82	27.0	0.324	to_board	poldrack-single-stim	s618	False
0.1	312.944	0.212	313.156	0	PA_without_intermediate	test	ward_and_allport	89	27.0	0.212	to_hand	poldrack-single-stim	s618	False
0.1	313.157	0.336	313.493	0	PA_without_intermediate	test	ward_and_allport	82	27.0	0.336	to_board	poldrack-single-stim	s618	False
0.1	313.499	0.339	313.838	0	PA_without_intermediate	test	ward_and_allport	89	27.0	0.339	to_hand	poldrack-single-stim	s618	False
0.1	313.839	0.221	314.06	0	PA_without_intermediate	test	ward_and_allport	71	27.0	0.221	to_board	poldrack-single-stim	s618	False
1.0	314.069	2.408	314.068	0	PA_without_intermediate	test	ward_and_allport	-1	27.0	n/a	feedback	poldrack-single-stim	s618	False
1.771	316.482	1.771	318.253	1	PA_with_intermediate	test	ward_and_allport	89	28.0	1.771	to_hand	poldrack-single-stim	s618	False
0.1	318.254	0.302	318.556	0	PA_with_intermediate	test	ward_and_allport	71	28.0	0.302	to_board	poldrack-single-stim	s618	False
0.1	318.562	0.332	318.894	0	PA_with_intermediate	test	ward_and_allport	89	28.0	0.332	to_hand	poldrack-single-stim	s618	False
0.1	318.894	0.404	319.298	0	PA_with_intermediate	test	ward_and_allport	82	28.0	0.404	to_board	poldrack-single-stim	s618	False
0.1	319.304	0.394	319.698	0	PA_with_intermediate	test	ward_and_allport	71	28.0	0.394	to_hand	poldrack-single-stim	s618	False
0.1	319.7	0.255	319.955	0	PA_with_intermediate	test	ward_and_allport	82	28.0	0.255	to_board	poldrack-single-stim	s618	False
1.0	319.965	2.816	319.964	0	PA_with_intermediate	test	ward_and_allport	-1	28.0	n/a	feedback	poldrack-single-stim	s618	False
2.534	322.788	2.534	325.322	1	PA_without_intermediate	test	ward_and_allport	82	29.0	2.534	to_hand	poldrack-single-stim	s618	False
0.1	325.322	0.281	325.603	0	PA_without_intermediate	test	ward_and_allport	89	29.0	0.281	to_board	poldrack-single-stim	s618	False
0.1	325.609	0.554	326.163	0	PA_without_intermediate	test	ward_and_allport	82	29.0	0.554	to_hand	poldrack-single-stim	s618	False
0.1	326.164	0.271	326.435	0	PA_without_intermediate	test	ward_and_allport	71	29.0	0.271	to_board	poldrack-single-stim	s618	False
0.1	326.442	0.298	326.74	0	PA_without_intermediate	test	ward_and_allport	82	29.0	0.298	to_hand	poldrack-single-stim	s618	False
0.1	326.74	0.228	326.968	0	PA_without_intermediate	test	ward_and_allport	89	29.0	0.228	to_board	poldrack-single-stim	s618	False
1.0	326.979	3.088	326.978	0	PA_without_intermediate	test	ward_and_allport	-1	29.0	n/a	feedback	poldrack-single-stim	s618	False
4.09	335.076	4.09	339.166	1	PA_without_intermediate	test	ward_and_allport	89	30.0	4.09	to_hand	poldrack-single-stim	s618	False
0.1	339.167	0.33	339.497	0	PA_without_intermediate	test	ward_and_allport	82	30.0	0.33	to_board	poldrack-single-stim	s618	False
0.1	339.506	0.931	340.437	0	PA_without_intermediate	test	ward_and_allport	89	30.0	0.931	to_hand	poldrack-single-stim	s618	False
0.1	340.437	0.286	340.723	0	PA_without_intermediate	test	ward_and_allport	71	30.0	0.286	to_board	poldrack-single-stim	s618	False
0.1	340.732	0.419	341.151	0	PA_without_intermediate	test	ward_and_allport	89	30.0	0.419	to_hand	poldrack-single-stim	s618	False
0.1	341.152	0.253	341.405	0	PA_without_intermediate	test	ward_and_allport	82	30.0	0.253	to_board	poldrack-single-stim	s618	False
1.0	341.419	2.136	341.418	0	PA_without_intermediate	test	ward_and_allport	-1	30.0	n/a	feedback	poldrack-single-stim	s618	False
2.485	343.562	2.485	346.047	1	PA_without_intermediate	test	ward_and_allport	71	31.0	2.485	to_hand	poldrack-single-stim	s618	False
0.1	346.047	0.314	346.361	0	PA_without_intermediate	test	ward_and_allport	82	31.0	0.314	to_board	poldrack-single-stim	s618	False
0.1	346.367	0.721	347.088	0	PA_without_intermediate	test	ward_and_allport	71	31.0	0.721	to_hand	poldrack-single-stim	s618	False
0.1	347.09	0.573	347.663	0	PA_without_intermediate	test	ward_and_allport	89	31.0	0.573	to_board	poldrack-single-stim	s618	False
0.1	347.669	0.696	348.365	0	PA_without_intermediate	test	ward_and_allport	71	31.0	0.696	to_hand	poldrack-single-stim	s618	False
0.1	348.366	0.226	348.592	0	PA_without_intermediate	test	ward_and_allport	82	31.0	0.226	to_board	poldrack-single-stim	s618	False
1.0	348.601	7.168	348.6	0	PA_without_intermediate	test	ward_and_allport	-1	31.0	n/a	feedback	poldrack-single-stim	s618	False
2.628	355.776	2.628	358.404	1	PA_without_intermediate	test	ward_and_allport	71	32.0	2.628	to_hand	poldrack-single-stim	s618	False
0.1	358.405	0.241	358.646	0	PA_without_intermediate	test	ward_and_allport	89	32.0	0.241	to_board	poldrack-single-stim	s618	False
0.1	358.654	0.231	358.885	0	PA_without_intermediate	test	ward_and_allport	71	32.0	0.231	to_hand	poldrack-single-stim	s618	False
0.1	358.886	0.278	359.164	0	PA_without_intermediate	test	ward_and_allport	82	32.0	0.278	to_board	poldrack-single-stim	s618	False
0.1	359.173	0.709	359.882	0	PA_without_intermediate	test	ward_and_allport	71	32.0	0.709	to_hand	poldrack-single-stim	s618	False
0.1	359.882	0.175	360.057	0	PA_without_intermediate	test	ward_and_allport	89	32.0	0.175	to_board	poldrack-single-stim	s618	False
1.0	360.067	2.816	360.066	0	PA_without_intermediate	test	ward_and_allport	-1	32.0	n/a	feedback	poldrack-single-stim	s618	False
2.543	362.89	2.543	365.433	1	PA_with_intermediate	test	ward_and_allport	82	33.0	2.543	to_hand	poldrack-single-stim	s618	False
0.1	365.435	0.405	365.84	0	PA_with_intermediate	test	ward_and_allport	71	33.0	0.405	to_board	poldrack-single-stim	s618	False
0.1	365.846	0.365	366.211	0	PA_with_intermediate	test	ward_and_allport	82	33.0	0.365	to_hand	poldrack-single-stim	s618	False
0.1	366.212	1.315	367.527	0	PA_with_intermediate	test	ward_and_allport	89	33.0	1.315	to_board	poldrack-single-stim	s618	False
0.1	367.536	0.591	368.127	0	PA_with_intermediate	test	ward_and_allport	71	33.0	0.591	to_hand	poldrack-single-stim	s618	False
0.1	368.128	0.256	368.384	0	PA_with_intermediate	test	ward_and_allport	89	33.0	0.256	to_board	poldrack-single-stim	s618	False
1.0	368.396	2.952	368.395	0	PA_with_intermediate	test	ward_and_allport	-1	33.0	n/a	feedback	poldrack-single-stim	s618	False
2.372	371.355	2.372	373.727	1	PA_with_intermediate	test	ward_and_allport	82	34.0	2.372	to_hand	poldrack-single-stim	s618	False
0.1	373.727	1.064	374.791	0	PA_with_intermediate	test	ward_and_allport	71	34.0	1.064	to_board	poldrack-single-stim	s618	False
0.1	374.797	0.392	375.189	0	PA_with_intermediate	test	ward_and_allport	82	34.0	0.392	to_hand	poldrack-single-stim	s618	False
0.1	375.191	0.423	375.614	0	PA_with_intermediate	test	ward_and_allport	89	34.0	0.423	to_board	poldrack-single-stim	s618	False
0.1	375.622	0.467	376.089	0	PA_with_intermediate	test	ward_and_allport	71	34.0	0.467	to_hand	poldrack-single-stim	s618	False
0.1	376.09	0.306	376.396	0	PA_with_intermediate	test	ward_and_allport	82	34.0	0.306	to_board	poldrack-single-stim	s618	False
1.0	376.407	2.136	376.406	0	PA_with_intermediate	test	ward_and_allport	-1	34.0	n/a	feedback	poldrack-single-stim	s618	False
1.627	378.55	1.627	380.177	1	PA_without_intermediate	test	ward_and_allport	82	35.0	1.627	to_hand	poldrack-single-stim	s618	False
0.1	380.178	0.27	380.448	0	PA_without_intermediate	test	ward_and_allport	89	35.0	0.27	to_board	poldrack-single-stim	s618	False
0.1	380.454	1.257	381.711	0	PA_without_intermediate	test	ward_and_allport	82	35.0	1.257	to_hand	poldrack-single-stim	s618	False
0.1	381.712	0.196	381.908	0	PA_without_intermediate	test	ward_and_allport	71	35.0	0.196	to_board	poldrack-single-stim	s618	False
0.1	381.915	0.281	382.196	0	PA_without_intermediate	test	ward_and_allport	82	35.0	0.281	to_hand	poldrack-single-stim	s618	False
0.1	382.197	0.411	382.608	0	PA_without_intermediate	test	ward_and_allport	89	35.0	0.411	to_board	poldrack-single-stim	s618	False
1.0	382.616	2.68	382.615	0	PA_without_intermediate	test	ward_and_allport	-1	35.0	n/a	feedback	poldrack-single-stim	s618	False
1.776	385.304	1.776	387.08	1	PA_without_intermediate	test	ward_and_allport	82	36.0	1.776	to_hand	poldrack-single-stim	s618	False
0.1	387.081	1.672	388.753	0	PA_without_intermediate	test	ward_and_allport	71	36.0	1.672	to_board	poldrack-single-stim	s618	False
0.1	388.758	1.08	389.838	0	PA_without_intermediate	test	ward_and_allport	82	36.0	1.08	to_hand	poldrack-single-stim	s618	False
0.1	389.84	0.184	390.024	0	PA_without_intermediate	test	ward_and_allport	89	36.0	0.184	to_board	poldrack-single-stim	s618	False
0.1	390.03	0.512	390.542	0	PA_without_intermediate	test	ward_and_allport	82	36.0	0.512	to_hand	poldrack-single-stim	s618	False
0.1	390.543	0.179	390.722	0	PA_without_intermediate	test	ward_and_allport	71	36.0	0.179	to_board	poldrack-single-stim	s618	False
1.0	390.735	3.088	390.734	0	PA_without_intermediate	test	ward_and_allport	-1	36.0	n/a	feedback	poldrack-single-stim	s618	False
3.744	393.831	3.744	397.575	1	PA_with_intermediate	test	ward_and_allport	89	37.0	3.744	to_hand	poldrack-single-stim	s618	False
0.1	397.576	0.202	397.778	0	PA_with_intermediate	test	ward_and_allport	71	37.0	0.202	to_board	poldrack-single-stim	s618	False
0.1	397.788	0.208	397.996	0	PA_with_intermediate	test	ward_and_allport	89	37.0	0.208	to_hand	poldrack-single-stim	s618	False
0.1	397.996	0.212	398.208	0	PA_with_intermediate	test	ward_and_allport	82	37.0	0.212	to_board	poldrack-single-stim	s618	False
0.1	398.218	0.293	398.511	0	PA_with_intermediate	test	ward_and_allport	82	37.0	0.293	to_hand	poldrack-single-stim	s618	False
0.1	398.512	0.253	398.765	0	PA_with_intermediate	test	ward_and_allport	71	37.0	0.253	to_board	poldrack-single-stim	s618	False
0.1	398.774	0.764	399.538	0	PA_with_intermediate	test	ward_and_allport	71	37.0	0.764	to_hand	poldrack-single-stim	s618	False
0.1	399.539	0.14	399.679	0	PA_with_intermediate	test	ward_and_allport	82	37.0	0.14	to_board	poldrack-single-stim	s618	False
0.1	399.688	0.335	400.023	0	PA_with_intermediate	test	ward_and_allport	71	37.0	0.335	to_hand	poldrack-single-stim	s618	False
0.1	400.024	0.133	400.157	0	PA_with_intermediate	test	ward_and_allport	89	37.0	0.133	to_board	poldrack-single-stim	s618	False
1.0	400.168	2.0	400.167	0	PA_with_intermediate	test	ward_and_allport	-1	37.0	n/a	feedback	poldrack-single-stim	s618	False
2.888	402.174	2.888	405.062	1	PA_without_intermediate	test	ward_and_allport	71	38.0	2.888	to_hand	poldrack-single-stim	s618	False
0.1	405.063	1.021	406.084	0	PA_without_intermediate	test	ward_and_allport	82	38.0	1.021	to_board	poldrack-single-stim	s618	False
0.1	406.091	0.437	406.528	0	PA_without_intermediate	test	ward_and_allport	71	38.0	0.437	to_hand	poldrack-single-stim	s618	False
0.1	406.529	0.357	406.886	0	PA_without_intermediate	test	ward_and_allport	82	38.0	0.357	to_board	poldrack-single-stim	s618	False
0.1	406.895	2.775	409.67	0	PA_without_intermediate	test	ward_and_allport	71	38.0	2.775	to_hand	poldrack-single-stim	s618	False
0.1	409.67	0.138	409.808	0	PA_without_intermediate	test	ward_and_allport	89	38.0	0.138	to_board	poldrack-single-stim	s618	False
1.0	409.818	2.0	409.817	0	PA_without_intermediate	test	ward_and_allport	-1	38.0	n/a	feedback	poldrack-single-stim	s618	False
1.66	411.827	1.66	413.487	1	PA_without_intermediate	test	ward_and_allport	71	39.0	1.66	to_hand	poldrack-single-stim	s618	False
0.1	413.488	0.333	413.821	0	PA_without_intermediate	test	ward_and_allport	82	39.0	0.333	to_board	poldrack-single-stim	s618	False
0.1	413.828	0.453	414.281	0	PA_without_intermediate	test	ward_and_allport	71	39.0	0.453	to_hand	poldrack-single-stim	s618	False
0.1	414.282	0.232	414.514	0	PA_without_intermediate	test	ward_and_allport	89	39.0	0.232	to_board	poldrack-single-stim	s618	False
0.1	414.521	0.355	414.876	0	PA_without_intermediate	test	ward_and_allport	71	39.0	0.355	to_hand	poldrack-single-stim	s618	False
0.1	414.877	0.35	415.227	0	PA_without_intermediate	test	ward_and_allport	82	39.0	0.35	to_board	poldrack-single-stim	s618	False
1.0	415.237	2.0	415.236	0	PA_without_intermediate	test	ward_and_allport	-1	39.0	n/a	feedback	poldrack-single-stim	s618	False
2.205	417.244	2.205	419.449	1	PA_with_intermediate	test	ward_and_allport	71	40.0	2.205	to_hand	poldrack-single-stim	s618	False
0.1	419.449	0.284	419.733	0	PA_with_intermediate	test	ward_and_allport	89	40.0	0.284	to_board	poldrack-single-stim	s618	False
0.1	419.741	0.262	420.003	0	PA_with_intermediate	test	ward_and_allport	71	40.0	0.262	to_hand	poldrack-single-stim	s618	False
0.1	420.004	0.362	420.366	0	PA_with_intermediate	test	ward_and_allport	82	40.0	0.362	to_board	poldrack-single-stim	s618	False
0.1	420.372	0.33	420.702	0	PA_with_intermediate	test	ward_and_allport	89	40.0	0.33	to_hand	poldrack-single-stim	s618	False
0.1	420.703	0.277	420.98	0	PA_with_intermediate	test	ward_and_allport	82	40.0	0.277	to_board	poldrack-single-stim	s618	False
1.0	420.992	2.544	420.991	0	PA_with_intermediate	test	ward_and_allport	-1	40.0	n/a	feedback	poldrack-single-stim	s618	False
1.109	423.543	1.109	424.652	1	PA_without_intermediate	test	ward_and_allport	71	41.0	1.109	to_hand	poldrack-single-stim	s618	False
0.1	424.652	0.255	424.907	0	PA_without_intermediate	test	ward_and_allport	89	41.0	0.255	to_board	poldrack-single-stim	s618	False
0.1	424.914	0.278	425.192	0	PA_without_intermediate	test	ward_and_allport	71	41.0	0.278	to_hand	poldrack-single-stim	s618	False
0.1	425.193	0.256	425.449	0	PA_without_intermediate	test	ward_and_allport	89	41.0	0.256	to_board	poldrack-single-stim	s618	False
0.1	425.457	0.774	426.231	0	PA_without_intermediate	test	ward_and_allport	71	41.0	0.774	to_hand	poldrack-single-stim	s618	False
0.1	426.231	0.202	426.433	0	PA_without_intermediate	test	ward_and_allport	82	41.0	0.202	to_board	poldrack-single-stim	s618	False
1.0	426.443	2.272	426.442	0	PA_without_intermediate	test	ward_and_allport	-1	41.0	n/a	feedback	poldrack-single-stim	s618	False
2.268	428.722	2.268	430.99	1	PA_with_intermediate	test	ward_and_allport	71	42.0	2.268	to_hand	poldrack-single-stim	s618	False
0.1	430.991	0.252	431.243	0	PA_with_intermediate	test	ward_and_allport	89	42.0	0.252	to_board	poldrack-single-stim	s618	False
0.1	431.252	0.204	431.456	0	PA_with_intermediate	test	ward_and_allport	71	42.0	0.204	to_hand	poldrack-single-stim	s618	False
0.1	431.457	0.524	431.981	0	PA_with_intermediate	test	ward_and_allport	89	42.0	0.524	to_board	poldrack-single-stim	s618	False
0.1	431.989	1.46	433.449	0	PA_with_intermediate	test	ward_and_allport	89	42.0	1.46	to_hand	poldrack-single-stim	s618	False
0.1	433.45	0.35	433.8	0	PA_with_intermediate	test	ward_and_allport	82	42.0	0.35	to_board	poldrack-single-stim	s618	False
0.1	433.807	0.285	434.092	0	PA_with_intermediate	test	ward_and_allport	89	42.0	0.285	to_hand	poldrack-single-stim	s618	False
0.1	434.093	0.257	434.35	0	PA_with_intermediate	test	ward_and_allport	71	42.0	0.257	to_board	poldrack-single-stim	s618	False
1.0	434.36	4.04	434.359	0	PA_with_intermediate	test	ward_and_allport	-1	42.0	n/a	feedback	poldrack-single-stim	s618	False
2.125	438.407	2.125	440.532	1	PA_with_intermediate	test	ward_and_allport	89	43.0	2.125	to_hand	poldrack-single-stim	s618	False
0.1	440.534	1.75	442.284	0	PA_with_intermediate	test	ward_and_allport	82	43.0	1.75	to_board	poldrack-single-stim	s618	False
0.1	442.293	0.541	442.834	0	PA_with_intermediate	test	ward_and_allport	89	43.0	0.541	to_hand	poldrack-single-stim	s618	False
0.1	442.834	0.401	443.235	0	PA_with_intermediate	test	ward_and_allport	71	43.0	0.401	to_board	poldrack-single-stim	s618	False
0.1	443.247	1.026	444.273	0	PA_with_intermediate	test	ward_and_allport	82	43.0	1.026	to_hand	poldrack-single-stim	s618	False
0.1	444.274	0.272	444.546	0	PA_with_intermediate	test	ward_and_allport	89	43.0	0.272	to_board	poldrack-single-stim	s618	False
1.0	444.555	2.272	444.554	0	PA_with_intermediate	test	ward_and_allport	-1	43.0	n/a	feedback	poldrack-single-stim	s618	False
3.86	446.835	3.86	450.695	1	PA_with_intermediate	test	ward_and_allport	82	44.0	3.86	to_hand	poldrack-single-stim	s618	False
0.1	450.696	0.474	451.17	0	PA_with_intermediate	test	ward_and_allport	89	44.0	0.474	to_board	poldrack-single-stim	s618	False
0.1	451.179	0.933	452.112	0	PA_with_intermediate	test	ward_and_allport	82	44.0	0.933	to_hand	poldrack-single-stim	s618	False
0.1	452.113	0.309	452.422	0	PA_with_intermediate	test	ward_and_allport	71	44.0	0.309	to_board	poldrack-single-stim	s618	False
0.1	452.436	0.782	453.218	0	PA_with_intermediate	test	ward_and_allport	89	44.0	0.782	to_hand	poldrack-single-stim	s618	False
0.1	453.218	1.2	454.418	0	PA_with_intermediate	test	ward_and_allport	71	44.0	1.2	to_board	poldrack-single-stim	s618	False
1.0	454.43	2.136	454.429	0	PA_with_intermediate	test	ward_and_allport	-1	44.0	n/a	feedback	poldrack-single-stim	s618	False
5.125	461.578	5.125	466.703	1	PA_with_intermediate	test	ward_and_allport	82	45.0	5.125	to_hand	poldrack-single-stim	s618	False
0.1	466.704	0.504	467.208	0	PA_with_intermediate	test	ward_and_allport	89	45.0	0.504	to_board	poldrack-single-stim	s618	False
0.1	467.218	1.246	468.464	0	PA_with_intermediate	test	ward_and_allport	89	45.0	1.246	to_hand	poldrack-single-stim	s618	False
0.1	468.466	0.155	468.621	0	PA_with_intermediate	test	ward_and_allport	71	45.0	0.155	to_board	poldrack-single-stim	s618	False
0.1	468.632	0.96	469.592	0	PA_with_intermediate	test	ward_and_allport	82	45.0	0.96	to_hand	poldrack-single-stim	s618	False
0.1	469.593	0.595	470.188	0	PA_with_intermediate	test	ward_and_allport	89	45.0	0.595	to_board	poldrack-single-stim	s618	False
0.1	470.2	0.681	470.881	0	PA_with_intermediate	test	ward_and_allport	71	45.0	0.681	to_hand	poldrack-single-stim	s618	False
0.1	470.882	0.186	471.068	0	PA_with_intermediate	test	ward_and_allport	82	45.0	0.186	to_board	poldrack-single-stim	s618	False
1.0	471.079	2.0	471.078	0	PA_with_intermediate	test	ward_and_allport	-1	45.0	n/a	feedback	poldrack-single-stim	s618	False
4.119	473.088	4.119	477.207	1	PA_with_intermediate	test	ward_and_allport	71	46.0	4.119	to_hand	poldrack-single-stim	s618	False
0.1	477.208	0.502	477.71	0	PA_with_intermediate	test	ward_and_allport	82	46.0	0.502	to_board	poldrack-single-stim	s618	False
0.1	477.717	1.4	479.117	0	PA_with_intermediate	test	ward_and_allport	71	46.0	1.4	to_hand	poldrack-single-stim	s618	False
0.1	479.119	0.228	479.347	0	PA_with_intermediate	test	ward_and_allport	89	46.0	0.228	to_board	poldrack-single-stim	s618	False
0.1	479.356	1.161	480.517	0	PA_with_intermediate	test	ward_and_allport	82	46.0	1.161	to_hand	poldrack-single-stim	s618	False
0.1	480.519	0.218	480.737	0	PA_with_intermediate	test	ward_and_allport	89	46.0	0.218	to_board	poldrack-single-stim	s618	False
1.0	480.753	2.0	480.752	0	PA_with_intermediate	test	ward_and_allport	-1	46.0	n/a	feedback	poldrack-single-stim	s618	False
2.673	482.764	2.673	485.437	1	PA_without_intermediate	test	ward_and_allport	89	47.0	2.673	to_hand	poldrack-single-stim	s618	False
0.1	485.439	0.319	485.758	0	PA_without_intermediate	test	ward_and_allport	71	47.0	0.319	to_board	poldrack-single-stim	s618	False
0.1	485.768	0.336	486.104	0	PA_without_intermediate	test	ward_and_allport	89	47.0	0.336	to_hand	poldrack-single-stim	s618	False
0.1	486.104	0.726	486.83	0	PA_without_intermediate	test	ward_and_allport	71	47.0	0.726	to_board	poldrack-single-stim	s618	False
0.1	486.839	0.812	487.651	0	PA_without_intermediate	test	ward_and_allport	89	47.0	0.812	to_hand	poldrack-single-stim	s618	False
0.1	487.652	0.405	488.057	0	PA_without_intermediate	test	ward_and_allport	82	47.0	0.405	to_board	poldrack-single-stim	s618	False
1.0	488.068	2.408	488.067	0	PA_without_intermediate	test	ward_and_allport	-1	47.0	n/a	feedback	poldrack-single-stim	s618	False
