duration	onset	block_duration	movement_onset	planning	condition	exp_stage	experiment_exp_id	key_press	problem_id	response_time	trial_id	trial_type	worker_id	junk
8.124	3.016	8.124	11.14	1	UA_with_intermediate	practice	ward_and_allport	71	0.0	8.124	to_hand	poldrack-single-stim	s619	False
0.1	11.14	0.35	11.49	0	UA_with_intermediate	practice	ward_and_allport	82	0.0	0.35	to_board	poldrack-single-stim	s619	False
0.1	11.493	0.745	12.238	0	UA_with_intermediate	practice	ward_and_allport	71	0.0	0.745	to_hand	poldrack-single-stim	s619	False
0.1	12.239	0.257	12.496	0	UA_with_intermediate	practice	ward_and_allport	89	0.0	0.257	to_board	poldrack-single-stim	s619	False
0.1	12.497	0.869	13.366	0	UA_with_intermediate	practice	ward_and_allport	82	0.0	0.869	to_hand	poldrack-single-stim	s619	False
0.1	13.367	0.554	13.921	0	UA_with_intermediate	practice	ward_and_allport	89	0.0	0.554	to_board	poldrack-single-stim	s619	False
1.0	13.928	2.5	13.927	0	UA_with_intermediate	practice	ward_and_allport	-1	0.0	n/a	feedback	poldrack-single-stim	s619	False
5.248	16.431	5.248	21.679	1	UA_with_intermediate	practice	ward_and_allport	89	1.0	5.248	to_hand	poldrack-single-stim	s619	False
0.1	21.681	0.29	21.971	0	UA_with_intermediate	practice	ward_and_allport	82	1.0	0.29	to_board	poldrack-single-stim	s619	False
0.1	21.973	1.339	23.312	0	UA_with_intermediate	practice	ward_and_allport	71	1.0	1.339	to_hand	poldrack-single-stim	s619	False
0.1	23.314	0.216	23.53	0	UA_with_intermediate	practice	ward_and_allport	89	1.0	0.216	to_board	poldrack-single-stim	s619	False
0.1	23.531	0.55	24.081	0	UA_with_intermediate	practice	ward_and_allport	82	1.0	0.55	to_hand	poldrack-single-stim	s619	False
0.1	24.081	0.183	24.264	0	UA_with_intermediate	practice	ward_and_allport	89	1.0	0.183	to_board	poldrack-single-stim	s619	False
1.0	24.269	2.1	24.268	0	UA_with_intermediate	practice	ward_and_allport	-1	1.0	n/a	feedback	poldrack-single-stim	s619	False
6.756	26.371	6.756	33.127	1	UA_without_intermediate	practice	ward_and_allport	82	2.0	6.756	to_hand	poldrack-single-stim	s619	False
0.1	33.128	0.331	33.459	0	UA_without_intermediate	practice	ward_and_allport	89	2.0	0.331	to_board	poldrack-single-stim	s619	False
0.1	33.46	1.945	35.405	0	UA_without_intermediate	practice	ward_and_allport	71	2.0	1.945	to_hand	poldrack-single-stim	s619	False
0.1	35.407	0.245	35.652	0	UA_without_intermediate	practice	ward_and_allport	89	2.0	0.245	to_board	poldrack-single-stim	s619	False
0.1	35.653	1.513	37.166	0	UA_without_intermediate	practice	ward_and_allport	71	2.0	1.513	to_hand	poldrack-single-stim	s619	False
0.1	37.167	0.322	37.489	0	UA_without_intermediate	practice	ward_and_allport	89	2.0	0.322	to_board	poldrack-single-stim	s619	False
1.0	37.492	2.2	37.491	0	UA_without_intermediate	practice	ward_and_allport	-1	2.0	n/a	feedback	poldrack-single-stim	s619	False
5.304	39.693	5.304	44.997	1	UA_without_intermediate	practice	ward_and_allport	71	3.0	5.304	to_hand	poldrack-single-stim	s619	False
0.1	44.999	0.237	45.236	0	UA_without_intermediate	practice	ward_and_allport	89	3.0	0.237	to_board	poldrack-single-stim	s619	False
0.1	45.238	2.061	47.299	0	UA_without_intermediate	practice	ward_and_allport	82	3.0	2.061	to_hand	poldrack-single-stim	s619	False
0.1	47.3	0.313	47.613	0	UA_without_intermediate	practice	ward_and_allport	89	3.0	0.313	to_board	poldrack-single-stim	s619	False
0.1	47.615	0.387	48.002	0	UA_without_intermediate	practice	ward_and_allport	71	3.0	0.387	to_hand	poldrack-single-stim	s619	False
0.1	48.003	0.206	48.209	0	UA_without_intermediate	practice	ward_and_allport	89	3.0	0.206	to_board	poldrack-single-stim	s619	False
1.0	48.215	2.0	48.214	0	UA_without_intermediate	practice	ward_and_allport	-1	3.0	n/a	feedback	poldrack-single-stim	s619	False
5.001	52.221	5.001	57.222	1	PA_without_intermediate	test	ward_and_allport	89	0.0	5.001	to_hand	poldrack-single-stim	s619	False
0.1	57.224	0.332	57.556	0	PA_without_intermediate	test	ward_and_allport	71	0.0	0.332	to_board	poldrack-single-stim	s619	False
0.1	57.557	2.49	60.047	0	PA_without_intermediate	test	ward_and_allport	89	0.0	2.49	to_hand	poldrack-single-stim	s619	False
0.1	60.049	0.349	60.398	0	PA_without_intermediate	test	ward_and_allport	82	0.0	0.349	to_board	poldrack-single-stim	s619	False
0.1	60.4	0.937	61.337	0	PA_without_intermediate	test	ward_and_allport	89	0.0	0.937	to_hand	poldrack-single-stim	s619	False
0.1	61.338	0.273	61.611	0	PA_without_intermediate	test	ward_and_allport	71	0.0	0.273	to_board	poldrack-single-stim	s619	False
1.0	61.617	3.088	61.616	0	PA_without_intermediate	test	ward_and_allport	-1	0.0	n/a	feedback	poldrack-single-stim	s619	False
5.937	64.708	5.937	70.645	1	PA_with_intermediate	test	ward_and_allport	71	1.0	5.937	to_hand	poldrack-single-stim	s619	False
0.1	70.645	0.286	70.931	0	PA_with_intermediate	test	ward_and_allport	89	1.0	0.286	to_board	poldrack-single-stim	s619	False
0.1	70.934	1.473	72.407	0	PA_with_intermediate	test	ward_and_allport	71	1.0	1.473	to_hand	poldrack-single-stim	s619	False
0.1	72.408	0.284	72.692	0	PA_with_intermediate	test	ward_and_allport	82	1.0	0.284	to_board	poldrack-single-stim	s619	False
0.1	72.694	2.142	74.836	0	PA_with_intermediate	test	ward_and_allport	89	1.0	2.142	to_hand	poldrack-single-stim	s619	False
0.1	74.838	0.243	75.081	0	PA_with_intermediate	test	ward_and_allport	71	1.0	0.243	to_board	poldrack-single-stim	s619	False
1.0	75.084	2.0	75.083	0	PA_with_intermediate	test	ward_and_allport	-1	1.0	n/a	feedback	poldrack-single-stim	s619	False
6.172	77.086	6.172	83.258	1	PA_without_intermediate	test	ward_and_allport	71	2.0	6.172	to_hand	poldrack-single-stim	s619	False
0.1	83.259	0.252	83.511	0	PA_without_intermediate	test	ward_and_allport	89	2.0	0.252	to_board	poldrack-single-stim	s619	False
0.1	83.513	2.055	85.568	0	PA_without_intermediate	test	ward_and_allport	71	2.0	2.055	to_hand	poldrack-single-stim	s619	False
0.1	85.569	0.21	85.779	0	PA_without_intermediate	test	ward_and_allport	89	2.0	0.21	to_board	poldrack-single-stim	s619	False
0.1	85.782	1.244	87.026	0	PA_without_intermediate	test	ward_and_allport	71	2.0	1.244	to_hand	poldrack-single-stim	s619	False
0.1	87.027	0.178	87.205	0	PA_without_intermediate	test	ward_and_allport	82	2.0	0.178	to_board	poldrack-single-stim	s619	False
1.0	87.207	2.0	87.206	0	PA_without_intermediate	test	ward_and_allport	-1	2.0	n/a	feedback	poldrack-single-stim	s619	False
3.743	89.209	3.743	92.952	1	PA_without_intermediate	test	ward_and_allport	71	3.0	3.743	to_hand	poldrack-single-stim	s619	False
0.1	92.953	0.851	93.804	0	PA_without_intermediate	test	ward_and_allport	71	3.0	0.851	to_board	poldrack-single-stim	s619	False
0.1	93.806	1.368	95.174	0	PA_without_intermediate	test	ward_and_allport	71	3.0	1.368	to_hand	poldrack-single-stim	s619	False
0.1	95.176	0.121	95.297	0	PA_without_intermediate	test	ward_and_allport	89	3.0	0.121	to_board	poldrack-single-stim	s619	False
0.1	95.3	1.731	97.031	0	PA_without_intermediate	test	ward_and_allport	71	3.0	1.731	to_hand	poldrack-single-stim	s619	False
0.1	97.032	0.689	97.721	0	PA_without_intermediate	test	ward_and_allport	89	3.0	0.689	to_board	poldrack-single-stim	s619	False
0.1	97.722	0.741	98.463	0	PA_without_intermediate	test	ward_and_allport	71	3.0	0.741	to_hand	poldrack-single-stim	s619	False
0.1	98.464	0.25	98.714	0	PA_without_intermediate	test	ward_and_allport	82	3.0	0.25	to_board	poldrack-single-stim	s619	False
1.0	98.721	2.0	98.72	0	PA_without_intermediate	test	ward_and_allport	-1	3.0	n/a	feedback	poldrack-single-stim	s619	False
4.888	100.723	4.888	105.611	1	PA_with_intermediate	test	ward_and_allport	82	4.0	4.888	to_hand	poldrack-single-stim	s619	False
0.1	105.613	0.307	105.92	0	PA_with_intermediate	test	ward_and_allport	89	4.0	0.307	to_board	poldrack-single-stim	s619	False
0.1	105.923	2.15	108.073	0	PA_with_intermediate	test	ward_and_allport	82	4.0	2.15	to_hand	poldrack-single-stim	s619	False
0.1	108.074	0.341	108.415	0	PA_with_intermediate	test	ward_and_allport	71	4.0	0.341	to_board	poldrack-single-stim	s619	False
0.1	108.416	1.24	109.656	0	PA_with_intermediate	test	ward_and_allport	89	4.0	1.24	to_hand	poldrack-single-stim	s619	False
0.1	109.658	0.246	109.904	0	PA_with_intermediate	test	ward_and_allport	71	4.0	0.246	to_board	poldrack-single-stim	s619	False
1.0	109.911	2.544	109.91	0	PA_with_intermediate	test	ward_and_allport	-1	4.0	n/a	feedback	poldrack-single-stim	s619	False
2.881	112.457	2.881	115.338	1	PA_without_intermediate	test	ward_and_allport	71	5.0	2.881	to_hand	poldrack-single-stim	s619	False
0.1	115.339	0.375	115.714	0	PA_without_intermediate	test	ward_and_allport	82	5.0	0.375	to_board	poldrack-single-stim	s619	False
0.1	115.716	1.344	117.06	0	PA_without_intermediate	test	ward_and_allport	71	5.0	1.344	to_hand	poldrack-single-stim	s619	False
0.1	117.062	0.261	117.323	0	PA_without_intermediate	test	ward_and_allport	82	5.0	0.261	to_board	poldrack-single-stim	s619	False
0.1	117.326	1.108	118.434	0	PA_without_intermediate	test	ward_and_allport	71	5.0	1.108	to_hand	poldrack-single-stim	s619	False
0.1	118.434	0.376	118.81	0	PA_without_intermediate	test	ward_and_allport	89	5.0	0.376	to_board	poldrack-single-stim	s619	False
1.0	118.817	2.272	118.816	0	PA_without_intermediate	test	ward_and_allport	-1	5.0	n/a	feedback	poldrack-single-stim	s619	False
5.077	121.091	5.077	126.168	1	PA_with_intermediate	test	ward_and_allport	82	6.0	5.077	to_hand	poldrack-single-stim	s619	False
0.1	126.17	0.296	126.466	0	PA_with_intermediate	test	ward_and_allport	71	6.0	0.296	to_board	poldrack-single-stim	s619	False
0.1	126.468	2.106	128.574	0	PA_with_intermediate	test	ward_and_allport	82	6.0	2.106	to_hand	poldrack-single-stim	s619	False
0.1	128.576	0.252	128.828	0	PA_with_intermediate	test	ward_and_allport	89	6.0	0.252	to_board	poldrack-single-stim	s619	False
0.1	128.829	2.611	131.44	0	PA_with_intermediate	test	ward_and_allport	71	6.0	2.611	to_hand	poldrack-single-stim	s619	False
0.1	131.441	0.25	131.691	0	PA_with_intermediate	test	ward_and_allport	82	6.0	0.25	to_board	poldrack-single-stim	s619	False
1.0	131.695	4.04	131.694	0	PA_with_intermediate	test	ward_and_allport	-1	6.0	n/a	feedback	poldrack-single-stim	s619	False
5.065	135.738	5.065	140.803	1	PA_with_intermediate	test	ward_and_allport	82	7.0	5.065	to_hand	poldrack-single-stim	s619	False
0.1	140.804	0.437	141.241	0	PA_with_intermediate	test	ward_and_allport	89	7.0	0.437	to_board	poldrack-single-stim	s619	False
0.1	141.244	1.846	143.09	0	PA_with_intermediate	test	ward_and_allport	82	7.0	1.846	to_hand	poldrack-single-stim	s619	False
0.1	143.091	0.765	143.856	0	PA_with_intermediate	test	ward_and_allport	89	7.0	0.765	to_board	poldrack-single-stim	s619	False
0.1	143.859	5.006	148.865	0	PA_with_intermediate	test	ward_and_allport	89	7.0	5.006	to_hand	poldrack-single-stim	s619	False
0.1	148.866	1.112	149.978	0	PA_with_intermediate	test	ward_and_allport	71	7.0	1.112	to_board	poldrack-single-stim	s619	False
0.1	149.981	0.904	150.885	0	PA_with_intermediate	test	ward_and_allport	89	7.0	0.904	to_hand	poldrack-single-stim	s619	False
0.1	150.886	0.322	151.208	0	PA_with_intermediate	test	ward_and_allport	71	7.0	0.322	to_board	poldrack-single-stim	s619	False
1.0	151.212	2.272	151.211	0	PA_with_intermediate	test	ward_and_allport	-1	7.0	n/a	feedback	poldrack-single-stim	s619	False
4.264	153.487	4.264	157.751	1	PA_with_intermediate	test	ward_and_allport	89	8.0	4.264	to_hand	poldrack-single-stim	s619	False
0.1	157.752	0.342	158.094	0	PA_with_intermediate	test	ward_and_allport	82	8.0	0.342	to_board	poldrack-single-stim	s619	False
0.1	158.097	1.801	159.898	0	PA_with_intermediate	test	ward_and_allport	82	8.0	1.801	to_hand	poldrack-single-stim	s619	False
0.1	159.899	0.374	160.273	0	PA_with_intermediate	test	ward_and_allport	71	8.0	0.374	to_board	poldrack-single-stim	s619	False
0.1	160.276	1.063	161.339	0	PA_with_intermediate	test	ward_and_allport	89	8.0	1.063	to_hand	poldrack-single-stim	s619	False
0.1	161.34	0.4	161.74	0	PA_with_intermediate	test	ward_and_allport	82	8.0	0.4	to_board	poldrack-single-stim	s619	False
0.1	161.743	0.616	162.359	0	PA_with_intermediate	test	ward_and_allport	71	8.0	0.616	to_hand	poldrack-single-stim	s619	False
0.1	162.36	0.275	162.635	0	PA_with_intermediate	test	ward_and_allport	82	8.0	0.275	to_board	poldrack-single-stim	s619	False
1.0	162.638	2.136	162.637	0	PA_with_intermediate	test	ward_and_allport	-1	8.0	n/a	feedback	poldrack-single-stim	s619	False
4.278	164.779	4.278	169.057	1	PA_with_intermediate	test	ward_and_allport	82	9.0	4.278	to_hand	poldrack-single-stim	s619	False
0.1	169.058	0.203	169.261	0	PA_with_intermediate	test	ward_and_allport	89	9.0	0.203	to_board	poldrack-single-stim	s619	False
0.1	169.265	2.017	171.282	0	PA_with_intermediate	test	ward_and_allport	82	9.0	2.017	to_hand	poldrack-single-stim	s619	False
0.1	171.283	0.17	171.453	0	PA_with_intermediate	test	ward_and_allport	71	9.0	0.17	to_board	poldrack-single-stim	s619	False
0.1	171.456	1.243	172.699	0	PA_with_intermediate	test	ward_and_allport	89	9.0	1.243	to_hand	poldrack-single-stim	s619	False
0.1	172.701	0.209	172.91	0	PA_with_intermediate	test	ward_and_allport	82	9.0	0.209	to_board	poldrack-single-stim	s619	False
1.0	172.914	2.0	172.913	0	PA_with_intermediate	test	ward_and_allport	-1	9.0	n/a	feedback	poldrack-single-stim	s619	False
4.208	174.917	4.208	179.125	1	PA_with_intermediate	test	ward_and_allport	89	10.0	4.208	to_hand	poldrack-single-stim	s619	False
0.1	179.127	0.267	179.394	0	PA_with_intermediate	test	ward_and_allport	82	10.0	0.267	to_board	poldrack-single-stim	s619	False
0.1	179.399	1.445	180.844	0	PA_with_intermediate	test	ward_and_allport	89	10.0	1.445	to_hand	poldrack-single-stim	s619	False
0.1	180.846	3.203	184.049	0	PA_with_intermediate	test	ward_and_allport	89	10.0	3.203	to_board	poldrack-single-stim	s619	False
0.1	184.052	0.883	184.935	0	PA_with_intermediate	test	ward_and_allport	82	10.0	0.883	to_hand	poldrack-single-stim	s619	False
0.1	184.937	0.412	185.349	0	PA_with_intermediate	test	ward_and_allport	71	10.0	0.412	to_board	poldrack-single-stim	s619	False
0.1	185.354	0.564	185.918	0	PA_with_intermediate	test	ward_and_allport	89	10.0	0.564	to_hand	poldrack-single-stim	s619	False
0.1	185.92	0.285	186.205	0	PA_with_intermediate	test	ward_and_allport	82	10.0	0.285	to_board	poldrack-single-stim	s619	False
0.1	186.209	1.236	187.445	0	PA_with_intermediate	test	ward_and_allport	71	10.0	1.236	to_hand	poldrack-single-stim	s619	False
0.1	187.445	0.229	187.674	0	PA_with_intermediate	test	ward_and_allport	82	10.0	0.229	to_board	poldrack-single-stim	s619	False
1.0	187.681	2.0	187.68	0	PA_with_intermediate	test	ward_and_allport	-1	10.0	n/a	feedback	poldrack-single-stim	s619	False
4.133	189.686	4.133	193.819	1	PA_without_intermediate	test	ward_and_allport	89	11.0	4.133	to_hand	poldrack-single-stim	s619	False
0.1	193.82	1.055	194.875	0	PA_without_intermediate	test	ward_and_allport	71	11.0	1.055	to_board	poldrack-single-stim	s619	False
0.1	194.878	0.641	195.519	0	PA_without_intermediate	test	ward_and_allport	89	11.0	0.641	to_hand	poldrack-single-stim	s619	False
0.1	195.52	0.587	196.107	0	PA_without_intermediate	test	ward_and_allport	82	11.0	0.587	to_board	poldrack-single-stim	s619	False
0.1	196.112	1.227	197.339	0	PA_without_intermediate	test	ward_and_allport	89	11.0	1.227	to_hand	poldrack-single-stim	s619	False
0.1	197.34	0.156	197.496	0	PA_without_intermediate	test	ward_and_allport	71	11.0	0.156	to_board	poldrack-single-stim	s619	False
1.0	197.501	2.408	197.5	0	PA_without_intermediate	test	ward_and_allport	-1	11.0	n/a	feedback	poldrack-single-stim	s619	False
6.341	199.914	6.341	206.255	1	PA_with_intermediate	test	ward_and_allport	82	12.0	6.341	to_hand	poldrack-single-stim	s619	False
0.1	206.256	0.292	206.548	0	PA_with_intermediate	test	ward_and_allport	71	12.0	0.292	to_board	poldrack-single-stim	s619	False
0.1	206.552	1.28	207.832	0	PA_with_intermediate	test	ward_and_allport	82	12.0	1.28	to_hand	poldrack-single-stim	s619	False
0.1	207.833	0.192	208.025	0	PA_with_intermediate	test	ward_and_allport	89	12.0	0.192	to_board	poldrack-single-stim	s619	False
0.1	208.028	0.963	208.991	0	PA_with_intermediate	test	ward_and_allport	71	12.0	0.963	to_hand	poldrack-single-stim	s619	False
0.1	208.992	0.142	209.134	0	PA_with_intermediate	test	ward_and_allport	89	12.0	0.142	to_board	poldrack-single-stim	s619	False
1.0	209.14	3.768	209.139	0	PA_with_intermediate	test	ward_and_allport	-1	12.0	n/a	feedback	poldrack-single-stim	s619	False
3.744	212.911	3.744	216.655	1	PA_with_intermediate	test	ward_and_allport	89	13.0	3.744	to_hand	poldrack-single-stim	s619	False
0.1	216.657	1.121	217.778	0	PA_with_intermediate	test	ward_and_allport	71	13.0	1.121	to_board	poldrack-single-stim	s619	False
0.1	217.782	2.546	220.328	0	PA_with_intermediate	test	ward_and_allport	89	13.0	2.546	to_hand	poldrack-single-stim	s619	False
0.1	220.328	1.42	221.748	0	PA_with_intermediate	test	ward_and_allport	71	13.0	1.42	to_board	poldrack-single-stim	s619	False
0.1	221.753	0.914	222.667	0	PA_with_intermediate	test	ward_and_allport	71	13.0	0.914	to_hand	poldrack-single-stim	s619	False
0.1	222.668	0.438	223.106	0	PA_with_intermediate	test	ward_and_allport	89	13.0	0.438	to_board	poldrack-single-stim	s619	False
0.1	223.109	0.285	223.394	0	PA_with_intermediate	test	ward_and_allport	71	13.0	0.285	to_hand	poldrack-single-stim	s619	False
0.1	223.396	0.306	223.702	0	PA_with_intermediate	test	ward_and_allport	82	13.0	0.306	to_board	poldrack-single-stim	s619	False
0.1	223.706	1.455	225.161	0	PA_with_intermediate	test	ward_and_allport	89	13.0	1.455	to_hand	poldrack-single-stim	s619	False
0.1	225.162	0.173	225.335	0	PA_with_intermediate	test	ward_and_allport	71	13.0	0.173	to_board	poldrack-single-stim	s619	False
0.1	225.339	1.154	226.493	0	PA_with_intermediate	test	ward_and_allport	82	13.0	1.154	to_hand	poldrack-single-stim	s619	False
0.1	226.494	0.225	226.719	0	PA_with_intermediate	test	ward_and_allport	89	13.0	0.225	to_board	poldrack-single-stim	s619	False
1.0	226.724	2.68	226.723	0	PA_with_intermediate	test	ward_and_allport	-1	13.0	n/a	feedback	poldrack-single-stim	s619	False
3.626	229.408	3.626	233.034	1	PA_without_intermediate	test	ward_and_allport	82	14.0	3.626	to_hand	poldrack-single-stim	s619	False
0.1	233.035	0.348	233.383	0	PA_without_intermediate	test	ward_and_allport	89	14.0	0.348	to_board	poldrack-single-stim	s619	False
0.1	233.386	1.28	234.666	0	PA_without_intermediate	test	ward_and_allport	82	14.0	1.28	to_hand	poldrack-single-stim	s619	False
0.1	234.668	0.196	234.864	0	PA_without_intermediate	test	ward_and_allport	89	14.0	0.196	to_board	poldrack-single-stim	s619	False
0.1	234.869	2.117	236.986	0	PA_without_intermediate	test	ward_and_allport	82	14.0	2.117	to_hand	poldrack-single-stim	s619	False
0.1	236.987	0.228	237.215	0	PA_without_intermediate	test	ward_and_allport	71	14.0	0.228	to_board	poldrack-single-stim	s619	False
1.0	237.22	3.224	237.219	0	PA_without_intermediate	test	ward_and_allport	-1	14.0	n/a	feedback	poldrack-single-stim	s619	False
9.45	245.451	9.45	254.901	1	PA_without_intermediate	test	ward_and_allport	82	15.0	9.45	to_hand	poldrack-single-stim	s619	False
0.1	254.903	0.338	255.241	0	PA_without_intermediate	test	ward_and_allport	71	15.0	0.338	to_board	poldrack-single-stim	s619	False
0.1	255.247	2.202	257.449	0	PA_without_intermediate	test	ward_and_allport	82	15.0	2.202	to_hand	poldrack-single-stim	s619	False
0.1	257.45	0.28	257.73	0	PA_without_intermediate	test	ward_and_allport	89	15.0	0.28	to_board	poldrack-single-stim	s619	False
0.1	257.733	1.195	258.928	0	PA_without_intermediate	test	ward_and_allport	82	15.0	1.195	to_hand	poldrack-single-stim	s619	False
0.1	258.929	0.157	259.086	0	PA_without_intermediate	test	ward_and_allport	71	15.0	0.157	to_board	poldrack-single-stim	s619	False
1.0	259.095	3.36	259.094	0	PA_without_intermediate	test	ward_and_allport	-1	15.0	n/a	feedback	poldrack-single-stim	s619	False
4.702	262.459	4.702	267.161	1	PA_without_intermediate	test	ward_and_allport	71	16.0	4.702	to_hand	poldrack-single-stim	s619	False
0.1	267.161	0.11	267.271	0	PA_without_intermediate	test	ward_and_allport	89	16.0	0.11	to_board	poldrack-single-stim	s619	False
0.1	267.276	2.021	269.297	0	PA_without_intermediate	test	ward_and_allport	71	16.0	2.021	to_hand	poldrack-single-stim	s619	False
0.1	269.297	0.187	269.484	0	PA_without_intermediate	test	ward_and_allport	82	16.0	0.187	to_board	poldrack-single-stim	s619	False
0.1	269.491	1.409	270.9	0	PA_without_intermediate	test	ward_and_allport	71	16.0	1.409	to_hand	poldrack-single-stim	s619	False
0.1	270.9	0.092	270.992	0	PA_without_intermediate	test	ward_and_allport	89	16.0	0.092	to_board	poldrack-single-stim	s619	False
1.0	270.999	2.0	270.998	0	PA_without_intermediate	test	ward_and_allport	-1	16.0	n/a	feedback	poldrack-single-stim	s619	False
5.082	273.003	5.082	278.085	1	PA_without_intermediate	test	ward_and_allport	89	17.0	5.082	to_hand	poldrack-single-stim	s619	False
0.1	278.086	0.251	278.337	0	PA_without_intermediate	test	ward_and_allport	82	17.0	0.251	to_board	poldrack-single-stim	s619	False
0.1	278.341	2.1	280.441	0	PA_without_intermediate	test	ward_and_allport	89	17.0	2.1	to_hand	poldrack-single-stim	s619	False
0.1	280.442	0.018	280.46	0	PA_without_intermediate	test	ward_and_allport	71	17.0	0.018	to_board	poldrack-single-stim	s619	False
0.1	280.464	1.604	282.068	0	PA_without_intermediate	test	ward_and_allport	89	17.0	1.604	to_hand	poldrack-single-stim	s619	False
0.1	282.069	0.128	282.197	0	PA_without_intermediate	test	ward_and_allport	82	17.0	0.128	to_board	poldrack-single-stim	s619	False
1.0	282.201	2.408	282.2	0	PA_without_intermediate	test	ward_and_allport	-1	17.0	n/a	feedback	poldrack-single-stim	s619	False
7.742	284.613	7.742	292.355	1	PA_with_intermediate	test	ward_and_allport	82	18.0	7.742	to_hand	poldrack-single-stim	s619	False
0.1	292.356	0.592	292.948	0	PA_with_intermediate	test	ward_and_allport	71	18.0	0.592	to_board	poldrack-single-stim	s619	False
0.1	292.952	0.931	293.883	0	PA_with_intermediate	test	ward_and_allport	82	18.0	0.931	to_hand	poldrack-single-stim	s619	False
0.1	293.885	0.148	294.033	0	PA_with_intermediate	test	ward_and_allport	89	18.0	0.148	to_board	poldrack-single-stim	s619	False
0.1	294.037	1.027	295.064	0	PA_with_intermediate	test	ward_and_allport	71	18.0	1.027	to_hand	poldrack-single-stim	s619	False
0.1	295.065	0.117	295.182	0	PA_with_intermediate	test	ward_and_allport	82	18.0	0.117	to_board	poldrack-single-stim	s619	False
1.0	295.188	2.136	295.187	0	PA_with_intermediate	test	ward_and_allport	-1	18.0	n/a	feedback	poldrack-single-stim	s619	False
7.484	297.329	7.484	304.813	1	PA_without_intermediate	test	ward_and_allport	82	19.0	7.484	to_hand	poldrack-single-stim	s619	False
0.1	304.814	0.14	304.954	0	PA_without_intermediate	test	ward_and_allport	89	19.0	0.14	to_board	poldrack-single-stim	s619	False
0.1	304.958	3.648	308.606	0	PA_without_intermediate	test	ward_and_allport	82	19.0	3.648	to_hand	poldrack-single-stim	s619	False
0.1	308.608	0.167	308.775	0	PA_without_intermediate	test	ward_and_allport	71	19.0	0.167	to_board	poldrack-single-stim	s619	False
0.1	308.779	1.349	310.128	0	PA_without_intermediate	test	ward_and_allport	82	19.0	1.349	to_hand	poldrack-single-stim	s619	False
0.1	310.13	0.158	310.288	0	PA_without_intermediate	test	ward_and_allport	89	19.0	0.158	to_board	poldrack-single-stim	s619	False
1.0	310.298	5.128	310.297	0	PA_without_intermediate	test	ward_and_allport	-1	19.0	n/a	feedback	poldrack-single-stim	s619	False
4.788	315.433	4.788	320.221	1	PA_without_intermediate	test	ward_and_allport	89	20.0	4.788	to_hand	poldrack-single-stim	s619	False
0.1	320.222	0.527	320.749	0	PA_without_intermediate	test	ward_and_allport	71	20.0	0.527	to_board	poldrack-single-stim	s619	False
0.1	320.756	0.38	321.136	0	PA_without_intermediate	test	ward_and_allport	89	20.0	0.38	to_hand	poldrack-single-stim	s619	False
0.1	321.136	0.211	321.347	0	PA_without_intermediate	test	ward_and_allport	71	20.0	0.211	to_board	poldrack-single-stim	s619	False
0.1	321.353	0.971	322.324	0	PA_without_intermediate	test	ward_and_allport	89	20.0	0.971	to_hand	poldrack-single-stim	s619	False
0.1	322.325	0.176	322.501	0	PA_without_intermediate	test	ward_and_allport	82	20.0	0.176	to_board	poldrack-single-stim	s619	False
1.0	322.511	2.136	322.51	0	PA_without_intermediate	test	ward_and_allport	-1	20.0	n/a	feedback	poldrack-single-stim	s619	False
5.637	324.653	5.637	330.29	1	PA_without_intermediate	test	ward_and_allport	71	21.0	5.637	to_hand	poldrack-single-stim	s619	False
0.1	330.29	0.889	331.179	0	PA_without_intermediate	test	ward_and_allport	82	21.0	0.889	to_board	poldrack-single-stim	s619	False
0.1	331.185	0.394	331.579	0	PA_without_intermediate	test	ward_and_allport	71	21.0	0.394	to_hand	poldrack-single-stim	s619	False
0.1	331.58	0.242	331.822	0	PA_without_intermediate	test	ward_and_allport	82	21.0	0.242	to_board	poldrack-single-stim	s619	False
0.1	331.829	0.923	332.752	0	PA_without_intermediate	test	ward_and_allport	71	21.0	0.923	to_hand	poldrack-single-stim	s619	False
0.1	332.753	0.16	332.913	0	PA_without_intermediate	test	ward_and_allport	89	21.0	0.16	to_board	poldrack-single-stim	s619	False
1.0	332.919	5.264	332.918	0	PA_without_intermediate	test	ward_and_allport	-1	21.0	n/a	feedback	poldrack-single-stim	s619	False
4.306	338.19	4.306	342.496	1	PA_with_intermediate	test	ward_and_allport	71	22.0	4.306	to_hand	poldrack-single-stim	s619	False
0.1	342.497	2.062	344.559	0	PA_with_intermediate	test	ward_and_allport	89	22.0	2.062	to_board	poldrack-single-stim	s619	False
0.1	344.565	0.745	345.31	0	PA_with_intermediate	test	ward_and_allport	71	22.0	0.745	to_hand	poldrack-single-stim	s619	False
0.1	345.311	0.242	345.553	0	PA_with_intermediate	test	ward_and_allport	82	22.0	0.242	to_board	poldrack-single-stim	s619	False
0.1	345.559	0.555	346.114	0	PA_with_intermediate	test	ward_and_allport	89	22.0	0.555	to_hand	poldrack-single-stim	s619	False
0.1	346.115	0.2	346.315	0	PA_with_intermediate	test	ward_and_allport	82	22.0	0.2	to_board	poldrack-single-stim	s619	False
1.0	346.324	4.04	346.323	0	PA_with_intermediate	test	ward_and_allport	-1	22.0	n/a	feedback	poldrack-single-stim	s619	False
3.591	350.37	3.591	353.961	1	PA_with_intermediate	test	ward_and_allport	71	23.0	3.591	to_hand	poldrack-single-stim	s619	False
0.1	353.962	0.367	354.329	0	PA_with_intermediate	test	ward_and_allport	82	23.0	0.367	to_board	poldrack-single-stim	s619	False
0.1	354.335	0.919	355.254	0	PA_with_intermediate	test	ward_and_allport	71	23.0	0.919	to_hand	poldrack-single-stim	s619	False
0.1	355.255	0.144	355.399	0	PA_with_intermediate	test	ward_and_allport	89	23.0	0.144	to_board	poldrack-single-stim	s619	False
0.1	355.404	1.203	356.607	0	PA_with_intermediate	test	ward_and_allport	82	23.0	1.203	to_hand	poldrack-single-stim	s619	False
0.1	356.609	0.117	356.726	0	PA_with_intermediate	test	ward_and_allport	71	23.0	0.117	to_board	poldrack-single-stim	s619	False
1.0	356.735	2.136	356.734	0	PA_with_intermediate	test	ward_and_allport	-1	23.0	n/a	feedback	poldrack-single-stim	s619	False
5.482	358.877	5.482	364.359	1	PA_with_intermediate	test	ward_and_allport	71	24.0	5.482	to_hand	poldrack-single-stim	s619	False
0.1	364.36	0.134	364.494	0	PA_with_intermediate	test	ward_and_allport	89	24.0	0.134	to_board	poldrack-single-stim	s619	False
0.1	364.5	0.703	365.203	0	PA_with_intermediate	test	ward_and_allport	71	24.0	0.703	to_hand	poldrack-single-stim	s619	False
0.1	365.203	0.155	365.358	0	PA_with_intermediate	test	ward_and_allport	82	24.0	0.155	to_board	poldrack-single-stim	s619	False
0.1	365.365	1.44	366.805	0	PA_with_intermediate	test	ward_and_allport	89	24.0	1.44	to_hand	poldrack-single-stim	s619	False
0.1	366.806	0.128	366.934	0	PA_with_intermediate	test	ward_and_allport	71	24.0	0.128	to_board	poldrack-single-stim	s619	False
1.0	366.943	2.408	366.942	0	PA_with_intermediate	test	ward_and_allport	-1	24.0	n/a	feedback	poldrack-single-stim	s619	False
7.77	369.357	7.77	377.127	1	PA_without_intermediate	test	ward_and_allport	89	25.0	7.77	to_hand	poldrack-single-stim	s619	False
0.1	377.128	0.262	377.39	0	PA_without_intermediate	test	ward_and_allport	82	25.0	0.262	to_board	poldrack-single-stim	s619	False
0.1	377.396	1.053	378.449	0	PA_without_intermediate	test	ward_and_allport	89	25.0	1.053	to_hand	poldrack-single-stim	s619	False
0.1	378.45	0.851	379.301	0	PA_without_intermediate	test	ward_and_allport	71	25.0	0.851	to_board	poldrack-single-stim	s619	False
0.1	379.307	1.116	380.423	0	PA_without_intermediate	test	ward_and_allport	89	25.0	1.116	to_hand	poldrack-single-stim	s619	False
0.1	380.424	0.182	380.606	0	PA_without_intermediate	test	ward_and_allport	71	25.0	0.182	to_board	poldrack-single-stim	s619	False
0.1	380.613	1.65	382.263	0	PA_without_intermediate	test	ward_and_allport	71	25.0	1.65	to_hand	poldrack-single-stim	s619	False
0.1	382.264	0.149	382.413	0	PA_without_intermediate	test	ward_and_allport	82	25.0	0.149	to_board	poldrack-single-stim	s619	False
1.0	382.42	2.68	382.419	0	PA_without_intermediate	test	ward_and_allport	-1	25.0	n/a	feedback	poldrack-single-stim	s619	False
2.853	385.107	2.853	387.96	1	PA_with_intermediate	test	ward_and_allport	89	26.0	2.853	to_hand	poldrack-single-stim	s619	False
0.1	387.96	1.827	389.787	0	PA_with_intermediate	test	ward_and_allport	71	26.0	1.827	to_board	poldrack-single-stim	s619	False
0.1	389.794	0.509	390.303	0	PA_with_intermediate	test	ward_and_allport	71	26.0	0.509	to_hand	poldrack-single-stim	s619	False
0.1	390.304	0.57	390.874	0	PA_with_intermediate	test	ward_and_allport	71	26.0	0.57	to_board	poldrack-single-stim	s619	False
0.1	390.882	0.598	391.48	0	PA_with_intermediate	test	ward_and_allport	89	26.0	0.598	to_hand	poldrack-single-stim	s619	False
0.1	391.481	0.203	391.684	0	PA_with_intermediate	test	ward_and_allport	82	26.0	0.203	to_board	poldrack-single-stim	s619	False
0.1	391.691	1.299	392.99	0	PA_with_intermediate	test	ward_and_allport	71	26.0	1.299	to_hand	poldrack-single-stim	s619	False
0.1	392.991	0.105	393.096	0	PA_with_intermediate	test	ward_and_allport	89	26.0	0.105	to_board	poldrack-single-stim	s619	False
1.0	393.105	4.72	393.104	0	PA_with_intermediate	test	ward_and_allport	-1	26.0	n/a	feedback	poldrack-single-stim	s619	False
3.838	397.832	3.838	401.67	1	PA_without_intermediate	test	ward_and_allport	82	27.0	3.838	to_hand	poldrack-single-stim	s619	False
0.1	401.671	0.498	402.169	0	PA_without_intermediate	test	ward_and_allport	71	27.0	0.498	to_board	poldrack-single-stim	s619	False
0.1	402.175	1.96	404.135	0	PA_without_intermediate	test	ward_and_allport	82	27.0	1.96	to_hand	poldrack-single-stim	s619	False
0.1	404.137	0.191	404.328	0	PA_without_intermediate	test	ward_and_allport	89	27.0	0.191	to_board	poldrack-single-stim	s619	False
0.1	404.335	2.59	406.925	0	PA_without_intermediate	test	ward_and_allport	82	27.0	2.59	to_hand	poldrack-single-stim	s619	False
0.1	406.926	0.203	407.129	0	PA_without_intermediate	test	ward_and_allport	71	27.0	0.203	to_board	poldrack-single-stim	s619	False
1.0	407.141	3.224	407.14	0	PA_without_intermediate	test	ward_and_allport	-1	27.0	n/a	feedback	poldrack-single-stim	s619	False
1.924	410.372	1.924	412.296	1	PA_without_intermediate	test	ward_and_allport	82	28.0	1.924	to_hand	poldrack-single-stim	s619	False
0.1	412.297	1.641	413.938	0	PA_without_intermediate	test	ward_and_allport	71	28.0	1.641	to_board	poldrack-single-stim	s619	False
0.1	413.944	1.111	415.055	0	PA_without_intermediate	test	ward_and_allport	82	28.0	1.111	to_hand	poldrack-single-stim	s619	False
0.1	415.057	0.159	415.216	0	PA_without_intermediate	test	ward_and_allport	71	28.0	0.159	to_board	poldrack-single-stim	s619	False
0.1	415.223	1.235	416.458	0	PA_without_intermediate	test	ward_and_allport	82	28.0	1.235	to_hand	poldrack-single-stim	s619	False
0.1	416.46	0.125	416.585	0	PA_without_intermediate	test	ward_and_allport	89	28.0	0.125	to_board	poldrack-single-stim	s619	False
1.0	416.598	2.272	416.597	0	PA_without_intermediate	test	ward_and_allport	-1	28.0	n/a	feedback	poldrack-single-stim	s619	False
4.395	418.877	4.395	423.272	1	PA_with_intermediate	test	ward_and_allport	71	29.0	4.395	to_hand	poldrack-single-stim	s619	False
0.1	423.273	0.234	423.507	0	PA_with_intermediate	test	ward_and_allport	89	29.0	0.234	to_board	poldrack-single-stim	s619	False
0.1	423.515	1.15	424.665	0	PA_with_intermediate	test	ward_and_allport	71	29.0	1.15	to_hand	poldrack-single-stim	s619	False
0.1	424.666	0.196	424.862	0	PA_with_intermediate	test	ward_and_allport	82	29.0	0.196	to_board	poldrack-single-stim	s619	False
0.1	424.87	0.902	425.772	0	PA_with_intermediate	test	ward_and_allport	89	29.0	0.902	to_hand	poldrack-single-stim	s619	False
0.1	425.773	0.146	425.919	0	PA_with_intermediate	test	ward_and_allport	71	29.0	0.146	to_board	poldrack-single-stim	s619	False
0.1	425.928	1.366	427.294	0	PA_with_intermediate	test	ward_and_allport	71	29.0	1.366	to_hand	poldrack-single-stim	s619	False
0.1	427.295	0.318	427.613	0	PA_with_intermediate	test	ward_and_allport	89	29.0	0.318	to_board	poldrack-single-stim	s619	False
0.1	427.619	2.727	430.346	0	PA_with_intermediate	test	ward_and_allport	89	29.0	2.727	to_hand	poldrack-single-stim	s619	False
0.1	430.348	0.286	430.634	0	PA_with_intermediate	test	ward_and_allport	82	29.0	0.286	to_board	poldrack-single-stim	s619	False
1.0	430.645	3.632	430.644	0	PA_with_intermediate	test	ward_and_allport	-1	29.0	n/a	feedback	poldrack-single-stim	s619	False
7.124	439.287	7.124	446.411	1	PA_without_intermediate	test	ward_and_allport	71	30.0	7.124	to_hand	poldrack-single-stim	s619	False
0.1	446.412	0.103	446.515	0	PA_without_intermediate	test	ward_and_allport	89	30.0	0.103	to_board	poldrack-single-stim	s619	False
0.1	446.522	1.44	447.962	0	PA_without_intermediate	test	ward_and_allport	71	30.0	1.44	to_hand	poldrack-single-stim	s619	False
0.1	447.963	0.135	448.098	0	PA_without_intermediate	test	ward_and_allport	82	30.0	0.135	to_board	poldrack-single-stim	s619	False
0.1	448.107	1.762	449.869	0	PA_without_intermediate	test	ward_and_allport	71	30.0	1.762	to_hand	poldrack-single-stim	s619	False
0.1	449.869	0.102	449.971	0	PA_without_intermediate	test	ward_and_allport	89	30.0	0.102	to_board	poldrack-single-stim	s619	False
1.0	449.983	2.408	449.982	0	PA_without_intermediate	test	ward_and_allport	-1	30.0	n/a	feedback	poldrack-single-stim	s619	False
5.942	452.398	5.942	458.34	1	PA_without_intermediate	test	ward_and_allport	71	31.0	5.942	to_hand	poldrack-single-stim	s619	False
0.1	458.342	0.224	458.566	0	PA_without_intermediate	test	ward_and_allport	82	31.0	0.224	to_board	poldrack-single-stim	s619	False
0.1	458.572	2.209	460.781	0	PA_without_intermediate	test	ward_and_allport	71	31.0	2.209	to_hand	poldrack-single-stim	s619	False
0.1	460.782	0.042	460.824	0	PA_without_intermediate	test	ward_and_allport	89	31.0	0.042	to_board	poldrack-single-stim	s619	False
0.1	460.832	1.015	461.847	0	PA_without_intermediate	test	ward_and_allport	71	31.0	1.015	to_hand	poldrack-single-stim	s619	False
0.1	461.849	0.129	461.978	0	PA_without_intermediate	test	ward_and_allport	82	31.0	0.129	to_board	poldrack-single-stim	s619	False
1.0	461.99	2.0	461.989	0	PA_without_intermediate	test	ward_and_allport	-1	31.0	n/a	feedback	poldrack-single-stim	s619	False
5.488	463.998	5.488	469.486	1	PA_with_intermediate	test	ward_and_allport	71	32.0	5.488	to_hand	poldrack-single-stim	s619	False
0.1	469.487	0.147	469.634	0	PA_with_intermediate	test	ward_and_allport	82	32.0	0.147	to_board	poldrack-single-stim	s619	False
0.1	469.64	0.675	470.315	0	PA_with_intermediate	test	ward_and_allport	71	32.0	0.675	to_hand	poldrack-single-stim	s619	False
0.1	470.316	0.103	470.419	0	PA_with_intermediate	test	ward_and_allport	89	32.0	0.103	to_board	poldrack-single-stim	s619	False
0.1	470.427	1.003	471.43	0	PA_with_intermediate	test	ward_and_allport	82	32.0	1.003	to_hand	poldrack-single-stim	s619	False
0.1	471.43	0.098	471.528	0	PA_with_intermediate	test	ward_and_allport	89	32.0	0.098	to_board	poldrack-single-stim	s619	False
1.0	471.537	2.0	471.536	0	PA_with_intermediate	test	ward_and_allport	-1	32.0	n/a	feedback	poldrack-single-stim	s619	False
5.859	473.547	5.859	479.406	1	PA_with_intermediate	test	ward_and_allport	71	33.0	5.859	to_hand	poldrack-single-stim	s619	False
0.1	479.407	0.3	479.707	0	PA_with_intermediate	test	ward_and_allport	82	33.0	0.3	to_board	poldrack-single-stim	s619	False
0.1	479.716	0.981	480.697	0	PA_with_intermediate	test	ward_and_allport	71	33.0	0.981	to_hand	poldrack-single-stim	s619	False
0.1	480.698	0.073	480.771	0	PA_with_intermediate	test	ward_and_allport	89	33.0	0.073	to_board	poldrack-single-stim	s619	False
0.1	480.778	0.682	481.46	0	PA_with_intermediate	test	ward_and_allport	82	33.0	0.682	to_hand	poldrack-single-stim	s619	False
0.1	481.462	0.088	481.55	0	PA_with_intermediate	test	ward_and_allport	89	33.0	0.088	to_board	poldrack-single-stim	s619	False
0.1	481.558	1.927	483.485	0	PA_with_intermediate	test	ward_and_allport	71	33.0	1.927	to_hand	poldrack-single-stim	s619	False
0.1	483.486	0.091	483.577	0	PA_with_intermediate	test	ward_and_allport	82	33.0	0.091	to_board	poldrack-single-stim	s619	False
0.1	483.585	1.693	485.278	0	PA_with_intermediate	test	ward_and_allport	82	33.0	1.693	to_hand	poldrack-single-stim	s619	False
0.1	485.279	0.079	485.358	0	PA_with_intermediate	test	ward_and_allport	71	33.0	0.079	to_board	poldrack-single-stim	s619	False
0.1	485.365	0.55	485.915	0	PA_with_intermediate	test	ward_and_allport	89	33.0	0.55	to_hand	poldrack-single-stim	s619	False
0.1	485.915	0.119	486.034	0	PA_with_intermediate	test	ward_and_allport	71	33.0	0.119	to_board	poldrack-single-stim	s619	False
1.0	486.044	2.0	486.043	0	PA_with_intermediate	test	ward_and_allport	-1	33.0	n/a	feedback	poldrack-single-stim	s619	False
3.914	488.051	3.914	491.965	1	PA_with_intermediate	test	ward_and_allport	82	34.0	3.914	to_hand	poldrack-single-stim	s619	False
0.1	491.966	0.073	492.039	0	PA_with_intermediate	test	ward_and_allport	89	34.0	0.073	to_board	poldrack-single-stim	s619	False
0.1	492.045	2.208	494.253	0	PA_with_intermediate	test	ward_and_allport	82	34.0	2.208	to_hand	poldrack-single-stim	s619	False
0.1	494.254	0.117	494.371	0	PA_with_intermediate	test	ward_and_allport	71	34.0	0.117	to_board	poldrack-single-stim	s619	False
0.1	494.38	1.328	495.708	0	PA_with_intermediate	test	ward_and_allport	89	34.0	1.328	to_hand	poldrack-single-stim	s619	False
0.1	495.709	0.147	495.856	0	PA_with_intermediate	test	ward_and_allport	82	34.0	0.147	to_board	poldrack-single-stim	s619	False
1.0	495.864	2.408	495.863	0	PA_with_intermediate	test	ward_and_allport	-1	34.0	n/a	feedback	poldrack-single-stim	s619	False
9.081	498.282	9.081	507.363	1	PA_without_intermediate	test	ward_and_allport	82	35.0	9.081	to_hand	poldrack-single-stim	s619	False
0.1	507.364	0.373	507.737	0	PA_without_intermediate	test	ward_and_allport	89	35.0	0.373	to_board	poldrack-single-stim	s619	False
0.1	507.746	1.114	508.86	0	PA_without_intermediate	test	ward_and_allport	82	35.0	1.114	to_hand	poldrack-single-stim	s619	False
0.1	508.862	0.172	509.034	0	PA_without_intermediate	test	ward_and_allport	89	35.0	0.172	to_board	poldrack-single-stim	s619	False
0.1	509.042	1.582	510.624	0	PA_without_intermediate	test	ward_and_allport	82	35.0	1.582	to_hand	poldrack-single-stim	s619	False
0.1	510.626	0.236	510.862	0	PA_without_intermediate	test	ward_and_allport	71	35.0	0.236	to_board	poldrack-single-stim	s619	False
1.0	510.871	2.816	510.87	0	PA_without_intermediate	test	ward_and_allport	-1	35.0	n/a	feedback	poldrack-single-stim	s619	False
3.43	513.696	3.43	517.126	1	PA_with_intermediate	test	ward_and_allport	89	36.0	3.43	to_hand	poldrack-single-stim	s619	False
0.1	517.126	0.409	517.535	0	PA_with_intermediate	test	ward_and_allport	71	36.0	0.409	to_board	poldrack-single-stim	s619	False
0.1	517.545	1.014	518.559	0	PA_with_intermediate	test	ward_and_allport	89	36.0	1.014	to_hand	poldrack-single-stim	s619	False
0.1	518.56	0.173	518.733	0	PA_with_intermediate	test	ward_and_allport	82	36.0	0.173	to_board	poldrack-single-stim	s619	False
0.1	518.741	1.054	519.795	0	PA_with_intermediate	test	ward_and_allport	71	36.0	1.054	to_hand	poldrack-single-stim	s619	False
0.1	519.796	0.097	519.893	0	PA_with_intermediate	test	ward_and_allport	89	36.0	0.097	to_board	poldrack-single-stim	s619	False
1.0	519.901	4.176	519.9	0	PA_with_intermediate	test	ward_and_allport	-1	36.0	n/a	feedback	poldrack-single-stim	s619	False
1.562	524.083	1.562	525.645	1	PA_with_intermediate	test	ward_and_allport	82	37.0	1.562	to_hand	poldrack-single-stim	s619	False
0.1	525.646	0.359	526.005	0	PA_with_intermediate	test	ward_and_allport	71	37.0	0.359	to_board	poldrack-single-stim	s619	False
0.1	526.013	3.241	529.254	0	PA_with_intermediate	test	ward_and_allport	82	37.0	3.241	to_hand	poldrack-single-stim	s619	False
0.1	529.255	0.2	529.455	0	PA_with_intermediate	test	ward_and_allport	89	37.0	0.2	to_board	poldrack-single-stim	s619	False
0.1	529.463	0.996	530.459	0	PA_with_intermediate	test	ward_and_allport	71	37.0	0.996	to_hand	poldrack-single-stim	s619	False
0.1	530.461	0.145	530.606	0	PA_with_intermediate	test	ward_and_allport	89	37.0	0.145	to_board	poldrack-single-stim	s619	False
1.0	530.616	3.36	530.615	0	PA_with_intermediate	test	ward_and_allport	-1	37.0	n/a	feedback	poldrack-single-stim	s619	False
2.962	533.986	2.962	536.948	1	PA_with_intermediate	test	ward_and_allport	89	38.0	2.962	to_hand	poldrack-single-stim	s619	False
0.1	536.949	0.368	537.317	0	PA_with_intermediate	test	ward_and_allport	82	38.0	0.368	to_board	poldrack-single-stim	s619	False
0.1	537.326	0.828	538.154	0	PA_with_intermediate	test	ward_and_allport	89	38.0	0.828	to_hand	poldrack-single-stim	s619	False
0.1	538.155	0.121	538.276	0	PA_with_intermediate	test	ward_and_allport	71	38.0	0.121	to_board	poldrack-single-stim	s619	False
0.1	538.289	1.171	539.46	0	PA_with_intermediate	test	ward_and_allport	82	38.0	1.171	to_hand	poldrack-single-stim	s619	False
0.1	539.462	0.122	539.584	0	PA_with_intermediate	test	ward_and_allport	71	38.0	0.122	to_board	poldrack-single-stim	s619	False
1.0	539.596	2.0	539.595	0	PA_with_intermediate	test	ward_and_allport	-1	38.0	n/a	feedback	poldrack-single-stim	s619	False
6.777	541.603	6.777	548.38	1	PA_without_intermediate	test	ward_and_allport	82	39.0	6.777	to_hand	poldrack-single-stim	s619	False
0.1	548.381	0.141	548.522	0	PA_without_intermediate	test	ward_and_allport	89	39.0	0.141	to_board	poldrack-single-stim	s619	False
0.1	548.529	2.822	551.351	0	PA_without_intermediate	test	ward_and_allport	82	39.0	2.822	to_hand	poldrack-single-stim	s619	False
0.1	551.351	5.091	556.442	0	PA_without_intermediate	test	ward_and_allport	82	39.0	5.091	to_board	poldrack-single-stim	s619	False
0.1	556.452	0.632	557.084	0	PA_without_intermediate	test	ward_and_allport	89	39.0	0.632	to_hand	poldrack-single-stim	s619	False
0.1	557.085	0.432	557.517	0	PA_without_intermediate	test	ward_and_allport	71	39.0	0.432	to_board	poldrack-single-stim	s619	False
0.1	557.526	1.894	559.42	0	PA_without_intermediate	test	ward_and_allport	82	39.0	1.894	to_hand	poldrack-single-stim	s619	False
0.1	559.421	0.14	559.561	0	PA_without_intermediate	test	ward_and_allport	71	39.0	0.14	to_board	poldrack-single-stim	s619	False
0.1	559.571	1.269	560.84	0	PA_without_intermediate	test	ward_and_allport	82	39.0	1.269	to_hand	poldrack-single-stim	s619	False
0.1	560.84	0.168	561.008	0	PA_without_intermediate	test	ward_and_allport	89	39.0	0.168	to_board	poldrack-single-stim	s619	False
1.0	561.02	2.408	561.019	0	PA_without_intermediate	test	ward_and_allport	-1	39.0	n/a	feedback	poldrack-single-stim	s619	False
4.838	563.438	4.838	568.276	1	PA_with_intermediate	test	ward_and_allport	71	40.0	4.838	to_hand	poldrack-single-stim	s619	False
0.1	568.277	0.15	568.427	0	PA_with_intermediate	test	ward_and_allport	82	40.0	0.15	to_board	poldrack-single-stim	s619	False
0.1	568.433	1.432	569.865	0	PA_with_intermediate	test	ward_and_allport	71	40.0	1.432	to_hand	poldrack-single-stim	s619	False
0.1	569.867	0.159	570.026	0	PA_with_intermediate	test	ward_and_allport	89	40.0	0.159	to_board	poldrack-single-stim	s619	False
0.1	570.033	1.06	571.093	0	PA_with_intermediate	test	ward_and_allport	82	40.0	1.06	to_hand	poldrack-single-stim	s619	False
0.1	571.093	0.12	571.213	0	PA_with_intermediate	test	ward_and_allport	71	40.0	0.12	to_board	poldrack-single-stim	s619	False
0.1	571.223	1.959	573.182	0	PA_with_intermediate	test	ward_and_allport	71	40.0	1.959	to_hand	poldrack-single-stim	s619	False
0.1	573.183	0.242	573.425	0	PA_with_intermediate	test	ward_and_allport	89	40.0	0.242	to_board	poldrack-single-stim	s619	False
1.0	573.436	2.816	573.435	0	PA_with_intermediate	test	ward_and_allport	-1	40.0	n/a	feedback	poldrack-single-stim	s619	False
