duration	onset	block_duration	movement_onset	planning	condition	exp_stage	experiment_exp_id	key_press	problem_id	response_time	trial_id	trial_type	worker_id	junk
5.018	3.008	5.018	8.026	1	UA_with_intermediate	practice	ward_and_allport	71	0.0	5.018	to_hand	poldrack-single-stim	s620	False
0.1	8.028	0.49	8.518	0	UA_with_intermediate	practice	ward_and_allport	82	0.0	0.49	to_board	poldrack-single-stim	s620	False
0.1	8.519	0.552	9.071	0	UA_with_intermediate	practice	ward_and_allport	71	0.0	0.552	to_hand	poldrack-single-stim	s620	False
0.1	9.073	0.32	9.393	0	UA_with_intermediate	practice	ward_and_allport	89	0.0	0.32	to_board	poldrack-single-stim	s620	False
0.1	9.395	0.547	9.942	0	UA_with_intermediate	practice	ward_and_allport	82	0.0	0.547	to_hand	poldrack-single-stim	s620	False
0.1	9.942	0.303	10.245	0	UA_with_intermediate	practice	ward_and_allport	89	0.0	0.303	to_board	poldrack-single-stim	s620	False
1.0	10.249	2.5	10.248	0	UA_with_intermediate	practice	ward_and_allport	-1	0.0	n/a	feedback	poldrack-single-stim	s620	False
1.981	12.752	1.981	14.733	1	UA_with_intermediate	practice	ward_and_allport	89	1.0	1.981	to_hand	poldrack-single-stim	s620	False
0.1	14.735	0.341	15.076	0	UA_with_intermediate	practice	ward_and_allport	82	1.0	0.341	to_board	poldrack-single-stim	s620	False
0.1	15.078	0.38	15.458	0	UA_with_intermediate	practice	ward_and_allport	71	1.0	0.38	to_hand	poldrack-single-stim	s620	False
0.1	15.459	0.309	15.768	0	UA_with_intermediate	practice	ward_and_allport	89	1.0	0.309	to_board	poldrack-single-stim	s620	False
0.1	15.77	0.392	16.162	0	UA_with_intermediate	practice	ward_and_allport	82	1.0	0.392	to_hand	poldrack-single-stim	s620	False
0.1	16.163	0.262	16.425	0	UA_with_intermediate	practice	ward_and_allport	89	1.0	0.262	to_board	poldrack-single-stim	s620	False
1.0	16.431	2.1	16.43	0	UA_with_intermediate	practice	ward_and_allport	-1	1.0	n/a	feedback	poldrack-single-stim	s620	False
1.896	18.534	1.896	20.43	1	UA_without_intermediate	practice	ward_and_allport	82	2.0	1.896	to_hand	poldrack-single-stim	s620	False
0.1	20.431	1.123	21.554	0	UA_without_intermediate	practice	ward_and_allport	89	2.0	1.123	to_board	poldrack-single-stim	s620	False
0.1	21.557	0.943	22.5	0	UA_without_intermediate	practice	ward_and_allport	71	2.0	0.943	to_hand	poldrack-single-stim	s620	False
0.1	22.501	0.303	22.804	0	UA_without_intermediate	practice	ward_and_allport	89	2.0	0.303	to_board	poldrack-single-stim	s620	False
0.1	22.807	0.526	23.333	0	UA_without_intermediate	practice	ward_and_allport	71	2.0	0.526	to_hand	poldrack-single-stim	s620	False
0.1	23.334	0.279	23.613	0	UA_without_intermediate	practice	ward_and_allport	89	2.0	0.279	to_board	poldrack-single-stim	s620	False
1.0	23.617	2.2	23.616	0	UA_without_intermediate	practice	ward_and_allport	-1	2.0	n/a	feedback	poldrack-single-stim	s620	False
1.837	25.819	1.837	27.656	1	UA_without_intermediate	practice	ward_and_allport	71	3.0	1.837	to_hand	poldrack-single-stim	s620	False
0.1	27.658	0.281	27.939	0	UA_without_intermediate	practice	ward_and_allport	89	3.0	0.281	to_board	poldrack-single-stim	s620	False
0.1	27.942	0.657	28.599	0	UA_without_intermediate	practice	ward_and_allport	82	3.0	0.657	to_hand	poldrack-single-stim	s620	False
0.1	28.6	0.255	28.855	0	UA_without_intermediate	practice	ward_and_allport	89	3.0	0.255	to_board	poldrack-single-stim	s620	False
0.1	28.857	0.32	29.177	0	UA_without_intermediate	practice	ward_and_allport	71	3.0	0.32	to_hand	poldrack-single-stim	s620	False
0.1	29.179	0.248	29.427	0	UA_without_intermediate	practice	ward_and_allport	89	3.0	0.248	to_board	poldrack-single-stim	s620	False
1.0	29.433	2.0	29.432	0	UA_without_intermediate	practice	ward_and_allport	-1	3.0	n/a	feedback	poldrack-single-stim	s620	False
3.93	33.438	3.93	37.368	1	PA_with_intermediate	test	ward_and_allport	71	0.0	3.93	to_hand	poldrack-single-stim	s620	False
0.1	37.37	0.625	37.995	0	PA_with_intermediate	test	ward_and_allport	89	0.0	0.625	to_board	poldrack-single-stim	s620	False
0.1	37.996	0.635	38.631	0	PA_with_intermediate	test	ward_and_allport	71	0.0	0.635	to_hand	poldrack-single-stim	s620	False
0.1	38.632	0.313	38.945	0	PA_with_intermediate	test	ward_and_allport	82	0.0	0.313	to_board	poldrack-single-stim	s620	False
0.1	38.947	0.982	39.929	0	PA_with_intermediate	test	ward_and_allport	89	0.0	0.982	to_hand	poldrack-single-stim	s620	False
0.1	39.93	0.241	40.171	0	PA_with_intermediate	test	ward_and_allport	82	0.0	0.241	to_board	poldrack-single-stim	s620	False
1.0	40.175	4.176	40.174	0	PA_with_intermediate	test	ward_and_allport	-1	0.0	n/a	feedback	poldrack-single-stim	s620	False
2.977	44.353	2.977	47.33	1	PA_with_intermediate	test	ward_and_allport	82	1.0	2.977	to_hand	poldrack-single-stim	s620	False
0.1	47.332	0.312	47.644	0	PA_with_intermediate	test	ward_and_allport	71	1.0	0.312	to_board	poldrack-single-stim	s620	False
0.1	47.646	0.5	48.146	0	PA_with_intermediate	test	ward_and_allport	82	1.0	0.5	to_hand	poldrack-single-stim	s620	False
0.1	48.147	0.327	48.474	0	PA_with_intermediate	test	ward_and_allport	89	1.0	0.327	to_board	poldrack-single-stim	s620	False
0.1	48.476	0.574	49.05	0	PA_with_intermediate	test	ward_and_allport	71	1.0	0.574	to_hand	poldrack-single-stim	s620	False
0.1	49.051	0.272	49.323	0	PA_with_intermediate	test	ward_and_allport	82	1.0	0.272	to_board	poldrack-single-stim	s620	False
1.0	49.326	3.36	49.325	0	PA_with_intermediate	test	ward_and_allport	-1	1.0	n/a	feedback	poldrack-single-stim	s620	False
4.519	52.689	4.519	57.208	1	PA_with_intermediate	test	ward_and_allport	82	2.0	4.519	to_hand	poldrack-single-stim	s620	False
0.1	57.209	0.406	57.615	0	PA_with_intermediate	test	ward_and_allport	71	2.0	0.406	to_board	poldrack-single-stim	s620	False
0.1	57.619	0.353	57.972	0	PA_with_intermediate	test	ward_and_allport	82	2.0	0.353	to_hand	poldrack-single-stim	s620	False
0.1	57.974	0.427	58.401	0	PA_with_intermediate	test	ward_and_allport	89	2.0	0.427	to_board	poldrack-single-stim	s620	False
0.1	58.404	0.402	58.806	0	PA_with_intermediate	test	ward_and_allport	71	2.0	0.402	to_hand	poldrack-single-stim	s620	False
0.1	58.807	0.268	59.075	0	PA_with_intermediate	test	ward_and_allport	82	2.0	0.268	to_board	poldrack-single-stim	s620	False
1.0	59.082	2.0	59.081	0	PA_with_intermediate	test	ward_and_allport	-1	2.0	n/a	feedback	poldrack-single-stim	s620	False
1.654	61.084	1.654	62.738	1	PA_without_intermediate	test	ward_and_allport	82	3.0	1.654	to_hand	poldrack-single-stim	s620	False
0.1	62.74	0.453	63.193	0	PA_without_intermediate	test	ward_and_allport	89	3.0	0.453	to_board	poldrack-single-stim	s620	False
0.1	63.197	0.965	64.162	0	PA_without_intermediate	test	ward_and_allport	82	3.0	0.965	to_hand	poldrack-single-stim	s620	False
0.1	64.163	0.484	64.647	0	PA_without_intermediate	test	ward_and_allport	71	3.0	0.484	to_board	poldrack-single-stim	s620	False
0.1	64.65	0.502	65.152	0	PA_without_intermediate	test	ward_and_allport	82	3.0	0.502	to_hand	poldrack-single-stim	s620	False
0.1	65.154	0.229	65.383	0	PA_without_intermediate	test	ward_and_allport	89	3.0	0.229	to_board	poldrack-single-stim	s620	False
1.0	65.389	2.408	65.388	0	PA_without_intermediate	test	ward_and_allport	-1	3.0	n/a	feedback	poldrack-single-stim	s620	False
3.185	67.801	3.185	70.986	1	PA_with_intermediate	test	ward_and_allport	89	4.0	3.185	to_hand	poldrack-single-stim	s620	False
0.1	70.988	0.327	71.315	0	PA_with_intermediate	test	ward_and_allport	71	4.0	0.327	to_board	poldrack-single-stim	s620	False
0.1	71.318	0.586	71.904	0	PA_with_intermediate	test	ward_and_allport	89	4.0	0.586	to_hand	poldrack-single-stim	s620	False
0.1	71.905	0.333	72.238	0	PA_with_intermediate	test	ward_and_allport	82	4.0	0.333	to_board	poldrack-single-stim	s620	False
0.1	72.241	0.577	72.818	0	PA_with_intermediate	test	ward_and_allport	71	4.0	0.577	to_hand	poldrack-single-stim	s620	False
0.1	72.819	0.23	73.049	0	PA_with_intermediate	test	ward_and_allport	82	4.0	0.23	to_board	poldrack-single-stim	s620	False
1.0	73.056	2.816	73.055	0	PA_with_intermediate	test	ward_and_allport	-1	4.0	n/a	feedback	poldrack-single-stim	s620	False
1.889	75.874	1.889	77.763	1	PA_without_intermediate	test	ward_and_allport	71	5.0	1.889	to_hand	poldrack-single-stim	s620	False
0.1	77.764	0.899	78.663	0	PA_without_intermediate	test	ward_and_allport	82	5.0	0.899	to_board	poldrack-single-stim	s620	False
0.1	78.667	0.289	78.956	0	PA_without_intermediate	test	ward_and_allport	71	5.0	0.289	to_hand	poldrack-single-stim	s620	False
0.1	78.957	0.288	79.245	0	PA_without_intermediate	test	ward_and_allport	89	5.0	0.288	to_board	poldrack-single-stim	s620	False
0.1	79.249	0.317	79.566	0	PA_without_intermediate	test	ward_and_allport	71	5.0	0.317	to_hand	poldrack-single-stim	s620	False
0.1	79.567	0.245	79.812	0	PA_without_intermediate	test	ward_and_allport	82	5.0	0.245	to_board	poldrack-single-stim	s620	False
1.0	79.819	3.088	79.818	0	PA_without_intermediate	test	ward_and_allport	-1	5.0	n/a	feedback	poldrack-single-stim	s620	False
2.58	82.91	2.58	85.49	1	PA_without_intermediate	test	ward_and_allport	82	6.0	2.58	to_hand	poldrack-single-stim	s620	False
0.1	85.491	0.67	86.161	0	PA_without_intermediate	test	ward_and_allport	71	6.0	0.67	to_board	poldrack-single-stim	s620	False
0.1	86.165	0.37	86.535	0	PA_without_intermediate	test	ward_and_allport	82	6.0	0.37	to_hand	poldrack-single-stim	s620	False
0.1	86.536	0.508	87.044	0	PA_without_intermediate	test	ward_and_allport	89	6.0	0.508	to_board	poldrack-single-stim	s620	False
0.1	87.047	0.334	87.381	0	PA_without_intermediate	test	ward_and_allport	82	6.0	0.334	to_hand	poldrack-single-stim	s620	False
0.1	87.383	0.316	87.699	0	PA_without_intermediate	test	ward_and_allport	71	6.0	0.316	to_board	poldrack-single-stim	s620	False
1.0	87.706	2.136	87.705	0	PA_without_intermediate	test	ward_and_allport	-1	6.0	n/a	feedback	poldrack-single-stim	s620	False
2.427	89.846	2.427	92.273	1	PA_without_intermediate	test	ward_and_allport	89	7.0	2.427	to_hand	poldrack-single-stim	s620	False
0.1	92.274	0.236	92.51	0	PA_without_intermediate	test	ward_and_allport	71	7.0	0.236	to_board	poldrack-single-stim	s620	False
0.1	92.514	0.3	92.814	0	PA_without_intermediate	test	ward_and_allport	89	7.0	0.3	to_hand	poldrack-single-stim	s620	False
0.1	92.815	0.325	93.14	0	PA_without_intermediate	test	ward_and_allport	82	7.0	0.325	to_board	poldrack-single-stim	s620	False
0.1	93.145	0.403	93.548	0	PA_without_intermediate	test	ward_and_allport	89	7.0	0.403	to_hand	poldrack-single-stim	s620	False
0.1	93.549	0.222	93.771	0	PA_without_intermediate	test	ward_and_allport	71	7.0	0.222	to_board	poldrack-single-stim	s620	False
1.0	93.776	7.168	93.775	0	PA_without_intermediate	test	ward_and_allport	-1	7.0	n/a	feedback	poldrack-single-stim	s620	False
2.629	100.948	2.629	103.577	1	PA_without_intermediate	test	ward_and_allport	71	8.0	2.629	to_hand	poldrack-single-stim	s620	False
0.1	103.579	0.334	103.913	0	PA_without_intermediate	test	ward_and_allport	82	8.0	0.334	to_board	poldrack-single-stim	s620	False
0.1	103.916	0.295	104.211	0	PA_without_intermediate	test	ward_and_allport	71	8.0	0.295	to_hand	poldrack-single-stim	s620	False
0.1	104.212	0.323	104.535	0	PA_without_intermediate	test	ward_and_allport	82	8.0	0.323	to_board	poldrack-single-stim	s620	False
0.1	104.54	0.302	104.842	0	PA_without_intermediate	test	ward_and_allport	71	8.0	0.302	to_hand	poldrack-single-stim	s620	False
0.1	104.843	0.231	105.074	0	PA_without_intermediate	test	ward_and_allport	89	8.0	0.231	to_board	poldrack-single-stim	s620	False
1.0	105.078	2.816	105.077	0	PA_without_intermediate	test	ward_and_allport	-1	8.0	n/a	feedback	poldrack-single-stim	s620	False
2.573	107.897	2.573	110.47	1	PA_with_intermediate	test	ward_and_allport	82	9.0	2.573	to_hand	poldrack-single-stim	s620	False
0.1	110.472	0.695	111.167	0	PA_with_intermediate	test	ward_and_allport	71	9.0	0.695	to_board	poldrack-single-stim	s620	False
0.1	111.17	0.466	111.636	0	PA_with_intermediate	test	ward_and_allport	82	9.0	0.466	to_hand	poldrack-single-stim	s620	False
0.1	111.637	0.371	112.008	0	PA_with_intermediate	test	ward_and_allport	89	9.0	0.371	to_board	poldrack-single-stim	s620	False
0.1	112.013	0.281	112.294	0	PA_with_intermediate	test	ward_and_allport	71	9.0	0.281	to_hand	poldrack-single-stim	s620	False
0.1	112.294	0.274	112.568	0	PA_with_intermediate	test	ward_and_allport	89	9.0	0.274	to_board	poldrack-single-stim	s620	False
1.0	112.574	2.952	112.573	0	PA_with_intermediate	test	ward_and_allport	-1	9.0	n/a	feedback	poldrack-single-stim	s620	False
3.425	115.53	3.425	118.955	1	PA_with_intermediate	test	ward_and_allport	89	10.0	3.425	to_hand	poldrack-single-stim	s620	False
0.1	118.956	0.312	119.268	0	PA_with_intermediate	test	ward_and_allport	82	10.0	0.312	to_board	poldrack-single-stim	s620	False
0.1	119.272	0.9	120.172	0	PA_with_intermediate	test	ward_and_allport	89	10.0	0.9	to_hand	poldrack-single-stim	s620	False
0.1	120.175	0.276	120.451	0	PA_with_intermediate	test	ward_and_allport	71	10.0	0.276	to_board	poldrack-single-stim	s620	False
0.1	120.456	0.318	120.774	0	PA_with_intermediate	test	ward_and_allport	82	10.0	0.318	to_hand	poldrack-single-stim	s620	False
0.1	120.775	0.272	121.047	0	PA_with_intermediate	test	ward_and_allport	71	10.0	0.272	to_board	poldrack-single-stim	s620	False
1.0	121.053	2.136	121.052	0	PA_with_intermediate	test	ward_and_allport	-1	10.0	n/a	feedback	poldrack-single-stim	s620	False
2.13	123.194	2.13	125.324	1	PA_without_intermediate	test	ward_and_allport	89	11.0	2.13	to_hand	poldrack-single-stim	s620	False
0.1	125.325	0.512	125.837	0	PA_without_intermediate	test	ward_and_allport	71	11.0	0.512	to_board	poldrack-single-stim	s620	False
0.1	125.843	0.288	126.131	0	PA_without_intermediate	test	ward_and_allport	89	11.0	0.288	to_hand	poldrack-single-stim	s620	False
0.1	126.132	0.427	126.559	0	PA_without_intermediate	test	ward_and_allport	71	11.0	0.427	to_board	poldrack-single-stim	s620	False
0.1	126.565	0.307	126.872	0	PA_without_intermediate	test	ward_and_allport	89	11.0	0.307	to_hand	poldrack-single-stim	s620	False
0.1	126.873	0.255	127.128	0	PA_without_intermediate	test	ward_and_allport	82	11.0	0.255	to_board	poldrack-single-stim	s620	False
1.0	127.134	2.68	127.133	0	PA_without_intermediate	test	ward_and_allport	-1	11.0	n/a	feedback	poldrack-single-stim	s620	False
2.078	129.82	2.078	131.898	1	PA_without_intermediate	test	ward_and_allport	71	12.0	2.078	to_hand	poldrack-single-stim	s620	False
0.1	131.9	0.376	132.276	0	PA_without_intermediate	test	ward_and_allport	82	12.0	0.376	to_board	poldrack-single-stim	s620	False
0.1	132.281	0.581	132.862	0	PA_without_intermediate	test	ward_and_allport	71	12.0	0.581	to_hand	poldrack-single-stim	s620	False
0.1	132.863	0.247	133.11	0	PA_without_intermediate	test	ward_and_allport	89	12.0	0.247	to_board	poldrack-single-stim	s620	False
0.1	133.116	0.265	133.381	0	PA_without_intermediate	test	ward_and_allport	71	12.0	0.265	to_hand	poldrack-single-stim	s620	False
0.1	133.382	0.279	133.661	0	PA_without_intermediate	test	ward_and_allport	82	12.0	0.279	to_board	poldrack-single-stim	s620	False
1.0	133.67	3.088	133.669	0	PA_without_intermediate	test	ward_and_allport	-1	12.0	n/a	feedback	poldrack-single-stim	s620	False
2.209	136.764	2.209	138.973	1	PA_with_intermediate	test	ward_and_allport	71	13.0	2.209	to_hand	poldrack-single-stim	s620	False
0.1	138.975	0.377	139.352	0	PA_with_intermediate	test	ward_and_allport	82	13.0	0.377	to_board	poldrack-single-stim	s620	False
0.1	139.357	0.258	139.615	0	PA_with_intermediate	test	ward_and_allport	71	13.0	0.258	to_hand	poldrack-single-stim	s620	False
0.1	139.617	0.242	139.859	0	PA_with_intermediate	test	ward_and_allport	89	13.0	0.242	to_board	poldrack-single-stim	s620	False
0.1	139.864	0.437	140.301	0	PA_with_intermediate	test	ward_and_allport	82	13.0	0.437	to_hand	poldrack-single-stim	s620	False
0.1	140.304	0.222	140.526	0	PA_with_intermediate	test	ward_and_allport	71	13.0	0.222	to_board	poldrack-single-stim	s620	False
1.0	140.535	2.0	140.534	0	PA_with_intermediate	test	ward_and_allport	-1	13.0	n/a	feedback	poldrack-single-stim	s620	False
1.46	142.538	1.46	143.998	1	PA_without_intermediate	test	ward_and_allport	71	14.0	1.46	to_hand	poldrack-single-stim	s620	False
0.1	143.999	0.621	144.62	0	PA_without_intermediate	test	ward_and_allport	89	14.0	0.621	to_board	poldrack-single-stim	s620	False
0.1	144.625	0.289	144.914	0	PA_without_intermediate	test	ward_and_allport	71	14.0	0.289	to_hand	poldrack-single-stim	s620	False
0.1	144.915	0.274	145.189	0	PA_without_intermediate	test	ward_and_allport	82	14.0	0.274	to_board	poldrack-single-stim	s620	False
0.1	145.194	0.217	145.411	0	PA_without_intermediate	test	ward_and_allport	71	14.0	0.217	to_hand	poldrack-single-stim	s620	False
0.1	145.412	0.249	145.661	0	PA_without_intermediate	test	ward_and_allport	89	14.0	0.249	to_board	poldrack-single-stim	s620	False
1.0	145.666	2.0	145.665	0	PA_without_intermediate	test	ward_and_allport	-1	14.0	n/a	feedback	poldrack-single-stim	s620	False
2.374	152.673	2.374	155.047	1	PA_without_intermediate	test	ward_and_allport	82	15.0	2.374	to_hand	poldrack-single-stim	s620	False
0.1	155.048	0.452	155.5	0	PA_without_intermediate	test	ward_and_allport	71	15.0	0.452	to_board	poldrack-single-stim	s620	False
0.1	155.506	0.391	155.897	0	PA_without_intermediate	test	ward_and_allport	82	15.0	0.391	to_hand	poldrack-single-stim	s620	False
0.1	155.898	0.295	156.193	0	PA_without_intermediate	test	ward_and_allport	71	15.0	0.295	to_board	poldrack-single-stim	s620	False
0.1	156.198	0.558	156.756	0	PA_without_intermediate	test	ward_and_allport	82	15.0	0.558	to_hand	poldrack-single-stim	s620	False
0.1	156.757	0.243	157.0	0	PA_without_intermediate	test	ward_and_allport	89	15.0	0.243	to_board	poldrack-single-stim	s620	False
1.0	157.005	2.0	157.004	0	PA_without_intermediate	test	ward_and_allport	-1	15.0	n/a	feedback	poldrack-single-stim	s620	False
2.139	159.011	2.139	161.15	1	PA_with_intermediate	test	ward_and_allport	71	16.0	2.139	to_hand	poldrack-single-stim	s620	False
0.1	161.151	0.277	161.428	0	PA_with_intermediate	test	ward_and_allport	82	16.0	0.277	to_board	poldrack-single-stim	s620	False
0.1	161.434	0.195	161.629	0	PA_with_intermediate	test	ward_and_allport	71	16.0	0.195	to_hand	poldrack-single-stim	s620	False
0.1	161.63	0.249	161.879	0	PA_with_intermediate	test	ward_and_allport	89	16.0	0.249	to_board	poldrack-single-stim	s620	False
0.1	161.884	0.406	162.29	0	PA_with_intermediate	test	ward_and_allport	82	16.0	0.406	to_hand	poldrack-single-stim	s620	False
0.1	162.292	0.286	162.578	0	PA_with_intermediate	test	ward_and_allport	89	16.0	0.286	to_board	poldrack-single-stim	s620	False
1.0	162.584	2.544	162.583	0	PA_with_intermediate	test	ward_and_allport	-1	16.0	n/a	feedback	poldrack-single-stim	s620	False
2.0	165.133	2.0	167.133	1	PA_without_intermediate	test	ward_and_allport	71	17.0	2.0	to_hand	poldrack-single-stim	s620	False
0.1	167.134	0.286	167.42	0	PA_without_intermediate	test	ward_and_allport	82	17.0	0.286	to_board	poldrack-single-stim	s620	False
0.1	167.426	0.217	167.643	0	PA_without_intermediate	test	ward_and_allport	71	17.0	0.217	to_hand	poldrack-single-stim	s620	False
0.1	167.644	0.263	167.907	0	PA_without_intermediate	test	ward_and_allport	82	17.0	0.263	to_board	poldrack-single-stim	s620	False
0.1	167.915	0.862	168.777	0	PA_without_intermediate	test	ward_and_allport	71	17.0	0.862	to_hand	poldrack-single-stim	s620	False
0.1	168.778	0.277	169.055	0	PA_without_intermediate	test	ward_and_allport	89	17.0	0.277	to_board	poldrack-single-stim	s620	False
1.0	169.061	2.272	169.06	0	PA_without_intermediate	test	ward_and_allport	-1	17.0	n/a	feedback	poldrack-single-stim	s620	False
2.633	171.339	2.633	173.972	1	PA_with_intermediate	test	ward_and_allport	71	18.0	2.633	to_hand	poldrack-single-stim	s620	False
0.1	173.974	0.242	174.216	0	PA_with_intermediate	test	ward_and_allport	89	18.0	0.242	to_board	poldrack-single-stim	s620	False
0.1	174.222	0.255	174.477	0	PA_with_intermediate	test	ward_and_allport	71	18.0	0.255	to_hand	poldrack-single-stim	s620	False
0.1	174.478	0.336	174.814	0	PA_with_intermediate	test	ward_and_allport	82	18.0	0.336	to_board	poldrack-single-stim	s620	False
0.1	174.82	1.271	176.091	0	PA_with_intermediate	test	ward_and_allport	89	18.0	1.271	to_hand	poldrack-single-stim	s620	False
0.1	176.092	0.237	176.329	0	PA_with_intermediate	test	ward_and_allport	71	18.0	0.237	to_board	poldrack-single-stim	s620	False
1.0	176.336	4.04	176.335	0	PA_with_intermediate	test	ward_and_allport	-1	18.0	n/a	feedback	poldrack-single-stim	s620	False
2.499	180.381	2.499	182.88	1	PA_with_intermediate	test	ward_and_allport	89	19.0	2.499	to_hand	poldrack-single-stim	s620	False
0.1	182.882	0.267	183.149	0	PA_with_intermediate	test	ward_and_allport	82	19.0	0.267	to_board	poldrack-single-stim	s620	False
0.1	183.156	0.479	183.635	0	PA_with_intermediate	test	ward_and_allport	89	19.0	0.479	to_hand	poldrack-single-stim	s620	False
0.1	183.636	0.283	183.919	0	PA_with_intermediate	test	ward_and_allport	71	19.0	0.283	to_board	poldrack-single-stim	s620	False
0.1	183.925	0.376	184.301	0	PA_with_intermediate	test	ward_and_allport	82	19.0	0.376	to_hand	poldrack-single-stim	s620	False
0.1	184.302	0.273	184.575	0	PA_with_intermediate	test	ward_and_allport	89	19.0	0.273	to_board	poldrack-single-stim	s620	False
1.0	184.58	2.272	184.579	0	PA_with_intermediate	test	ward_and_allport	-1	19.0	n/a	feedback	poldrack-single-stim	s620	False
2.583	186.859	2.583	189.442	1	PA_with_intermediate	test	ward_and_allport	82	20.0	2.583	to_hand	poldrack-single-stim	s620	False
0.1	189.443	0.327	189.77	0	PA_with_intermediate	test	ward_and_allport	89	20.0	0.327	to_board	poldrack-single-stim	s620	False
0.1	189.776	0.551	190.327	0	PA_with_intermediate	test	ward_and_allport	82	20.0	0.551	to_hand	poldrack-single-stim	s620	False
0.1	190.329	0.616	190.945	0	PA_with_intermediate	test	ward_and_allport	71	20.0	0.616	to_board	poldrack-single-stim	s620	False
0.1	190.951	0.327	191.278	0	PA_with_intermediate	test	ward_and_allport	89	20.0	0.327	to_hand	poldrack-single-stim	s620	False
0.1	191.279	0.316	191.595	0	PA_with_intermediate	test	ward_and_allport	82	20.0	0.316	to_board	poldrack-single-stim	s620	False
1.0	191.601	2.136	191.6	0	PA_with_intermediate	test	ward_and_allport	-1	20.0	n/a	feedback	poldrack-single-stim	s620	False
2.57	193.743	2.57	196.313	1	PA_with_intermediate	test	ward_and_allport	89	21.0	2.57	to_hand	poldrack-single-stim	s620	False
0.1	196.314	0.511	196.825	0	PA_with_intermediate	test	ward_and_allport	82	21.0	0.511	to_board	poldrack-single-stim	s620	False
0.1	196.832	0.619	197.451	0	PA_with_intermediate	test	ward_and_allport	89	21.0	0.619	to_hand	poldrack-single-stim	s620	False
0.1	197.452	0.353	197.805	0	PA_with_intermediate	test	ward_and_allport	71	21.0	0.353	to_board	poldrack-single-stim	s620	False
0.1	197.811	0.275	198.086	0	PA_with_intermediate	test	ward_and_allport	82	21.0	0.275	to_hand	poldrack-single-stim	s620	False
0.1	198.086	0.317	198.403	0	PA_with_intermediate	test	ward_and_allport	89	21.0	0.317	to_board	poldrack-single-stim	s620	False
0.1	198.41	1.069	199.479	0	PA_with_intermediate	test	ward_and_allport	89	21.0	1.069	to_hand	poldrack-single-stim	s620	False
0.1	199.48	0.27	199.75	0	PA_with_intermediate	test	ward_and_allport	71	21.0	0.27	to_board	poldrack-single-stim	s620	False
1.0	199.758	2.0	199.757	0	PA_with_intermediate	test	ward_and_allport	-1	21.0	n/a	feedback	poldrack-single-stim	s620	False
2.603	201.765	2.603	204.368	1	PA_with_intermediate	test	ward_and_allport	71	22.0	2.603	to_hand	poldrack-single-stim	s620	False
0.1	204.369	0.325	204.694	0	PA_with_intermediate	test	ward_and_allport	82	22.0	0.325	to_board	poldrack-single-stim	s620	False
0.1	204.702	0.508	205.21	0	PA_with_intermediate	test	ward_and_allport	71	22.0	0.508	to_hand	poldrack-single-stim	s620	False
0.1	205.211	0.302	205.513	0	PA_with_intermediate	test	ward_and_allport	89	22.0	0.302	to_board	poldrack-single-stim	s620	False
0.1	205.521	0.786	206.307	0	PA_with_intermediate	test	ward_and_allport	82	22.0	0.786	to_hand	poldrack-single-stim	s620	False
0.1	206.309	0.315	206.624	0	PA_with_intermediate	test	ward_and_allport	71	22.0	0.315	to_board	poldrack-single-stim	s620	False
1.0	206.633	2.0	206.632	0	PA_with_intermediate	test	ward_and_allport	-1	22.0	n/a	feedback	poldrack-single-stim	s620	False
1.788	208.641	1.788	210.429	1	PA_without_intermediate	test	ward_and_allport	82	23.0	1.788	to_hand	poldrack-single-stim	s620	False
0.1	210.43	0.392	210.822	0	PA_without_intermediate	test	ward_and_allport	71	23.0	0.392	to_board	poldrack-single-stim	s620	False
0.1	210.829	0.399	211.228	0	PA_without_intermediate	test	ward_and_allport	82	23.0	0.399	to_hand	poldrack-single-stim	s620	False
0.1	211.229	0.459	211.688	0	PA_without_intermediate	test	ward_and_allport	71	23.0	0.459	to_board	poldrack-single-stim	s620	False
0.1	211.696	0.379	212.075	0	PA_without_intermediate	test	ward_and_allport	82	23.0	0.379	to_hand	poldrack-single-stim	s620	False
0.1	212.077	0.271	212.348	0	PA_without_intermediate	test	ward_and_allport	89	23.0	0.271	to_board	poldrack-single-stim	s620	False
1.0	212.358	2.408	212.357	0	PA_without_intermediate	test	ward_and_allport	-1	23.0	n/a	feedback	poldrack-single-stim	s620	False
2.793	214.774	2.793	217.567	1	PA_with_intermediate	test	ward_and_allport	71	24.0	2.793	to_hand	poldrack-single-stim	s620	False
0.1	217.568	1.194	218.762	0	PA_with_intermediate	test	ward_and_allport	82	24.0	1.194	to_board	poldrack-single-stim	s620	False
0.1	218.77	0.29	219.06	0	PA_with_intermediate	test	ward_and_allport	71	24.0	0.29	to_hand	poldrack-single-stim	s620	False
0.1	219.061	0.511	219.572	0	PA_with_intermediate	test	ward_and_allport	89	24.0	0.511	to_board	poldrack-single-stim	s620	False
0.1	219.579	0.31	219.889	0	PA_with_intermediate	test	ward_and_allport	82	24.0	0.31	to_hand	poldrack-single-stim	s620	False
0.1	219.891	0.345	220.236	0	PA_with_intermediate	test	ward_and_allport	89	24.0	0.345	to_board	poldrack-single-stim	s620	False
1.0	220.246	3.768	220.245	0	PA_with_intermediate	test	ward_and_allport	-1	24.0	n/a	feedback	poldrack-single-stim	s620	False
3.369	224.023	3.369	227.392	1	PA_with_intermediate	test	ward_and_allport	89	25.0	3.369	to_hand	poldrack-single-stim	s620	False
0.1	227.394	0.415	227.809	0	PA_with_intermediate	test	ward_and_allport	82	25.0	0.415	to_board	poldrack-single-stim	s620	False
0.1	227.817	0.376	228.193	0	PA_with_intermediate	test	ward_and_allport	89	25.0	0.376	to_hand	poldrack-single-stim	s620	False
0.1	228.194	0.364	228.558	0	PA_with_intermediate	test	ward_and_allport	71	25.0	0.364	to_board	poldrack-single-stim	s620	False
0.1	228.567	0.303	228.87	0	PA_with_intermediate	test	ward_and_allport	82	25.0	0.303	to_hand	poldrack-single-stim	s620	False
0.1	228.871	0.292	229.163	0	PA_with_intermediate	test	ward_and_allport	89	25.0	0.292	to_board	poldrack-single-stim	s620	False
1.0	229.175	2.68	229.174	0	PA_with_intermediate	test	ward_and_allport	-1	25.0	n/a	feedback	poldrack-single-stim	s620	False
1.996	231.863	1.996	233.859	1	PA_without_intermediate	test	ward_and_allport	89	26.0	1.996	to_hand	poldrack-single-stim	s620	False
0.1	233.86	0.468	234.328	0	PA_without_intermediate	test	ward_and_allport	82	26.0	0.468	to_board	poldrack-single-stim	s620	False
0.1	234.336	0.284	234.62	0	PA_without_intermediate	test	ward_and_allport	89	26.0	0.284	to_hand	poldrack-single-stim	s620	False
0.1	234.621	0.279	234.9	0	PA_without_intermediate	test	ward_and_allport	71	26.0	0.279	to_board	poldrack-single-stim	s620	False
0.1	234.908	0.317	235.225	0	PA_without_intermediate	test	ward_and_allport	89	26.0	0.317	to_hand	poldrack-single-stim	s620	False
0.1	235.226	0.279	235.505	0	PA_without_intermediate	test	ward_and_allport	82	26.0	0.279	to_board	poldrack-single-stim	s620	False
1.0	235.516	3.224	235.515	0	PA_without_intermediate	test	ward_and_allport	-1	26.0	n/a	feedback	poldrack-single-stim	s620	False
3.053	238.749	3.053	241.802	1	PA_without_intermediate	test	ward_and_allport	89	27.0	3.053	to_hand	poldrack-single-stim	s620	False
0.1	241.803	0.324	242.127	0	PA_without_intermediate	test	ward_and_allport	71	27.0	0.324	to_board	poldrack-single-stim	s620	False
0.1	242.136	0.308	242.444	0	PA_without_intermediate	test	ward_and_allport	89	27.0	0.308	to_hand	poldrack-single-stim	s620	False
0.1	242.446	0.325	242.771	0	PA_without_intermediate	test	ward_and_allport	82	27.0	0.325	to_board	poldrack-single-stim	s620	False
0.1	242.78	0.279	243.059	0	PA_without_intermediate	test	ward_and_allport	89	27.0	0.279	to_hand	poldrack-single-stim	s620	False
0.1	243.061	0.288	243.349	0	PA_without_intermediate	test	ward_and_allport	71	27.0	0.288	to_board	poldrack-single-stim	s620	False
1.0	243.359	3.36	243.358	0	PA_without_intermediate	test	ward_and_allport	-1	27.0	n/a	feedback	poldrack-single-stim	s620	False
1.921	246.726	1.921	248.647	1	PA_without_intermediate	test	ward_and_allport	82	28.0	1.921	to_hand	poldrack-single-stim	s620	False
0.1	248.648	0.301	248.949	0	PA_without_intermediate	test	ward_and_allport	89	28.0	0.301	to_board	poldrack-single-stim	s620	False
0.1	248.958	0.342	249.3	0	PA_without_intermediate	test	ward_and_allport	82	28.0	0.342	to_hand	poldrack-single-stim	s620	False
0.1	249.302	0.28	249.582	0	PA_without_intermediate	test	ward_and_allport	89	28.0	0.28	to_board	poldrack-single-stim	s620	False
0.1	249.592	0.327	249.919	0	PA_without_intermediate	test	ward_and_allport	82	28.0	0.327	to_hand	poldrack-single-stim	s620	False
0.1	249.92	0.389	250.309	0	PA_without_intermediate	test	ward_and_allport	71	28.0	0.389	to_board	poldrack-single-stim	s620	False
1.0	250.319	2.0	250.318	0	PA_without_intermediate	test	ward_and_allport	-1	28.0	n/a	feedback	poldrack-single-stim	s620	False
1.418	252.328	1.418	253.746	1	PA_without_intermediate	test	ward_and_allport	89	29.0	1.418	to_hand	poldrack-single-stim	s620	False
0.1	253.746	0.282	254.028	0	PA_without_intermediate	test	ward_and_allport	82	29.0	0.282	to_board	poldrack-single-stim	s620	False
0.1	254.037	0.315	254.352	0	PA_without_intermediate	test	ward_and_allport	89	29.0	0.315	to_hand	poldrack-single-stim	s620	False
0.1	254.352	0.349	254.701	0	PA_without_intermediate	test	ward_and_allport	82	29.0	0.349	to_board	poldrack-single-stim	s620	False
0.1	254.708	0.263	254.971	0	PA_without_intermediate	test	ward_and_allport	89	29.0	0.263	to_hand	poldrack-single-stim	s620	False
0.1	254.973	0.267	255.24	0	PA_without_intermediate	test	ward_and_allport	71	29.0	0.267	to_board	poldrack-single-stim	s620	False
1.0	255.247	2.408	255.246	0	PA_without_intermediate	test	ward_and_allport	-1	29.0	n/a	feedback	poldrack-single-stim	s620	False
2.405	262.663	2.405	265.068	1	PA_with_intermediate	test	ward_and_allport	82	30.0	2.405	to_hand	poldrack-single-stim	s620	False
0.1	265.069	0.488	265.557	0	PA_with_intermediate	test	ward_and_allport	71	30.0	0.488	to_board	poldrack-single-stim	s620	False
0.1	265.565	0.348	265.913	0	PA_with_intermediate	test	ward_and_allport	82	30.0	0.348	to_hand	poldrack-single-stim	s620	False
0.1	265.914	0.309	266.223	0	PA_with_intermediate	test	ward_and_allport	89	30.0	0.309	to_board	poldrack-single-stim	s620	False
0.1	266.232	0.393	266.625	0	PA_with_intermediate	test	ward_and_allport	71	30.0	0.393	to_hand	poldrack-single-stim	s620	False
0.1	266.626	0.213	266.839	0	PA_with_intermediate	test	ward_and_allport	89	30.0	0.213	to_board	poldrack-single-stim	s620	False
1.0	266.852	2.136	266.851	0	PA_with_intermediate	test	ward_and_allport	-1	30.0	n/a	feedback	poldrack-single-stim	s620	False
1.749	268.996	1.749	270.745	1	PA_without_intermediate	test	ward_and_allport	82	31.0	1.749	to_hand	poldrack-single-stim	s620	False
0.1	270.746	0.296	271.042	0	PA_without_intermediate	test	ward_and_allport	89	31.0	0.296	to_board	poldrack-single-stim	s620	False
0.1	271.052	0.332	271.384	0	PA_without_intermediate	test	ward_and_allport	82	31.0	0.332	to_hand	poldrack-single-stim	s620	False
0.1	271.385	0.294	271.679	0	PA_without_intermediate	test	ward_and_allport	89	31.0	0.294	to_board	poldrack-single-stim	s620	False
0.1	271.689	0.354	272.043	0	PA_without_intermediate	test	ward_and_allport	82	31.0	0.354	to_hand	poldrack-single-stim	s620	False
0.1	272.044	0.293	272.337	0	PA_without_intermediate	test	ward_and_allport	71	31.0	0.293	to_board	poldrack-single-stim	s620	False
1.0	272.346	5.128	272.345	0	PA_without_intermediate	test	ward_and_allport	-1	31.0	n/a	feedback	poldrack-single-stim	s620	False
2.039	277.481	2.039	279.52	1	PA_without_intermediate	test	ward_and_allport	82	32.0	2.039	to_hand	poldrack-single-stim	s620	False
0.1	279.522	0.65	280.172	0	PA_without_intermediate	test	ward_and_allport	71	32.0	0.65	to_board	poldrack-single-stim	s620	False
0.1	280.182	0.293	280.475	0	PA_without_intermediate	test	ward_and_allport	82	32.0	0.293	to_hand	poldrack-single-stim	s620	False
0.1	280.476	0.28	280.756	0	PA_without_intermediate	test	ward_and_allport	89	32.0	0.28	to_board	poldrack-single-stim	s620	False
0.1	280.767	0.292	281.059	0	PA_without_intermediate	test	ward_and_allport	82	32.0	0.292	to_hand	poldrack-single-stim	s620	False
0.1	281.06	0.312	281.372	0	PA_without_intermediate	test	ward_and_allport	71	32.0	0.312	to_board	poldrack-single-stim	s620	False
1.0	281.384	2.136	281.383	0	PA_without_intermediate	test	ward_and_allport	-1	32.0	n/a	feedback	poldrack-single-stim	s620	False
3.004	283.53	3.004	286.534	1	PA_without_intermediate	test	ward_and_allport	82	33.0	3.004	to_hand	poldrack-single-stim	s620	False
0.1	286.536	0.298	286.834	0	PA_without_intermediate	test	ward_and_allport	89	33.0	0.298	to_board	poldrack-single-stim	s620	False
0.1	286.841	0.406	287.247	0	PA_without_intermediate	test	ward_and_allport	82	33.0	0.406	to_hand	poldrack-single-stim	s620	False
0.1	287.248	0.588	287.836	0	PA_without_intermediate	test	ward_and_allport	71	33.0	0.588	to_board	poldrack-single-stim	s620	False
0.1	287.844	0.413	288.257	0	PA_without_intermediate	test	ward_and_allport	82	33.0	0.413	to_hand	poldrack-single-stim	s620	False
0.1	288.258	0.285	288.543	0	PA_without_intermediate	test	ward_and_allport	89	33.0	0.285	to_board	poldrack-single-stim	s620	False
1.0	288.555	5.264	288.554	0	PA_without_intermediate	test	ward_and_allport	-1	33.0	n/a	feedback	poldrack-single-stim	s620	False
2.392	293.827	2.392	296.219	1	PA_with_intermediate	test	ward_and_allport	89	34.0	2.392	to_hand	poldrack-single-stim	s620	False
0.1	296.22	0.25	296.47	0	PA_with_intermediate	test	ward_and_allport	71	34.0	0.25	to_board	poldrack-single-stim	s620	False
0.1	296.479	0.422	296.901	0	PA_with_intermediate	test	ward_and_allport	89	34.0	0.422	to_hand	poldrack-single-stim	s620	False
0.1	296.902	0.347	297.249	0	PA_with_intermediate	test	ward_and_allport	82	34.0	0.347	to_board	poldrack-single-stim	s620	False
0.1	297.26	0.716	297.976	0	PA_with_intermediate	test	ward_and_allport	71	34.0	0.716	to_hand	poldrack-single-stim	s620	False
0.1	297.977	0.195	298.172	0	PA_with_intermediate	test	ward_and_allport	89	34.0	0.195	to_board	poldrack-single-stim	s620	False
1.0	298.184	4.04	298.183	0	PA_with_intermediate	test	ward_and_allport	-1	34.0	n/a	feedback	poldrack-single-stim	s620	False
2.176	302.236	2.176	304.412	1	PA_with_intermediate	test	ward_and_allport	89	35.0	2.176	to_hand	poldrack-single-stim	s620	False
0.1	304.414	0.278	304.692	0	PA_with_intermediate	test	ward_and_allport	71	35.0	0.278	to_board	poldrack-single-stim	s620	False
0.1	304.7	0.314	305.014	0	PA_with_intermediate	test	ward_and_allport	89	35.0	0.314	to_hand	poldrack-single-stim	s620	False
0.1	305.015	0.339	305.354	0	PA_with_intermediate	test	ward_and_allport	82	35.0	0.339	to_board	poldrack-single-stim	s620	False
0.1	305.364	0.411	305.775	0	PA_with_intermediate	test	ward_and_allport	71	35.0	0.411	to_hand	poldrack-single-stim	s620	False
0.1	305.777	0.282	306.059	0	PA_with_intermediate	test	ward_and_allport	89	35.0	0.282	to_board	poldrack-single-stim	s620	False
1.0	306.073	2.136	306.072	0	PA_with_intermediate	test	ward_and_allport	-1	35.0	n/a	feedback	poldrack-single-stim	s620	False
2.287	308.219	2.287	310.506	1	PA_with_intermediate	test	ward_and_allport	82	36.0	2.287	to_hand	poldrack-single-stim	s620	False
0.1	310.507	1.197	311.704	0	PA_with_intermediate	test	ward_and_allport	89	36.0	1.197	to_board	poldrack-single-stim	s620	False
0.1	311.712	0.485	312.197	0	PA_with_intermediate	test	ward_and_allport	82	36.0	0.485	to_hand	poldrack-single-stim	s620	False
0.1	312.198	0.401	312.599	0	PA_with_intermediate	test	ward_and_allport	71	36.0	0.401	to_board	poldrack-single-stim	s620	False
0.1	312.608	0.323	312.931	0	PA_with_intermediate	test	ward_and_allport	89	36.0	0.323	to_hand	poldrack-single-stim	s620	False
0.1	312.932	0.296	313.228	0	PA_with_intermediate	test	ward_and_allport	82	36.0	0.296	to_board	poldrack-single-stim	s620	False
1.0	313.241	2.408	313.24	0	PA_with_intermediate	test	ward_and_allport	-1	36.0	n/a	feedback	poldrack-single-stim	s620	False
2.736	315.66	2.736	318.396	1	PA_without_intermediate	test	ward_and_allport	71	37.0	2.736	to_hand	poldrack-single-stim	s620	False
0.1	318.398	0.427	318.825	0	PA_without_intermediate	test	ward_and_allport	89	37.0	0.427	to_board	poldrack-single-stim	s620	False
0.1	318.834	0.32	319.154	0	PA_without_intermediate	test	ward_and_allport	71	37.0	0.32	to_hand	poldrack-single-stim	s620	False
0.1	319.156	0.322	319.478	0	PA_without_intermediate	test	ward_and_allport	89	37.0	0.322	to_board	poldrack-single-stim	s620	False
0.1	319.489	0.333	319.822	0	PA_without_intermediate	test	ward_and_allport	71	37.0	0.333	to_hand	poldrack-single-stim	s620	False
0.1	319.822	0.291	320.113	0	PA_without_intermediate	test	ward_and_allport	82	37.0	0.291	to_board	poldrack-single-stim	s620	False
1.0	320.126	2.68	320.125	0	PA_without_intermediate	test	ward_and_allport	-1	37.0	n/a	feedback	poldrack-single-stim	s620	False
3.307	322.813	3.307	326.12	1	PA_with_intermediate	test	ward_and_allport	82	38.0	3.307	to_hand	poldrack-single-stim	s620	False
0.1	326.122	0.347	326.469	0	PA_with_intermediate	test	ward_and_allport	89	38.0	0.347	to_board	poldrack-single-stim	s620	False
0.1	326.48	0.563	327.043	0	PA_with_intermediate	test	ward_and_allport	82	38.0	0.563	to_hand	poldrack-single-stim	s620	False
0.1	327.045	0.341	327.386	0	PA_with_intermediate	test	ward_and_allport	71	38.0	0.341	to_board	poldrack-single-stim	s620	False
0.1	327.397	0.257	327.654	0	PA_with_intermediate	test	ward_and_allport	89	38.0	0.257	to_hand	poldrack-single-stim	s620	False
0.1	327.654	0.269	327.923	0	PA_with_intermediate	test	ward_and_allport	71	38.0	0.269	to_board	poldrack-single-stim	s620	False
1.0	327.937	4.72	327.936	0	PA_with_intermediate	test	ward_and_allport	-1	38.0	n/a	feedback	poldrack-single-stim	s620	False
2.302	332.669	2.302	334.971	1	PA_without_intermediate	test	ward_and_allport	89	39.0	2.302	to_hand	poldrack-single-stim	s620	False
0.1	334.972	0.467	335.439	0	PA_without_intermediate	test	ward_and_allport	71	39.0	0.467	to_board	poldrack-single-stim	s620	False
0.1	335.451	0.305	335.756	0	PA_without_intermediate	test	ward_and_allport	89	39.0	0.305	to_hand	poldrack-single-stim	s620	False
0.1	335.757	0.33	336.087	0	PA_without_intermediate	test	ward_and_allport	71	39.0	0.33	to_board	poldrack-single-stim	s620	False
0.1	336.1	0.261	336.361	0	PA_without_intermediate	test	ward_and_allport	89	39.0	0.261	to_hand	poldrack-single-stim	s620	False
0.1	336.362	0.275	336.637	0	PA_without_intermediate	test	ward_and_allport	82	39.0	0.275	to_board	poldrack-single-stim	s620	False
1.0	336.653	3.224	336.652	0	PA_without_intermediate	test	ward_and_allport	-1	39.0	n/a	feedback	poldrack-single-stim	s620	False
2.984	339.886	2.984	342.87	1	PA_without_intermediate	test	ward_and_allport	71	40.0	2.984	to_hand	poldrack-single-stim	s620	False
0.1	342.871	0.4	343.271	0	PA_without_intermediate	test	ward_and_allport	89	40.0	0.4	to_board	poldrack-single-stim	s620	False
0.1	343.28	0.274	343.554	0	PA_without_intermediate	test	ward_and_allport	71	40.0	0.274	to_hand	poldrack-single-stim	s620	False
0.1	343.555	0.288	343.843	0	PA_without_intermediate	test	ward_and_allport	82	40.0	0.288	to_board	poldrack-single-stim	s620	False
0.1	343.855	0.254	344.109	0	PA_without_intermediate	test	ward_and_allport	71	40.0	0.254	to_hand	poldrack-single-stim	s620	False
0.1	344.111	0.26	344.371	0	PA_without_intermediate	test	ward_and_allport	89	40.0	0.26	to_board	poldrack-single-stim	s620	False
1.0	344.382	2.272	344.381	0	PA_without_intermediate	test	ward_and_allport	-1	40.0	n/a	feedback	poldrack-single-stim	s620	False
2.062	346.664	2.062	348.726	1	PA_with_intermediate	test	ward_and_allport	89	41.0	2.062	to_hand	poldrack-single-stim	s620	False
0.1	348.728	0.342	349.07	0	PA_with_intermediate	test	ward_and_allport	71	41.0	0.342	to_board	poldrack-single-stim	s620	False
0.1	349.079	0.309	349.388	0	PA_with_intermediate	test	ward_and_allport	89	41.0	0.309	to_hand	poldrack-single-stim	s620	False
0.1	349.39	0.329	349.719	0	PA_with_intermediate	test	ward_and_allport	82	41.0	0.329	to_board	poldrack-single-stim	s620	False
0.1	349.73	0.513	350.243	0	PA_with_intermediate	test	ward_and_allport	71	41.0	0.513	to_hand	poldrack-single-stim	s620	False
0.1	350.245	0.252	350.497	0	PA_with_intermediate	test	ward_and_allport	82	41.0	0.252	to_board	poldrack-single-stim	s620	False
1.0	350.509	3.632	350.508	0	PA_with_intermediate	test	ward_and_allport	-1	41.0	n/a	feedback	poldrack-single-stim	s620	False
1.252	354.152	1.252	355.404	1	PA_without_intermediate	test	ward_and_allport	71	42.0	1.252	to_hand	poldrack-single-stim	s620	False
0.1	355.405	0.561	355.966	0	PA_without_intermediate	test	ward_and_allport	89	42.0	0.561	to_board	poldrack-single-stim	s620	False
0.1	355.974	0.247	356.221	0	PA_without_intermediate	test	ward_and_allport	71	42.0	0.247	to_hand	poldrack-single-stim	s620	False
0.1	356.222	0.268	356.49	0	PA_without_intermediate	test	ward_and_allport	89	42.0	0.268	to_board	poldrack-single-stim	s620	False
0.1	356.5	0.283	356.783	0	PA_without_intermediate	test	ward_and_allport	71	42.0	0.283	to_hand	poldrack-single-stim	s620	False
0.1	356.784	0.244	357.028	0	PA_without_intermediate	test	ward_and_allport	82	42.0	0.244	to_board	poldrack-single-stim	s620	False
1.0	357.039	2.408	357.038	0	PA_without_intermediate	test	ward_and_allport	-1	42.0	n/a	feedback	poldrack-single-stim	s620	False
1.959	359.456	1.959	361.415	1	PA_without_intermediate	test	ward_and_allport	89	43.0	1.959	to_hand	poldrack-single-stim	s620	False
0.1	361.416	0.307	361.723	0	PA_without_intermediate	test	ward_and_allport	82	43.0	0.307	to_board	poldrack-single-stim	s620	False
0.1	361.732	0.287	362.019	0	PA_without_intermediate	test	ward_and_allport	89	43.0	0.287	to_hand	poldrack-single-stim	s620	False
0.1	362.019	0.325	362.344	0	PA_without_intermediate	test	ward_and_allport	82	43.0	0.325	to_board	poldrack-single-stim	s620	False
0.1	362.352	0.374	362.726	0	PA_without_intermediate	test	ward_and_allport	89	43.0	0.374	to_hand	poldrack-single-stim	s620	False
0.1	362.727	0.273	363.0	0	PA_without_intermediate	test	ward_and_allport	71	43.0	0.273	to_board	poldrack-single-stim	s620	False
1.0	363.008	2.0	363.007	0	PA_without_intermediate	test	ward_and_allport	-1	43.0	n/a	feedback	poldrack-single-stim	s620	False
2.412	365.016	2.412	367.428	1	PA_with_intermediate	test	ward_and_allport	71	44.0	2.412	to_hand	poldrack-single-stim	s620	False
0.1	367.43	0.252	367.682	0	PA_with_intermediate	test	ward_and_allport	89	44.0	0.252	to_board	poldrack-single-stim	s620	False
0.1	367.692	0.399	368.091	0	PA_with_intermediate	test	ward_and_allport	71	44.0	0.399	to_hand	poldrack-single-stim	s620	False
0.1	368.093	0.281	368.374	0	PA_with_intermediate	test	ward_and_allport	82	44.0	0.281	to_board	poldrack-single-stim	s620	False
0.1	368.385	0.348	368.733	0	PA_with_intermediate	test	ward_and_allport	89	44.0	0.348	to_hand	poldrack-single-stim	s620	False
0.1	368.735	0.265	369.0	0	PA_with_intermediate	test	ward_and_allport	82	44.0	0.265	to_board	poldrack-single-stim	s620	False
1.0	369.012	2.0	369.011	0	PA_with_intermediate	test	ward_and_allport	-1	44.0	n/a	feedback	poldrack-single-stim	s620	False
1.948	376.021	1.948	377.969	1	PA_with_intermediate	test	ward_and_allport	82	45.0	1.948	to_hand	poldrack-single-stim	s620	False
0.1	377.97	0.403	378.373	0	PA_with_intermediate	test	ward_and_allport	89	45.0	0.403	to_board	poldrack-single-stim	s620	False
0.1	378.385	0.426	378.811	0	PA_with_intermediate	test	ward_and_allport	82	45.0	0.426	to_hand	poldrack-single-stim	s620	False
0.1	378.812	0.366	379.178	0	PA_with_intermediate	test	ward_and_allport	71	45.0	0.366	to_board	poldrack-single-stim	s620	False
0.1	379.193	0.282	379.475	0	PA_with_intermediate	test	ward_and_allport	89	45.0	0.282	to_hand	poldrack-single-stim	s620	False
0.1	379.476	0.25	379.726	0	PA_with_intermediate	test	ward_and_allport	71	45.0	0.25	to_board	poldrack-single-stim	s620	False
1.0	379.739	2.0	379.738	0	PA_with_intermediate	test	ward_and_allport	-1	45.0	n/a	feedback	poldrack-single-stim	s620	False
2.474	381.751	2.474	384.225	1	PA_with_intermediate	test	ward_and_allport	71	46.0	2.474	to_hand	poldrack-single-stim	s620	False
0.1	384.226	0.266	384.492	0	PA_with_intermediate	test	ward_and_allport	89	46.0	0.266	to_board	poldrack-single-stim	s620	False
0.1	384.501	0.253	384.754	0	PA_with_intermediate	test	ward_and_allport	71	46.0	0.253	to_hand	poldrack-single-stim	s620	False
0.1	384.756	0.27	385.026	0	PA_with_intermediate	test	ward_and_allport	82	46.0	0.27	to_board	poldrack-single-stim	s620	False
0.1	385.036	0.322	385.358	0	PA_with_intermediate	test	ward_and_allport	89	46.0	0.322	to_hand	poldrack-single-stim	s620	False
0.1	385.36	0.215	385.575	0	PA_with_intermediate	test	ward_and_allport	71	46.0	0.215	to_board	poldrack-single-stim	s620	False
1.0	385.584	2.408	385.583	0	PA_with_intermediate	test	ward_and_allport	-1	46.0	n/a	feedback	poldrack-single-stim	s620	False
1.62	388.003	1.62	389.623	1	PA_without_intermediate	test	ward_and_allport	89	47.0	1.62	to_hand	poldrack-single-stim	s620	False
0.1	389.627	0.483	390.11	0	PA_without_intermediate	test	ward_and_allport	82	47.0	0.483	to_board	poldrack-single-stim	s620	False
0.1	390.119	0.492	390.611	0	PA_without_intermediate	test	ward_and_allport	89	47.0	0.492	to_hand	poldrack-single-stim	s620	False
0.1	390.613	0.428	391.041	0	PA_without_intermediate	test	ward_and_allport	71	47.0	0.428	to_board	poldrack-single-stim	s620	False
0.1	391.049	0.305	391.354	0	PA_without_intermediate	test	ward_and_allport	89	47.0	0.305	to_hand	poldrack-single-stim	s620	False
0.1	391.355	0.299	391.654	0	PA_without_intermediate	test	ward_and_allport	82	47.0	0.299	to_board	poldrack-single-stim	s620	False
1.0	391.668	2.816	391.667	0	PA_without_intermediate	test	ward_and_allport	-1	47.0	n/a	feedback	poldrack-single-stim	s620	False
