onset	duration	SS_delay	block_duration	correct	correct_response	experiment_exp_id	key_press	passed_check	response_time	stopped	trial_id	trial_type	worker_id	junk
3.009	0.85	0.3	2.386	1.0	89.0	stop_signal	89.0	True	0.542	False	stim	go	s620	False
5.397	0.85	0.3	2.522	1.0	71.0	stop_signal	71.0	True	0.578	False	stim	go	s620	False
7.921	0.85	0.3	2.93	1.0	71.0	stop_signal	71.0	True	0.621	False	stim	stop_failure	s620	False
10.853	0.85	0.25	2.522	1.0	71.0	stop_signal	71.0	True	0.571	False	stim	go	s620	False
13.376	0.85	0.25	2.522	1.0	71.0	stop_signal	71.0	True	0.547	False	stim	go	s620	False
15.903	0.85	0.25	2.25	1.0	89.0	stop_signal	89.0	True	0.446	False	stim	go	s620	False
18.154	0.85	0.25	2.522	1.0	89.0	stop_signal	89.0	True	0.427	False	stim	stop_failure	s620	False
20.679	0.85	0.2	2.386	1.0	89.0	stop_signal	89.0	True	0.468	False	stim	go	s620	False
23.066	0.85	0.2	2.25	0.0	89.0	stop_signal	71.0	True	0.411	False	stim	go	s620	False
25.319	0.85	0.2	2.386	1.0	71.0	stop_signal	71.0	True	0.631	False	stim	go	s620	False
27.706	0.85	0.2	2.25	1.0	89.0	stop_signal	89.0	True	0.54	False	stim	go	s620	False
29.959	0.85	0.2	2.386	1.0	71.0	stop_signal	-1.0	True	n/a	True	stim	stop_success	s620	False
32.347	0.85	0.25	2.522	1.0	71.0	stop_signal	71.0	True	0.555	False	stim	go	s620	False
34.873	0.85	0.25	2.25	1.0	71.0	stop_signal	71.0	True	0.436	False	stim	stop_failure	s620	False
37.128	0.85	0.2	2.386	1.0	71.0	stop_signal	-1.0	True	n/a	True	stim	stop_success	s620	False
39.516	0.85	0.25	2.658	1.0	89.0	stop_signal	89.0	True	0.495	False	stim	go	s620	False
42.176	0.85	0.25	2.25	1.0	89.0	stop_signal	-1.0	True	n/a	True	stim	stop_success	s620	False
44.428	0.85	0.3	3.202	1.0	71.0	stop_signal	71.0	True	0.479	False	stim	go	s620	False
47.634	0.85	0.3	2.386	1.0	71.0	stop_signal	71.0	True	0.511	False	stim	go	s620	False
50.022	0.85	0.3	2.386	1.0	89.0	stop_signal	89.0	True	0.619	False	stim	go	s620	False
52.409	0.85	0.3	2.522	1.0	71.0	stop_signal	71.0	True	0.483	False	stim	stop_failure	s620	False
54.936	0.85	0.25	2.25	1.0	71.0	stop_signal	71.0	True	0.608	False	stim	go	s620	False
57.188	0.85	0.25	2.25	1.0	89.0	stop_signal	-1.0	True	n/a	True	stim	stop_success	s620	False
59.44	0.85	0.3	2.25	1.0	71.0	stop_signal	-1.0	True	n/a	True	stim	stop_success	s620	False
61.692	0.85	0.35	2.93	0.0	89.0	stop_signal	71.0	True	0.486	False	stim	go	s620	False
64.624	0.85	0.35	2.522	1.0	89.0	stop_signal	89.0	True	0.565	False	stim	go	s620	False
67.152	0.85	0.35	2.522	1.0	71.0	stop_signal	71.0	True	0.772	False	stim	go	s620	False
69.679	0.85	0.35	2.25	1.0	71.0	stop_signal	71.0	True	0.649	False	stim	go	s620	False
71.931	0.85	0.35	2.522	1.0	71.0	stop_signal	71.0	True	0.559	False	stim	stop_failure	s620	False
74.454	0.85	0.3	2.25	1.0	89.0	stop_signal	-1.0	True	n/a	True	stim	stop_success	s620	False
76.707	0.85	0.35	2.386	1.0	89.0	stop_signal	89.0	True	0.532	False	stim	go	s620	False
79.095	0.85	0.35	2.25	1.0	89.0	stop_signal	89.0	True	0.551	False	stim	stop_failure	s620	False
81.346	0.85	0.3	2.658	1.0	71.0	stop_signal	71.0	True	0.712	False	stim	go	s620	False
84.009	0.85	0.3	2.658	1.0	89.0	stop_signal	89.0	True	0.625	False	stim	go	s620	False
86.668	0.85	0.3	2.25	1.0	89.0	stop_signal	89.0	True	0.61	False	stim	go	s620	False
88.922	0.85	0.3	2.25	1.0	71.0	stop_signal	71.0	True	0.486	False	stim	go	s620	False
91.177	0.85	0.3	2.386	1.0	89.0	stop_signal	89.0	True	0.426	False	stim	go	s620	False
93.567	0.85	0.3	2.794	1.0	89.0	stop_signal	89.0	True	0.485	False	stim	stop_failure	s620	False
96.366	0.85	0.25	2.386	1.0	89.0	stop_signal	-1.0	True	n/a	True	stim	stop_success	s620	False
98.756	0.85	0.3	2.25	1.0	89.0	stop_signal	-1.0	True	n/a	True	stim	stop_success	s620	False
101.009	0.85	0.35	2.25	1.0	71.0	stop_signal	-1.0	True	n/a	True	stim	stop_success	s620	False
113.774	0.85	0.4	2.25	1.0	71.0	stop_signal	-1.0	True	n/a	True	stim	stop_success	s620	False
116.026	0.85	0.45	2.658	1.0	89.0	stop_signal	89.0	True	0.581	False	stim	go	s620	False
118.689	0.85	0.45	2.658	1.0	89.0	stop_signal	89.0	True	0.489	False	stim	go	s620	False
121.348	0.85	0.45	2.25	1.0	89.0	stop_signal	89.0	True	0.575	False	stim	go	s620	False
123.602	0.85	0.45	2.522	1.0	71.0	stop_signal	71.0	True	0.574	False	stim	go	s620	False
126.125	0.85	0.45	2.25	1.0	89.0	stop_signal	89.0	True	0.476	False	stim	go	s620	False
128.378	0.85	0.45	2.522	1.0	89.0	stop_signal	-1.0	True	n/a	True	stim	stop_success	s620	False
130.902	0.85	0.5	2.522	1.0	71.0	stop_signal	71.0	True	0.438	False	stim	go	s620	False
133.426	0.85	0.5	2.522	1.0	89.0	stop_signal	89.0	True	0.626	False	stim	stop_failure	s620	False
135.952	0.85	0.45	2.386	1.0	71.0	stop_signal	71.0	True	0.598	False	stim	stop_failure	s620	False
138.341	0.85	0.4	2.522	1.0	71.0	stop_signal	-1.0	True	n/a	True	stim	stop_success	s620	False
140.867	0.85	0.45	2.522	1.0	71.0	stop_signal	71.0	True	0.651	False	stim	go	s620	False
143.39	0.85	0.45	2.386	1.0	89.0	stop_signal	89.0	True	0.435	False	stim	go	s620	False
145.779	0.85	0.45	2.25	1.0	89.0	stop_signal	89.0	True	0.597	False	stim	go	s620	False
148.03	0.85	0.45	2.522	0.0	71.0	stop_signal	89.0	True	0.43	False	stim	go	s620	False
150.554	0.85	0.45	2.794	1.0	71.0	stop_signal	71.0	True	0.506	False	stim	go	s620	False
153.352	0.85	0.45	2.522	1.0	71.0	stop_signal	71.0	True	0.482	False	stim	stop_failure	s620	False
155.875	0.85	0.4	2.386	1.0	89.0	stop_signal	89.0	True	0.602	False	stim	stop_failure	s620	False
158.264	0.85	0.35	2.25	1.0	89.0	stop_signal	89.0	True	0.651	False	stim	go	s620	False
160.521	0.85	0.35	2.25	1.0	71.0	stop_signal	-1.0	True	n/a	True	stim	stop_success	s620	False
162.776	0.85	0.4	2.25	1.0	71.0	stop_signal	-1.0	True	n/a	True	stim	stop_success	s620	False
165.029	0.85	0.45	2.25	1.0	71.0	stop_signal	71.0	True	0.662	False	stim	stop_failure	s620	False
167.282	0.85	0.4	2.522	1.0	89.0	stop_signal	89.0	True	0.789	False	stim	go	s620	False
169.806	0.85	0.4	2.25	1.0	89.0	stop_signal	89.0	True	0.493	False	stim	go	s620	False
172.062	0.85	0.4	2.25	1.0	89.0	stop_signal	89.0	True	0.493	False	stim	stop_failure	s620	False
174.313	0.85	0.35	2.25	1.0	89.0	stop_signal	89.0	True	0.886	False	stim	go	s620	False
176.569	0.85	0.35	2.25	1.0	71.0	stop_signal	71.0	True	0.538	False	stim	go	s620	False
178.821	0.85	0.35	2.386	1.0	71.0	stop_signal	71.0	True	0.445	False	stim	go	s620	False
181.211	0.85	0.35	2.25	1.0	71.0	stop_signal	71.0	True	0.427	False	stim	go	s620	False
183.465	0.85	0.35	2.25	1.0	71.0	stop_signal	-1.0	True	n/a	True	stim	stop_success	s620	False
185.716	0.85	0.4	2.25	1.0	89.0	stop_signal	89.0	True	0.496	False	stim	go	s620	False
187.971	0.85	0.4	2.25	1.0	71.0	stop_signal	71.0	True	0.541	False	stim	stop_failure	s620	False
190.223	0.85	0.35	2.522	1.0	89.0	stop_signal	89.0	True	0.574	False	stim	stop_failure	s620	False
192.747	0.85	0.3	2.386	1.0	71.0	stop_signal	71.0	True	0.673	False	stim	go	s620	False
195.135	0.85	0.3	2.522	1.0	89.0	stop_signal	89.0	True	0.597	False	stim	go	s620	False
197.661	0.85	0.3	2.25	1.0	89.0	stop_signal	89.0	True	0.479	False	stim	stop_failure	s620	False
199.913	0.85	0.25	2.386	1.0	71.0	stop_signal	71.0	True	0.534	False	stim	go	s620	False
202.3	0.85	0.25	2.386	1.0	71.0	stop_signal	71.0	True	0.714	False	stim	go	s620	False
204.692	0.85	0.25	2.25	1.0	89.0	stop_signal	89.0	True	0.668	False	stim	go	s620	False
206.945	0.85	0.25	2.386	1.0	89.0	stop_signal	89.0	True	0.534	False	stim	go	s620	False
209.336	0.85	0.25	2.386	1.0	71.0	stop_signal	71.0	True	0.643	False	stim	go	s620	False
211.724	0.85	0.25	2.386	1.0	89.0	stop_signal	-1.0	True	n/a	True	stim	stop_success	s620	False
224.62	0.85	0.3	2.658	1.0	89.0	stop_signal	89.0	True	0.54	False	stim	go	s620	False
227.279	0.85	0.3	2.522	1.0	71.0	stop_signal	71.0	True	0.442	False	stim	go	s620	False
229.803	0.85	0.3	2.25	1.0	71.0	stop_signal	71.0	True	0.503	False	stim	stop_failure	s620	False
232.056	0.85	0.25	2.93	1.0	89.0	stop_signal	-1.0	True	n/a	True	stim	stop_success	s620	False
234.987	0.85	0.3	2.25	1.0	89.0	stop_signal	89.0	True	0.567	False	stim	go	s620	False
237.242	0.85	0.3	2.522	0.0	89.0	stop_signal	71.0	True	0.427	False	stim	go	s620	False
239.766	0.85	0.3	2.25	1.0	89.0	stop_signal	-1.0	True	n/a	True	stim	stop_success	s620	False
242.02	0.85	0.35	2.25	1.0	71.0	stop_signal	71.0	True	0.577	False	stim	go	s620	False
244.272	0.85	0.35	2.25	1.0	89.0	stop_signal	89.0	True	0.416	False	stim	go	s620	False
246.526	0.85	0.35	2.25	1.0	89.0	stop_signal	89.0	True	0.468	False	stim	go	s620	False
248.779	0.85	0.35	2.522	1.0	71.0	stop_signal	71.0	True	0.636	False	stim	go	s620	False
251.307	0.85	0.35	3.066	1.0	89.0	stop_signal	89.0	True	0.541	False	stim	stop_failure	s620	False
254.374	0.85	0.3	2.25	1.0	89.0	stop_signal	-1.0	True	n/a	True	stim	stop_success	s620	False
256.627	0.85	0.35	2.386	1.0	89.0	stop_signal	89.0	True	0.583	False	stim	go	s620	False
259.014	0.85	0.35	2.386	1.0	71.0	stop_signal	71.0	True	0.375	False	stim	stop_failure	s620	False
261.401	0.85	0.3	2.522	1.0	71.0	stop_signal	71.0	True	0.66	False	stim	go	s620	False
263.925	0.85	0.3	2.386	1.0	71.0	stop_signal	71.0	True	0.437	False	stim	go	s620	False
266.312	0.85	0.3	2.386	1.0	71.0	stop_signal	71.0	True	0.495	False	stim	go	s620	False
268.7	0.85	0.3	2.794	1.0	89.0	stop_signal	89.0	True	0.376	False	stim	stop_failure	s620	False
271.496	0.85	0.25	2.386	1.0	89.0	stop_signal	89.0	True	0.48	False	stim	go	s620	False
273.884	0.85	0.25	2.25	1.0	71.0	stop_signal	-1.0	True	n/a	True	stim	stop_success	s620	False
276.136	0.85	0.3	2.522	1.0	71.0	stop_signal	-1.0	True	n/a	True	stim	stop_success	s620	False
278.659	0.85	0.35	2.386	1.0	71.0	stop_signal	71.0	True	0.58	False	stim	stop_failure	s620	False
281.048	0.85	0.3	2.386	1.0	71.0	stop_signal	71.0	True	0.616	False	stim	go	s620	False
283.436	0.85	0.3	2.25	1.0	71.0	stop_signal	71.0	True	0.493	False	stim	stop_failure	s620	False
285.688	0.85	0.25	2.386	1.0	71.0	stop_signal	71.0	True	0.699	False	stim	go	s620	False
288.075	0.85	0.25	2.25	1.0	71.0	stop_signal	71.0	True	0.704	False	stim	go	s620	False
290.327	0.85	0.25	2.25	1.0	71.0	stop_signal	-1.0	True	n/a	True	stim	stop_success	s620	False
292.583	0.85	0.3	2.25	1.0	71.0	stop_signal	71.0	True	0.529	False	stim	go	s620	False
294.835	0.85	0.3	2.386	1.0	71.0	stop_signal	71.0	True	0.572	False	stim	go	s620	False
297.223	0.85	0.3	2.25	1.0	71.0	stop_signal	-1.0	True	n/a	True	stim	stop_success	s620	False
299.476	0.85	0.35	2.25	1.0	89.0	stop_signal	89.0	True	0.51	False	stim	stop_failure	s620	False
301.727	0.85	0.3	2.386	1.0	71.0	stop_signal	71.0	True	0.485	False	stim	stop_failure	s620	False
304.116	0.85	0.25	2.386	1.0	89.0	stop_signal	-1.0	True	n/a	True	stim	stop_success	s620	False
306.508	0.85	0.3	2.25	1.0	71.0	stop_signal	71.0	True	0.878	False	stim	go	s620	False
308.759	0.85	0.3	2.522	1.0	89.0	stop_signal	-1.0	True	n/a	True	stim	stop_success	s620	False
311.287	0.85	0.35	2.25	1.0	89.0	stop_signal	89.0	True	0.557	False	stim	go	s620	False
313.541	0.85	0.35	2.386	1.0	89.0	stop_signal	89.0	True	0.567	False	stim	go	s620	False
315.928	0.85	0.35	2.25	0.0	89.0	stop_signal	71.0	True	0.396	False	stim	go	s620	False
318.183	0.85	0.35	2.25	1.0	89.0	stop_signal	89.0	True	0.504	False	stim	stop_failure	s620	False
320.437	0.85	0.3	2.386	1.0	71.0	stop_signal	71.0	True	0.568	False	stim	go	s620	False
322.824	0.85	0.3	2.522	1.0	89.0	stop_signal	89.0	True	0.603	False	stim	go	s620	False
