onset	duration	movement_onset	EV	action	block_duration	experiment_exp_id	gain_amount	gain_probability	key_press	loss_amount	loss_probability	num_cards	num_click_in_round	num_loss_cards	risk	response_time	total_cards	trial_id	trial_type	worker_id	junk	feedback
3.013	6.477	9.49	-1.472992956309072	draw_card	6.477	columbia_card_task_fmri	12.0	0.8333333333333334	89.0	-70.0	0.1666666666666666	6.0	1.0	1.0	-1.8708385649816144	6.477	n/a	stim	poldrack-single-stim	s620	False	1
9.494	0.927	10.421	-4.206326289642404	draw_card	0.927	columbia_card_task_fmri	12.0	0.8	89.0	-70.0	0.2	6.0	2.0	1.0	0.3695238241797156	0.927	n/a	stim	poldrack-single-stim	s620	False	1
10.423	1.945	12.368	-8.306326289642406	end_round	1.945	columbia_card_task_fmri	12.0	0.75	71.0	-70.0	0.25	6.0	3.0	1.0	3.0765217872781605	1.945	2.0	stim	poldrack-single-stim	s620	False	1
13.121	1.5	12.37	n/a	-1.0	2.318	columbia_card_task_fmri	n/a	n/a	-1.0	n/a	n/a	n/a	n/a	n/a	n/a	n/a	n/a	ITI	poldrack-single-stim	s620	False	0
14.691	3.789	18.48	-0.639659622975738	draw_card	3.789	columbia_card_task_fmri	14.0	0.8333333333333334	89.0	-75.0	0.1666666666666666	6.0	1.0	1.0	0.7378591407242752	3.789	n/a	stim	poldrack-single-stim	s620	False	1
18.482	0.929	19.411	-3.606326289642405	draw_card	0.929	columbia_card_task_fmri	14.0	0.8	89.0	-75.0	0.2	6.0	2.0	1.0	3.169478852919994	0.929	n/a	stim	poldrack-single-stim	s620	False	1
19.413	0.761	20.174	-8.056326289642406	end_round	0.761	columbia_card_task_fmri	14.0	0.75	71.0	-75.0	0.25	6.0	3.0	1.0	6.10756915770633	0.761	2.0	stim	poldrack-single-stim	s620	False	1
20.928	1.5	20.177	n/a	-1.0	2.318	columbia_card_task_fmri	n/a	n/a	-1.0	n/a	n/a	n/a	n/a	n/a	n/a	n/a	n/a	ITI	poldrack-single-stim	s620	False	0
22.498	4.387	26.885	1.027007043690928	draw_card	4.387	columbia_card_task_fmri	15.0	0.8333333333333334	89.0	-70.0	0.1666666666666666	6.0	1.0	1.0	-0.7528262359821731	4.387	n/a	stim	poldrack-single-stim	s620	False	1
26.887	0.844	27.731	-1.806326289642406	draw_card	0.844	columbia_card_task_fmri	15.0	0.8	89.0	-70.0	0.2	6.0	2.0	1.0	1.5695036438213208	0.844	n/a	stim	poldrack-single-stim	s620	False	1
27.732	1.17	28.902	-6.0563262896424055	draw_card	1.17	columbia_card_task_fmri	15.0	0.75	89.0	-70.0	0.25	6.0	3.0	1.0	4.375541251069258	1.17	n/a	stim	poldrack-single-stim	s620	False	1
28.904	1.002	29.906	-13.139659622975737	end_round	1.002	columbia_card_task_fmri	15.0	0.6666666666666667	71.0	-70.0	0.3333333333333333	6.0	4.0	1.0	7.638804359347638	1.002	3.0	stim	poldrack-single-stim	s620	False	1
30.662	1.5	29.911	n/a	-1.0	2.862	columbia_card_task_fmri	n/a	n/a	-1.0	n/a	n/a	n/a	n/a	n/a	n/a	n/a	n/a	ITI	poldrack-single-stim	s620	False	0
32.775	4.279	37.054	1.860340377024262	draw_card	4.279	columbia_card_task_fmri	17.0	0.8333333333333334	89.0	-75.0	0.1666666666666666	6.0	1.0	1.0	1.8558746916244215	4.279	n/a	stim	poldrack-single-stim	s620	False	1
37.057	0.978	38.035	-1.2063262896424043	draw_card	0.978	columbia_card_task_fmri	17.0	0.8	89.0	-75.0	0.2	6.0	2.0	1.0	4.369461674411653	0.978	n/a	stim	poldrack-single-stim	s620	False	1
38.036	0.878	38.914	-5.8063262896424055	draw_card	0.878	columbia_card_task_fmri	17.0	0.75	89.0	-75.0	0.25	6.0	3.0	1.0	7.406591394506741	0.878	3.0	stim	poldrack-single-stim	s620	False	0
39.667	1.5	38.916	n/a	-1.0	2.726	columbia_card_task_fmri	n/a	n/a	-1.0	n/a	n/a	n/a	n/a	n/a	n/a	n/a	n/a	ITI	poldrack-single-stim	s620	False	0
41.645	6.837	48.482	3.193673710357594	draw_card	6.837	columbia_card_task_fmri	24.0	0.75	89.0	-60.0	0.25	8.0	1.0	2.0	3.9425346151905742	6.837	n/a	stim	poldrack-single-stim	s620	False	1
48.484	1.418	49.902	0.1936737103575941	draw_card	1.418	columbia_card_task_fmri	24.0	0.7142857142857143	89.0	-60.0	0.2857142857142857	8.0	2.0	2.0	5.516778187852452	1.418	n/a	stim	poldrack-single-stim	s620	False	1
49.904	1.415	51.319	-3.806326289642406	draw_card	1.415	columbia_card_task_fmri	24.0	0.6666666666666667	89.0	-60.0	0.3333333333333333	8.0	3.0	2.0	7.167405410564136	1.415	3.0	stim	poldrack-single-stim	s620	False	0
52.071	1.5	51.32	n/a	-1.0	2.25	columbia_card_task_fmri	n/a	n/a	-1.0	n/a	n/a	n/a	n/a	n/a	n/a	n/a	n/a	ITI	poldrack-single-stim	s620	False	0
53.572	4.958	58.53	3.193673710357594	draw_card	4.958	columbia_card_task_fmri	29.0	0.75	89.0	-75.0	0.25	8.0	1.0	2.0	12.6026894966896	4.958	n/a	stim	poldrack-single-stim	s620	False	1
58.532	0.985	59.517	-0.5206120039281176	draw_card	0.985	columbia_card_task_fmri	29.0	0.7142857142857143	89.0	-75.0	0.2857142857142857	8.0	2.0	2.0	14.551762173977934	0.985	n/a	stim	poldrack-single-stim	s620	False	1
59.52	0.852	60.372	-5.47299295630907	end_round	0.852	columbia_card_task_fmri	29.0	0.6666666666666667	71.0	-75.0	0.3333333333333333	8.0	3.0	2.0	16.595404745217536	0.852	2.0	stim	poldrack-single-stim	s620	False	1
61.125	1.5	60.374	n/a	-1.0	2.318	columbia_card_task_fmri	n/a	n/a	-1.0	n/a	n/a	n/a	n/a	n/a	n/a	n/a	n/a	ITI	poldrack-single-stim	s620	False	0
62.694	1.914	64.608	-1.0285485118646256	draw_card	1.914	columbia_card_task_fmri	17.0	0.7777777777777778	89.0	-65.0	0.2222222222222222	9.0	1.0	2.0	1.6601583675841027	1.914	n/a	stim	poldrack-single-stim	s620	False	1
64.611	0.855	65.466	-3.306326289642406	draw_card	0.855	columbia_card_task_fmri	17.0	0.75	89.0	-65.0	0.25	9.0	2.0	2.0	3.0765217872781605	0.855	2.0	stim	poldrack-single-stim	s620	False	0
66.219	1.5	65.468	n/a	-1.0	2.454	columbia_card_task_fmri	n/a	n/a	-1.0	n/a	n/a	n/a	n/a	n/a	n/a	n/a	n/a	ITI	poldrack-single-stim	s620	False	0
67.924	5.032	72.956	3.2936737103575937	draw_card	5.032	columbia_card_task_fmri	14.0	0.9	89.0	-95.0	0.1	10.0	1.0	1.0	0.2695255727309558	5.032	n/a	stim	poldrack-single-stim	s620	False	1
72.958	0.608	73.566	2.0825625992464816	end_round	0.608	columbia_card_task_fmri	14.0	0.8888888888888888	71.0	-95.0	0.1111111111111111	10.0	2.0	1.0	1.8248947088053955	0.608	1.0	stim	poldrack-single-stim	s620	False	1
74.321	1.5	73.57	n/a	-1.0	2.522	columbia_card_task_fmri	n/a	n/a	-1.0	n/a	n/a	n/a	n/a	n/a	n/a	n/a	n/a	ITI	poldrack-single-stim	s620	False	0
76.095	4.862	80.957	-0.8063262896424058	draw_card	4.862	columbia_card_task_fmri	15.0	0.8	89.0	-65.0	0.2	10.0	1.0	2.0	-0.4304618814222039	4.862	n/a	stim	poldrack-single-stim	s620	False	1
80.959	1.027	81.986	-2.5841040674201827	end_round	1.027	columbia_card_task_fmri	15.0	0.7777777777777778	71.0	-65.0	0.2222222222222222	10.0	2.0	2.0	0.8286927015472898	1.027	1.0	stim	poldrack-single-stim	s620	False	1
82.738	1.5	81.987	n/a	-1.0	2.318	columbia_card_task_fmri	n/a	n/a	-1.0	n/a	n/a	n/a	n/a	n/a	n/a	n/a	n/a	ITI	poldrack-single-stim	s620	False	0
84.309	2.495	86.804	0.7936737103575956	draw_card	2.495	columbia_card_task_fmri	17.0	0.8	89.0	-65.0	0.2	10.0	1.0	2.0	0.3695238241797156	2.495	n/a	stim	poldrack-single-stim	s620	False	1
86.806	0.876	87.682	-1.0285485118646256	draw_card	0.876	columbia_card_task_fmri	17.0	0.7777777777777778	89.0	-65.0	0.2222222222222222	10.0	2.0	2.0	1.6601583675841027	0.876	n/a	stim	poldrack-single-stim	s620	False	1
87.684	0.677	88.361	-3.306326289642406	end_round	0.677	columbia_card_task_fmri	17.0	0.75	71.0	-65.0	0.25	10.0	3.0	2.0	3.0765217872781605	0.677	2.0	stim	poldrack-single-stim	s620	False	1
89.113	1.5	88.362	n/a	-1.0	2.522	columbia_card_task_fmri	n/a	n/a	-1.0	n/a	n/a	n/a	n/a	n/a	n/a	n/a	n/a	ITI	poldrack-single-stim	s620	False	0
90.887	6.425	97.312	-0.639659622975738	draw_card	6.425	columbia_card_task_fmri	13.0	0.8333333333333334	89.0	-70.0	0.1666666666666666	12.0	1.0	2.0	-1.4981679626172737	6.425	n/a	stim	poldrack-single-stim	s620	False	1
97.314	0.729	98.043	-1.8972353805514997	draw_card	0.729	columbia_card_task_fmri	13.0	0.8181818181818181	89.0	-70.0	0.1818181818181818	12.0	2.0	2.0	-0.4178096557017881	0.729	2.0	stim	poldrack-single-stim	s620	False	0
98.795	1.5	98.044	n/a	-1.0	2.998	columbia_card_task_fmri	n/a	n/a	-1.0	n/a	n/a	n/a	n/a	n/a	n/a	n/a	n/a	ITI	poldrack-single-stim	s620	False	0
101.045	3.595	104.64	-0.639659622975738	draw_card	3.595	columbia_card_task_fmri	15.0	0.8333333333333334	89.0	-80.0	0.1666666666666666	12.0	1.0	2.0	2.9738914069933315	3.595	n/a	stim	poldrack-single-stim	s620	False	1
104.642	0.642	105.284	-2.079053562369681	end_round	0.642	columbia_card_task_fmri	15.0	0.8181818181818181	71.0	-80.0	0.1818181818181818	12.0	2.0	2.0	4.210451638462985	0.642	1.0	stim	poldrack-single-stim	s620	False	1
106.04	1.5	105.289	n/a	-1.0	2.318	columbia_card_task_fmri	n/a	n/a	-1.0	n/a	n/a	n/a	n/a	n/a	n/a	n/a	n/a	ITI	poldrack-single-stim	s620	False	0
107.611	6.305	113.916	-1.6063262896424049	draw_card	6.305	columbia_card_task_fmri	14.0	0.8	89.0	-65.0	0.2	15.0	1.0	3.0	-0.8304544628180643	6.305	1.0	stim	poldrack-single-stim	s620	False	0
114.668	1.5	113.917	n/a	-1.0	2.25	columbia_card_task_fmri	n/a	n/a	-1.0	n/a	n/a	n/a	n/a	n/a	n/a	n/a	n/a	ITI	poldrack-single-stim	s620	False	0
116.17	3.25	119.42	-1.681326289642406	end_round	3.25	columbia_card_task_fmri	1.0	0.9375	71.0	-45.0	0.0625	16.0	1.0	1.0	-21.294536636448814	3.25	0.0	stim	poldrack-single-stim	s620	False	1
120.176	1.5	119.425	n/a	-1.0	2.454	columbia_card_task_fmri	n/a	n/a	-1.0	n/a	n/a	n/a	n/a	n/a	n/a	n/a	n/a	ITI	poldrack-single-stim	s620	False	0
121.883	3.779	125.662	-0.7438262896424058	draw_card	3.779	columbia_card_task_fmri	15.0	0.8125	89.0	-70.0	0.1875	16.0	1.0	3.0	0.7460692010427081	3.779	n/a	stim	poldrack-single-stim	s620	False	1
125.664	1.098	126.762	-1.806326289642406	draw_card	1.098	columbia_card_task_fmri	15.0	0.8	89.0	-70.0	0.2	16.0	2.0	3.0	1.5695036438213208	1.098	n/a	stim	poldrack-single-stim	s620	False	1
126.764	0.835	127.599	-3.020612003928121	end_round	0.835	columbia_card_task_fmri	15.0	0.7857142857142857	71.0	-70.0	0.2142857142857142	16.0	3.0	3.0	2.447191545357839	0.835	2.0	stim	poldrack-single-stim	s620	False	1
128.353	1.5	127.602	n/a	-1.0	2.318	columbia_card_task_fmri	n/a	n/a	-1.0	n/a	n/a	n/a	n/a	n/a	n/a	n/a	n/a	ITI	poldrack-single-stim	s620	False	0
129.923	3.996	133.919	6.1936737103575945	draw_card	3.996	columbia_card_task_fmri	30.0	0.7	89.0	-50.0	0.3	10.0	1.0	3.0	4.230069171819743	3.996	n/a	stim	poldrack-single-stim	s620	False	1
133.922	0.909	134.831	3.5270070436909333	draw_card	0.909	columbia_card_task_fmri	30.0	0.6666666666666667	89.0	-50.0	0.3333333333333333	10.0	2.0	3.0	5.281811008405434	0.909	n/a	stim	poldrack-single-stim	s620	False	1
134.833	0.777	135.61	0.1936737103575941	end_round	0.777	columbia_card_task_fmri	30.0	0.625	71.0	-50.0	0.375	10.0	3.0	3.0	6.299269742600465	0.777	2.0	stim	poldrack-single-stim	s620	False	1
136.365	1.5	135.614	n/a	-1.0	2.318	columbia_card_task_fmri	n/a	n/a	-1.0	n/a	n/a	n/a	n/a	n/a	n/a	n/a	n/a	ITI	poldrack-single-stim	s620	False	0
137.936	2.74	140.676	5.593673710357595	draw_card	2.74	columbia_card_task_fmri	17.0	0.8666666666666667	89.0	-70.0	0.1333333333333333	15.0	1.0	2.0	-2.8561006332067542	2.74	n/a	stim	poldrack-single-stim	s620	False	1
140.679	1.479	142.158	4.765102281786168	draw_card	1.479	columbia_card_task_fmri	17.0	0.8571428571428572	89.0	-70.0	0.1428571428571428	15.0	2.0	2.0	-1.986773688643531	1.479	n/a	stim	poldrack-single-stim	s620	False	1
142.161	0.908	143.069	3.809058325742209	draw_card	0.908	columbia_card_task_fmri	17.0	0.8461538461538461	89.0	-70.0	0.1538461538461538	15.0	3.0	2.0	-1.0407450171727213	0.908	n/a	stim	poldrack-single-stim	s620	False	1
143.072	0.782	143.854	2.693673710357596	end_round	0.782	columbia_card_task_fmri	17.0	0.8333333333333334	71.0	-70.0	0.1666666666666666	15.0	4.0	2.0	-0.0074838534632135	0.782	3.0	stim	poldrack-single-stim	s620	False	1
144.607	1.5	143.856	n/a	-1.0	2.59	columbia_card_task_fmri	n/a	n/a	-1.0	n/a	n/a	n/a	n/a	n/a	n/a	n/a	n/a	ITI	poldrack-single-stim	s620	False	0
146.45	3.688	150.138	0.8186737103575942	draw_card	3.688	columbia_card_task_fmri	7.0	0.9375	89.0	-95.0	0.0625	16.0	1.0	1.0	-7.740019540693776	3.688	n/a	stim	poldrack-single-stim	s620	False	1
150.14	0.573	150.713	0.3936737103575943	end_round	0.573	columbia_card_task_fmri	7.0	0.9333333333333332	71.0	-95.0	0.0666666666666666	16.0	2.0	1.0	-6.987040622321381	0.573	1.0	stim	poldrack-single-stim	s620	False	1
151.469	1.5	150.718	n/a	-1.0	2.25	columbia_card_task_fmri	n/a	n/a	-1.0	n/a	n/a	n/a	n/a	n/a	n/a	n/a	n/a	ITI	poldrack-single-stim	s620	False	0
152.971	2.5	155.471	2.381173710357594	end_round	2.5	columbia_card_task_fmri	9.0	0.9375	71.0	-100.0	0.0625	16.0	1.0	1.0	-6.045638106334415	2.5	0.0	stim	poldrack-single-stim	s620	False	1
156.227	1.5	155.476	n/a	-1.0	2.25	columbia_card_task_fmri	n/a	n/a	-1.0	n/a	n/a	n/a	n/a	n/a	n/a	n/a	n/a	ITI	poldrack-single-stim	s620	False	0
157.729	3.011	160.74	3.318673710357594	draw_card	3.011	columbia_card_task_fmri	15.0	0.875	89.0	-80.0	0.125	16.0	1.0	2.0	-1.0121542115737867	3.011	n/a	stim	poldrack-single-stim	s620	False	1
160.743	0.704	161.447	2.527007043690928	draw_card	0.704	columbia_card_task_fmri	15.0	0.8666666666666667	89.0	-80.0	0.1333333333333333	16.0	2.0	2.0	-0.1366769603949862	0.704	2.0	stim	poldrack-single-stim	s620	False	0
162.2	1.5	161.449	n/a	-1.0	2.522	columbia_card_task_fmri	n/a	n/a	-1.0	n/a	n/a	n/a	n/a	n/a	n/a	n/a	n/a	ITI	poldrack-single-stim	s620	False	0
163.974	2.117	166.091	5.4436737103575945	draw_card	2.117	columbia_card_task_fmri	16.0	0.875	89.0	-70.0	0.125	16.0	1.0	2.0	-3.988561968312784	2.117	n/a	stim	poldrack-single-stim	s620	False	1
166.094	0.92	167.014	4.727007043690928	draw_card	0.92	columbia_card_task_fmri	16.0	0.8666666666666667	89.0	-70.0	0.1333333333333333	16.0	2.0	2.0	-3.1960278937694437	0.92	n/a	stim	poldrack-single-stim	s620	False	1
167.016	0.702	167.718	3.907959424643309	draw_card	0.702	columbia_card_task_fmri	16.0	0.8571428571428572	89.0	-70.0	0.1428571428571428	16.0	3.0	2.0	-2.336693631627199	0.702	n/a	stim	poldrack-single-stim	s620	False	1
167.721	1.371	169.092	2.9629044795883623	draw_card	1.371	columbia_card_task_fmri	16.0	0.8461538461538461	89.0	-70.0	0.1538461538461538	16.0	4.0	2.0	-1.4015392822138573	1.371	n/a	stim	poldrack-single-stim	s620	False	1
169.095	0.847	169.942	1.860340377024262	end_round	0.847	columbia_card_task_fmri	16.0	0.8333333333333334	71.0	-70.0	0.1666666666666666	16.0	5.0	2.0	-0.3801551238483256	0.847	4.0	stim	poldrack-single-stim	s620	False	1
170.695	1.5	169.944	n/a	-1.0	2.454	columbia_card_task_fmri	n/a	n/a	-1.0	n/a	n/a	n/a	n/a	n/a	n/a	n/a	n/a	ITI	poldrack-single-stim	s620	False	0
172.401	2.906	175.307	6.7561737103575945	draw_card	2.906	columbia_card_task_fmri	30.0	0.6875	89.0	-45.0	0.3125	16.0	1.0	5.0	2.332921938602325	2.906	n/a	stim	poldrack-single-stim	s620	False	1
175.309	1.747	177.056	5.193673710357598	draw_card	1.747	columbia_card_task_fmri	30.0	0.6666666666666667	89.0	-45.0	0.3333333333333333	16.0	2.0	5.0	2.924821557782437	1.747	2.0	stim	poldrack-single-stim	s620	False	0
177.811	1.5	177.06	n/a	-1.0	2.25	columbia_card_task_fmri	n/a	n/a	-1.0	n/a	n/a	n/a	n/a	n/a	n/a	n/a	n/a	ITI	poldrack-single-stim	s620	False	0
179.313	2.137	181.45	-1.472992956309072	draw_card	2.137	columbia_card_task_fmri	13.0	0.8333333333333334	89.0	-75.0	0.1666666666666666	6.0	1.0	1.0	0.3651875697784135	2.137	n/a	stim	poldrack-single-stim	s620	False	1
181.453	0.578	182.031	-4.406326289642405	end_round	0.578	columbia_card_task_fmri	13.0	0.8	71.0	-75.0	0.2	6.0	2.0	1.0	2.7694848393640683	0.578	1.0	stim	poldrack-single-stim	s620	False	1
182.787	1.5	182.036	n/a	-1.0	2.454	columbia_card_task_fmri	n/a	n/a	-1.0	n/a	n/a	n/a	n/a	n/a	n/a	n/a	n/a	ITI	poldrack-single-stim	s620	False	0
184.493	2.041	186.534	0.1936737103575959	draw_card	2.041	columbia_card_task_fmri	14.0	0.8333333333333334	89.0	-70.0	0.1666666666666666	6.0	1.0	1.0	-1.1254971842131454	2.041	n/a	stim	poldrack-single-stim	s620	False	1
186.536	0.558	187.094	-2.606326289642405	end_round	0.558	columbia_card_task_fmri	14.0	0.8	71.0	-70.0	0.2	6.0	2.0	1.0	1.169510210449879	0.558	1.0	stim	poldrack-single-stim	s620	False	1
187.847	1.5	187.096	n/a	-1.0	2.454	columbia_card_task_fmri	n/a	n/a	-1.0	n/a	n/a	n/a	n/a	n/a	n/a	n/a	n/a	ITI	poldrack-single-stim	s620	False	0
189.554	2.581	192.135	0.1936737103575959	draw_card	2.581	columbia_card_task_fmri	16.0	0.8333333333333334	89.0	-80.0	0.1666666666666666	6.0	1.0	1.0	3.3465638853523387	2.581	n/a	stim	poldrack-single-stim	s620	False	1
192.137	0.692	192.829	-3.006326289642405	end_round	0.692	columbia_card_task_fmri	16.0	0.8	71.0	-80.0	0.2	6.0	2.0	1.0	5.96944043983347	0.692	1.0	stim	poldrack-single-stim	s620	False	1
193.582	1.5	192.831	n/a	-1.0	2.522	columbia_card_task_fmri	n/a	n/a	-1.0	n/a	n/a	n/a	n/a	n/a	n/a	n/a	n/a	ITI	poldrack-single-stim	s620	False	0
195.358	2.33	197.688	2.693673710357596	draw_card	2.33	columbia_card_task_fmri	17.0	0.8333333333333334	89.0	-70.0	0.1666666666666666	6.0	1.0	1.0	-0.0074838534632135	2.33	n/a	stim	poldrack-single-stim	s620	False	1
197.69	0.547	198.237	-0.2063262896424044	end_round	0.547	columbia_card_task_fmri	17.0	0.8	71.0	-70.0	0.2	6.0	2.0	1.0	2.36949096342439	0.547	1.0	stim	poldrack-single-stim	s620	False	1
198.991	1.5	198.24	n/a	-1.0	2.454	columbia_card_task_fmri	n/a	n/a	-1.0	n/a	n/a	n/a	n/a	n/a	n/a	n/a	n/a	ITI	poldrack-single-stim	s620	False	0
200.698	2.5	203.198	2.693673710357594	draw_card	2.5	columbia_card_task_fmri	25.0	0.75	89.0	-65.0	0.25	8.0	1.0	2.0	6.540576452428077	2.5	n/a	stim	poldrack-single-stim	s620	False	1
203.201	0.659	203.86	-0.5206120039281176	draw_card	0.659	columbia_card_task_fmri	25.0	0.7142857142857143	89.0	-65.0	0.2857142857142857	8.0	2.0	2.0	8.227268948427394	0.659	n/a	stim	poldrack-single-stim	s620	False	1
203.863	0.611	204.474	-4.806326289642402	end_round	0.611	columbia_card_task_fmri	25.0	0.6666666666666667	71.0	-65.0	0.3333333333333333	8.0	3.0	2.0	9.99580096057072	0.611	2.0	stim	poldrack-single-stim	s620	False	1
205.228	1.5	204.477	n/a	-1.0	2.658	columbia_card_task_fmri	n/a	n/a	-1.0	n/a	n/a	n/a	n/a	n/a	n/a	n/a	n/a	ITI	poldrack-single-stim	s620	False	0
207.138	3.414	210.552	2.693673710357594	draw_card	3.414	columbia_card_task_fmri	30.0	0.75	89.0	-80.0	0.25	8.0	1.0	2.0	15.200742992127758	3.414	n/a	stim	poldrack-single-stim	s620	False	1
210.555	1.056	211.611	-1.2348977182138294	draw_card	1.056	columbia_card_task_fmri	30.0	0.7142857142857143	89.0	-80.0	0.2857142857142857	8.0	2.0	2.0	17.262264109136957	1.056	2.0	stim	poldrack-single-stim	s620	False	0
212.365	1.5	211.614	n/a	-1.0	2.386	columbia_card_task_fmri	n/a	n/a	-1.0	n/a	n/a	n/a	n/a	n/a	n/a	n/a	n/a	ITI	poldrack-single-stim	s620	False	0
214.002	1.658	215.66	2.393673710357595	end_round	1.658	columbia_card_task_fmri	13.0	0.9	71.0	-95.0	0.1	10.0	1.0	1.0	-0.0304691168559045	1.658	0.0	stim	poldrack-single-stim	s620	False	1
216.415	1.5	215.664	n/a	-1.0	2.522	columbia_card_task_fmri	n/a	n/a	-1.0	n/a	n/a	n/a	n/a	n/a	n/a	n/a	n/a	ITI	poldrack-single-stim	s620	False	0
218.189	2.595	220.784	3.7936737103575937	draw_card	2.595	columbia_card_task_fmri	14.0	0.9	89.0	-90.0	0.1	10.0	1.0	1.0	-1.230446853998739	2.595	n/a	stim	poldrack-single-stim	s620	False	1
220.786	0.781	221.567	2.638118154802037	draw_card	0.781	columbia_card_task_fmri	14.0	0.8888888888888888	89.0	-90.0	0.1111111111111111	10.0	2.0	1.0	0.2535726275157373	0.781	n/a	stim	poldrack-single-stim	s620	False	1
221.57	0.844	222.414	1.193673710357594	draw_card	0.844	columbia_card_task_fmri	14.0	0.875	89.0	-90.0	0.125	10.0	3.0	1.0	1.9642643566874012	0.844	n/a	stim	poldrack-single-stim	s620	False	1
222.417	0.738	223.155	-0.6634691467852617	end_round	0.738	columbia_card_task_fmri	14.0	0.8571428571428572	71.0	-90.0	0.1428571428571428	10.0	4.0	1.0	3.961886417697997	0.738	3.0	stim	poldrack-single-stim	s620	False	1
223.907	1.5	223.156	n/a	-1.0	2.59	columbia_card_task_fmri	n/a	n/a	-1.0	n/a	n/a	n/a	n/a	n/a	n/a	n/a	n/a	ITI	poldrack-single-stim	s620	False	0
225.751	5.305	231.056	-1.0063262896424052	draw_card	5.305	columbia_card_task_fmri	16.0	0.8	89.0	-70.0	0.2	10.0	1.0	2.0	1.969497229901364	5.305	n/a	stim	poldrack-single-stim	s620	False	1
231.06	0.491	231.551	-2.9174374007535167	end_round	0.491	columbia_card_task_fmri	16.0	0.7777777777777778	71.0	-70.0	0.2222222222222222	10.0	2.0	2.0	3.323091618671377	0.491	1.0	stim	poldrack-single-stim	s620	False	1
232.305	1.5	231.554	n/a	-1.0	2.386	columbia_card_task_fmri	n/a	n/a	-1.0	n/a	n/a	n/a	n/a	n/a	n/a	n/a	n/a	ITI	poldrack-single-stim	s620	False	0
233.944	2.782	236.726	-1.722992956309072	end_round	2.782	columbia_card_task_fmri	7.0	0.9166666666666666	71.0	-100.0	0.0833333333333333	12.0	1.0	1.0	-2.8571760749814885	2.782	0.0	stim	poldrack-single-stim	s620	False	1
237.482	1.5	236.731	n/a	-1.0	2.59	columbia_card_task_fmri	n/a	n/a	-1.0	n/a	n/a	n/a	n/a	n/a	n/a	n/a	n/a	ITI	poldrack-single-stim	s620	False	0
239.327	2.116	241.443	-1.4729929563090702	draw_card	2.116	columbia_card_task_fmri	14.0	0.8333333333333334	89.0	-80.0	0.1666666666666666	12.0	1.0	2.0	2.6012190460335987	2.116	n/a	stim	poldrack-single-stim	s620	False	1
241.446	0.607	242.053	-2.8972353805514994	draw_card	0.607	columbia_card_task_fmri	14.0	0.8181818181818181	89.0	-80.0	0.1818181818181818	12.0	2.0	2.0	3.824762475658929	0.607	n/a	stim	poldrack-single-stim	s620	False	1
242.056	0.632	242.688	-4.606326289642404	end_round	0.632	columbia_card_task_fmri	14.0	0.8	71.0	-80.0	0.2	12.0	3.0	2.0	5.169450831227287	0.632	2.0	stim	poldrack-single-stim	s620	False	1
243.445	1.5	242.694	n/a	-1.0	2.318	columbia_card_task_fmri	n/a	n/a	-1.0	n/a	n/a	n/a	n/a	n/a	n/a	n/a	n/a	ITI	poldrack-single-stim	s620	False	0
245.016	2.492	247.508	0.1936737103575941	draw_card	2.492	columbia_card_task_fmri	15.0	0.8333333333333334	89.0	-75.0	0.1666666666666666	12.0	1.0	2.0	1.1105308544510706	2.492	n/a	stim	poldrack-single-stim	s620	False	1
247.512	0.773	248.285	-1.169962653278771	draw_card	0.773	columbia_card_task_fmri	15.0	0.8181818181818181	89.0	-75.0	0.1818181818181818	12.0	2.0	2.0	2.2820070344410865	0.773	n/a	stim	poldrack-single-stim	s620	False	1
248.288	0.611	248.899	-2.806326289642406	end_round	0.611	columbia_card_task_fmri	15.0	0.8	71.0	-75.0	0.2	12.0	3.0	2.0	3.569472999505095	0.611	2.0	stim	poldrack-single-stim	s620	False	1
249.653	1.5	248.902	n/a	-1.0	2.25	columbia_card_task_fmri	n/a	n/a	-1.0	n/a	n/a	n/a	n/a	n/a	n/a	n/a	n/a	ITI	poldrack-single-stim	s620	False	0
251.156	2.428	253.584	-0.8063262896424058	draw_card	2.428	columbia_card_task_fmri	15.0	0.8	89.0	-65.0	0.2	15.0	1.0	3.0	-0.4304618814222039	2.428	n/a	stim	poldrack-single-stim	s620	False	1
253.586	0.724	254.31	-1.9491834324995485	draw_card	0.724	columbia_card_task_fmri	15.0	0.7857142857142857	89.0	-65.0	0.2142857142857142	15.0	2.0	3.0	0.3955956359752193	0.724	n/a	stim	poldrack-single-stim	s620	False	1
254.313	1.009	255.322	-3.2678647511808694	end_round	1.009	columbia_card_task_fmri	15.0	0.7692307692307692	71.0	-65.0	0.2307692307692307	15.0	3.0	3.0	1.2755119938362398	1.009	2.0	stim	poldrack-single-stim	s620	False	1
256.078	1.5	255.327	n/a	-1.0	2.454	columbia_card_task_fmri	n/a	n/a	-1.0	n/a	n/a	n/a	n/a	n/a	n/a	n/a	n/a	ITI	poldrack-single-stim	s620	False	0
257.784	2.641	260.425	-1.556326289642406	end_round	2.641	columbia_card_task_fmri	14.0	0.8125	71.0	-70.0	0.1875	16.0	1.0	3.0	0.355763555747977	2.641	0.0	stim	poldrack-single-stim	s620	False	1
261.179	1.5	260.428	n/a	-1.0	3.27	columbia_card_task_fmri	n/a	n/a	-1.0	n/a	n/a	n/a	n/a	n/a	n/a	n/a	n/a	ITI	poldrack-single-stim	s620	False	0
263.702	1.978	265.68	-1.618826289642406	end_round	1.978	columbia_card_task_fmri	11.0	0.6875	71.0	-30.0	0.3125	16.0	1.0	5.0	-13.426052480475956	1.978	0.0	stim	poldrack-single-stim	s620	False	1
266.434	1.5	265.683	n/a	-1.0	2.25	columbia_card_task_fmri	n/a	n/a	-1.0	n/a	n/a	n/a	n/a	n/a	n/a	n/a	n/a	ITI	poldrack-single-stim	s620	False	0
267.938	2.066	270.004	3.193673710357594	draw_card	2.066	columbia_card_task_fmri	15.0	0.8666666666666667	89.0	-75.0	0.1333333333333333	15.0	1.0	2.0	-1.8363178683921149	2.066	n/a	stim	poldrack-single-stim	s620	False	1
270.008	0.898	270.906	2.336530853214738	draw_card	0.898	columbia_card_task_fmri	15.0	0.8571428571428572	89.0	-75.0	0.1428571428571428	15.0	2.0	2.0	-0.9370129046365888	0.898	n/a	stim	poldrack-single-stim	s620	False	1
270.909	0.738	271.647	1.3475198642037474	draw_card	0.738	columbia_card_task_fmri	15.0	0.8461538461538461	89.0	-75.0	0.1538461538461538	15.0	3.0	2.0	0.04163870422569	0.738	n/a	stim	poldrack-single-stim	s620	False	1
271.651	3.277	274.928	0.1936737103575941	draw_card	3.277	columbia_card_task_fmri	15.0	0.8333333333333334	89.0	-75.0	0.1666666666666666	15.0	4.0	2.0	1.1105308544510706	3.277	n/a	stim	poldrack-single-stim	s620	False	1
274.931	1.044	275.975	-1.169962653278771	end_round	1.044	columbia_card_task_fmri	15.0	0.8181818181818181	71.0	-75.0	0.1818181818181818	15.0	5.0	2.0	2.2820070344410865	1.044	4.0	stim	poldrack-single-stim	s620	False	1
276.728	1.5	275.977	n/a	-1.0	2.25	columbia_card_task_fmri	n/a	n/a	-1.0	n/a	n/a	n/a	n/a	n/a	n/a	n/a	n/a	ITI	poldrack-single-stim	s620	False	0
278.233	3.683	281.916	4.927007043690929	draw_card	3.683	columbia_card_task_fmri	17.0	0.8666666666666667	89.0	-75.0	0.1333333333333333	15.0	1.0	2.0	-1.1564619260055515	3.683	n/a	stim	poldrack-single-stim	s620	False	1
281.918	1.68	283.598	4.050816567500454	draw_card	1.68	columbia_card_task_fmri	17.0	0.8571428571428572	89.0	-75.0	0.1428571428571428	15.0	2.0	2.0	-0.2371716379886095	1.68	n/a	stim	poldrack-single-stim	s620	False	1
283.601	1.824	285.425	3.0398275565114408	draw_card	1.824	columbia_card_task_fmri	17.0	0.8461538461538461	89.0	-75.0	0.1538461538461538	15.0	3.0	2.0	0.7632285733812196	1.824	n/a	stim	poldrack-single-stim	s620	False	1
285.429	3.488	288.917	1.860340377024262	end_round	3.488	columbia_card_task_fmri	17.0	0.8333333333333334	71.0	-75.0	0.1666666666666666	15.0	4.0	2.0	1.8558746916244215	3.488	3.0	stim	poldrack-single-stim	s620	False	1
289.672	1.5	288.921	n/a	-1.0	2.318	columbia_card_task_fmri	n/a	n/a	-1.0	n/a	n/a	n/a	n/a	n/a	n/a	n/a	n/a	ITI	poldrack-single-stim	s620	False	0
291.244	3.228	294.472	0.5061737103575942	draw_card	3.228	columbia_card_task_fmri	2.0	0.9375	89.0	-25.0	0.0625	16.0	1.0	1.0	-25.892519591262705	3.228	n/a	stim	poldrack-single-stim	s620	False	1
294.476	1.162	295.638	0.3936737103575941	draw_card	1.162	columbia_card_task_fmri	2.0	0.9333333333333332	89.0	-25.0	0.0666666666666666	16.0	2.0	1.0	-25.69328056434508	1.162	n/a	stim	poldrack-single-stim	s620	False	1
295.64	0.483	296.123	0.2651022817861658	draw_card	0.483	columbia_card_task_fmri	2.0	0.9285714285714286	89.0	-25.0	0.0714285714285714	16.0	3.0	1.0	-25.474788168030997	0.483	n/a	stim	poldrack-single-stim	s620	False	1
296.127	0.616	296.743	0.1167506334345172	draw_card	0.616	columbia_card_task_fmri	2.0	0.9230769230769232	89.0	-25.0	0.0769230769230769	16.0	4.0	1.0	-25.233769093268545	0.616	n/a	stim	poldrack-single-stim	s620	False	1
296.746	1.253	297.999	-0.0563262896424056	draw_card	1.253	columbia_card_task_fmri	2.0	0.9166666666666666	89.0	-25.0	0.0833333333333333	16.0	5.0	1.0	-24.96612937538608	1.253	n/a	stim	poldrack-single-stim	s620	False	1
298.002	1.706	299.708	-0.2608717441878606	end_round	1.706	columbia_card_task_fmri	2.0	0.9090909090909092	71.0	-25.0	0.0909090909090909	16.0	6.0	1.0	-24.66667784015374	1.706	5.0	stim	poldrack-single-stim	s620	False	1
300.462	1.5	299.711	n/a	-1.0	2.726	columbia_card_task_fmri	n/a	n/a	-1.0	n/a	n/a	n/a	n/a	n/a	n/a	n/a	n/a	ITI	poldrack-single-stim	s620	False	0
302.442	2.671	305.113	2.693673710357594	draw_card	2.671	columbia_card_task_fmri	9.0	0.9375	89.0	-95.0	0.0625	16.0	1.0	1.0	-7.2559112294683	2.671	n/a	stim	poldrack-single-stim	s620	False	1
305.116	0.757	305.873	2.2603403770242614	draw_card	0.757	columbia_card_task_fmri	9.0	0.9333333333333332	89.0	-95.0	0.0666666666666666	16.0	2.0	1.0	-6.488167145539244	0.757	n/a	stim	poldrack-single-stim	s620	False	1
305.877	0.816	306.693	1.765102281786166	draw_card	0.816	columbia_card_task_fmri	9.0	0.9285714285714286	89.0	-95.0	0.0714285714285714	16.0	3.0	1.0	-5.646252562306817	0.816	n/a	stim	poldrack-single-stim	s620	False	1
306.697	1.56	308.257	1.193673710357594	draw_card	1.56	columbia_card_task_fmri	9.0	0.9230769230769232	89.0	-95.0	0.0769230769230769	16.0	4.0	1.0	-4.717558295391402	1.56	n/a	stim	poldrack-single-stim	s620	False	1
308.261	0.679	308.94	0.5270070436909281	draw_card	0.679	columbia_card_task_fmri	9.0	0.9166666666666666	89.0	-95.0	0.0833333333333333	16.0	5.0	1.0	-3.686313979524833	0.679	n/a	stim	poldrack-single-stim	s620	False	1
308.943	0.66	309.603	-0.2608717441878608	end_round	0.66	columbia_card_task_fmri	9.0	0.9090909090909092	71.0	-95.0	0.0909090909090909	16.0	6.0	1.0	-2.5325227973451554	0.66	5.0	stim	poldrack-single-stim	s620	False	1
310.361	1.5	309.61	n/a	-1.0	2.386	columbia_card_task_fmri	n/a	n/a	-1.0	n/a	n/a	n/a	n/a	n/a	n/a	n/a	n/a	ITI	poldrack-single-stim	s620	False	0
312.001	3.671	315.672	4.2561737103575945	draw_card	3.671	columbia_card_task_fmri	11.0	0.9375	89.0	-100.0	0.0625	16.0	1.0	1.0	-5.561527995104992	3.671	n/a	stim	poldrack-single-stim	s620	False	1
315.675	0.594	316.269	3.7936737103575946	draw_card	0.594	columbia_card_task_fmri	11.0	0.9333333333333332	89.0	-100.0	0.0666666666666666	16.0	2.0	1.0	-4.742105954382129	0.594	n/a	stim	poldrack-single-stim	s620	False	1
316.273	1.353	317.626	3.265102281786167	draw_card	1.353	columbia_card_task_fmri	11.0	0.9285714285714286	89.0	-100.0	0.0714285714285714	16.0	3.0	1.0	-3.843521080953828	1.353	n/a	stim	poldrack-single-stim	s620	False	1
317.629	1.455	319.084	2.6552121718960566	draw_card	1.455	columbia_card_task_fmri	11.0	0.9230769230769232	89.0	-100.0	0.0769230769230769	16.0	4.0	1.0	-2.8523154870216665	1.455	n/a	stim	poldrack-single-stim	s620	False	1
319.089	0.759	319.848	1.943673710357594	end_round	0.759	columbia_card_task_fmri	11.0	0.9166666666666666	71.0	-100.0	0.0833333333333333	16.0	5.0	1.0	-1.751657330817299	0.759	4.0	stim	poldrack-single-stim	s620	False	1
320.603	1.5	319.852	n/a	-1.0	2.318	columbia_card_task_fmri	n/a	n/a	-1.0	n/a	n/a	n/a	n/a	n/a	n/a	n/a	n/a	ITI	poldrack-single-stim	s620	False	0
322.175	3.047	325.222	4.8186737103575945	draw_card	3.047	columbia_card_task_fmri	16.0	0.875	89.0	-75.0	0.125	16.0	1.0	2.0	-2.335003628885332	3.047	n/a	stim	poldrack-single-stim	s620	False	1
325.225	0.856	326.081	4.060340377024262	draw_card	0.856	columbia_card_task_fmri	16.0	0.8666666666666667	89.0	-75.0	0.1333333333333333	16.0	2.0	2.0	-1.4963899704169703	0.856	n/a	stim	poldrack-single-stim	s620	False	1
326.085	1.178	327.263	3.193673710357596	draw_card	1.178	columbia_card_task_fmri	16.0	0.8571428571428572	89.0	-75.0	0.1428571428571428	16.0	3.0	2.0	-0.5870923424401582	1.178	n/a	stim	poldrack-single-stim	s620	False	1
327.267	1.17	328.437	2.193673710357594	draw_card	1.17	columbia_card_task_fmri	16.0	0.8461538461538461	89.0	-75.0	0.1538461538461538	16.0	4.0	2.0	0.4024335698193653	1.17	n/a	stim	poldrack-single-stim	s620	False	1
328.439	0.756	329.195	1.027007043690928	end_round	0.756	columbia_card_task_fmri	16.0	0.8333333333333334	71.0	-75.0	0.1666666666666666	16.0	5.0	2.0	1.4832027062518662	0.756	4.0	stim	poldrack-single-stim	s620	False	1
329.95	1.5	329.199	n/a	-1.0	2.25	columbia_card_task_fmri	n/a	n/a	-1.0	n/a	n/a	n/a	n/a	n/a	n/a	n/a	n/a	ITI	poldrack-single-stim	s620	False	0
331.453	4.025	335.478	5.0686737103575945	draw_card	4.025	columbia_card_task_fmri	17.0	0.875	89.0	-80.0	0.125	16.0	1.0	2.0	-0.3507286914494756	4.025	n/a	stim	poldrack-single-stim	s620	False	1
335.482	0.564	336.046	4.260340377024263	draw_card	0.564	columbia_card_task_fmri	17.0	0.8666666666666667	89.0	-80.0	0.1333333333333333	16.0	2.0	2.0	0.5431803340878503	0.564	n/a	stim	poldrack-single-stim	s620	False	1
336.049	0.792	336.841	3.33653085321474	draw_card	0.792	columbia_card_task_fmri	17.0	0.8571428571428572	89.0	-80.0	0.1428571428571428	16.0	3.0	2.0	1.5124338641138309	0.792	3.0	stim	poldrack-single-stim	s620	False	0
337.596	1.5	336.845	n/a	-1.0	2.25	columbia_card_task_fmri	n/a	n/a	-1.0	n/a	n/a	n/a	n/a	n/a	n/a	n/a	n/a	ITI	poldrack-single-stim	s620	False	0
350.104	2.29	352.394	-0.639659622975738	draw_card	2.29	columbia_card_task_fmri	13.0	0.8333333333333334	89.0	-70.0	0.1666666666666666	6.0	1.0	1.0	-1.4981679626172737	2.29	n/a	stim	poldrack-single-stim	s620	False	1
352.398	0.682	353.08	-3.4063262896424056	end_round	0.682	columbia_card_task_fmri	13.0	0.8	71.0	-70.0	0.2	6.0	2.0	1.0	0.7695169353064699	0.682	1.0	stim	poldrack-single-stim	s620	False	1
353.836	1.5	353.085	n/a	-1.0	2.454	columbia_card_task_fmri	n/a	n/a	-1.0	n/a	n/a	n/a	n/a	n/a	n/a	n/a	n/a	ITI	poldrack-single-stim	s620	False	0
355.544	2.241	357.785	-0.639659622975738	draw_card	2.241	columbia_card_task_fmri	15.0	0.8333333333333334	89.0	-80.0	0.1666666666666666	6.0	1.0	1.0	2.9738914069933315	2.241	n/a	stim	poldrack-single-stim	s620	False	1
357.787	0.618	358.405	-3.806326289642406	draw_card	0.618	columbia_card_task_fmri	15.0	0.8	89.0	-80.0	0.2	6.0	2.0	1.0	5.569445580839897	0.618	n/a	stim	poldrack-single-stim	s620	False	1
358.408	0.56	358.968	-8.556326289642406	end_round	0.56	columbia_card_task_fmri	15.0	0.75	71.0	-80.0	0.25	6.0	3.0	1.0	8.70561463353473	0.56	2.0	stim	poldrack-single-stim	s620	False	1
359.722	1.5	358.971	n/a	-1.0	2.454	columbia_card_task_fmri	n/a	n/a	-1.0	n/a	n/a	n/a	n/a	n/a	n/a	n/a	n/a	ITI	poldrack-single-stim	s620	False	0
361.429	1.414	362.843	1.027007043690928	draw_card	1.414	columbia_card_task_fmri	16.0	0.8333333333333334	89.0	-75.0	0.1666666666666666	6.0	1.0	1.0	1.4832027062518662	1.414	n/a	stim	poldrack-single-stim	s620	False	1
362.846	0.49	363.336	-2.006326289642405	draw_card	0.49	columbia_card_task_fmri	16.0	0.8	89.0	-75.0	0.2	6.0	2.0	1.0	3.969467274733909	0.49	n/a	stim	poldrack-single-stim	s620	False	1
363.34	0.613	363.953	-6.5563262896424055	end_round	0.613	columbia_card_task_fmri	16.0	0.75	71.0	-75.0	0.25	6.0	3.0	1.0	6.973583865986548	0.613	2.0	stim	poldrack-single-stim	s620	False	1
364.707	1.5	363.956	n/a	-1.0	2.522	columbia_card_task_fmri	n/a	n/a	-1.0	n/a	n/a	n/a	n/a	n/a	n/a	n/a	n/a	ITI	poldrack-single-stim	s620	False	0
366.483	2.41	368.893	2.193673710357594	draw_card	2.41	columbia_card_task_fmri	21.0	0.75	89.0	-55.0	0.25	8.0	1.0	2.0	0.4784872747715667	2.41	1.0	stim	poldrack-single-stim	s620	False	0
369.649	1.5	368.898	n/a	-1.0	2.386	columbia_card_task_fmri	n/a	n/a	-1.0	n/a	n/a	n/a	n/a	n/a	n/a	n/a	n/a	ITI	poldrack-single-stim	s620	False	0
371.288	2.535	373.823	3.443673710357594	draw_card	2.535	columbia_card_task_fmri	26.0	0.75	89.0	-65.0	0.25	8.0	1.0	2.0	6.973583865986548	2.535	n/a	stim	poldrack-single-stim	s620	False	1
373.829	0.985	374.814	0.1936737103575977	draw_card	0.985	columbia_card_task_fmri	26.0	0.7142857142857143	89.0	-65.0	0.2857142857142857	8.0	2.0	2.0	8.679017830928025	0.985	n/a	stim	poldrack-single-stim	s620	False	1
374.818	0.955	375.773	-4.139659622975734	draw_card	0.955	columbia_card_task_fmri	26.0	0.6666666666666667	89.0	-65.0	0.3333333333333333	8.0	3.0	2.0	10.467200623703114	0.955	n/a	stim	poldrack-single-stim	s620	False	1
375.777	0.985	376.762	-10.206326289642409	draw_card	0.985	columbia_card_task_fmri	26.0	0.6	89.0	-65.0	0.4	8.0	4.0	2.0	12.150086046661803	0.985	4.0	stim	poldrack-single-stim	s620	False	0
377.519	1.5	376.768	n/a	-1.0	2.454	columbia_card_task_fmri	n/a	n/a	-1.0	n/a	n/a	n/a	n/a	n/a	n/a	n/a	n/a	ITI	poldrack-single-stim	s620	False	0
379.227	4.776	384.003	-1.472992956309072	draw_card	4.776	columbia_card_task_fmri	15.0	0.7777777777777778	89.0	-60.0	0.2222222222222222	9.0	1.0	2.0	-1.249968254542221	4.776	n/a	stim	poldrack-single-stim	s620	False	1
384.008	1.231	385.239	-3.556326289642406	draw_card	1.231	columbia_card_task_fmri	15.0	0.75	89.0	-60.0	0.25	9.0	2.0	2.0	0.0454821713191364	1.231	2.0	stim	poldrack-single-stim	s620	False	0
385.993	1.5	385.242	n/a	-1.0	2.522	columbia_card_task_fmri	n/a	n/a	-1.0	n/a	n/a	n/a	n/a	n/a	n/a	n/a	n/a	ITI	poldrack-single-stim	s620	False	0
387.769	4.36	392.129	2.893673710357595	draw_card	4.36	columbia_card_task_fmri	13.0	0.9	89.0	-90.0	0.1	10.0	1.0	1.0	-1.5304410181119508	4.36	n/a	stim	poldrack-single-stim	s620	False	1
392.133	0.608	392.741	1.7492292659131494	draw_card	0.608	columbia_card_task_fmri	13.0	0.8888888888888888	89.0	-90.0	0.1111111111111111	10.0	2.0	1.0	-0.0606914820937802	0.608	n/a	stim	poldrack-single-stim	s620	False	1
392.745	1.409	394.154	0.3186737103575942	draw_card	1.409	columbia_card_task_fmri	13.0	0.875	89.0	-90.0	0.125	10.0	3.0	1.0	1.6335507366505837	1.409	n/a	stim	poldrack-single-stim	s620	False	1
394.157	0.797	394.954	-1.5206120039281177	end_round	0.797	columbia_card_task_fmri	13.0	0.8571428571428572	71.0	-90.0	0.1428571428571428	10.0	4.0	1.0	3.6119643148554914	0.797	3.0	stim	poldrack-single-stim	s620	False	1
395.708	1.5	394.957	n/a	-1.0	2.522	columbia_card_task_fmri	n/a	n/a	-1.0	n/a	n/a	n/a	n/a	n/a	n/a	n/a	n/a	ITI	poldrack-single-stim	s620	False	0
397.483	1.704	399.187	4.1936737103575945	draw_card	1.704	columbia_card_task_fmri	15.0	0.9	89.0	-95.0	0.1	10.0	1.0	1.0	0.5695203588682602	1.704	n/a	stim	poldrack-single-stim	s620	False	1
399.191	0.512	399.703	2.971451488135371	draw_card	0.512	columbia_card_task_fmri	15.0	0.8888888888888888	89.0	-95.0	0.1111111111111111	10.0	2.0	1.0	2.139159412198381	0.512	n/a	stim	poldrack-single-stim	s620	False	1
399.707	0.477	400.184	1.443673710357594	draw_card	0.477	columbia_card_task_fmri	15.0	0.875	89.0	-95.0	0.125	10.0	3.0	1.0	3.948548098150269	0.477	n/a	stim	poldrack-single-stim	s620	False	1
400.188	0.575	400.763	-0.5206120039281193	end_round	0.575	columbia_card_task_fmri	15.0	0.8571428571428572	71.0	-95.0	0.1428571428571428	10.0	4.0	1.0	6.061420945054458	0.575	3.0	stim	poldrack-single-stim	s620	False	1
401.518	1.5	400.767	n/a	-1.0	2.59	columbia_card_task_fmri	n/a	n/a	-1.0	n/a	n/a	n/a	n/a	n/a	n/a	n/a	n/a	ITI	poldrack-single-stim	s620	False	0
403.362	1.359	404.721	-0.0063262896424051	draw_card	1.359	columbia_card_task_fmri	16.0	0.8	89.0	-65.0	0.2	10.0	1.0	2.0	-0.0304691168559045	1.359	n/a	stim	poldrack-single-stim	s620	False	1
404.725	0.603	405.328	-1.806326289642404	draw_card	0.603	columbia_card_task_fmri	16.0	0.7777777777777778	89.0	-65.0	0.2222222222222222	10.0	2.0	2.0	1.244425449671219	0.603	n/a	stim	poldrack-single-stim	s620	False	1
405.332	1.009	406.341	-4.0563262896424055	draw_card	1.009	columbia_card_task_fmri	16.0	0.75	89.0	-65.0	0.25	10.0	3.0	2.0	2.6435156062032377	1.009	3.0	stim	poldrack-single-stim	s620	False	0
407.098	1.5	406.347	n/a	-1.0	2.454	columbia_card_task_fmri	n/a	n/a	-1.0	n/a	n/a	n/a	n/a	n/a	n/a	n/a	n/a	ITI	poldrack-single-stim	s620	False	0
408.807	2.248	411.055	-1.306326289642406	end_round	2.248	columbia_card_task_fmri	7.0	0.9166666666666666	71.0	-95.0	0.0833333333333333	12.0	1.0	1.0	-4.239071984762479	2.248	0.0	stim	poldrack-single-stim	s620	False	1
411.809	1.5	411.058	n/a	-1.0	2.318	columbia_card_task_fmri	n/a	n/a	-1.0	n/a	n/a	n/a	n/a	n/a	n/a	n/a	n/a	ITI	poldrack-single-stim	s620	False	0
413.381	1.715	415.096	-0.639659622975738	draw_card	1.715	columbia_card_task_fmri	14.0	0.8333333333333334	89.0	-75.0	0.1666666666666666	12.0	1.0	2.0	0.7378591407242752	1.715	n/a	stim	poldrack-single-stim	s620	False	1
415.101	1.966	417.067	-1.9881444714605891	draw_card	1.966	columbia_card_task_fmri	14.0	0.8181818181818181	89.0	-75.0	0.1818181818181818	12.0	2.0	2.0	1.8963184970288296	1.966	n/a	stim	poldrack-single-stim	s620	False	1
417.07	1.144	418.214	-3.606326289642405	draw_card	1.144	columbia_card_task_fmri	14.0	0.8	89.0	-75.0	0.2	12.0	3.0	2.0	3.169478852919994	1.144	n/a	stim	poldrack-single-stim	s620	False	1
418.219	1.442	419.661	-5.5841040674201805	draw_card	1.442	columbia_card_task_fmri	14.0	0.7777777777777778	89.0	-75.0	0.2222222222222222	12.0	4.0	2.0	4.5702930663283325	1.442	4.0	stim	poldrack-single-stim	s620	False	0
420.421	1.5	419.67	n/a	-1.0	2.25	columbia_card_task_fmri	n/a	n/a	-1.0	n/a	n/a	n/a	n/a	n/a	n/a	n/a	n/a	ITI	poldrack-single-stim	s620	False	0
421.925	1.846	423.771	1.027007043690928	draw_card	1.846	columbia_card_task_fmri	15.0	0.8333333333333334	89.0	-70.0	0.1666666666666666	12.0	1.0	2.0	-0.7528262359821731	1.846	n/a	stim	poldrack-single-stim	s620	False	1
423.774	0.953	424.727	-0.2608717441878626	draw_card	0.953	columbia_card_task_fmri	15.0	0.8181818181818181	89.0	-70.0	0.1818181818181818	12.0	2.0	2.0	0.3535657756984136	0.953	n/a	stim	poldrack-single-stim	s620	False	1
424.731	1.838	426.569	-1.806326289642406	end_round	1.838	columbia_card_task_fmri	15.0	0.8	71.0	-70.0	0.2	12.0	3.0	2.0	1.5695036438213208	1.838	2.0	stim	poldrack-single-stim	s620	False	1
427.325	1.5	426.574	n/a	-1.0	2.658	columbia_card_task_fmri	n/a	n/a	-1.0	n/a	n/a	n/a	n/a	n/a	n/a	n/a	n/a	ITI	poldrack-single-stim	s620	False	0
429.236	2.535	431.771	-1.0063262896424052	draw_card	2.535	columbia_card_task_fmri	16.0	0.8	89.0	-70.0	0.2	15.0	1.0	3.0	1.969497229901364	2.535	n/a	stim	poldrack-single-stim	s620	False	1
431.775	0.518	432.293	-2.2348977182138348	draw_card	0.518	columbia_card_task_fmri	16.0	0.7857142857142857	89.0	-70.0	0.2142857142857142	15.0	2.0	3.0	2.857511196161674	0.518	n/a	stim	poldrack-single-stim	s620	False	1
432.298	0.691	432.989	-3.6524801357962526	draw_card	0.691	columbia_card_task_fmri	16.0	0.7692307692307692	89.0	-70.0	0.2307692307692307	15.0	3.0	3.0	3.8034234400192446	0.691	n/a	stim	poldrack-single-stim	s620	False	1
432.995	0.746	433.741	-5.3063262896424055	end_round	0.746	columbia_card_task_fmri	16.0	0.75	71.0	-70.0	0.25	15.0	4.0	3.0	4.8085480280151245	0.746	3.0	stim	poldrack-single-stim	s620	False	1
434.495	1.5	433.744	n/a	-1.0	2.454	columbia_card_task_fmri	n/a	n/a	-1.0	n/a	n/a	n/a	n/a	n/a	n/a	n/a	n/a	ITI	poldrack-single-stim	s620	False	0
436.202	1.94	438.142	-0.6188262896424058	draw_card	1.94	columbia_card_task_fmri	14.0	0.8125	89.0	-65.0	0.1875	16.0	1.0	3.0	-1.595762115251734	1.94	n/a	stim	poldrack-single-stim	s620	False	1
438.147	1.35	439.497	-1.6063262896424049	draw_card	1.35	columbia_card_task_fmri	14.0	0.8	89.0	-65.0	0.2	16.0	2.0	3.0	-0.8304544628180643	1.35	n/a	stim	poldrack-single-stim	s620	False	1
439.502	0.553	440.055	-2.734897718213833	end_round	0.553	columbia_card_task_fmri	14.0	0.7857142857142857	71.0	-65.0	0.2142857142857142	16.0	3.0	3.0	-0.0147230354248932	0.553	2.0	stim	poldrack-single-stim	s620	False	1
440.809	1.5	440.058	n/a	-1.0	2.386	columbia_card_task_fmri	n/a	n/a	-1.0	n/a	n/a	n/a	n/a	n/a	n/a	n/a	n/a	ITI	poldrack-single-stim	s620	False	0
442.449	1.519	443.968	-0.8688262896424058	draw_card	1.519	columbia_card_task_fmri	16.0	0.8125	89.0	-75.0	0.1875	16.0	1.0	3.0	3.0879061787098934	1.519	1.0	stim	poldrack-single-stim	s620	False	0
444.726	1.5	443.975	n/a	-1.0	2.59	columbia_card_task_fmri	n/a	n/a	-1.0	n/a	n/a	n/a	n/a	n/a	n/a	n/a	n/a	ITI	poldrack-single-stim	s620	False	0
446.57	1.698	448.268	3.393673710357595	draw_card	1.698	columbia_card_task_fmri	16.0	0.8666666666666667	89.0	-80.0	0.1333333333333333	15.0	1.0	2.0	0.2032516244835136	1.698	n/a	stim	poldrack-single-stim	s620	False	1
448.272	1.091	449.363	2.4793879960718823	draw_card	1.091	columbia_card_task_fmri	16.0	0.8571428571428572	89.0	-80.0	0.1428571428571428	15.0	2.0	2.0	1.1625125134625094	1.091	n/a	stim	poldrack-single-stim	s620	False	1
449.368	0.655	450.023	1.424442941126824	draw_card	0.655	columbia_card_task_fmri	16.0	0.8461538461538461	89.0	-80.0	0.1538461538461538	15.0	3.0	2.0	2.206409881083225	0.655	n/a	stim	poldrack-single-stim	s620	False	1
450.028	0.647	450.675	0.1936737103575959	draw_card	0.647	columbia_card_task_fmri	16.0	0.8333333333333334	89.0	-80.0	0.1666666666666666	15.0	4.0	2.0	3.3465638853523387	0.647	4.0	stim	poldrack-single-stim	s620	False	0
451.431	1.5	450.68	n/a	-1.0	2.318	columbia_card_task_fmri	n/a	n/a	-1.0	n/a	n/a	n/a	n/a	n/a	n/a	n/a	n/a	ITI	poldrack-single-stim	s620	False	0
453.003	1.182	454.185	4.260340377024263	draw_card	1.182	columbia_card_task_fmri	17.0	0.8666666666666667	89.0	-80.0	0.1333333333333333	15.0	1.0	2.0	0.5431803340878503	1.182	1.0	stim	poldrack-single-stim	s620	False	0
454.94	1.5	454.189	n/a	-1.0	2.59	columbia_card_task_fmri	n/a	n/a	-1.0	n/a	n/a	n/a	n/a	n/a	n/a	n/a	n/a	ITI	poldrack-single-stim	s620	False	0
456.785	1.37	458.155	0.1936737103575941	end_round	1.37	columbia_card_task_fmri	1.0	0.9375	71.0	-15.0	0.0625	16.0	1.0	1.0	-28.55322518299071	1.37	0.0	stim	poldrack-single-stim	s620	False	1
458.911	1.5	458.16	n/a	-1.0	2.386	columbia_card_task_fmri	n/a	n/a	-1.0	n/a	n/a	n/a	n/a	n/a	n/a	n/a	n/a	ITI	poldrack-single-stim	s620	False	0
460.552	3.88	464.432	3.318673710357594	draw_card	3.88	columbia_card_task_fmri	10.0	0.9375	89.0	-100.0	0.0625	16.0	1.0	1.0	-5.803583108931242	3.88	n/a	stim	poldrack-single-stim	s620	False	1
464.437	0.71	465.147	2.860340377024261	draw_card	0.71	columbia_card_task_fmri	10.0	0.9333333333333332	89.0	-100.0	0.0666666666666666	16.0	2.0	1.0	-4.991543622632673	0.71	n/a	stim	poldrack-single-stim	s620	False	1
465.153	0.8	465.953	2.336530853214738	draw_card	0.8	columbia_card_task_fmri	10.0	0.9285714285714286	89.0	-100.0	0.0714285714285714	16.0	3.0	1.0	-4.101054493781966	0.8	n/a	stim	poldrack-single-stim	s620	False	1
465.958	0.575	466.533	1.7321352488191333	end_round	0.575	columbia_card_task_fmri	10.0	0.9230769230769232	71.0	-100.0	0.0769230769230769	16.0	4.0	1.0	-3.1187790778948816	0.575	3.0	stim	poldrack-single-stim	s620	False	1
467.288	1.5	466.537	n/a	-1.0	2.318	columbia_card_task_fmri	n/a	n/a	-1.0	n/a	n/a	n/a	n/a	n/a	n/a	n/a	n/a	ITI	poldrack-single-stim	s620	False	0
468.861	2.059	470.92	3.943673710357594	draw_card	2.059	columbia_card_task_fmri	15.0	0.875	89.0	-75.0	0.125	16.0	1.0	2.0	-2.665715618804814	2.059	n/a	stim	poldrack-single-stim	s620	False	1
470.926	0.71	471.636	3.193673710357594	draw_card	0.71	columbia_card_task_fmri	15.0	0.8666666666666667	89.0	-75.0	0.1333333333333333	16.0	2.0	2.0	-1.8363178683921149	0.71	n/a	stim	poldrack-single-stim	s620	False	1
471.641	0.647	472.288	2.336530853214738	draw_card	0.647	columbia_card_task_fmri	15.0	0.8571428571428572	89.0	-75.0	0.1428571428571428	16.0	3.0	2.0	-0.9370129046365888	0.647	3.0	stim	poldrack-single-stim	s620	False	0
473.048	1.5	472.297	n/a	-1.0	2.318	columbia_card_task_fmri	n/a	n/a	-1.0	n/a	n/a	n/a	n/a	n/a	n/a	n/a	n/a	ITI	poldrack-single-stim	s620	False	0
474.621	2.649	477.27	4.1936737103575945	draw_card	2.649	columbia_card_task_fmri	16.0	0.875	89.0	-80.0	0.125	16.0	1.0	2.0	-0.6814415156121427	2.649	1.0	stim	poldrack-single-stim	s620	False	0
478.025	1.5	477.274	n/a	-1.0	2.318	columbia_card_task_fmri	n/a	n/a	-1.0	n/a	n/a	n/a	n/a	n/a	n/a	n/a	n/a	ITI	poldrack-single-stim	s620	False	0
479.599	4.362	483.961	1.381173710357594	draw_card	4.362	columbia_card_task_fmri	4.0	0.6875	89.0	-5.0	0.3125	16.0	1.0	5.0	-28.254942927957995	4.362	n/a	stim	poldrack-single-stim	s620	False	1
483.966	1.533	485.499	1.1936737103575945	draw_card	1.533	columbia_card_task_fmri	4.0	0.6666666666666667	89.0	-5.0	0.3333333333333333	16.0	2.0	5.0	-28.183989037833943	1.533	n/a	stim	poldrack-single-stim	s620	False	1
485.505	1.333	486.838	0.9793879960718797	draw_card	1.333	columbia_card_task_fmri	4.0	0.6428571428571428	89.0	-5.0	0.3571428571428571	16.0	3.0	5.0	-28.11428432695621	1.333	3.0	stim	poldrack-single-stim	s620	False	0
487.596	1.5	486.845	n/a	-1.0	2.386	columbia_card_task_fmri	n/a	n/a	-1.0	n/a	n/a	n/a	n/a	n/a	n/a	n/a	n/a	ITI	poldrack-single-stim	s620	False	0
489.237	1.98	491.217	-1.4729929563090702	draw_card	1.98	columbia_card_task_fmri	14.0	0.8333333333333334	89.0	-80.0	0.1666666666666666	6.0	1.0	1.0	2.6012190460335987	1.98	n/a	stim	poldrack-single-stim	s620	False	1
491.222	0.47	491.692	-4.606326289642404	end_round	0.47	columbia_card_task_fmri	14.0	0.8	71.0	-80.0	0.2	6.0	2.0	1.0	5.169450831227287	0.47	1.0	stim	poldrack-single-stim	s620	False	1
492.448	1.5	491.697	n/a	-1.0	2.25	columbia_card_task_fmri	n/a	n/a	-1.0	n/a	n/a	n/a	n/a	n/a	n/a	n/a	n/a	ITI	poldrack-single-stim	s620	False	0
493.954	2.586	496.54	0.1936737103575941	draw_card	2.586	columbia_card_task_fmri	15.0	0.8333333333333334	89.0	-75.0	0.1666666666666666	6.0	1.0	1.0	1.1105308544510706	2.586	n/a	stim	poldrack-single-stim	s620	False	1
496.545	0.586	497.131	-2.806326289642406	end_round	0.586	columbia_card_task_fmri	15.0	0.8	71.0	-75.0	0.2	6.0	2.0	1.0	3.569472999505095	0.586	1.0	stim	poldrack-single-stim	s620	False	1
497.888	1.5	497.137	n/a	-1.0	2.386	columbia_card_task_fmri	n/a	n/a	-1.0	n/a	n/a	n/a	n/a	n/a	n/a	n/a	n/a	ITI	poldrack-single-stim	s620	False	0
499.528	1.226	500.754	1.860340377024262	draw_card	1.226	columbia_card_task_fmri	16.0	0.8333333333333334	89.0	-70.0	0.1666666666666666	6.0	1.0	1.0	-0.3801551238483256	1.226	n/a	stim	poldrack-single-stim	s620	False	1
500.759	0.599	501.358	-1.0063262896424052	end_round	0.599	columbia_card_task_fmri	16.0	0.8	71.0	-70.0	0.2	6.0	2.0	1.0	1.969497229901364	0.599	1.0	stim	poldrack-single-stim	s620	False	1
502.115	1.5	501.364	n/a	-1.0	2.59	columbia_card_task_fmri	n/a	n/a	-1.0	n/a	n/a	n/a	n/a	n/a	n/a	n/a	n/a	ITI	poldrack-single-stim	s620	False	0
503.959	1.481	505.44	2.443673710357594	draw_card	1.481	columbia_card_task_fmri	23.0	0.75	89.0	-60.0	0.25	8.0	1.0	2.0	3.509528125477757	1.481	n/a	stim	poldrack-single-stim	s620	False	1
505.445	1.898	507.343	-0.5206120039281176	draw_card	1.898	columbia_card_task_fmri	23.0	0.7142857142857143	89.0	-60.0	0.2857142857142857	8.0	2.0	2.0	5.065030190874118	1.898	n/a	stim	poldrack-single-stim	s620	False	1
507.348	3.064	510.412	-4.47299295630907	draw_card	3.064	columbia_card_task_fmri	23.0	0.6666666666666667	89.0	-60.0	0.3333333333333333	8.0	3.0	2.0	6.696006596043439	3.064	3.0	stim	poldrack-single-stim	s620	False	0
511.167	1.5	510.416	n/a	-1.0	2.658	columbia_card_task_fmri	n/a	n/a	-1.0	n/a	n/a	n/a	n/a	n/a	n/a	n/a	n/a	ITI	poldrack-single-stim	s620	False	0
513.08	2.124	515.204	2.943673710357594	draw_card	2.124	columbia_card_task_fmri	27.0	0.75	89.0	-70.0	0.25	8.0	1.0	2.0	9.571630637093108	2.124	1.0	stim	poldrack-single-stim	s620	False	0
515.961	1.5	515.21	n/a	-1.0	2.386	columbia_card_task_fmri	n/a	n/a	-1.0	n/a	n/a	n/a	n/a	n/a	n/a	n/a	n/a	ITI	poldrack-single-stim	s620	False	0
517.602	1.709	519.311	-1.806326289642404	draw_card	1.709	columbia_card_task_fmri	16.0	0.7777777777777778	89.0	-65.0	0.2222222222222222	9.0	1.0	2.0	1.244425449671219	1.709	1.0	stim	poldrack-single-stim	s620	False	0
520.07	1.5	519.319	n/a	-1.0	2.386	columbia_card_task_fmri	n/a	n/a	-1.0	n/a	n/a	n/a	n/a	n/a	n/a	n/a	n/a	ITI	poldrack-single-stim	s620	False	0
521.712	2.334	524.046	3.393673710357595	draw_card	2.334	columbia_card_task_fmri	13.0	0.9	89.0	-85.0	0.1	10.0	1.0	1.0	-3.030410052238153	2.334	n/a	stim	poldrack-single-stim	s620	False	1
524.051	0.765	524.816	2.304784821468705	draw_card	0.765	columbia_card_task_fmri	13.0	0.8888888888888888	89.0	-85.0	0.1111111111111111	10.0	2.0	1.0	-1.6320103248071298	0.765	2.0	stim	poldrack-single-stim	s620	False	0
525.571	1.5	524.82	n/a	-1.0	2.25	columbia_card_task_fmri	n/a	n/a	-1.0	n/a	n/a	n/a	n/a	n/a	n/a	n/a	n/a	ITI	poldrack-single-stim	s620	False	0
527.076	1.537	528.613	-1.6063262896424049	draw_card	1.537	columbia_card_task_fmri	14.0	0.8	89.0	-65.0	0.2	10.0	1.0	2.0	-0.8304544628180643	1.537	n/a	stim	poldrack-single-stim	s620	False	1
528.618	0.977	529.595	-3.3618818451979595	draw_card	0.977	columbia_card_task_fmri	14.0	0.7777777777777778	89.0	-65.0	0.2222222222222222	10.0	2.0	2.0	0.4129601296597727	0.977	2.0	stim	poldrack-single-stim	s620	False	0
530.35	1.5	529.599	n/a	-1.0	2.318	columbia_card_task_fmri	n/a	n/a	-1.0	n/a	n/a	n/a	n/a	n/a	n/a	n/a	n/a	ITI	poldrack-single-stim	s620	False	0
531.923	1.243	533.166	-0.2063262896424044	draw_card	1.243	columbia_card_task_fmri	17.0	0.8	89.0	-70.0	0.2	10.0	1.0	2.0	2.36949096342439	1.243	n/a	stim	poldrack-single-stim	s620	False	1
533.17	1.028	534.198	-2.139659622975738	draw_card	1.028	columbia_card_task_fmri	17.0	0.7777777777777778	89.0	-70.0	0.2222222222222222	10.0	2.0	2.0	3.738825299071287	1.028	2.0	stim	poldrack-single-stim	s620	False	0
534.953	1.5	534.202	n/a	-1.0	2.25	columbia_card_task_fmri	n/a	n/a	-1.0	n/a	n/a	n/a	n/a	n/a	n/a	n/a	n/a	ITI	poldrack-single-stim	s620	False	0
536.457	1.308	537.765	-1.472992956309072	draw_card	1.308	columbia_card_task_fmri	13.0	0.8333333333333334	89.0	-75.0	0.1666666666666666	12.0	1.0	2.0	0.3651875697784135	1.308	n/a	stim	poldrack-single-stim	s620	False	1
537.77	0.592	538.362	-2.806326289642408	draw_card	0.592	columbia_card_task_fmri	13.0	0.8181818181818181	89.0	-75.0	0.1818181818181818	12.0	2.0	2.0	1.5106300975793232	0.592	2.0	stim	poldrack-single-stim	s620	False	0
539.117	1.5	538.366	n/a	-1.0	2.25	columbia_card_task_fmri	n/a	n/a	-1.0	n/a	n/a	n/a	n/a	n/a	n/a	n/a	n/a	ITI	poldrack-single-stim	s620	False	0
540.621	2.214	542.835	0.1936737103575959	draw_card	2.214	columbia_card_task_fmri	14.0	0.8333333333333334	89.0	-70.0	0.1666666666666666	12.0	1.0	2.0	-1.1254971842131454	2.214	n/a	stim	poldrack-single-stim	s620	False	1
542.841	0.948	543.789	-1.079053562369681	draw_card	0.948	columbia_card_task_fmri	14.0	0.8181818181818181	89.0	-70.0	0.1818181818181818	12.0	2.0	2.0	-0.0321220220497266	0.948	n/a	stim	poldrack-single-stim	s620	False	1
543.794	1.056	544.85	-2.606326289642405	draw_card	1.056	columbia_card_task_fmri	14.0	0.8	89.0	-70.0	0.2	12.0	3.0	2.0	1.169510210449879	1.056	n/a	stim	poldrack-single-stim	s620	False	1
544.855	1.76	546.615	-4.472992956309072	draw_card	1.76	columbia_card_task_fmri	14.0	0.7777777777777778	89.0	-70.0	0.2222222222222222	12.0	4.0	2.0	2.491624688521924	1.76	n/a	stim	poldrack-single-stim	s620	False	1
546.619	4.166	550.785	-6.8063262896424055	end_round	4.166	columbia_card_task_fmri	14.0	0.75	71.0	-70.0	0.25	12.0	5.0	2.0	3.9425346151905742	4.166	4.0	stim	poldrack-single-stim	s620	False	1
551.54	1.5	550.789	n/a	-1.0	2.386	columbia_card_task_fmri	n/a	n/a	-1.0	n/a	n/a	n/a	n/a	n/a	n/a	n/a	n/a	ITI	poldrack-single-stim	s620	False	0
553.181	4.239	557.42	0.1936737103575959	draw_card	4.239	columbia_card_task_fmri	16.0	0.8333333333333334	89.0	-80.0	0.1666666666666666	12.0	1.0	2.0	3.3465638853523387	4.239	n/a	stim	poldrack-single-stim	s620	False	1
557.425	0.591	558.016	-1.2608717441878627	draw_card	0.591	columbia_card_task_fmri	16.0	0.8181818181818181	89.0	-80.0	0.1818181818181818	12.0	2.0	2.0	4.5961409147046055	0.591	n/a	stim	poldrack-single-stim	s620	False	1
558.022	0.648	558.67	-3.006326289642405	draw_card	0.648	columbia_card_task_fmri	16.0	0.8	89.0	-80.0	0.2	12.0	3.0	2.0	5.96944043983347	0.648	n/a	stim	poldrack-single-stim	s620	False	1
558.675	0.673	559.348	-5.139659622975739	draw_card	0.673	columbia_card_task_fmri	16.0	0.7777777777777778	89.0	-80.0	0.2222222222222222	12.0	4.0	2.0	7.480434074977403	0.673	n/a	stim	poldrack-single-stim	s620	False	1
559.353	1.173	560.526	-7.806326289642405	draw_card	1.173	columbia_card_task_fmri	16.0	0.75	89.0	-80.0	0.25	12.0	5.0	2.0	9.138622586355211	1.173	5.0	stim	poldrack-single-stim	s620	False	0
561.281	1.5	560.53	n/a	-1.0	2.386	columbia_card_task_fmri	n/a	n/a	-1.0	n/a	n/a	n/a	n/a	n/a	n/a	n/a	n/a	ITI	poldrack-single-stim	s620	False	0
562.921	2.681	565.602	-0.0063262896424051	draw_card	2.681	columbia_card_task_fmri	16.0	0.8	89.0	-65.0	0.2	15.0	1.0	3.0	-0.0304691168559045	2.681	n/a	stim	poldrack-single-stim	s620	False	1
565.607	1.175	566.782	-1.1634691467852618	draw_card	1.175	columbia_card_task_fmri	16.0	0.7857142857142857	89.0	-65.0	0.2142857142857142	15.0	2.0	3.0	0.8059144859367606	1.175	n/a	stim	poldrack-single-stim	s620	False	1
566.787	1.783	568.57	-2.4986339819501	draw_card	1.783	columbia_card_task_fmri	16.0	0.7692307692307692	89.0	-65.0	0.2307692307692307	15.0	3.0	3.0	1.696830168834822	1.783	n/a	stim	poldrack-single-stim	s620	False	1
568.574	1.581	570.155	-4.0563262896424055	draw_card	1.581	columbia_card_task_fmri	16.0	0.75	89.0	-65.0	0.25	15.0	4.0	3.0	2.6435156062032377	1.581	n/a	stim	poldrack-single-stim	s620	False	1
570.16	3.697	573.857	-5.897235380551495	draw_card	3.697	columbia_card_task_fmri	16.0	0.7272727272727273	89.0	-65.0	0.2727272727272727	15.0	5.0	3.0	3.6437754111030287	3.697	5.0	stim	poldrack-single-stim	s620	False	0
574.616	1.5	573.865	n/a	-1.0	2.726	columbia_card_task_fmri	n/a	n/a	-1.0	n/a	n/a	n/a	n/a	n/a	n/a	n/a	n/a	ITI	poldrack-single-stim	s620	False	0
576.597	1.716	578.313	-1.681326289642406	draw_card	1.716	columbia_card_task_fmri	15.0	0.8125	89.0	-75.0	0.1875	16.0	1.0	3.0	2.697599670664715	1.716	1.0	stim	poldrack-single-stim	s620	False	0
579.071	1.5	578.32	n/a	-1.0	2.454	columbia_card_task_fmri	n/a	n/a	-1.0	n/a	n/a	n/a	n/a	n/a	n/a	n/a	n/a	ITI	poldrack-single-stim	s620	False	0
580.78	0.904	581.684	-1.118826289642406	draw_card	0.904	columbia_card_task_fmri	14.0	0.6875	89.0	-35.0	0.3125	16.0	1.0	5.0	-9.718114350242605	0.904	n/a	stim	poldrack-single-stim	s620	False	1
581.69	2.942	584.632	-2.139659622975738	draw_card	2.942	columbia_card_task_fmri	14.0	0.6666666666666667	89.0	-35.0	0.3333333333333333	16.0	2.0	5.0	-9.33141452210346	2.942	2.0	stim	poldrack-single-stim	s620	False	0
585.388	1.5	584.637	n/a	-1.0	2.318	columbia_card_task_fmri	n/a	n/a	-1.0	n/a	n/a	n/a	n/a	n/a	n/a	n/a	n/a	ITI	poldrack-single-stim	s620	False	0
586.962	1.802	588.764	4.060340377024262	draw_card	1.802	columbia_card_task_fmri	16.0	0.8666666666666667	89.0	-75.0	0.1333333333333333	15.0	1.0	2.0	-1.4963899704169703	1.802	n/a	stim	poldrack-single-stim	s620	False	1
588.769	1.581	590.35	3.193673710357596	draw_card	1.581	columbia_card_task_fmri	16.0	0.8571428571428572	89.0	-75.0	0.1428571428571428	15.0	2.0	2.0	-0.5870923424401582	1.581	n/a	stim	poldrack-single-stim	s620	False	1
590.355	1.29	591.645	2.193673710357594	draw_card	1.29	columbia_card_task_fmri	16.0	0.8461538461538461	89.0	-75.0	0.1538461538461538	15.0	3.0	2.0	0.4024335698193653	1.29	n/a	stim	poldrack-single-stim	s620	False	1
591.65	1.227	592.877	1.027007043690928	draw_card	1.227	columbia_card_task_fmri	16.0	0.8333333333333334	89.0	-75.0	0.1666666666666666	15.0	4.0	2.0	1.4832027062518662	1.227	n/a	stim	poldrack-single-stim	s620	False	1
592.883	4.187	597.07	-0.3517808350969525	end_round	4.187	columbia_card_task_fmri	16.0	0.8181818181818181	71.0	-75.0	0.1818181818181818	15.0	5.0	2.0	2.667695705268024	4.187	4.0	stim	poldrack-single-stim	s620	False	1
597.83	1.5	597.079	n/a	-1.0	2.318	columbia_card_task_fmri	n/a	n/a	-1.0	n/a	n/a	n/a	n/a	n/a	n/a	n/a	n/a	ITI	poldrack-single-stim	s620	False	0
599.404	1.823	601.227	4.727007043690928	draw_card	1.823	columbia_card_task_fmri	16.0	0.8666666666666667	89.0	-70.0	0.1333333333333333	15.0	1.0	2.0	-3.1960278937694437	1.823	n/a	stim	poldrack-single-stim	s620	False	1
601.232	1.571	602.803	3.907959424643309	draw_card	1.571	columbia_card_task_fmri	16.0	0.8571428571428572	89.0	-70.0	0.1428571428571428	15.0	2.0	2.0	-2.336693631627199	1.571	n/a	stim	poldrack-single-stim	s620	False	1
602.809	1.436	604.245	2.9629044795883623	draw_card	1.436	columbia_card_task_fmri	16.0	0.8461538461538461	89.0	-70.0	0.1538461538461538	15.0	3.0	2.0	-1.4015392822138573	1.436	n/a	stim	poldrack-single-stim	s620	False	1
604.25	1.29	605.54	1.860340377024262	draw_card	1.29	columbia_card_task_fmri	16.0	0.8333333333333334	89.0	-70.0	0.1666666666666666	15.0	4.0	2.0	-0.3801551238483256	1.29	n/a	stim	poldrack-single-stim	s620	False	1
605.545	3.124	608.669	0.5573100739939557	end_round	3.124	columbia_card_task_fmri	16.0	0.8181818181818181	71.0	-70.0	0.1818181818181818	15.0	5.0	2.0	0.7392537318185504	3.124	4.0	stim	poldrack-single-stim	s620	False	1
609.425	1.5	608.674	n/a	-1.0	2.59	columbia_card_task_fmri	n/a	n/a	-1.0	n/a	n/a	n/a	n/a	n/a	n/a	n/a	n/a	ITI	poldrack-single-stim	s620	False	0
611.271	2.159	613.43	2.068673710357594	end_round	2.159	columbia_card_task_fmri	8.0	0.9375	71.0	-90.0	0.0625	16.0	1.0	1.0	-8.708234374612825	2.159	0.0	stim	poldrack-single-stim	s620	False	1
614.185	1.5	613.434	n/a	-1.0	2.726	columbia_card_task_fmri	n/a	n/a	-1.0	n/a	n/a	n/a	n/a	n/a	n/a	n/a	n/a	ITI	poldrack-single-stim	s620	False	0
616.166	2.593	618.759	3.631173710357594	draw_card	2.593	columbia_card_task_fmri	10.0	0.9375	89.0	-95.0	0.0625	16.0	1.0	1.0	-7.0138568651926185	2.593	n/a	stim	poldrack-single-stim	s620	False	1
618.764	0.567	619.331	3.193673710357595	draw_card	0.567	columbia_card_task_fmri	10.0	0.9333333333333332	89.0	-95.0	0.0666666666666666	16.0	2.0	1.0	-6.238730204659618	0.567	2.0	stim	poldrack-single-stim	s620	False	0
620.088	1.5	619.337	n/a	-1.0	2.522	columbia_card_task_fmri	n/a	n/a	-1.0	n/a	n/a	n/a	n/a	n/a	n/a	n/a	n/a	ITI	poldrack-single-stim	s620	False	0
621.865	2.528	624.393	4.5686737103575945	draw_card	2.528	columbia_card_task_fmri	15.0	0.875	89.0	-70.0	0.125	16.0	1.0	2.0	-4.319273124733826	2.528	n/a	stim	poldrack-single-stim	s620	False	1
624.398	0.672	625.07	3.86034037702426	draw_card	0.672	columbia_card_task_fmri	15.0	0.8666666666666667	89.0	-70.0	0.1333333333333333	16.0	2.0	2.0	-3.5359549808396373	0.672	n/a	stim	poldrack-single-stim	s620	False	1
625.075	1.203	626.278	3.050816567500452	draw_card	1.203	columbia_card_task_fmri	15.0	0.8571428571428572	89.0	-70.0	0.1428571428571428	16.0	3.0	2.0	-2.6866134060719737	1.203	n/a	stim	poldrack-single-stim	s620	False	1
626.283	1.267	627.55	2.116750633434516	draw_card	1.267	columbia_card_task_fmri	15.0	0.8461538461538461	89.0	-70.0	0.1538461538461538	16.0	4.0	2.0	-1.762333383795042	1.267	n/a	stim	poldrack-single-stim	s620	False	1
627.556	1.099	628.655	1.027007043690928	end_round	1.099	columbia_card_task_fmri	15.0	0.8333333333333334	71.0	-70.0	0.1666666666666666	16.0	5.0	2.0	-0.7528262359821731	1.099	4.0	stim	poldrack-single-stim	s620	False	1
629.415	1.5	628.664	n/a	-1.0	3.134	columbia_card_task_fmri	n/a	n/a	-1.0	n/a	n/a	n/a	n/a	n/a	n/a	n/a	n/a	ITI	poldrack-single-stim	s620	False	0
631.805	1.373	633.178	3.568673710357594	draw_card	1.373	columbia_card_task_fmri	16.0	0.875	89.0	-85.0	0.125	16.0	1.0	2.0	0.97212381105507	1.373	n/a	stim	poldrack-single-stim	s620	False	1
633.184	0.7	633.884	2.7270070436909277	draw_card	0.7	columbia_card_task_fmri	16.0	0.8666666666666667	89.0	-85.0	0.1333333333333333	16.0	2.0	2.0	1.9028963456714152	0.7	n/a	stim	poldrack-single-stim	s620	False	1
633.891	0.582	634.473	1.765102281786167	draw_card	0.582	columbia_card_task_fmri	16.0	0.8571428571428572	89.0	-85.0	0.1428571428571428	16.0	3.0	2.0	2.912120406387814	0.582	n/a	stim	poldrack-single-stim	s620	False	1
634.479	0.587	635.066	0.6552121718960541	draw_card	0.587	columbia_card_task_fmri	16.0	0.8461538461538461	89.0	-85.0	0.1538461538461538	16.0	4.0	2.0	4.010389137846339	0.587	n/a	stim	poldrack-single-stim	s620	False	1
635.072	0.862	635.934	-0.639659622975738	draw_card	0.862	columbia_card_task_fmri	16.0	0.8333333333333334	89.0	-85.0	0.1666666666666666	16.0	5.0	2.0	5.20992791609109	0.862	n/a	stim	poldrack-single-stim	s620	False	1
635.94	0.934	636.874	-2.169962653278771	end_round	0.934	columbia_card_task_fmri	16.0	0.8181818181818181	71.0	-85.0	0.1818181818181818	16.0	6.0	2.0	6.52458887954905	0.934	5.0	stim	poldrack-single-stim	s620	False	1
637.629	1.5	636.878	n/a	-1.0	2.386	columbia_card_task_fmri	n/a	n/a	-1.0	n/a	n/a	n/a	n/a	n/a	n/a	n/a	n/a	ITI	poldrack-single-stim	s620	False	0
