onset	duration	movement_onset	CTI	block_duration	correct	correct_response	cue	cue_switch	experiment_exp_id	key_press	response_time	stim_color	stim_number	switch_type	task	task_switch	trial_id	trial_type	worker_id	first_trial_of_block	junk
4.416	1.0	5.758	0.9	2.272	True	71.0	High-Low	stay	twobytwo	71.0	0.442	orange	9.0	cue_stay	magnitude	stay	stim	poldrack-single-stim	s620	1	False
7.592	1.0	8.858	0.9	2.136	False	71.0	Color	n/a	twobytwo	89.0	0.366	blue	8.0	task_switch	color	switch	stim	poldrack-single-stim	s620	0	False
9.837	1.0	10.98	0.1	2.0	True	71.0	Orange-Blue	switch	twobytwo	71.0	1.043	blue	2.0	cue_switch	color	stay	stim	poldrack-single-stim	s620	0	False
11.941	1.0	12.872	0.1	2.0	True	89.0	Magnitude	n/a	twobytwo	89.0	0.831	orange	2.0	task_switch	magnitude	switch	stim	poldrack-single-stim	s620	0	False
14.845	1.0	16.65	0.9	2.136	False	89.0	Orange-Blue	n/a	twobytwo	71.0	0.905	orange	8.0	task_switch	color	switch	stim	poldrack-single-stim	s620	0	False
17.087	1.0	18.131	0.1	2.0	True	71.0	High-Low	n/a	twobytwo	71.0	0.944	orange	7.0	task_switch	magnitude	switch	stim	poldrack-single-stim	s620	0	False
19.991	1.0	21.316	0.9	2.136	True	89.0	Color	n/a	twobytwo	89.0	0.425	orange	9.0	task_switch	color	switch	stim	poldrack-single-stim	s620	0	False
22.237	1.0	22.937	0.1	2.408	True	71.0	Color	stay	twobytwo	71.0	0.6	blue	6.0	cue_stay	color	stay	stim	poldrack-single-stim	s620	0	False
25.555	1.0	26.885	0.9	2.136	True	71.0	High-Low	n/a	twobytwo	71.0	0.43	orange	8.0	task_switch	magnitude	switch	stim	poldrack-single-stim	s620	0	False
27.802	1.0	28.896	0.1	2.0	True	89.0	Orange-Blue	n/a	twobytwo	89.0	0.994	orange	9.0	task_switch	color	switch	stim	poldrack-single-stim	s620	0	False
29.906	1.0	30.785	0.1	2.136	False	89.0	Magnitude	n/a	twobytwo	71.0	0.779	blue	4.0	task_switch	magnitude	switch	stim	poldrack-single-stim	s620	0	False
32.946	1.0	34.421	0.9	2.272	True	71.0	Magnitude	stay	twobytwo	71.0	0.575	blue	8.0	cue_stay	magnitude	stay	stim	poldrack-single-stim	s620	0	False
35.325	1.0	36.307	0.1	2.0	True	71.0	Color	n/a	twobytwo	71.0	0.882	blue	3.0	task_switch	color	switch	stim	poldrack-single-stim	s620	0	False
37.427	1.0	38.222	0.1	2.408	True	89.0	Magnitude	n/a	twobytwo	89.0	0.695	blue	3.0	task_switch	magnitude	switch	stim	poldrack-single-stim	s620	0	False
40.742	1.0	42.09	0.9	2.0	True	71.0	High-Low	switch	twobytwo	71.0	0.448	blue	7.0	cue_switch	magnitude	stay	stim	poldrack-single-stim	s620	0	False
43.646	1.0	44.893	0.9	2.136	True	89.0	Color	n/a	twobytwo	89.0	0.347	orange	1.0	task_switch	color	switch	stim	poldrack-single-stim	s620	0	False
45.886	1.0	47.095	0.1	2.408	False	89.0	High-Low	n/a	twobytwo	71.0	1.109	blue	1.0	task_switch	magnitude	switch	stim	poldrack-single-stim	s620	0	False
49.199	1.0	50.498	0.9	2.136	True	71.0	Orange-Blue	n/a	twobytwo	71.0	0.399	blue	1.0	task_switch	color	switch	stim	poldrack-single-stim	s620	0	False
52.238	1.0	53.613	0.9	2.408	True	71.0	Magnitude	n/a	twobytwo	71.0	0.475	blue	7.0	task_switch	magnitude	switch	stim	poldrack-single-stim	s620	0	False
54.752	1.0	55.587	0.1	2.136	False	89.0	Color	n/a	twobytwo	71.0	0.735	orange	9.0	task_switch	color	switch	stim	poldrack-single-stim	s620	0	False
56.994	1.0	57.849	0.1	2.0	True	71.0	Orange-Blue	switch	twobytwo	71.0	0.755	blue	9.0	cue_switch	color	stay	stim	poldrack-single-stim	s620	0	False
59.098	1.0	59.887	0.1	2.272	True	71.0	Orange-Blue	stay	twobytwo	71.0	0.689	blue	2.0	cue_stay	color	stay	stim	poldrack-single-stim	s620	0	False
61.479	1.0	62.202	0.1	2.0	True	71.0	Magnitude	n/a	twobytwo	71.0	0.623	blue	9.0	task_switch	magnitude	switch	stim	poldrack-single-stim	s620	0	False
64.381	1.0	65.637	0.9	2.272	True	89.0	Color	n/a	twobytwo	89.0	0.356	orange	7.0	task_switch	color	switch	stim	poldrack-single-stim	s620	0	False
67.562	1.0	69.094	0.9	2.272	True	71.0	Orange-Blue	switch	twobytwo	71.0	0.632	blue	7.0	cue_switch	color	stay	stim	poldrack-single-stim	s620	0	False
70.742	1.0	72.08	0.9	2.952	True	89.0	Color	switch	twobytwo	89.0	0.438	orange	7.0	cue_switch	color	stay	stim	poldrack-single-stim	s620	0	False
73.802	1.0	74.679	0.1	2.68	True	71.0	Color	stay	twobytwo	71.0	0.777	blue	2.0	cue_stay	color	stay	stim	poldrack-single-stim	s620	0	False
77.386	1.0	78.656	0.9	2.136	True	89.0	Color	stay	twobytwo	89.0	0.37	orange	3.0	cue_stay	color	stay	stim	poldrack-single-stim	s620	0	False
80.428	1.0	81.836	0.9	2.272	True	71.0	Color	stay	twobytwo	71.0	0.508	blue	3.0	cue_stay	color	stay	stim	poldrack-single-stim	s620	0	False
83.603	1.0	85.087	0.9	2.272	True	89.0	Orange-Blue	switch	twobytwo	89.0	0.584	orange	8.0	cue_switch	color	stay	stim	poldrack-single-stim	s620	0	False
85.982	1.0	86.776	0.1	2.136	True	71.0	Magnitude	n/a	twobytwo	71.0	0.694	blue	8.0	task_switch	magnitude	switch	stim	poldrack-single-stim	s620	0	False
88.221	1.0	89.139	0.1	2.408	False	71.0	High-Low	switch	twobytwo	89.0	0.818	orange	7.0	cue_switch	magnitude	stay	stim	poldrack-single-stim	s620	0	False
91.535	1.0	93.111	0.9	2.136	True	71.0	Magnitude	switch	twobytwo	71.0	0.676	orange	6.0	cue_switch	magnitude	stay	stim	poldrack-single-stim	s620	0	False
94.576	1.0	95.897	0.9	2.136	True	89.0	High-Low	switch	twobytwo	89.0	0.421	blue	3.0	cue_switch	magnitude	stay	stim	poldrack-single-stim	s620	0	False
96.818	1.0	97.851	0.1	2.0	True	71.0	Magnitude	switch	twobytwo	71.0	0.933	blue	6.0	cue_switch	magnitude	stay	stim	poldrack-single-stim	s620	0	False
98.922	1.0	99.726	0.1	2.0	True	89.0	Magnitude	stay	twobytwo	89.0	0.704	orange	3.0	cue_stay	magnitude	stay	stim	poldrack-single-stim	s620	0	False
101.028	1.0	101.714	0.1	2.0	True	89.0	High-Low	switch	twobytwo	89.0	0.586	orange	1.0	cue_switch	magnitude	stay	stim	poldrack-single-stim	s620	0	False
103.132	1.0	103.771	0.1	2.0	True	89.0	Magnitude	switch	twobytwo	89.0	0.539	orange	2.0	cue_switch	magnitude	stay	stim	poldrack-single-stim	s620	0	False
105.239	1.0	105.878	0.1	2.0	True	89.0	High-Low	switch	twobytwo	89.0	0.539	orange	4.0	cue_switch	magnitude	stay	stim	poldrack-single-stim	s620	0	False
108.143	1.0	109.343	0.9	2.272	False	89.0	Magnitude	switch	twobytwo	71.0	0.3	orange	3.0	cue_switch	magnitude	stay	stim	poldrack-single-stim	s620	0	False
110.52	1.0	110.519	0.1	2.408	False	89.0	High-Low	switch	twobytwo	-1.0	n/a	blue	2.0	cue_switch	magnitude	stay	stim	poldrack-single-stim	s620	0	False
113.033	1.0	113.675	0.1	2.0	True	89.0	High-Low	stay	twobytwo	89.0	0.542	blue	2.0	cue_stay	magnitude	stay	stim	poldrack-single-stim	s620	0	False
115.142	1.0	116.191	0.1	2.136	False	89.0	Orange-Blue	n/a	twobytwo	71.0	0.949	orange	7.0	task_switch	color	switch	stim	poldrack-single-stim	s620	0	False
117.384	1.0	118.066	0.1	2.0	True	71.0	Color	switch	twobytwo	71.0	0.582	blue	9.0	cue_switch	color	stay	stim	poldrack-single-stim	s620	0	False
119.488	1.0	120.467	0.1	2.136	True	71.0	Magnitude	n/a	twobytwo	71.0	0.879	blue	9.0	task_switch	magnitude	switch	stim	poldrack-single-stim	s620	0	False
121.727	1.0	122.71	0.1	2.544	True	89.0	Color	n/a	twobytwo	89.0	0.883	orange	9.0	task_switch	color	switch	stim	poldrack-single-stim	s620	0	False
124.378	1.0	125.346	0.1	2.68	True	71.0	High-Low	n/a	twobytwo	71.0	0.868	orange	7.0	task_switch	magnitude	switch	stim	poldrack-single-stim	s620	0	False
127.966	1.0	129.333	0.9	3.088	True	89.0	Magnitude	switch	twobytwo	89.0	0.467	blue	4.0	cue_switch	magnitude	stay	stim	poldrack-single-stim	s620	0	False
131.958	1.0	133.455	0.9	2.136	True	89.0	High-Low	switch	twobytwo	89.0	0.597	orange	4.0	cue_switch	magnitude	stay	stim	poldrack-single-stim	s620	0	False
134.201	1.0	135.035	0.1	2.544	True	71.0	Magnitude	switch	twobytwo	71.0	0.734	orange	6.0	cue_switch	magnitude	stay	stim	poldrack-single-stim	s620	0	False
137.651	1.0	139.078	0.9	2.0	True	89.0	High-Low	switch	twobytwo	89.0	0.527	blue	4.0	cue_switch	magnitude	stay	stim	poldrack-single-stim	s620	0	False
140.554	1.0	141.961	0.9	2.136	True	71.0	Orange-Blue	n/a	twobytwo	71.0	0.507	blue	6.0	task_switch	color	switch	stim	poldrack-single-stim	s620	0	False
142.798	1.0	144.054	0.1	2.0	True	71.0	Magnitude	n/a	twobytwo	71.0	1.156	blue	7.0	task_switch	magnitude	switch	stim	poldrack-single-stim	s620	0	False
144.903	1.0	145.573	0.1	2.408	True	71.0	Orange-Blue	n/a	twobytwo	71.0	0.57	blue	8.0	task_switch	color	switch	stim	poldrack-single-stim	s620	0	False
148.214	1.0	149.448	0.9	2.0	True	89.0	Color	switch	twobytwo	89.0	0.334	orange	7.0	cue_switch	color	stay	stim	poldrack-single-stim	s620	0	False
150.319	1.0	151.039	0.1	2.0	True	71.0	Color	stay	twobytwo	71.0	0.62	blue	4.0	cue_stay	color	stay	stim	poldrack-single-stim	s620	0	False
152.424	1.0	153.21	0.1	2.0	True	71.0	High-Low	n/a	twobytwo	71.0	0.686	orange	7.0	task_switch	magnitude	switch	stim	poldrack-single-stim	s620	0	False
154.535	1.0	155.297	0.1	2.68	True	89.0	High-Low	stay	twobytwo	89.0	0.662	blue	3.0	cue_stay	magnitude	stay	stim	poldrack-single-stim	s620	0	False
157.324	1.0	158.207	0.1	2.272	True	71.0	Magnitude	switch	twobytwo	71.0	0.783	blue	6.0	cue_switch	magnitude	stay	stim	poldrack-single-stim	s620	0	False
160.503	1.0	161.846	0.9	2.408	True	71.0	Magnitude	stay	twobytwo	71.0	0.443	blue	9.0	cue_stay	magnitude	stay	stim	poldrack-single-stim	s620	0	False
163.015	1.0	163.756	0.1	3.224	True	89.0	Magnitude	stay	twobytwo	89.0	0.641	orange	3.0	cue_stay	magnitude	stay	stim	poldrack-single-stim	s620	0	False
166.343	1.0	167.257	0.1	2.408	True	89.0	Color	n/a	twobytwo	89.0	0.814	orange	8.0	task_switch	color	switch	stim	poldrack-single-stim	s620	0	False
169.654	1.0	170.996	0.9	2.816	True	71.0	High-Low	n/a	twobytwo	71.0	0.442	blue	6.0	task_switch	magnitude	switch	stim	poldrack-single-stim	s620	0	False
173.376	1.0	174.608	0.9	2.408	True	89.0	Orange-Blue	n/a	twobytwo	89.0	0.332	orange	9.0	task_switch	color	switch	stim	poldrack-single-stim	s620	0	False
175.89	1.0	176.784	0.1	2.136	True	71.0	Magnitude	n/a	twobytwo	71.0	0.794	orange	7.0	task_switch	magnitude	switch	stim	poldrack-single-stim	s620	0	False
178.929	1.0	180.284	0.9	2.136	True	89.0	Magnitude	stay	twobytwo	89.0	0.455	blue	2.0	cue_stay	magnitude	stay	stim	poldrack-single-stim	s620	0	False
181.969	1.0	183.552	0.9	2.0	True	89.0	High-Low	switch	twobytwo	89.0	0.683	orange	4.0	cue_switch	magnitude	stay	stim	poldrack-single-stim	s620	0	False
184.879	1.0	186.225	0.9	2.0	True	89.0	Magnitude	switch	twobytwo	89.0	0.446	blue	3.0	cue_switch	magnitude	stay	stim	poldrack-single-stim	s620	0	False
186.986	1.0	187.961	0.1	2.272	True	71.0	Color	n/a	twobytwo	71.0	0.875	blue	6.0	task_switch	color	switch	stim	poldrack-single-stim	s620	0	False
190.162	1.0	191.624	0.9	2.408	True	89.0	Magnitude	n/a	twobytwo	89.0	0.562	orange	4.0	task_switch	magnitude	switch	stim	poldrack-single-stim	s620	0	False
193.473	1.0	194.813	0.9	2.0	True	71.0	Color	n/a	twobytwo	71.0	0.44	blue	9.0	task_switch	color	switch	stim	poldrack-single-stim	s620	0	False
195.579	1.0	196.646	0.1	2.136	True	71.0	Orange-Blue	switch	twobytwo	71.0	0.967	blue	6.0	cue_switch	color	stay	stim	poldrack-single-stim	s620	0	False
197.819	1.0	198.712	0.1	2.0	True	89.0	High-Low	n/a	twobytwo	89.0	0.793	orange	1.0	task_switch	magnitude	switch	stim	poldrack-single-stim	s620	0	False
200.724	1.0	202.183	0.9	2.408	True	89.0	Orange-Blue	n/a	twobytwo	89.0	0.559	orange	6.0	task_switch	color	switch	stim	poldrack-single-stim	s620	0	False
203.237	1.0	204.025	0.1	2.272	True	89.0	Color	switch	twobytwo	89.0	0.688	orange	4.0	cue_switch	color	stay	stim	poldrack-single-stim	s620	0	False
206.416	1.0	207.778	0.9	2.0	True	71.0	Magnitude	n/a	twobytwo	71.0	0.462	orange	8.0	task_switch	magnitude	switch	stim	poldrack-single-stim	s620	0	False
209.321	1.0	210.779	0.9	2.272	True	71.0	High-Low	switch	twobytwo	71.0	0.558	blue	9.0	cue_switch	magnitude	stay	stim	poldrack-single-stim	s620	0	False
211.699	1.0	212.528	0.1	2.0	True	89.0	Orange-Blue	n/a	twobytwo	89.0	0.729	orange	2.0	task_switch	color	switch	stim	poldrack-single-stim	s620	0	False
214.604	1.0	215.957	0.9	2.0	True	71.0	Magnitude	n/a	twobytwo	71.0	0.453	blue	8.0	task_switch	magnitude	switch	stim	poldrack-single-stim	s620	0	False
216.711	1.0	217.546	0.1	2.272	True	89.0	Magnitude	stay	twobytwo	89.0	0.735	blue	3.0	cue_stay	magnitude	stay	stim	poldrack-single-stim	s620	0	False
233.399	1.0	234.705	0.9	2.136	True	71.0	Magnitude	stay	twobytwo	71.0	0.406	orange	9.0	cue_stay	magnitude	stay	stim	poldrack-single-stim	s620	1	False
236.44	1.0	238.123	0.9	2.0	True	71.0	Orange-Blue	n/a	twobytwo	71.0	0.783	blue	8.0	task_switch	color	switch	stim	poldrack-single-stim	s620	0	False
238.545	1.0	239.297	0.1	2.0	False	71.0	Color	switch	twobytwo	89.0	0.652	blue	2.0	cue_switch	color	stay	stim	poldrack-single-stim	s620	0	False
240.651	1.0	241.674	0.1	2.0	True	89.0	High-Low	n/a	twobytwo	89.0	0.923	orange	2.0	task_switch	magnitude	switch	stim	poldrack-single-stim	s620	0	False
243.559	1.0	245.057	0.9	2.0	True	89.0	Orange-Blue	n/a	twobytwo	89.0	0.598	orange	8.0	task_switch	color	switch	stim	poldrack-single-stim	s620	0	False
245.665	1.0	246.533	0.1	2.0	True	71.0	Magnitude	n/a	twobytwo	71.0	0.768	orange	7.0	task_switch	magnitude	switch	stim	poldrack-single-stim	s620	0	False
248.569	1.0	250.186	0.9	2.136	True	89.0	Orange-Blue	n/a	twobytwo	89.0	0.717	orange	9.0	task_switch	color	switch	stim	poldrack-single-stim	s620	0	False
250.812	1.0	251.812	0.1	2.0	True	71.0	Orange-Blue	stay	twobytwo	71.0	0.9	blue	6.0	cue_stay	color	stay	stim	poldrack-single-stim	s620	0	False
253.719	1.0	255.023	0.9	2.0	True	71.0	Magnitude	n/a	twobytwo	71.0	0.404	orange	8.0	task_switch	magnitude	switch	stim	poldrack-single-stim	s620	0	False
255.823	1.0	255.822	0.1	2.136	False	89.0	Color	n/a	twobytwo	-1.0	n/a	orange	9.0	task_switch	color	switch	stim	poldrack-single-stim	s620	0	False
258.066	1.0	259.282	0.1	2.0	True	89.0	Magnitude	n/a	twobytwo	89.0	1.116	blue	4.0	task_switch	magnitude	switch	stim	poldrack-single-stim	s620	0	False
260.971	1.0	262.325	0.9	2.136	True	71.0	Magnitude	stay	twobytwo	71.0	0.454	blue	8.0	cue_stay	magnitude	stay	stim	poldrack-single-stim	s620	0	False
263.215	1.0	264.407	0.1	2.68	True	71.0	Color	n/a	twobytwo	71.0	1.092	blue	3.0	task_switch	color	switch	stim	poldrack-single-stim	s620	0	False
266.002	1.0	266.871	0.1	2.272	True	89.0	Magnitude	n/a	twobytwo	89.0	0.769	blue	3.0	task_switch	magnitude	switch	stim	poldrack-single-stim	s620	0	False
269.183	1.0	270.519	0.9	2.136	True	71.0	High-Low	switch	twobytwo	71.0	0.436	blue	7.0	cue_switch	magnitude	stay	stim	poldrack-single-stim	s620	0	False
272.223	1.0	273.615	0.9	2.0	True	89.0	Orange-Blue	n/a	twobytwo	89.0	0.492	orange	1.0	task_switch	color	switch	stim	poldrack-single-stim	s620	0	False
274.33	1.0	275.576	0.1	2.136	False	89.0	High-Low	n/a	twobytwo	71.0	1.146	blue	1.0	task_switch	magnitude	switch	stim	poldrack-single-stim	s620	0	False
277.373	1.0	278.637	0.9	2.68	True	71.0	Color	n/a	twobytwo	71.0	0.364	blue	1.0	task_switch	color	switch	stim	poldrack-single-stim	s620	0	False
280.956	1.0	282.4	0.9	2.272	True	71.0	Magnitude	n/a	twobytwo	71.0	0.544	blue	7.0	task_switch	magnitude	switch	stim	poldrack-single-stim	s620	0	False
283.335	1.0	284.271	0.1	2.0	True	89.0	Orange-Blue	n/a	twobytwo	89.0	0.836	orange	9.0	task_switch	color	switch	stim	poldrack-single-stim	s620	0	False
285.44	1.0	286.306	0.1	2.0	True	71.0	Color	switch	twobytwo	71.0	0.766	blue	9.0	cue_switch	color	stay	stim	poldrack-single-stim	s620	0	False
287.544	1.0	288.34	0.1	2.136	True	71.0	Color	stay	twobytwo	71.0	0.696	blue	2.0	cue_stay	color	stay	stim	poldrack-single-stim	s620	0	False
289.789	1.0	290.721	0.1	2.0	True	71.0	High-Low	n/a	twobytwo	71.0	0.832	blue	9.0	task_switch	magnitude	switch	stim	poldrack-single-stim	s620	0	False
292.693	1.0	294.895	0.9	2.0	True	89.0	Orange-Blue	n/a	twobytwo	89.0	1.302	orange	7.0	task_switch	color	switch	stim	poldrack-single-stim	s620	0	False
295.599	1.0	296.902	0.9	2.0	True	71.0	Color	switch	twobytwo	71.0	0.403	blue	7.0	cue_switch	color	stay	stim	poldrack-single-stim	s620	0	False
298.509	1.0	299.85	0.9	2.272	True	89.0	Orange-Blue	switch	twobytwo	89.0	0.441	orange	7.0	cue_switch	color	stay	stim	poldrack-single-stim	s620	0	False
300.885	1.0	301.961	0.1	2.408	True	71.0	Orange-Blue	stay	twobytwo	71.0	0.976	blue	2.0	cue_stay	color	stay	stim	poldrack-single-stim	s620	0	False
304.197	1.0	305.794	0.9	2.0	True	89.0	Orange-Blue	stay	twobytwo	89.0	0.697	orange	3.0	cue_stay	color	stay	stim	poldrack-single-stim	s620	0	False
307.107	1.0	308.317	0.9	2.0	True	71.0	Orange-Blue	stay	twobytwo	71.0	0.31	blue	3.0	cue_stay	color	stay	stim	poldrack-single-stim	s620	0	False
310.014	1.0	311.319	0.9	2.0	True	89.0	Color	switch	twobytwo	89.0	0.405	orange	8.0	cue_switch	color	stay	stim	poldrack-single-stim	s620	0	False
312.12	1.0	312.879	0.1	2.272	True	71.0	Magnitude	n/a	twobytwo	71.0	0.659	blue	8.0	task_switch	magnitude	switch	stim	poldrack-single-stim	s620	0	False
314.496	1.0	315.26	0.1	2.136	True	71.0	High-Low	switch	twobytwo	71.0	0.664	orange	7.0	cue_switch	magnitude	stay	stim	poldrack-single-stim	s620	0	False
317.535	1.0	318.871	0.9	2.0	True	71.0	Magnitude	switch	twobytwo	71.0	0.436	orange	6.0	cue_switch	magnitude	stay	stim	poldrack-single-stim	s620	0	False
320.446	1.0	321.811	0.9	2.544	True	89.0	High-Low	switch	twobytwo	89.0	0.465	blue	3.0	cue_switch	magnitude	stay	stim	poldrack-single-stim	s620	0	False
323.096	1.0	323.835	0.1	2.272	True	71.0	Magnitude	switch	twobytwo	71.0	0.639	blue	6.0	cue_switch	magnitude	stay	stim	poldrack-single-stim	s620	0	False
325.475	1.0	326.178	0.1	2.272	True	89.0	Magnitude	stay	twobytwo	89.0	0.603	orange	3.0	cue_stay	magnitude	stay	stim	poldrack-single-stim	s620	0	False
327.854	1.0	328.538	0.1	2.0	True	89.0	High-Low	switch	twobytwo	89.0	0.584	orange	1.0	cue_switch	magnitude	stay	stim	poldrack-single-stim	s620	0	False
329.961	1.0	330.562	0.1	2.0	True	89.0	Magnitude	switch	twobytwo	89.0	0.501	orange	2.0	cue_switch	magnitude	stay	stim	poldrack-single-stim	s620	0	False
332.065	1.0	332.803	0.1	2.136	True	89.0	High-Low	switch	twobytwo	89.0	0.638	orange	4.0	cue_switch	magnitude	stay	stim	poldrack-single-stim	s620	0	False
335.107	1.0	336.451	0.9	2.0	True	89.0	Magnitude	switch	twobytwo	89.0	0.444	orange	3.0	cue_switch	magnitude	stay	stim	poldrack-single-stim	s620	0	False
337.211	1.0	337.925	0.1	2.136	True	89.0	High-Low	switch	twobytwo	89.0	0.614	blue	2.0	cue_switch	magnitude	stay	stim	poldrack-single-stim	s620	0	False
339.45	1.0	340.25	0.1	2.272	True	89.0	High-Low	stay	twobytwo	89.0	0.7	blue	2.0	cue_stay	magnitude	stay	stim	poldrack-single-stim	s620	0	False
341.83	1.0	342.891	0.1	2.136	True	89.0	Color	n/a	twobytwo	89.0	0.961	orange	7.0	task_switch	color	switch	stim	poldrack-single-stim	s620	0	False
344.073	1.0	344.726	0.1	2.272	True	71.0	Orange-Blue	switch	twobytwo	71.0	0.553	blue	9.0	cue_switch	color	stay	stim	poldrack-single-stim	s620	0	False
346.448	1.0	347.742	0.1	2.0	True	71.0	Magnitude	n/a	twobytwo	71.0	1.194	blue	9.0	task_switch	magnitude	switch	stim	poldrack-single-stim	s620	0	False
348.559	1.0	349.55	0.1	2.816	True	89.0	Orange-Blue	n/a	twobytwo	89.0	0.891	orange	9.0	task_switch	color	switch	stim	poldrack-single-stim	s620	0	False
351.479	1.0	352.348	0.1	2.408	True	71.0	High-Low	n/a	twobytwo	71.0	0.769	orange	7.0	task_switch	magnitude	switch	stim	poldrack-single-stim	s620	0	False
354.794	1.0	356.141	0.9	2.0	True	89.0	Magnitude	switch	twobytwo	89.0	0.447	blue	4.0	cue_switch	magnitude	stay	stim	poldrack-single-stim	s620	0	False
357.699	1.0	359.348	0.9	2.544	True	89.0	High-Low	switch	twobytwo	89.0	0.749	orange	4.0	cue_switch	magnitude	stay	stim	poldrack-single-stim	s620	0	False
360.347	1.0	361.193	0.1	2.136	True	71.0	Magnitude	switch	twobytwo	71.0	0.746	orange	6.0	cue_switch	magnitude	stay	stim	poldrack-single-stim	s620	0	False
363.391	1.0	364.804	0.9	2.0	True	89.0	High-Low	switch	twobytwo	89.0	0.513	blue	4.0	cue_switch	magnitude	stay	stim	poldrack-single-stim	s620	0	False
366.299	1.0	367.861	0.9	2.0	True	71.0	Color	n/a	twobytwo	71.0	0.662	blue	6.0	task_switch	color	switch	stim	poldrack-single-stim	s620	0	False
368.402	1.0	369.604	0.1	2.136	False	71.0	High-Low	n/a	twobytwo	89.0	1.102	blue	7.0	task_switch	magnitude	switch	stim	poldrack-single-stim	s620	0	False
370.647	1.0	371.485	0.1	2.136	True	71.0	Color	n/a	twobytwo	71.0	0.738	blue	8.0	task_switch	color	switch	stim	poldrack-single-stim	s620	0	False
373.686	1.0	374.946	0.9	2.272	True	89.0	Orange-Blue	switch	twobytwo	89.0	0.36	orange	7.0	cue_switch	color	stay	stim	poldrack-single-stim	s620	0	False
376.061	1.0	376.934	0.1	3.224	False	71.0	Orange-Blue	stay	twobytwo	89.0	0.773	blue	4.0	cue_stay	color	stay	stim	poldrack-single-stim	s620	0	False
379.392	1.0	380.446	0.1	2.0	True	71.0	High-Low	n/a	twobytwo	71.0	0.954	orange	7.0	task_switch	magnitude	switch	stim	poldrack-single-stim	s620	0	False
381.504	1.0	382.234	0.1	2.0	True	89.0	High-Low	stay	twobytwo	89.0	0.63	blue	3.0	cue_stay	magnitude	stay	stim	poldrack-single-stim	s620	0	False
383.61	1.0	384.288	0.1	2.272	True	71.0	Magnitude	switch	twobytwo	71.0	0.578	blue	6.0	cue_switch	magnitude	stay	stim	poldrack-single-stim	s620	0	False
386.786	1.0	388.133	0.9	2.136	True	71.0	Magnitude	stay	twobytwo	71.0	0.447	blue	9.0	cue_stay	magnitude	stay	stim	poldrack-single-stim	s620	0	False
389.026	1.0	389.702	0.1	2.0	True	89.0	Magnitude	stay	twobytwo	89.0	0.576	orange	3.0	cue_stay	magnitude	stay	stim	poldrack-single-stim	s620	0	False
391.131	1.0	391.942	0.1	2.0	False	89.0	Color	n/a	twobytwo	71.0	0.711	orange	8.0	task_switch	color	switch	stim	poldrack-single-stim	s620	0	False
394.035	1.0	395.723	0.9	2.0	True	71.0	High-Low	n/a	twobytwo	71.0	0.788	blue	6.0	task_switch	magnitude	switch	stim	poldrack-single-stim	s620	0	False
396.941	1.0	398.295	0.9	2.68	True	89.0	Orange-Blue	n/a	twobytwo	89.0	0.454	orange	9.0	task_switch	color	switch	stim	poldrack-single-stim	s620	0	False
399.726	1.0	400.851	0.1	2.0	True	71.0	Magnitude	n/a	twobytwo	71.0	1.025	orange	7.0	task_switch	magnitude	switch	stim	poldrack-single-stim	s620	0	False
402.633	1.0	403.926	0.9	2.272	True	89.0	Magnitude	stay	twobytwo	89.0	0.393	blue	2.0	cue_stay	magnitude	stay	stim	poldrack-single-stim	s620	0	False
405.809	1.0	407.281	0.9	2.0	True	89.0	High-Low	switch	twobytwo	89.0	0.572	orange	4.0	cue_switch	magnitude	stay	stim	poldrack-single-stim	s620	0	False
408.715	1.0	410.061	0.9	2.272	True	89.0	Magnitude	switch	twobytwo	89.0	0.446	blue	3.0	cue_switch	magnitude	stay	stim	poldrack-single-stim	s620	0	False
411.091	1.0	412.096	0.1	2.952	True	71.0	Color	n/a	twobytwo	71.0	0.905	blue	6.0	task_switch	color	switch	stim	poldrack-single-stim	s620	0	False
414.951	1.0	416.353	0.9	2.0	True	89.0	Magnitude	n/a	twobytwo	89.0	0.502	orange	4.0	task_switch	magnitude	switch	stim	poldrack-single-stim	s620	0	False
417.861	1.0	419.206	0.9	2.0	True	71.0	Color	n/a	twobytwo	71.0	0.445	blue	9.0	task_switch	color	switch	stim	poldrack-single-stim	s620	0	False
419.965	1.0	420.861	0.1	2.0	True	71.0	Orange-Blue	switch	twobytwo	71.0	0.796	blue	6.0	cue_switch	color	stay	stim	poldrack-single-stim	s620	0	False
422.068	1.0	422.774	0.1	2.0	True	89.0	Magnitude	n/a	twobytwo	89.0	0.606	orange	1.0	task_switch	magnitude	switch	stim	poldrack-single-stim	s620	0	False
424.974	1.0	426.332	0.9	2.136	True	89.0	Color	n/a	twobytwo	89.0	0.458	orange	6.0	task_switch	color	switch	stim	poldrack-single-stim	s620	0	False
427.216	1.0	427.956	0.1	2.0	True	89.0	Orange-Blue	switch	twobytwo	89.0	0.64	orange	4.0	cue_switch	color	stay	stim	poldrack-single-stim	s620	0	False
430.121	1.0	431.489	0.9	2.0	True	71.0	High-Low	n/a	twobytwo	71.0	0.468	orange	8.0	task_switch	magnitude	switch	stim	poldrack-single-stim	s620	0	False
433.028	1.0	434.489	0.9	2.0	True	71.0	Magnitude	switch	twobytwo	71.0	0.561	blue	9.0	cue_switch	magnitude	stay	stim	poldrack-single-stim	s620	0	False
435.13	1.0	435.8	0.1	2.272	True	89.0	Color	n/a	twobytwo	89.0	0.57	orange	2.0	task_switch	color	switch	stim	poldrack-single-stim	s620	0	False
438.308	1.0	439.692	0.9	2.136	True	71.0	Magnitude	n/a	twobytwo	71.0	0.484	blue	8.0	task_switch	magnitude	switch	stim	poldrack-single-stim	s620	0	False
440.551	1.0	441.325	0.1	2.0	True	89.0	Magnitude	stay	twobytwo	89.0	0.674	blue	3.0	cue_stay	magnitude	stay	stim	poldrack-single-stim	s620	0	False
456.965	1.0	458.272	0.9	2.136	True	89.0	Color	stay	twobytwo	89.0	0.407	orange	9.0	cue_stay	color	stay	stim	poldrack-single-stim	s620	1	False
460.008	1.0	461.478	0.9	2.816	True	71.0	High-Low	n/a	twobytwo	71.0	0.57	blue	8.0	task_switch	magnitude	switch	stim	poldrack-single-stim	s620	0	False
462.933	1.0	463.737	0.1	2.408	True	89.0	Magnitude	switch	twobytwo	89.0	0.704	blue	2.0	cue_switch	magnitude	stay	stim	poldrack-single-stim	s620	0	False
465.446	1.0	466.414	0.1	2.0	True	89.0	Color	n/a	twobytwo	89.0	0.868	orange	2.0	task_switch	color	switch	stim	poldrack-single-stim	s620	0	False
468.351	1.0	469.722	0.9	2.136	True	71.0	High-Low	n/a	twobytwo	71.0	0.471	orange	8.0	task_switch	magnitude	switch	stim	poldrack-single-stim	s620	0	False
470.591	1.0	471.463	0.1	2.136	True	89.0	Color	n/a	twobytwo	89.0	0.772	orange	7.0	task_switch	color	switch	stim	poldrack-single-stim	s620	0	False
473.63	1.0	474.931	0.9	2.136	True	71.0	High-Low	n/a	twobytwo	71.0	0.401	orange	9.0	task_switch	magnitude	switch	stim	poldrack-single-stim	s620	0	False
475.874	1.0	476.739	0.1	2.544	True	71.0	High-Low	stay	twobytwo	71.0	0.765	blue	6.0	cue_stay	magnitude	stay	stim	poldrack-single-stim	s620	0	False
479.321	1.0	480.754	0.9	2.136	True	89.0	Color	n/a	twobytwo	89.0	0.533	orange	8.0	task_switch	color	switch	stim	poldrack-single-stim	s620	0	False
481.562	1.0	482.249	0.1	2.0	True	71.0	Magnitude	n/a	twobytwo	71.0	0.587	orange	9.0	task_switch	magnitude	switch	stim	poldrack-single-stim	s620	0	False
483.672	1.0	484.446	0.1	2.0	True	71.0	Color	n/a	twobytwo	71.0	0.674	blue	4.0	task_switch	color	switch	stim	poldrack-single-stim	s620	0	False
486.577	1.0	487.98	0.9	2.0	True	71.0	Color	stay	twobytwo	71.0	0.503	blue	8.0	cue_stay	color	stay	stim	poldrack-single-stim	s620	0	False
488.686	1.0	489.43	0.1	2.0	True	89.0	Magnitude	n/a	twobytwo	89.0	0.644	blue	3.0	task_switch	magnitude	switch	stim	poldrack-single-stim	s620	0	False
490.789	1.0	491.711	0.1	2.136	True	71.0	Color	n/a	twobytwo	71.0	0.822	blue	3.0	task_switch	color	switch	stim	poldrack-single-stim	s620	0	False
493.829	1.0	495.375	0.9	2.0	True	71.0	Orange-Blue	switch	twobytwo	71.0	0.646	blue	7.0	cue_switch	color	stay	stim	poldrack-single-stim	s620	0	False
496.739	1.0	498.135	0.9	2.0	True	89.0	Magnitude	n/a	twobytwo	89.0	0.496	orange	1.0	task_switch	magnitude	switch	stim	poldrack-single-stim	s620	0	False
498.842	1.0	499.947	0.1	2.0	True	71.0	Orange-Blue	n/a	twobytwo	71.0	1.005	blue	1.0	task_switch	color	switch	stim	poldrack-single-stim	s620	0	False
501.75	1.0	503.133	0.9	2.136	True	89.0	High-Low	n/a	twobytwo	89.0	0.483	blue	1.0	task_switch	magnitude	switch	stim	poldrack-single-stim	s620	0	False
504.789	1.0	506.189	0.9	2.136	True	71.0	Color	n/a	twobytwo	71.0	0.5	blue	7.0	task_switch	color	switch	stim	poldrack-single-stim	s620	0	False
507.03	1.0	508.296	0.1	2.136	True	71.0	High-Low	n/a	twobytwo	71.0	1.166	orange	9.0	task_switch	magnitude	switch	stim	poldrack-single-stim	s620	0	False
509.27	1.0	510.068	0.1	2.136	True	71.0	Magnitude	switch	twobytwo	71.0	0.698	blue	9.0	cue_switch	magnitude	stay	stim	poldrack-single-stim	s620	0	False
511.51	1.0	512.209	0.1	2.68	True	89.0	Magnitude	stay	twobytwo	89.0	0.599	blue	2.0	cue_stay	magnitude	stay	stim	poldrack-single-stim	s620	0	False
514.296	1.0	515.159	0.1	2.544	True	71.0	Orange-Blue	n/a	twobytwo	71.0	0.763	blue	9.0	task_switch	color	switch	stim	poldrack-single-stim	s620	0	False
517.748	1.0	519.45	0.9	2.272	False	71.0	Magnitude	n/a	twobytwo	89.0	0.802	orange	7.0	task_switch	magnitude	switch	stim	poldrack-single-stim	s620	0	False
520.923	1.0	522.459	0.9	2.272	True	71.0	High-Low	switch	twobytwo	71.0	0.636	blue	7.0	cue_switch	magnitude	stay	stim	poldrack-single-stim	s620	0	False
524.101	1.0	525.43	0.9	2.408	True	71.0	Magnitude	switch	twobytwo	71.0	0.429	orange	7.0	cue_switch	magnitude	stay	stim	poldrack-single-stim	s620	0	False
526.614	1.0	527.347	0.1	2.136	True	89.0	Magnitude	stay	twobytwo	89.0	0.633	blue	2.0	cue_stay	magnitude	stay	stim	poldrack-single-stim	s620	0	False
529.655	1.0	530.999	0.9	2.272	True	89.0	Magnitude	stay	twobytwo	89.0	0.444	orange	3.0	cue_stay	magnitude	stay	stim	poldrack-single-stim	s620	0	False
532.832	1.0	534.255	0.9	2.0	True	89.0	Magnitude	stay	twobytwo	89.0	0.523	blue	3.0	cue_stay	magnitude	stay	stim	poldrack-single-stim	s620	0	False
535.739	1.0	537.173	0.9	2.136	True	71.0	High-Low	switch	twobytwo	71.0	0.534	orange	8.0	cue_switch	magnitude	stay	stim	poldrack-single-stim	s620	0	False
537.983	1.0	538.846	0.1	2.272	True	71.0	Orange-Blue	n/a	twobytwo	71.0	0.763	blue	8.0	task_switch	color	switch	stim	poldrack-single-stim	s620	0	False
540.361	1.0	541.202	0.1	2.0	True	89.0	Color	switch	twobytwo	89.0	0.741	orange	7.0	cue_switch	color	stay	stim	poldrack-single-stim	s620	0	False
543.265	1.0	544.618	0.9	2.68	True	89.0	Orange-Blue	switch	twobytwo	89.0	0.453	orange	6.0	cue_switch	color	stay	stim	poldrack-single-stim	s620	0	False
546.85	1.0	548.18	0.9	2.0	True	71.0	Color	switch	twobytwo	71.0	0.43	blue	3.0	cue_switch	color	stay	stim	poldrack-single-stim	s620	0	False
548.953	1.0	549.731	0.1	2.0	True	71.0	Orange-Blue	switch	twobytwo	71.0	0.678	blue	6.0	cue_switch	color	stay	stim	poldrack-single-stim	s620	0	False
551.06	1.0	551.738	0.1	2.0	True	89.0	Orange-Blue	stay	twobytwo	89.0	0.578	orange	3.0	cue_stay	color	stay	stim	poldrack-single-stim	s620	0	False
553.167	1.0	553.869	0.1	2.272	True	89.0	Color	switch	twobytwo	89.0	0.602	orange	1.0	cue_switch	color	stay	stim	poldrack-single-stim	s620	0	False
555.542	1.0	556.185	0.1	2.0	True	89.0	Orange-Blue	switch	twobytwo	89.0	0.543	orange	2.0	cue_switch	color	stay	stim	poldrack-single-stim	s620	0	False
557.65	1.0	558.283	0.1	2.0	True	89.0	Color	switch	twobytwo	89.0	0.533	orange	4.0	cue_switch	color	stay	stim	poldrack-single-stim	s620	0	False
560.554	1.0	561.892	0.9	2.0	True	89.0	Orange-Blue	switch	twobytwo	89.0	0.438	orange	3.0	cue_switch	color	stay	stim	poldrack-single-stim	s620	0	False
562.658	1.0	563.39	0.1	2.68	True	71.0	Color	switch	twobytwo	71.0	0.632	blue	2.0	cue_switch	color	stay	stim	poldrack-single-stim	s620	0	False
565.445	1.0	566.045	0.1	2.0	True	71.0	Color	stay	twobytwo	71.0	0.5	blue	2.0	cue_stay	color	stay	stim	poldrack-single-stim	s620	0	False
567.549	1.0	568.452	0.1	2.136	True	71.0	High-Low	n/a	twobytwo	71.0	0.803	orange	7.0	task_switch	magnitude	switch	stim	poldrack-single-stim	s620	0	False
569.789	1.0	570.526	0.1	2.408	True	71.0	Magnitude	switch	twobytwo	71.0	0.637	blue	9.0	cue_switch	magnitude	stay	stim	poldrack-single-stim	s620	0	False
572.301	1.0	573.173	0.1	2.136	True	71.0	Orange-Blue	n/a	twobytwo	71.0	0.772	blue	9.0	task_switch	color	switch	stim	poldrack-single-stim	s620	0	False
574.544	1.0	575.24	0.1	2.0	True	71.0	High-Low	n/a	twobytwo	71.0	0.596	orange	9.0	task_switch	magnitude	switch	stim	poldrack-single-stim	s620	0	False
576.65	1.0	577.396	0.1	2.0	False	89.0	Orange-Blue	n/a	twobytwo	71.0	0.646	orange	7.0	task_switch	color	switch	stim	poldrack-single-stim	s620	0	False
579.553	1.0	581.219	0.9	2.544	True	71.0	Color	switch	twobytwo	71.0	0.766	blue	4.0	cue_switch	color	stay	stim	poldrack-single-stim	s620	0	False
583.005	1.0	584.449	0.9	2.136	True	89.0	Orange-Blue	switch	twobytwo	89.0	0.544	orange	4.0	cue_switch	color	stay	stim	poldrack-single-stim	s620	0	False
585.246	1.0	586.044	0.1	2.544	True	89.0	Color	switch	twobytwo	89.0	0.698	orange	6.0	cue_switch	color	stay	stim	poldrack-single-stim	s620	0	False
588.696	1.0	590.217	0.9	2.68	True	71.0	Orange-Blue	switch	twobytwo	71.0	0.621	blue	4.0	cue_switch	color	stay	stim	poldrack-single-stim	s620	0	False
592.283	1.0	593.71	0.9	2.0	True	71.0	Magnitude	n/a	twobytwo	71.0	0.527	blue	6.0	task_switch	magnitude	switch	stim	poldrack-single-stim	s620	0	False
594.39	1.0	595.108	0.1	2.272	True	71.0	Color	n/a	twobytwo	71.0	0.618	blue	7.0	task_switch	color	switch	stim	poldrack-single-stim	s620	0	False
596.765	1.0	597.577	0.1	3.088	True	71.0	Magnitude	n/a	twobytwo	71.0	0.712	blue	8.0	task_switch	magnitude	switch	stim	poldrack-single-stim	s620	0	False
600.759	1.0	602.189	0.9	2.0	True	71.0	High-Low	switch	twobytwo	71.0	0.53	orange	7.0	cue_switch	magnitude	stay	stim	poldrack-single-stim	s620	0	False
602.867	1.0	603.775	0.1	2.136	True	89.0	High-Low	stay	twobytwo	89.0	0.808	blue	4.0	cue_stay	magnitude	stay	stim	poldrack-single-stim	s620	0	False
605.107	1.0	606.169	0.1	2.136	True	89.0	Color	n/a	twobytwo	89.0	0.962	orange	7.0	task_switch	color	switch	stim	poldrack-single-stim	s620	0	False
607.35	1.0	608.271	0.1	2.0	True	71.0	Color	stay	twobytwo	71.0	0.821	blue	3.0	cue_stay	color	stay	stim	poldrack-single-stim	s620	0	False
609.457	1.0	610.237	0.1	2.272	True	71.0	Orange-Blue	switch	twobytwo	71.0	0.68	blue	6.0	cue_switch	color	stay	stim	poldrack-single-stim	s620	0	False
612.632	1.0	613.959	0.9	2.0	True	71.0	Orange-Blue	stay	twobytwo	71.0	0.427	blue	9.0	cue_stay	color	stay	stim	poldrack-single-stim	s620	0	False
614.74	1.0	615.567	0.1	2.136	True	89.0	Orange-Blue	stay	twobytwo	89.0	0.727	orange	3.0	cue_stay	color	stay	stim	poldrack-single-stim	s620	0	False
616.979	1.0	618.154	0.1	2.136	True	71.0	High-Low	n/a	twobytwo	71.0	1.075	orange	8.0	task_switch	magnitude	switch	stim	poldrack-single-stim	s620	0	False
620.018	1.0	621.658	0.9	2.544	True	71.0	Color	n/a	twobytwo	71.0	0.74	blue	6.0	task_switch	color	switch	stim	poldrack-single-stim	s620	0	False
623.473	1.0	624.948	0.9	2.0	False	71.0	High-Low	n/a	twobytwo	89.0	0.575	orange	9.0	task_switch	magnitude	switch	stim	poldrack-single-stim	s620	0	False
625.579	1.0	626.571	0.1	2.136	False	89.0	Color	n/a	twobytwo	71.0	0.892	orange	7.0	task_switch	color	switch	stim	poldrack-single-stim	s620	0	False
628.622	1.0	630.476	0.9	2.136	True	71.0	Color	stay	twobytwo	71.0	0.954	blue	2.0	cue_stay	color	stay	stim	poldrack-single-stim	s620	0	False
631.664	1.0	633.155	0.9	2.136	True	89.0	Orange-Blue	switch	twobytwo	89.0	0.591	orange	4.0	cue_switch	color	stay	stim	poldrack-single-stim	s620	0	False
634.705	1.0	636.08	0.9	2.0	True	71.0	Color	switch	twobytwo	71.0	0.475	blue	3.0	cue_switch	color	stay	stim	poldrack-single-stim	s620	0	False
636.811	1.0	637.735	0.1	2.136	True	71.0	High-Low	n/a	twobytwo	71.0	0.824	blue	6.0	task_switch	magnitude	switch	stim	poldrack-single-stim	s620	0	False
639.853	1.0	641.11	0.9	2.0	True	89.0	Orange-Blue	n/a	twobytwo	89.0	0.357	orange	4.0	task_switch	color	switch	stim	poldrack-single-stim	s620	0	False
642.76	1.0	644.078	0.9	2.136	True	71.0	Magnitude	n/a	twobytwo	71.0	0.418	blue	9.0	task_switch	magnitude	switch	stim	poldrack-single-stim	s620	0	False
644.999	1.0	645.709	0.1	2.816	True	71.0	High-Low	switch	twobytwo	71.0	0.61	blue	6.0	cue_switch	magnitude	stay	stim	poldrack-single-stim	s620	0	False
647.924	1.0	648.619	0.1	2.136	True	89.0	Orange-Blue	n/a	twobytwo	89.0	0.595	orange	1.0	task_switch	color	switch	stim	poldrack-single-stim	s620	0	False
650.966	1.0	652.31	0.9	2.0	True	71.0	High-Low	n/a	twobytwo	71.0	0.444	orange	6.0	task_switch	magnitude	switch	stim	poldrack-single-stim	s620	0	False
653.074	1.0	654.146	0.1	2.0	True	89.0	Magnitude	switch	twobytwo	89.0	0.972	orange	4.0	cue_switch	magnitude	stay	stim	poldrack-single-stim	s620	0	False
655.981	1.0	657.321	0.9	2.272	True	89.0	Color	n/a	twobytwo	89.0	0.44	orange	8.0	task_switch	color	switch	stim	poldrack-single-stim	s620	0	False
659.156	1.0	660.573	0.9	2.0	True	71.0	Orange-Blue	switch	twobytwo	71.0	0.517	blue	9.0	cue_switch	color	stay	stim	poldrack-single-stim	s620	0	False
661.262	1.0	662.057	0.1	2.0	True	89.0	High-Low	n/a	twobytwo	89.0	0.695	orange	2.0	task_switch	magnitude	switch	stim	poldrack-single-stim	s620	0	False
664.171	1.0	665.456	0.9	2.0	True	71.0	Color	n/a	twobytwo	71.0	0.385	blue	8.0	task_switch	color	switch	stim	poldrack-single-stim	s620	0	False
666.277	1.0	667.139	0.1	2.408	True	71.0	Color	stay	twobytwo	71.0	0.762	blue	3.0	cue_stay	color	stay	stim	poldrack-single-stim	s620	0	False
