onset	duration	movement_onset	CTI	block_duration	correct	correct_response	cue	cue_switch	experiment_exp_id	key_press	response_time	stim_color	stim_number	switch_type	task	task_switch	trial_id	trial_type	worker_id	first_trial_of_block	junk
3.618	1.0	4.43	0.1	2.136	True	89.0	Color	switch	twobytwo	89.0	0.712	blue	1.0	cue_switch	color	stay	stim	poldrack-single-stim	s621	1	False
6.66	1.0	8.219	0.9	2.272	True	89.0	Magnitude	n/a	twobytwo	89.0	0.659	blue	4.0	task_switch	magnitude	switch	stim	poldrack-single-stim	s621	0	False
9.842	1.0	11.223	0.9	2.136	True	89.0	Orange-Blue	n/a	twobytwo	89.0	0.481	blue	7.0	task_switch	color	switch	stim	poldrack-single-stim	s621	0	False
12.883	1.0	14.252	0.9	2.272	True	71.0	Orange-Blue	stay	twobytwo	71.0	0.469	orange	7.0	cue_stay	color	stay	stim	poldrack-single-stim	s621	0	False
16.063	1.0	17.539	0.9	2.0	True	71.0	High-Low	n/a	twobytwo	71.0	0.576	blue	8.0	task_switch	magnitude	switch	stim	poldrack-single-stim	s621	0	False
18.966	1.0	20.391	0.9	2.816	True	89.0	High-Low	stay	twobytwo	89.0	0.525	blue	4.0	cue_stay	magnitude	stay	stim	poldrack-single-stim	s621	0	False
22.69	1.0	24.171	0.9	2.408	True	71.0	Magnitude	switch	twobytwo	71.0	0.581	blue	9.0	cue_switch	magnitude	stay	stim	poldrack-single-stim	s621	0	False
26.01	1.0	27.396	0.9	2.0	True	89.0	Magnitude	stay	twobytwo	89.0	0.486	blue	3.0	cue_stay	magnitude	stay	stim	poldrack-single-stim	s621	0	False
28.916	1.0	30.346	0.9	2.544	True	71.0	Magnitude	stay	twobytwo	71.0	0.53	blue	8.0	cue_stay	magnitude	stay	stim	poldrack-single-stim	s621	0	False
32.368	1.0	33.995	0.9	2.136	True	89.0	Orange-Blue	n/a	twobytwo	89.0	0.727	blue	6.0	task_switch	color	switch	stim	poldrack-single-stim	s621	0	False
34.612	1.0	35.485	0.1	2.0	True	71.0	High-Low	n/a	twobytwo	71.0	0.773	blue	7.0	task_switch	magnitude	switch	stim	poldrack-single-stim	s621	0	False
36.719	1.0	37.454	0.1	2.0	True	89.0	High-Low	stay	twobytwo	89.0	0.635	blue	2.0	cue_stay	magnitude	stay	stim	poldrack-single-stim	s621	0	False
39.623	1.0	41.016	0.9	2.136	True	71.0	Magnitude	switch	twobytwo	71.0	0.493	orange	7.0	cue_switch	magnitude	stay	stim	poldrack-single-stim	s621	0	False
42.663	1.0	44.077	0.9	2.136	True	71.0	Magnitude	stay	twobytwo	71.0	0.514	orange	6.0	cue_stay	magnitude	stay	stim	poldrack-single-stim	s621	0	False
44.906	1.0	45.933	0.1	2.272	True	89.0	Color	n/a	twobytwo	89.0	0.927	blue	8.0	task_switch	color	switch	stim	poldrack-single-stim	s621	0	False
48.087	1.0	49.48	0.9	3.224	True	89.0	Orange-Blue	switch	twobytwo	89.0	0.493	blue	1.0	cue_switch	color	stay	stim	poldrack-single-stim	s621	0	False
51.418	1.0	52.457	0.1	2.0	True	71.0	Color	switch	twobytwo	71.0	0.939	orange	3.0	cue_switch	color	stay	stim	poldrack-single-stim	s621	0	False
54.324	1.0	55.879	0.9	2.0	True	71.0	High-Low	n/a	twobytwo	71.0	0.655	blue	8.0	task_switch	magnitude	switch	stim	poldrack-single-stim	s621	0	False
57.231	1.0	58.547	0.9	2.272	True	71.0	Color	n/a	twobytwo	71.0	0.416	orange	9.0	task_switch	color	switch	stim	poldrack-single-stim	s621	0	False
60.413	1.0	61.827	0.9	2.136	True	71.0	High-Low	n/a	twobytwo	71.0	0.514	orange	7.0	task_switch	magnitude	switch	stim	poldrack-single-stim	s621	0	False
62.66	1.0	63.574	0.1	2.0	True	89.0	Magnitude	switch	twobytwo	89.0	0.814	orange	1.0	cue_switch	magnitude	stay	stim	poldrack-single-stim	s621	0	False
65.567	1.0	67.053	0.9	2.0	True	89.0	Magnitude	stay	twobytwo	89.0	0.586	blue	3.0	cue_stay	magnitude	stay	stim	poldrack-single-stim	s621	0	False
67.674	1.0	68.641	0.1	2.0	True	71.0	Magnitude	stay	twobytwo	71.0	0.867	blue	8.0	cue_stay	magnitude	stay	stim	poldrack-single-stim	s621	0	False
69.782	1.0	70.469	0.1	2.68	True	71.0	Magnitude	stay	twobytwo	71.0	0.587	blue	9.0	cue_stay	magnitude	stay	stim	poldrack-single-stim	s621	0	False
73.37	1.0	74.731	0.9	2.0	True	71.0	Orange-Blue	n/a	twobytwo	71.0	0.461	orange	7.0	task_switch	color	switch	stim	poldrack-single-stim	s621	0	False
75.478	1.0	76.201	0.1	2.272	True	71.0	High-Low	n/a	twobytwo	71.0	0.623	blue	9.0	task_switch	magnitude	switch	stim	poldrack-single-stim	s621	0	False
78.66	1.0	80.385	0.9	2.0	True	89.0	Color	n/a	twobytwo	89.0	0.825	blue	8.0	task_switch	color	switch	stim	poldrack-single-stim	s621	0	False
80.767	1.0	81.757	0.1	2.272	True	71.0	Orange-Blue	switch	twobytwo	71.0	0.89	orange	1.0	cue_switch	color	stay	stim	poldrack-single-stim	s621	0	False
83.948	1.0	85.26	0.9	2.952	True	89.0	Color	switch	twobytwo	89.0	0.412	blue	2.0	cue_switch	color	stay	stim	poldrack-single-stim	s621	0	False
87.007	1.0	87.669	0.1	2.0	True	71.0	High-Low	n/a	twobytwo	71.0	0.562	orange	9.0	task_switch	magnitude	switch	stim	poldrack-single-stim	s621	0	False
89.914	1.0	91.446	0.9	2.0	True	71.0	Magnitude	switch	twobytwo	71.0	0.632	blue	6.0	cue_switch	magnitude	stay	stim	poldrack-single-stim	s621	0	False
92.02	1.0	92.708	0.1	2.0	True	71.0	Color	n/a	twobytwo	71.0	0.588	orange	6.0	task_switch	color	switch	stim	poldrack-single-stim	s621	0	False
94.927	1.0	96.243	0.9	2.0	True	89.0	Color	stay	twobytwo	89.0	0.416	blue	4.0	cue_stay	color	stay	stim	poldrack-single-stim	s621	0	False
97.034	1.0	98.064	0.1	2.136	True	71.0	Orange-Blue	switch	twobytwo	71.0	0.93	orange	2.0	cue_switch	color	stay	stim	poldrack-single-stim	s621	0	False
99.279	1.0	100.016	0.1	2.0	True	89.0	Magnitude	n/a	twobytwo	89.0	0.637	blue	2.0	task_switch	magnitude	switch	stim	poldrack-single-stim	s621	0	False
102.186	1.0	103.547	0.9	2.0	True	89.0	Orange-Blue	n/a	twobytwo	89.0	0.461	blue	4.0	task_switch	color	switch	stim	poldrack-single-stim	s621	0	False
105.092	1.0	106.472	0.9	2.0	True	71.0	Color	switch	twobytwo	71.0	0.48	orange	8.0	cue_switch	color	stay	stim	poldrack-single-stim	s621	0	False
107.201	1.0	108.219	0.1	2.272	True	89.0	Magnitude	n/a	twobytwo	89.0	0.918	orange	1.0	task_switch	magnitude	switch	stim	poldrack-single-stim	s621	0	False
110.38	1.0	111.882	0.9	2.136	False	89.0	Orange-Blue	n/a	twobytwo	71.0	0.602	blue	6.0	task_switch	color	switch	stim	poldrack-single-stim	s621	0	False
112.628	1.0	113.931	0.1	2.0	False	89.0	Magnitude	n/a	twobytwo	71.0	1.203	blue	1.0	task_switch	magnitude	switch	stim	poldrack-single-stim	s621	0	False
114.732	1.0	115.507	0.1	2.136	True	71.0	Color	n/a	twobytwo	71.0	0.675	orange	2.0	task_switch	color	switch	stim	poldrack-single-stim	s621	0	False
117.775	1.0	119.242	0.9	2.816	True	71.0	High-Low	n/a	twobytwo	71.0	0.567	blue	6.0	task_switch	magnitude	switch	stim	poldrack-single-stim	s621	0	False
121.495	1.0	122.923	0.9	2.408	True	71.0	Magnitude	switch	twobytwo	71.0	0.528	orange	9.0	cue_switch	magnitude	stay	stim	poldrack-single-stim	s621	0	False
124.81	1.0	126.33	0.9	2.0	True	71.0	Color	n/a	twobytwo	71.0	0.62	orange	4.0	task_switch	color	switch	stim	poldrack-single-stim	s621	0	False
127.714	1.0	129.194	0.9	2.136	True	89.0	Magnitude	n/a	twobytwo	89.0	0.58	blue	2.0	task_switch	magnitude	switch	stim	poldrack-single-stim	s621	0	False
130.754	1.0	132.147	0.9	2.136	True	71.0	Magnitude	stay	twobytwo	71.0	0.493	orange	9.0	cue_stay	magnitude	stay	stim	poldrack-single-stim	s621	0	False
132.994	1.0	133.82	0.1	2.136	True	89.0	High-Low	switch	twobytwo	89.0	0.726	blue	3.0	cue_switch	magnitude	stay	stim	poldrack-single-stim	s621	0	False
136.036	1.0	137.361	0.9	2.544	True	71.0	Orange-Blue	n/a	twobytwo	71.0	0.425	orange	4.0	task_switch	color	switch	stim	poldrack-single-stim	s621	0	False
138.684	1.0	139.541	0.1	2.136	True	89.0	High-Low	n/a	twobytwo	89.0	0.757	orange	2.0	task_switch	magnitude	switch	stim	poldrack-single-stim	s621	0	False
141.727	1.0	143.238	0.9	2.0	True	71.0	Color	n/a	twobytwo	71.0	0.611	orange	6.0	task_switch	color	switch	stim	poldrack-single-stim	s621	0	False
144.639	1.0	146.035	0.9	2.0	True	89.0	Magnitude	n/a	twobytwo	89.0	0.496	orange	2.0	task_switch	magnitude	switch	stim	poldrack-single-stim	s621	0	False
147.546	1.0	149.158	0.9	2.0	True	89.0	Magnitude	stay	twobytwo	89.0	0.712	blue	3.0	cue_stay	magnitude	stay	stim	poldrack-single-stim	s621	0	False
150.458	1.0	151.89	0.9	2.0	True	71.0	Orange-Blue	n/a	twobytwo	71.0	0.532	orange	6.0	task_switch	color	switch	stim	poldrack-single-stim	s621	0	False
152.562	1.0	153.303	0.1	2.136	True	71.0	Magnitude	n/a	twobytwo	71.0	0.641	blue	6.0	task_switch	magnitude	switch	stim	poldrack-single-stim	s621	0	False
154.801	1.0	155.443	0.1	2.0	True	89.0	High-Low	switch	twobytwo	89.0	0.542	blue	3.0	cue_switch	magnitude	stay	stim	poldrack-single-stim	s621	0	False
157.711	1.0	159.184	0.9	2.0	True	71.0	Magnitude	switch	twobytwo	71.0	0.573	blue	6.0	cue_switch	magnitude	stay	stim	poldrack-single-stim	s621	0	False
160.623	1.0	162.046	0.9	2.0	True	71.0	Magnitude	stay	twobytwo	71.0	0.523	blue	9.0	cue_stay	magnitude	stay	stim	poldrack-single-stim	s621	0	False
162.732	1.0	163.366	0.1	2.136	False	71.0	Orange-Blue	n/a	twobytwo	89.0	0.534	orange	3.0	task_switch	color	switch	stim	poldrack-single-stim	s621	0	False
165.777	1.0	167.167	0.9	2.136	True	89.0	High-Low	n/a	twobytwo	89.0	0.49	blue	1.0	task_switch	magnitude	switch	stim	poldrack-single-stim	s621	0	False
168.018	1.0	168.642	0.1	2.136	True	71.0	High-Low	stay	twobytwo	71.0	0.524	orange	8.0	cue_stay	magnitude	stay	stim	poldrack-single-stim	s621	0	False
171.058	1.0	172.605	0.9	2.136	True	89.0	Orange-Blue	n/a	twobytwo	89.0	0.647	blue	7.0	task_switch	color	switch	stim	poldrack-single-stim	s621	0	False
173.298	1.0	173.981	0.1	2.68	True	89.0	Orange-Blue	stay	twobytwo	89.0	0.583	blue	4.0	cue_stay	color	stay	stim	poldrack-single-stim	s621	0	False
176.085	1.0	176.69	0.1	2.544	True	71.0	Color	switch	twobytwo	71.0	0.505	orange	7.0	cue_switch	color	stay	stim	poldrack-single-stim	s621	0	False
178.74	1.0	179.483	0.1	2.272	False	89.0	Orange-Blue	switch	twobytwo	71.0	0.643	blue	9.0	cue_switch	color	stay	stim	poldrack-single-stim	s621	0	False
181.919	1.0	183.396	0.9	2.272	True	89.0	Color	switch	twobytwo	89.0	0.577	blue	9.0	cue_switch	color	stay	stim	poldrack-single-stim	s621	0	False
185.095	1.0	186.419	0.9	2.408	True	89.0	High-Low	n/a	twobytwo	89.0	0.424	orange	3.0	task_switch	magnitude	switch	stim	poldrack-single-stim	s621	0	False
187.607	1.0	187.606	0.1	2.136	False	71.0	High-Low	stay	twobytwo	-1.0	n/a	blue	8.0	cue_stay	magnitude	stay	stim	poldrack-single-stim	s621	0	False
189.854	1.0	190.667	0.1	2.272	True	89.0	Orange-Blue	n/a	twobytwo	89.0	0.713	blue	2.0	task_switch	color	switch	stim	poldrack-single-stim	s621	0	False
193.034	1.0	194.375	0.9	2.0	True	71.0	Color	switch	twobytwo	71.0	0.441	orange	8.0	cue_switch	color	stay	stim	poldrack-single-stim	s621	0	False
195.142	1.0	195.87	0.1	2.136	True	89.0	Orange-Blue	switch	twobytwo	89.0	0.628	blue	3.0	cue_switch	color	stay	stim	poldrack-single-stim	s621	0	False
197.386	1.0	198.453	0.1	2.272	True	71.0	Orange-Blue	stay	twobytwo	71.0	0.967	orange	2.0	cue_stay	color	stay	stim	poldrack-single-stim	s621	0	False
200.57	1.0	201.956	0.9	2.0	True	71.0	Magnitude	n/a	twobytwo	71.0	0.486	blue	8.0	task_switch	magnitude	switch	stim	poldrack-single-stim	s621	0	False
202.675	1.0	203.392	0.1	2.68	False	71.0	Orange-Blue	n/a	twobytwo	89.0	0.617	orange	4.0	task_switch	color	switch	stim	poldrack-single-stim	s621	0	False
205.466	1.0	206.374	0.1	2.0	True	89.0	Color	switch	twobytwo	89.0	0.808	blue	6.0	cue_switch	color	stay	stim	poldrack-single-stim	s621	0	False
207.572	1.0	208.309	0.1	2.0	True	71.0	Magnitude	n/a	twobytwo	71.0	0.637	orange	8.0	task_switch	magnitude	switch	stim	poldrack-single-stim	s621	0	False
209.682	1.0	210.298	0.1	2.0	True	71.0	Magnitude	stay	twobytwo	71.0	0.516	orange	8.0	cue_stay	magnitude	stay	stim	poldrack-single-stim	s621	0	False
211.791	1.0	212.627	0.1	2.272	True	89.0	Color	n/a	twobytwo	89.0	0.736	blue	7.0	task_switch	color	switch	stim	poldrack-single-stim	s621	0	False
214.97	1.0	216.553	0.9	2.0	True	71.0	Magnitude	n/a	twobytwo	71.0	0.683	blue	6.0	task_switch	magnitude	switch	stim	poldrack-single-stim	s621	0	False
217.876	1.0	219.183	0.9	2.0	True	89.0	Color	n/a	twobytwo	89.0	0.407	blue	3.0	task_switch	color	switch	stim	poldrack-single-stim	s621	0	False
219.983	1.0	221.119	0.1	2.0	True	89.0	High-Low	n/a	twobytwo	89.0	1.036	orange	2.0	task_switch	magnitude	switch	stim	poldrack-single-stim	s621	0	False
235.607	1.0	236.451	0.1	2.68	True	89.0	Magnitude	switch	twobytwo	89.0	0.744	blue	1.0	cue_switch	magnitude	stay	stim	poldrack-single-stim	s621	1	False
239.194	1.0	240.522	0.9	2.0	True	89.0	Orange-Blue	n/a	twobytwo	89.0	0.428	blue	4.0	task_switch	color	switch	stim	poldrack-single-stim	s621	0	False
242.097	1.0	243.601	0.9	2.136	True	71.0	Magnitude	n/a	twobytwo	71.0	0.604	blue	7.0	task_switch	magnitude	switch	stim	poldrack-single-stim	s621	0	False
245.138	1.0	246.667	0.9	2.408	True	71.0	Magnitude	stay	twobytwo	71.0	0.629	orange	7.0	cue_stay	magnitude	stay	stim	poldrack-single-stim	s621	0	False
248.453	1.0	249.819	0.9	2.136	True	89.0	Orange-Blue	n/a	twobytwo	89.0	0.466	blue	8.0	task_switch	color	switch	stim	poldrack-single-stim	s621	0	False
251.498	1.0	252.909	0.9	2.0	True	89.0	Orange-Blue	stay	twobytwo	89.0	0.511	blue	4.0	cue_stay	color	stay	stim	poldrack-single-stim	s621	0	False
254.404	1.0	256.112	0.9	2.0	True	89.0	Color	switch	twobytwo	89.0	0.808	blue	9.0	cue_switch	color	stay	stim	poldrack-single-stim	s621	0	False
257.311	1.0	258.795	0.9	2.544	True	89.0	Color	stay	twobytwo	89.0	0.584	blue	3.0	cue_stay	color	stay	stim	poldrack-single-stim	s621	0	False
260.759	1.0	262.087	0.9	2.136	True	89.0	Color	stay	twobytwo	89.0	0.428	blue	8.0	cue_stay	color	stay	stim	poldrack-single-stim	s621	0	False
263.806	1.0	265.394	0.9	2.544	True	71.0	Magnitude	n/a	twobytwo	71.0	0.688	blue	6.0	task_switch	magnitude	switch	stim	poldrack-single-stim	s621	0	False
266.455	1.0	267.451	0.1	2.68	True	89.0	Color	n/a	twobytwo	89.0	0.896	blue	7.0	task_switch	color	switch	stim	poldrack-single-stim	s621	0	False
269.247	1.0	269.832	0.1	2.0	True	89.0	Color	stay	twobytwo	89.0	0.485	blue	2.0	cue_stay	color	stay	stim	poldrack-single-stim	s621	0	False
272.154	1.0	273.496	0.9	2.272	True	71.0	Orange-Blue	switch	twobytwo	71.0	0.442	orange	7.0	cue_switch	color	stay	stim	poldrack-single-stim	s621	0	False
275.332	1.0	276.685	0.9	3.088	True	71.0	Orange-Blue	stay	twobytwo	71.0	0.453	orange	6.0	cue_stay	color	stay	stim	poldrack-single-stim	s621	0	False
278.527	1.0	279.5	0.1	2.0	True	71.0	Magnitude	n/a	twobytwo	71.0	0.873	blue	8.0	task_switch	magnitude	switch	stim	poldrack-single-stim	s621	0	False
281.435	1.0	282.922	0.9	2.136	True	89.0	High-Low	switch	twobytwo	89.0	0.587	blue	1.0	cue_switch	magnitude	stay	stim	poldrack-single-stim	s621	0	False
283.676	1.0	284.938	0.1	2.136	False	89.0	Magnitude	switch	twobytwo	71.0	1.162	orange	3.0	cue_switch	magnitude	stay	stim	poldrack-single-stim	s621	0	False
286.715	1.0	288.397	0.9	2.0	True	89.0	Orange-Blue	n/a	twobytwo	89.0	0.782	blue	8.0	task_switch	color	switch	stim	poldrack-single-stim	s621	0	False
289.626	1.0	290.965	0.9	2.272	True	71.0	High-Low	n/a	twobytwo	71.0	0.439	orange	9.0	task_switch	magnitude	switch	stim	poldrack-single-stim	s621	0	False
292.81	1.0	294.206	0.9	2.0	True	71.0	Orange-Blue	n/a	twobytwo	71.0	0.496	orange	7.0	task_switch	color	switch	stim	poldrack-single-stim	s621	0	False
294.914	1.0	296.135	0.1	2.136	True	71.0	Color	switch	twobytwo	71.0	1.121	orange	1.0	cue_switch	color	stay	stim	poldrack-single-stim	s621	0	False
297.959	1.0	299.349	0.9	2.136	True	89.0	Color	stay	twobytwo	89.0	0.49	blue	3.0	cue_stay	color	stay	stim	poldrack-single-stim	s621	0	False
300.207	1.0	301.038	0.1	2.544	True	89.0	Color	stay	twobytwo	89.0	0.731	blue	8.0	cue_stay	color	stay	stim	poldrack-single-stim	s621	0	False
302.856	1.0	303.631	0.1	2.0	True	89.0	Color	stay	twobytwo	89.0	0.675	blue	9.0	cue_stay	color	stay	stim	poldrack-single-stim	s621	0	False
305.762	1.0	307.246	0.9	2.136	True	71.0	Magnitude	n/a	twobytwo	71.0	0.584	orange	7.0	task_switch	magnitude	switch	stim	poldrack-single-stim	s621	0	False
308.002	1.0	308.792	0.1	2.136	True	89.0	Orange-Blue	n/a	twobytwo	89.0	0.69	blue	9.0	task_switch	color	switch	stim	poldrack-single-stim	s621	0	False
311.042	1.0	312.835	0.9	2.136	False	71.0	High-Low	n/a	twobytwo	89.0	0.893	blue	8.0	task_switch	magnitude	switch	stim	poldrack-single-stim	s621	0	False
313.284	1.0	314.22	0.1	2.0	True	89.0	Magnitude	switch	twobytwo	89.0	0.836	orange	1.0	cue_switch	magnitude	stay	stim	poldrack-single-stim	s621	0	False
316.188	1.0	317.652	0.9	2.136	True	89.0	High-Low	switch	twobytwo	89.0	0.564	blue	2.0	cue_switch	magnitude	stay	stim	poldrack-single-stim	s621	0	False
318.436	1.0	319.191	0.1	2.0	True	71.0	Color	n/a	twobytwo	71.0	0.655	orange	9.0	task_switch	color	switch	stim	poldrack-single-stim	s621	0	False
321.342	1.0	322.687	0.9	2.136	True	89.0	Orange-Blue	switch	twobytwo	89.0	0.445	blue	6.0	cue_switch	color	stay	stim	poldrack-single-stim	s621	0	False
323.586	1.0	324.259	0.1	2.816	True	71.0	High-Low	n/a	twobytwo	71.0	0.573	orange	6.0	task_switch	magnitude	switch	stim	poldrack-single-stim	s621	0	False
327.308	1.0	328.792	0.9	2.136	True	89.0	High-Low	stay	twobytwo	89.0	0.584	blue	4.0	cue_stay	magnitude	stay	stim	poldrack-single-stim	s621	0	False
329.547	1.0	330.179	0.1	2.0	True	89.0	Magnitude	switch	twobytwo	89.0	0.532	orange	2.0	cue_switch	magnitude	stay	stim	poldrack-single-stim	s621	0	False
331.658	1.0	332.346	0.1	2.0	True	89.0	Orange-Blue	n/a	twobytwo	89.0	0.588	blue	2.0	task_switch	color	switch	stim	poldrack-single-stim	s621	0	False
334.564	1.0	336.053	0.9	2.272	True	89.0	Magnitude	n/a	twobytwo	89.0	0.589	blue	4.0	task_switch	magnitude	switch	stim	poldrack-single-stim	s621	0	False
337.748	1.0	339.09	0.9	2.0	True	71.0	High-Low	switch	twobytwo	71.0	0.442	orange	8.0	cue_switch	magnitude	stay	stim	poldrack-single-stim	s621	0	False
339.855	1.0	340.588	0.1	2.0	False	71.0	Color	n/a	twobytwo	89.0	0.633	orange	1.0	task_switch	color	switch	stim	poldrack-single-stim	s621	0	False
342.759	1.0	344.425	0.9	2.0	True	71.0	High-Low	n/a	twobytwo	71.0	0.766	blue	6.0	task_switch	magnitude	switch	stim	poldrack-single-stim	s621	0	False
344.866	1.0	345.695	0.1	2.408	True	89.0	Orange-Blue	n/a	twobytwo	89.0	0.729	blue	1.0	task_switch	color	switch	stim	poldrack-single-stim	s621	0	False
347.381	1.0	348.135	0.1	2.272	True	89.0	Magnitude	n/a	twobytwo	89.0	0.654	orange	2.0	task_switch	magnitude	switch	stim	poldrack-single-stim	s621	0	False
350.562	1.0	351.97	0.9	2.136	True	89.0	Orange-Blue	n/a	twobytwo	89.0	0.508	blue	6.0	task_switch	color	switch	stim	poldrack-single-stim	s621	0	False
353.604	1.0	355.275	0.9	2.0	True	71.0	Color	switch	twobytwo	71.0	0.771	orange	9.0	cue_switch	color	stay	stim	poldrack-single-stim	s621	0	False
356.514	1.0	357.93	0.9	2.0	True	89.0	Magnitude	n/a	twobytwo	89.0	0.516	orange	4.0	task_switch	magnitude	switch	stim	poldrack-single-stim	s621	0	False
359.426	1.0	360.822	0.9	2.136	True	89.0	Color	n/a	twobytwo	89.0	0.496	blue	2.0	task_switch	color	switch	stim	poldrack-single-stim	s621	0	False
362.466	1.0	363.805	0.9	2.0	True	71.0	Color	stay	twobytwo	71.0	0.439	orange	9.0	cue_stay	color	stay	stim	poldrack-single-stim	s621	0	False
364.572	1.0	365.349	0.1	2.136	True	89.0	Orange-Blue	switch	twobytwo	89.0	0.677	blue	3.0	cue_switch	color	stay	stim	poldrack-single-stim	s621	0	False
367.612	1.0	369.015	0.9	2.408	True	89.0	Magnitude	n/a	twobytwo	89.0	0.503	orange	4.0	task_switch	magnitude	switch	stim	poldrack-single-stim	s621	0	False
370.127	1.0	371.021	0.1	2.136	True	71.0	Color	n/a	twobytwo	71.0	0.794	orange	2.0	task_switch	color	switch	stim	poldrack-single-stim	s621	0	False
373.171	1.0	375.082	0.9	2.0	True	71.0	Magnitude	n/a	twobytwo	71.0	1.011	orange	6.0	task_switch	magnitude	switch	stim	poldrack-single-stim	s621	0	False
376.075	1.0	377.515	0.9	2.136	True	71.0	Orange-Blue	n/a	twobytwo	71.0	0.54	orange	2.0	task_switch	color	switch	stim	poldrack-single-stim	s621	0	False
379.118	1.0	380.703	0.9	2.272	True	89.0	Orange-Blue	stay	twobytwo	89.0	0.685	blue	3.0	cue_stay	color	stay	stim	poldrack-single-stim	s621	0	False
382.298	1.0	384.256	0.9	2.0	True	71.0	High-Low	n/a	twobytwo	71.0	1.058	orange	6.0	task_switch	magnitude	switch	stim	poldrack-single-stim	s621	0	False
384.407	1.0	385.168	0.1	2.408	True	89.0	Color	n/a	twobytwo	89.0	0.661	blue	6.0	task_switch	color	switch	stim	poldrack-single-stim	s621	0	False
386.922	1.0	387.677	0.1	2.0	True	89.0	Orange-Blue	switch	twobytwo	89.0	0.655	blue	3.0	cue_switch	color	stay	stim	poldrack-single-stim	s621	0	False
389.826	1.0	391.171	0.9	2.136	True	89.0	Color	switch	twobytwo	89.0	0.445	blue	6.0	cue_switch	color	stay	stim	poldrack-single-stim	s621	0	False
392.871	1.0	394.44	0.9	2.408	True	89.0	Color	stay	twobytwo	89.0	0.669	blue	9.0	cue_stay	color	stay	stim	poldrack-single-stim	s621	0	False
395.389	1.0	396.245	0.1	2.136	True	89.0	High-Low	n/a	twobytwo	89.0	0.756	orange	3.0	task_switch	magnitude	switch	stim	poldrack-single-stim	s621	0	False
398.434	1.0	399.805	0.9	2.408	True	89.0	Color	n/a	twobytwo	89.0	0.471	blue	1.0	task_switch	color	switch	stim	poldrack-single-stim	s621	0	False
400.948	1.0	401.624	0.1	2.136	True	71.0	Color	stay	twobytwo	71.0	0.576	orange	8.0	cue_stay	color	stay	stim	poldrack-single-stim	s621	0	False
403.994	1.0	405.408	0.9	2.0	True	71.0	High-Low	n/a	twobytwo	71.0	0.514	blue	7.0	task_switch	magnitude	switch	stim	poldrack-single-stim	s621	0	False
406.1	1.0	406.875	0.1	2.272	True	89.0	High-Low	stay	twobytwo	89.0	0.675	blue	4.0	cue_stay	magnitude	stay	stim	poldrack-single-stim	s621	0	False
408.478	1.0	409.13	0.1	2.0	True	71.0	Magnitude	switch	twobytwo	71.0	0.552	orange	7.0	cue_switch	magnitude	stay	stim	poldrack-single-stim	s621	0	False
410.585	1.0	411.32	0.1	2.272	True	71.0	High-Low	switch	twobytwo	71.0	0.635	blue	9.0	cue_switch	magnitude	stay	stim	poldrack-single-stim	s621	0	False
413.764	1.0	415.156	0.9	2.272	True	71.0	Magnitude	switch	twobytwo	71.0	0.492	blue	9.0	cue_switch	magnitude	stay	stim	poldrack-single-stim	s621	0	False
416.946	1.0	418.39	0.9	2.952	False	71.0	Orange-Blue	n/a	twobytwo	89.0	0.544	orange	3.0	task_switch	color	switch	stim	poldrack-single-stim	s621	0	False
420.002	1.0	421.157	0.1	2.68	True	89.0	Orange-Blue	stay	twobytwo	89.0	1.055	blue	8.0	cue_stay	color	stay	stim	poldrack-single-stim	s621	0	False
422.786	1.0	423.495	0.1	2.136	True	89.0	High-Low	n/a	twobytwo	89.0	0.609	blue	2.0	task_switch	magnitude	switch	stim	poldrack-single-stim	s621	0	False
425.829	1.0	427.281	0.9	2.272	True	71.0	Magnitude	switch	twobytwo	71.0	0.552	orange	8.0	cue_switch	magnitude	stay	stim	poldrack-single-stim	s621	0	False
428.21	1.0	428.994	0.1	2.272	True	89.0	High-Low	switch	twobytwo	89.0	0.684	blue	3.0	cue_switch	magnitude	stay	stim	poldrack-single-stim	s621	0	False
430.588	1.0	431.255	0.1	2.136	True	89.0	High-Low	stay	twobytwo	89.0	0.567	orange	2.0	cue_stay	magnitude	stay	stim	poldrack-single-stim	s621	0	False
433.628	1.0	435.435	0.9	2.408	True	89.0	Orange-Blue	n/a	twobytwo	89.0	0.907	blue	8.0	task_switch	color	switch	stim	poldrack-single-stim	s621	0	False
436.14	1.0	437.083	0.1	2.136	True	89.0	Magnitude	n/a	twobytwo	89.0	0.843	orange	4.0	task_switch	magnitude	switch	stim	poldrack-single-stim	s621	0	False
438.386	1.0	439.182	0.1	2.136	True	71.0	High-Low	switch	twobytwo	71.0	0.696	blue	6.0	cue_switch	magnitude	stay	stim	poldrack-single-stim	s621	0	False
440.628	1.0	441.311	0.1	2.0	True	71.0	Color	n/a	twobytwo	71.0	0.583	orange	8.0	task_switch	color	switch	stim	poldrack-single-stim	s621	0	False
442.735	1.0	443.44	0.1	2.0	True	71.0	Color	stay	twobytwo	71.0	0.605	orange	8.0	cue_stay	color	stay	stim	poldrack-single-stim	s621	0	False
444.842	1.0	445.613	0.1	2.0	True	71.0	High-Low	n/a	twobytwo	71.0	0.671	blue	7.0	task_switch	magnitude	switch	stim	poldrack-single-stim	s621	0	False
447.748	1.0	449.074	0.9	2.0	True	89.0	Color	n/a	twobytwo	89.0	0.426	blue	6.0	task_switch	color	switch	stim	poldrack-single-stim	s621	0	False
450.655	1.0	452.055	0.9	2.0	True	89.0	High-Low	n/a	twobytwo	89.0	0.5	blue	3.0	task_switch	magnitude	switch	stim	poldrack-single-stim	s621	0	False
452.762	1.0	453.719	0.1	2.272	True	71.0	Orange-Blue	n/a	twobytwo	71.0	0.857	orange	2.0	task_switch	color	switch	stim	poldrack-single-stim	s621	0	False
468.656	1.0	469.511	0.1	2.408	True	89.0	Color	switch	twobytwo	89.0	0.755	blue	1.0	cue_switch	color	stay	stim	poldrack-single-stim	s621	1	False
471.969	1.0	473.444	0.9	2.0	True	89.0	High-Low	n/a	twobytwo	89.0	0.575	blue	4.0	task_switch	magnitude	switch	stim	poldrack-single-stim	s621	0	False
474.876	1.0	476.282	0.9	2.136	True	89.0	Color	n/a	twobytwo	89.0	0.506	blue	7.0	task_switch	color	switch	stim	poldrack-single-stim	s621	0	False
477.919	1.0	479.318	0.9	2.0	True	71.0	Color	stay	twobytwo	71.0	0.499	orange	7.0	cue_stay	color	stay	stim	poldrack-single-stim	s621	0	False
480.828	1.0	482.476	0.9	2.136	True	71.0	Magnitude	n/a	twobytwo	71.0	0.748	blue	8.0	task_switch	magnitude	switch	stim	poldrack-single-stim	s621	0	False
483.871	1.0	485.241	0.9	2.544	True	89.0	Magnitude	stay	twobytwo	89.0	0.47	blue	4.0	cue_stay	magnitude	stay	stim	poldrack-single-stim	s621	0	False
487.324	1.0	488.757	0.9	2.68	True	71.0	High-Low	switch	twobytwo	71.0	0.533	blue	9.0	cue_switch	magnitude	stay	stim	poldrack-single-stim	s621	0	False
490.911	1.0	492.351	0.9	3.088	True	89.0	High-Low	stay	twobytwo	89.0	0.54	blue	3.0	cue_stay	magnitude	stay	stim	poldrack-single-stim	s621	0	False
494.908	1.0	496.423	0.9	2.136	True	71.0	High-Low	stay	twobytwo	71.0	0.615	blue	8.0	cue_stay	magnitude	stay	stim	poldrack-single-stim	s621	0	False
497.949	1.0	499.489	0.9	2.544	True	89.0	Orange-Blue	n/a	twobytwo	89.0	0.64	blue	6.0	task_switch	color	switch	stim	poldrack-single-stim	s621	0	False
500.602	1.0	501.293	0.1	2.0	True	71.0	High-Low	n/a	twobytwo	71.0	0.591	blue	7.0	task_switch	magnitude	switch	stim	poldrack-single-stim	s621	0	False
502.705	1.0	503.456	0.1	2.136	True	89.0	High-Low	stay	twobytwo	89.0	0.651	blue	2.0	cue_stay	magnitude	stay	stim	poldrack-single-stim	s621	0	False
505.749	1.0	507.154	0.9	2.0	True	71.0	Magnitude	switch	twobytwo	71.0	0.505	orange	7.0	cue_switch	magnitude	stay	stim	poldrack-single-stim	s621	0	False
508.655	1.0	510.159	0.9	2.408	True	71.0	Magnitude	stay	twobytwo	71.0	0.604	orange	6.0	cue_stay	magnitude	stay	stim	poldrack-single-stim	s621	0	False
511.172	1.0	512.239	0.1	2.0	True	89.0	Color	n/a	twobytwo	89.0	0.967	blue	8.0	task_switch	color	switch	stim	poldrack-single-stim	s621	0	False
514.079	1.0	515.426	0.9	2.0	True	89.0	Orange-Blue	switch	twobytwo	89.0	0.447	blue	1.0	cue_switch	color	stay	stim	poldrack-single-stim	s621	0	False
516.191	1.0	517.454	0.1	2.0	True	71.0	Color	switch	twobytwo	71.0	1.163	orange	3.0	cue_switch	color	stay	stim	poldrack-single-stim	s621	0	False
519.095	1.0	520.572	0.9	2.68	True	71.0	High-Low	n/a	twobytwo	71.0	0.577	blue	8.0	task_switch	magnitude	switch	stim	poldrack-single-stim	s621	0	False
522.68	1.0	524.095	0.9	2.272	True	71.0	Orange-Blue	n/a	twobytwo	71.0	0.515	orange	9.0	task_switch	color	switch	stim	poldrack-single-stim	s621	0	False
525.858	1.0	527.338	0.9	2.408	True	71.0	High-Low	n/a	twobytwo	71.0	0.58	orange	7.0	task_switch	magnitude	switch	stim	poldrack-single-stim	s621	0	False
528.37	1.0	529.136	0.1	3.224	True	89.0	Magnitude	switch	twobytwo	89.0	0.666	orange	1.0	cue_switch	magnitude	stay	stim	poldrack-single-stim	s621	0	False
532.5	1.0	533.904	0.9	2.408	True	89.0	Magnitude	stay	twobytwo	89.0	0.504	blue	3.0	cue_stay	magnitude	stay	stim	poldrack-single-stim	s621	0	False
535.018	1.0	535.953	0.1	2.816	True	71.0	Magnitude	stay	twobytwo	71.0	0.835	blue	8.0	cue_stay	magnitude	stay	stim	poldrack-single-stim	s621	0	False
537.938	1.0	538.605	0.1	2.408	True	71.0	Magnitude	stay	twobytwo	71.0	0.567	blue	9.0	cue_stay	magnitude	stay	stim	poldrack-single-stim	s621	0	False
541.25	1.0	542.637	0.9	2.136	True	71.0	Color	n/a	twobytwo	71.0	0.487	orange	7.0	task_switch	color	switch	stim	poldrack-single-stim	s621	0	False
543.49	1.0	544.328	0.1	2.136	True	71.0	High-Low	n/a	twobytwo	71.0	0.738	blue	9.0	task_switch	magnitude	switch	stim	poldrack-single-stim	s621	0	False
546.533	1.0	548.001	0.9	2.0	True	89.0	Orange-Blue	n/a	twobytwo	89.0	0.568	blue	8.0	task_switch	color	switch	stim	poldrack-single-stim	s621	0	False
548.639	1.0	549.615	0.1	2.0	True	71.0	Color	switch	twobytwo	71.0	0.876	orange	1.0	cue_switch	color	stay	stim	poldrack-single-stim	s621	0	False
551.546	1.0	552.933	0.9	2.272	True	89.0	Orange-Blue	switch	twobytwo	89.0	0.487	blue	2.0	cue_switch	color	stay	stim	poldrack-single-stim	s621	0	False
553.927	1.0	554.715	0.1	2.408	True	71.0	High-Low	n/a	twobytwo	71.0	0.688	orange	9.0	task_switch	magnitude	switch	stim	poldrack-single-stim	s621	0	False
557.242	1.0	558.689	0.9	2.0	False	71.0	Magnitude	switch	twobytwo	89.0	0.547	blue	6.0	cue_switch	magnitude	stay	stim	poldrack-single-stim	s621	0	False
559.351	1.0	560.605	0.1	2.136	True	71.0	Orange-Blue	n/a	twobytwo	71.0	1.154	orange	6.0	task_switch	color	switch	stim	poldrack-single-stim	s621	0	False
562.39	1.0	563.775	0.9	2.0	True	89.0	Orange-Blue	stay	twobytwo	89.0	0.485	blue	4.0	cue_stay	color	stay	stim	poldrack-single-stim	s621	0	False
564.499	1.0	565.424	0.1	2.408	True	71.0	Color	switch	twobytwo	71.0	0.825	orange	2.0	cue_switch	color	stay	stim	poldrack-single-stim	s621	0	False
567.013	1.0	567.924	0.1	2.272	True	89.0	Magnitude	n/a	twobytwo	89.0	0.811	blue	2.0	task_switch	magnitude	switch	stim	poldrack-single-stim	s621	0	False
570.191	1.0	571.981	0.9	2.0	True	89.0	Color	n/a	twobytwo	89.0	0.89	blue	4.0	task_switch	color	switch	stim	poldrack-single-stim	s621	0	False
573.101	1.0	574.57	0.9	2.272	True	71.0	Orange-Blue	switch	twobytwo	71.0	0.569	orange	8.0	cue_switch	color	stay	stim	poldrack-single-stim	s621	0	False
575.482	1.0	576.155	0.1	2.0	True	89.0	Magnitude	n/a	twobytwo	89.0	0.573	orange	1.0	task_switch	magnitude	switch	stim	poldrack-single-stim	s621	0	False
578.388	1.0	579.883	0.9	2.0	False	89.0	Orange-Blue	n/a	twobytwo	71.0	0.595	blue	6.0	task_switch	color	switch	stim	poldrack-single-stim	s621	0	False
580.499	1.0	581.353	0.1	2.272	True	89.0	High-Low	n/a	twobytwo	89.0	0.754	blue	1.0	task_switch	magnitude	switch	stim	poldrack-single-stim	s621	0	False
582.876	1.0	583.825	0.1	2.136	True	71.0	Orange-Blue	n/a	twobytwo	71.0	0.849	orange	2.0	task_switch	color	switch	stim	poldrack-single-stim	s621	0	False
585.919	1.0	587.437	0.9	2.0	True	71.0	Magnitude	n/a	twobytwo	71.0	0.618	blue	6.0	task_switch	magnitude	switch	stim	poldrack-single-stim	s621	0	False
588.826	1.0	590.245	0.9	2.0	True	71.0	High-Low	switch	twobytwo	71.0	0.519	orange	9.0	cue_switch	magnitude	stay	stim	poldrack-single-stim	s621	0	False
591.732	1.0	593.405	0.9	2.0	True	71.0	Color	n/a	twobytwo	71.0	0.773	orange	4.0	task_switch	color	switch	stim	poldrack-single-stim	s621	0	False
594.644	1.0	596.003	0.9	2.0	True	89.0	Magnitude	n/a	twobytwo	89.0	0.459	blue	2.0	task_switch	magnitude	switch	stim	poldrack-single-stim	s621	0	False
597.551	1.0	599.019	0.9	2.0	True	71.0	Magnitude	stay	twobytwo	71.0	0.568	orange	9.0	cue_stay	magnitude	stay	stim	poldrack-single-stim	s621	0	False
599.66	1.0	600.547	0.1	2.136	True	89.0	High-Low	switch	twobytwo	89.0	0.787	blue	3.0	cue_switch	magnitude	stay	stim	poldrack-single-stim	s621	0	False
602.7	1.0	604.195	0.9	2.0	True	71.0	Color	n/a	twobytwo	71.0	0.595	orange	4.0	task_switch	color	switch	stim	poldrack-single-stim	s621	0	False
604.81	1.0	606.157	0.1	2.0	True	89.0	High-Low	n/a	twobytwo	89.0	1.247	orange	2.0	task_switch	magnitude	switch	stim	poldrack-single-stim	s621	0	False
607.714	1.0	609.299	0.9	2.136	True	71.0	Orange-Blue	n/a	twobytwo	71.0	0.685	orange	6.0	task_switch	color	switch	stim	poldrack-single-stim	s621	0	False
610.756	1.0	612.096	0.9	2.0	True	89.0	Magnitude	n/a	twobytwo	89.0	0.44	orange	2.0	task_switch	magnitude	switch	stim	poldrack-single-stim	s621	0	False
613.66	1.0	615.427	0.9	2.136	True	89.0	Magnitude	stay	twobytwo	89.0	0.867	blue	3.0	cue_stay	magnitude	stay	stim	poldrack-single-stim	s621	0	False
616.7	1.0	618.227	0.9	2.68	True	71.0	Orange-Blue	n/a	twobytwo	71.0	0.627	orange	6.0	task_switch	color	switch	stim	poldrack-single-stim	s621	0	False
619.486	1.0	620.353	0.1	2.272	True	71.0	Magnitude	n/a	twobytwo	71.0	0.767	blue	6.0	task_switch	magnitude	switch	stim	poldrack-single-stim	s621	0	False
621.863	1.0	622.599	0.1	2.136	True	89.0	High-Low	switch	twobytwo	89.0	0.636	blue	3.0	cue_switch	magnitude	stay	stim	poldrack-single-stim	s621	0	False
624.906	1.0	626.443	0.9	2.0	True	71.0	Magnitude	switch	twobytwo	71.0	0.637	blue	6.0	cue_switch	magnitude	stay	stim	poldrack-single-stim	s621	0	False
627.809	1.0	629.604	0.9	2.136	True	71.0	Magnitude	stay	twobytwo	71.0	0.895	blue	9.0	cue_stay	magnitude	stay	stim	poldrack-single-stim	s621	0	False
630.05	1.0	630.717	0.1	2.68	False	71.0	Color	n/a	twobytwo	89.0	0.567	orange	3.0	task_switch	color	switch	stim	poldrack-single-stim	s621	0	False
633.636	1.0	635.055	0.9	2.272	True	89.0	Magnitude	n/a	twobytwo	89.0	0.519	blue	1.0	task_switch	magnitude	switch	stim	poldrack-single-stim	s621	0	False
636.015	1.0	636.675	0.1	2.0	True	71.0	Magnitude	stay	twobytwo	71.0	0.56	orange	8.0	cue_stay	magnitude	stay	stim	poldrack-single-stim	s621	0	False
638.92	1.0	640.459	0.9	2.0	False	89.0	Orange-Blue	n/a	twobytwo	71.0	0.639	blue	7.0	task_switch	color	switch	stim	poldrack-single-stim	s621	0	False
641.026	1.0	641.796	0.1	2.136	True	89.0	Orange-Blue	stay	twobytwo	89.0	0.67	blue	4.0	cue_stay	color	stay	stim	poldrack-single-stim	s621	0	False
643.268	1.0	644.228	0.1	2.0	True	71.0	Color	switch	twobytwo	71.0	0.86	orange	7.0	cue_switch	color	stay	stim	poldrack-single-stim	s621	0	False
645.375	1.0	646.422	0.1	2.0	True	89.0	Orange-Blue	switch	twobytwo	89.0	0.947	blue	9.0	cue_switch	color	stay	stim	poldrack-single-stim	s621	0	False
648.282	1.0	649.998	0.9	2.0	True	89.0	Color	switch	twobytwo	89.0	0.816	blue	9.0	cue_switch	color	stay	stim	poldrack-single-stim	s621	0	False
651.189	1.0	652.871	0.9	2.272	True	89.0	Magnitude	n/a	twobytwo	89.0	0.782	orange	3.0	task_switch	magnitude	switch	stim	poldrack-single-stim	s621	0	False
653.57	1.0	654.469	0.1	2.408	True	71.0	Magnitude	stay	twobytwo	71.0	0.799	blue	8.0	cue_stay	magnitude	stay	stim	poldrack-single-stim	s621	0	False
656.084	1.0	656.762	0.1	2.0	True	89.0	Color	n/a	twobytwo	89.0	0.578	blue	2.0	task_switch	color	switch	stim	poldrack-single-stim	s621	0	False
658.991	1.0	660.362	0.9	2.0	True	71.0	Orange-Blue	switch	twobytwo	71.0	0.471	orange	8.0	cue_switch	color	stay	stim	poldrack-single-stim	s621	0	False
661.098	1.0	661.953	0.1	2.0	True	89.0	Color	switch	twobytwo	89.0	0.755	blue	3.0	cue_switch	color	stay	stim	poldrack-single-stim	s621	0	False
663.204	1.0	664.218	0.1	2.272	True	71.0	Color	stay	twobytwo	71.0	0.914	orange	2.0	cue_stay	color	stay	stim	poldrack-single-stim	s621	0	False
666.38	1.0	668.055	0.9	2.136	True	71.0	High-Low	n/a	twobytwo	71.0	0.775	blue	8.0	task_switch	magnitude	switch	stim	poldrack-single-stim	s621	0	False
668.623	1.0	669.53	0.1	2.0	True	71.0	Orange-Blue	n/a	twobytwo	71.0	0.807	orange	4.0	task_switch	color	switch	stim	poldrack-single-stim	s621	0	False
670.73	1.0	671.507	0.1	2.544	True	89.0	Color	switch	twobytwo	89.0	0.677	blue	6.0	cue_switch	color	stay	stim	poldrack-single-stim	s621	0	False
673.38	1.0	674.104	0.1	2.272	True	71.0	Magnitude	n/a	twobytwo	71.0	0.624	orange	8.0	task_switch	magnitude	switch	stim	poldrack-single-stim	s621	0	False
675.758	1.0	676.359	0.1	2.272	True	71.0	Magnitude	stay	twobytwo	71.0	0.501	orange	8.0	cue_stay	magnitude	stay	stim	poldrack-single-stim	s621	0	False
678.134	1.0	678.984	0.1	2.0	True	89.0	Color	n/a	twobytwo	89.0	0.75	blue	7.0	task_switch	color	switch	stim	poldrack-single-stim	s621	0	False
681.044	1.0	682.581	0.9	2.0	True	71.0	Magnitude	n/a	twobytwo	71.0	0.637	blue	6.0	task_switch	magnitude	switch	stim	poldrack-single-stim	s621	0	False
683.949	1.0	685.564	0.9	2.136	True	89.0	Orange-Blue	n/a	twobytwo	89.0	0.715	blue	3.0	task_switch	color	switch	stim	poldrack-single-stim	s621	0	False
686.193	1.0	687.514	0.1	2.0	True	89.0	High-Low	n/a	twobytwo	89.0	1.221	orange	2.0	task_switch	magnitude	switch	stim	poldrack-single-stim	s621	0	False
