onset	duration	movement_onset	EV	action	block_duration	experiment_exp_id	gain_amount	gain_probability	key_press	loss_amount	loss_probability	num_cards	num_click_in_round	num_loss_cards	risk	response_time	total_cards	trial_id	trial_type	worker_id	junk	feedback
3.012	4.994	8.006	-0.1072274840953	draw_card	4.994	columbia_card_task_fmri	12.0	0.8333333333333334	89.0	-70.0	0.1666666666666666	6.0	1.0	1.0	-1.6613647874271074	4.994	n/a	stim	poldrack-single-stim	s621	False	1
8.008	0.65	8.658	-2.8405608174286323	draw_card	0.65	columbia_card_task_fmri	12.0	0.8	89.0	-70.0	0.2	6.0	2.0	1.0	0.5763266989427507	0.65	n/a	stim	poldrack-single-stim	s621	False	1
8.659	0.681	9.34	-6.940560817428634	draw_card	0.681	columbia_card_task_fmri	12.0	0.75	89.0	-70.0	0.25	6.0	3.0	1.0	3.280546412876717	0.681	n/a	stim	poldrack-single-stim	s621	False	1
9.342	2.457	11.799	-13.773894150761969	end_round	2.457	columbia_card_task_fmri	12.0	0.6666666666666667	71.0	-70.0	0.3333333333333333	6.0	4.0	1.0	6.425890343789568	2.457	3.0	stim	poldrack-single-stim	s621	False	1
12.555	1.5	11.804	n/a	-1.0	2.454	columbia_card_task_fmri	n/a	n/a	-1.0	n/a	n/a	n/a	n/a	n/a	n/a	n/a	n/a	ITI	poldrack-single-stim	s621	False	0
14.262	3.246	17.508	0.7261058492380339	draw_card	3.246	columbia_card_task_fmri	14.0	0.8333333333333334	89.0	-75.0	0.1666666666666666	6.0	1.0	1.0	0.9442573737654456	3.246	n/a	stim	poldrack-single-stim	s621	False	1
17.509	0.342	17.851	-2.2405608174286327	draw_card	0.342	columbia_card_task_fmri	14.0	0.8	89.0	-75.0	0.2	6.0	2.0	1.0	3.3734155672337565	0.342	2.0	stim	poldrack-single-stim	s621	False	0
18.606	1.5	17.855	n/a	-1.0	2.454	columbia_card_task_fmri	n/a	n/a	-1.0	n/a	n/a	n/a	n/a	n/a	n/a	n/a	n/a	ITI	poldrack-single-stim	s621	False	0
20.312	5.281	25.593	2.3927725159047	draw_card	5.281	columbia_card_task_fmri	15.0	0.8333333333333334	89.0	-70.0	0.1666666666666666	6.0	1.0	1.0	-0.5447324628110266	5.281	1.0	stim	poldrack-single-stim	s621	False	0
26.348	1.5	25.597	n/a	-1.0	2.522	columbia_card_task_fmri	n/a	n/a	-1.0	n/a	n/a	n/a	n/a	n/a	n/a	n/a	n/a	ITI	poldrack-single-stim	s621	False	0
28.121	6.287	34.408	3.226105849238034	draw_card	6.287	columbia_card_task_fmri	17.0	0.8333333333333334	89.0	-75.0	0.1666666666666666	6.0	1.0	1.0	2.061097867912565	6.287	1.0	stim	poldrack-single-stim	s621	False	0
35.161	1.5	34.41	n/a	-1.0	2.386	columbia_card_task_fmri	n/a	n/a	-1.0	n/a	n/a	n/a	n/a	n/a	n/a	n/a	n/a	ITI	poldrack-single-stim	s621	False	0
36.799	3.674	40.473	4.559439182571366	draw_card	3.674	columbia_card_task_fmri	24.0	0.75	89.0	-60.0	0.25	8.0	1.0	2.0	4.145757618346963	3.674	1.0	stim	poldrack-single-stim	s621	False	0
41.228	1.5	40.477	n/a	-1.0	2.454	columbia_card_task_fmri	n/a	n/a	-1.0	n/a	n/a	n/a	n/a	n/a	n/a	n/a	n/a	ITI	poldrack-single-stim	s621	False	0
42.933	3.081	46.014	4.559439182571366	draw_card	3.081	columbia_card_task_fmri	29.0	0.75	89.0	-75.0	0.25	8.0	1.0	2.0	12.799590207600048	3.081	n/a	stim	poldrack-single-stim	s621	False	1
46.015	0.522	46.537	0.8451534682856543	draw_card	0.522	columbia_card_task_fmri	29.0	0.7142857142857143	89.0	-75.0	0.2857142857142857	8.0	2.0	2.0	14.74756099438207	0.522	n/a	stim	poldrack-single-stim	s621	False	1
46.538	0.676	47.214	-4.107227484095298	draw_card	0.676	columbia_card_task_fmri	29.0	0.6666666666666667	89.0	-75.0	0.3333333333333333	8.0	3.0	2.0	16.790142229674267	0.676	n/a	stim	poldrack-single-stim	s621	False	1
47.216	1.191	48.407	-11.040560817428636	end_round	1.191	columbia_card_task_fmri	29.0	0.6	71.0	-75.0	0.4	8.0	4.0	2.0	18.71252315120961	1.191	3.0	stim	poldrack-single-stim	s621	False	1
49.158	1.5	48.407	n/a	-1.0	2.522	columbia_card_task_fmri	n/a	n/a	-1.0	n/a	n/a	n/a	n/a	n/a	n/a	n/a	n/a	ITI	poldrack-single-stim	s621	False	0
50.933	3.95	54.883	0.3372169603491464	draw_card	3.95	columbia_card_task_fmri	17.0	0.7777777777777778	89.0	-65.0	0.2222222222222222	9.0	1.0	2.0	1.865581689266996	3.95	n/a	stim	poldrack-single-stim	s621	False	1
54.885	0.82	55.705	-1.940560817428634	draw_card	0.82	columbia_card_task_fmri	17.0	0.75	89.0	-65.0	0.25	9.0	2.0	2.0	3.280546412876717	0.82	n/a	stim	poldrack-single-stim	s621	False	1
55.706	0.816	56.522	-4.869132246000061	draw_card	0.816	columbia_card_task_fmri	17.0	0.7142857142857143	89.0	-65.0	0.2857142857142857	9.0	3.0	2.0	4.815910188753641	0.816	n/a	stim	poldrack-single-stim	s621	False	1
56.523	4.648	61.171	-8.773894150761965	end_round	4.648	columbia_card_task_fmri	17.0	0.6666666666666667	71.0	-65.0	0.3333333333333333	9.0	4.0	2.0	6.425890343789568	4.648	3.0	stim	poldrack-single-stim	s621	False	1
61.927	1.5	61.176	n/a	-1.0	2.522	columbia_card_task_fmri	n/a	n/a	-1.0	n/a	n/a	n/a	n/a	n/a	n/a	n/a	n/a	ITI	poldrack-single-stim	s621	False	0
63.7	4.517	68.217	4.659439182571366	draw_card	4.517	columbia_card_task_fmri	14.0	0.9	89.0	-95.0	0.1	10.0	1.0	1.0	0.4764398731702215	4.517	n/a	stim	poldrack-single-stim	s621	False	1
68.219	0.981	69.2	3.4483280714602538	end_round	0.981	columbia_card_task_fmri	14.0	0.8888888888888888	71.0	-95.0	0.1111111111111111	10.0	2.0	1.0	2.030149414034234	0.981	1.0	stim	poldrack-single-stim	s621	False	1
69.955	1.5	69.204	n/a	-1.0	2.59	columbia_card_task_fmri	n/a	n/a	-1.0	n/a	n/a	n/a	n/a	n/a	n/a	n/a	n/a	ITI	poldrack-single-stim	s621	False	0
71.797	2.19	73.987	0.559439182571366	draw_card	2.19	columbia_card_task_fmri	15.0	0.8	89.0	-65.0	0.2	10.0	1.0	2.0	-0.2227481364114041	2.19	n/a	stim	poldrack-single-stim	s621	False	1
73.988	0.618	74.606	-1.2183385952064107	draw_card	0.618	columbia_card_task_fmri	15.0	0.7777777777777778	89.0	-65.0	0.2222222222222222	10.0	2.0	2.0	1.034992523032507	0.618	n/a	stim	poldrack-single-stim	s621	False	1
74.608	0.541	75.149	-3.4405608174286337	draw_card	0.541	columbia_card_task_fmri	15.0	0.75	89.0	-65.0	0.25	10.0	3.0	2.0	2.415375857040964	0.541	3.0	stim	poldrack-single-stim	s621	False	0
75.903	1.5	75.152	n/a	-1.0	2.454	columbia_card_task_fmri	n/a	n/a	-1.0	n/a	n/a	n/a	n/a	n/a	n/a	n/a	n/a	ITI	poldrack-single-stim	s621	False	0
77.609	1.908	79.517	2.159439182571368	draw_card	1.908	columbia_card_task_fmri	17.0	0.8	89.0	-65.0	0.2	10.0	1.0	2.0	0.5763266989427507	1.908	n/a	stim	poldrack-single-stim	s621	False	1
79.519	0.385	79.904	0.3372169603491464	draw_card	0.385	columbia_card_task_fmri	17.0	0.7777777777777778	89.0	-65.0	0.2222222222222222	10.0	2.0	2.0	1.865581689266996	0.385	n/a	stim	poldrack-single-stim	s621	False	1
79.906	0.487	80.393	-1.940560817428634	draw_card	0.487	columbia_card_task_fmri	17.0	0.75	89.0	-65.0	0.25	10.0	3.0	2.0	3.280546412876717	0.487	3.0	stim	poldrack-single-stim	s621	False	0
81.149	1.5	80.398	n/a	-1.0	2.318	columbia_card_task_fmri	n/a	n/a	-1.0	n/a	n/a	n/a	n/a	n/a	n/a	n/a	n/a	ITI	poldrack-single-stim	s621	False	0
82.719	2.796	85.515	0.7261058492380339	draw_card	2.796	columbia_card_task_fmri	13.0	0.8333333333333334	89.0	-70.0	0.1666666666666666	12.0	1.0	2.0	-1.2891652495711377	2.796	1.0	stim	poldrack-single-stim	s621	False	0
86.268	1.5	85.517	n/a	-1.0	2.25	columbia_card_task_fmri	n/a	n/a	-1.0	n/a	n/a	n/a	n/a	n/a	n/a	n/a	n/a	ITI	poldrack-single-stim	s621	False	0
87.771	3.468	91.239	0.7261058492380339	draw_card	3.468	columbia_card_task_fmri	15.0	0.8333333333333334	89.0	-80.0	0.1666666666666666	12.0	1.0	2.0	3.178013627537503	3.468	n/a	stim	poldrack-single-stim	s621	False	1
91.241	2.195	93.436	-0.7132880901559091	draw_card	2.195	columbia_card_task_fmri	15.0	0.8181818181818181	89.0	-80.0	0.1818181818181818	12.0	2.0	2.0	4.41343430921988	2.195	n/a	stim	poldrack-single-stim	s621	False	1
93.438	0.676	94.114	-2.4405608174286337	draw_card	0.676	columbia_card_task_fmri	15.0	0.8	89.0	-80.0	0.2	12.0	3.0	2.0	5.771261304545391	0.676	3.0	stim	poldrack-single-stim	s621	False	0
94.868	1.5	94.117	n/a	-1.0	2.658	columbia_card_task_fmri	n/a	n/a	-1.0	n/a	n/a	n/a	n/a	n/a	n/a	n/a	n/a	ITI	poldrack-single-stim	s621	False	0
96.778	3.319	100.097	-0.2405608174286329	draw_card	3.319	columbia_card_task_fmri	14.0	0.8	89.0	-65.0	0.2	15.0	1.0	3.0	-0.622268019162604	3.319	n/a	stim	poldrack-single-stim	s621	False	1
100.099	0.429	100.528	-1.369132246000061	draw_card	0.429	columbia_card_task_fmri	14.0	0.7857142857142857	89.0	-65.0	0.2142857142857142	15.0	2.0	3.0	0.1925117445033635	0.429	2.0	stim	poldrack-single-stim	s621	False	0
101.28	1.5	100.529	n/a	-1.0	2.454	columbia_card_task_fmri	n/a	n/a	-1.0	n/a	n/a	n/a	n/a	n/a	n/a	n/a	n/a	ITI	poldrack-single-stim	s621	False	0
102.986	6.75	109.736	-0.3155608174286339	draw_card	6.75	columbia_card_task_fmri	1.0	0.9375	89.0	-45.0	0.0625	16.0	1.0	1.0	-21.01722623402692	6.75	n/a	stim	poldrack-single-stim	s621	False	1
109.738	2.236	111.974	-0.5072274840953004	draw_card	2.236	columbia_card_task_fmri	1.0	0.9333333333333332	89.0	-45.0	0.0666666666666666	16.0	2.0	1.0	-20.680823753114336	2.236	n/a	stim	poldrack-single-stim	s621	False	1
111.976	0.638	112.614	-0.7262751031429195	draw_card	0.638	columbia_card_task_fmri	1.0	0.9285714285714286	89.0	-45.0	0.0714285714285714	16.0	3.0	1.0	-20.31171538752012	0.638	n/a	stim	poldrack-single-stim	s621	False	1
112.616	0.523	113.139	-0.9790223558901724	draw_card	0.523	columbia_card_task_fmri	1.0	0.9230769230769232	89.0	-45.0	0.0769230769230769	16.0	4.0	1.0	-19.90433337200229	0.523	n/a	stim	poldrack-single-stim	s621	False	1
113.141	0.383	113.524	-1.2738941507619674	draw_card	0.383	columbia_card_task_fmri	1.0	0.9166666666666666	89.0	-45.0	0.0833333333333333	16.0	5.0	1.0	-19.45171317977327	0.383	n/a	stim	poldrack-single-stim	s621	False	1
113.526	0.805	114.331	-1.6223789992468156	draw_card	0.805	columbia_card_task_fmri	1.0	0.9090909090909092	89.0	-45.0	0.0909090909090909	16.0	6.0	1.0	-18.94502262519668	0.805	6.0	stim	poldrack-single-stim	s621	False	0
115.087	1.5	114.336	n/a	-1.0	2.386	columbia_card_task_fmri	n/a	n/a	-1.0	n/a	n/a	n/a	n/a	n/a	n/a	n/a	n/a	ITI	poldrack-single-stim	s621	False	0
116.725	4.015	120.74	0.621939182571366	draw_card	4.015	columbia_card_task_fmri	15.0	0.8125	89.0	-70.0	0.1875	16.0	1.0	3.0	0.9524585169648532	4.015	n/a	stim	poldrack-single-stim	s621	False	1
120.742	0.751	121.493	-0.4405608174286339	draw_card	0.751	columbia_card_task_fmri	15.0	0.8	89.0	-70.0	0.2	16.0	2.0	3.0	1.7750204513651369	0.751	n/a	stim	poldrack-single-stim	s621	False	1
121.495	1.148	122.643	-1.6548465317143493	draw_card	1.148	columbia_card_task_fmri	15.0	0.7857142857142857	89.0	-70.0	0.2142857142857142	16.0	3.0	3.0	2.651823648002626	1.148	3.0	stim	poldrack-single-stim	s621	False	0
123.397	1.5	122.646	n/a	-1.0	2.59	columbia_card_task_fmri	n/a	n/a	-1.0	n/a	n/a	n/a	n/a	n/a	n/a	n/a	n/a	ITI	poldrack-single-stim	s621	False	0
125.239	2.426	127.665	7.559439182571366	draw_card	2.426	columbia_card_task_fmri	30.0	0.7	89.0	-50.0	0.3	10.0	1.0	3.0	4.4330343826912255	2.426	n/a	stim	poldrack-single-stim	s621	False	1
127.667	0.45	128.117	4.8927725159047055	draw_card	0.45	columbia_card_task_fmri	30.0	0.6666666666666667	89.0	-50.0	0.3333333333333333	10.0	2.0	3.0	5.483866711874448	0.45	n/a	stim	poldrack-single-stim	s621	False	1
128.119	0.421	128.54	1.559439182571366	draw_card	0.421	columbia_card_task_fmri	30.0	0.625	89.0	-50.0	0.375	10.0	3.0	3.0	6.500492534985405	0.421	n/a	stim	poldrack-single-stim	s621	False	1
128.542	0.435	128.977	-2.7262751031429184	draw_card	0.435	columbia_card_task_fmri	30.0	0.5714285714285714	89.0	-50.0	0.4285714285714285	10.0	4.0	3.0	7.359710718773307	0.435	4.0	stim	poldrack-single-stim	s621	False	0
129.73	1.5	128.979	n/a	-1.0	2.318	columbia_card_task_fmri	n/a	n/a	-1.0	n/a	n/a	n/a	n/a	n/a	n/a	n/a	n/a	ITI	poldrack-single-stim	s621	False	0
131.3	1.911	133.211	6.959439182571367	draw_card	1.911	columbia_card_task_fmri	17.0	0.8666666666666667	89.0	-70.0	0.1333333333333333	15.0	1.0	2.0	-2.6453243928421983	1.911	n/a	stim	poldrack-single-stim	s621	False	1
133.213	0.934	134.147	6.130867753999939	draw_card	0.934	columbia_card_task_fmri	17.0	0.8571428571428572	89.0	-70.0	0.1428571428571428	15.0	2.0	2.0	-1.777151018927114	0.934	n/a	stim	poldrack-single-stim	s621	False	1
134.149	1.853	136.002	5.174823797955981	draw_card	1.853	columbia_card_task_fmri	17.0	0.8461538461538461	89.0	-70.0	0.1538461538461538	15.0	3.0	2.0	-0.8323052359012308	1.853	n/a	stim	poldrack-single-stim	s621	False	1
136.004	0.727	136.731	4.059439182571368	end_round	0.727	columbia_card_task_fmri	17.0	0.8333333333333334	71.0	-70.0	0.1666666666666666	15.0	4.0	2.0	0.1997426949505225	0.727	3.0	stim	poldrack-single-stim	s621	False	1
137.487	1.5	136.736	n/a	-1.0	2.59	columbia_card_task_fmri	n/a	n/a	-1.0	n/a	n/a	n/a	n/a	n/a	n/a	n/a	n/a	ITI	poldrack-single-stim	s621	False	0
139.33	2.018	141.348	2.1844391825713663	draw_card	2.018	columbia_card_task_fmri	7.0	0.9375	89.0	-95.0	0.0625	16.0	1.0	1.0	-7.52125630649202	2.018	n/a	stim	poldrack-single-stim	s621	False	1
141.35	0.853	142.203	1.7594391825713662	end_round	0.853	columbia_card_task_fmri	7.0	0.9333333333333332	71.0	-95.0	0.0666666666666666	16.0	2.0	1.0	-6.769708173681025	0.853	1.0	stim	poldrack-single-stim	s621	False	1
142.958	1.5	142.207	n/a	-1.0	2.386	columbia_card_task_fmri	n/a	n/a	-1.0	n/a	n/a	n/a	n/a	n/a	n/a	n/a	n/a	ITI	poldrack-single-stim	s621	False	0
144.597	2.689	147.286	3.7469391825713663	draw_card	2.689	columbia_card_task_fmri	9.0	0.9375	89.0	-100.0	0.0625	16.0	1.0	1.0	-5.829979913189423	2.689	n/a	stim	poldrack-single-stim	s621	False	1
147.288	3.488	150.776	3.2927725159047	draw_card	3.488	columbia_card_task_fmri	9.0	0.9333333333333332	89.0	-100.0	0.0666666666666666	16.0	2.0	1.0	-5.026662374345392	3.488	n/a	stim	poldrack-single-stim	s621	False	1
150.779	0.738	151.517	2.7737248968570816	end_round	0.738	columbia_card_task_fmri	9.0	0.9285714285714286	71.0	-100.0	0.0714285714285714	16.0	3.0	1.0	-4.145649717673468	0.738	2.0	stim	poldrack-single-stim	s621	False	1
152.274	1.5	151.523	n/a	-1.0	2.318	columbia_card_task_fmri	n/a	n/a	-1.0	n/a	n/a	n/a	n/a	n/a	n/a	n/a	n/a	ITI	poldrack-single-stim	s621	False	0
153.844	1.814	155.658	4.684439182571366	draw_card	1.814	columbia_card_task_fmri	15.0	0.875	89.0	-80.0	0.125	16.0	1.0	2.0	-0.8037490725554086	1.814	1.0	stim	poldrack-single-stim	s621	False	0
156.413	1.5	155.662	n/a	-1.0	2.318	columbia_card_task_fmri	n/a	n/a	-1.0	n/a	n/a	n/a	n/a	n/a	n/a	n/a	n/a	ITI	poldrack-single-stim	s621	False	0
157.984	2.408	160.392	6.809439182571366	draw_card	2.408	columbia_card_task_fmri	16.0	0.875	89.0	-70.0	0.125	16.0	1.0	2.0	-3.776177448629422	2.408	n/a	stim	poldrack-single-stim	s621	False	1
160.394	0.894	161.288	6.0927725159047	draw_card	0.894	columbia_card_task_fmri	16.0	0.8666666666666667	89.0	-70.0	0.1333333333333333	16.0	2.0	2.0	-2.984781960777717	0.894	n/a	stim	poldrack-single-stim	s621	False	1
161.291	0.819	162.11	5.273724896857082	end_round	0.819	columbia_card_task_fmri	16.0	0.8571428571428572	71.0	-70.0	0.1428571428571428	16.0	3.0	2.0	-2.1266146268703245	0.819	2.0	stim	poldrack-single-stim	s621	False	1
162.865	1.5	162.114	n/a	-1.0	2.318	columbia_card_task_fmri	n/a	n/a	-1.0	n/a	n/a	n/a	n/a	n/a	n/a	n/a	n/a	ITI	poldrack-single-stim	s621	False	0
164.436	2.872	167.308	8.121939182571365	draw_card	2.872	columbia_card_task_fmri	30.0	0.6875	89.0	-45.0	0.3125	16.0	1.0	5.0	2.5376666987720995	2.872	n/a	stim	poldrack-single-stim	s621	False	1
167.311	3.444	170.755	6.55943918257137	draw_card	3.444	columbia_card_task_fmri	30.0	0.6666666666666667	89.0	-45.0	0.3333333333333333	16.0	2.0	5.0	3.128990640549148	3.444	n/a	stim	poldrack-single-stim	s621	False	1
170.757	5.005	175.762	4.773724896857078	draw_card	5.005	columbia_card_task_fmri	30.0	0.6428571428571428	89.0	-45.0	0.3571428571428571	16.0	3.0	5.0	3.709902694874664	5.005	3.0	stim	poldrack-single-stim	s621	False	0
176.515	1.5	175.764	n/a	-1.0	2.386	columbia_card_task_fmri	n/a	n/a	-1.0	n/a	n/a	n/a	n/a	n/a	n/a	n/a	n/a	ITI	poldrack-single-stim	s621	False	0
178.153	1.793	179.946	-0.1072274840953	draw_card	1.793	columbia_card_task_fmri	13.0	0.8333333333333334	89.0	-75.0	0.1666666666666666	6.0	1.0	1.0	0.5719952622565927	1.793	n/a	stim	poldrack-single-stim	s621	False	1
179.948	0.824	180.772	-3.0405608174286334	end_round	0.824	columbia_card_task_fmri	13.0	0.8	71.0	-75.0	0.2	6.0	2.0	1.0	2.9738031305357424	0.824	1.0	stim	poldrack-single-stim	s621	False	1
181.526	1.5	180.775	n/a	-1.0	2.25	columbia_card_task_fmri	n/a	n/a	-1.0	n/a	n/a	n/a	n/a	n/a	n/a	n/a	n/a	ITI	poldrack-single-stim	s621	False	0
183.028	4.764	187.792	1.5594391825713678	draw_card	4.764	columbia_card_task_fmri	14.0	0.8333333333333334	89.0	-70.0	0.1666666666666666	6.0	1.0	1.0	-0.916954341258286	4.764	n/a	stim	poldrack-single-stim	s621	False	1
187.795	1.242	189.037	-1.240560817428633	draw_card	1.242	columbia_card_task_fmri	14.0	0.8	89.0	-70.0	0.2	6.0	2.0	1.0	1.3754455169656978	1.242	2.0	stim	poldrack-single-stim	s621	False	0
189.79	1.5	189.039	n/a	-1.0	2.386	columbia_card_task_fmri	n/a	n/a	-1.0	n/a	n/a	n/a	n/a	n/a	n/a	n/a	n/a	ITI	poldrack-single-stim	s621	False	0
191.429	1.838	193.267	1.5594391825713678	draw_card	1.838	columbia_card_task_fmri	16.0	0.8333333333333334	89.0	-80.0	0.1666666666666666	6.0	1.0	1.0	3.550334389217248	1.838	n/a	stim	poldrack-single-stim	s621	False	1
193.269	0.804	194.073	-1.6405608174286332	end_round	0.804	columbia_card_task_fmri	16.0	0.8	71.0	-80.0	0.2	6.0	2.0	1.0	6.170928407746814	0.804	1.0	stim	poldrack-single-stim	s621	False	1
194.829	1.5	194.078	n/a	-1.0	2.59	columbia_card_task_fmri	n/a	n/a	-1.0	n/a	n/a	n/a	n/a	n/a	n/a	n/a	n/a	ITI	poldrack-single-stim	s621	False	0
196.67	2.515	199.185	4.059439182571368	draw_card	2.515	columbia_card_task_fmri	17.0	0.8333333333333334	89.0	-70.0	0.1666666666666666	6.0	1.0	1.0	0.1997426949505225	2.515	1.0	stim	poldrack-single-stim	s621	False	0
199.94	1.5	199.189	n/a	-1.0	2.658	columbia_card_task_fmri	n/a	n/a	-1.0	n/a	n/a	n/a	n/a	n/a	n/a	n/a	n/a	ITI	poldrack-single-stim	s621	False	0
201.85	2.04	203.89	4.059439182571366	draw_card	2.04	columbia_card_task_fmri	25.0	0.75	89.0	-65.0	0.25	8.0	1.0	2.0	6.741608079310069	2.04	n/a	stim	poldrack-single-stim	s621	False	1
203.892	0.568	204.46	0.8451534682856543	draw_card	0.568	columbia_card_task_fmri	25.0	0.7142857142857143	89.0	-65.0	0.2857142857142857	8.0	2.0	2.0	8.427027653050999	0.568	n/a	stim	poldrack-single-stim	s621	False	1
204.463	0.857	205.32	-3.44056081742863	draw_card	0.857	columbia_card_task_fmri	25.0	0.6666666666666667	89.0	-65.0	0.3333333333333333	8.0	3.0	2.0	10.194333562982258	0.857	3.0	stim	poldrack-single-stim	s621	False	0
206.076	1.5	205.325	n/a	-1.0	2.386	columbia_card_task_fmri	n/a	n/a	-1.0	n/a	n/a	n/a	n/a	n/a	n/a	n/a	n/a	ITI	poldrack-single-stim	s621	False	0
207.715	2.371	210.086	4.059439182571366	draw_card	2.371	columbia_card_task_fmri	30.0	0.75	89.0	-80.0	0.25	8.0	1.0	2.0	15.396194913065408	2.371	n/a	stim	poldrack-single-stim	s621	False	1
210.089	1.695	211.784	0.1308677539999425	draw_card	1.695	columbia_card_task_fmri	30.0	0.7142857142857143	89.0	-80.0	0.2857142857142857	8.0	2.0	2.0	17.456674145951126	1.695	n/a	stim	poldrack-single-stim	s621	False	1
211.786	4.369	216.155	-5.107227484095295	end_round	4.369	columbia_card_task_fmri	30.0	0.6666666666666667	71.0	-80.0	0.3333333333333333	8.0	3.0	2.0	19.61721751034485	4.369	2.0	stim	poldrack-single-stim	s621	False	1
216.91	1.5	216.159	n/a	-1.0	2.386	columbia_card_task_fmri	n/a	n/a	-1.0	n/a	n/a	n/a	n/a	n/a	n/a	n/a	n/a	ITI	poldrack-single-stim	s621	False	0
218.549	3.45	221.999	3.7594391825713673	draw_card	3.45	columbia_card_task_fmri	13.0	0.9	89.0	-95.0	0.1	10.0	1.0	1.0	0.176783580275071	3.45	n/a	stim	poldrack-single-stim	s621	False	1
222.001	1.994	223.995	2.5594391825713663	draw_card	1.994	columbia_card_task_fmri	13.0	0.8888888888888888	89.0	-95.0	0.1111111111111111	10.0	2.0	1.0	1.716207884332782	1.994	n/a	stim	poldrack-single-stim	s621	False	1
223.997	2.492	226.489	1.059439182571366	end_round	2.492	columbia_card_task_fmri	13.0	0.875	71.0	-95.0	0.125	10.0	3.0	1.0	3.490945931194005	2.492	2.0	stim	poldrack-single-stim	s621	False	1
227.244	1.5	226.493	n/a	-1.0	2.25	columbia_card_task_fmri	n/a	n/a	-1.0	n/a	n/a	n/a	n/a	n/a	n/a	n/a	n/a	ITI	poldrack-single-stim	s621	False	0
228.747	1.84	230.587	5.159439182571366	draw_card	1.84	columbia_card_task_fmri	14.0	0.9	89.0	-90.0	0.1	10.0	1.0	1.0	-1.0217756139402745	1.84	n/a	stim	poldrack-single-stim	s621	False	1
230.589	0.71	231.299	4.003883627015809	end_round	0.71	columbia_card_task_fmri	14.0	0.8888888888888888	71.0	-90.0	0.1111111111111111	10.0	2.0	1.0	0.4605047668989499	0.71	1.0	stim	poldrack-single-stim	s621	False	1
232.056	1.5	231.305	n/a	-1.0	2.318	columbia_card_task_fmri	n/a	n/a	-1.0	n/a	n/a	n/a	n/a	n/a	n/a	n/a	n/a	ITI	poldrack-single-stim	s621	False	0
233.626	4.194	237.82	0.3594391825713667	draw_card	4.194	columbia_card_task_fmri	16.0	0.8	89.0	-70.0	0.2	10.0	1.0	2.0	2.174605255623902	4.194	n/a	stim	poldrack-single-stim	s621	False	1
237.823	1.262	239.085	-1.551671928539745	draw_card	1.262	columbia_card_task_fmri	16.0	0.7777777777777778	89.0	-70.0	0.2222222222222222	10.0	2.0	2.0	3.5268840588789843	1.262	n/a	stim	poldrack-single-stim	s621	False	1
239.087	3.41	242.497	-3.9405608174286337	end_round	3.41	columbia_card_task_fmri	16.0	0.75	71.0	-70.0	0.25	10.0	3.0	2.0	5.0110066425781525	3.41	2.0	stim	poldrack-single-stim	s621	False	1
243.249	1.5	242.498	n/a	-1.0	2.25	columbia_card_task_fmri	n/a	n/a	-1.0	n/a	n/a	n/a	n/a	n/a	n/a	n/a	n/a	ITI	poldrack-single-stim	s621	False	0
244.753	3.063	247.816	-0.3572274840953	end_round	3.063	columbia_card_task_fmri	7.0	0.9166666666666666	71.0	-100.0	0.0833333333333333	12.0	1.0	1.0	-2.6463983656223107	3.063	0.0	stim	poldrack-single-stim	s621	False	1
248.572	1.5	247.821	n/a	-1.0	2.25	columbia_card_task_fmri	n/a	n/a	-1.0	n/a	n/a	n/a	n/a	n/a	n/a	n/a	n/a	ITI	poldrack-single-stim	s621	False	0
250.075	1.725	251.8	-0.1072274840952982	draw_card	1.725	columbia_card_task_fmri	14.0	0.8333333333333334	89.0	-80.0	0.1666666666666666	12.0	1.0	2.0	2.805700455435222	1.725	n/a	stim	poldrack-single-stim	s621	False	1
251.802	2.207	254.009	-1.5314699083377274	end_round	2.207	columbia_card_task_fmri	14.0	0.8181818181818181	71.0	-80.0	0.1818181818181818	12.0	2.0	2.0	4.028092247524874	2.207	1.0	stim	poldrack-single-stim	s621	False	1
254.763	1.5	254.012	n/a	-1.0	2.386	columbia_card_task_fmri	n/a	n/a	-1.0	n/a	n/a	n/a	n/a	n/a	n/a	n/a	n/a	ITI	poldrack-single-stim	s621	False	0
256.401	1.406	257.807	1.559439182571366	draw_card	1.406	columbia_card_task_fmri	15.0	0.8333333333333334	89.0	-75.0	0.1666666666666666	12.0	1.0	2.0	1.3165287120349234	1.406	n/a	stim	poldrack-single-stim	s621	False	1
257.808	2.705	260.513	0.1958028189350009	draw_card	2.705	columbia_card_task_fmri	15.0	0.8181818181818181	89.0	-75.0	0.1818181818181818	12.0	2.0	2.0	2.486802229732156	2.705	n/a	stim	poldrack-single-stim	s621	False	1
260.516	2.292	262.808	-1.440560817428634	end_round	2.292	columbia_card_task_fmri	15.0	0.8	71.0	-75.0	0.2	12.0	3.0	2.0	3.773036604213132	2.292	2.0	stim	poldrack-single-stim	s621	False	1
263.561	1.5	262.81	n/a	-1.0	2.386	columbia_card_task_fmri	n/a	n/a	-1.0	n/a	n/a	n/a	n/a	n/a	n/a	n/a	n/a	ITI	poldrack-single-stim	s621	False	0
265.2	2.056	267.256	0.559439182571366	draw_card	2.056	columbia_card_task_fmri	15.0	0.8	89.0	-65.0	0.2	15.0	1.0	3.0	-0.2227481364114041	2.056	n/a	stim	poldrack-single-stim	s621	False	1
267.26	0.394	267.654	-0.5834179602857763	draw_card	0.394	columbia_card_task_fmri	15.0	0.7857142857142857	89.0	-65.0	0.2142857142857142	15.0	2.0	3.0	0.6023695709223915	0.394	n/a	stim	poldrack-single-stim	s621	False	1
267.657	2.345	270.002	-1.9020992789670972	draw_card	2.345	columbia_card_task_fmri	15.0	0.7692307692307692	89.0	-65.0	0.2307692307692307	15.0	3.0	3.0	1.4813354286297624	2.345	n/a	stim	poldrack-single-stim	s621	False	1
270.005	1.791	271.796	-3.4405608174286337	draw_card	1.791	columbia_card_task_fmri	15.0	0.75	89.0	-65.0	0.25	15.0	4.0	3.0	2.415375857040964	1.791	n/a	stim	poldrack-single-stim	s621	False	1
271.799	1.814	273.613	-5.25874263561045	draw_card	1.814	columbia_card_task_fmri	15.0	0.7272727272727273	89.0	-65.0	0.2727272727272727	15.0	5.0	3.0	3.4023295756923204	1.814	n/a	stim	poldrack-single-stim	s621	False	1
273.616	4.536	278.152	-7.440560817428634	end_round	4.536	columbia_card_task_fmri	15.0	0.7	71.0	-65.0	0.3	15.0	6.0	3.0	4.4330343826912255	4.536	5.0	stim	poldrack-single-stim	s621	False	1
278.905	1.5	278.154	n/a	-1.0	2.726	columbia_card_task_fmri	n/a	n/a	-1.0	n/a	n/a	n/a	n/a	n/a	n/a	n/a	n/a	ITI	poldrack-single-stim	s621	False	0
280.885	3.856	284.741	-0.1905608174286339	draw_card	3.856	columbia_card_task_fmri	14.0	0.8125	89.0	-70.0	0.1875	16.0	1.0	3.0	0.5625817229893855	3.856	n/a	stim	poldrack-single-stim	s621	False	1
284.743	0.93	285.673	-1.240560817428633	draw_card	0.93	columbia_card_task_fmri	14.0	0.8	89.0	-70.0	0.2	16.0	2.0	3.0	1.3754455169656978	0.93	n/a	stim	poldrack-single-stim	s621	False	1
285.675	1.156	286.831	-2.4405608174286337	draw_card	1.156	columbia_card_task_fmri	14.0	0.7857142857142857	89.0	-70.0	0.2142857142857142	16.0	3.0	3.0	2.2419121462671114	1.156	n/a	stim	poldrack-single-stim	s621	False	1
286.834	3.046	289.88	-3.8251762020440183	draw_card	3.046	columbia_card_task_fmri	14.0	0.7692307692307692	89.0	-70.0	0.2307692307692307	16.0	4.0	3.0	3.1649203990831225	3.046	n/a	stim	poldrack-single-stim	s621	False	1
289.883	2.436	292.319	-5.440560817428634	draw_card	2.436	columbia_card_task_fmri	14.0	0.75	89.0	-70.0	0.25	16.0	5.0	3.0	4.145757618346963	2.436	n/a	stim	poldrack-single-stim	s621	False	1
292.322	3.697	296.019	-7.349651726519542	draw_card	3.697	columbia_card_task_fmri	14.0	0.7272727272727273	89.0	-70.0	0.2727272727272727	16.0	6.0	3.0	5.182153766351419	3.697	n/a	stim	poldrack-single-stim	s621	False	1
296.022	2.485	298.507	-9.640560817428636	end_round	2.485	columbia_card_task_fmri	14.0	0.7	71.0	-70.0	0.3	16.0	7.0	3.0	6.264487315796167	2.485	6.0	stim	poldrack-single-stim	s621	False	1
299.264	1.5	298.513	n/a	-1.0	2.454	columbia_card_task_fmri	n/a	n/a	-1.0	n/a	n/a	n/a	n/a	n/a	n/a	n/a	n/a	ITI	poldrack-single-stim	s621	False	0
300.971	3.531	304.502	-0.2530608174286339	draw_card	3.531	columbia_card_task_fmri	11.0	0.6875	89.0	-30.0	0.3125	16.0	1.0	5.0	-13.192839423818883	3.531	1.0	stim	poldrack-single-stim	s621	False	0
305.256	1.5	304.505	n/a	-1.0	2.318	columbia_card_task_fmri	n/a	n/a	-1.0	n/a	n/a	n/a	n/a	n/a	n/a	n/a	n/a	ITI	poldrack-single-stim	s621	False	0
306.826	4.73	311.556	4.559439182571366	draw_card	4.73	columbia_card_task_fmri	15.0	0.8666666666666667	89.0	-75.0	0.1333333333333333	15.0	1.0	2.0	-1.6268882071773805	4.73	n/a	stim	poldrack-single-stim	s621	False	1
311.559	0.373	311.932	3.7022963254285104	draw_card	0.373	columbia_card_task_fmri	15.0	0.8571428571428572	89.0	-75.0	0.1428571428571428	15.0	2.0	2.0	-0.7286985117831897	0.373	n/a	stim	poldrack-single-stim	s621	False	1
311.934	0.709	312.643	2.71328533641752	draw_card	0.709	columbia_card_task_fmri	15.0	0.8461538461538461	89.0	-75.0	0.1538461538461538	15.0	3.0	2.0	0.2488094932425966	0.709	n/a	stim	poldrack-single-stim	s621	False	1
312.646	1.822	314.468	1.559439182571366	draw_card	1.822	columbia_card_task_fmri	15.0	0.8333333333333334	89.0	-75.0	0.1666666666666666	15.0	4.0	2.0	1.3165287120349234	1.822	n/a	stim	poldrack-single-stim	s621	False	1
314.471	1.453	315.924	0.1958028189350009	draw_card	1.453	columbia_card_task_fmri	15.0	0.8181818181818181	89.0	-75.0	0.1818181818181818	15.0	5.0	2.0	2.486802229732156	1.453	n/a	stim	poldrack-single-stim	s621	False	1
315.926	2.453	318.379	-1.440560817428634	draw_card	2.453	columbia_card_task_fmri	15.0	0.8	89.0	-75.0	0.2	15.0	6.0	2.0	3.773036604213132	2.453	n/a	stim	poldrack-single-stim	s621	False	1
318.382	3.468	321.85	-3.440560817428632	end_round	3.468	columbia_card_task_fmri	15.0	0.7777777777777778	71.0	-75.0	0.2222222222222222	15.0	7.0	2.0	5.188333469478849	3.468	6.0	stim	poldrack-single-stim	s621	False	1
322.605	1.5	321.854	n/a	-1.0	2.318	columbia_card_task_fmri	n/a	n/a	-1.0	n/a	n/a	n/a	n/a	n/a	n/a	n/a	n/a	ITI	poldrack-single-stim	s621	False	0
324.176	2.27	326.446	6.2927725159047005	draw_card	2.27	columbia_card_task_fmri	17.0	0.8666666666666667	89.0	-75.0	0.1333333333333333	15.0	1.0	2.0	-0.9478812897439788	2.27	n/a	stim	poldrack-single-stim	s621	False	1
326.449	1.771	328.22	5.416582039714226	draw_card	1.771	columbia_card_task_fmri	17.0	0.8571428571428572	89.0	-75.0	0.1428571428571428	15.0	2.0	2.0	-0.029682115139245	1.771	n/a	stim	poldrack-single-stim	s621	False	1
328.223	2.395	330.618	4.405593028725213	draw_card	2.395	columbia_card_task_fmri	17.0	0.8461538461538461	89.0	-75.0	0.1538461538461538	15.0	3.0	2.0	0.9695992663691868	2.395	n/a	stim	poldrack-single-stim	s621	False	1
330.621	1.869	332.49	3.226105849238034	draw_card	1.869	columbia_card_task_fmri	17.0	0.8333333333333334	89.0	-75.0	0.1666666666666666	15.0	4.0	2.0	2.061097867912565	1.869	n/a	stim	poldrack-single-stim	s621	False	1
332.492	1.95	334.442	1.8321664552986376	draw_card	1.95	columbia_card_task_fmri	17.0	0.8181818181818181	89.0	-75.0	0.1818181818181818	15.0	5.0	2.0	3.2574310836179663	1.95	n/a	stim	poldrack-single-stim	s621	False	1
334.445	2.134	336.579	0.1594391825713674	end_round	2.134	columbia_card_task_fmri	17.0	0.8	71.0	-75.0	0.2	15.0	6.0	2.0	4.5723033593017846	2.134	5.0	stim	poldrack-single-stim	s621	False	1
337.334	1.5	336.583	n/a	-1.0	2.59	columbia_card_task_fmri	n/a	n/a	-1.0	n/a	n/a	n/a	n/a	n/a	n/a	n/a	n/a	ITI	poldrack-single-stim	s621	False	0
339.177	4.14	343.317	1.871939182571366	draw_card	4.14	columbia_card_task_fmri	2.0	0.9375	89.0	-25.0	0.0625	16.0	1.0	1.0	-25.541594283714964	4.14	n/a	stim	poldrack-single-stim	s621	False	1
343.319	1.785	345.104	1.759439182571366	draw_card	1.785	columbia_card_task_fmri	2.0	0.9333333333333332	89.0	-25.0	0.0666666666666666	16.0	2.0	1.0	-25.347558250638823	1.785	n/a	stim	poldrack-single-stim	s621	False	1
345.107	3.333	348.44	1.6308677539999377	draw_card	3.333	columbia_card_task_fmri	2.0	0.9285714285714286	89.0	-25.0	0.0714285714285714	16.0	3.0	1.0	-25.134441532523848	3.333	n/a	stim	poldrack-single-stim	s621	False	1
348.443	0.94	349.383	1.4825161056482892	draw_card	0.94	columbia_card_task_fmri	2.0	0.9230769230769232	89.0	-25.0	0.0769230769230769	16.0	4.0	1.0	-24.898986776771327	0.94	n/a	stim	poldrack-single-stim	s621	False	1
349.387	1.616	351.003	1.3094391825713665	draw_card	1.616	columbia_card_task_fmri	2.0	0.9166666666666666	89.0	-25.0	0.0833333333333333	16.0	5.0	1.0	-24.63711844111134	1.616	n/a	stim	poldrack-single-stim	s621	False	1
351.006	3.13	354.136	1.1048937280259112	draw_card	3.13	columbia_card_task_fmri	2.0	0.9090909090909092	89.0	-25.0	0.0909090909090909	16.0	6.0	1.0	-24.3436667164421	3.13	n/a	stim	poldrack-single-stim	s621	False	1
354.139	0.868	355.007	0.8594391825713661	draw_card	0.868	columbia_card_task_fmri	2.0	0.9	89.0	-25.0	0.1	16.0	7.0	1.0	-24.011974844394235	0.868	n/a	stim	poldrack-single-stim	s621	False	1
355.01	1.984	356.994	0.559439182571366	draw_card	1.984	columbia_card_task_fmri	2.0	0.8888888888888888	89.0	-25.0	0.1111111111111111	16.0	8.0	1.0	-23.63333371173432	1.984	n/a	stim	poldrack-single-stim	s621	False	1
356.997	1.04	358.037	0.184439182571366	end_round	1.04	columbia_card_task_fmri	2.0	0.875	71.0	-25.0	0.125	16.0	9.0	1.0	-23.196164505703425	1.04	8.0	stim	poldrack-single-stim	s621	False	1
358.79	1.5	358.039	n/a	-1.0	2.726	columbia_card_task_fmri	n/a	n/a	-1.0	n/a	n/a	n/a	n/a	n/a	n/a	n/a	n/a	ITI	poldrack-single-stim	s621	False	0
360.77	2.467	363.237	4.059439182571366	draw_card	2.467	columbia_card_task_fmri	9.0	0.9375	89.0	-95.0	0.0625	16.0	1.0	1.0	-7.038077678390163	2.467	n/a	stim	poldrack-single-stim	s621	False	1
363.24	1.683	364.923	3.6261058492380336	draw_card	1.683	columbia_card_task_fmri	9.0	0.9333333333333332	89.0	-95.0	0.0666666666666666	16.0	2.0	1.0	-6.271737022017682	1.683	n/a	stim	poldrack-single-stim	s621	False	1
364.926	1.045	365.971	3.1308677539999383	draw_card	1.045	columbia_card_task_fmri	9.0	0.9285714285714286	89.0	-95.0	0.0714285714285714	16.0	3.0	1.0	-5.43126919901999	1.045	n/a	stim	poldrack-single-stim	s621	False	1
365.974	1.531	367.505	2.5594391825713663	draw_card	1.531	columbia_card_task_fmri	9.0	0.9230769230769232	89.0	-95.0	0.0769230769230769	16.0	4.0	1.0	-4.50406910117821	1.531	n/a	stim	poldrack-single-stim	s621	False	1
367.508	1.719	369.227	1.8927725159047	end_round	1.719	columbia_card_task_fmri	9.0	0.9166666666666666	71.0	-95.0	0.0833333333333333	16.0	5.0	1.0	-3.474371071902908	1.719	4.0	stim	poldrack-single-stim	s621	False	1
369.98	1.5	369.229	n/a	-1.0	2.522	columbia_card_task_fmri	n/a	n/a	-1.0	n/a	n/a	n/a	n/a	n/a	n/a	n/a	n/a	ITI	poldrack-single-stim	s621	False	0
371.755	2.757	374.512	5.621939182571366	draw_card	2.757	columbia_card_task_fmri	11.0	0.9375	89.0	-100.0	0.0625	16.0	1.0	1.0	-5.346685215574958	2.757	n/a	stim	poldrack-single-stim	s621	False	1
374.515	1.693	376.208	5.159439182571367	draw_card	1.693	columbia_card_task_fmri	11.0	0.9333333333333332	89.0	-100.0	0.0666666666666666	16.0	2.0	1.0	-4.5285785522271205	1.693	n/a	stim	poldrack-single-stim	s621	False	1
376.211	0.636	376.847	4.630867753999939	draw_card	0.636	columbia_card_task_fmri	11.0	0.9285714285714286	89.0	-100.0	0.0714285714285714	16.0	3.0	1.0	-3.631349642138972	0.636	n/a	stim	poldrack-single-stim	s621	False	1
376.85	0.707	377.557	4.020977644109829	draw_card	0.707	columbia_card_task_fmri	11.0	0.9230769230769232	89.0	-100.0	0.0769230769230769	16.0	4.0	1.0	-2.6415444161118597	0.707	n/a	stim	poldrack-single-stim	s621	False	1
377.561	0.67	378.231	3.3094391825713663	end_round	0.67	columbia_card_task_fmri	11.0	0.9166666666666666	71.0	-100.0	0.0833333333333333	16.0	5.0	1.0	-1.5423354435453938	0.67	4.0	stim	poldrack-single-stim	s621	False	1
378.984	1.5	378.233	n/a	-1.0	3.134	columbia_card_task_fmri	n/a	n/a	-1.0	n/a	n/a	n/a	n/a	n/a	n/a	n/a	n/a	ITI	poldrack-single-stim	s621	False	0
381.371	2.68	384.051	6.184439182571366	draw_card	2.68	columbia_card_task_fmri	16.0	0.875	89.0	-75.0	0.125	16.0	1.0	2.0	-2.1249268535333634	2.68	n/a	stim	poldrack-single-stim	s621	False	1
384.054	0.461	384.515	5.426105849238033	draw_card	0.461	columbia_card_task_fmri	16.0	0.8666666666666667	89.0	-75.0	0.1333333333333333	16.0	2.0	2.0	-1.2873894776424777	0.461	n/a	stim	poldrack-single-stim	s621	False	1
384.518	1.593	386.111	4.559439182571368	draw_card	1.593	columbia_card_task_fmri	16.0	0.8571428571428572	89.0	-75.0	0.1428571428571428	16.0	3.0	2.0	-0.3791949085808923	1.593	n/a	stim	poldrack-single-stim	s621	False	1
386.115	0.435	386.55	3.5594391825713663	draw_card	0.435	columbia_card_task_fmri	16.0	0.8461538461538461	89.0	-75.0	0.1538461538461538	16.0	4.0	2.0	0.609199922227603	0.435	n/a	stim	poldrack-single-stim	s621	False	1
386.553	0.866	387.419	2.3927725159047	draw_card	0.866	columbia_card_task_fmri	16.0	0.8333333333333334	89.0	-75.0	0.1666666666666666	16.0	5.0	2.0	1.688808973538734	0.866	n/a	stim	poldrack-single-stim	s621	False	1
387.422	1.02	388.442	1.0139846371168193	draw_card	1.02	columbia_card_task_fmri	16.0	0.8181818181818181	89.0	-75.0	0.1818181818181818	16.0	6.0	2.0	2.872112485036986	1.02	n/a	stim	poldrack-single-stim	s621	False	1
388.445	1.429	389.874	-0.6405608174286332	draw_card	1.429	columbia_card_task_fmri	16.0	0.8	89.0	-75.0	0.2	16.0	7.0	2.0	4.172665958476308	1.429	n/a	stim	poldrack-single-stim	s621	False	1
389.877	2.44	392.317	-2.6627830396508534	draw_card	2.44	columbia_card_task_fmri	16.0	0.7777777777777778	89.0	-75.0	0.2222222222222222	16.0	8.0	2.0	5.603716529041513	2.44	8.0	stim	poldrack-single-stim	s621	False	0
393.07	1.5	392.319	n/a	-1.0	2.386	columbia_card_task_fmri	n/a	n/a	-1.0	n/a	n/a	n/a	n/a	n/a	n/a	n/a	n/a	ITI	poldrack-single-stim	s621	False	0
394.709	5.169	399.878	6.434439182571366	draw_card	5.169	columbia_card_task_fmri	17.0	0.875	89.0	-80.0	0.125	16.0	1.0	2.0	-0.1431077660326991	5.169	n/a	stim	poldrack-single-stim	s621	False	1
399.881	1.317	401.198	5.6261058492380345	draw_card	1.317	columbia_card_task_fmri	17.0	0.8666666666666667	89.0	-80.0	0.1333333333333333	16.0	2.0	2.0	0.749791310745124	1.317	n/a	stim	poldrack-single-stim	s621	False	1
401.203	2.173	403.376	4.702296325428512	draw_card	2.173	columbia_card_task_fmri	17.0	0.8571428571428572	89.0	-80.0	0.1428571428571428	16.0	3.0	2.0	1.7180097794511866	2.173	n/a	stim	poldrack-single-stim	s621	False	1
403.379	0.383	403.762	3.636362259494443	draw_card	0.383	columbia_card_task_fmri	17.0	0.8461538461538461	89.0	-80.0	0.1538461538461538	16.0	4.0	2.0	2.771720084065855	0.383	n/a	stim	poldrack-single-stim	s621	False	1
403.765	0.435	404.2	2.392772515904702	draw_card	0.435	columbia_card_task_fmri	17.0	0.8333333333333334	89.0	-80.0	0.1666666666666666	16.0	5.0	2.0	3.922662506188182	0.435	n/a	stim	poldrack-single-stim	s621	False	1
404.203	1.016	405.219	0.9230755462077276	draw_card	1.016	columbia_card_task_fmri	17.0	0.8181818181818181	89.0	-80.0	0.1818181818181818	16.0	6.0	2.0	5.18414021072212	1.016	n/a	stim	poldrack-single-stim	s621	False	1
405.222	0.434	405.656	-0.8405608174286325	draw_card	0.434	columbia_card_task_fmri	17.0	0.8	89.0	-80.0	0.2	16.0	7.0	2.0	6.570602366409339	0.434	7.0	stim	poldrack-single-stim	s621	False	0
406.409	1.5	405.658	n/a	-1.0	2.386	columbia_card_task_fmri	n/a	n/a	-1.0	n/a	n/a	n/a	n/a	n/a	n/a	n/a	n/a	ITI	poldrack-single-stim	s621	False	0
419.056	3.8	422.856	0.7261058492380339	draw_card	3.8	columbia_card_task_fmri	13.0	0.8333333333333334	89.0	-70.0	0.1666666666666666	6.0	1.0	1.0	-1.2891652495711377	3.8	n/a	stim	poldrack-single-stim	s621	False	1
422.859	0.918	423.777	-2.0405608174286334	draw_card	0.918	columbia_card_task_fmri	13.0	0.8	89.0	-70.0	0.2	6.0	2.0	1.0	0.975880808395921	0.918	n/a	stim	poldrack-single-stim	s621	False	1
423.78	0.653	424.433	-6.190560817428634	draw_card	0.653	columbia_card_task_fmri	13.0	0.75	89.0	-70.0	0.25	6.0	3.0	1.0	3.713147117717135	0.653	n/a	stim	poldrack-single-stim	s621	False	1
424.435	1.287	425.722	-13.1072274840953	draw_card	1.287	columbia_card_task_fmri	13.0	0.6666666666666667	89.0	-70.0	0.3333333333333333	6.0	4.0	1.0	6.896916336732311	1.287	n/a	stim	poldrack-single-stim	s621	False	1
425.726	3.161	428.887	-26.940560817428636	end_round	3.161	columbia_card_task_fmri	13.0	0.5	71.0	-70.0	0.5	6.0	5.0	1.0	9.268565800353358	3.161	4.0	stim	poldrack-single-stim	s621	False	1
429.641	1.5	428.89	n/a	-1.0	2.318	columbia_card_task_fmri	n/a	n/a	-1.0	n/a	n/a	n/a	n/a	n/a	n/a	n/a	n/a	ITI	poldrack-single-stim	s621	False	0
431.213	2.881	434.094	0.7261058492380339	draw_card	2.881	columbia_card_task_fmri	15.0	0.8333333333333334	89.0	-80.0	0.1666666666666666	6.0	1.0	1.0	3.178013627537503	2.881	1.0	stim	poldrack-single-stim	s621	False	0
434.85	1.5	434.099	n/a	-1.0	2.318	columbia_card_task_fmri	n/a	n/a	-1.0	n/a	n/a	n/a	n/a	n/a	n/a	n/a	n/a	ITI	poldrack-single-stim	s621	False	0
436.421	2.046	438.467	2.3927725159047	draw_card	2.046	columbia_card_task_fmri	16.0	0.8333333333333334	89.0	-75.0	0.1666666666666666	6.0	1.0	1.0	1.688808973538734	2.046	n/a	stim	poldrack-single-stim	s621	False	1
438.471	1.181	439.652	-0.6405608174286332	draw_card	1.181	columbia_card_task_fmri	16.0	0.8	89.0	-75.0	0.2	6.0	2.0	1.0	4.172665958476308	1.181	n/a	stim	poldrack-single-stim	s621	False	1
439.654	1.091	440.745	-5.190560817428634	draw_card	1.091	columbia_card_task_fmri	16.0	0.75	89.0	-75.0	0.25	6.0	3.0	1.0	7.174278323542197	1.091	n/a	stim	poldrack-single-stim	s621	False	1
440.748	2.176	442.924	-12.773894150761969	draw_card	2.176	columbia_card_task_fmri	16.0	0.6666666666666667	89.0	-75.0	0.3333333333333333	6.0	4.0	1.0	10.665423458018717	2.176	4.0	stim	poldrack-single-stim	s621	False	0
443.682	1.5	442.931	n/a	-1.0	2.862	columbia_card_task_fmri	n/a	n/a	-1.0	n/a	n/a	n/a	n/a	n/a	n/a	n/a	n/a	ITI	poldrack-single-stim	s621	False	0
445.797	1.997	447.794	3.5594391825713663	draw_card	1.997	columbia_card_task_fmri	21.0	0.75	89.0	-55.0	0.25	8.0	1.0	2.0	0.6851695038067263	1.997	1.0	stim	poldrack-single-stim	s621	False	0
448.549	1.5	447.798	n/a	-1.0	2.726	columbia_card_task_fmri	n/a	n/a	-1.0	n/a	n/a	n/a	n/a	n/a	n/a	n/a	n/a	ITI	poldrack-single-stim	s621	False	0
450.528	1.753	452.281	4.809439182571366	draw_card	1.753	columbia_card_task_fmri	26.0	0.75	89.0	-65.0	0.25	8.0	1.0	2.0	7.174278323542197	1.753	1.0	stim	poldrack-single-stim	s621	False	0
453.036	1.5	452.285	n/a	-1.0	2.25	columbia_card_task_fmri	n/a	n/a	-1.0	n/a	n/a	n/a	n/a	n/a	n/a	n/a	n/a	ITI	poldrack-single-stim	s621	False	0
454.539	3.064	457.603	-0.1072274840953	draw_card	3.064	columbia_card_task_fmri	15.0	0.7777777777777778	89.0	-60.0	0.2222222222222222	9.0	1.0	2.0	-1.0412730365285086	3.064	n/a	stim	poldrack-single-stim	s621	False	1
457.606	1.096	458.702	-2.1905608174286337	draw_card	1.096	columbia_card_task_fmri	15.0	0.75	89.0	-60.0	0.25	9.0	2.0	2.0	0.2526486046898029	1.096	n/a	stim	poldrack-single-stim	s621	False	1
458.705	0.516	459.221	-4.869132246000061	draw_card	0.516	columbia_card_task_fmri	15.0	0.7142857142857143	89.0	-60.0	0.2857142857142857	9.0	3.0	2.0	1.6566916423950744	0.516	n/a	stim	poldrack-single-stim	s621	False	1
459.225	0.628	459.853	-8.440560817428633	draw_card	0.628	columbia_card_task_fmri	15.0	0.6666666666666667	89.0	-60.0	0.3333333333333333	9.0	4.0	2.0	3.128990640549148	0.628	n/a	stim	poldrack-single-stim	s621	False	1
459.856	1.999	461.855	-13.440560817428636	end_round	1.999	columbia_card_task_fmri	15.0	0.6	71.0	-60.0	0.4	9.0	5.0	2.0	4.514701277850989	1.999	4.0	stim	poldrack-single-stim	s621	False	1
462.61	1.5	461.859	n/a	-1.0	2.318	columbia_card_task_fmri	n/a	n/a	-1.0	n/a	n/a	n/a	n/a	n/a	n/a	n/a	n/a	ITI	poldrack-single-stim	s621	False	0
464.181	1.647	465.828	4.259439182571367	draw_card	1.647	columbia_card_task_fmri	13.0	0.9	89.0	-90.0	0.1	10.0	1.0	1.0	-1.3213979596908096	1.647	n/a	stim	poldrack-single-stim	s621	False	1
465.832	1.442	467.274	3.1149947381269216	draw_card	1.442	columbia_card_task_fmri	13.0	0.8888888888888888	89.0	-90.0	0.1111111111111111	10.0	2.0	1.0	0.1465956533135113	1.442	n/a	stim	poldrack-single-stim	s621	False	1
467.278	0.796	468.074	1.684439182571366	draw_card	0.796	columbia_card_task_fmri	13.0	0.875	89.0	-90.0	0.125	10.0	3.0	1.0	1.839001445408464	0.796	n/a	stim	poldrack-single-stim	s621	False	1
468.078	1.399	469.477	-0.1548465317143457	draw_card	1.399	columbia_card_task_fmri	13.0	0.8571428571428572	89.0	-90.0	0.1428571428571428	10.0	4.0	1.0	3.815488770101659	1.399	n/a	stim	poldrack-single-stim	s621	False	1
469.48	1.083	470.563	-2.6072274840953	draw_card	1.083	columbia_card_task_fmri	13.0	0.8333333333333334	89.0	-90.0	0.1666666666666666	10.0	5.0	1.0	6.156773692996424	1.083	n/a	stim	poldrack-single-stim	s621	False	1
470.567	1.898	472.465	-6.040560817428633	end_round	1.898	columbia_card_task_fmri	13.0	0.8	71.0	-90.0	0.2	10.0	6.0	1.0	8.968778918215541	1.898	5.0	stim	poldrack-single-stim	s621	False	1
473.223	1.5	472.472	n/a	-1.0	2.454	columbia_card_task_fmri	n/a	n/a	-1.0	n/a	n/a	n/a	n/a	n/a	n/a	n/a	n/a	ITI	poldrack-single-stim	s621	False	0
474.931	2.155	477.086	5.559439182571366	draw_card	2.155	columbia_card_task_fmri	15.0	0.9	89.0	-95.0	0.1	10.0	1.0	1.0	0.776102404744293	2.155	n/a	stim	poldrack-single-stim	s621	False	1
477.089	0.911	478.0	4.337216960349143	draw_card	0.911	columbia_card_task_fmri	15.0	0.8888888888888888	89.0	-95.0	0.1111111111111111	10.0	2.0	1.0	2.344096900941772	0.911	n/a	stim	poldrack-single-stim	s621	False	1
478.004	0.905	478.909	2.8094391825713663	draw_card	0.905	columbia_card_task_fmri	15.0	0.875	89.0	-95.0	0.125	10.0	3.0	1.0	4.1517656681869965	0.905	n/a	stim	poldrack-single-stim	s621	False	1
478.913	1.973	480.886	0.8451534682856525	draw_card	1.973	columbia_card_task_fmri	15.0	0.8571428571428572	89.0	-95.0	0.1428571428571428	10.0	4.0	1.0	6.262834506264134	1.973	n/a	stim	poldrack-single-stim	s621	False	1
480.89	1.497	482.387	-1.773894150761966	draw_card	1.497	columbia_card_task_fmri	15.0	0.8333333333333334	89.0	-95.0	0.1666666666666666	10.0	5.0	1.0	8.763506232124826	1.497	n/a	stim	poldrack-single-stim	s621	False	1
482.391	2.48	484.871	-5.440560817428634	draw_card	2.48	columbia_card_task_fmri	15.0	0.8	89.0	-95.0	0.2	10.0	6.0	1.0	11.766902724328617	2.48	n/a	stim	poldrack-single-stim	s621	False	1
484.875	1.915	486.79	-10.940560817428636	end_round	1.915	columbia_card_task_fmri	15.0	0.75	71.0	-95.0	0.25	10.0	7.0	1.0	15.396194913065408	1.915	6.0	stim	poldrack-single-stim	s621	False	1
487.548	1.5	486.797	n/a	-1.0	2.522	columbia_card_task_fmri	n/a	n/a	-1.0	n/a	n/a	n/a	n/a	n/a	n/a	n/a	n/a	ITI	poldrack-single-stim	s621	False	0
489.323	1.342	490.665	1.3594391825713668	draw_card	1.342	columbia_card_task_fmri	16.0	0.8	89.0	-65.0	0.2	10.0	1.0	2.0	0.176783580275071	1.342	1.0	stim	poldrack-single-stim	s621	False	0
491.419	1.5	490.668	n/a	-1.0	2.318	columbia_card_task_fmri	n/a	n/a	-1.0	n/a	n/a	n/a	n/a	n/a	n/a	n/a	n/a	ITI	poldrack-single-stim	s621	False	0
492.99	2.197	495.187	0.059439182571366	draw_card	2.197	columbia_card_task_fmri	7.0	0.9166666666666666	89.0	-95.0	0.0833333333333333	12.0	1.0	1.0	-4.026314286474101	2.197	n/a	stim	poldrack-single-stim	s621	False	1
495.191	1.74	496.931	-0.7132880901559073	end_round	1.74	columbia_card_task_fmri	7.0	0.9090909090909092	71.0	-95.0	0.0909090909090909	12.0	2.0	1.0	-2.896347550495829	1.74	1.0	stim	poldrack-single-stim	s621	False	1
497.686	1.5	496.935	n/a	-1.0	2.522	columbia_card_task_fmri	n/a	n/a	-1.0	n/a	n/a	n/a	n/a	n/a	n/a	n/a	n/a	ITI	poldrack-single-stim	s621	False	0
499.461	4.762	504.223	0.7261058492380339	draw_card	4.762	columbia_card_task_fmri	14.0	0.8333333333333334	89.0	-75.0	0.1666666666666666	12.0	1.0	2.0	0.9442573737654456	4.762	n/a	stim	poldrack-single-stim	s621	False	1
504.227	0.388	504.615	-0.6223789992468174	draw_card	0.388	columbia_card_task_fmri	14.0	0.8181818181818181	89.0	-75.0	0.1818181818181818	12.0	2.0	2.0	2.101500598367778	0.388	n/a	stim	poldrack-single-stim	s621	False	1
504.618	0.506	505.124	-2.2405608174286327	draw_card	0.506	columbia_card_task_fmri	14.0	0.8	89.0	-75.0	0.2	12.0	3.0	2.0	3.3734155672337565	0.506	n/a	stim	poldrack-single-stim	s621	False	1
505.127	0.629	505.756	-4.218338595206409	draw_card	0.629	columbia_card_task_fmri	14.0	0.7777777777777778	89.0	-75.0	0.2222222222222222	12.0	4.0	2.0	4.772958413982209	0.629	n/a	stim	poldrack-single-stim	s621	False	1
505.76	0.57	506.33	-6.690560817428634	draw_card	0.57	columbia_card_task_fmri	14.0	0.75	89.0	-75.0	0.25	12.0	5.0	2.0	6.30894552142307	0.57	5.0	stim	poldrack-single-stim	s621	False	0
507.087	1.5	506.336	n/a	-1.0	2.998	columbia_card_task_fmri	n/a	n/a	-1.0	n/a	n/a	n/a	n/a	n/a	n/a	n/a	n/a	ITI	poldrack-single-stim	s621	False	0
509.338	3.402	512.74	2.3927725159047	draw_card	3.402	columbia_card_task_fmri	15.0	0.8333333333333334	89.0	-70.0	0.1666666666666666	12.0	1.0	2.0	-0.5447324628110266	3.402	n/a	stim	poldrack-single-stim	s621	False	1
512.744	1.021	513.765	1.1048937280259092	draw_card	1.021	columbia_card_task_fmri	15.0	0.8181818181818181	89.0	-70.0	0.1818181818181818	12.0	2.0	2.0	0.560386386630249	1.021	n/a	stim	poldrack-single-stim	s621	False	1
513.769	0.895	514.664	-0.4405608174286339	draw_card	0.895	columbia_card_task_fmri	15.0	0.8	89.0	-70.0	0.2	12.0	3.0	2.0	1.7750204513651369	0.895	n/a	stim	poldrack-single-stim	s621	False	1
514.667	1.295	515.962	-2.329449706317523	draw_card	1.295	columbia_card_task_fmri	15.0	0.7777777777777778	89.0	-70.0	0.2222222222222222	12.0	4.0	2.0	3.111543872059599	1.295	n/a	stim	poldrack-single-stim	s621	False	1
515.966	1.811	517.777	-4.690560817428634	draw_card	1.811	columbia_card_task_fmri	15.0	0.75	89.0	-70.0	0.25	12.0	5.0	2.0	4.578377569663182	1.811	n/a	stim	poldrack-single-stim	s621	False	1
517.78	0.993	518.773	-7.726275103142918	end_round	0.993	columbia_card_task_fmri	15.0	0.7142857142857143	71.0	-70.0	0.2857142857142857	12.0	6.0	2.0	6.170015034097467	0.993	5.0	stim	poldrack-single-stim	s621	False	1
519.528	1.5	518.777	n/a	-1.0	2.318	columbia_card_task_fmri	n/a	n/a	-1.0	n/a	n/a	n/a	n/a	n/a	n/a	n/a	n/a	ITI	poldrack-single-stim	s621	False	0
521.1	2.178	523.278	0.3594391825713667	draw_card	2.178	columbia_card_task_fmri	16.0	0.8	89.0	-70.0	0.2	15.0	1.0	3.0	2.174605255623902	2.178	1.0	stim	poldrack-single-stim	s621	False	0
524.033	1.5	523.282	n/a	-1.0	2.25	columbia_card_task_fmri	n/a	n/a	-1.0	n/a	n/a	n/a	n/a	n/a	n/a	n/a	n/a	ITI	poldrack-single-stim	s621	False	0
525.537	2.119	527.656	0.746939182571366	draw_card	2.119	columbia_card_task_fmri	14.0	0.8125	89.0	-65.0	0.1875	16.0	1.0	3.0	-1.386637139282822	2.119	n/a	stim	poldrack-single-stim	s621	False	1
527.661	0.641	528.302	-0.2405608174286329	draw_card	0.641	columbia_card_task_fmri	14.0	0.8	89.0	-65.0	0.2	16.0	2.0	3.0	-0.622268019162604	0.641	n/a	stim	poldrack-single-stim	s621	False	1
528.305	2.362	530.667	-1.369132246000061	draw_card	2.362	columbia_card_task_fmri	14.0	0.7857142857142857	89.0	-65.0	0.2142857142857142	16.0	3.0	3.0	0.1925117445033635	2.362	3.0	stim	poldrack-single-stim	s621	False	0
531.422	1.5	530.671	n/a	-1.0	2.454	columbia_card_task_fmri	n/a	n/a	-1.0	n/a	n/a	n/a	n/a	n/a	n/a	n/a	n/a	ITI	poldrack-single-stim	s621	False	0
533.13	2.218	535.348	0.496939182571366	draw_card	2.218	columbia_card_task_fmri	16.0	0.8125	89.0	-75.0	0.1875	16.0	1.0	3.0	3.291920013179464	2.218	n/a	stim	poldrack-single-stim	s621	False	1
535.351	1.026	536.377	-0.6405608174286332	draw_card	1.026	columbia_card_task_fmri	16.0	0.8	89.0	-75.0	0.2	16.0	2.0	3.0	4.172665958476308	1.026	n/a	stim	poldrack-single-stim	s621	False	1
536.381	0.712	537.093	-1.940560817428632	draw_card	0.712	columbia_card_task_fmri	16.0	0.7857142857142857	89.0	-75.0	0.2142857142857142	16.0	3.0	3.0	5.1114836580966525	0.712	n/a	stim	poldrack-single-stim	s621	False	1
537.097	1.981	539.078	-3.4405608174286373	draw_card	1.981	columbia_card_task_fmri	16.0	0.7692307692307692	89.0	-75.0	0.2307692307692307	16.0	4.0	3.0	6.111556446997291	1.981	n/a	stim	poldrack-single-stim	s621	False	1
539.081	1.74	540.821	-5.190560817428634	end_round	1.74	columbia_card_task_fmri	16.0	0.75	71.0	-75.0	0.25	16.0	5.0	3.0	7.174278323542197	1.74	4.0	stim	poldrack-single-stim	s621	False	1
541.576	1.5	540.825	n/a	-1.0	2.318	columbia_card_task_fmri	n/a	n/a	-1.0	n/a	n/a	n/a	n/a	n/a	n/a	n/a	n/a	ITI	poldrack-single-stim	s621	False	0
543.148	4.679	547.827	4.759439182571367	draw_card	4.679	columbia_card_task_fmri	16.0	0.8666666666666667	89.0	-80.0	0.1333333333333333	15.0	1.0	2.0	0.4102401480313702	4.679	n/a	stim	poldrack-single-stim	s621	False	1
547.83	0.46	548.29	3.8451534682856554	draw_card	0.46	columbia_card_task_fmri	16.0	0.8571428571428572	89.0	-80.0	0.1428571428571428	15.0	2.0	2.0	1.3684552299811088	0.46	n/a	stim	poldrack-single-stim	s621	False	1
548.294	1.696	549.99	2.790208413340596	draw_card	1.696	columbia_card_task_fmri	16.0	0.8461538461538461	89.0	-80.0	0.1538461538461538	15.0	3.0	2.0	2.4112802342643604	1.696	3.0	stim	poldrack-single-stim	s621	False	0
550.749	1.5	549.998	n/a	-1.0	2.318	columbia_card_task_fmri	n/a	n/a	-1.0	n/a	n/a	n/a	n/a	n/a	n/a	n/a	n/a	ITI	poldrack-single-stim	s621	False	0
552.321	1.748	554.069	5.6261058492380345	draw_card	1.748	columbia_card_task_fmri	17.0	0.8666666666666667	89.0	-80.0	0.1333333333333333	15.0	1.0	2.0	0.749791310745124	1.748	1.0	stim	poldrack-single-stim	s621	False	0
554.824	1.5	554.073	n/a	-1.0	2.59	columbia_card_task_fmri	n/a	n/a	-1.0	n/a	n/a	n/a	n/a	n/a	n/a	n/a	n/a	ITI	poldrack-single-stim	s621	False	0
556.668	3.182	559.85	1.559439182571366	draw_card	3.182	columbia_card_task_fmri	1.0	0.9375	89.0	-15.0	0.0625	16.0	1.0	1.0	-28.08557649692856	3.182	n/a	stim	poldrack-single-stim	s621	False	1
559.854	0.472	560.326	1.4927725159046994	draw_card	0.472	columbia_card_task_fmri	1.0	0.9333333333333332	89.0	-15.0	0.0666666666666666	16.0	2.0	1.0	-27.975779925461158	0.472	n/a	stim	poldrack-single-stim	s621	False	1
560.329	0.475	560.804	1.4165820397142233	draw_card	0.475	columbia_card_task_fmri	1.0	0.9285714285714286	89.0	-15.0	0.0714285714285714	16.0	3.0	1.0	-27.85488141921632	0.475	n/a	stim	poldrack-single-stim	s621	False	1
560.808	0.712	561.52	1.3286699518021352	draw_card	0.712	columbia_card_task_fmri	1.0	0.9230769230769232	89.0	-15.0	0.0769230769230769	16.0	4.0	1.0	-27.720969381220986	0.712	n/a	stim	poldrack-single-stim	s621	False	1
561.524	0.554	562.078	1.2261058492380328	draw_card	0.554	columbia_card_task_fmri	1.0	0.9166666666666666	89.0	-15.0	0.0833333333333333	16.0	5.0	1.0	-27.57165021301004	0.554	n/a	stim	poldrack-single-stim	s621	False	1
562.082	0.482	562.564	1.1048937280259112	draw_card	0.482	columbia_card_task_fmri	1.0	0.9090909090909092	89.0	-15.0	0.0909090909090909	16.0	6.0	1.0	-27.403885268570846	0.482	6.0	stim	poldrack-single-stim	s621	False	0
563.318	1.5	562.567	n/a	-1.0	2.25	columbia_card_task_fmri	n/a	n/a	-1.0	n/a	n/a	n/a	n/a	n/a	n/a	n/a	n/a	ITI	poldrack-single-stim	s621	False	0
564.822	1.641	566.463	4.684439182571366	draw_card	1.641	columbia_card_task_fmri	10.0	0.9375	89.0	-100.0	0.0625	16.0	1.0	1.0	-5.588336319366714	1.641	n/a	stim	poldrack-single-stim	s621	False	1
566.467	2.545	569.012	4.226105849238033	draw_card	2.545	columbia_card_task_fmri	10.0	0.9333333333333332	89.0	-100.0	0.0666666666666666	16.0	2.0	1.0	-4.777624108230803	2.545	n/a	stim	poldrack-single-stim	s621	False	1
569.015	0.8	569.815	3.7022963254285104	end_round	0.8	columbia_card_task_fmri	10.0	0.9285714285714286	71.0	-100.0	0.0714285714285714	16.0	3.0	1.0	-3.888503211330193	0.8	2.0	stim	poldrack-single-stim	s621	False	1
570.572	1.5	569.821	n/a	-1.0	2.25	columbia_card_task_fmri	n/a	n/a	-1.0	n/a	n/a	n/a	n/a	n/a	n/a	n/a	n/a	ITI	poldrack-single-stim	s621	False	0
572.075	1.853	573.928	5.309439182571366	draw_card	1.853	columbia_card_task_fmri	15.0	0.875	89.0	-75.0	0.125	16.0	1.0	2.0	-2.455197764588579	1.853	1.0	stim	poldrack-single-stim	s621	False	0
574.684	1.5	573.933	n/a	-1.0	2.522	columbia_card_task_fmri	n/a	n/a	-1.0	n/a	n/a	n/a	n/a	n/a	n/a	n/a	n/a	ITI	poldrack-single-stim	s621	False	0
576.46	2.366	578.826	5.559439182571366	draw_card	2.366	columbia_card_task_fmri	16.0	0.875	89.0	-80.0	0.125	16.0	1.0	2.0	-0.4734325603517852	2.366	1.0	stim	poldrack-single-stim	s621	False	0
579.583	1.5	578.832	n/a	-1.0	2.454	columbia_card_task_fmri	n/a	n/a	-1.0	n/a	n/a	n/a	n/a	n/a	n/a	n/a	n/a	ITI	poldrack-single-stim	s621	False	0
581.291	2.191	583.482	2.7469391825713663	draw_card	2.191	columbia_card_task_fmri	4.0	0.6875	89.0	-5.0	0.3125	16.0	1.0	5.0	-27.807163533393144	2.191	n/a	stim	poldrack-single-stim	s621	False	1
583.488	1.522	585.01	2.5594391825713663	draw_card	1.522	columbia_card_task_fmri	4.0	0.6666666666666667	89.0	-5.0	0.3333333333333333	16.0	2.0	5.0	-27.740562810710315	1.522	n/a	stim	poldrack-single-stim	s621	False	1
585.014	1.363	586.377	2.3451534682856514	end_round	1.363	columbia_card_task_fmri	4.0	0.6428571428571428	71.0	-5.0	0.3571428571428571	16.0	3.0	5.0	-27.675007474899616	1.363	2.0	stim	poldrack-single-stim	s621	False	1
587.134	1.5	586.383	n/a	-1.0	2.25	columbia_card_task_fmri	n/a	n/a	-1.0	n/a	n/a	n/a	n/a	n/a	n/a	n/a	n/a	ITI	poldrack-single-stim	s621	False	0
588.637	1.73	590.367	-0.1072274840952982	draw_card	1.73	columbia_card_task_fmri	14.0	0.8333333333333334	89.0	-80.0	0.1666666666666666	6.0	1.0	1.0	2.805700455435222	1.73	n/a	stim	poldrack-single-stim	s621	False	1
590.373	1.119	591.492	-3.2405608174286327	draw_card	1.119	columbia_card_task_fmri	14.0	0.8	89.0	-80.0	0.2	6.0	2.0	1.0	5.371601275226503	1.119	n/a	stim	poldrack-single-stim	s621	False	1
591.496	1.225	592.721	-7.940560817428634	draw_card	1.225	columbia_card_task_fmri	14.0	0.75	89.0	-80.0	0.25	6.0	3.0	1.0	8.472332724935832	1.225	n/a	stim	poldrack-single-stim	s621	False	1
592.725	1.615	594.34	-15.773894150761963	end_round	1.615	columbia_card_task_fmri	14.0	0.6666666666666667	71.0	-80.0	0.3333333333333333	6.0	4.0	1.0	12.07873326989202	1.615	3.0	stim	poldrack-single-stim	s621	False	1
595.097	1.5	594.346	n/a	-1.0	2.454	columbia_card_task_fmri	n/a	n/a	-1.0	n/a	n/a	n/a	n/a	n/a	n/a	n/a	n/a	ITI	poldrack-single-stim	s621	False	0
596.805	1.906	598.711	1.559439182571366	draw_card	1.906	columbia_card_task_fmri	15.0	0.8333333333333334	89.0	-75.0	0.1666666666666666	6.0	1.0	1.0	1.3165287120349234	1.906	n/a	stim	poldrack-single-stim	s621	False	1
598.714	0.782	599.496	-1.440560817428634	draw_card	0.782	columbia_card_task_fmri	15.0	0.8	89.0	-75.0	0.2	6.0	2.0	1.0	3.773036604213132	0.782	2.0	stim	poldrack-single-stim	s621	False	0
600.251	1.5	599.5	n/a	-1.0	2.454	columbia_card_task_fmri	n/a	n/a	-1.0	n/a	n/a	n/a	n/a	n/a	n/a	n/a	n/a	ITI	poldrack-single-stim	s621	False	0
601.958	2.366	604.324	3.226105849238034	draw_card	2.366	columbia_card_task_fmri	16.0	0.8333333333333334	89.0	-70.0	0.1666666666666666	6.0	1.0	1.0	-0.1724999959884812	2.366	n/a	stim	poldrack-single-stim	s621	False	1
604.328	1.574	605.902	0.3594391825713667	draw_card	1.574	columbia_card_task_fmri	16.0	0.8	89.0	-70.0	0.2	6.0	2.0	1.0	2.174605255623902	1.574	n/a	stim	poldrack-single-stim	s621	False	1
605.905	0.762	606.667	-3.9405608174286337	end_round	0.762	columbia_card_task_fmri	16.0	0.75	71.0	-70.0	0.25	6.0	3.0	1.0	5.0110066425781525	0.762	2.0	stim	poldrack-single-stim	s621	False	1
607.425	1.5	606.674	n/a	-1.0	2.522	columbia_card_task_fmri	n/a	n/a	-1.0	n/a	n/a	n/a	n/a	n/a	n/a	n/a	n/a	ITI	poldrack-single-stim	s621	False	0
609.201	2.113	611.314	3.8094391825713663	draw_card	2.113	columbia_card_task_fmri	23.0	0.75	89.0	-60.0	0.25	8.0	1.0	2.0	3.713147117717135	2.113	n/a	stim	poldrack-single-stim	s621	False	1
611.317	1.723	613.04	0.8451534682856543	draw_card	1.723	columbia_card_task_fmri	23.0	0.7142857142857143	89.0	-60.0	0.2857142857142857	8.0	2.0	2.0	5.267269189281407	1.723	n/a	stim	poldrack-single-stim	s621	False	1
613.045	1.365	614.41	-3.107227484095298	draw_card	1.365	columbia_card_task_fmri	23.0	0.6666666666666667	89.0	-60.0	0.3333333333333333	8.0	3.0	2.0	6.896916336732311	1.365	n/a	stim	poldrack-single-stim	s621	False	1
614.414	1.399	615.813	-8.640560817428636	draw_card	1.399	columbia_card_task_fmri	23.0	0.6	89.0	-60.0	0.4	8.0	4.0	2.0	8.430699053217609	1.399	4.0	stim	poldrack-single-stim	s621	False	0
616.572	1.5	615.821	n/a	-1.0	2.454	columbia_card_task_fmri	n/a	n/a	-1.0	n/a	n/a	n/a	n/a	n/a	n/a	n/a	n/a	ITI	poldrack-single-stim	s621	False	0
618.28	1.551	619.831	4.309439182571366	draw_card	1.551	columbia_card_task_fmri	27.0	0.75	89.0	-70.0	0.25	8.0	1.0	2.0	9.77044790914369	1.551	n/a	stim	poldrack-single-stim	s621	False	1
619.835	4.446	624.281	0.8451534682856507	draw_card	4.446	columbia_card_task_fmri	27.0	0.7142857142857143	89.0	-70.0	0.2857142857142857	8.0	2.0	2.0	11.58714933892589	4.446	n/a	stim	poldrack-single-stim	s621	False	1
624.285	2.447	626.732	-3.7738941507619614	draw_card	2.447	columbia_card_task_fmri	27.0	0.6666666666666667	89.0	-70.0	0.3333333333333333	8.0	3.0	2.0	13.49209893355981	2.447	3.0	stim	poldrack-single-stim	s621	False	0
627.486	1.5	626.735	n/a	-1.0	2.658	columbia_card_task_fmri	n/a	n/a	-1.0	n/a	n/a	n/a	n/a	n/a	n/a	n/a	n/a	ITI	poldrack-single-stim	s621	False	0
629.399	2.135	631.534	-0.4405608174286322	draw_card	2.135	columbia_card_task_fmri	16.0	0.7777777777777778	89.0	-65.0	0.2222222222222222	9.0	1.0	2.0	1.450281619582718	2.135	n/a	stim	poldrack-single-stim	s621	False	1
631.538	1.137	632.675	-2.6905608174286337	draw_card	1.137	columbia_card_task_fmri	16.0	0.75	89.0	-65.0	0.25	9.0	2.0	2.0	2.847955865929784	1.137	n/a	stim	poldrack-single-stim	s621	False	1
632.679	1.612	634.291	-5.583417960285774	draw_card	1.612	columbia_card_task_fmri	16.0	0.7142857142857143	89.0	-65.0	0.2857142857142857	9.0	3.0	2.0	4.364560926999275	1.612	n/a	stim	poldrack-single-stim	s621	False	1
634.295	0.874	635.169	-9.440560817428633	end_round	0.874	columbia_card_task_fmri	16.0	0.6666666666666667	71.0	-65.0	0.3333333333333333	9.0	4.0	2.0	5.954873685680418	0.874	3.0	stim	poldrack-single-stim	s621	False	1
635.923	1.5	635.172	n/a	-1.0	2.386	columbia_card_task_fmri	n/a	n/a	-1.0	n/a	n/a	n/a	n/a	n/a	n/a	n/a	n/a	ITI	poldrack-single-stim	s621	False	0
637.564	2.447	640.011	4.759439182571367	draw_card	2.447	columbia_card_task_fmri	13.0	0.9	89.0	-85.0	0.1	10.0	1.0	1.0	-2.819394314726324	2.447	n/a	stim	poldrack-single-stim	s621	False	1
640.015	1.267	641.282	3.670550293682477	draw_card	1.267	columbia_card_task_fmri	13.0	0.8888888888888888	89.0	-85.0	0.1111111111111111	10.0	2.0	1.0	-1.4228397412398408	1.267	n/a	stim	poldrack-single-stim	s621	False	1
641.286	1.445	642.731	2.3094391825713663	draw_card	1.445	columbia_card_task_fmri	13.0	0.875	89.0	-85.0	0.125	10.0	3.0	1.0	0.1872250574624558	1.445	n/a	stim	poldrack-single-stim	s621	False	1
642.735	0.986	643.721	0.5594391825713678	draw_card	0.986	columbia_card_task_fmri	13.0	0.8571428571428572	89.0	-85.0	0.1428571428571428	10.0	4.0	1.0	2.06757192022647	0.986	n/a	stim	poldrack-single-stim	s621	False	1
643.725	1.274	644.999	-1.773894150761966	end_round	1.274	columbia_card_task_fmri	13.0	0.8333333333333334	71.0	-85.0	0.1666666666666666	10.0	5.0	1.0	4.294997753704486	1.274	4.0	stim	poldrack-single-stim	s621	False	1
645.756	1.5	645.005	n/a	-1.0	2.522	columbia_card_task_fmri	n/a	n/a	-1.0	n/a	n/a	n/a	n/a	n/a	n/a	n/a	n/a	ITI	poldrack-single-stim	s621	False	0
647.532	2.243	649.775	-0.2405608174286329	draw_card	2.243	columbia_card_task_fmri	14.0	0.8	89.0	-65.0	0.2	10.0	1.0	2.0	-0.622268019162604	2.243	n/a	stim	poldrack-single-stim	s621	False	1
649.779	0.626	650.405	-1.9961163729841875	draw_card	0.626	columbia_card_task_fmri	14.0	0.7777777777777778	89.0	-65.0	0.2222222222222222	10.0	2.0	2.0	0.6197148153975931	0.626	2.0	stim	poldrack-single-stim	s621	False	0
651.16	1.5	650.409	n/a	-1.0	2.59	columbia_card_task_fmri	n/a	n/a	-1.0	n/a	n/a	n/a	n/a	n/a	n/a	n/a	n/a	ITI	poldrack-single-stim	s621	False	0
653.004	1.32	654.324	1.1594391825713677	draw_card	1.32	columbia_card_task_fmri	17.0	0.8	89.0	-70.0	0.2	10.0	1.0	2.0	2.574199590096136	1.32	1.0	stim	poldrack-single-stim	s621	False	0
655.081	1.5	654.33	n/a	-1.0	2.386	columbia_card_task_fmri	n/a	n/a	-1.0	n/a	n/a	n/a	n/a	n/a	n/a	n/a	n/a	ITI	poldrack-single-stim	s621	False	0
656.721	4.352	661.073	-0.1072274840953	draw_card	4.352	columbia_card_task_fmri	13.0	0.8333333333333334	89.0	-75.0	0.1666666666666666	12.0	1.0	2.0	0.5719952622565927	4.352	n/a	stim	poldrack-single-stim	s621	False	1
661.077	0.937	662.014	-1.4405608174286355	draw_card	0.937	columbia_card_task_fmri	13.0	0.8181818181818181	89.0	-75.0	0.1818181818181818	12.0	2.0	2.0	1.716207884332782	0.937	n/a	stim	poldrack-single-stim	s621	False	1
662.018	0.901	662.919	-3.0405608174286334	draw_card	0.901	columbia_card_task_fmri	13.0	0.8	89.0	-75.0	0.2	12.0	3.0	2.0	2.9738031305357424	0.901	n/a	stim	poldrack-single-stim	s621	False	1
662.923	0.804	663.727	-4.996116372984187	draw_card	0.804	columbia_card_task_fmri	13.0	0.7777777777777778	89.0	-75.0	0.2222222222222222	12.0	4.0	2.0	4.357591634930813	0.804	n/a	stim	poldrack-single-stim	s621	False	1
663.731	1.187	664.918	-7.440560817428634	end_round	1.187	columbia_card_task_fmri	13.0	0.75	71.0	-75.0	0.25	12.0	5.0	2.0	5.876290911484816	1.187	4.0	stim	poldrack-single-stim	s621	False	1
665.672	1.5	664.921	n/a	-1.0	2.59	columbia_card_task_fmri	n/a	n/a	-1.0	n/a	n/a	n/a	n/a	n/a	n/a	n/a	n/a	ITI	poldrack-single-stim	s621	False	0
667.516	1.458	668.974	1.5594391825713678	draw_card	1.458	columbia_card_task_fmri	14.0	0.8333333333333334	89.0	-70.0	0.1666666666666666	12.0	1.0	2.0	-0.916954341258286	1.458	n/a	stim	poldrack-single-stim	s621	False	1
668.978	1.165	670.143	0.2867119098440909	draw_card	1.165	columbia_card_task_fmri	14.0	0.8181818181818181	89.0	-70.0	0.1818181818181818	12.0	2.0	2.0	0.1751325569027386	1.165	n/a	stim	poldrack-single-stim	s621	False	1
670.147	1.187	671.334	-1.240560817428633	draw_card	1.187	columbia_card_task_fmri	14.0	0.8	89.0	-70.0	0.2	12.0	3.0	2.0	1.3754455169656978	1.187	n/a	stim	poldrack-single-stim	s621	False	1
671.338	0.783	672.121	-3.1072274840953	draw_card	0.783	columbia_card_task_fmri	14.0	0.7777777777777778	89.0	-70.0	0.2222222222222222	12.0	4.0	2.0	2.6962131836535264	0.783	4.0	stim	poldrack-single-stim	s621	False	0
672.876	1.5	672.125	n/a	-1.0	2.318	columbia_card_task_fmri	n/a	n/a	-1.0	n/a	n/a	n/a	n/a	n/a	n/a	n/a	n/a	ITI	poldrack-single-stim	s621	False	0
674.449	1.035	675.484	1.5594391825713678	draw_card	1.035	columbia_card_task_fmri	16.0	0.8333333333333334	89.0	-80.0	0.1666666666666666	12.0	1.0	2.0	3.550334389217248	1.035	n/a	stim	poldrack-single-stim	s621	False	1
675.488	0.565	676.053	0.1048937280259092	draw_card	0.565	columbia_card_task_fmri	16.0	0.8181818181818181	89.0	-80.0	0.1818181818181818	12.0	2.0	2.0	4.798783705769466	0.565	n/a	stim	poldrack-single-stim	s621	False	1
676.057	1.177	677.234	-1.6405608174286332	draw_card	1.177	columbia_card_task_fmri	16.0	0.8	89.0	-80.0	0.2	12.0	3.0	2.0	6.170928407746814	1.177	3.0	stim	poldrack-single-stim	s621	False	0
677.99	1.5	677.239	n/a	-1.0	2.25	columbia_card_task_fmri	n/a	n/a	-1.0	n/a	n/a	n/a	n/a	n/a	n/a	n/a	n/a	ITI	poldrack-single-stim	s621	False	0
679.495	4.766	684.261	1.3594391825713668	draw_card	4.766	columbia_card_task_fmri	16.0	0.8	89.0	-65.0	0.2	15.0	1.0	3.0	0.176783580275071	4.766	n/a	stim	poldrack-single-stim	s621	False	1
684.265	0.375	684.64	0.2022963254285101	draw_card	0.375	columbia_card_task_fmri	16.0	0.7857142857142857	89.0	-65.0	0.2142857142857142	15.0	2.0	3.0	1.0122389355124426	0.375	2.0	stim	poldrack-single-stim	s621	False	0
685.397	1.5	684.646	n/a	-1.0	2.454	columbia_card_task_fmri	n/a	n/a	-1.0	n/a	n/a	n/a	n/a	n/a	n/a	n/a	n/a	ITI	poldrack-single-stim	s621	False	0
