duration	onset	block_duration	movement_onset	planning	condition	exp_stage	experiment_exp_id	key_press	problem_id	response_time	trial_id	trial_type	worker_id	junk
3.666	3.014	3.666	6.68	1	UA_with_intermediate	practice	ward_and_allport	71	0.0	3.666	to_hand	poldrack-single-stim	s621	False
0.1	6.681	0.854	7.535	0	UA_with_intermediate	practice	ward_and_allport	89	0.0	0.854	to_board	poldrack-single-stim	s621	False
0.1	7.536	4.767	12.303	0	UA_with_intermediate	practice	ward_and_allport	89	0.0	4.767	to_hand	poldrack-single-stim	s621	False
0.1	12.305	2.196	14.501	0	UA_with_intermediate	practice	ward_and_allport	82	0.0	2.196	to_board	poldrack-single-stim	s621	False
0.1	14.502	0.984	15.486	0	UA_with_intermediate	practice	ward_and_allport	71	0.0	0.984	to_hand	poldrack-single-stim	s621	False
0.1	15.487	0.975	16.462	0	UA_with_intermediate	practice	ward_and_allport	89	0.0	0.975	to_board	poldrack-single-stim	s621	False
0.1	16.464	0.953	17.417	0	UA_with_intermediate	practice	ward_and_allport	82	0.0	0.953	to_hand	poldrack-single-stim	s621	False
0.1	17.417	0.78	18.197	0	UA_with_intermediate	practice	ward_and_allport	89	0.0	0.78	to_board	poldrack-single-stim	s621	False
1.0	18.201	2.5	18.2	0	UA_with_intermediate	practice	ward_and_allport	-1	0.0	n/a	feedback	poldrack-single-stim	s621	False
3.605	20.703	3.605	24.308	1	UA_with_intermediate	practice	ward_and_allport	89	1.0	3.605	to_hand	poldrack-single-stim	s621	False
0.1	24.309	0.92	25.229	0	UA_with_intermediate	practice	ward_and_allport	82	1.0	0.92	to_board	poldrack-single-stim	s621	False
0.1	25.231	1.419	26.65	0	UA_with_intermediate	practice	ward_and_allport	71	1.0	1.419	to_hand	poldrack-single-stim	s621	False
0.1	26.651	0.372	27.023	0	UA_with_intermediate	practice	ward_and_allport	89	1.0	0.372	to_board	poldrack-single-stim	s621	False
0.1	27.024	1.285	28.309	0	UA_with_intermediate	practice	ward_and_allport	82	1.0	1.285	to_hand	poldrack-single-stim	s621	False
0.1	28.31	0.417	28.727	0	UA_with_intermediate	practice	ward_and_allport	89	1.0	0.417	to_board	poldrack-single-stim	s621	False
1.0	28.731	2.1	28.73	0	UA_with_intermediate	practice	ward_and_allport	-1	1.0	n/a	feedback	poldrack-single-stim	s621	False
3.545	30.833	3.545	34.378	1	UA_without_intermediate	practice	ward_and_allport	82	2.0	3.545	to_hand	poldrack-single-stim	s621	False
0.1	34.379	0.521	34.9	0	UA_without_intermediate	practice	ward_and_allport	89	2.0	0.521	to_board	poldrack-single-stim	s621	False
0.1	34.902	0.763	35.665	0	UA_without_intermediate	practice	ward_and_allport	71	2.0	0.763	to_hand	poldrack-single-stim	s621	False
0.1	35.666	0.348	36.014	0	UA_without_intermediate	practice	ward_and_allport	89	2.0	0.348	to_board	poldrack-single-stim	s621	False
0.1	36.016	1.261	37.277	0	UA_without_intermediate	practice	ward_and_allport	71	2.0	1.261	to_hand	poldrack-single-stim	s621	False
0.1	37.279	0.354	37.633	0	UA_without_intermediate	practice	ward_and_allport	89	2.0	0.354	to_board	poldrack-single-stim	s621	False
1.0	37.637	2.2	37.636	0	UA_without_intermediate	practice	ward_and_allport	-1	2.0	n/a	feedback	poldrack-single-stim	s621	False
3.381	39.839	3.381	43.22	1	UA_without_intermediate	practice	ward_and_allport	71	3.0	3.381	to_hand	poldrack-single-stim	s621	False
0.1	43.22	0.338	43.558	0	UA_without_intermediate	practice	ward_and_allport	89	3.0	0.338	to_board	poldrack-single-stim	s621	False
0.1	43.561	1.879	45.44	0	UA_without_intermediate	practice	ward_and_allport	82	3.0	1.879	to_hand	poldrack-single-stim	s621	False
0.1	45.441	0.622	46.063	0	UA_without_intermediate	practice	ward_and_allport	89	3.0	0.622	to_board	poldrack-single-stim	s621	False
0.1	46.065	0.428	46.493	0	UA_without_intermediate	practice	ward_and_allport	71	3.0	0.428	to_hand	poldrack-single-stim	s621	False
0.1	46.494	0.912	47.406	0	UA_without_intermediate	practice	ward_and_allport	89	3.0	0.912	to_board	poldrack-single-stim	s621	False
1.0	47.41	2.0	47.409	0	UA_without_intermediate	practice	ward_and_allport	-1	3.0	n/a	feedback	poldrack-single-stim	s621	False
4.312	51.416	4.312	55.728	1	PA_with_intermediate	test	ward_and_allport	89	0.0	4.312	to_hand	poldrack-single-stim	s621	False
0.1	55.729	0.445	56.174	0	PA_with_intermediate	test	ward_and_allport	71	0.0	0.445	to_board	poldrack-single-stim	s621	False
0.1	56.176	1.785	57.961	0	PA_with_intermediate	test	ward_and_allport	89	0.0	1.785	to_hand	poldrack-single-stim	s621	False
0.1	57.962	1.489	59.451	0	PA_with_intermediate	test	ward_and_allport	82	0.0	1.489	to_board	poldrack-single-stim	s621	False
0.1	59.453	1.139	60.592	0	PA_with_intermediate	test	ward_and_allport	71	0.0	1.139	to_hand	poldrack-single-stim	s621	False
0.1	60.593	0.356	60.949	0	PA_with_intermediate	test	ward_and_allport	82	0.0	0.356	to_board	poldrack-single-stim	s621	False
1.0	60.954	3.768	60.953	0	PA_with_intermediate	test	ward_and_allport	-1	0.0	n/a	feedback	poldrack-single-stim	s621	False
4.114	64.723	4.114	68.837	1	PA_with_intermediate	test	ward_and_allport	71	1.0	4.114	to_hand	poldrack-single-stim	s621	False
0.1	68.839	0.452	69.291	0	PA_with_intermediate	test	ward_and_allport	82	1.0	0.452	to_board	poldrack-single-stim	s621	False
0.1	69.292	0.653	69.945	0	PA_with_intermediate	test	ward_and_allport	71	1.0	0.653	to_hand	poldrack-single-stim	s621	False
0.1	69.947	0.972	70.919	0	PA_with_intermediate	test	ward_and_allport	89	1.0	0.972	to_board	poldrack-single-stim	s621	False
0.1	70.921	1.17	72.091	0	PA_with_intermediate	test	ward_and_allport	82	1.0	1.17	to_hand	poldrack-single-stim	s621	False
0.1	72.092	1.063	73.155	0	PA_with_intermediate	test	ward_and_allport	89	1.0	1.063	to_board	poldrack-single-stim	s621	False
1.0	73.157	2.68	73.156	0	PA_with_intermediate	test	ward_and_allport	-1	1.0	n/a	feedback	poldrack-single-stim	s621	False
3.676	75.839	3.676	79.515	1	PA_without_intermediate	test	ward_and_allport	71	2.0	3.676	to_hand	poldrack-single-stim	s621	False
0.1	79.517	0.629	80.146	0	PA_without_intermediate	test	ward_and_allport	89	2.0	0.629	to_board	poldrack-single-stim	s621	False
0.1	80.147	1.096	81.243	0	PA_without_intermediate	test	ward_and_allport	71	2.0	1.096	to_hand	poldrack-single-stim	s621	False
0.1	81.245	0.402	81.647	0	PA_without_intermediate	test	ward_and_allport	82	2.0	0.402	to_board	poldrack-single-stim	s621	False
0.1	81.649	0.397	82.046	0	PA_without_intermediate	test	ward_and_allport	71	2.0	0.397	to_hand	poldrack-single-stim	s621	False
0.1	82.047	0.4	82.447	0	PA_without_intermediate	test	ward_and_allport	89	2.0	0.4	to_board	poldrack-single-stim	s621	False
1.0	82.453	3.224	82.452	0	PA_without_intermediate	test	ward_and_allport	-1	2.0	n/a	feedback	poldrack-single-stim	s621	False
2.906	85.679	2.906	88.585	1	PA_without_intermediate	test	ward_and_allport	89	3.0	2.906	to_hand	poldrack-single-stim	s621	False
0.1	88.585	0.465	89.05	0	PA_without_intermediate	test	ward_and_allport	71	3.0	0.465	to_board	poldrack-single-stim	s621	False
0.1	89.052	1.131	90.183	0	PA_without_intermediate	test	ward_and_allport	89	3.0	1.131	to_hand	poldrack-single-stim	s621	False
0.1	90.185	0.446	90.631	0	PA_without_intermediate	test	ward_and_allport	71	3.0	0.446	to_board	poldrack-single-stim	s621	False
0.1	90.634	1.032	91.666	0	PA_without_intermediate	test	ward_and_allport	89	3.0	1.032	to_hand	poldrack-single-stim	s621	False
0.1	91.667	0.384	92.051	0	PA_without_intermediate	test	ward_and_allport	82	3.0	0.384	to_board	poldrack-single-stim	s621	False
1.0	92.055	3.36	92.054	0	PA_without_intermediate	test	ward_and_allport	-1	3.0	n/a	feedback	poldrack-single-stim	s621	False
2.276	95.418	2.276	97.694	1	PA_without_intermediate	test	ward_and_allport	89	4.0	2.276	to_hand	poldrack-single-stim	s621	False
0.1	97.695	0.469	98.164	0	PA_without_intermediate	test	ward_and_allport	82	4.0	0.469	to_board	poldrack-single-stim	s621	False
0.1	98.166	1.463	99.629	0	PA_without_intermediate	test	ward_and_allport	89	4.0	1.463	to_hand	poldrack-single-stim	s621	False
0.1	99.63	0.365	99.995	0	PA_without_intermediate	test	ward_and_allport	71	4.0	0.365	to_board	poldrack-single-stim	s621	False
0.1	99.996	0.675	100.671	0	PA_without_intermediate	test	ward_and_allport	89	4.0	0.675	to_hand	poldrack-single-stim	s621	False
0.1	100.673	0.426	101.099	0	PA_without_intermediate	test	ward_and_allport	82	4.0	0.426	to_board	poldrack-single-stim	s621	False
1.0	101.103	2.0	101.102	0	PA_without_intermediate	test	ward_and_allport	-1	4.0	n/a	feedback	poldrack-single-stim	s621	False
3.117	103.107	3.117	106.224	1	PA_without_intermediate	test	ward_and_allport	82	5.0	3.117	to_hand	poldrack-single-stim	s621	False
0.1	106.225	0.434	106.659	0	PA_without_intermediate	test	ward_and_allport	89	5.0	0.434	to_board	poldrack-single-stim	s621	False
0.1	106.662	0.777	107.439	0	PA_without_intermediate	test	ward_and_allport	82	5.0	0.777	to_hand	poldrack-single-stim	s621	False
0.1	107.44	0.657	108.097	0	PA_without_intermediate	test	ward_and_allport	89	5.0	0.657	to_board	poldrack-single-stim	s621	False
0.1	108.1	1.161	109.261	0	PA_without_intermediate	test	ward_and_allport	82	5.0	1.161	to_hand	poldrack-single-stim	s621	False
0.1	109.262	0.554	109.816	0	PA_without_intermediate	test	ward_and_allport	71	5.0	0.554	to_board	poldrack-single-stim	s621	False
1.0	109.82	2.408	109.819	0	PA_without_intermediate	test	ward_and_allport	-1	5.0	n/a	feedback	poldrack-single-stim	s621	False
3.828	112.231	3.828	116.059	1	PA_with_intermediate	test	ward_and_allport	71	6.0	3.828	to_hand	poldrack-single-stim	s621	False
0.1	116.06	0.616	116.676	0	PA_with_intermediate	test	ward_and_allport	89	6.0	0.616	to_board	poldrack-single-stim	s621	False
0.1	116.679	0.525	117.204	0	PA_with_intermediate	test	ward_and_allport	71	6.0	0.525	to_hand	poldrack-single-stim	s621	False
0.1	117.205	0.505	117.71	0	PA_with_intermediate	test	ward_and_allport	82	6.0	0.505	to_board	poldrack-single-stim	s621	False
0.1	117.713	1.246	118.959	0	PA_with_intermediate	test	ward_and_allport	89	6.0	1.246	to_hand	poldrack-single-stim	s621	False
0.1	118.959	0.305	119.264	0	PA_with_intermediate	test	ward_and_allport	71	6.0	0.305	to_board	poldrack-single-stim	s621	False
1.0	119.269	2.136	119.268	0	PA_with_intermediate	test	ward_and_allport	-1	6.0	n/a	feedback	poldrack-single-stim	s621	False
6.302	121.408	6.302	127.71	1	PA_without_intermediate	test	ward_and_allport	82	7.0	6.302	to_hand	poldrack-single-stim	s621	False
0.1	127.711	0.547	128.258	0	PA_without_intermediate	test	ward_and_allport	89	7.0	0.547	to_board	poldrack-single-stim	s621	False
0.1	128.261	1.556	129.817	0	PA_without_intermediate	test	ward_and_allport	82	7.0	1.556	to_hand	poldrack-single-stim	s621	False
0.1	129.818	0.486	130.304	0	PA_without_intermediate	test	ward_and_allport	71	7.0	0.486	to_board	poldrack-single-stim	s621	False
0.1	130.307	1.149	131.456	0	PA_without_intermediate	test	ward_and_allport	82	7.0	1.149	to_hand	poldrack-single-stim	s621	False
0.1	131.457	0.514	131.971	0	PA_without_intermediate	test	ward_and_allport	89	7.0	0.514	to_board	poldrack-single-stim	s621	False
1.0	131.975	5.128	131.974	0	PA_without_intermediate	test	ward_and_allport	-1	7.0	n/a	feedback	poldrack-single-stim	s621	False
2.208	137.107	2.208	139.315	1	PA_without_intermediate	test	ward_and_allport	89	8.0	2.208	to_hand	poldrack-single-stim	s621	False
0.1	139.316	0.294	139.61	0	PA_without_intermediate	test	ward_and_allport	71	8.0	0.294	to_board	poldrack-single-stim	s621	False
0.1	139.612	0.589	140.201	0	PA_without_intermediate	test	ward_and_allport	89	8.0	0.589	to_hand	poldrack-single-stim	s621	False
0.1	140.203	0.366	140.569	0	PA_without_intermediate	test	ward_and_allport	71	8.0	0.366	to_board	poldrack-single-stim	s621	False
0.1	140.572	0.625	141.197	0	PA_without_intermediate	test	ward_and_allport	89	8.0	0.625	to_hand	poldrack-single-stim	s621	False
0.1	141.198	0.317	141.515	0	PA_without_intermediate	test	ward_and_allport	82	8.0	0.317	to_board	poldrack-single-stim	s621	False
1.0	141.519	2.136	141.518	0	PA_without_intermediate	test	ward_and_allport	-1	8.0	n/a	feedback	poldrack-single-stim	s621	False
2.429	143.658	2.429	146.087	1	PA_without_intermediate	test	ward_and_allport	82	9.0	2.429	to_hand	poldrack-single-stim	s621	False
0.1	146.088	0.493	146.581	0	PA_without_intermediate	test	ward_and_allport	71	9.0	0.493	to_board	poldrack-single-stim	s621	False
0.1	146.583	1.15	147.733	0	PA_without_intermediate	test	ward_and_allport	82	9.0	1.15	to_hand	poldrack-single-stim	s621	False
0.1	147.735	0.694	148.429	0	PA_without_intermediate	test	ward_and_allport	71	9.0	0.694	to_board	poldrack-single-stim	s621	False
0.1	148.432	2.438	150.87	0	PA_without_intermediate	test	ward_and_allport	82	9.0	2.438	to_hand	poldrack-single-stim	s621	False
0.1	150.871	0.39	151.261	0	PA_without_intermediate	test	ward_and_allport	89	9.0	0.39	to_board	poldrack-single-stim	s621	False
1.0	151.266	5.264	151.265	0	PA_without_intermediate	test	ward_and_allport	-1	9.0	n/a	feedback	poldrack-single-stim	s621	False
2.295	156.534	2.295	158.829	1	PA_with_intermediate	test	ward_and_allport	82	10.0	2.295	to_hand	poldrack-single-stim	s621	False
0.1	158.83	0.772	159.602	0	PA_with_intermediate	test	ward_and_allport	71	10.0	0.772	to_board	poldrack-single-stim	s621	False
0.1	159.606	1.837	161.443	0	PA_with_intermediate	test	ward_and_allport	82	10.0	1.837	to_hand	poldrack-single-stim	s621	False
0.1	161.444	0.387	161.831	0	PA_with_intermediate	test	ward_and_allport	89	10.0	0.387	to_board	poldrack-single-stim	s621	False
0.1	161.836	0.403	162.239	0	PA_with_intermediate	test	ward_and_allport	71	10.0	0.403	to_hand	poldrack-single-stim	s621	False
0.1	162.24	0.479	162.719	0	PA_with_intermediate	test	ward_and_allport	89	10.0	0.479	to_board	poldrack-single-stim	s621	False
1.0	162.725	4.04	162.724	0	PA_with_intermediate	test	ward_and_allport	-1	10.0	n/a	feedback	poldrack-single-stim	s621	False
4.165	166.77	4.165	170.935	1	PA_with_intermediate	test	ward_and_allport	82	11.0	4.165	to_hand	poldrack-single-stim	s621	False
0.1	170.936	0.405	171.341	0	PA_with_intermediate	test	ward_and_allport	71	11.0	0.405	to_board	poldrack-single-stim	s621	False
0.1	171.345	2.493	173.838	0	PA_with_intermediate	test	ward_and_allport	82	11.0	2.493	to_hand	poldrack-single-stim	s621	False
0.1	173.839	0.361	174.2	0	PA_with_intermediate	test	ward_and_allport	89	11.0	0.361	to_board	poldrack-single-stim	s621	False
0.1	174.204	0.762	174.966	0	PA_with_intermediate	test	ward_and_allport	71	11.0	0.762	to_hand	poldrack-single-stim	s621	False
0.1	174.967	0.496	175.463	0	PA_with_intermediate	test	ward_and_allport	82	11.0	0.496	to_board	poldrack-single-stim	s621	False
1.0	175.471	2.136	175.47	0	PA_with_intermediate	test	ward_and_allport	-1	11.0	n/a	feedback	poldrack-single-stim	s621	False
3.339	177.61	3.339	180.949	1	PA_with_intermediate	test	ward_and_allport	82	12.0	3.339	to_hand	poldrack-single-stim	s621	False
0.1	180.951	0.441	181.392	0	PA_with_intermediate	test	ward_and_allport	89	12.0	0.441	to_board	poldrack-single-stim	s621	False
0.1	181.396	1.947	183.343	0	PA_with_intermediate	test	ward_and_allport	82	12.0	1.947	to_hand	poldrack-single-stim	s621	False
0.1	183.344	0.733	184.077	0	PA_with_intermediate	test	ward_and_allport	71	12.0	0.733	to_board	poldrack-single-stim	s621	False
0.1	184.081	0.543	184.624	0	PA_with_intermediate	test	ward_and_allport	89	12.0	0.543	to_hand	poldrack-single-stim	s621	False
0.1	184.625	0.415	185.04	0	PA_with_intermediate	test	ward_and_allport	71	12.0	0.415	to_board	poldrack-single-stim	s621	False
1.0	185.048	2.408	185.047	0	PA_with_intermediate	test	ward_and_allport	-1	12.0	n/a	feedback	poldrack-single-stim	s621	False
2.014	187.461	2.014	189.475	1	PA_without_intermediate	test	ward_and_allport	89	13.0	2.014	to_hand	poldrack-single-stim	s621	False
0.1	189.477	0.553	190.03	0	PA_without_intermediate	test	ward_and_allport	82	13.0	0.553	to_board	poldrack-single-stim	s621	False
0.1	190.035	0.525	190.56	0	PA_without_intermediate	test	ward_and_allport	89	13.0	0.525	to_hand	poldrack-single-stim	s621	False
0.1	190.562	0.536	191.098	0	PA_without_intermediate	test	ward_and_allport	82	13.0	0.536	to_board	poldrack-single-stim	s621	False
0.1	191.1	1.21	192.31	0	PA_without_intermediate	test	ward_and_allport	89	13.0	1.21	to_hand	poldrack-single-stim	s621	False
0.1	192.312	0.933	193.245	0	PA_without_intermediate	test	ward_and_allport	71	13.0	0.933	to_board	poldrack-single-stim	s621	False
1.0	193.253	2.68	193.252	0	PA_without_intermediate	test	ward_and_allport	-1	13.0	n/a	feedback	poldrack-single-stim	s621	False
3.38	195.936	3.38	199.316	1	PA_with_intermediate	test	ward_and_allport	71	14.0	3.38	to_hand	poldrack-single-stim	s621	False
0.1	199.318	0.475	199.793	0	PA_with_intermediate	test	ward_and_allport	82	14.0	0.475	to_board	poldrack-single-stim	s621	False
0.1	199.797	0.774	200.571	0	PA_with_intermediate	test	ward_and_allport	71	14.0	0.774	to_hand	poldrack-single-stim	s621	False
0.1	200.572	0.431	201.003	0	PA_with_intermediate	test	ward_and_allport	89	14.0	0.431	to_board	poldrack-single-stim	s621	False
0.1	201.009	0.857	201.866	0	PA_with_intermediate	test	ward_and_allport	82	14.0	0.857	to_hand	poldrack-single-stim	s621	False
0.1	201.867	0.412	202.279	0	PA_with_intermediate	test	ward_and_allport	71	14.0	0.412	to_board	poldrack-single-stim	s621	False
1.0	202.283	4.72	202.282	0	PA_with_intermediate	test	ward_and_allport	-1	14.0	n/a	feedback	poldrack-single-stim	s621	False
4.977	212.012	4.977	216.989	1	PA_without_intermediate	test	ward_and_allport	71	15.0	4.977	to_hand	poldrack-single-stim	s621	False
0.1	216.99	0.348	217.338	0	PA_without_intermediate	test	ward_and_allport	82	15.0	0.348	to_board	poldrack-single-stim	s621	False
0.1	217.343	1.119	218.462	0	PA_without_intermediate	test	ward_and_allport	71	15.0	1.119	to_hand	poldrack-single-stim	s621	False
0.1	218.463	0.29	218.753	0	PA_without_intermediate	test	ward_and_allport	89	15.0	0.29	to_board	poldrack-single-stim	s621	False
0.1	218.757	0.526	219.283	0	PA_without_intermediate	test	ward_and_allport	71	15.0	0.526	to_hand	poldrack-single-stim	s621	False
0.1	219.285	0.525	219.81	0	PA_without_intermediate	test	ward_and_allport	82	15.0	0.525	to_board	poldrack-single-stim	s621	False
1.0	219.815	3.224	219.814	0	PA_without_intermediate	test	ward_and_allport	-1	15.0	n/a	feedback	poldrack-single-stim	s621	False
1.923	223.044	1.923	224.967	1	PA_without_intermediate	test	ward_and_allport	71	16.0	1.923	to_hand	poldrack-single-stim	s621	False
0.1	224.968	0.613	225.581	0	PA_without_intermediate	test	ward_and_allport	89	16.0	0.613	to_board	poldrack-single-stim	s621	False
0.1	225.585	0.451	226.036	0	PA_without_intermediate	test	ward_and_allport	71	16.0	0.451	to_hand	poldrack-single-stim	s621	False
0.1	226.037	0.359	226.396	0	PA_without_intermediate	test	ward_and_allport	82	16.0	0.359	to_board	poldrack-single-stim	s621	False
0.1	226.4	0.851	227.251	0	PA_without_intermediate	test	ward_and_allport	71	16.0	0.851	to_hand	poldrack-single-stim	s621	False
0.1	227.252	0.217	227.469	0	PA_without_intermediate	test	ward_and_allport	89	16.0	0.217	to_board	poldrack-single-stim	s621	False
1.0	227.474	2.272	227.473	0	PA_without_intermediate	test	ward_and_allport	-1	16.0	n/a	feedback	poldrack-single-stim	s621	False
3.254	229.751	3.254	233.005	1	PA_with_intermediate	test	ward_and_allport	89	17.0	3.254	to_hand	poldrack-single-stim	s621	False
0.1	233.006	0.316	233.322	0	PA_with_intermediate	test	ward_and_allport	82	17.0	0.316	to_board	poldrack-single-stim	s621	False
0.1	233.327	0.903	234.23	0	PA_with_intermediate	test	ward_and_allport	89	17.0	0.903	to_hand	poldrack-single-stim	s621	False
0.1	234.231	0.402	234.633	0	PA_with_intermediate	test	ward_and_allport	71	17.0	0.402	to_board	poldrack-single-stim	s621	False
0.1	234.637	0.787	235.424	0	PA_with_intermediate	test	ward_and_allport	82	17.0	0.787	to_hand	poldrack-single-stim	s621	False
0.1	235.425	0.455	235.88	0	PA_with_intermediate	test	ward_and_allport	71	17.0	0.455	to_board	poldrack-single-stim	s621	False
1.0	235.885	3.632	235.884	0	PA_with_intermediate	test	ward_and_allport	-1	17.0	n/a	feedback	poldrack-single-stim	s621	False
2.599	239.522	2.599	242.121	1	PA_without_intermediate	test	ward_and_allport	82	18.0	2.599	to_hand	poldrack-single-stim	s621	False
0.1	242.122	0.414	242.536	0	PA_without_intermediate	test	ward_and_allport	89	18.0	0.414	to_board	poldrack-single-stim	s621	False
0.1	242.54	1.75	244.29	0	PA_without_intermediate	test	ward_and_allport	82	18.0	1.75	to_hand	poldrack-single-stim	s621	False
0.1	244.291	0.371	244.662	0	PA_without_intermediate	test	ward_and_allport	89	18.0	0.371	to_board	poldrack-single-stim	s621	False
0.1	244.666	1.613	246.279	0	PA_without_intermediate	test	ward_and_allport	82	18.0	1.613	to_hand	poldrack-single-stim	s621	False
0.1	246.28	0.416	246.696	0	PA_without_intermediate	test	ward_and_allport	71	18.0	0.416	to_board	poldrack-single-stim	s621	False
1.0	246.703	2.408	246.702	0	PA_without_intermediate	test	ward_and_allport	-1	18.0	n/a	feedback	poldrack-single-stim	s621	False
1.961	249.116	1.961	251.077	1	PA_without_intermediate	test	ward_and_allport	89	19.0	1.961	to_hand	poldrack-single-stim	s621	False
0.1	251.077	0.624	251.701	0	PA_without_intermediate	test	ward_and_allport	82	19.0	0.624	to_board	poldrack-single-stim	s621	False
0.1	251.705	0.482	252.187	0	PA_without_intermediate	test	ward_and_allport	89	19.0	0.482	to_hand	poldrack-single-stim	s621	False
0.1	252.189	0.639	252.828	0	PA_without_intermediate	test	ward_and_allport	82	19.0	0.639	to_board	poldrack-single-stim	s621	False
0.1	252.832	0.619	253.451	0	PA_without_intermediate	test	ward_and_allport	89	19.0	0.619	to_hand	poldrack-single-stim	s621	False
0.1	253.453	0.516	253.969	0	PA_without_intermediate	test	ward_and_allport	71	19.0	0.516	to_board	poldrack-single-stim	s621	False
1.0	253.975	2.0	253.974	0	PA_without_intermediate	test	ward_and_allport	-1	19.0	n/a	feedback	poldrack-single-stim	s621	False
2.034	255.98	2.034	258.014	1	PA_with_intermediate	test	ward_and_allport	89	20.0	2.034	to_hand	poldrack-single-stim	s621	False
0.1	258.014	0.443	258.457	0	PA_with_intermediate	test	ward_and_allport	82	20.0	0.443	to_board	poldrack-single-stim	s621	False
0.1	258.463	0.601	259.064	0	PA_with_intermediate	test	ward_and_allport	89	20.0	0.601	to_hand	poldrack-single-stim	s621	False
0.1	259.065	0.445	259.51	0	PA_with_intermediate	test	ward_and_allport	71	20.0	0.445	to_board	poldrack-single-stim	s621	False
0.1	259.515	1.019	260.534	0	PA_with_intermediate	test	ward_and_allport	82	20.0	1.019	to_hand	poldrack-single-stim	s621	False
0.1	260.535	0.273	260.808	0	PA_with_intermediate	test	ward_and_allport	89	20.0	0.273	to_board	poldrack-single-stim	s621	False
1.0	260.813	2.0	260.812	0	PA_with_intermediate	test	ward_and_allport	-1	20.0	n/a	feedback	poldrack-single-stim	s621	False
4.055	262.817	4.055	266.872	1	PA_with_intermediate	test	ward_and_allport	82	21.0	4.055	to_hand	poldrack-single-stim	s621	False
0.1	266.874	0.331	267.205	0	PA_with_intermediate	test	ward_and_allport	89	21.0	0.331	to_board	poldrack-single-stim	s621	False
0.1	267.212	0.669	267.881	0	PA_with_intermediate	test	ward_and_allport	82	21.0	0.669	to_hand	poldrack-single-stim	s621	False
0.1	267.882	0.377	268.259	0	PA_with_intermediate	test	ward_and_allport	71	21.0	0.377	to_board	poldrack-single-stim	s621	False
0.1	268.263	0.437	268.7	0	PA_with_intermediate	test	ward_and_allport	89	21.0	0.437	to_hand	poldrack-single-stim	s621	False
0.1	268.701	0.49	269.191	0	PA_with_intermediate	test	ward_and_allport	82	21.0	0.49	to_board	poldrack-single-stim	s621	False
1.0	269.197	2.0	269.196	0	PA_with_intermediate	test	ward_and_allport	-1	21.0	n/a	feedback	poldrack-single-stim	s621	False
4.165	271.201	4.165	275.366	1	PA_with_intermediate	test	ward_and_allport	71	22.0	4.165	to_hand	poldrack-single-stim	s621	False
0.1	275.367	0.27	275.637	0	PA_with_intermediate	test	ward_and_allport	89	22.0	0.27	to_board	poldrack-single-stim	s621	False
0.1	275.641	1.297	276.938	0	PA_with_intermediate	test	ward_and_allport	71	22.0	1.297	to_hand	poldrack-single-stim	s621	False
0.1	276.939	0.631	277.57	0	PA_with_intermediate	test	ward_and_allport	82	22.0	0.631	to_board	poldrack-single-stim	s621	False
0.1	277.575	0.381	277.956	0	PA_with_intermediate	test	ward_and_allport	89	22.0	0.381	to_hand	poldrack-single-stim	s621	False
0.1	277.958	0.334	278.292	0	PA_with_intermediate	test	ward_and_allport	82	22.0	0.334	to_board	poldrack-single-stim	s621	False
1.0	278.303	2.408	278.302	0	PA_with_intermediate	test	ward_and_allport	-1	22.0	n/a	feedback	poldrack-single-stim	s621	False
4.592	280.717	4.592	285.309	1	PA_without_intermediate	test	ward_and_allport	82	23.0	4.592	to_hand	poldrack-single-stim	s621	False
0.1	285.31	1.119	286.429	0	PA_without_intermediate	test	ward_and_allport	71	23.0	1.119	to_board	poldrack-single-stim	s621	False
0.1	286.435	1.029	287.464	0	PA_without_intermediate	test	ward_and_allport	82	23.0	1.029	to_hand	poldrack-single-stim	s621	False
0.1	287.465	0.441	287.906	0	PA_without_intermediate	test	ward_and_allport	89	23.0	0.441	to_board	poldrack-single-stim	s621	False
0.1	287.912	1.399	289.311	0	PA_without_intermediate	test	ward_and_allport	82	23.0	1.399	to_hand	poldrack-single-stim	s621	False
0.1	289.312	0.347	289.659	0	PA_without_intermediate	test	ward_and_allport	71	23.0	0.347	to_board	poldrack-single-stim	s621	False
1.0	289.666	2.816	289.665	0	PA_without_intermediate	test	ward_and_allport	-1	23.0	n/a	feedback	poldrack-single-stim	s621	False
3.262	292.488	3.262	295.75	1	PA_with_intermediate	test	ward_and_allport	71	24.0	3.262	to_hand	poldrack-single-stim	s621	False
0.1	295.751	0.292	296.043	0	PA_with_intermediate	test	ward_and_allport	82	24.0	0.292	to_board	poldrack-single-stim	s621	False
0.1	296.049	0.545	296.594	0	PA_with_intermediate	test	ward_and_allport	71	24.0	0.545	to_hand	poldrack-single-stim	s621	False
0.1	296.594	0.285	296.879	0	PA_with_intermediate	test	ward_and_allport	89	24.0	0.285	to_board	poldrack-single-stim	s621	False
0.1	296.886	0.6	297.486	0	PA_with_intermediate	test	ward_and_allport	82	24.0	0.6	to_hand	poldrack-single-stim	s621	False
0.1	297.487	0.207	297.694	0	PA_with_intermediate	test	ward_and_allport	89	24.0	0.207	to_board	poldrack-single-stim	s621	False
1.0	297.703	4.176	297.702	0	PA_with_intermediate	test	ward_and_allport	-1	24.0	n/a	feedback	poldrack-single-stim	s621	False
3.674	301.886	3.674	305.56	1	PA_with_intermediate	test	ward_and_allport	71	25.0	3.674	to_hand	poldrack-single-stim	s621	False
0.1	305.561	0.29	305.851	0	PA_with_intermediate	test	ward_and_allport	89	25.0	0.29	to_board	poldrack-single-stim	s621	False
0.1	305.857	0.797	306.654	0	PA_with_intermediate	test	ward_and_allport	71	25.0	0.797	to_hand	poldrack-single-stim	s621	False
0.1	306.655	0.578	307.233	0	PA_with_intermediate	test	ward_and_allport	82	25.0	0.578	to_board	poldrack-single-stim	s621	False
0.1	307.239	0.326	307.565	0	PA_with_intermediate	test	ward_and_allport	89	25.0	0.326	to_hand	poldrack-single-stim	s621	False
0.1	307.566	0.358	307.924	0	PA_with_intermediate	test	ward_and_allport	82	25.0	0.358	to_board	poldrack-single-stim	s621	False
1.0	307.933	3.36	307.932	0	PA_with_intermediate	test	ward_and_allport	-1	25.0	n/a	feedback	poldrack-single-stim	s621	False
3.325	311.299	3.325	314.624	1	PA_with_intermediate	test	ward_and_allport	89	26.0	3.325	to_hand	poldrack-single-stim	s621	False
0.1	314.625	0.461	315.086	0	PA_with_intermediate	test	ward_and_allport	71	26.0	0.461	to_board	poldrack-single-stim	s621	False
0.1	315.091	1.196	316.287	0	PA_with_intermediate	test	ward_and_allport	89	26.0	1.196	to_hand	poldrack-single-stim	s621	False
0.1	316.289	0.384	316.673	0	PA_with_intermediate	test	ward_and_allport	82	26.0	0.384	to_board	poldrack-single-stim	s621	False
0.1	316.679	0.586	317.265	0	PA_with_intermediate	test	ward_and_allport	71	26.0	0.586	to_hand	poldrack-single-stim	s621	False
0.1	317.266	0.216	317.482	0	PA_with_intermediate	test	ward_and_allport	89	26.0	0.216	to_board	poldrack-single-stim	s621	False
1.0	317.49	2.0	317.489	0	PA_with_intermediate	test	ward_and_allport	-1	26.0	n/a	feedback	poldrack-single-stim	s621	False
6.205	319.496	6.205	325.701	1	PA_without_intermediate	test	ward_and_allport	82	27.0	6.205	to_hand	poldrack-single-stim	s621	False
0.1	325.702	0.389	326.091	0	PA_without_intermediate	test	ward_and_allport	71	27.0	0.389	to_board	poldrack-single-stim	s621	False
0.1	326.097	1.0	327.097	0	PA_without_intermediate	test	ward_and_allport	82	27.0	1.0	to_hand	poldrack-single-stim	s621	False
0.1	327.098	0.304	327.402	0	PA_without_intermediate	test	ward_and_allport	71	27.0	0.304	to_board	poldrack-single-stim	s621	False
0.1	327.408	1.514	328.922	0	PA_without_intermediate	test	ward_and_allport	82	27.0	1.514	to_hand	poldrack-single-stim	s621	False
0.1	328.923	0.417	329.34	0	PA_without_intermediate	test	ward_and_allport	89	27.0	0.417	to_board	poldrack-single-stim	s621	False
1.0	329.349	2.408	329.348	0	PA_without_intermediate	test	ward_and_allport	-1	27.0	n/a	feedback	poldrack-single-stim	s621	False
2.945	331.763	2.945	334.708	1	PA_with_intermediate	test	ward_and_allport	89	28.0	2.945	to_hand	poldrack-single-stim	s621	False
0.1	334.709	0.389	335.098	0	PA_with_intermediate	test	ward_and_allport	82	28.0	0.389	to_board	poldrack-single-stim	s621	False
0.1	335.105	0.427	335.532	0	PA_with_intermediate	test	ward_and_allport	89	28.0	0.427	to_hand	poldrack-single-stim	s621	False
0.1	335.533	0.338	335.871	0	PA_with_intermediate	test	ward_and_allport	71	28.0	0.338	to_board	poldrack-single-stim	s621	False
0.1	335.876	0.599	336.475	0	PA_with_intermediate	test	ward_and_allport	82	28.0	0.599	to_hand	poldrack-single-stim	s621	False
0.1	336.477	0.213	336.69	0	PA_with_intermediate	test	ward_and_allport	89	28.0	0.213	to_board	poldrack-single-stim	s621	False
1.0	336.7	2.816	336.699	0	PA_with_intermediate	test	ward_and_allport	-1	28.0	n/a	feedback	poldrack-single-stim	s621	False
2.207	339.523	2.207	341.73	1	PA_without_intermediate	test	ward_and_allport	89	29.0	2.207	to_hand	poldrack-single-stim	s621	False
0.1	341.731	0.729	342.46	0	PA_without_intermediate	test	ward_and_allport	82	29.0	0.729	to_board	poldrack-single-stim	s621	False
0.1	342.47	0.757	343.227	0	PA_without_intermediate	test	ward_and_allport	89	29.0	0.757	to_hand	poldrack-single-stim	s621	False
0.1	343.227	0.286	343.513	0	PA_without_intermediate	test	ward_and_allport	71	29.0	0.286	to_board	poldrack-single-stim	s621	False
0.1	343.52	0.337	343.857	0	PA_without_intermediate	test	ward_and_allport	89	29.0	0.337	to_hand	poldrack-single-stim	s621	False
0.1	343.858	0.328	344.186	0	PA_without_intermediate	test	ward_and_allport	82	29.0	0.328	to_board	poldrack-single-stim	s621	False
1.0	344.194	3.088	344.193	0	PA_without_intermediate	test	ward_and_allport	-1	29.0	n/a	feedback	poldrack-single-stim	s621	False
2.968	352.291	2.968	355.259	1	PA_without_intermediate	test	ward_and_allport	71	30.0	2.968	to_hand	poldrack-single-stim	s621	False
0.1	355.259	0.322	355.581	0	PA_without_intermediate	test	ward_and_allport	89	30.0	0.322	to_board	poldrack-single-stim	s621	False
0.1	355.588	0.366	355.954	0	PA_without_intermediate	test	ward_and_allport	71	30.0	0.366	to_hand	poldrack-single-stim	s621	False
0.1	355.955	0.355	356.31	0	PA_without_intermediate	test	ward_and_allport	89	30.0	0.355	to_board	poldrack-single-stim	s621	False
0.1	356.317	0.883	357.2	0	PA_without_intermediate	test	ward_and_allport	71	30.0	0.883	to_hand	poldrack-single-stim	s621	False
0.1	357.201	0.313	357.514	0	PA_without_intermediate	test	ward_and_allport	82	30.0	0.313	to_board	poldrack-single-stim	s621	False
1.0	357.525	2.136	357.524	0	PA_without_intermediate	test	ward_and_allport	-1	30.0	n/a	feedback	poldrack-single-stim	s621	False
3.781	359.668	3.781	363.449	1	PA_without_intermediate	test	ward_and_allport	82	31.0	3.781	to_hand	poldrack-single-stim	s621	False
0.1	363.449	0.368	363.817	0	PA_without_intermediate	test	ward_and_allport	71	31.0	0.368	to_board	poldrack-single-stim	s621	False
0.1	363.824	1.514	365.338	0	PA_without_intermediate	test	ward_and_allport	82	31.0	1.514	to_hand	poldrack-single-stim	s621	False
0.1	365.34	0.333	365.673	0	PA_without_intermediate	test	ward_and_allport	89	31.0	0.333	to_board	poldrack-single-stim	s621	False
0.1	365.682	0.955	366.637	0	PA_without_intermediate	test	ward_and_allport	82	31.0	0.955	to_hand	poldrack-single-stim	s621	False
0.1	366.639	0.288	366.927	0	PA_without_intermediate	test	ward_and_allport	71	31.0	0.288	to_board	poldrack-single-stim	s621	False
1.0	366.935	7.168	366.934	0	PA_without_intermediate	test	ward_and_allport	-1	31.0	n/a	feedback	poldrack-single-stim	s621	False
3.358	374.112	3.358	377.47	1	PA_without_intermediate	test	ward_and_allport	89	32.0	3.358	to_hand	poldrack-single-stim	s621	False
0.1	377.471	0.531	378.002	0	PA_without_intermediate	test	ward_and_allport	71	32.0	0.531	to_board	poldrack-single-stim	s621	False
0.1	378.011	0.409	378.42	0	PA_without_intermediate	test	ward_and_allport	89	32.0	0.409	to_hand	poldrack-single-stim	s621	False
0.1	378.42	0.41	378.83	0	PA_without_intermediate	test	ward_and_allport	82	32.0	0.41	to_board	poldrack-single-stim	s621	False
0.1	378.839	0.376	379.215	0	PA_without_intermediate	test	ward_and_allport	89	32.0	0.376	to_hand	poldrack-single-stim	s621	False
0.1	379.216	0.317	379.533	0	PA_without_intermediate	test	ward_and_allport	71	32.0	0.317	to_board	poldrack-single-stim	s621	False
1.0	379.543	2.816	379.542	0	PA_without_intermediate	test	ward_and_allport	-1	32.0	n/a	feedback	poldrack-single-stim	s621	False
4.12	382.367	4.12	386.487	1	PA_with_intermediate	test	ward_and_allport	71	33.0	4.12	to_hand	poldrack-single-stim	s621	False
0.1	386.488	0.352	386.84	0	PA_with_intermediate	test	ward_and_allport	82	33.0	0.352	to_board	poldrack-single-stim	s621	False
0.1	386.847	0.462	387.309	0	PA_with_intermediate	test	ward_and_allport	71	33.0	0.462	to_hand	poldrack-single-stim	s621	False
0.1	387.31	0.33	387.64	0	PA_with_intermediate	test	ward_and_allport	89	33.0	0.33	to_board	poldrack-single-stim	s621	False
0.1	387.648	0.484	388.132	0	PA_with_intermediate	test	ward_and_allport	82	33.0	0.484	to_hand	poldrack-single-stim	s621	False
0.1	388.132	0.269	388.401	0	PA_with_intermediate	test	ward_and_allport	71	33.0	0.269	to_board	poldrack-single-stim	s621	False
1.0	388.41	2.952	388.409	0	PA_with_intermediate	test	ward_and_allport	-1	33.0	n/a	feedback	poldrack-single-stim	s621	False
3.139	391.368	3.139	394.507	1	PA_with_intermediate	test	ward_and_allport	82	34.0	3.139	to_hand	poldrack-single-stim	s621	False
0.1	394.509	0.559	395.068	0	PA_with_intermediate	test	ward_and_allport	71	34.0	0.559	to_board	poldrack-single-stim	s621	False
0.1	395.076	0.709	395.785	0	PA_with_intermediate	test	ward_and_allport	82	34.0	0.709	to_hand	poldrack-single-stim	s621	False
0.1	395.787	0.268	396.055	0	PA_with_intermediate	test	ward_and_allport	89	34.0	0.268	to_board	poldrack-single-stim	s621	False
0.1	396.061	0.533	396.594	0	PA_with_intermediate	test	ward_and_allport	71	34.0	0.533	to_hand	poldrack-single-stim	s621	False
0.1	396.595	0.343	396.938	0	PA_with_intermediate	test	ward_and_allport	82	34.0	0.343	to_board	poldrack-single-stim	s621	False
1.0	396.949	2.136	396.948	0	PA_with_intermediate	test	ward_and_allport	-1	34.0	n/a	feedback	poldrack-single-stim	s621	False
3.284	399.098	3.284	402.382	1	PA_without_intermediate	test	ward_and_allport	71	35.0	3.284	to_hand	poldrack-single-stim	s621	False
0.1	402.382	0.376	402.758	0	PA_without_intermediate	test	ward_and_allport	82	35.0	0.376	to_board	poldrack-single-stim	s621	False
0.1	402.766	0.493	403.259	0	PA_without_intermediate	test	ward_and_allport	71	35.0	0.493	to_hand	poldrack-single-stim	s621	False
0.1	403.261	0.368	403.629	0	PA_without_intermediate	test	ward_and_allport	89	35.0	0.368	to_board	poldrack-single-stim	s621	False
0.1	403.636	0.406	404.042	0	PA_without_intermediate	test	ward_and_allport	71	35.0	0.406	to_hand	poldrack-single-stim	s621	False
0.1	404.043	0.596	404.639	0	PA_without_intermediate	test	ward_and_allport	82	35.0	0.596	to_board	poldrack-single-stim	s621	False
1.0	404.645	2.68	404.644	0	PA_without_intermediate	test	ward_and_allport	-1	35.0	n/a	feedback	poldrack-single-stim	s621	False
3.486	407.33	3.486	410.816	1	PA_without_intermediate	test	ward_and_allport	71	36.0	3.486	to_hand	poldrack-single-stim	s621	False
0.1	410.818	0.718	411.536	0	PA_without_intermediate	test	ward_and_allport	82	36.0	0.718	to_board	poldrack-single-stim	s621	False
0.1	411.544	0.869	412.413	0	PA_without_intermediate	test	ward_and_allport	71	36.0	0.869	to_hand	poldrack-single-stim	s621	False
0.1	412.414	0.387	412.801	0	PA_without_intermediate	test	ward_and_allport	82	36.0	0.387	to_board	poldrack-single-stim	s621	False
0.1	412.81	0.377	413.187	0	PA_without_intermediate	test	ward_and_allport	71	36.0	0.377	to_hand	poldrack-single-stim	s621	False
0.1	413.188	0.24	413.428	0	PA_without_intermediate	test	ward_and_allport	89	36.0	0.24	to_board	poldrack-single-stim	s621	False
1.0	413.436	3.088	413.435	0	PA_without_intermediate	test	ward_and_allport	-1	36.0	n/a	feedback	poldrack-single-stim	s621	False
2.639	416.53	2.639	419.169	1	PA_with_intermediate	test	ward_and_allport	89	37.0	2.639	to_hand	poldrack-single-stim	s621	False
0.1	419.17	0.399	419.569	0	PA_with_intermediate	test	ward_and_allport	71	37.0	0.399	to_board	poldrack-single-stim	s621	False
0.1	419.575	0.389	419.964	0	PA_with_intermediate	test	ward_and_allport	89	37.0	0.389	to_hand	poldrack-single-stim	s621	False
0.1	419.964	0.377	420.341	0	PA_with_intermediate	test	ward_and_allport	82	37.0	0.377	to_board	poldrack-single-stim	s621	False
0.1	420.35	1.38	421.73	0	PA_with_intermediate	test	ward_and_allport	71	37.0	1.38	to_hand	poldrack-single-stim	s621	False
0.1	421.731	0.215	421.946	0	PA_with_intermediate	test	ward_and_allport	89	37.0	0.215	to_board	poldrack-single-stim	s621	False
1.0	421.954	2.0	421.953	0	PA_with_intermediate	test	ward_and_allport	-1	37.0	n/a	feedback	poldrack-single-stim	s621	False
2.885	423.961	2.885	426.846	1	PA_without_intermediate	test	ward_and_allport	89	38.0	2.885	to_hand	poldrack-single-stim	s621	False
0.1	426.848	0.261	427.109	0	PA_without_intermediate	test	ward_and_allport	71	38.0	0.261	to_board	poldrack-single-stim	s621	False
0.1	427.115	1.087	428.202	0	PA_without_intermediate	test	ward_and_allport	89	38.0	1.087	to_hand	poldrack-single-stim	s621	False
0.1	428.203	0.346	428.549	0	PA_without_intermediate	test	ward_and_allport	82	38.0	0.346	to_board	poldrack-single-stim	s621	False
0.1	428.555	0.612	429.167	0	PA_without_intermediate	test	ward_and_allport	89	38.0	0.612	to_hand	poldrack-single-stim	s621	False
0.1	429.168	0.256	429.424	0	PA_without_intermediate	test	ward_and_allport	71	38.0	0.256	to_board	poldrack-single-stim	s621	False
1.0	429.431	2.0	429.43	0	PA_without_intermediate	test	ward_and_allport	-1	38.0	n/a	feedback	poldrack-single-stim	s621	False
2.355	431.437	2.355	433.792	1	PA_without_intermediate	test	ward_and_allport	71	39.0	2.355	to_hand	poldrack-single-stim	s621	False
0.1	433.793	0.436	434.229	0	PA_without_intermediate	test	ward_and_allport	82	39.0	0.436	to_board	poldrack-single-stim	s621	False
0.1	434.237	0.464	434.701	0	PA_without_intermediate	test	ward_and_allport	71	39.0	0.464	to_hand	poldrack-single-stim	s621	False
0.1	434.702	0.537	435.239	0	PA_without_intermediate	test	ward_and_allport	82	39.0	0.537	to_board	poldrack-single-stim	s621	False
0.1	435.247	0.547	435.794	0	PA_without_intermediate	test	ward_and_allport	71	39.0	0.547	to_hand	poldrack-single-stim	s621	False
0.1	435.795	0.337	436.132	0	PA_without_intermediate	test	ward_and_allport	89	39.0	0.337	to_board	poldrack-single-stim	s621	False
1.0	436.141	2.0	436.14	0	PA_without_intermediate	test	ward_and_allport	-1	39.0	n/a	feedback	poldrack-single-stim	s621	False
3.469	438.147	3.469	441.616	1	PA_with_intermediate	test	ward_and_allport	82	40.0	3.469	to_hand	poldrack-single-stim	s621	False
0.1	441.617	0.331	441.948	0	PA_with_intermediate	test	ward_and_allport	89	40.0	0.331	to_board	poldrack-single-stim	s621	False
0.1	441.953	0.883	442.836	0	PA_with_intermediate	test	ward_and_allport	82	40.0	0.883	to_hand	poldrack-single-stim	s621	False
0.1	442.837	0.307	443.144	0	PA_with_intermediate	test	ward_and_allport	71	40.0	0.307	to_board	poldrack-single-stim	s621	False
0.1	443.153	0.38	443.533	0	PA_with_intermediate	test	ward_and_allport	89	40.0	0.38	to_hand	poldrack-single-stim	s621	False
0.1	443.534	0.239	443.773	0	PA_with_intermediate	test	ward_and_allport	71	40.0	0.239	to_board	poldrack-single-stim	s621	False
1.0	443.783	2.544	443.782	0	PA_with_intermediate	test	ward_and_allport	-1	40.0	n/a	feedback	poldrack-single-stim	s621	False
1.788	446.335	1.788	448.123	1	PA_without_intermediate	test	ward_and_allport	71	41.0	1.788	to_hand	poldrack-single-stim	s621	False
0.1	448.125	0.279	448.404	0	PA_without_intermediate	test	ward_and_allport	89	41.0	0.279	to_board	poldrack-single-stim	s621	False
0.1	448.413	0.988	449.401	0	PA_without_intermediate	test	ward_and_allport	71	41.0	0.988	to_hand	poldrack-single-stim	s621	False
0.1	449.402	0.277	449.679	0	PA_without_intermediate	test	ward_and_allport	89	41.0	0.277	to_board	poldrack-single-stim	s621	False
0.1	449.685	0.576	450.261	0	PA_without_intermediate	test	ward_and_allport	71	41.0	0.576	to_hand	poldrack-single-stim	s621	False
0.1	450.262	0.529	450.791	0	PA_without_intermediate	test	ward_and_allport	82	41.0	0.529	to_board	poldrack-single-stim	s621	False
1.0	450.802	2.272	450.801	0	PA_without_intermediate	test	ward_and_allport	-1	41.0	n/a	feedback	poldrack-single-stim	s621	False
3.932	453.08	3.932	457.012	1	PA_with_intermediate	test	ward_and_allport	89	42.0	3.932	to_hand	poldrack-single-stim	s621	False
0.1	457.013	0.3	457.313	0	PA_with_intermediate	test	ward_and_allport	71	42.0	0.3	to_board	poldrack-single-stim	s621	False
0.1	457.318	0.382	457.7	0	PA_with_intermediate	test	ward_and_allport	89	42.0	0.382	to_hand	poldrack-single-stim	s621	False
0.1	457.702	0.376	458.078	0	PA_with_intermediate	test	ward_and_allport	82	42.0	0.376	to_board	poldrack-single-stim	s621	False
0.1	458.085	0.326	458.411	0	PA_with_intermediate	test	ward_and_allport	71	42.0	0.326	to_hand	poldrack-single-stim	s621	False
0.1	458.413	0.394	458.807	0	PA_with_intermediate	test	ward_and_allport	82	42.0	0.394	to_board	poldrack-single-stim	s621	False
1.0	458.821	4.04	458.82	0	PA_with_intermediate	test	ward_and_allport	-1	42.0	n/a	feedback	poldrack-single-stim	s621	False
2.53	462.869	2.53	465.399	1	PA_with_intermediate	test	ward_and_allport	89	43.0	2.53	to_hand	poldrack-single-stim	s621	False
0.1	465.4	0.327	465.727	0	PA_with_intermediate	test	ward_and_allport	82	43.0	0.327	to_board	poldrack-single-stim	s621	False
0.1	465.734	0.444	466.178	0	PA_with_intermediate	test	ward_and_allport	89	43.0	0.444	to_hand	poldrack-single-stim	s621	False
0.1	466.18	0.329	466.509	0	PA_with_intermediate	test	ward_and_allport	71	43.0	0.329	to_board	poldrack-single-stim	s621	False
0.1	466.516	0.355	466.871	0	PA_with_intermediate	test	ward_and_allport	82	43.0	0.355	to_hand	poldrack-single-stim	s621	False
0.1	466.872	0.274	467.146	0	PA_with_intermediate	test	ward_and_allport	71	43.0	0.274	to_board	poldrack-single-stim	s621	False
1.0	467.157	2.272	467.156	0	PA_with_intermediate	test	ward_and_allport	-1	43.0	n/a	feedback	poldrack-single-stim	s621	False
3.492	469.439	3.492	472.931	1	PA_with_intermediate	test	ward_and_allport	71	44.0	3.492	to_hand	poldrack-single-stim	s621	False
0.1	472.932	0.245	473.177	0	PA_with_intermediate	test	ward_and_allport	89	44.0	0.245	to_board	poldrack-single-stim	s621	False
0.1	473.182	0.327	473.509	0	PA_with_intermediate	test	ward_and_allport	71	44.0	0.327	to_hand	poldrack-single-stim	s621	False
0.1	473.511	0.561	474.072	0	PA_with_intermediate	test	ward_and_allport	82	44.0	0.561	to_board	poldrack-single-stim	s621	False
0.1	474.08	0.302	474.382	0	PA_with_intermediate	test	ward_and_allport	89	44.0	0.302	to_hand	poldrack-single-stim	s621	False
0.1	474.382	0.294	474.676	0	PA_with_intermediate	test	ward_and_allport	71	44.0	0.294	to_board	poldrack-single-stim	s621	False
1.0	474.687	2.136	474.686	0	PA_with_intermediate	test	ward_and_allport	-1	44.0	n/a	feedback	poldrack-single-stim	s621	False
4.032	481.838	4.032	485.87	1	PA_with_intermediate	test	ward_and_allport	82	45.0	4.032	to_hand	poldrack-single-stim	s621	False
0.1	485.871	0.314	486.185	0	PA_with_intermediate	test	ward_and_allport	71	45.0	0.314	to_board	poldrack-single-stim	s621	False
0.1	486.195	0.845	487.04	0	PA_with_intermediate	test	ward_and_allport	82	45.0	0.845	to_hand	poldrack-single-stim	s621	False
0.1	487.041	0.392	487.433	0	PA_with_intermediate	test	ward_and_allport	89	45.0	0.392	to_board	poldrack-single-stim	s621	False
0.1	487.444	0.487	487.931	0	PA_with_intermediate	test	ward_and_allport	71	45.0	0.487	to_hand	poldrack-single-stim	s621	False
0.1	487.932	0.287	488.219	0	PA_with_intermediate	test	ward_and_allport	89	45.0	0.287	to_board	poldrack-single-stim	s621	False
1.0	488.232	2.0	488.231	0	PA_with_intermediate	test	ward_and_allport	-1	45.0	n/a	feedback	poldrack-single-stim	s621	False
2.544	490.241	2.544	492.785	1	PA_with_intermediate	test	ward_and_allport	82	46.0	2.544	to_hand	poldrack-single-stim	s621	False
0.1	492.786	0.31	493.096	0	PA_with_intermediate	test	ward_and_allport	89	46.0	0.31	to_board	poldrack-single-stim	s621	False
0.1	493.103	0.622	493.725	0	PA_with_intermediate	test	ward_and_allport	82	46.0	0.622	to_hand	poldrack-single-stim	s621	False
0.1	493.726	0.256	493.982	0	PA_with_intermediate	test	ward_and_allport	71	46.0	0.256	to_board	poldrack-single-stim	s621	False
0.1	493.988	0.349	494.337	0	PA_with_intermediate	test	ward_and_allport	89	46.0	0.349	to_hand	poldrack-single-stim	s621	False
0.1	494.337	0.259	494.596	0	PA_with_intermediate	test	ward_and_allport	82	46.0	0.259	to_board	poldrack-single-stim	s621	False
1.0	494.605	2.0	494.604	0	PA_with_intermediate	test	ward_and_allport	-1	46.0	n/a	feedback	poldrack-single-stim	s621	False
3.178	496.612	3.178	499.79	1	PA_without_intermediate	test	ward_and_allport	82	47.0	3.178	to_hand	poldrack-single-stim	s621	False
0.1	499.791	0.343	500.134	0	PA_without_intermediate	test	ward_and_allport	89	47.0	0.343	to_board	poldrack-single-stim	s621	False
0.1	500.142	4.094	504.236	0	PA_without_intermediate	test	ward_and_allport	82	47.0	4.094	to_hand	poldrack-single-stim	s621	False
0.1	504.236	0.34	504.576	0	PA_without_intermediate	test	ward_and_allport	71	47.0	0.34	to_board	poldrack-single-stim	s621	False
0.1	504.585	1.035	505.62	0	PA_without_intermediate	test	ward_and_allport	82	47.0	1.035	to_hand	poldrack-single-stim	s621	False
0.1	505.621	0.433	506.054	0	PA_without_intermediate	test	ward_and_allport	89	47.0	0.433	to_board	poldrack-single-stim	s621	False
1.0	506.069	2.408	506.068	0	PA_without_intermediate	test	ward_and_allport	-1	47.0	n/a	feedback	poldrack-single-stim	s621	False
