onset	duration	movement_onset	block_duration	condition	correct	correct_response	experiment_exp_id	key_press	response_time	trial_id	trial_type	worker_id	junk
3.017	0.5	3.016	0.5	BY	n/a	n/a	dot_pattern_expectancy	-1.0	n/a	cue	BY	s622	False
5.522	0.5	5.907	1.636	BY	1.0	71.0	dot_pattern_expectancy	71.0	0.385	probe	BY	s622	False
7.159	0.5	7.158	0.5	AY	n/a	n/a	dot_pattern_expectancy	-1.0	n/a	cue	AY	s622	False
9.667	0.5	10.289	1.5	AY	1.0	71.0	dot_pattern_expectancy	71.0	0.622	probe	AY	s622	False
11.17	0.5	11.169	0.5	AX	n/a	n/a	dot_pattern_expectancy	-1.0	n/a	cue	AX	s622	False
13.676	0.5	14.063	2.044	AX	1.0	89.0	dot_pattern_expectancy	89.0	0.387	probe	AX	s622	False
15.724	0.5	15.723	0.5	BY	n/a	n/a	dot_pattern_expectancy	-1.0	n/a	cue	BY	s622	False
18.234	0.5	18.666	1.772	BY	1.0	71.0	dot_pattern_expectancy	71.0	0.432	probe	BY	s622	False
20.008	0.5	20.007	0.5	BX	n/a	n/a	dot_pattern_expectancy	-1.0	n/a	cue	BX	s622	False
22.514	0.5	22.932	1.636	BX	1.0	71.0	dot_pattern_expectancy	71.0	0.418	probe	BX	s622	False
24.151	0.5	24.15	0.5	AX	n/a	n/a	dot_pattern_expectancy	-1.0	n/a	cue	AX	s622	False
26.661	0.5	27.125	1.636	AX	1.0	89.0	dot_pattern_expectancy	89.0	0.464	probe	AX	s622	False
28.302	0.5	28.301	0.5	AX	n/a	n/a	dot_pattern_expectancy	-1.0	n/a	cue	AX	s622	False
30.81	0.5	31.334	1.5	AX	1.0	89.0	dot_pattern_expectancy	89.0	0.524	probe	AX	s622	False
32.312	0.5	32.311	0.5	AX	n/a	n/a	dot_pattern_expectancy	-1.0	n/a	cue	AX	s622	False
34.82	0.5	35.225	1.5	AX	1.0	89.0	dot_pattern_expectancy	89.0	0.405	probe	AX	s622	False
36.322	0.5	36.321	0.5	AY	n/a	n/a	dot_pattern_expectancy	-1.0	n/a	cue	AY	s622	False
38.831	0.5	39.448	2.044	AY	1.0	71.0	dot_pattern_expectancy	71.0	0.617	probe	AY	s622	False
40.877	0.5	40.876	0.5	AX	n/a	n/a	dot_pattern_expectancy	-1.0	n/a	cue	AX	s622	False
43.387	0.5	43.942	2.452	AX	1.0	89.0	dot_pattern_expectancy	89.0	0.555	probe	AX	s622	False
45.842	0.5	45.841	0.5	AX	n/a	n/a	dot_pattern_expectancy	-1.0	n/a	cue	AX	s622	False
48.349	0.5	48.928	1.908	AX	1.0	89.0	dot_pattern_expectancy	89.0	0.579	probe	AX	s622	False
50.258	0.5	50.257	0.5	AX	n/a	n/a	dot_pattern_expectancy	-1.0	n/a	cue	AX	s622	False
52.767	0.5	53.3	1.5	AX	1.0	89.0	dot_pattern_expectancy	89.0	0.533	probe	AX	s622	False
54.269	0.5	54.268	0.5	AX	n/a	n/a	dot_pattern_expectancy	-1.0	n/a	cue	AX	s622	False
56.775	0.5	57.253	1.908	AX	1.0	89.0	dot_pattern_expectancy	89.0	0.478	probe	AX	s622	False
58.685	0.5	58.684	0.5	BX	n/a	n/a	dot_pattern_expectancy	-1.0	n/a	cue	BX	s622	False
61.19	0.5	61.555	2.18	BX	1.0	71.0	dot_pattern_expectancy	71.0	0.365	probe	BX	s622	False
63.373	0.5	63.372	0.5	AX	n/a	n/a	dot_pattern_expectancy	-1.0	n/a	cue	AX	s622	False
65.882	0.5	66.299	1.5	AX	1.0	89.0	dot_pattern_expectancy	89.0	0.417	probe	AX	s622	False
67.383	0.5	67.382	0.5	BY	n/a	n/a	dot_pattern_expectancy	-1.0	n/a	cue	BY	s622	False
69.894	0.5	70.336	1.908	BY	1.0	71.0	dot_pattern_expectancy	71.0	0.442	probe	BY	s622	False
71.808	0.5	71.807	0.5	BX	n/a	n/a	dot_pattern_expectancy	-1.0	n/a	cue	BX	s622	False
74.313	0.5	74.659	2.316	BX	1.0	71.0	dot_pattern_expectancy	71.0	0.346	probe	BX	s622	False
76.631	0.5	76.63	0.5	AY	n/a	n/a	dot_pattern_expectancy	-1.0	n/a	cue	AY	s622	False
79.14	0.5	79.726	2.316	AY	1.0	71.0	dot_pattern_expectancy	71.0	0.586	probe	AY	s622	False
81.46	0.5	81.459	0.5	BX	n/a	n/a	dot_pattern_expectancy	-1.0	n/a	cue	BX	s622	False
83.965	0.5	84.522	1.636	BX	1.0	71.0	dot_pattern_expectancy	71.0	0.557	probe	BX	s622	False
85.603	0.5	85.602	0.5	AY	n/a	n/a	dot_pattern_expectancy	-1.0	n/a	cue	AY	s622	False
88.111	0.5	88.664	1.5	AY	1.0	71.0	dot_pattern_expectancy	71.0	0.553	probe	AY	s622	False
89.616	0.5	89.615	0.5	BY	n/a	n/a	dot_pattern_expectancy	-1.0	n/a	cue	BY	s622	False
92.119	0.5	92.534	1.908	BY	1.0	71.0	dot_pattern_expectancy	71.0	0.415	probe	BY	s622	False
94.029	0.5	94.028	0.5	AX	n/a	n/a	dot_pattern_expectancy	-1.0	n/a	cue	AX	s622	False
96.538	0.5	97.036	1.5	AX	1.0	89.0	dot_pattern_expectancy	89.0	0.498	probe	AX	s622	False
98.04	0.5	98.039	0.5	AY	n/a	n/a	dot_pattern_expectancy	-1.0	n/a	cue	AY	s622	False
100.548	0.5	101.117	2.316	AY	1.0	71.0	dot_pattern_expectancy	71.0	0.569	probe	AY	s622	False
102.866	0.5	102.865	0.5	AX	n/a	n/a	dot_pattern_expectancy	-1.0	n/a	cue	AX	s622	False
105.375	0.5	105.833	1.5	AX	1.0	89.0	dot_pattern_expectancy	89.0	0.458	probe	AX	s622	False
106.879	0.5	106.878	0.5	AY	n/a	n/a	dot_pattern_expectancy	-1.0	n/a	cue	AY	s622	False
109.383	0.5	109.911	2.724	AY	1.0	71.0	dot_pattern_expectancy	71.0	0.528	probe	AY	s622	False
112.109	0.5	112.108	0.5	AX	n/a	n/a	dot_pattern_expectancy	-1.0	n/a	cue	AX	s622	False
114.618	0.5	115.207	1.5	AX	1.0	89.0	dot_pattern_expectancy	89.0	0.589	probe	AX	s622	False
116.119	0.5	116.118	0.5	AX	n/a	n/a	dot_pattern_expectancy	-1.0	n/a	cue	AX	s622	False
118.626	0.5	119.103	1.636	AX	1.0	89.0	dot_pattern_expectancy	89.0	0.477	probe	AX	s622	False
120.263	0.5	120.262	0.5	AX	n/a	n/a	dot_pattern_expectancy	-1.0	n/a	cue	AX	s622	False
122.77	0.5	123.212	1.636	AX	1.0	89.0	dot_pattern_expectancy	89.0	0.442	probe	AX	s622	False
124.407	0.5	124.406	0.5	AX	n/a	n/a	dot_pattern_expectancy	-1.0	n/a	cue	AX	s622	False
126.917	0.5	127.447	1.772	AX	1.0	89.0	dot_pattern_expectancy	89.0	0.53	probe	AX	s622	False
128.69	0.5	128.689	0.5	BY	n/a	n/a	dot_pattern_expectancy	-1.0	n/a	cue	BY	s622	False
131.199	0.5	131.618	1.772	BY	1.0	71.0	dot_pattern_expectancy	71.0	0.419	probe	BY	s622	False
132.973	0.5	132.972	0.5	AX	n/a	n/a	dot_pattern_expectancy	-1.0	n/a	cue	AX	s622	False
135.482	0.5	135.923	1.5	AX	1.0	89.0	dot_pattern_expectancy	89.0	0.441	probe	AX	s622	False
136.986	0.5	136.985	0.5	BY	n/a	n/a	dot_pattern_expectancy	-1.0	n/a	cue	BY	s622	False
139.49	0.5	139.907	2.452	BY	1.0	71.0	dot_pattern_expectancy	71.0	0.417	probe	BY	s622	False
141.943	0.5	141.942	0.5	AX	n/a	n/a	dot_pattern_expectancy	-1.0	n/a	cue	AX	s622	False
144.45	0.5	144.868	1.636	AX	1.0	89.0	dot_pattern_expectancy	89.0	0.418	probe	AX	s622	False
146.087	0.5	146.086	0.5	AX	n/a	n/a	dot_pattern_expectancy	-1.0	n/a	cue	AX	s622	False
148.597	0.5	149.113	1.636	AX	1.0	89.0	dot_pattern_expectancy	89.0	0.516	probe	AX	s622	False
150.238	0.5	150.237	0.5	BX	n/a	n/a	dot_pattern_expectancy	-1.0	n/a	cue	BX	s622	False
152.746	0.5	153.082	1.5	BX	1.0	71.0	dot_pattern_expectancy	71.0	0.336	probe	BX	s622	False
154.247	0.5	154.246	0.5	BX	n/a	n/a	dot_pattern_expectancy	-1.0	n/a	cue	BX	s622	False
156.756	0.5	157.11	1.5	BX	1.0	71.0	dot_pattern_expectancy	71.0	0.354	probe	BX	s622	False
158.258	0.5	158.257	0.5	AX	n/a	n/a	dot_pattern_expectancy	-1.0	n/a	cue	AX	s622	False
160.762	0.5	161.333	2.316	AX	1.0	89.0	dot_pattern_expectancy	89.0	0.571	probe	AX	s622	False
163.083	0.5	163.082	0.5	AY	n/a	n/a	dot_pattern_expectancy	-1.0	n/a	cue	AY	s622	False
165.588	0.5	166.113	2.044	AY	1.0	71.0	dot_pattern_expectancy	71.0	0.525	probe	AY	s622	False
167.634	0.5	167.633	0.5	AX	n/a	n/a	dot_pattern_expectancy	-1.0	n/a	cue	AX	s622	False
170.143	0.5	170.708	3.948	AX	1.0	89.0	dot_pattern_expectancy	89.0	0.565	probe	AX	s622	False
174.093	0.5	174.092	0.5	AX	n/a	n/a	dot_pattern_expectancy	-1.0	n/a	cue	AX	s622	False
176.599	0.5	177.037	1.636	AX	1.0	89.0	dot_pattern_expectancy	89.0	0.438	probe	AX	s622	False
188.754	0.5	188.753	0.5	AY	n/a	n/a	dot_pattern_expectancy	-1.0	n/a	cue	AY	s622	False
191.26	0.5	191.829	1.636	AY	1.0	71.0	dot_pattern_expectancy	71.0	0.569	probe	AY	s622	False
192.898	0.5	192.897	0.5	AX	n/a	n/a	dot_pattern_expectancy	-1.0	n/a	cue	AX	s622	False
195.404	0.5	196.111	1.636	AX	1.0	89.0	dot_pattern_expectancy	89.0	0.707	probe	AX	s622	False
197.042	0.5	197.041	0.5	AX	n/a	n/a	dot_pattern_expectancy	-1.0	n/a	cue	AX	s622	False
199.553	0.5	199.997	1.5	AX	1.0	89.0	dot_pattern_expectancy	89.0	0.444	probe	AX	s622	False
201.057	0.5	201.056	0.5	AX	n/a	n/a	dot_pattern_expectancy	-1.0	n/a	cue	AX	s622	False
203.567	0.5	204.05	1.5	AX	1.0	89.0	dot_pattern_expectancy	89.0	0.483	probe	AX	s622	False
205.069	0.5	205.068	0.5	AX	n/a	n/a	dot_pattern_expectancy	-1.0	n/a	cue	AX	s622	False
207.578	0.5	208.1	1.908	AX	1.0	89.0	dot_pattern_expectancy	89.0	0.522	probe	AX	s622	False
209.49	0.5	209.489	0.5	BX	n/a	n/a	dot_pattern_expectancy	-1.0	n/a	cue	BX	s622	False
211.997	0.5	212.528	1.636	BX	1.0	71.0	dot_pattern_expectancy	71.0	0.531	probe	BX	s622	False
213.634	0.5	213.633	0.5	AX	n/a	n/a	dot_pattern_expectancy	-1.0	n/a	cue	AX	s622	False
216.143	0.5	216.708	2.044	AX	1.0	89.0	dot_pattern_expectancy	89.0	0.565	probe	AX	s622	False
218.189	0.5	218.188	0.5	AX	n/a	n/a	dot_pattern_expectancy	-1.0	n/a	cue	AX	s622	False
220.698	0.5	221.209	1.772	AX	1.0	89.0	dot_pattern_expectancy	89.0	0.511	probe	AX	s622	False
222.471	0.5	222.47	0.5	AX	n/a	n/a	dot_pattern_expectancy	-1.0	n/a	cue	AX	s622	False
224.98	0.5	225.391	1.5	AX	1.0	89.0	dot_pattern_expectancy	89.0	0.411	probe	AX	s622	False
226.486	0.5	226.485	0.5	AX	n/a	n/a	dot_pattern_expectancy	-1.0	n/a	cue	AX	s622	False
228.988	0.5	229.589	2.18	AX	1.0	89.0	dot_pattern_expectancy	89.0	0.601	probe	AX	s622	False
231.17	0.5	231.169	0.5	AX	n/a	n/a	dot_pattern_expectancy	-1.0	n/a	cue	AX	s622	False
233.679	0.5	234.099	1.5	AX	1.0	89.0	dot_pattern_expectancy	89.0	0.42	probe	AX	s622	False
235.181	0.5	235.18	0.5	BX	n/a	n/a	dot_pattern_expectancy	-1.0	n/a	cue	BX	s622	False
237.69	0.5	238.064	3.676	BX	1.0	71.0	dot_pattern_expectancy	71.0	0.374	probe	BX	s622	False
241.367	0.5	241.366	0.5	BY	n/a	n/a	dot_pattern_expectancy	-1.0	n/a	cue	BY	s622	False
243.874	0.5	244.286	1.636	BY	1.0	71.0	dot_pattern_expectancy	71.0	0.412	probe	BY	s622	False
245.511	0.5	245.51	0.5	BY	n/a	n/a	dot_pattern_expectancy	-1.0	n/a	cue	BY	s622	False
248.018	0.5	248.531	1.636	BY	1.0	71.0	dot_pattern_expectancy	71.0	0.513	probe	BY	s622	False
249.655	0.5	249.654	0.5	BX	n/a	n/a	dot_pattern_expectancy	-1.0	n/a	cue	BX	s622	False
252.164	0.5	252.589	1.5	BX	1.0	71.0	dot_pattern_expectancy	71.0	0.425	probe	BX	s622	False
253.666	0.5	253.665	0.5	AX	n/a	n/a	dot_pattern_expectancy	-1.0	n/a	cue	AX	s622	False
256.172	0.5	256.718	1.908	AX	1.0	89.0	dot_pattern_expectancy	89.0	0.546	probe	AX	s622	False
258.082	0.5	258.081	0.5	AX	n/a	n/a	dot_pattern_expectancy	-1.0	n/a	cue	AX	s622	False
260.588	0.5	261.027	1.636	AX	1.0	89.0	dot_pattern_expectancy	89.0	0.439	probe	AX	s622	False
262.226	0.5	262.225	0.5	BX	n/a	n/a	dot_pattern_expectancy	-1.0	n/a	cue	BX	s622	False
264.735	0.5	265.069	1.5	BX	1.0	71.0	dot_pattern_expectancy	71.0	0.334	probe	BX	s622	False
266.237	0.5	266.236	0.5	AX	n/a	n/a	dot_pattern_expectancy	-1.0	n/a	cue	AX	s622	False
268.744	0.5	269.156	1.908	AX	1.0	89.0	dot_pattern_expectancy	89.0	0.412	probe	AX	s622	False
270.658	0.5	270.657	0.5	BY	n/a	n/a	dot_pattern_expectancy	-1.0	n/a	cue	BY	s622	False
273.164	0.5	273.606	2.18	BY	1.0	71.0	dot_pattern_expectancy	71.0	0.442	probe	BY	s622	False
275.346	0.5	275.345	0.5	AX	n/a	n/a	dot_pattern_expectancy	-1.0	n/a	cue	AX	s622	False
277.855	0.5	278.218	1.772	AX	1.0	89.0	dot_pattern_expectancy	89.0	0.363	probe	AX	s622	False
279.629	0.5	279.628	0.5	AX	n/a	n/a	dot_pattern_expectancy	-1.0	n/a	cue	AX	s622	False
282.136	0.5	282.506	1.5	AX	1.0	89.0	dot_pattern_expectancy	89.0	0.37	probe	AX	s622	False
283.642	0.5	283.641	0.5	AX	n/a	n/a	dot_pattern_expectancy	-1.0	n/a	cue	AX	s622	False
286.148	0.5	286.599	1.5	AX	1.0	89.0	dot_pattern_expectancy	89.0	0.451	probe	AX	s622	False
287.65	0.5	287.649	0.5	AX	n/a	n/a	dot_pattern_expectancy	-1.0	n/a	cue	AX	s622	False
290.159	0.5	290.593	2.044	AX	1.0	89.0	dot_pattern_expectancy	89.0	0.434	probe	AX	s622	False
292.205	0.5	292.204	0.5	AX	n/a	n/a	dot_pattern_expectancy	-1.0	n/a	cue	AX	s622	False
294.714	0.5	295.339	2.86	AX	1.0	89.0	dot_pattern_expectancy	89.0	0.625	probe	AX	s622	False
297.575	0.5	297.574	0.5	BX	n/a	n/a	dot_pattern_expectancy	-1.0	n/a	cue	BX	s622	False
300.083	0.5	300.426	1.5	BX	1.0	71.0	dot_pattern_expectancy	71.0	0.343	probe	BX	s622	False
301.586	0.5	301.585	0.5	BY	n/a	n/a	dot_pattern_expectancy	-1.0	n/a	cue	BY	s622	False
304.095	0.5	304.433	1.772	BY	1.0	71.0	dot_pattern_expectancy	71.0	0.338	probe	BY	s622	False
305.869	0.5	305.868	0.5	AX	n/a	n/a	dot_pattern_expectancy	-1.0	n/a	cue	AX	s622	False
308.38	0.5	308.896	1.772	AX	1.0	89.0	dot_pattern_expectancy	89.0	0.516	probe	AX	s622	False
310.156	0.5	310.155	0.5	AX	n/a	n/a	dot_pattern_expectancy	-1.0	n/a	cue	AX	s622	False
312.66	0.5	313.517	2.86	AX	1.0	89.0	dot_pattern_expectancy	89.0	0.857	probe	AX	s622	False
315.522	0.5	315.521	0.5	AX	n/a	n/a	dot_pattern_expectancy	-1.0	n/a	cue	AX	s622	False
318.03	0.5	318.535	1.772	AX	1.0	89.0	dot_pattern_expectancy	89.0	0.505	probe	AX	s622	False
319.804	0.5	319.803	0.5	BX	n/a	n/a	dot_pattern_expectancy	-1.0	n/a	cue	BX	s622	False
322.311	0.5	322.638	1.636	BX	1.0	71.0	dot_pattern_expectancy	71.0	0.327	probe	BX	s622	False
323.949	0.5	323.948	0.5	BX	n/a	n/a	dot_pattern_expectancy	-1.0	n/a	cue	BX	s622	False
326.458	0.5	326.842	2.452	BX	1.0	71.0	dot_pattern_expectancy	71.0	0.384	probe	BX	s622	False
328.914	0.5	328.913	0.5	AX	n/a	n/a	dot_pattern_expectancy	-1.0	n/a	cue	AX	s622	False
331.421	0.5	331.926	1.636	AX	1.0	89.0	dot_pattern_expectancy	89.0	0.505	probe	AX	s622	False
333.059	0.5	333.058	0.5	BX	n/a	n/a	dot_pattern_expectancy	-1.0	n/a	cue	BX	s622	False
335.566	0.5	335.97	1.5	BX	1.0	71.0	dot_pattern_expectancy	71.0	0.404	probe	BX	s622	False
337.069	0.5	337.068	0.5	AX	n/a	n/a	dot_pattern_expectancy	-1.0	n/a	cue	AX	s622	False
339.575	0.5	340.009	1.636	AX	1.0	89.0	dot_pattern_expectancy	89.0	0.434	probe	AX	s622	False
341.217	0.5	341.216	0.5	AX	n/a	n/a	dot_pattern_expectancy	-1.0	n/a	cue	AX	s622	False
343.719	0.5	344.134	1.636	AX	1.0	89.0	dot_pattern_expectancy	89.0	0.415	probe	AX	s622	False
345.357	0.5	345.356	0.5	BY	n/a	n/a	dot_pattern_expectancy	-1.0	n/a	cue	BY	s622	False
347.863	0.5	348.237	2.18	BY	1.0	71.0	dot_pattern_expectancy	71.0	0.374	probe	BY	s622	False
350.045	0.5	350.044	0.5	AX	n/a	n/a	dot_pattern_expectancy	-1.0	n/a	cue	AX	s622	False
352.554	0.5	353.064	1.5	AX	1.0	89.0	dot_pattern_expectancy	89.0	0.51	probe	AX	s622	False
354.056	0.5	354.055	0.5	AY	n/a	n/a	dot_pattern_expectancy	-1.0	n/a	cue	AY	s622	False
356.562	0.5	357.297	1.636	AY	1.0	71.0	dot_pattern_expectancy	71.0	0.735	probe	AY	s622	False
358.199	0.5	358.198	0.5	AX	n/a	n/a	dot_pattern_expectancy	-1.0	n/a	cue	AX	s622	False
360.706	0.5	361.316	1.636	AX	1.0	89.0	dot_pattern_expectancy	89.0	0.61	probe	AX	s622	False
372.858	0.5	372.857	0.5	AX	n/a	n/a	dot_pattern_expectancy	-1.0	n/a	cue	AX	s622	False
375.362	0.5	375.908	2.18	AX	1.0	89.0	dot_pattern_expectancy	89.0	0.546	probe	AX	s622	False
377.543	0.5	377.542	0.5	AY	n/a	n/a	dot_pattern_expectancy	-1.0	n/a	cue	AY	s622	False
380.052	0.5	380.573	2.316	AY	1.0	71.0	dot_pattern_expectancy	71.0	0.521	probe	AY	s622	False
382.37	0.5	382.369	0.5	AY	n/a	n/a	dot_pattern_expectancy	-1.0	n/a	cue	AY	s622	False
384.876	0.5	385.393	1.636	AY	1.0	71.0	dot_pattern_expectancy	71.0	0.517	probe	AY	s622	False
386.514	0.5	386.513	0.5	BX	n/a	n/a	dot_pattern_expectancy	-1.0	n/a	cue	BX	s622	False
389.02	0.5	389.559	1.908	BX	1.0	71.0	dot_pattern_expectancy	71.0	0.539	probe	BX	s622	False
390.93	0.5	390.929	0.5	AX	n/a	n/a	dot_pattern_expectancy	-1.0	n/a	cue	AX	s622	False
393.436	0.5	393.854	3.54	AX	1.0	89.0	dot_pattern_expectancy	89.0	0.418	probe	AX	s622	False
396.978	0.5	396.977	0.5	BX	n/a	n/a	dot_pattern_expectancy	-1.0	n/a	cue	BX	s622	False
399.484	0.5	399.919	1.636	BX	1.0	71.0	dot_pattern_expectancy	71.0	0.435	probe	BX	s622	False
401.122	0.5	401.121	0.5	BY	n/a	n/a	dot_pattern_expectancy	-1.0	n/a	cue	BY	s622	False
403.626	0.5	404.029	1.5	BY	1.0	71.0	dot_pattern_expectancy	71.0	0.403	probe	BY	s622	False
405.127	0.5	405.126	0.5	AX	n/a	n/a	dot_pattern_expectancy	-1.0	n/a	cue	AX	s622	False
407.636	0.5	408.051	1.5	AX	1.0	89.0	dot_pattern_expectancy	89.0	0.415	probe	AX	s622	False
409.138	0.5	409.137	0.5	AX	n/a	n/a	dot_pattern_expectancy	-1.0	n/a	cue	AX	s622	False
411.647	0.5	412.145	1.772	AX	1.0	89.0	dot_pattern_expectancy	89.0	0.498	probe	AX	s622	False
413.422	0.5	413.421	0.5	BY	n/a	n/a	dot_pattern_expectancy	-1.0	n/a	cue	BY	s622	False
415.927	0.5	416.282	2.452	BY	1.0	71.0	dot_pattern_expectancy	71.0	0.355	probe	BY	s622	False
418.381	0.5	418.38	0.5	AX	n/a	n/a	dot_pattern_expectancy	-1.0	n/a	cue	AX	s622	False
420.892	0.5	421.327	1.908	AX	1.0	89.0	dot_pattern_expectancy	89.0	0.435	probe	AX	s622	False
422.802	0.5	422.801	0.5	BX	n/a	n/a	dot_pattern_expectancy	-1.0	n/a	cue	BX	s622	False
425.309	0.5	426.101	1.636	BX	1.0	71.0	dot_pattern_expectancy	71.0	0.792	probe	BX	s622	False
426.946	0.5	426.945	0.5	AX	n/a	n/a	dot_pattern_expectancy	-1.0	n/a	cue	AX	s622	False
429.455	0.5	429.923	1.5	AX	1.0	89.0	dot_pattern_expectancy	89.0	0.468	probe	AX	s622	False
430.957	0.5	430.956	0.5	AX	n/a	n/a	dot_pattern_expectancy	-1.0	n/a	cue	AX	s622	False
433.463	0.5	433.95	1.636	AX	1.0	89.0	dot_pattern_expectancy	89.0	0.487	probe	AX	s622	False
435.101	0.5	435.1	0.5	AX	n/a	n/a	dot_pattern_expectancy	-1.0	n/a	cue	AX	s622	False
437.604	0.5	438.035	1.636	AX	1.0	89.0	dot_pattern_expectancy	89.0	0.431	probe	AX	s622	False
439.244	0.5	439.243	0.5	BY	n/a	n/a	dot_pattern_expectancy	-1.0	n/a	cue	BY	s622	False
441.751	0.5	442.154	2.452	BY	1.0	71.0	dot_pattern_expectancy	71.0	0.403	probe	BY	s622	False
444.205	0.5	444.204	0.5	AX	n/a	n/a	dot_pattern_expectancy	-1.0	n/a	cue	AX	s622	False
446.714	0.5	447.311	1.5	AX	1.0	89.0	dot_pattern_expectancy	89.0	0.597	probe	AX	s622	False
448.215	0.5	448.214	0.5	BY	n/a	n/a	dot_pattern_expectancy	-1.0	n/a	cue	BY	s622	False
450.724	0.5	451.141	1.5	BY	1.0	71.0	dot_pattern_expectancy	71.0	0.417	probe	BY	s622	False
452.226	0.5	452.225	0.5	AX	n/a	n/a	dot_pattern_expectancy	-1.0	n/a	cue	AX	s622	False
454.732	0.5	455.187	1.636	AX	1.0	89.0	dot_pattern_expectancy	89.0	0.455	probe	AX	s622	False
456.374	0.5	456.373	0.5	AX	n/a	n/a	dot_pattern_expectancy	-1.0	n/a	cue	AX	s622	False
458.876	0.5	459.385	1.636	AX	1.0	89.0	dot_pattern_expectancy	89.0	0.509	probe	AX	s622	False
460.518	0.5	460.517	0.5	AY	n/a	n/a	dot_pattern_expectancy	-1.0	n/a	cue	AY	s622	False
463.02	0.5	463.606	1.636	AY	1.0	71.0	dot_pattern_expectancy	71.0	0.586	probe	AY	s622	False
464.658	0.5	464.657	0.5	AX	n/a	n/a	dot_pattern_expectancy	-1.0	n/a	cue	AX	s622	False
467.162	0.5	467.739	1.5	AX	1.0	89.0	dot_pattern_expectancy	89.0	0.577	probe	AX	s622	False
468.663	0.5	468.662	0.5	AX	n/a	n/a	dot_pattern_expectancy	-1.0	n/a	cue	AX	s622	False
471.172	0.5	471.632	1.5	AX	1.0	89.0	dot_pattern_expectancy	89.0	0.46	probe	AX	s622	False
472.674	0.5	472.673	0.5	AX	n/a	n/a	dot_pattern_expectancy	-1.0	n/a	cue	AX	s622	False
475.182	0.5	475.769	1.772	AX	1.0	89.0	dot_pattern_expectancy	89.0	0.587	probe	AX	s622	False
476.957	0.5	476.956	0.5	AX	n/a	n/a	dot_pattern_expectancy	-1.0	n/a	cue	AX	s622	False
479.463	0.5	479.849	2.18	AX	1.0	89.0	dot_pattern_expectancy	89.0	0.386	probe	AX	s622	False
481.645	0.5	481.644	0.5	BX	n/a	n/a	dot_pattern_expectancy	-1.0	n/a	cue	BX	s622	False
484.148	0.5	484.472	1.772	BX	1.0	71.0	dot_pattern_expectancy	71.0	0.324	probe	BX	s622	False
485.922	0.5	485.921	0.5	BY	n/a	n/a	dot_pattern_expectancy	-1.0	n/a	cue	BY	s622	False
488.428	0.5	488.865	1.5	BY	1.0	71.0	dot_pattern_expectancy	71.0	0.437	probe	BY	s622	False
489.931	0.5	489.93	0.5	AX	n/a	n/a	dot_pattern_expectancy	-1.0	n/a	cue	AX	s622	False
492.442	0.5	492.993	1.5	AX	1.0	89.0	dot_pattern_expectancy	89.0	0.551	probe	AX	s622	False
493.943	0.5	493.942	0.5	AX	n/a	n/a	dot_pattern_expectancy	-1.0	n/a	cue	AX	s622	False
496.457	0.5	496.872	1.636	AX	1.0	89.0	dot_pattern_expectancy	89.0	0.415	probe	AX	s622	False
498.097	0.5	498.096	0.5	AY	n/a	n/a	dot_pattern_expectancy	-1.0	n/a	cue	AY	s622	False
500.6	0.5	501.245	2.18	AY	1.0	71.0	dot_pattern_expectancy	71.0	0.645	probe	AY	s622	False
502.786	0.5	502.785	0.5	AY	n/a	n/a	dot_pattern_expectancy	-1.0	n/a	cue	AY	s622	False
505.295	0.5	505.93	2.316	AY	1.0	71.0	dot_pattern_expectancy	71.0	0.635	probe	AY	s622	False
507.613	0.5	507.612	0.5	BX	n/a	n/a	dot_pattern_expectancy	-1.0	n/a	cue	BX	s622	False
510.119	0.5	510.487	1.636	BX	1.0	71.0	dot_pattern_expectancy	71.0	0.368	probe	BX	s622	False
511.757	0.5	511.756	0.5	BX	n/a	n/a	dot_pattern_expectancy	-1.0	n/a	cue	BX	s622	False
514.263	0.5	514.722	2.18	BX	1.0	71.0	dot_pattern_expectancy	71.0	0.459	probe	BX	s622	False
516.445	0.5	516.444	0.5	AY	n/a	n/a	dot_pattern_expectancy	-1.0	n/a	cue	AY	s622	False
518.954	0.5	519.433	2.044	AY	1.0	71.0	dot_pattern_expectancy	71.0	0.479	probe	AY	s622	False
520.999	0.5	520.998	0.5	AX	n/a	n/a	dot_pattern_expectancy	-1.0	n/a	cue	AX	s622	False
523.503	0.5	524.068	1.772	AX	1.0	89.0	dot_pattern_expectancy	89.0	0.565	probe	AX	s622	False
525.277	0.5	525.276	0.5	AX	n/a	n/a	dot_pattern_expectancy	-1.0	n/a	cue	AX	s622	False
527.785	0.5	528.303	1.5	AX	1.0	89.0	dot_pattern_expectancy	89.0	0.518	probe	AX	s622	False
529.287	0.5	529.286	0.5	AX	n/a	n/a	dot_pattern_expectancy	-1.0	n/a	cue	AX	s622	False
531.794	0.5	532.321	2.18	AX	1.0	89.0	dot_pattern_expectancy	89.0	0.527	probe	AX	s622	False
533.975	0.5	533.974	0.5	AY	n/a	n/a	dot_pattern_expectancy	-1.0	n/a	cue	AY	s622	False
536.482	0.5	536.997	2.452	AY	1.0	71.0	dot_pattern_expectancy	71.0	0.515	probe	AY	s622	False
538.936	0.5	538.935	0.5	AX	n/a	n/a	dot_pattern_expectancy	-1.0	n/a	cue	AX	s622	False
541.442	0.5	541.811	1.636	AX	1.0	89.0	dot_pattern_expectancy	89.0	0.369	probe	AX	s622	False
543.085	0.5	543.084	0.5	AX	n/a	n/a	dot_pattern_expectancy	-1.0	n/a	cue	AX	s622	False
545.59	0.5	546.294	1.908	AX	1.0	89.0	dot_pattern_expectancy	89.0	0.704	probe	AX	s622	False
558.015	0.5	558.014	0.5	AX	n/a	n/a	dot_pattern_expectancy	-1.0	n/a	cue	AX	s622	False
560.522	0.5	561.186	1.772	AX	1.0	89.0	dot_pattern_expectancy	89.0	0.664	probe	AX	s622	False
562.295	0.5	562.294	0.5	AX	n/a	n/a	dot_pattern_expectancy	-1.0	n/a	cue	AX	s622	False
564.804	0.5	565.156	1.5	AX	1.0	89.0	dot_pattern_expectancy	89.0	0.352	probe	AX	s622	False
566.306	0.5	566.305	0.5	AY	n/a	n/a	dot_pattern_expectancy	-1.0	n/a	cue	AY	s622	False
568.812	0.5	569.338	2.452	AY	1.0	71.0	dot_pattern_expectancy	71.0	0.526	probe	AY	s622	False
571.266	0.5	571.265	0.5	AY	n/a	n/a	dot_pattern_expectancy	-1.0	n/a	cue	AY	s622	False
573.775	0.5	574.304	1.772	AY	1.0	71.0	dot_pattern_expectancy	71.0	0.529	probe	AY	s622	False
575.549	0.5	575.548	0.5	AX	n/a	n/a	dot_pattern_expectancy	-1.0	n/a	cue	AX	s622	False
578.055	0.5	578.393	1.908	AX	1.0	89.0	dot_pattern_expectancy	89.0	0.338	probe	AX	s622	False
579.965	0.5	579.964	0.5	AX	n/a	n/a	dot_pattern_expectancy	-1.0	n/a	cue	AX	s622	False
582.471	0.5	582.914	1.908	AX	1.0	89.0	dot_pattern_expectancy	89.0	0.443	probe	AX	s622	False
584.381	0.5	584.38	0.5	AX	n/a	n/a	dot_pattern_expectancy	-1.0	n/a	cue	AX	s622	False
586.89	0.5	587.501	2.588	AX	1.0	89.0	dot_pattern_expectancy	89.0	0.611	probe	AX	s622	False
589.479	0.5	589.478	0.5	AY	n/a	n/a	dot_pattern_expectancy	-1.0	n/a	cue	AY	s622	False
591.986	0.5	592.622	1.5	AY	1.0	71.0	dot_pattern_expectancy	71.0	0.636	probe	AY	s622	False
593.49	0.5	593.489	0.5	BY	n/a	n/a	dot_pattern_expectancy	-1.0	n/a	cue	BY	s622	False
595.999	0.5	596.386	1.5	BY	1.0	71.0	dot_pattern_expectancy	71.0	0.387	probe	BY	s622	False
597.501	0.5	597.5	0.5	BY	n/a	n/a	dot_pattern_expectancy	-1.0	n/a	cue	BY	s622	False
600.01	0.5	600.365	1.5	BY	1.0	71.0	dot_pattern_expectancy	71.0	0.355	probe	BY	s622	False
601.511	0.5	601.51	0.5	AX	n/a	n/a	dot_pattern_expectancy	-1.0	n/a	cue	AX	s622	False
604.018	0.5	604.499	1.636	AX	1.0	89.0	dot_pattern_expectancy	89.0	0.481	probe	AX	s622	False
605.655	0.5	605.654	0.5	BX	n/a	n/a	dot_pattern_expectancy	-1.0	n/a	cue	BX	s622	False
608.164	0.5	608.522	2.044	BX	1.0	71.0	dot_pattern_expectancy	71.0	0.358	probe	BX	s622	False
610.21	0.5	610.209	0.5	AX	n/a	n/a	dot_pattern_expectancy	-1.0	n/a	cue	AX	s622	False
612.719	0.5	613.23	1.772	AX	1.0	89.0	dot_pattern_expectancy	89.0	0.511	probe	AX	s622	False
614.493	0.5	614.492	0.5	BX	n/a	n/a	dot_pattern_expectancy	-1.0	n/a	cue	BX	s622	False
617.002	0.5	617.303	2.588	BX	1.0	71.0	dot_pattern_expectancy	71.0	0.301	probe	BX	s622	False
619.591	0.5	619.59	0.5	AY	n/a	n/a	dot_pattern_expectancy	-1.0	n/a	cue	AY	s622	False
622.1	0.5	622.836	1.5	AY	1.0	71.0	dot_pattern_expectancy	71.0	0.736	probe	AY	s622	False
623.602	0.5	623.601	0.5	AX	n/a	n/a	dot_pattern_expectancy	-1.0	n/a	cue	AX	s622	False
626.108	0.5	626.68	2.452	AX	1.0	89.0	dot_pattern_expectancy	89.0	0.572	probe	AX	s622	False
628.562	0.5	628.561	0.5	BY	n/a	n/a	dot_pattern_expectancy	-1.0	n/a	cue	BY	s622	False
631.073	0.5	631.449	1.636	BY	1.0	71.0	dot_pattern_expectancy	71.0	0.376	probe	BY	s622	False
632.715	0.5	632.714	0.5	AX	n/a	n/a	dot_pattern_expectancy	-1.0	n/a	cue	AX	s622	False
635.221	0.5	635.81	1.636	AX	1.0	89.0	dot_pattern_expectancy	89.0	0.589	probe	AX	s622	False
636.861	0.5	636.86	0.5	AX	n/a	n/a	dot_pattern_expectancy	-1.0	n/a	cue	AX	s622	False
639.37	0.5	639.815	1.5	AX	1.0	89.0	dot_pattern_expectancy	89.0	0.445	probe	AX	s622	False
640.871	0.5	640.87	0.5	BY	n/a	n/a	dot_pattern_expectancy	-1.0	n/a	cue	BY	s622	False
643.383	0.5	643.761	1.636	BY	1.0	71.0	dot_pattern_expectancy	71.0	0.378	probe	BY	s622	False
645.021	0.5	645.02	0.5	AX	n/a	n/a	dot_pattern_expectancy	-1.0	n/a	cue	AX	s622	False
647.524	0.5	648.102	1.5	AX	1.0	89.0	dot_pattern_expectancy	89.0	0.578	probe	AX	s622	False
649.026	0.5	649.025	0.5	AY	n/a	n/a	dot_pattern_expectancy	-1.0	n/a	cue	AY	s622	False
651.532	0.5	651.998	2.18	AY	1.0	71.0	dot_pattern_expectancy	71.0	0.466	probe	AY	s622	False
653.714	0.5	653.713	0.5	AX	n/a	n/a	dot_pattern_expectancy	-1.0	n/a	cue	AX	s622	False
656.223	0.5	656.701	1.5	AX	1.0	89.0	dot_pattern_expectancy	89.0	0.478	probe	AX	s622	False
657.725	0.5	657.724	0.5	AX	n/a	n/a	dot_pattern_expectancy	-1.0	n/a	cue	AX	s622	False
660.231	0.5	660.641	1.908	AX	1.0	89.0	dot_pattern_expectancy	89.0	0.41	probe	AX	s622	False
662.141	0.5	662.14	0.5	BY	n/a	n/a	dot_pattern_expectancy	-1.0	n/a	cue	BY	s622	False
664.647	0.5	664.988	1.636	BY	1.0	71.0	dot_pattern_expectancy	71.0	0.341	probe	BY	s622	False
666.285	0.5	666.284	0.5	BY	n/a	n/a	dot_pattern_expectancy	-1.0	n/a	cue	BY	s622	False
668.791	0.5	669.218	1.636	BY	1.0	71.0	dot_pattern_expectancy	71.0	0.427	probe	BY	s622	False
670.429	0.5	670.428	0.5	AX	n/a	n/a	dot_pattern_expectancy	-1.0	n/a	cue	AX	s622	False
672.935	0.5	673.416	1.636	AX	1.0	89.0	dot_pattern_expectancy	89.0	0.481	probe	AX	s622	False
674.573	0.5	674.572	0.5	AX	n/a	n/a	dot_pattern_expectancy	-1.0	n/a	cue	AX	s622	False
677.082	0.5	677.703	1.5	AX	1.0	89.0	dot_pattern_expectancy	89.0	0.621	probe	AX	s622	False
678.583	0.5	678.582	0.5	BY	n/a	n/a	dot_pattern_expectancy	-1.0	n/a	cue	BY	s622	False
681.092	0.5	681.487	2.044	BY	1.0	71.0	dot_pattern_expectancy	71.0	0.395	probe	BY	s622	False
683.138	0.5	683.137	0.5	AY	n/a	n/a	dot_pattern_expectancy	-1.0	n/a	cue	AY	s622	False
685.648	0.5	686.227	2.18	AY	1.0	71.0	dot_pattern_expectancy	71.0	0.579	probe	AY	s622	False
687.831	0.5	687.83	0.5	AY	n/a	n/a	dot_pattern_expectancy	-1.0	n/a	cue	AY	s622	False
690.338	0.5	690.918	1.636	AY	1.0	71.0	dot_pattern_expectancy	71.0	0.58	probe	AY	s622	False
691.975	0.5	691.974	0.5	AY	n/a	n/a	dot_pattern_expectancy	-1.0	n/a	cue	AY	s622	False
694.486	0.5	695.022	1.772	AY	1.0	71.0	dot_pattern_expectancy	71.0	0.536	probe	AY	s622	False
696.263	0.5	696.262	0.5	BY	n/a	n/a	dot_pattern_expectancy	-1.0	n/a	cue	BY	s622	False
698.772	0.5	698.771	1.5	BY	0.0	71.0	dot_pattern_expectancy	-1.0	n/a	probe	BY	s622	False
700.278	0.5	700.277	0.5	BX	n/a	n/a	dot_pattern_expectancy	-1.0	n/a	cue	BX	s622	False
702.784	0.5	703.413	1.908	BX	1.0	71.0	dot_pattern_expectancy	71.0	0.629	probe	BX	s622	False
704.697	0.5	704.696	0.5	AX	n/a	n/a	dot_pattern_expectancy	-1.0	n/a	cue	AX	s622	False
707.203	0.5	707.669	2.044	AX	1.0	89.0	dot_pattern_expectancy	89.0	0.466	probe	AX	s622	False
709.25	0.5	709.249	0.5	AX	n/a	n/a	dot_pattern_expectancy	-1.0	n/a	cue	AX	s622	False
711.756	0.5	712.263	1.636	AX	1.0	89.0	dot_pattern_expectancy	89.0	0.507	probe	AX	s622	False
713.394	0.5	713.393	0.5	AX	n/a	n/a	dot_pattern_expectancy	-1.0	n/a	cue	AX	s622	False
715.903	0.5	716.771	1.772	AX	1.0	89.0	dot_pattern_expectancy	89.0	0.868	probe	AX	s622	False
717.677	0.5	717.676	0.5	AX	n/a	n/a	dot_pattern_expectancy	-1.0	n/a	cue	AX	s622	False
720.183	0.5	720.676	1.636	AX	1.0	89.0	dot_pattern_expectancy	89.0	0.493	probe	AX	s622	False
721.821	0.5	721.82	0.5	BX	n/a	n/a	dot_pattern_expectancy	-1.0	n/a	cue	BX	s622	False
724.33	0.5	725.364	1.772	BX	0.0	71.0	dot_pattern_expectancy	89.0	1.034	probe	BX	s622	False
726.103	0.5	726.102	0.5	AX	n/a	n/a	dot_pattern_expectancy	-1.0	n/a	cue	AX	s622	False
728.612	0.5	729.13	1.5	AX	1.0	89.0	dot_pattern_expectancy	89.0	0.518	probe	AX	s622	False
