onset	duration	movement_onset	CTI	block_duration	correct	correct_response	cue	cue_switch	experiment_exp_id	key_press	response_time	stim_color	stim_number	switch_type	task	task_switch	trial_id	trial_type	worker_id	first_trial_of_block	junk
4.417	1.0	5.719	0.9	3.224	True	89.0	Color	stay	twobytwo	89.0	0.402	blue	6.0	cue_stay	color	stay	stim	poldrack-single-stim	s622	1	False
7.746	1.0	8.826	0.1	2.408	True	89.0	Magnitude	n/a	twobytwo	89.0	0.98	orange	1.0	task_switch	magnitude	switch	stim	poldrack-single-stim	s622	0	False
10.261	1.0	11.299	0.1	2.816	True	89.0	Orange-Blue	n/a	twobytwo	89.0	0.938	blue	4.0	task_switch	color	switch	stim	poldrack-single-stim	s622	0	False
13.987	1.0	15.38	0.9	2.408	True	89.0	Magnitude	n/a	twobytwo	89.0	0.493	blue	1.0	task_switch	magnitude	switch	stim	poldrack-single-stim	s622	0	False
16.499	1.0	17.262	0.1	2.136	True	71.0	Orange-Blue	n/a	twobytwo	71.0	0.663	orange	6.0	task_switch	color	switch	stim	poldrack-single-stim	s622	0	False
19.544	1.0	21.042	0.9	2.136	True	71.0	Orange-Blue	stay	twobytwo	71.0	0.598	orange	3.0	cue_stay	color	stay	stim	poldrack-single-stim	s622	0	False
21.787	1.0	22.845	0.1	2.0	True	89.0	Color	switch	twobytwo	89.0	0.958	blue	6.0	cue_switch	color	stay	stim	poldrack-single-stim	s622	0	False
24.694	1.0	26.812	0.9	2.0	True	89.0	Orange-Blue	switch	twobytwo	89.0	1.218	blue	9.0	cue_switch	color	stay	stim	poldrack-single-stim	s622	0	False
26.798	1.0	28.409	0.1	2.272	True	71.0	High-Low	n/a	twobytwo	71.0	1.511	orange	9.0	task_switch	magnitude	switch	stim	poldrack-single-stim	s622	0	False
29.176	1.0	30.083	0.1	2.408	True	71.0	Orange-Blue	n/a	twobytwo	71.0	0.807	orange	4.0	task_switch	color	switch	stim	poldrack-single-stim	s622	0	False
32.491	1.0	33.882	0.9	2.0	True	89.0	Magnitude	n/a	twobytwo	89.0	0.491	blue	3.0	task_switch	magnitude	switch	stim	poldrack-single-stim	s622	0	False
35.395	1.0	36.968	0.9	2.136	True	89.0	High-Low	switch	twobytwo	89.0	0.673	orange	1.0	cue_switch	magnitude	stay	stim	poldrack-single-stim	s622	0	False
38.438	1.0	39.839	0.9	2.0	True	89.0	Orange-Blue	n/a	twobytwo	89.0	0.501	blue	4.0	task_switch	color	switch	stim	poldrack-single-stim	s622	0	False
40.541	1.0	42.134	0.1	2.408	True	71.0	High-Low	n/a	twobytwo	71.0	1.493	blue	6.0	task_switch	magnitude	switch	stim	poldrack-single-stim	s622	0	False
43.857	1.0	45.443	0.9	2.272	True	71.0	Magnitude	switch	twobytwo	71.0	0.686	blue	9.0	cue_switch	magnitude	stay	stim	poldrack-single-stim	s622	0	False
47.036	1.0	48.368	0.9	2.0	True	89.0	Color	n/a	twobytwo	89.0	0.432	blue	6.0	task_switch	color	switch	stim	poldrack-single-stim	s622	0	False
49.142	1.0	50.538	0.1	2.272	True	89.0	Orange-Blue	switch	twobytwo	89.0	1.296	blue	7.0	cue_switch	color	stay	stim	poldrack-single-stim	s622	0	False
52.321	1.0	53.935	0.9	2.0	True	71.0	High-Low	n/a	twobytwo	71.0	0.714	blue	7.0	task_switch	magnitude	switch	stim	poldrack-single-stim	s622	0	False
54.428	1.0	55.541	0.1	2.0	True	71.0	Orange-Blue	n/a	twobytwo	71.0	1.013	orange	9.0	task_switch	color	switch	stim	poldrack-single-stim	s622	0	False
56.535	1.0	57.324	0.1	2.272	True	89.0	Orange-Blue	stay	twobytwo	89.0	0.689	blue	8.0	cue_stay	color	stay	stim	poldrack-single-stim	s622	0	False
58.913	1.0	59.826	0.1	2.136	True	71.0	Magnitude	n/a	twobytwo	71.0	0.813	blue	7.0	task_switch	magnitude	switch	stim	poldrack-single-stim	s622	0	False
61.159	1.0	62.651	0.1	2.0	True	71.0	Color	n/a	twobytwo	71.0	1.392	orange	4.0	task_switch	color	switch	stim	poldrack-single-stim	s622	0	False
64.066	1.0	65.389	0.9	2.0	True	89.0	Color	stay	twobytwo	89.0	0.423	blue	8.0	cue_stay	color	stay	stim	poldrack-single-stim	s622	0	False
66.973	1.0	68.408	0.9	2.0	True	71.0	Magnitude	n/a	twobytwo	71.0	0.535	orange	6.0	task_switch	magnitude	switch	stim	poldrack-single-stim	s622	0	False
69.079	1.0	71.057	0.1	2.0	True	71.0	High-Low	switch	twobytwo	71.0	1.878	blue	7.0	cue_switch	magnitude	stay	stim	poldrack-single-stim	s622	0	False
71.988	1.0	73.374	0.9	2.0	True	89.0	High-Low	stay	twobytwo	89.0	0.486	blue	1.0	cue_stay	magnitude	stay	stim	poldrack-single-stim	s622	0	False
74.895	1.0	76.503	0.9	2.136	True	89.0	Color	n/a	twobytwo	89.0	0.708	blue	8.0	task_switch	color	switch	stim	poldrack-single-stim	s622	0	False
77.144	1.0	77.997	0.1	2.0	True	71.0	Color	stay	twobytwo	71.0	0.753	orange	2.0	cue_stay	color	stay	stim	poldrack-single-stim	s622	0	False
80.05	1.0	82.142	0.9	2.0	False	71.0	High-Low	n/a	twobytwo	89.0	1.192	orange	6.0	task_switch	magnitude	switch	stim	poldrack-single-stim	s622	0	False
82.154	1.0	83.205	0.1	2.136	True	71.0	Magnitude	switch	twobytwo	71.0	0.951	orange	9.0	cue_switch	magnitude	stay	stim	poldrack-single-stim	s622	0	False
84.397	1.0	85.328	0.1	2.0	True	89.0	High-Low	switch	twobytwo	89.0	0.831	orange	4.0	cue_switch	magnitude	stay	stim	poldrack-single-stim	s622	0	False
86.506	1.0	87.432	0.1	2.136	True	71.0	Orange-Blue	n/a	twobytwo	71.0	0.826	orange	2.0	task_switch	color	switch	stim	poldrack-single-stim	s622	0	False
89.547	1.0	91.115	0.9	2.68	True	71.0	High-Low	n/a	twobytwo	71.0	0.668	blue	8.0	task_switch	magnitude	switch	stim	poldrack-single-stim	s622	0	False
93.133	1.0	94.598	0.9	2.272	True	71.0	High-Low	stay	twobytwo	71.0	0.565	blue	8.0	cue_stay	magnitude	stay	stim	poldrack-single-stim	s622	0	False
96.31	1.0	97.768	0.9	2.136	True	89.0	High-Low	stay	twobytwo	89.0	0.558	orange	4.0	cue_stay	magnitude	stay	stim	poldrack-single-stim	s622	0	False
99.349	1.0	100.781	0.9	2.0	True	71.0	Color	n/a	twobytwo	71.0	0.532	orange	2.0	task_switch	color	switch	stim	poldrack-single-stim	s622	0	False
102.257	1.0	103.829	0.9	2.136	True	71.0	High-Low	n/a	twobytwo	71.0	0.672	blue	9.0	task_switch	magnitude	switch	stim	poldrack-single-stim	s622	0	False
105.297	1.0	106.644	0.9	2.68	True	89.0	Orange-Blue	n/a	twobytwo	89.0	0.447	blue	6.0	task_switch	color	switch	stim	poldrack-single-stim	s622	0	False
108.083	1.0	109.184	0.1	2.272	True	71.0	High-Low	n/a	twobytwo	71.0	1.001	orange	9.0	task_switch	magnitude	switch	stim	poldrack-single-stim	s622	0	False
111.262	1.0	112.817	0.9	2.0	True	89.0	Magnitude	switch	twobytwo	89.0	0.655	orange	4.0	cue_switch	magnitude	stay	stim	poldrack-single-stim	s622	0	False
114.169	1.0	115.533	0.9	2.0	True	71.0	Color	n/a	twobytwo	71.0	0.464	orange	6.0	task_switch	color	switch	stim	poldrack-single-stim	s622	0	False
117.078	1.0	118.677	0.9	2.136	True	89.0	Color	stay	twobytwo	89.0	0.699	blue	3.0	cue_stay	color	stay	stim	poldrack-single-stim	s622	0	False
120.121	1.0	121.525	0.9	2.0	True	71.0	Color	stay	twobytwo	71.0	0.504	orange	9.0	cue_stay	color	stay	stim	poldrack-single-stim	s622	0	False
122.228	1.0	123.519	0.1	2.0	True	89.0	Color	stay	twobytwo	89.0	1.191	blue	9.0	cue_stay	color	stay	stim	poldrack-single-stim	s622	0	False
125.135	1.0	126.743	0.9	2.0	True	71.0	Orange-Blue	switch	twobytwo	71.0	0.708	orange	1.0	cue_switch	color	stay	stim	poldrack-single-stim	s622	0	False
128.041	1.0	129.501	0.9	2.272	True	89.0	Magnitude	n/a	twobytwo	89.0	0.56	blue	2.0	task_switch	magnitude	switch	stim	poldrack-single-stim	s622	0	False
131.218	1.0	133.047	0.9	2.408	True	71.0	Color	n/a	twobytwo	71.0	0.929	orange	1.0	task_switch	color	switch	stim	poldrack-single-stim	s622	0	False
134.532	1.0	136.013	0.9	2.0	True	71.0	Color	stay	twobytwo	71.0	0.581	orange	7.0	cue_stay	color	stay	stim	poldrack-single-stim	s622	0	False
137.436	1.0	138.792	0.9	2.0	True	89.0	Color	stay	twobytwo	89.0	0.456	blue	9.0	cue_stay	color	stay	stim	poldrack-single-stim	s622	0	False
139.546	1.0	140.418	0.1	2.0	True	71.0	High-Low	n/a	twobytwo	71.0	0.772	blue	8.0	task_switch	magnitude	switch	stim	poldrack-single-stim	s622	0	False
141.65	1.0	142.466	0.1	2.272	True	71.0	Color	n/a	twobytwo	71.0	0.716	orange	1.0	task_switch	color	switch	stim	poldrack-single-stim	s622	0	False
144.029	1.0	144.82	0.1	2.136	True	71.0	Color	stay	twobytwo	71.0	0.691	orange	7.0	cue_stay	color	stay	stim	poldrack-single-stim	s622	0	False
147.071	1.0	148.769	0.9	2.0	True	71.0	High-Low	n/a	twobytwo	71.0	0.798	orange	6.0	task_switch	magnitude	switch	stim	poldrack-single-stim	s622	0	False
149.978	1.0	151.413	0.9	2.544	True	71.0	Magnitude	switch	twobytwo	71.0	0.535	blue	9.0	cue_switch	magnitude	stay	stim	poldrack-single-stim	s622	0	False
153.429	1.0	154.794	0.9	2.272	True	71.0	Color	n/a	twobytwo	71.0	0.465	orange	6.0	task_switch	color	switch	stim	poldrack-single-stim	s622	0	False
155.81	1.0	156.51	0.1	2.272	True	89.0	Color	stay	twobytwo	89.0	0.6	blue	4.0	cue_stay	color	stay	stim	poldrack-single-stim	s622	0	False
158.192	1.0	159.185	0.1	2.0	True	71.0	Orange-Blue	switch	twobytwo	71.0	0.893	orange	3.0	cue_switch	color	stay	stim	poldrack-single-stim	s622	0	False
160.299	1.0	160.8	0.1	2.0	True	71.0	Orange-Blue	stay	twobytwo	71.0	0.401	orange	9.0	cue_stay	color	stay	stim	poldrack-single-stim	s622	0	False
163.203	1.0	164.675	0.9	2.136	True	89.0	High-Low	n/a	twobytwo	89.0	0.572	blue	2.0	task_switch	magnitude	switch	stim	poldrack-single-stim	s622	0	False
165.446	1.0	166.714	0.1	2.0	True	89.0	Orange-Blue	n/a	twobytwo	89.0	1.168	blue	2.0	task_switch	color	switch	stim	poldrack-single-stim	s622	0	False
167.55	1.0	168.808	0.1	2.136	True	71.0	Color	switch	twobytwo	71.0	1.158	orange	4.0	cue_switch	color	stay	stim	poldrack-single-stim	s622	0	False
170.593	1.0	172.212	0.9	2.272	True	71.0	High-Low	n/a	twobytwo	71.0	0.719	orange	8.0	task_switch	magnitude	switch	stim	poldrack-single-stim	s622	0	False
172.969	1.0	174.19	0.1	2.136	True	71.0	Orange-Blue	n/a	twobytwo	71.0	1.121	orange	7.0	task_switch	color	switch	stim	poldrack-single-stim	s622	0	False
176.011	1.0	177.411	0.9	2.272	True	89.0	Orange-Blue	stay	twobytwo	89.0	0.5	blue	3.0	cue_stay	color	stay	stim	poldrack-single-stim	s622	0	False
178.39	1.0	179.854	0.1	2.0	True	89.0	High-Low	n/a	twobytwo	89.0	1.364	orange	4.0	task_switch	magnitude	switch	stim	poldrack-single-stim	s622	0	False
180.496	1.0	181.302	0.1	2.816	True	89.0	High-Low	stay	twobytwo	89.0	0.706	orange	4.0	cue_stay	magnitude	stay	stim	poldrack-single-stim	s622	0	False
183.417	1.0	184.55	0.1	2.408	True	71.0	Magnitude	switch	twobytwo	71.0	1.033	orange	8.0	cue_switch	magnitude	stay	stim	poldrack-single-stim	s622	0	False
185.932	1.0	186.663	0.1	2.0	True	89.0	Magnitude	stay	twobytwo	89.0	0.631	orange	3.0	cue_stay	magnitude	stay	stim	poldrack-single-stim	s622	0	False
188.038	1.0	188.957	0.1	2.544	True	89.0	Magnitude	stay	twobytwo	89.0	0.819	blue	3.0	cue_stay	magnitude	stay	stim	poldrack-single-stim	s622	0	False
191.486	1.0	192.945	0.9	2.136	True	89.0	Orange-Blue	n/a	twobytwo	89.0	0.559	blue	4.0	task_switch	color	switch	stim	poldrack-single-stim	s622	0	False
193.729	1.0	194.727	0.1	2.0	True	71.0	Magnitude	n/a	twobytwo	71.0	0.898	blue	7.0	task_switch	magnitude	switch	stim	poldrack-single-stim	s622	0	False
195.836	1.0	197.178	0.1	2.0	True	89.0	Magnitude	stay	twobytwo	89.0	1.242	orange	2.0	cue_stay	magnitude	stay	stim	poldrack-single-stim	s622	0	False
198.74	1.0	200.143	0.9	2.136	True	89.0	High-Low	switch	twobytwo	89.0	0.503	blue	1.0	cue_switch	magnitude	stay	stim	poldrack-single-stim	s622	0	False
201.78	1.0	203.347	0.9	2.136	True	89.0	High-Low	stay	twobytwo	89.0	0.667	orange	4.0	cue_stay	magnitude	stay	stim	poldrack-single-stim	s622	0	False
204.023	1.0	204.886	0.1	2.272	True	71.0	Orange-Blue	n/a	twobytwo	71.0	0.763	orange	8.0	task_switch	color	switch	stim	poldrack-single-stim	s622	0	False
206.399	1.0	207.353	0.1	3.224	True	71.0	Color	switch	twobytwo	71.0	0.854	orange	4.0	cue_switch	color	stay	stim	poldrack-single-stim	s622	0	False
210.53	1.0	211.91	0.9	2.0	True	89.0	Orange-Blue	switch	twobytwo	89.0	0.48	blue	7.0	cue_switch	color	stay	stim	poldrack-single-stim	s622	0	False
212.636	1.0	213.581	0.1	2.0	True	89.0	Magnitude	n/a	twobytwo	89.0	0.845	orange	2.0	task_switch	magnitude	switch	stim	poldrack-single-stim	s622	0	False
215.543	1.0	216.918	0.9	2.272	True	89.0	Color	n/a	twobytwo	89.0	0.475	blue	3.0	task_switch	color	switch	stim	poldrack-single-stim	s622	0	False
217.92	1.0	219.25	0.1	2.136	True	89.0	Magnitude	n/a	twobytwo	89.0	1.23	orange	2.0	task_switch	magnitude	switch	stim	poldrack-single-stim	s622	0	False
234.478	1.0	236.049	0.9	2.0	True	89.0	Color	stay	twobytwo	89.0	0.671	blue	6.0	cue_stay	color	stay	stim	poldrack-single-stim	s622	1	False
236.584	1.0	237.756	0.1	2.0	True	89.0	High-Low	n/a	twobytwo	89.0	1.072	orange	1.0	task_switch	magnitude	switch	stim	poldrack-single-stim	s622	0	False
238.691	1.0	239.395	0.1	2.0	True	89.0	Color	n/a	twobytwo	89.0	0.604	blue	4.0	task_switch	color	switch	stim	poldrack-single-stim	s622	0	False
241.595	1.0	243.039	0.9	2.68	True	89.0	Magnitude	n/a	twobytwo	89.0	0.544	blue	1.0	task_switch	magnitude	switch	stim	poldrack-single-stim	s622	0	False
244.382	1.0	245.613	0.1	2.0	True	71.0	Orange-Blue	n/a	twobytwo	71.0	1.131	orange	6.0	task_switch	color	switch	stim	poldrack-single-stim	s622	0	False
247.286	1.0	248.667	0.9	2.272	True	71.0	Orange-Blue	stay	twobytwo	71.0	0.481	orange	3.0	cue_stay	color	stay	stim	poldrack-single-stim	s622	0	False
249.667	1.0	250.472	0.1	2.0	True	89.0	Color	switch	twobytwo	89.0	0.705	blue	6.0	cue_switch	color	stay	stim	poldrack-single-stim	s622	0	False
252.574	1.0	254.256	0.9	2.272	True	89.0	Orange-Blue	switch	twobytwo	89.0	0.782	blue	9.0	cue_switch	color	stay	stim	poldrack-single-stim	s622	0	False
254.953	1.0	256.367	0.1	2.952	True	71.0	High-Low	n/a	twobytwo	71.0	1.314	orange	9.0	task_switch	magnitude	switch	stim	poldrack-single-stim	s622	0	False
258.014	1.0	259.342	0.1	2.0	True	71.0	Color	n/a	twobytwo	71.0	1.228	orange	4.0	task_switch	color	switch	stim	poldrack-single-stim	s622	0	False
260.921	1.0	262.277	0.9	2.0	True	89.0	Magnitude	n/a	twobytwo	89.0	0.456	blue	3.0	task_switch	magnitude	switch	stim	poldrack-single-stim	s622	0	False
263.828	1.0	265.274	0.9	2.0	True	89.0	High-Low	switch	twobytwo	89.0	0.546	orange	1.0	cue_switch	magnitude	stay	stim	poldrack-single-stim	s622	0	False
266.735	1.0	268.22	0.9	2.0	True	89.0	Color	n/a	twobytwo	89.0	0.585	blue	4.0	task_switch	color	switch	stim	poldrack-single-stim	s622	0	False
268.839	1.0	269.921	0.1	2.136	True	71.0	High-Low	n/a	twobytwo	71.0	0.982	blue	6.0	task_switch	magnitude	switch	stim	poldrack-single-stim	s622	0	False
271.882	1.0	273.227	0.9	2.0	True	71.0	Magnitude	switch	twobytwo	71.0	0.445	blue	9.0	cue_switch	magnitude	stay	stim	poldrack-single-stim	s622	0	False
274.786	1.0	276.329	0.9	2.0	True	89.0	Orange-Blue	n/a	twobytwo	89.0	0.643	blue	6.0	task_switch	color	switch	stim	poldrack-single-stim	s622	0	False
276.895	1.0	278.461	0.1	2.0	True	89.0	Color	switch	twobytwo	89.0	1.466	blue	7.0	cue_switch	color	stay	stim	poldrack-single-stim	s622	0	False
279.802	1.0	281.534	0.9	2.272	True	71.0	Magnitude	n/a	twobytwo	71.0	0.832	blue	7.0	task_switch	magnitude	switch	stim	poldrack-single-stim	s622	0	False
282.178	1.0	282.886	0.1	2.136	True	71.0	Orange-Blue	n/a	twobytwo	71.0	0.608	orange	9.0	task_switch	color	switch	stim	poldrack-single-stim	s622	0	False
284.421	1.0	286.086	0.1	2.0	True	89.0	Orange-Blue	stay	twobytwo	89.0	1.565	blue	8.0	cue_stay	color	stay	stim	poldrack-single-stim	s622	0	False
286.525	1.0	287.427	0.1	2.136	True	71.0	Magnitude	n/a	twobytwo	71.0	0.802	blue	7.0	task_switch	magnitude	switch	stim	poldrack-single-stim	s622	0	False
288.768	1.0	289.556	0.1	2.816	True	71.0	Orange-Blue	n/a	twobytwo	71.0	0.688	orange	4.0	task_switch	color	switch	stim	poldrack-single-stim	s622	0	False
292.488	1.0	294.038	0.9	2.408	True	89.0	Orange-Blue	stay	twobytwo	89.0	0.65	blue	8.0	cue_stay	color	stay	stim	poldrack-single-stim	s622	0	False
295.802	1.0	297.573	0.9	2.0	True	71.0	Magnitude	n/a	twobytwo	71.0	0.871	orange	6.0	task_switch	magnitude	switch	stim	poldrack-single-stim	s622	0	False
297.912	1.0	298.975	0.1	2.136	True	71.0	High-Low	switch	twobytwo	71.0	0.963	blue	7.0	cue_switch	magnitude	stay	stim	poldrack-single-stim	s622	0	False
300.952	1.0	302.409	0.9	2.136	True	89.0	High-Low	stay	twobytwo	89.0	0.557	blue	1.0	cue_stay	magnitude	stay	stim	poldrack-single-stim	s622	0	False
303.992	1.0	305.52	0.9	2.136	True	89.0	Color	n/a	twobytwo	89.0	0.628	blue	8.0	task_switch	color	switch	stim	poldrack-single-stim	s622	0	False
306.235	1.0	307.087	0.1	2.544	True	71.0	Color	stay	twobytwo	71.0	0.752	orange	2.0	cue_stay	color	stay	stim	poldrack-single-stim	s622	0	False
309.683	1.0	311.146	0.9	2.136	True	71.0	High-Low	n/a	twobytwo	71.0	0.563	orange	6.0	task_switch	magnitude	switch	stim	poldrack-single-stim	s622	0	False
311.926	1.0	312.852	0.1	2.0	True	71.0	Magnitude	switch	twobytwo	71.0	0.826	orange	9.0	cue_switch	magnitude	stay	stim	poldrack-single-stim	s622	0	False
314.032	1.0	314.834	0.1	2.0	True	89.0	High-Low	switch	twobytwo	89.0	0.702	orange	4.0	cue_switch	magnitude	stay	stim	poldrack-single-stim	s622	0	False
316.139	1.0	316.901	0.1	2.0	False	71.0	Color	n/a	twobytwo	89.0	0.662	orange	2.0	task_switch	color	switch	stim	poldrack-single-stim	s622	0	False
319.046	1.0	320.735	0.9	2.0	True	71.0	Magnitude	n/a	twobytwo	71.0	0.789	blue	8.0	task_switch	magnitude	switch	stim	poldrack-single-stim	s622	0	False
321.95	1.0	323.404	0.9	2.136	True	71.0	Magnitude	stay	twobytwo	71.0	0.554	blue	8.0	cue_stay	magnitude	stay	stim	poldrack-single-stim	s622	0	False
324.996	1.0	326.478	0.9	2.0	True	89.0	Magnitude	stay	twobytwo	89.0	0.582	orange	4.0	cue_stay	magnitude	stay	stim	poldrack-single-stim	s622	0	False
327.905	1.0	329.311	0.9	2.0	True	71.0	Orange-Blue	n/a	twobytwo	71.0	0.506	orange	2.0	task_switch	color	switch	stim	poldrack-single-stim	s622	0	False
330.812	1.0	332.302	0.9	2.0	True	71.0	High-Low	n/a	twobytwo	71.0	0.59	blue	9.0	task_switch	magnitude	switch	stim	poldrack-single-stim	s622	0	False
333.716	1.0	335.425	0.9	2.136	True	89.0	Color	n/a	twobytwo	89.0	0.809	blue	6.0	task_switch	color	switch	stim	poldrack-single-stim	s622	0	False
335.956	1.0	337.129	0.1	2.136	True	71.0	High-Low	n/a	twobytwo	71.0	1.073	orange	9.0	task_switch	magnitude	switch	stim	poldrack-single-stim	s622	0	False
338.996	1.0	340.365	0.9	2.136	True	89.0	Magnitude	switch	twobytwo	89.0	0.469	orange	4.0	cue_switch	magnitude	stay	stim	poldrack-single-stim	s622	0	False
342.042	1.0	343.457	0.9	2.136	True	71.0	Color	n/a	twobytwo	71.0	0.515	orange	6.0	task_switch	color	switch	stim	poldrack-single-stim	s622	0	False
345.082	1.0	346.372	0.9	2.68	True	89.0	Color	stay	twobytwo	89.0	0.39	blue	3.0	cue_stay	color	stay	stim	poldrack-single-stim	s622	0	False
348.666	1.0	350.034	0.9	2.544	True	71.0	Color	stay	twobytwo	71.0	0.468	orange	9.0	cue_stay	color	stay	stim	poldrack-single-stim	s622	0	False
351.314	1.0	352.173	0.1	2.272	True	89.0	Color	stay	twobytwo	89.0	0.759	blue	9.0	cue_stay	color	stay	stim	poldrack-single-stim	s622	0	False
354.493	1.0	356.102	0.9	2.272	True	71.0	Orange-Blue	switch	twobytwo	71.0	0.709	orange	1.0	cue_switch	color	stay	stim	poldrack-single-stim	s622	0	False
357.674	1.0	359.018	0.9	2.408	True	89.0	High-Low	n/a	twobytwo	89.0	0.444	blue	2.0	task_switch	magnitude	switch	stim	poldrack-single-stim	s622	0	False
360.985	1.0	362.415	0.9	2.136	False	71.0	Orange-Blue	n/a	twobytwo	89.0	0.53	orange	1.0	task_switch	color	switch	stim	poldrack-single-stim	s622	0	False
364.027	1.0	365.532	0.9	2.272	True	71.0	Orange-Blue	stay	twobytwo	71.0	0.605	orange	7.0	cue_stay	color	stay	stim	poldrack-single-stim	s622	0	False
367.202	1.0	368.835	0.9	2.0	True	89.0	Orange-Blue	stay	twobytwo	89.0	0.733	blue	9.0	cue_stay	color	stay	stim	poldrack-single-stim	s622	0	False
369.307	1.0	371.338	0.1	2.136	True	71.0	Magnitude	n/a	twobytwo	71.0	1.931	blue	8.0	task_switch	magnitude	switch	stim	poldrack-single-stim	s622	0	False
371.549	1.0	372.369	0.1	2.272	False	71.0	Orange-Blue	n/a	twobytwo	89.0	0.72	orange	1.0	task_switch	color	switch	stim	poldrack-single-stim	s622	0	False
373.933	1.0	375.836	0.1	2.0	True	71.0	Orange-Blue	stay	twobytwo	71.0	1.803	orange	7.0	cue_stay	color	stay	stim	poldrack-single-stim	s622	0	False
376.837	1.0	378.355	0.9	2.68	True	71.0	Magnitude	n/a	twobytwo	71.0	0.618	orange	6.0	task_switch	magnitude	switch	stim	poldrack-single-stim	s622	0	False
380.424	1.0	381.947	0.9	2.0	True	71.0	High-Low	switch	twobytwo	71.0	0.623	blue	9.0	cue_switch	magnitude	stay	stim	poldrack-single-stim	s622	0	False
383.331	1.0	384.736	0.9	2.0	True	71.0	Color	n/a	twobytwo	71.0	0.505	orange	6.0	task_switch	color	switch	stim	poldrack-single-stim	s622	0	False
385.438	1.0	386.73	0.1	2.0	True	89.0	Color	stay	twobytwo	89.0	1.192	blue	4.0	cue_stay	color	stay	stim	poldrack-single-stim	s622	0	False
387.545	1.0	388.915	0.1	2.272	True	71.0	Orange-Blue	switch	twobytwo	71.0	1.27	orange	3.0	cue_switch	color	stay	stim	poldrack-single-stim	s622	0	False
389.923	1.0	390.603	0.1	2.0	True	71.0	Orange-Blue	stay	twobytwo	71.0	0.58	orange	9.0	cue_stay	color	stay	stim	poldrack-single-stim	s622	0	False
392.83	1.0	394.281	0.9	2.0	True	89.0	High-Low	n/a	twobytwo	89.0	0.551	blue	2.0	task_switch	magnitude	switch	stim	poldrack-single-stim	s622	0	False
394.937	1.0	396.025	0.1	2.0	True	89.0	Color	n/a	twobytwo	89.0	0.988	blue	2.0	task_switch	color	switch	stim	poldrack-single-stim	s622	0	False
397.045	1.0	398.042	0.1	2.68	True	71.0	Orange-Blue	switch	twobytwo	71.0	0.897	orange	4.0	cue_switch	color	stay	stim	poldrack-single-stim	s622	0	False
400.633	1.0	402.174	0.9	2.0	True	71.0	Magnitude	n/a	twobytwo	71.0	0.641	orange	8.0	task_switch	magnitude	switch	stim	poldrack-single-stim	s622	0	False
402.737	1.0	403.608	0.1	2.136	True	71.0	Orange-Blue	n/a	twobytwo	71.0	0.771	orange	7.0	task_switch	color	switch	stim	poldrack-single-stim	s622	0	False
405.777	1.0	407.061	0.9	2.408	True	89.0	Orange-Blue	stay	twobytwo	89.0	0.384	blue	3.0	cue_stay	color	stay	stim	poldrack-single-stim	s622	0	False
408.289	1.0	409.72	0.1	2.136	True	89.0	Magnitude	n/a	twobytwo	89.0	1.331	orange	4.0	task_switch	magnitude	switch	stim	poldrack-single-stim	s622	0	False
410.537	1.0	411.259	0.1	2.0	True	89.0	Magnitude	stay	twobytwo	89.0	0.622	orange	4.0	cue_stay	magnitude	stay	stim	poldrack-single-stim	s622	0	False
412.644	1.0	413.525	0.1	2.0	True	71.0	High-Low	switch	twobytwo	71.0	0.781	orange	8.0	cue_switch	magnitude	stay	stim	poldrack-single-stim	s622	0	False
414.751	1.0	415.425	0.1	2.544	True	89.0	High-Low	stay	twobytwo	89.0	0.574	orange	3.0	cue_stay	magnitude	stay	stim	poldrack-single-stim	s622	0	False
417.399	1.0	418.295	0.1	2.136	True	89.0	High-Low	stay	twobytwo	89.0	0.796	blue	3.0	cue_stay	magnitude	stay	stim	poldrack-single-stim	s622	0	False
420.438	1.0	421.787	0.9	2.544	True	89.0	Color	n/a	twobytwo	89.0	0.449	blue	4.0	task_switch	color	switch	stim	poldrack-single-stim	s622	0	False
423.09	1.0	424.184	0.1	2.68	True	71.0	Magnitude	n/a	twobytwo	71.0	0.994	blue	7.0	task_switch	magnitude	switch	stim	poldrack-single-stim	s622	0	False
425.876	1.0	426.566	0.1	2.0	True	89.0	Magnitude	stay	twobytwo	89.0	0.59	orange	2.0	cue_stay	magnitude	stay	stim	poldrack-single-stim	s622	0	False
428.783	1.0	430.304	0.9	2.272	True	89.0	High-Low	switch	twobytwo	89.0	0.621	blue	1.0	cue_switch	magnitude	stay	stim	poldrack-single-stim	s622	0	False
431.96	1.0	433.485	0.9	3.088	True	89.0	High-Low	stay	twobytwo	89.0	0.625	orange	4.0	cue_stay	magnitude	stay	stim	poldrack-single-stim	s622	0	False
435.157	1.0	436.377	0.1	2.0	True	71.0	Color	n/a	twobytwo	71.0	1.12	orange	8.0	task_switch	color	switch	stim	poldrack-single-stim	s622	0	False
437.264	1.0	438.185	0.1	2.136	True	71.0	Orange-Blue	switch	twobytwo	71.0	0.821	orange	4.0	cue_switch	color	stay	stim	poldrack-single-stim	s622	0	False
440.306	1.0	441.581	0.9	2.136	True	89.0	Color	switch	twobytwo	89.0	0.375	blue	7.0	cue_switch	color	stay	stim	poldrack-single-stim	s622	0	False
442.548	1.0	443.857	0.1	2.0	True	89.0	Magnitude	n/a	twobytwo	89.0	1.209	orange	2.0	task_switch	magnitude	switch	stim	poldrack-single-stim	s622	0	False
445.456	1.0	446.767	0.9	2.272	True	89.0	Color	n/a	twobytwo	89.0	0.411	blue	3.0	task_switch	color	switch	stim	poldrack-single-stim	s622	0	False
447.84	1.0	448.76	0.1	2.0	True	89.0	Magnitude	n/a	twobytwo	89.0	0.82	orange	2.0	task_switch	magnitude	switch	stim	poldrack-single-stim	s622	0	False
464.265	1.0	465.836	0.9	2.136	True	71.0	Magnitude	stay	twobytwo	71.0	0.671	blue	6.0	cue_stay	magnitude	stay	stim	poldrack-single-stim	s622	1	False
466.505	1.0	467.538	0.1	2.136	True	71.0	Color	n/a	twobytwo	71.0	0.933	orange	1.0	task_switch	color	switch	stim	poldrack-single-stim	s622	0	False
468.748	1.0	469.698	0.1	2.544	True	89.0	High-Low	n/a	twobytwo	89.0	0.85	blue	4.0	task_switch	magnitude	switch	stim	poldrack-single-stim	s622	0	False
472.198	1.0	473.649	0.9	2.0	True	89.0	Color	n/a	twobytwo	89.0	0.551	blue	1.0	task_switch	color	switch	stim	poldrack-single-stim	s622	0	False
474.304	1.0	475.618	0.1	2.136	True	71.0	Magnitude	n/a	twobytwo	71.0	1.214	orange	6.0	task_switch	magnitude	switch	stim	poldrack-single-stim	s622	0	False
477.348	1.0	478.81	0.9	2.136	True	89.0	Magnitude	stay	twobytwo	89.0	0.562	orange	3.0	cue_stay	magnitude	stay	stim	poldrack-single-stim	s622	0	False
479.591	1.0	480.419	0.1	2.136	True	71.0	High-Low	switch	twobytwo	71.0	0.728	blue	6.0	cue_switch	magnitude	stay	stim	poldrack-single-stim	s622	0	False
482.636	1.0	484.096	0.9	2.0	True	71.0	Magnitude	switch	twobytwo	71.0	0.56	blue	9.0	cue_switch	magnitude	stay	stim	poldrack-single-stim	s622	0	False
484.74	1.0	485.582	0.1	2.136	True	71.0	Color	n/a	twobytwo	71.0	0.742	orange	9.0	task_switch	color	switch	stim	poldrack-single-stim	s622	0	False
486.983	1.0	487.928	0.1	2.0	True	89.0	High-Low	n/a	twobytwo	89.0	0.845	orange	4.0	task_switch	magnitude	switch	stim	poldrack-single-stim	s622	0	False
489.89	1.0	491.323	0.9	2.136	True	89.0	Orange-Blue	n/a	twobytwo	89.0	0.533	blue	3.0	task_switch	color	switch	stim	poldrack-single-stim	s622	0	False
492.933	1.0	494.719	0.9	2.816	True	71.0	Color	switch	twobytwo	71.0	0.886	orange	1.0	cue_switch	color	stay	stim	poldrack-single-stim	s622	0	False
496.655	1.0	498.449	0.9	2.136	True	89.0	High-Low	n/a	twobytwo	89.0	0.894	blue	4.0	task_switch	magnitude	switch	stim	poldrack-single-stim	s622	0	False
498.898	1.0	500.147	0.1	2.0	True	89.0	Orange-Blue	n/a	twobytwo	89.0	1.149	blue	6.0	task_switch	color	switch	stim	poldrack-single-stim	s622	0	False
501.804	1.0	503.084	0.9	2.0	True	89.0	Color	switch	twobytwo	89.0	0.38	blue	9.0	cue_switch	color	stay	stim	poldrack-single-stim	s622	0	False
504.711	1.0	506.456	0.9	2.272	True	71.0	High-Low	n/a	twobytwo	71.0	0.845	blue	6.0	task_switch	magnitude	switch	stim	poldrack-single-stim	s622	0	False
507.09	1.0	507.88	0.1	2.0	True	71.0	Magnitude	switch	twobytwo	71.0	0.69	blue	7.0	cue_switch	magnitude	stay	stim	poldrack-single-stim	s622	0	False
509.997	1.0	511.257	0.9	2.0	True	89.0	Color	n/a	twobytwo	89.0	0.36	blue	7.0	task_switch	color	switch	stim	poldrack-single-stim	s622	0	False
512.1	1.0	513.238	0.1	2.0	True	71.0	High-Low	n/a	twobytwo	71.0	1.038	orange	9.0	task_switch	magnitude	switch	stim	poldrack-single-stim	s622	0	False
514.203	1.0	514.981	0.1	2.408	True	71.0	High-Low	stay	twobytwo	71.0	0.678	blue	8.0	cue_stay	magnitude	stay	stim	poldrack-single-stim	s622	0	False
516.72	1.0	517.724	0.1	2.272	True	89.0	Orange-Blue	n/a	twobytwo	89.0	0.904	blue	7.0	task_switch	color	switch	stim	poldrack-single-stim	s622	0	False
519.099	1.0	520.088	0.1	2.136	True	89.0	Magnitude	n/a	twobytwo	89.0	0.889	orange	4.0	task_switch	magnitude	switch	stim	poldrack-single-stim	s622	0	False
522.141	1.0	523.701	0.9	2.0	True	71.0	Magnitude	stay	twobytwo	71.0	0.66	blue	8.0	cue_stay	magnitude	stay	stim	poldrack-single-stim	s622	0	False
525.046	1.0	526.515	0.9	2.0	True	71.0	Orange-Blue	n/a	twobytwo	71.0	0.569	orange	6.0	task_switch	color	switch	stim	poldrack-single-stim	s622	0	False
527.152	1.0	528.245	0.1	2.136	True	89.0	Color	switch	twobytwo	89.0	0.993	blue	7.0	cue_switch	color	stay	stim	poldrack-single-stim	s622	0	False
530.2	1.0	531.507	0.9	2.0	True	89.0	Color	stay	twobytwo	89.0	0.407	blue	1.0	cue_stay	color	stay	stim	poldrack-single-stim	s622	0	False
533.11	1.0	534.518	0.9	2.136	True	71.0	High-Low	n/a	twobytwo	71.0	0.508	blue	8.0	task_switch	magnitude	switch	stim	poldrack-single-stim	s622	0	False
535.35	1.0	536.164	0.1	2.408	True	89.0	High-Low	stay	twobytwo	89.0	0.714	orange	2.0	cue_stay	magnitude	stay	stim	poldrack-single-stim	s622	0	False
538.662	1.0	540.113	0.9	2.136	True	71.0	Orange-Blue	n/a	twobytwo	71.0	0.551	orange	6.0	task_switch	color	switch	stim	poldrack-single-stim	s622	0	False
540.905	1.0	541.874	0.1	2.0	True	71.0	Color	switch	twobytwo	71.0	0.869	orange	9.0	cue_switch	color	stay	stim	poldrack-single-stim	s622	0	False
543.009	1.0	543.702	0.1	2.136	True	71.0	Orange-Blue	switch	twobytwo	71.0	0.593	orange	4.0	cue_switch	color	stay	stim	poldrack-single-stim	s622	0	False
545.251	1.0	546.219	0.1	2.272	True	89.0	Magnitude	n/a	twobytwo	89.0	0.868	orange	2.0	task_switch	magnitude	switch	stim	poldrack-single-stim	s622	0	False
548.43	1.0	549.962	0.9	2.0	True	89.0	Color	n/a	twobytwo	89.0	0.632	blue	8.0	task_switch	color	switch	stim	poldrack-single-stim	s622	0	False
551.335	1.0	552.911	0.9	2.408	True	89.0	Color	stay	twobytwo	89.0	0.676	blue	8.0	cue_stay	color	stay	stim	poldrack-single-stim	s622	0	False
554.649	1.0	556.255	0.9	2.0	True	71.0	Color	stay	twobytwo	71.0	0.706	orange	4.0	cue_stay	color	stay	stim	poldrack-single-stim	s622	0	False
557.553	1.0	558.997	0.9	2.136	True	89.0	High-Low	n/a	twobytwo	89.0	0.544	orange	2.0	task_switch	magnitude	switch	stim	poldrack-single-stim	s622	0	False
560.593	1.0	561.894	0.9	2.408	True	89.0	Color	n/a	twobytwo	89.0	0.401	blue	9.0	task_switch	color	switch	stim	poldrack-single-stim	s622	0	False
563.906	1.0	565.429	0.9	2.136	True	71.0	High-Low	n/a	twobytwo	71.0	0.623	blue	6.0	task_switch	magnitude	switch	stim	poldrack-single-stim	s622	0	False
566.151	1.0	567.255	0.1	2.408	True	71.0	Orange-Blue	n/a	twobytwo	71.0	1.004	orange	9.0	task_switch	color	switch	stim	poldrack-single-stim	s622	0	False
569.463	1.0	570.825	0.9	2.136	True	71.0	Color	switch	twobytwo	71.0	0.462	orange	4.0	cue_switch	color	stay	stim	poldrack-single-stim	s622	0	False
572.506	1.0	573.96	0.9	2.0	True	71.0	High-Low	n/a	twobytwo	71.0	0.554	orange	6.0	task_switch	magnitude	switch	stim	poldrack-single-stim	s622	0	False
575.413	1.0	576.858	0.9	2.272	True	89.0	High-Low	stay	twobytwo	89.0	0.545	blue	3.0	cue_stay	magnitude	stay	stim	poldrack-single-stim	s622	0	False
578.591	1.0	580.092	0.9	2.0	True	71.0	High-Low	stay	twobytwo	71.0	0.601	orange	9.0	cue_stay	magnitude	stay	stim	poldrack-single-stim	s622	0	False
580.698	1.0	581.533	0.1	2.272	True	71.0	High-Low	stay	twobytwo	71.0	0.735	blue	9.0	cue_stay	magnitude	stay	stim	poldrack-single-stim	s622	0	False
583.877	1.0	585.332	0.9	2.272	True	89.0	Magnitude	switch	twobytwo	89.0	0.555	orange	1.0	cue_switch	magnitude	stay	stim	poldrack-single-stim	s622	0	False
587.056	1.0	588.512	0.9	2.952	True	89.0	Orange-Blue	n/a	twobytwo	89.0	0.556	blue	2.0	task_switch	color	switch	stim	poldrack-single-stim	s622	0	False
590.915	1.0	592.763	0.9	2.68	True	89.0	High-Low	n/a	twobytwo	89.0	0.948	orange	1.0	task_switch	magnitude	switch	stim	poldrack-single-stim	s622	0	False
594.499	1.0	596.062	0.9	2.136	True	71.0	High-Low	stay	twobytwo	71.0	0.663	orange	7.0	cue_stay	magnitude	stay	stim	poldrack-single-stim	s622	0	False
597.541	1.0	599.403	0.9	2.272	True	71.0	High-Low	stay	twobytwo	71.0	0.962	blue	9.0	cue_stay	magnitude	stay	stim	poldrack-single-stim	s622	0	False
599.92	1.0	601.05	0.1	2.272	True	89.0	Color	n/a	twobytwo	89.0	1.03	blue	8.0	task_switch	color	switch	stim	poldrack-single-stim	s622	0	False
602.296	1.0	603.33	0.1	2.136	True	89.0	Magnitude	n/a	twobytwo	89.0	0.934	orange	1.0	task_switch	magnitude	switch	stim	poldrack-single-stim	s622	0	False
604.536	1.0	605.446	0.1	2.408	True	71.0	Magnitude	stay	twobytwo	71.0	0.81	orange	7.0	cue_stay	magnitude	stay	stim	poldrack-single-stim	s622	0	False
607.848	1.0	609.228	0.9	2.136	True	71.0	Orange-Blue	n/a	twobytwo	71.0	0.48	orange	6.0	task_switch	color	switch	stim	poldrack-single-stim	s622	0	False
610.888	1.0	612.517	0.9	2.136	True	89.0	Color	switch	twobytwo	89.0	0.729	blue	9.0	cue_switch	color	stay	stim	poldrack-single-stim	s622	0	False
613.931	1.0	615.931	0.9	2.0	True	71.0	Magnitude	n/a	twobytwo	71.0	1.1	orange	6.0	task_switch	magnitude	switch	stim	poldrack-single-stim	s622	0	False
616.038	1.0	616.8	0.1	2.0	True	89.0	Magnitude	stay	twobytwo	89.0	0.662	blue	4.0	cue_stay	magnitude	stay	stim	poldrack-single-stim	s622	0	False
618.145	1.0	619.161	0.1	2.0	True	89.0	High-Low	switch	twobytwo	89.0	0.916	orange	3.0	cue_switch	magnitude	stay	stim	poldrack-single-stim	s622	0	False
620.257	1.0	621.067	0.1	2.0	True	71.0	High-Low	stay	twobytwo	71.0	0.71	orange	9.0	cue_stay	magnitude	stay	stim	poldrack-single-stim	s622	0	False
623.164	1.0	624.512	0.9	2.0	True	89.0	Orange-Blue	n/a	twobytwo	89.0	0.448	blue	2.0	task_switch	color	switch	stim	poldrack-single-stim	s622	0	False
625.271	1.0	626.232	0.1	2.272	True	89.0	Magnitude	n/a	twobytwo	89.0	0.861	blue	2.0	task_switch	magnitude	switch	stim	poldrack-single-stim	s622	0	False
627.647	1.0	628.418	0.1	2.408	True	89.0	High-Low	switch	twobytwo	89.0	0.671	orange	4.0	cue_switch	magnitude	stay	stim	poldrack-single-stim	s622	0	False
630.961	1.0	632.274	0.9	2.0	True	71.0	Orange-Blue	n/a	twobytwo	71.0	0.413	orange	8.0	task_switch	color	switch	stim	poldrack-single-stim	s622	0	False
633.065	1.0	634.385	0.1	2.136	True	71.0	High-Low	n/a	twobytwo	71.0	1.22	orange	7.0	task_switch	magnitude	switch	stim	poldrack-single-stim	s622	0	False
636.107	1.0	637.513	0.9	2.0	True	89.0	High-Low	stay	twobytwo	89.0	0.506	blue	3.0	cue_stay	magnitude	stay	stim	poldrack-single-stim	s622	0	False
638.212	1.0	639.379	0.1	2.136	True	71.0	Color	n/a	twobytwo	71.0	1.067	orange	4.0	task_switch	color	switch	stim	poldrack-single-stim	s622	0	False
640.455	1.0	641.17	0.1	2.544	True	71.0	Color	stay	twobytwo	71.0	0.615	orange	4.0	cue_stay	color	stay	stim	poldrack-single-stim	s622	0	False
643.108	1.0	643.798	0.1	2.68	True	71.0	Orange-Blue	switch	twobytwo	71.0	0.59	orange	8.0	cue_switch	color	stay	stim	poldrack-single-stim	s622	0	False
645.895	1.0	646.503	0.1	3.088	True	71.0	Orange-Blue	stay	twobytwo	71.0	0.508	orange	3.0	cue_stay	color	stay	stim	poldrack-single-stim	s622	0	False
649.087	1.0	649.779	0.1	2.136	True	89.0	Orange-Blue	stay	twobytwo	89.0	0.592	blue	3.0	cue_stay	color	stay	stim	poldrack-single-stim	s622	0	False
652.13	1.0	653.652	0.9	2.544	True	89.0	Magnitude	n/a	twobytwo	89.0	0.622	blue	4.0	task_switch	magnitude	switch	stim	poldrack-single-stim	s622	0	False
654.781	1.0	655.807	0.1	2.0	True	89.0	Color	n/a	twobytwo	89.0	0.926	blue	7.0	task_switch	color	switch	stim	poldrack-single-stim	s622	0	False
656.885	1.0	657.605	0.1	2.136	True	71.0	Color	stay	twobytwo	71.0	0.62	orange	2.0	cue_stay	color	stay	stim	poldrack-single-stim	s622	0	False
659.928	1.0	661.487	0.9	2.0	True	89.0	Orange-Blue	switch	twobytwo	89.0	0.659	blue	1.0	cue_switch	color	stay	stim	poldrack-single-stim	s622	0	False
662.831	1.0	664.245	0.9	2.408	True	71.0	Orange-Blue	stay	twobytwo	71.0	0.514	orange	4.0	cue_stay	color	stay	stim	poldrack-single-stim	s622	0	False
665.345	1.0	666.516	0.1	2.0	True	71.0	Magnitude	n/a	twobytwo	71.0	1.071	orange	8.0	task_switch	magnitude	switch	stim	poldrack-single-stim	s622	0	False
667.453	1.0	668.47	0.1	2.0	True	89.0	High-Low	switch	twobytwo	89.0	0.917	orange	4.0	cue_switch	magnitude	stay	stim	poldrack-single-stim	s622	0	False
670.36	1.0	672.011	0.9	2.0	True	71.0	Magnitude	switch	twobytwo	71.0	0.751	blue	7.0	cue_switch	magnitude	stay	stim	poldrack-single-stim	s622	0	False
672.464	1.0	673.56	0.1	2.68	True	71.0	Orange-Blue	n/a	twobytwo	71.0	0.996	orange	2.0	task_switch	color	switch	stim	poldrack-single-stim	s622	0	False
676.051	1.0	677.492	0.9	2.272	True	89.0	Magnitude	n/a	twobytwo	89.0	0.541	blue	3.0	task_switch	magnitude	switch	stim	poldrack-single-stim	s622	0	False
678.426	1.0	679.368	0.1	2.408	True	71.0	Orange-Blue	n/a	twobytwo	71.0	0.842	orange	2.0	task_switch	color	switch	stim	poldrack-single-stim	s622	0	False
