duration	onset	block_duration	movement_onset	planning	condition	exp_stage	experiment_exp_id	key_press	problem_id	response_time	trial_id	trial_type	worker_id	junk
6.995	3.011	6.995	10.006	1	UA_with_intermediate	practice	ward_and_allport	71	0.0	6.995	to_hand	poldrack-single-stim	s622	False
0.1	10.006	0.718	10.724	0	UA_with_intermediate	practice	ward_and_allport	82	0.0	0.718	to_board	poldrack-single-stim	s622	False
0.1	10.726	0.483	11.209	0	UA_with_intermediate	practice	ward_and_allport	71	0.0	0.483	to_hand	poldrack-single-stim	s622	False
0.1	11.211	0.384	11.595	0	UA_with_intermediate	practice	ward_and_allport	89	0.0	0.384	to_board	poldrack-single-stim	s622	False
0.1	11.595	0.526	12.121	0	UA_with_intermediate	practice	ward_and_allport	82	0.0	0.526	to_hand	poldrack-single-stim	s622	False
0.1	12.123	0.325	12.448	0	UA_with_intermediate	practice	ward_and_allport	89	0.0	0.325	to_board	poldrack-single-stim	s622	False
1.0	12.454	2.5	12.453	0	UA_with_intermediate	practice	ward_and_allport	-1	0.0	n/a	feedback	poldrack-single-stim	s622	False
4.525	14.956	4.525	19.481	1	UA_with_intermediate	practice	ward_and_allport	71	1.0	4.525	to_hand	poldrack-single-stim	s622	False
0.1	19.481	3.17	22.651	0	UA_with_intermediate	practice	ward_and_allport	71	1.0	3.17	to_board	poldrack-single-stim	s622	False
0.1	22.653	0.918	23.571	0	UA_with_intermediate	practice	ward_and_allport	89	1.0	0.918	to_hand	poldrack-single-stim	s622	False
0.1	23.572	0.579	24.151	0	UA_with_intermediate	practice	ward_and_allport	82	1.0	0.579	to_board	poldrack-single-stim	s622	False
0.1	24.152	0.415	24.567	0	UA_with_intermediate	practice	ward_and_allport	71	1.0	0.415	to_hand	poldrack-single-stim	s622	False
0.1	24.568	0.375	24.943	0	UA_with_intermediate	practice	ward_and_allport	89	1.0	0.375	to_board	poldrack-single-stim	s622	False
0.1	24.945	0.478	25.423	0	UA_with_intermediate	practice	ward_and_allport	82	1.0	0.478	to_hand	poldrack-single-stim	s622	False
0.1	25.424	0.77	26.194	0	UA_with_intermediate	practice	ward_and_allport	89	1.0	0.77	to_board	poldrack-single-stim	s622	False
1.0	26.198	2.1	26.197	0	UA_with_intermediate	practice	ward_and_allport	-1	1.0	n/a	feedback	poldrack-single-stim	s622	False
2.864	28.3	2.864	31.164	1	UA_without_intermediate	practice	ward_and_allport	82	2.0	2.864	to_hand	poldrack-single-stim	s622	False
0.1	31.165	0.576	31.741	0	UA_without_intermediate	practice	ward_and_allport	89	2.0	0.576	to_board	poldrack-single-stim	s622	False
0.1	31.742	0.419	32.161	0	UA_without_intermediate	practice	ward_and_allport	71	2.0	0.419	to_hand	poldrack-single-stim	s622	False
0.1	32.163	0.876	33.039	0	UA_without_intermediate	practice	ward_and_allport	89	2.0	0.876	to_board	poldrack-single-stim	s622	False
0.1	33.041	1.078	34.119	0	UA_without_intermediate	practice	ward_and_allport	71	2.0	1.078	to_hand	poldrack-single-stim	s622	False
0.1	34.119	0.282	34.401	0	UA_without_intermediate	practice	ward_and_allport	89	2.0	0.282	to_board	poldrack-single-stim	s622	False
1.0	34.403	2.2	34.402	0	UA_without_intermediate	practice	ward_and_allport	-1	2.0	n/a	feedback	poldrack-single-stim	s622	False
2.805	36.604	2.805	39.409	1	UA_without_intermediate	practice	ward_and_allport	71	3.0	2.805	to_hand	poldrack-single-stim	s622	False
0.1	39.41	0.442	39.852	0	UA_without_intermediate	practice	ward_and_allport	89	3.0	0.442	to_board	poldrack-single-stim	s622	False
0.1	39.853	1.69	41.543	0	UA_without_intermediate	practice	ward_and_allport	82	3.0	1.69	to_hand	poldrack-single-stim	s622	False
0.1	41.545	0.451	41.996	0	UA_without_intermediate	practice	ward_and_allport	89	3.0	0.451	to_board	poldrack-single-stim	s622	False
0.1	41.997	0.662	42.659	0	UA_without_intermediate	practice	ward_and_allport	71	3.0	0.662	to_hand	poldrack-single-stim	s622	False
0.1	42.66	0.328	42.988	0	UA_without_intermediate	practice	ward_and_allport	89	3.0	0.328	to_board	poldrack-single-stim	s622	False
1.0	42.992	2.0	42.991	0	UA_without_intermediate	practice	ward_and_allport	-1	3.0	n/a	feedback	poldrack-single-stim	s622	False
11.117	47.003	11.117	58.12	1	PA_without_intermediate	test	ward_and_allport	71	0.0	11.117	to_hand	poldrack-single-stim	s622	False
0.1	58.12	0.756	58.876	0	PA_without_intermediate	test	ward_and_allport	82	0.0	0.756	to_board	poldrack-single-stim	s622	False
0.1	58.878	0.932	59.81	0	PA_without_intermediate	test	ward_and_allport	71	0.0	0.932	to_hand	poldrack-single-stim	s622	False
0.1	59.811	0.482	60.293	0	PA_without_intermediate	test	ward_and_allport	82	0.0	0.482	to_board	poldrack-single-stim	s622	False
0.1	60.294	1.412	61.706	0	PA_without_intermediate	test	ward_and_allport	71	0.0	1.412	to_hand	poldrack-single-stim	s622	False
0.1	61.707	0.379	62.086	0	PA_without_intermediate	test	ward_and_allport	89	0.0	0.379	to_board	poldrack-single-stim	s622	False
1.0	62.092	3.088	62.091	0	PA_without_intermediate	test	ward_and_allport	-1	0.0	n/a	feedback	poldrack-single-stim	s622	False
6.794	65.182	6.794	71.976	1	PA_with_intermediate	test	ward_and_allport	71	1.0	6.794	to_hand	poldrack-single-stim	s622	False
0.1	71.976	0.393	72.369	0	PA_with_intermediate	test	ward_and_allport	82	1.0	0.393	to_board	poldrack-single-stim	s622	False
0.1	72.371	0.966	73.337	0	PA_with_intermediate	test	ward_and_allport	71	1.0	0.966	to_hand	poldrack-single-stim	s622	False
0.1	73.339	0.466	73.805	0	PA_with_intermediate	test	ward_and_allport	89	1.0	0.466	to_board	poldrack-single-stim	s622	False
0.1	73.806	1.389	75.195	0	PA_with_intermediate	test	ward_and_allport	82	1.0	1.389	to_hand	poldrack-single-stim	s622	False
0.1	75.197	0.341	75.538	0	PA_with_intermediate	test	ward_and_allport	89	1.0	0.341	to_board	poldrack-single-stim	s622	False
1.0	75.54	2.0	75.539	0	PA_with_intermediate	test	ward_and_allport	-1	1.0	n/a	feedback	poldrack-single-stim	s622	False
6.071	77.543	6.071	83.614	1	PA_without_intermediate	test	ward_and_allport	89	2.0	6.071	to_hand	poldrack-single-stim	s622	False
0.1	83.615	1.283	84.898	0	PA_without_intermediate	test	ward_and_allport	71	2.0	1.283	to_board	poldrack-single-stim	s622	False
0.1	84.9	1.481	86.381	0	PA_without_intermediate	test	ward_and_allport	89	2.0	1.481	to_hand	poldrack-single-stim	s622	False
0.1	86.383	0.65	87.033	0	PA_without_intermediate	test	ward_and_allport	71	2.0	0.65	to_board	poldrack-single-stim	s622	False
0.1	87.034	0.403	87.437	0	PA_without_intermediate	test	ward_and_allport	89	2.0	0.403	to_hand	poldrack-single-stim	s622	False
0.1	87.439	0.475	87.914	0	PA_without_intermediate	test	ward_and_allport	82	2.0	0.475	to_board	poldrack-single-stim	s622	False
1.0	87.917	2.0	87.916	0	PA_without_intermediate	test	ward_and_allport	-1	2.0	n/a	feedback	poldrack-single-stim	s622	False
3.105	89.919	3.105	93.024	1	PA_without_intermediate	test	ward_and_allport	89	3.0	3.105	to_hand	poldrack-single-stim	s622	False
0.1	93.024	0.283	93.307	0	PA_without_intermediate	test	ward_and_allport	71	3.0	0.283	to_board	poldrack-single-stim	s622	False
0.1	93.309	1.69	94.999	0	PA_without_intermediate	test	ward_and_allport	89	3.0	1.69	to_hand	poldrack-single-stim	s622	False
0.1	95.0	0.307	95.307	0	PA_without_intermediate	test	ward_and_allport	82	3.0	0.307	to_board	poldrack-single-stim	s622	False
0.1	95.309	1.425	96.734	0	PA_without_intermediate	test	ward_and_allport	89	3.0	1.425	to_hand	poldrack-single-stim	s622	False
0.1	96.735	0.237	96.972	0	PA_without_intermediate	test	ward_and_allport	71	3.0	0.237	to_board	poldrack-single-stim	s622	False
1.0	96.978	2.0	96.977	0	PA_without_intermediate	test	ward_and_allport	-1	3.0	n/a	feedback	poldrack-single-stim	s622	False
5.87	98.98	5.87	104.85	1	PA_with_intermediate	test	ward_and_allport	71	4.0	5.87	to_hand	poldrack-single-stim	s622	False
0.1	104.852	0.386	105.238	0	PA_with_intermediate	test	ward_and_allport	82	4.0	0.386	to_board	poldrack-single-stim	s622	False
0.1	105.241	0.939	106.18	0	PA_with_intermediate	test	ward_and_allport	71	4.0	0.939	to_hand	poldrack-single-stim	s622	False
0.1	106.181	0.349	106.53	0	PA_with_intermediate	test	ward_and_allport	89	4.0	0.349	to_board	poldrack-single-stim	s622	False
0.1	106.532	1.506	108.038	0	PA_with_intermediate	test	ward_and_allport	82	4.0	1.506	to_hand	poldrack-single-stim	s622	False
0.1	108.039	0.853	108.892	0	PA_with_intermediate	test	ward_and_allport	71	4.0	0.853	to_board	poldrack-single-stim	s622	False
1.0	108.899	2.544	108.898	0	PA_with_intermediate	test	ward_and_allport	-1	4.0	n/a	feedback	poldrack-single-stim	s622	False
3.011	111.444	3.011	114.455	1	PA_without_intermediate	test	ward_and_allport	71	5.0	3.011	to_hand	poldrack-single-stim	s622	False
0.1	114.457	0.375	114.832	0	PA_without_intermediate	test	ward_and_allport	82	5.0	0.375	to_board	poldrack-single-stim	s622	False
0.1	114.834	1.975	116.809	0	PA_without_intermediate	test	ward_and_allport	71	5.0	1.975	to_hand	poldrack-single-stim	s622	False
0.1	116.811	0.63	117.441	0	PA_without_intermediate	test	ward_and_allport	89	5.0	0.63	to_board	poldrack-single-stim	s622	False
0.1	117.444	0.79	118.234	0	PA_without_intermediate	test	ward_and_allport	71	5.0	0.79	to_hand	poldrack-single-stim	s622	False
0.1	118.234	0.222	118.456	0	PA_without_intermediate	test	ward_and_allport	82	5.0	0.222	to_board	poldrack-single-stim	s622	False
1.0	118.462	2.272	118.461	0	PA_without_intermediate	test	ward_and_allport	-1	5.0	n/a	feedback	poldrack-single-stim	s622	False
6.103	120.735	6.103	126.838	1	PA_with_intermediate	test	ward_and_allport	82	6.0	6.103	to_hand	poldrack-single-stim	s622	False
0.1	126.839	0.728	127.567	0	PA_with_intermediate	test	ward_and_allport	71	6.0	0.728	to_board	poldrack-single-stim	s622	False
0.1	127.571	1.264	128.835	0	PA_with_intermediate	test	ward_and_allport	82	6.0	1.264	to_hand	poldrack-single-stim	s622	False
0.1	128.836	0.352	129.188	0	PA_with_intermediate	test	ward_and_allport	89	6.0	0.352	to_board	poldrack-single-stim	s622	False
0.1	129.189	0.732	129.921	0	PA_with_intermediate	test	ward_and_allport	71	6.0	0.732	to_hand	poldrack-single-stim	s622	False
0.1	129.922	0.401	130.323	0	PA_with_intermediate	test	ward_and_allport	89	6.0	0.401	to_board	poldrack-single-stim	s622	False
1.0	130.331	4.04	130.33	0	PA_with_intermediate	test	ward_and_allport	-1	6.0	n/a	feedback	poldrack-single-stim	s622	False
5.261	134.374	5.261	139.635	1	PA_with_intermediate	test	ward_and_allport	82	7.0	5.261	to_hand	poldrack-single-stim	s622	False
0.1	139.636	0.385	140.021	0	PA_with_intermediate	test	ward_and_allport	71	7.0	0.385	to_board	poldrack-single-stim	s622	False
0.1	140.024	0.667	140.691	0	PA_with_intermediate	test	ward_and_allport	82	7.0	0.667	to_hand	poldrack-single-stim	s622	False
0.1	140.692	0.447	141.139	0	PA_with_intermediate	test	ward_and_allport	89	7.0	0.447	to_board	poldrack-single-stim	s622	False
0.1	141.142	1.245	142.387	0	PA_with_intermediate	test	ward_and_allport	71	7.0	1.245	to_hand	poldrack-single-stim	s622	False
0.1	142.388	0.499	142.887	0	PA_with_intermediate	test	ward_and_allport	82	7.0	0.499	to_board	poldrack-single-stim	s622	False
1.0	142.895	2.272	142.894	0	PA_with_intermediate	test	ward_and_allport	-1	7.0	n/a	feedback	poldrack-single-stim	s622	False
6.452	145.169	6.452	151.621	1	PA_with_intermediate	test	ward_and_allport	82	8.0	6.452	to_hand	poldrack-single-stim	s622	False
0.1	151.623	0.628	152.251	0	PA_with_intermediate	test	ward_and_allport	89	8.0	0.628	to_board	poldrack-single-stim	s622	False
0.1	152.253	1.282	153.535	0	PA_with_intermediate	test	ward_and_allport	82	8.0	1.282	to_hand	poldrack-single-stim	s622	False
0.1	153.537	0.588	154.125	0	PA_with_intermediate	test	ward_and_allport	71	8.0	0.588	to_board	poldrack-single-stim	s622	False
0.1	154.129	1.194	155.323	0	PA_with_intermediate	test	ward_and_allport	89	8.0	1.194	to_hand	poldrack-single-stim	s622	False
0.1	155.323	0.177	155.5	0	PA_with_intermediate	test	ward_and_allport	71	8.0	0.177	to_board	poldrack-single-stim	s622	False
1.0	155.506	2.136	155.505	0	PA_with_intermediate	test	ward_and_allport	-1	8.0	n/a	feedback	poldrack-single-stim	s622	False
7.18	157.644	7.18	164.824	1	PA_with_intermediate	test	ward_and_allport	89	9.0	7.18	to_hand	poldrack-single-stim	s622	False
0.1	164.825	0.231	165.056	0	PA_with_intermediate	test	ward_and_allport	71	9.0	0.231	to_board	poldrack-single-stim	s622	False
0.1	165.06	1.06	166.12	0	PA_with_intermediate	test	ward_and_allport	89	9.0	1.06	to_hand	poldrack-single-stim	s622	False
0.1	166.121	0.255	166.376	0	PA_with_intermediate	test	ward_and_allport	82	9.0	0.255	to_board	poldrack-single-stim	s622	False
0.1	166.379	0.653	167.032	0	PA_with_intermediate	test	ward_and_allport	71	9.0	0.653	to_hand	poldrack-single-stim	s622	False
0.1	167.033	0.196	167.229	0	PA_with_intermediate	test	ward_and_allport	82	9.0	0.196	to_board	poldrack-single-stim	s622	False
1.0	167.237	2.0	167.236	0	PA_with_intermediate	test	ward_and_allport	-1	9.0	n/a	feedback	poldrack-single-stim	s622	False
5.207	169.24	5.207	174.447	1	PA_with_intermediate	test	ward_and_allport	82	10.0	5.207	to_hand	poldrack-single-stim	s622	False
0.1	174.449	0.416	174.865	0	PA_with_intermediate	test	ward_and_allport	71	10.0	0.416	to_board	poldrack-single-stim	s622	False
0.1	174.869	0.57	175.439	0	PA_with_intermediate	test	ward_and_allport	82	10.0	0.57	to_hand	poldrack-single-stim	s622	False
0.1	175.441	0.348	175.789	0	PA_with_intermediate	test	ward_and_allport	89	10.0	0.348	to_board	poldrack-single-stim	s622	False
0.1	175.793	0.357	176.15	0	PA_with_intermediate	test	ward_and_allport	71	10.0	0.357	to_hand	poldrack-single-stim	s622	False
0.1	176.151	0.289	176.44	0	PA_with_intermediate	test	ward_and_allport	89	10.0	0.289	to_board	poldrack-single-stim	s622	False
1.0	176.448	2.0	176.447	0	PA_with_intermediate	test	ward_and_allport	-1	10.0	n/a	feedback	poldrack-single-stim	s622	False
4.765	178.45	4.765	183.215	1	PA_without_intermediate	test	ward_and_allport	89	11.0	4.765	to_hand	poldrack-single-stim	s622	False
0.1	183.217	0.278	183.495	0	PA_without_intermediate	test	ward_and_allport	82	11.0	0.278	to_board	poldrack-single-stim	s622	False
0.1	183.497	0.792	184.289	0	PA_without_intermediate	test	ward_and_allport	89	11.0	0.792	to_hand	poldrack-single-stim	s622	False
0.1	184.291	0.222	184.513	0	PA_without_intermediate	test	ward_and_allport	82	11.0	0.222	to_board	poldrack-single-stim	s622	False
0.1	184.517	1.911	186.428	0	PA_without_intermediate	test	ward_and_allport	89	11.0	1.911	to_hand	poldrack-single-stim	s622	False
0.1	186.429	0.505	186.934	0	PA_without_intermediate	test	ward_and_allport	71	11.0	0.505	to_board	poldrack-single-stim	s622	False
1.0	186.941	2.408	186.94	0	PA_without_intermediate	test	ward_and_allport	-1	11.0	n/a	feedback	poldrack-single-stim	s622	False
7.624	189.354	7.624	196.978	1	PA_with_intermediate	test	ward_and_allport	71	12.0	7.624	to_hand	poldrack-single-stim	s622	False
0.1	196.978	0.292	197.27	0	PA_with_intermediate	test	ward_and_allport	82	12.0	0.292	to_board	poldrack-single-stim	s622	False
0.1	197.274	0.773	198.047	0	PA_with_intermediate	test	ward_and_allport	71	12.0	0.773	to_hand	poldrack-single-stim	s622	False
0.1	198.048	0.233	198.281	0	PA_with_intermediate	test	ward_and_allport	89	12.0	0.233	to_board	poldrack-single-stim	s622	False
0.1	198.284	0.72	199.004	0	PA_with_intermediate	test	ward_and_allport	82	12.0	0.72	to_hand	poldrack-single-stim	s622	False
0.1	199.005	0.293	199.298	0	PA_with_intermediate	test	ward_and_allport	89	12.0	0.293	to_board	poldrack-single-stim	s622	False
0.1	199.302	3.135	202.437	0	PA_with_intermediate	test	ward_and_allport	89	12.0	3.135	to_hand	poldrack-single-stim	s622	False
0.1	202.438	0.604	203.042	0	PA_with_intermediate	test	ward_and_allport	71	12.0	0.604	to_board	poldrack-single-stim	s622	False
1.0	203.049	3.768	203.048	0	PA_with_intermediate	test	ward_and_allport	-1	12.0	n/a	feedback	poldrack-single-stim	s622	False
5.811	206.821	5.811	212.632	1	PA_with_intermediate	test	ward_and_allport	89	13.0	5.811	to_hand	poldrack-single-stim	s622	False
0.1	212.633	0.386	213.019	0	PA_with_intermediate	test	ward_and_allport	82	13.0	0.386	to_board	poldrack-single-stim	s622	False
0.1	213.024	0.572	213.596	0	PA_with_intermediate	test	ward_and_allport	89	13.0	0.572	to_hand	poldrack-single-stim	s622	False
0.1	213.597	0.293	213.89	0	PA_with_intermediate	test	ward_and_allport	71	13.0	0.293	to_board	poldrack-single-stim	s622	False
0.1	213.893	2.978	216.871	0	PA_with_intermediate	test	ward_and_allport	82	13.0	2.978	to_hand	poldrack-single-stim	s622	False
0.1	216.872	0.367	217.239	0	PA_with_intermediate	test	ward_and_allport	89	13.0	0.367	to_board	poldrack-single-stim	s622	False
1.0	217.246	2.68	217.245	0	PA_with_intermediate	test	ward_and_allport	-1	13.0	n/a	feedback	poldrack-single-stim	s622	False
3.358	219.931	3.358	223.289	1	PA_without_intermediate	test	ward_and_allport	89	14.0	3.358	to_hand	poldrack-single-stim	s622	False
0.1	223.29	0.33	223.62	0	PA_without_intermediate	test	ward_and_allport	82	14.0	0.33	to_board	poldrack-single-stim	s622	False
0.1	223.624	1.916	225.54	0	PA_without_intermediate	test	ward_and_allport	89	14.0	1.916	to_hand	poldrack-single-stim	s622	False
0.1	225.541	0.328	225.869	0	PA_without_intermediate	test	ward_and_allport	82	14.0	0.328	to_board	poldrack-single-stim	s622	False
0.1	225.875	0.5	226.375	0	PA_without_intermediate	test	ward_and_allport	89	14.0	0.5	to_hand	poldrack-single-stim	s622	False
0.1	226.376	0.326	226.702	0	PA_without_intermediate	test	ward_and_allport	71	14.0	0.326	to_board	poldrack-single-stim	s622	False
1.0	226.708	3.224	226.707	0	PA_without_intermediate	test	ward_and_allport	-1	14.0	n/a	feedback	poldrack-single-stim	s622	False
6.196	234.94	6.196	241.136	1	PA_without_intermediate	test	ward_and_allport	71	15.0	6.196	to_hand	poldrack-single-stim	s622	False
0.1	241.137	0.442	241.579	0	PA_without_intermediate	test	ward_and_allport	89	15.0	0.442	to_board	poldrack-single-stim	s622	False
0.1	241.583	0.948	242.531	0	PA_without_intermediate	test	ward_and_allport	71	15.0	0.948	to_hand	poldrack-single-stim	s622	False
0.1	242.532	0.463	242.995	0	PA_without_intermediate	test	ward_and_allport	82	15.0	0.463	to_board	poldrack-single-stim	s622	False
0.1	242.998	0.914	243.912	0	PA_without_intermediate	test	ward_and_allport	71	15.0	0.914	to_hand	poldrack-single-stim	s622	False
0.1	243.913	0.356	244.269	0	PA_without_intermediate	test	ward_and_allport	89	15.0	0.356	to_board	poldrack-single-stim	s622	False
1.0	244.274	3.36	244.273	0	PA_without_intermediate	test	ward_and_allport	-1	15.0	n/a	feedback	poldrack-single-stim	s622	False
3.153	247.638	3.153	250.791	1	PA_without_intermediate	test	ward_and_allport	71	16.0	3.153	to_hand	poldrack-single-stim	s622	False
0.1	250.791	0.406	251.197	0	PA_without_intermediate	test	ward_and_allport	82	16.0	0.406	to_board	poldrack-single-stim	s622	False
0.1	251.201	1.114	252.315	0	PA_without_intermediate	test	ward_and_allport	71	16.0	1.114	to_hand	poldrack-single-stim	s622	False
0.1	252.316	0.246	252.562	0	PA_without_intermediate	test	ward_and_allport	89	16.0	0.246	to_board	poldrack-single-stim	s622	False
0.1	252.566	0.954	253.52	0	PA_without_intermediate	test	ward_and_allport	71	16.0	0.954	to_hand	poldrack-single-stim	s622	False
0.1	253.52	0.264	253.784	0	PA_without_intermediate	test	ward_and_allport	82	16.0	0.264	to_board	poldrack-single-stim	s622	False
1.0	253.789	2.0	253.788	0	PA_without_intermediate	test	ward_and_allport	-1	16.0	n/a	feedback	poldrack-single-stim	s622	False
4.313	255.793	4.313	260.106	1	PA_without_intermediate	test	ward_and_allport	82	17.0	4.313	to_hand	poldrack-single-stim	s622	False
0.1	260.107	0.369	260.476	0	PA_without_intermediate	test	ward_and_allport	89	17.0	0.369	to_board	poldrack-single-stim	s622	False
0.1	260.48	1.296	261.776	0	PA_without_intermediate	test	ward_and_allport	82	17.0	1.296	to_hand	poldrack-single-stim	s622	False
0.1	261.776	0.574	262.35	0	PA_without_intermediate	test	ward_and_allport	89	17.0	0.574	to_board	poldrack-single-stim	s622	False
0.1	262.354	0.982	263.336	0	PA_without_intermediate	test	ward_and_allport	82	17.0	0.982	to_hand	poldrack-single-stim	s622	False
0.1	263.338	0.234	263.572	0	PA_without_intermediate	test	ward_and_allport	71	17.0	0.234	to_board	poldrack-single-stim	s622	False
1.0	263.579	2.408	263.578	0	PA_without_intermediate	test	ward_and_allport	-1	17.0	n/a	feedback	poldrack-single-stim	s622	False
5.222	265.991	5.222	271.213	1	PA_with_intermediate	test	ward_and_allport	71	18.0	5.222	to_hand	poldrack-single-stim	s622	False
0.1	271.214	0.191	271.405	0	PA_with_intermediate	test	ward_and_allport	89	18.0	0.191	to_board	poldrack-single-stim	s622	False
0.1	271.41	0.491	271.901	0	PA_with_intermediate	test	ward_and_allport	71	18.0	0.491	to_hand	poldrack-single-stim	s622	False
0.1	271.901	0.255	272.156	0	PA_with_intermediate	test	ward_and_allport	82	18.0	0.255	to_board	poldrack-single-stim	s622	False
0.1	272.161	1.473	273.634	0	PA_with_intermediate	test	ward_and_allport	89	18.0	1.473	to_hand	poldrack-single-stim	s622	False
0.1	273.635	0.196	273.831	0	PA_with_intermediate	test	ward_and_allport	71	18.0	0.196	to_board	poldrack-single-stim	s622	False
1.0	273.84	2.136	273.839	0	PA_with_intermediate	test	ward_and_allport	-1	18.0	n/a	feedback	poldrack-single-stim	s622	False
5.209	275.98	5.209	281.189	1	PA_without_intermediate	test	ward_and_allport	82	19.0	5.209	to_hand	poldrack-single-stim	s622	False
0.1	281.191	0.213	281.404	0	PA_without_intermediate	test	ward_and_allport	89	19.0	0.213	to_board	poldrack-single-stim	s622	False
0.1	281.407	0.429	281.836	0	PA_without_intermediate	test	ward_and_allport	82	19.0	0.429	to_hand	poldrack-single-stim	s622	False
0.1	281.837	5.281	287.118	0	PA_without_intermediate	test	ward_and_allport	82	19.0	5.281	to_board	poldrack-single-stim	s622	False
0.1	287.123	1.202	288.325	0	PA_without_intermediate	test	ward_and_allport	89	19.0	1.202	to_hand	poldrack-single-stim	s622	False
0.1	288.326	0.327	288.653	0	PA_without_intermediate	test	ward_and_allport	71	19.0	0.327	to_board	poldrack-single-stim	s622	False
0.1	288.657	0.628	289.285	0	PA_without_intermediate	test	ward_and_allport	82	19.0	0.628	to_hand	poldrack-single-stim	s622	False
0.1	289.286	0.399	289.685	0	PA_without_intermediate	test	ward_and_allport	89	19.0	0.399	to_board	poldrack-single-stim	s622	False
0.1	289.69	0.941	290.631	0	PA_without_intermediate	test	ward_and_allport	82	19.0	0.941	to_hand	poldrack-single-stim	s622	False
0.1	290.632	0.777	291.409	0	PA_without_intermediate	test	ward_and_allport	71	19.0	0.777	to_board	poldrack-single-stim	s622	False
1.0	291.42	5.128	291.419	0	PA_without_intermediate	test	ward_and_allport	-1	19.0	n/a	feedback	poldrack-single-stim	s622	False
2.472	296.552	2.472	299.024	1	PA_without_intermediate	test	ward_and_allport	89	20.0	2.472	to_hand	poldrack-single-stim	s622	False
0.1	299.025	0.286	299.311	0	PA_without_intermediate	test	ward_and_allport	71	20.0	0.286	to_board	poldrack-single-stim	s622	False
0.1	299.317	1.194	300.511	0	PA_without_intermediate	test	ward_and_allport	89	20.0	1.194	to_hand	poldrack-single-stim	s622	False
0.1	300.511	0.214	300.725	0	PA_without_intermediate	test	ward_and_allport	82	20.0	0.214	to_board	poldrack-single-stim	s622	False
0.1	300.73	0.87	301.6	0	PA_without_intermediate	test	ward_and_allport	89	20.0	0.87	to_hand	poldrack-single-stim	s622	False
0.1	301.602	0.232	301.834	0	PA_without_intermediate	test	ward_and_allport	71	20.0	0.232	to_board	poldrack-single-stim	s622	False
1.0	301.841	2.136	301.84	0	PA_without_intermediate	test	ward_and_allport	-1	20.0	n/a	feedback	poldrack-single-stim	s622	False
4.226	303.982	4.226	308.208	1	PA_without_intermediate	test	ward_and_allport	71	21.0	4.226	to_hand	poldrack-single-stim	s622	False
0.1	308.208	0.273	308.481	0	PA_without_intermediate	test	ward_and_allport	82	21.0	0.273	to_board	poldrack-single-stim	s622	False
0.1	308.487	0.757	309.244	0	PA_without_intermediate	test	ward_and_allport	71	21.0	0.757	to_hand	poldrack-single-stim	s622	False
0.1	309.244	0.201	309.445	0	PA_without_intermediate	test	ward_and_allport	89	21.0	0.201	to_board	poldrack-single-stim	s622	False
0.1	309.452	1.777	311.229	0	PA_without_intermediate	test	ward_and_allport	82	21.0	1.777	to_hand	poldrack-single-stim	s622	False
0.1	311.23	0.366	311.596	0	PA_without_intermediate	test	ward_and_allport	89	21.0	0.366	to_board	poldrack-single-stim	s622	False
0.1	311.602	1.038	312.64	0	PA_without_intermediate	test	ward_and_allport	71	21.0	1.038	to_hand	poldrack-single-stim	s622	False
0.1	312.641	0.346	312.987	0	PA_without_intermediate	test	ward_and_allport	82	21.0	0.346	to_board	poldrack-single-stim	s622	False
0.1	312.993	7.258	320.251	0	PA_without_intermediate	test	ward_and_allport	89	21.0	7.258	to_hand	poldrack-single-stim	s622	False
0.1	320.252	0.736	320.988	0	PA_without_intermediate	test	ward_and_allport	71	21.0	0.736	to_board	poldrack-single-stim	s622	False
0.1	320.994	1.253	322.247	0	PA_without_intermediate	test	ward_and_allport	89	21.0	1.253	to_hand	poldrack-single-stim	s622	False
0.1	322.247	0.285	322.532	0	PA_without_intermediate	test	ward_and_allport	71	21.0	0.285	to_board	poldrack-single-stim	s622	False
0.1	322.538	1.121	323.659	0	PA_without_intermediate	test	ward_and_allport	71	21.0	1.121	to_hand	poldrack-single-stim	s622	False
0.1	323.66	0.229	323.889	0	PA_without_intermediate	test	ward_and_allport	82	21.0	0.229	to_board	poldrack-single-stim	s622	False
0.1	323.894	0.733	324.627	0	PA_without_intermediate	test	ward_and_allport	71	21.0	0.733	to_hand	poldrack-single-stim	s622	False
0.1	324.628	0.208	324.836	0	PA_without_intermediate	test	ward_and_allport	89	21.0	0.208	to_board	poldrack-single-stim	s622	False
0.1	324.841	0.67	325.511	0	PA_without_intermediate	test	ward_and_allport	82	21.0	0.67	to_hand	poldrack-single-stim	s622	False
0.1	325.513	0.211	325.724	0	PA_without_intermediate	test	ward_and_allport	89	21.0	0.211	to_board	poldrack-single-stim	s622	False
1.0	325.733	5.264	325.732	0	PA_without_intermediate	test	ward_and_allport	-1	21.0	n/a	feedback	poldrack-single-stim	s622	False
8.382	331.003	8.382	339.385	1	PA_with_intermediate	test	ward_and_allport	89	22.0	8.382	to_hand	poldrack-single-stim	s622	False
0.1	339.386	0.296	339.682	0	PA_with_intermediate	test	ward_and_allport	82	22.0	0.296	to_board	poldrack-single-stim	s622	False
0.1	339.69	1.462	341.152	0	PA_with_intermediate	test	ward_and_allport	89	22.0	1.462	to_hand	poldrack-single-stim	s622	False
0.1	341.153	1.119	342.272	0	PA_with_intermediate	test	ward_and_allport	71	22.0	1.119	to_board	poldrack-single-stim	s622	False
0.1	342.278	1.27	343.548	0	PA_with_intermediate	test	ward_and_allport	82	22.0	1.27	to_hand	poldrack-single-stim	s622	False
0.1	343.55	0.299	343.849	0	PA_with_intermediate	test	ward_and_allport	71	22.0	0.299	to_board	poldrack-single-stim	s622	False
1.0	343.859	4.04	343.858	0	PA_with_intermediate	test	ward_and_allport	-1	22.0	n/a	feedback	poldrack-single-stim	s622	False
5.107	347.904	5.107	353.011	1	PA_with_intermediate	test	ward_and_allport	82	23.0	5.107	to_hand	poldrack-single-stim	s622	False
0.1	353.013	0.29	353.303	0	PA_with_intermediate	test	ward_and_allport	89	23.0	0.29	to_board	poldrack-single-stim	s622	False
0.1	353.309	1.269	354.578	0	PA_with_intermediate	test	ward_and_allport	82	23.0	1.269	to_hand	poldrack-single-stim	s622	False
0.1	354.578	0.248	354.826	0	PA_with_intermediate	test	ward_and_allport	71	23.0	0.248	to_board	poldrack-single-stim	s622	False
0.1	354.832	0.848	355.68	0	PA_with_intermediate	test	ward_and_allport	89	23.0	0.848	to_hand	poldrack-single-stim	s622	False
0.1	355.681	0.214	355.895	0	PA_with_intermediate	test	ward_and_allport	71	23.0	0.214	to_board	poldrack-single-stim	s622	False
1.0	355.902	2.136	355.901	0	PA_with_intermediate	test	ward_and_allport	-1	23.0	n/a	feedback	poldrack-single-stim	s622	False
4.337	358.043	4.337	362.38	1	PA_with_intermediate	test	ward_and_allport	82	24.0	4.337	to_hand	poldrack-single-stim	s622	False
0.1	362.38	0.24	362.62	0	PA_with_intermediate	test	ward_and_allport	89	24.0	0.24	to_board	poldrack-single-stim	s622	False
0.1	362.627	0.886	363.513	0	PA_with_intermediate	test	ward_and_allport	82	24.0	0.886	to_hand	poldrack-single-stim	s622	False
0.1	363.514	0.261	363.775	0	PA_with_intermediate	test	ward_and_allport	71	24.0	0.261	to_board	poldrack-single-stim	s622	False
0.1	363.781	1.512	365.293	0	PA_with_intermediate	test	ward_and_allport	89	24.0	1.512	to_hand	poldrack-single-stim	s622	False
0.1	365.294	0.219	365.513	0	PA_with_intermediate	test	ward_and_allport	82	24.0	0.219	to_board	poldrack-single-stim	s622	False
1.0	365.524	2.408	365.523	0	PA_with_intermediate	test	ward_and_allport	-1	24.0	n/a	feedback	poldrack-single-stim	s622	False
4.993	367.938	4.993	372.931	1	PA_without_intermediate	test	ward_and_allport	89	25.0	4.993	to_hand	poldrack-single-stim	s622	False
0.1	372.931	0.712	373.643	0	PA_without_intermediate	test	ward_and_allport	71	25.0	0.712	to_board	poldrack-single-stim	s622	False
0.1	373.65	0.614	374.264	0	PA_without_intermediate	test	ward_and_allport	89	25.0	0.614	to_hand	poldrack-single-stim	s622	False
0.1	374.265	0.785	375.05	0	PA_without_intermediate	test	ward_and_allport	71	25.0	0.785	to_board	poldrack-single-stim	s622	False
0.1	375.056	0.439	375.495	0	PA_without_intermediate	test	ward_and_allport	89	25.0	0.439	to_hand	poldrack-single-stim	s622	False
0.1	375.496	0.325	375.821	0	PA_without_intermediate	test	ward_and_allport	82	25.0	0.325	to_board	poldrack-single-stim	s622	False
1.0	375.828	2.68	375.827	0	PA_without_intermediate	test	ward_and_allport	-1	25.0	n/a	feedback	poldrack-single-stim	s622	False
4.802	378.514	4.802	383.316	1	PA_with_intermediate	test	ward_and_allport	71	26.0	4.802	to_hand	poldrack-single-stim	s622	False
0.1	383.317	0.229	383.546	0	PA_with_intermediate	test	ward_and_allport	89	26.0	0.229	to_board	poldrack-single-stim	s622	False
0.1	383.552	0.497	384.049	0	PA_with_intermediate	test	ward_and_allport	71	26.0	0.497	to_hand	poldrack-single-stim	s622	False
0.1	384.05	0.67	384.72	0	PA_with_intermediate	test	ward_and_allport	82	26.0	0.67	to_board	poldrack-single-stim	s622	False
0.1	384.727	0.685	385.412	0	PA_with_intermediate	test	ward_and_allport	89	26.0	0.685	to_hand	poldrack-single-stim	s622	False
0.1	385.413	0.297	385.71	0	PA_with_intermediate	test	ward_and_allport	82	26.0	0.297	to_board	poldrack-single-stim	s622	False
0.1	385.716	2.924	388.64	0	PA_with_intermediate	test	ward_and_allport	82	26.0	2.924	to_hand	poldrack-single-stim	s622	False
0.1	388.641	0.777	389.418	0	PA_with_intermediate	test	ward_and_allport	71	26.0	0.777	to_board	poldrack-single-stim	s622	False
1.0	389.426	4.72	389.425	0	PA_with_intermediate	test	ward_and_allport	-1	26.0	n/a	feedback	poldrack-single-stim	s622	False
3.509	394.152	3.509	397.661	1	PA_without_intermediate	test	ward_and_allport	82	27.0	3.509	to_hand	poldrack-single-stim	s622	False
0.1	397.663	0.221	397.884	0	PA_without_intermediate	test	ward_and_allport	71	27.0	0.221	to_board	poldrack-single-stim	s622	False
0.1	397.891	3.229	401.12	0	PA_without_intermediate	test	ward_and_allport	82	27.0	3.229	to_hand	poldrack-single-stim	s622	False
0.1	401.12	0.477	401.597	0	PA_without_intermediate	test	ward_and_allport	71	27.0	0.477	to_board	poldrack-single-stim	s622	False
0.1	401.604	1.073	402.677	0	PA_without_intermediate	test	ward_and_allport	82	27.0	1.073	to_hand	poldrack-single-stim	s622	False
0.1	402.678	0.354	403.032	0	PA_without_intermediate	test	ward_and_allport	89	27.0	0.354	to_board	poldrack-single-stim	s622	False
1.0	403.04	3.224	403.039	0	PA_without_intermediate	test	ward_and_allport	-1	27.0	n/a	feedback	poldrack-single-stim	s622	False
3.482	406.271	3.482	409.753	1	PA_without_intermediate	test	ward_and_allport	89	28.0	3.482	to_hand	poldrack-single-stim	s622	False
0.1	409.753	0.386	410.139	0	PA_without_intermediate	test	ward_and_allport	82	28.0	0.386	to_board	poldrack-single-stim	s622	False
0.1	410.146	2.486	412.632	0	PA_without_intermediate	test	ward_and_allport	89	28.0	2.486	to_hand	poldrack-single-stim	s622	False
0.1	412.633	0.266	412.899	0	PA_without_intermediate	test	ward_and_allport	71	28.0	0.266	to_board	poldrack-single-stim	s622	False
0.1	412.905	0.303	413.208	0	PA_without_intermediate	test	ward_and_allport	89	28.0	0.303	to_hand	poldrack-single-stim	s622	False
0.1	413.209	0.34	413.549	0	PA_without_intermediate	test	ward_and_allport	82	28.0	0.34	to_board	poldrack-single-stim	s622	False
1.0	413.56	2.272	413.559	0	PA_without_intermediate	test	ward_and_allport	-1	28.0	n/a	feedback	poldrack-single-stim	s622	False
5.76	415.839	5.76	421.599	1	PA_with_intermediate	test	ward_and_allport	71	29.0	5.76	to_hand	poldrack-single-stim	s622	False
0.1	421.601	0.292	421.893	0	PA_with_intermediate	test	ward_and_allport	89	29.0	0.292	to_board	poldrack-single-stim	s622	False
0.1	421.9	0.508	422.408	0	PA_with_intermediate	test	ward_and_allport	71	29.0	0.508	to_hand	poldrack-single-stim	s622	False
0.1	422.409	0.429	422.838	0	PA_with_intermediate	test	ward_and_allport	82	29.0	0.429	to_board	poldrack-single-stim	s622	False
0.1	422.844	0.616	423.46	0	PA_with_intermediate	test	ward_and_allport	89	29.0	0.616	to_hand	poldrack-single-stim	s622	False
0.1	423.461	0.291	423.752	0	PA_with_intermediate	test	ward_and_allport	82	29.0	0.291	to_board	poldrack-single-stim	s622	False
1.0	423.763	3.632	423.762	0	PA_with_intermediate	test	ward_and_allport	-1	29.0	n/a	feedback	poldrack-single-stim	s622	False
2.748	432.404	2.748	435.152	1	PA_without_intermediate	test	ward_and_allport	82	30.0	2.748	to_hand	poldrack-single-stim	s622	False
0.1	435.154	0.306	435.46	0	PA_without_intermediate	test	ward_and_allport	89	30.0	0.306	to_board	poldrack-single-stim	s622	False
0.1	435.468	2.236	437.704	0	PA_without_intermediate	test	ward_and_allport	82	30.0	2.236	to_hand	poldrack-single-stim	s622	False
0.1	437.705	0.235	437.94	0	PA_without_intermediate	test	ward_and_allport	89	30.0	0.235	to_board	poldrack-single-stim	s622	False
0.1	437.948	1.062	439.01	0	PA_without_intermediate	test	ward_and_allport	82	30.0	1.062	to_hand	poldrack-single-stim	s622	False
0.1	439.012	0.268	439.28	0	PA_without_intermediate	test	ward_and_allport	71	30.0	0.268	to_board	poldrack-single-stim	s622	False
1.0	439.292	2.408	439.291	0	PA_without_intermediate	test	ward_and_allport	-1	30.0	n/a	feedback	poldrack-single-stim	s622	False
5.791	441.707	5.791	447.498	1	PA_without_intermediate	test	ward_and_allport	71	31.0	5.791	to_hand	poldrack-single-stim	s622	False
0.1	447.499	0.166	447.665	0	PA_without_intermediate	test	ward_and_allport	89	31.0	0.166	to_board	poldrack-single-stim	s622	False
0.1	447.672	2.562	450.234	0	PA_without_intermediate	test	ward_and_allport	71	31.0	2.562	to_hand	poldrack-single-stim	s622	False
0.1	450.236	0.208	450.444	0	PA_without_intermediate	test	ward_and_allport	82	31.0	0.208	to_board	poldrack-single-stim	s622	False
0.1	450.452	0.699	451.151	0	PA_without_intermediate	test	ward_and_allport	71	31.0	0.699	to_hand	poldrack-single-stim	s622	False
0.1	451.153	0.559	451.712	0	PA_without_intermediate	test	ward_and_allport	89	31.0	0.559	to_board	poldrack-single-stim	s622	False
1.0	451.722	2.0	451.721	0	PA_without_intermediate	test	ward_and_allport	-1	31.0	n/a	feedback	poldrack-single-stim	s622	False
5.038	453.729	5.038	458.767	1	PA_with_intermediate	test	ward_and_allport	89	32.0	5.038	to_hand	poldrack-single-stim	s622	False
0.1	458.769	0.318	459.087	0	PA_with_intermediate	test	ward_and_allport	82	32.0	0.318	to_board	poldrack-single-stim	s622	False
0.1	459.094	0.432	459.526	0	PA_with_intermediate	test	ward_and_allport	89	32.0	0.432	to_hand	poldrack-single-stim	s622	False
0.1	459.526	0.478	460.004	0	PA_with_intermediate	test	ward_and_allport	71	32.0	0.478	to_board	poldrack-single-stim	s622	False
0.1	460.012	1.387	461.399	0	PA_with_intermediate	test	ward_and_allport	82	32.0	1.387	to_hand	poldrack-single-stim	s622	False
0.1	461.4	0.179	461.579	0	PA_with_intermediate	test	ward_and_allport	89	32.0	0.179	to_board	poldrack-single-stim	s622	False
1.0	461.589	2.0	461.588	0	PA_with_intermediate	test	ward_and_allport	-1	32.0	n/a	feedback	poldrack-single-stim	s622	False
7.044	463.598	7.044	470.642	1	PA_with_intermediate	test	ward_and_allport	89	33.0	7.044	to_hand	poldrack-single-stim	s622	False
0.1	470.643	0.202	470.845	0	PA_with_intermediate	test	ward_and_allport	71	33.0	0.202	to_board	poldrack-single-stim	s622	False
0.1	470.854	0.645	471.499	0	PA_with_intermediate	test	ward_and_allport	89	33.0	0.645	to_hand	poldrack-single-stim	s622	False
0.1	471.5	0.251	471.751	0	PA_with_intermediate	test	ward_and_allport	82	33.0	0.251	to_board	poldrack-single-stim	s622	False
0.1	471.759	0.647	472.406	0	PA_with_intermediate	test	ward_and_allport	71	33.0	0.647	to_hand	poldrack-single-stim	s622	False
0.1	472.407	0.151	472.558	0	PA_with_intermediate	test	ward_and_allport	89	33.0	0.151	to_board	poldrack-single-stim	s622	False
1.0	472.57	2.0	472.569	0	PA_with_intermediate	test	ward_and_allport	-1	33.0	n/a	feedback	poldrack-single-stim	s622	False
6.361	474.579	6.361	480.94	1	PA_with_intermediate	test	ward_and_allport	71	34.0	6.361	to_hand	poldrack-single-stim	s622	False
0.1	480.942	0.214	481.156	0	PA_with_intermediate	test	ward_and_allport	82	34.0	0.214	to_board	poldrack-single-stim	s622	False
0.1	481.164	1.072	482.236	0	PA_with_intermediate	test	ward_and_allport	71	34.0	1.072	to_hand	poldrack-single-stim	s622	False
0.1	482.237	0.166	482.403	0	PA_with_intermediate	test	ward_and_allport	89	34.0	0.166	to_board	poldrack-single-stim	s622	False
0.1	482.411	1.579	483.99	0	PA_with_intermediate	test	ward_and_allport	82	34.0	1.579	to_hand	poldrack-single-stim	s622	False
0.1	483.991	0.187	484.178	0	PA_with_intermediate	test	ward_and_allport	89	34.0	0.187	to_board	poldrack-single-stim	s622	False
1.0	484.19	2.408	484.189	0	PA_with_intermediate	test	ward_and_allport	-1	34.0	n/a	feedback	poldrack-single-stim	s622	False
3.129	486.606	3.129	489.735	1	PA_without_intermediate	test	ward_and_allport	71	35.0	3.129	to_hand	poldrack-single-stim	s622	False
0.1	489.735	0.23	489.965	0	PA_without_intermediate	test	ward_and_allport	82	35.0	0.23	to_board	poldrack-single-stim	s622	False
0.1	489.971	1.732	491.703	0	PA_without_intermediate	test	ward_and_allport	71	35.0	1.732	to_hand	poldrack-single-stim	s622	False
0.1	491.704	0.207	491.911	0	PA_without_intermediate	test	ward_and_allport	82	35.0	0.207	to_board	poldrack-single-stim	s622	False
0.1	491.919	0.862	492.781	0	PA_without_intermediate	test	ward_and_allport	71	35.0	0.862	to_hand	poldrack-single-stim	s622	False
0.1	492.783	0.141	492.924	0	PA_without_intermediate	test	ward_and_allport	89	35.0	0.141	to_board	poldrack-single-stim	s622	False
1.0	492.934	2.816	492.933	0	PA_without_intermediate	test	ward_and_allport	-1	35.0	n/a	feedback	poldrack-single-stim	s622	False
7.484	495.758	7.484	503.242	1	PA_with_intermediate	test	ward_and_allport	82	36.0	7.484	to_hand	poldrack-single-stim	s622	False
0.1	503.243	0.318	503.561	0	PA_with_intermediate	test	ward_and_allport	89	36.0	0.318	to_board	poldrack-single-stim	s622	False
0.1	503.567	0.508	504.075	0	PA_with_intermediate	test	ward_and_allport	82	36.0	0.508	to_hand	poldrack-single-stim	s622	False
0.1	504.077	0.411	504.488	0	PA_with_intermediate	test	ward_and_allport	71	36.0	0.411	to_board	poldrack-single-stim	s622	False
0.1	504.498	0.386	504.884	0	PA_with_intermediate	test	ward_and_allport	89	36.0	0.386	to_hand	poldrack-single-stim	s622	False
0.1	504.885	0.387	505.272	0	PA_with_intermediate	test	ward_and_allport	82	36.0	0.387	to_board	poldrack-single-stim	s622	False
1.0	505.281	4.176	505.28	0	PA_with_intermediate	test	ward_and_allport	-1	36.0	n/a	feedback	poldrack-single-stim	s622	False
3.846	509.464	3.846	513.31	1	PA_with_intermediate	test	ward_and_allport	82	37.0	3.846	to_hand	poldrack-single-stim	s622	False
0.1	513.311	0.458	513.769	0	PA_with_intermediate	test	ward_and_allport	71	37.0	0.458	to_board	poldrack-single-stim	s622	False
0.1	513.776	2.064	515.84	0	PA_with_intermediate	test	ward_and_allport	82	37.0	2.064	to_hand	poldrack-single-stim	s622	False
0.1	515.841	0.733	516.574	0	PA_with_intermediate	test	ward_and_allport	89	37.0	0.733	to_board	poldrack-single-stim	s622	False
0.1	516.583	1.501	518.084	0	PA_with_intermediate	test	ward_and_allport	71	37.0	1.501	to_hand	poldrack-single-stim	s622	False
0.1	518.085	0.36	518.445	0	PA_with_intermediate	test	ward_and_allport	82	37.0	0.36	to_board	poldrack-single-stim	s622	False
1.0	518.46	3.36	518.459	0	PA_with_intermediate	test	ward_and_allport	-1	37.0	n/a	feedback	poldrack-single-stim	s622	False
3.853	521.83	3.853	525.683	1	PA_with_intermediate	test	ward_and_allport	71	38.0	3.853	to_hand	poldrack-single-stim	s622	False
0.1	525.684	0.46	526.144	0	PA_with_intermediate	test	ward_and_allport	89	38.0	0.46	to_board	poldrack-single-stim	s622	False
0.1	526.153	0.45	526.603	0	PA_with_intermediate	test	ward_and_allport	71	38.0	0.45	to_hand	poldrack-single-stim	s622	False
0.1	526.604	0.368	526.972	0	PA_with_intermediate	test	ward_and_allport	82	38.0	0.368	to_board	poldrack-single-stim	s622	False
0.1	526.981	0.358	527.339	0	PA_with_intermediate	test	ward_and_allport	89	38.0	0.358	to_hand	poldrack-single-stim	s622	False
0.1	527.34	0.358	527.698	0	PA_with_intermediate	test	ward_and_allport	82	38.0	0.358	to_board	poldrack-single-stim	s622	False
1.0	527.708	2.0	527.707	0	PA_with_intermediate	test	ward_and_allport	-1	38.0	n/a	feedback	poldrack-single-stim	s622	False
2.509	529.715	2.509	532.224	1	PA_without_intermediate	test	ward_and_allport	82	39.0	2.509	to_hand	poldrack-single-stim	s622	False
0.1	532.226	0.255	532.481	0	PA_without_intermediate	test	ward_and_allport	89	39.0	0.255	to_board	poldrack-single-stim	s622	False
0.1	532.487	2.056	534.543	0	PA_without_intermediate	test	ward_and_allport	82	39.0	2.056	to_hand	poldrack-single-stim	s622	False
0.1	534.544	0.918	535.462	0	PA_without_intermediate	test	ward_and_allport	71	39.0	0.918	to_board	poldrack-single-stim	s622	False
0.1	535.469	1.022	536.491	0	PA_without_intermediate	test	ward_and_allport	82	39.0	1.022	to_hand	poldrack-single-stim	s622	False
0.1	536.492	0.23	536.722	0	PA_without_intermediate	test	ward_and_allport	89	39.0	0.23	to_board	poldrack-single-stim	s622	False
1.0	536.736	2.408	536.735	0	PA_without_intermediate	test	ward_and_allport	-1	39.0	n/a	feedback	poldrack-single-stim	s622	False
4.794	539.153	4.794	543.947	1	PA_with_intermediate	test	ward_and_allport	89	40.0	4.794	to_hand	poldrack-single-stim	s622	False
0.1	543.948	0.482	544.43	0	PA_with_intermediate	test	ward_and_allport	82	40.0	0.482	to_board	poldrack-single-stim	s622	False
0.1	544.439	1.44	545.879	0	PA_with_intermediate	test	ward_and_allport	89	40.0	1.44	to_hand	poldrack-single-stim	s622	False
0.1	545.88	0.296	546.176	0	PA_with_intermediate	test	ward_and_allport	71	40.0	0.296	to_board	poldrack-single-stim	s622	False
0.1	546.186	0.597	546.783	0	PA_with_intermediate	test	ward_and_allport	82	40.0	0.597	to_hand	poldrack-single-stim	s622	False
0.1	546.784	0.924	547.708	0	PA_with_intermediate	test	ward_and_allport	71	40.0	0.924	to_board	poldrack-single-stim	s622	False
1.0	547.72	2.816	547.719	0	PA_with_intermediate	test	ward_and_allport	-1	40.0	n/a	feedback	poldrack-single-stim	s622	False
2.239	550.544	2.239	552.783	1	PA_without_intermediate	test	ward_and_allport	82	41.0	2.239	to_hand	poldrack-single-stim	s622	False
0.1	552.784	0.367	553.151	0	PA_without_intermediate	test	ward_and_allport	89	41.0	0.367	to_board	poldrack-single-stim	s622	False
0.1	553.16	3.281	556.441	0	PA_without_intermediate	test	ward_and_allport	82	41.0	3.281	to_hand	poldrack-single-stim	s622	False
0.1	556.441	0.329	556.77	0	PA_without_intermediate	test	ward_and_allport	71	41.0	0.329	to_board	poldrack-single-stim	s622	False
0.1	556.779	0.636	557.415	0	PA_without_intermediate	test	ward_and_allport	82	41.0	0.636	to_hand	poldrack-single-stim	s622	False
0.1	557.416	0.233	557.649	0	PA_without_intermediate	test	ward_and_allport	89	41.0	0.233	to_board	poldrack-single-stim	s622	False
1.0	557.662	3.088	557.661	0	PA_without_intermediate	test	ward_and_allport	-1	41.0	n/a	feedback	poldrack-single-stim	s622	False
2.049	560.758	2.049	562.807	1	PA_without_intermediate	test	ward_and_allport	89	42.0	2.049	to_hand	poldrack-single-stim	s622	False
0.1	562.808	0.531	563.339	0	PA_without_intermediate	test	ward_and_allport	82	42.0	0.531	to_board	poldrack-single-stim	s622	False
0.1	563.346	1.273	564.619	0	PA_without_intermediate	test	ward_and_allport	89	42.0	1.273	to_hand	poldrack-single-stim	s622	False
0.1	564.62	0.421	565.041	0	PA_without_intermediate	test	ward_and_allport	71	42.0	0.421	to_board	poldrack-single-stim	s622	False
0.1	565.052	0.475	565.527	0	PA_without_intermediate	test	ward_and_allport	89	42.0	0.475	to_hand	poldrack-single-stim	s622	False
0.1	565.527	0.525	566.052	0	PA_without_intermediate	test	ward_and_allport	82	42.0	0.525	to_board	poldrack-single-stim	s622	False
1.0	566.063	2.136	566.062	0	PA_without_intermediate	test	ward_and_allport	-1	42.0	n/a	feedback	poldrack-single-stim	s622	False
