onset	duration	movement_onset	EV	action	block_duration	experiment_exp_id	gain_amount	gain_probability	key_press	loss_amount	loss_probability	num_cards	num_click_in_round	num_loss_cards	risk	response_time	total_cards	trial_id	trial_type	worker_id	junk	feedback
3.012	3.334	6.346	-1.9797824772824768	draw_card	3.334	columbia_card_task_fmri	12.0	0.8333333333333334	89.0	-70.0	0.1666666666666666	6.0	1.0	1.0	-1.749275530226381	3.334	n/a	stim	poldrack-single-stim	s622	False	1
6.347	1.861	8.208	-4.713115810615809	end_round	1.861	columbia_card_task_fmri	12.0	0.8	71.0	-70.0	0.2	6.0	2.0	1.0	0.4910192170201313	1.861	1.0	stim	poldrack-single-stim	s622	False	1
8.961	1.5	8.21	n/a	-1.0	2.454	columbia_card_task_fmri	n/a	n/a	-1.0	n/a	n/a	n/a	n/a	n/a	n/a	n/a	n/a	ITI	poldrack-single-stim	s622	False	0
10.666	2.624	13.29	-1.146449143949143	draw_card	2.624	columbia_card_task_fmri	14.0	0.8333333333333334	89.0	-75.0	0.1666666666666666	6.0	1.0	1.0	0.8593442872491863	2.624	1.0	stim	poldrack-single-stim	s622	False	0
14.044	1.5	13.293	n/a	-1.0	2.454	columbia_card_task_fmri	n/a	n/a	-1.0	n/a	n/a	n/a	n/a	n/a	n/a	n/a	n/a	ITI	poldrack-single-stim	s622	False	0
15.748	3.87	19.618	0.5202175227175228	draw_card	3.87	columbia_card_task_fmri	15.0	0.8333333333333334	89.0	-70.0	0.1666666666666666	6.0	1.0	1.0	-0.6312981525934553	3.87	1.0	stim	poldrack-single-stim	s622	False	0
20.37	1.5	19.619	n/a	-1.0	2.522	columbia_card_task_fmri	n/a	n/a	-1.0	n/a	n/a	n/a	n/a	n/a	n/a	n/a	n/a	ITI	poldrack-single-stim	s622	False	0
22.146	2.031	24.177	1.353550856050857	end_round	2.031	columbia_card_task_fmri	17.0	0.8333333333333334	71.0	-75.0	0.1666666666666666	6.0	1.0	1.0	1.977330085482862	2.031	0.0	stim	poldrack-single-stim	s622	False	1
24.929	1.5	24.178	n/a	-1.0	2.454	columbia_card_task_fmri	n/a	n/a	-1.0	n/a	n/a	n/a	n/a	n/a	n/a	n/a	n/a	ITI	poldrack-single-stim	s622	False	0
26.635	1.961	28.596	2.686884189384189	draw_card	1.961	columbia_card_task_fmri	24.0	0.75	89.0	-60.0	0.25	8.0	1.0	2.0	4.063939371074795	1.961	n/a	stim	poldrack-single-stim	s622	False	1
28.598	1.995	30.593	-0.3131158106158111	draw_card	1.995	columbia_card_task_fmri	24.0	0.7142857142857143	89.0	-60.0	0.2857142857142857	8.0	2.0	2.0	5.638148426206158	1.995	n/a	stim	poldrack-single-stim	s622	False	1
30.595	1.299	31.894	-4.313115810615811	end_round	1.299	columbia_card_task_fmri	24.0	0.6666666666666667	71.0	-60.0	0.3333333333333333	8.0	3.0	2.0	7.288742403958146	1.299	2.0	stim	poldrack-single-stim	s622	False	1
32.646	1.5	31.895	n/a	-1.0	2.658	columbia_card_task_fmri	n/a	n/a	-1.0	n/a	n/a	n/a	n/a	n/a	n/a	n/a	n/a	ITI	poldrack-single-stim	s622	False	0
34.555	1.685	36.24	2.686884189384189	draw_card	1.685	columbia_card_task_fmri	29.0	0.75	89.0	-75.0	0.25	8.0	1.0	2.0	12.72393424356651	1.685	n/a	stim	poldrack-single-stim	s622	False	1
36.24	1.299	37.539	-1.027401524901523	end_round	1.299	columbia_card_task_fmri	29.0	0.7142857142857143	71.0	-75.0	0.2857142857142857	8.0	2.0	2.0	14.672979040596708	1.299	1.0	stim	poldrack-single-stim	s622	False	1
38.294	1.5	37.543	n/a	-1.0	2.386	columbia_card_task_fmri	n/a	n/a	-1.0	n/a	n/a	n/a	n/a	n/a	n/a	n/a	n/a	ITI	poldrack-single-stim	s622	False	0
39.931	2.587	42.518	-1.5353380328380308	draw_card	2.587	columbia_card_task_fmri	17.0	0.7777777777777778	89.0	-65.0	0.2222222222222222	9.0	1.0	2.0	1.7816188289496608	2.587	n/a	stim	poldrack-single-stim	s622	False	1
42.519	2.692	45.211	-3.813115810615811	end_round	2.692	columbia_card_task_fmri	17.0	0.75	71.0	-65.0	0.25	9.0	2.0	2.0	3.197946836668706	2.692	1.0	stim	poldrack-single-stim	s622	False	1
45.966	1.5	45.215	n/a	-1.0	2.522	columbia_card_task_fmri	n/a	n/a	-1.0	n/a	n/a	n/a	n/a	n/a	n/a	n/a	n/a	ITI	poldrack-single-stim	s622	False	0
47.74	3.271	51.011	2.7868841893841885	draw_card	3.271	columbia_card_task_fmri	14.0	0.9	89.0	-95.0	0.1	10.0	1.0	1.0	0.3910237871509281	3.271	n/a	stim	poldrack-single-stim	s622	False	1
51.012	2.858	53.87	1.5757730782730763	draw_card	2.858	columbia_card_task_fmri	14.0	0.8888888888888888	89.0	-95.0	0.1111111111111111	10.0	2.0	1.0	1.9463509009434008	2.858	n/a	stim	poldrack-single-stim	s622	False	1
53.872	1.221	55.093	0.0618841893841888	end_round	1.221	columbia_card_task_fmri	14.0	0.875	71.0	-95.0	0.125	10.0	3.0	1.0	3.739246164291707	1.221	2.0	stim	poldrack-single-stim	s622	False	1
55.845	1.5	55.094	n/a	-1.0	2.59	columbia_card_task_fmri	n/a	n/a	-1.0	n/a	n/a	n/a	n/a	n/a	n/a	n/a	n/a	ITI	poldrack-single-stim	s622	False	0
57.686	2.283	59.969	-1.3131158106158112	draw_card	2.283	columbia_card_task_fmri	15.0	0.8	89.0	-65.0	0.2	10.0	1.0	2.0	-0.3089434222170837	2.283	n/a	stim	poldrack-single-stim	s622	False	1
59.971	1.799	61.77	-3.090893588393588	draw_card	1.799	columbia_card_task_fmri	15.0	0.7777777777777778	89.0	-65.0	0.2222222222222222	10.0	2.0	2.0	0.9501753561555616	1.799	n/a	stim	poldrack-single-stim	s622	False	1
61.772	1.853	63.625	-5.313115810615811	end_round	1.853	columbia_card_task_fmri	15.0	0.75	71.0	-65.0	0.25	10.0	3.0	2.0	2.331955945633254	1.853	2.0	stim	poldrack-single-stim	s622	False	1
64.38	1.5	63.629	n/a	-1.0	2.386	columbia_card_task_fmri	n/a	n/a	-1.0	n/a	n/a	n/a	n/a	n/a	n/a	n/a	n/a	ITI	poldrack-single-stim	s622	False	0
66.018	1.812	67.83	0.2868841893841903	draw_card	1.812	columbia_card_task_fmri	17.0	0.8	89.0	-65.0	0.2	10.0	1.0	2.0	0.4910192170201313	1.812	n/a	stim	poldrack-single-stim	s622	False	1
67.831	2.67	70.501	-1.5353380328380308	draw_card	2.67	columbia_card_task_fmri	17.0	0.7777777777777778	89.0	-65.0	0.2222222222222222	10.0	2.0	2.0	1.7816188289496608	2.67	n/a	stim	poldrack-single-stim	s622	False	1
70.502	3.864	74.366	-3.813115810615811	draw_card	3.864	columbia_card_task_fmri	17.0	0.75	89.0	-65.0	0.25	10.0	3.0	2.0	3.197946836668706	3.864	n/a	stim	poldrack-single-stim	s622	False	1
74.367	4.546	78.913	-6.741687239187238	end_round	4.546	columbia_card_task_fmri	17.0	0.7142857142857143	71.0	-65.0	0.2857142857142857	10.0	4.0	2.0	4.7346720292216204	4.546	3.0	stim	poldrack-single-stim	s622	False	1
79.665	1.5	78.914	n/a	-1.0	2.59	columbia_card_task_fmri	n/a	n/a	-1.0	n/a	n/a	n/a	n/a	n/a	n/a	n/a	n/a	ITI	poldrack-single-stim	s622	False	0
81.506	1.914	83.42	-1.146449143949143	draw_card	1.914	columbia_card_task_fmri	13.0	0.8333333333333334	89.0	-70.0	0.1666666666666666	12.0	1.0	2.0	-1.3766168590216914	1.914	n/a	stim	poldrack-single-stim	s622	False	1
83.422	2.396	85.818	-2.4040249015249047	draw_card	2.396	columbia_card_task_fmri	13.0	0.8181818181818181	89.0	-70.0	0.1818181818181818	12.0	2.0	2.0	-0.2962915702759403	2.396	n/a	stim	poldrack-single-stim	s622	False	1
85.82	1.101	86.921	-3.913115810615811	end_round	1.101	columbia_card_task_fmri	13.0	0.8	71.0	-70.0	0.2	12.0	3.0	2.0	0.8910012117874544	1.101	2.0	stim	poldrack-single-stim	s622	False	1
87.675	1.5	86.924	n/a	-1.0	2.318	columbia_card_task_fmri	n/a	n/a	-1.0	n/a	n/a	n/a	n/a	n/a	n/a	n/a	n/a	ITI	poldrack-single-stim	s622	False	0
89.245	1.66	90.905	-1.146449143949143	draw_card	1.66	columbia_card_task_fmri	15.0	0.8333333333333334	89.0	-80.0	0.1666666666666666	12.0	1.0	2.0	3.0953189271435946	1.66	n/a	stim	poldrack-single-stim	s622	False	1
90.906	2.828	93.734	-2.5858430833430863	draw_card	2.828	columbia_card_task_fmri	15.0	0.8181818181818181	89.0	-80.0	0.1818181818181818	12.0	2.0	2.0	4.331850310458513	2.828	n/a	stim	poldrack-single-stim	s622	False	1
93.736	2.702	96.438	-4.313115810615811	draw_card	2.702	columbia_card_task_fmri	15.0	0.8	89.0	-80.0	0.2	12.0	3.0	2.0	5.690814713825127	2.702	n/a	stim	poldrack-single-stim	s622	False	1
96.439	1.947	98.386	-6.424226921726923	end_round	1.947	columbia_card_task_fmri	15.0	0.7777777777777778	71.0	-80.0	0.2222222222222222	12.0	4.0	2.0	7.186038292620992	1.947	3.0	stim	poldrack-single-stim	s622	False	1
99.14	1.5	98.389	n/a	-1.0	2.25	columbia_card_task_fmri	n/a	n/a	-1.0	n/a	n/a	n/a	n/a	n/a	n/a	n/a	n/a	ITI	poldrack-single-stim	s622	False	0
100.641	2.447	103.088	-2.11311581061581	draw_card	2.447	columbia_card_task_fmri	14.0	0.8	89.0	-65.0	0.2	15.0	1.0	3.0	-0.7089240325054895	2.447	1.0	stim	poldrack-single-stim	s622	False	0
103.844	1.5	103.093	n/a	-1.0	2.454	columbia_card_task_fmri	n/a	n/a	-1.0	n/a	n/a	n/a	n/a	n/a	n/a	n/a	n/a	ITI	poldrack-single-stim	s622	False	0
105.55	5.258	110.808	-2.188115810615811	end_round	5.258	columbia_card_task_fmri	1.0	0.9375	71.0	-45.0	0.0625	16.0	1.0	1.0	-21.17124656261518	5.258	0.0	stim	poldrack-single-stim	s622	False	1
111.564	1.5	110.813	n/a	-1.0	3.27	columbia_card_task_fmri	n/a	n/a	-1.0	n/a	n/a	n/a	n/a	n/a	n/a	n/a	n/a	ITI	poldrack-single-stim	s622	False	0
114.086	2.44	116.526	-1.2506158106158112	draw_card	2.44	columbia_card_task_fmri	15.0	0.8125	89.0	-70.0	0.1875	16.0	1.0	3.0	0.8675541217729403	2.44	n/a	stim	poldrack-single-stim	s622	False	1
116.528	1.308	117.836	-2.313115810615811	draw_card	1.308	columbia_card_task_fmri	15.0	0.8	89.0	-70.0	0.2	16.0	2.0	3.0	1.690966472197239	1.308	n/a	stim	poldrack-single-stim	s622	False	1
117.838	2.028	119.866	-3.5274015249015265	draw_card	2.028	columbia_card_task_fmri	15.0	0.7857142857142857	89.0	-70.0	0.2142857142857142	16.0	3.0	3.0	2.5686319742491364	2.028	3.0	stim	poldrack-single-stim	s622	False	0
120.622	1.5	119.871	n/a	-1.0	2.25	columbia_card_task_fmri	n/a	n/a	-1.0	n/a	n/a	n/a	n/a	n/a	n/a	n/a	n/a	ITI	poldrack-single-stim	s622	False	0
122.124	2.879	125.003	5.686884189384189	draw_card	2.879	columbia_card_task_fmri	30.0	0.7	89.0	-50.0	0.3	10.0	1.0	3.0	4.351467401831975	2.879	1.0	stim	poldrack-single-stim	s622	False	0
125.756	1.5	125.005	n/a	-1.0	2.25	columbia_card_task_fmri	n/a	n/a	-1.0	n/a	n/a	n/a	n/a	n/a	n/a	n/a	n/a	ITI	poldrack-single-stim	s622	False	0
127.257	2.373	129.63	5.08688418938419	draw_card	2.373	columbia_card_task_fmri	17.0	0.8666666666666667	89.0	-70.0	0.1333333333333333	15.0	1.0	2.0	-2.7345046067512726	2.373	n/a	stim	poldrack-single-stim	s622	False	1
129.632	1.907	131.539	4.258312760812762	draw_card	1.907	columbia_card_task_fmri	17.0	0.8571428571428572	89.0	-70.0	0.1428571428571428	15.0	2.0	2.0	-1.8652068826241788	1.907	n/a	stim	poldrack-single-stim	s622	False	1
131.54	2.442	133.982	3.302268804768804	draw_card	2.442	columbia_card_task_fmri	17.0	0.8461538461538461	89.0	-70.0	0.1538461538461538	15.0	3.0	2.0	-0.9192081708623654	2.442	n/a	stim	poldrack-single-stim	s622	False	1
133.985	3.977	137.962	2.1868841893841906	end_round	3.977	columbia_card_task_fmri	17.0	0.8333333333333334	71.0	-70.0	0.1666666666666666	15.0	4.0	2.0	0.1140222680141676	3.977	3.0	stim	poldrack-single-stim	s622	False	1
138.717	1.5	137.966	n/a	-1.0	2.318	columbia_card_task_fmri	n/a	n/a	-1.0	n/a	n/a	n/a	n/a	n/a	n/a	n/a	n/a	ITI	poldrack-single-stim	s622	False	0
140.287	2.888	143.175	0.3118841893841889	draw_card	2.888	columbia_card_task_fmri	7.0	0.9375	89.0	-95.0	0.0625	16.0	1.0	1.0	-7.618221103730722	2.888	n/a	stim	poldrack-single-stim	s622	False	1
143.178	1.632	144.81	-0.1131158106158109	draw_card	1.632	columbia_card_task_fmri	7.0	0.9333333333333332	89.0	-95.0	0.0666666666666666	16.0	2.0	1.0	-6.865278458217993	1.632	n/a	stim	poldrack-single-stim	s622	False	1
144.812	1.886	146.698	-0.5988300963300968	draw_card	1.886	columbia_card_task_fmri	7.0	0.9285714285714286	89.0	-95.0	0.0714285714285714	16.0	3.0	1.0	-6.039592809436631	1.886	3.0	stim	poldrack-single-stim	s622	False	0
147.451	1.5	146.7	n/a	-1.0	2.726	columbia_card_task_fmri	n/a	n/a	-1.0	n/a	n/a	n/a	n/a	n/a	n/a	n/a	n/a	ITI	poldrack-single-stim	s622	False	0
149.428	4.149	153.577	1.8743841893841888	draw_card	4.149	columbia_card_task_fmri	9.0	0.9375	89.0	-100.0	0.0625	16.0	1.0	1.0	-5.923918379915524	4.149	n/a	stim	poldrack-single-stim	s622	False	1
153.579	1.588	155.167	1.4202175227175222	draw_card	1.588	columbia_card_task_fmri	9.0	0.9333333333333332	89.0	-100.0	0.0666666666666666	16.0	2.0	1.0	-5.119295395579286	1.588	n/a	stim	poldrack-single-stim	s622	False	1
155.169	2.135	157.304	0.901169903669904	draw_card	2.135	columbia_card_task_fmri	9.0	0.9285714285714286	89.0	-100.0	0.0714285714285714	16.0	3.0	1.0	-4.236937001374585	2.135	n/a	stim	poldrack-single-stim	s622	False	1
157.306	1.515	158.821	0.3022688047688047	end_round	1.515	columbia_card_task_fmri	9.0	0.9230769230769232	71.0	-100.0	0.0769230769230769	16.0	4.0	1.0	-3.2636278943641948	1.515	3.0	stim	poldrack-single-stim	s622	False	1
159.578	1.5	158.827	n/a	-1.0	2.386	columbia_card_task_fmri	n/a	n/a	-1.0	n/a	n/a	n/a	n/a	n/a	n/a	n/a	n/a	ITI	poldrack-single-stim	s622	False	0
161.216	7.548	168.764	2.811884189384189	draw_card	7.548	columbia_card_task_fmri	15.0	0.875	89.0	-80.0	0.125	16.0	1.0	2.0	-0.8906182426178475	7.548	n/a	stim	poldrack-single-stim	s622	False	1
168.766	1.235	170.001	2.0202175227175228	end_round	1.235	columbia_card_task_fmri	15.0	0.8666666666666667	71.0	-80.0	0.1333333333333333	16.0	2.0	2.0	-0.0151671047999997	1.235	1.0	stim	poldrack-single-stim	s622	False	1
170.756	1.5	170.005	n/a	-1.0	2.318	columbia_card_task_fmri	n/a	n/a	-1.0	n/a	n/a	n/a	n/a	n/a	n/a	n/a	n/a	ITI	poldrack-single-stim	s622	False	0
172.326	3.141	175.467	4.936884189384189	draw_card	3.141	columbia_card_task_fmri	16.0	0.875	89.0	-70.0	0.125	16.0	1.0	2.0	-3.866925197876157	3.141	n/a	stim	poldrack-single-stim	s622	False	1
175.469	1.983	177.452	4.2202175227175225	draw_card	1.983	columbia_card_task_fmri	16.0	0.8666666666666667	89.0	-70.0	0.1333333333333333	16.0	2.0	2.0	-3.0744199688506413	1.983	2.0	stim	poldrack-single-stim	s622	False	0
178.206	1.5	177.455	n/a	-1.0	2.25	columbia_card_task_fmri	n/a	n/a	-1.0	n/a	n/a	n/a	n/a	n/a	n/a	n/a	n/a	ITI	poldrack-single-stim	s622	False	0
179.708	1.496	181.204	6.249384189384189	draw_card	1.496	columbia_card_task_fmri	30.0	0.6875	89.0	-45.0	0.3125	16.0	1.0	5.0	2.45436521973064	1.496	n/a	stim	poldrack-single-stim	s622	False	1
181.205	1.144	182.349	4.686884189384193	end_round	1.144	columbia_card_task_fmri	30.0	0.6666666666666667	71.0	-45.0	0.3333333333333333	16.0	2.0	5.0	3.046250264325927	1.144	1.0	stim	poldrack-single-stim	s622	False	1
183.107	1.5	182.356	n/a	-1.0	2.25	columbia_card_task_fmri	n/a	n/a	-1.0	n/a	n/a	n/a	n/a	n/a	n/a	n/a	n/a	ITI	poldrack-single-stim	s622	False	0
184.608	3.126	187.734	-1.9797824772824768	draw_card	3.126	columbia_card_task_fmri	13.0	0.8333333333333334	89.0	-75.0	0.1666666666666666	6.0	1.0	1.0	0.4866830846149597	3.126	n/a	stim	poldrack-single-stim	s622	False	1
187.736	1.224	188.96	-4.91311581061581	end_round	1.224	columbia_card_task_fmri	13.0	0.8	71.0	-75.0	0.2	6.0	2.0	1.0	2.8909173233911503	1.224	1.0	stim	poldrack-single-stim	s622	False	1
189.716	1.5	188.965	n/a	-1.0	2.454	columbia_card_task_fmri	n/a	n/a	-1.0	n/a	n/a	n/a	n/a	n/a	n/a	n/a	n/a	ITI	poldrack-single-stim	s622	False	0
191.422	3.011	194.433	-0.3131158106158093	draw_card	3.011	columbia_card_task_fmri	14.0	0.8333333333333334	89.0	-70.0	0.1666666666666666	6.0	1.0	1.0	-1.003957727731823	3.011	n/a	stim	poldrack-single-stim	s622	False	1
194.435	1.053	195.488	-3.11311581061581	end_round	1.053	columbia_card_task_fmri	14.0	0.8	71.0	-70.0	0.2	6.0	2.0	1.0	1.2909836352225383	1.053	1.0	stim	poldrack-single-stim	s622	False	1
196.242	1.5	195.491	n/a	-1.0	2.454	columbia_card_task_fmri	n/a	n/a	-1.0	n/a	n/a	n/a	n/a	n/a	n/a	n/a	n/a	ITI	poldrack-single-stim	s622	False	0
197.948	5.615	203.563	-0.3131158106158093	draw_card	5.615	columbia_card_task_fmri	16.0	0.8333333333333334	89.0	-80.0	0.1666666666666666	6.0	1.0	1.0	3.4679825013700807	5.615	n/a	stim	poldrack-single-stim	s622	False	1
203.564	1.944	205.508	-3.5131158106158105	draw_card	1.944	columbia_card_task_fmri	16.0	0.8	89.0	-80.0	0.2	6.0	2.0	1.0	6.090801276795183	1.944	n/a	stim	poldrack-single-stim	s622	False	1
205.511	1.041	206.552	-8.31311581061581	end_round	1.041	columbia_card_task_fmri	16.0	0.75	71.0	-80.0	0.25	6.0	3.0	1.0	9.25992333686569	1.041	2.0	stim	poldrack-single-stim	s622	False	1
207.305	1.5	206.554	n/a	-1.0	2.522	columbia_card_task_fmri	n/a	n/a	-1.0	n/a	n/a	n/a	n/a	n/a	n/a	n/a	n/a	ITI	poldrack-single-stim	s622	False	0
209.079	2.17	211.249	2.1868841893841906	draw_card	2.17	columbia_card_task_fmri	17.0	0.8333333333333334	89.0	-70.0	0.1666666666666666	6.0	1.0	1.0	0.1140222680141676	2.17	n/a	stim	poldrack-single-stim	s622	False	1
211.25	1.794	213.044	-0.7131158106158098	end_round	1.794	columbia_card_task_fmri	17.0	0.8	71.0	-70.0	0.2	6.0	2.0	1.0	2.490933329730268	1.794	1.0	stim	poldrack-single-stim	s622	False	1
213.799	1.5	213.048	n/a	-1.0	2.386	columbia_card_task_fmri	n/a	n/a	-1.0	n/a	n/a	n/a	n/a	n/a	n/a	n/a	n/a	ITI	poldrack-single-stim	s622	False	0
215.437	2.051	217.488	2.186884189384189	draw_card	2.051	columbia_card_task_fmri	25.0	0.75	89.0	-65.0	0.25	8.0	1.0	2.0	6.661925739012375	2.051	n/a	stim	poldrack-single-stim	s622	False	1
217.49	2.557	220.047	-1.027401524901523	draw_card	2.557	columbia_card_task_fmri	25.0	0.7142857142857143	89.0	-65.0	0.2857142857142857	8.0	2.0	2.0	8.348586018343873	2.557	2.0	stim	poldrack-single-stim	s622	False	0
220.803	1.5	220.052	n/a	-1.0	2.454	columbia_card_task_fmri	n/a	n/a	-1.0	n/a	n/a	n/a	n/a	n/a	n/a	n/a	n/a	ITI	poldrack-single-stim	s622	False	0
222.508	1.471	223.979	2.186884189384189	draw_card	1.471	columbia_card_task_fmri	30.0	0.75	89.0	-80.0	0.25	8.0	1.0	2.0	15.321951081825098	1.471	n/a	stim	poldrack-single-stim	s622	False	1
223.982	2.372	226.354	-1.741687239187235	draw_card	2.372	columbia_card_task_fmri	30.0	0.7142857142857143	89.0	-80.0	0.2857142857142857	8.0	2.0	2.0	17.383445839183032	2.372	2.0	stim	poldrack-single-stim	s622	False	0
227.108	1.5	226.357	n/a	-1.0	2.522	columbia_card_task_fmri	n/a	n/a	-1.0	n/a	n/a	n/a	n/a	n/a	n/a	n/a	n/a	ITI	poldrack-single-stim	s622	False	0
228.882	4.503	233.385	1.88688418938419	draw_card	4.503	columbia_card_task_fmri	13.0	0.9	89.0	-95.0	0.1	10.0	1.0	1.0	0.0910376667956853	4.503	n/a	stim	poldrack-single-stim	s622	False	1
233.387	1.414	234.801	0.6868841893841888	draw_card	1.414	columbia_card_task_fmri	13.0	0.8888888888888888	89.0	-95.0	0.1111111111111111	10.0	2.0	1.0	1.6320944699253983	1.414	n/a	stim	poldrack-single-stim	s622	False	1
234.804	1.613	236.417	-0.8131158106158112	draw_card	1.613	columbia_card_task_fmri	13.0	0.875	89.0	-95.0	0.125	10.0	3.0	1.0	3.40853984099369	1.613	n/a	stim	poldrack-single-stim	s622	False	1
236.419	1.951	238.37	-2.7416872391872382	draw_card	1.951	columbia_card_task_fmri	13.0	0.8571428571428572	89.0	-95.0	0.1428571428571428	10.0	4.0	1.0	5.482949269195146	1.951	4.0	stim	poldrack-single-stim	s622	False	0
239.125	1.5	238.374	n/a	-1.0	2.522	columbia_card_task_fmri	n/a	n/a	-1.0	n/a	n/a	n/a	n/a	n/a	n/a	n/a	n/a	ITI	poldrack-single-stim	s622	False	0
240.901	0.668	241.569	3.2868841893841885	draw_card	0.668	columbia_card_task_fmri	14.0	0.9	89.0	-90.0	0.1	10.0	1.0	1.0	-1.1089041456588902	0.668	n/a	stim	poldrack-single-stim	s622	False	1
241.571	3.472	245.043	2.131328633828632	draw_card	3.472	columbia_card_task_fmri	14.0	0.8888888888888888	89.0	-90.0	0.1111111111111111	10.0	2.0	1.0	0.3750712936654423	3.472	n/a	stim	poldrack-single-stim	s622	False	1
245.046	1.222	246.268	0.6868841893841888	end_round	1.222	columbia_card_task_fmri	14.0	0.875	71.0	-90.0	0.125	10.0	3.0	1.0	2.085716968921652	1.222	2.0	stim	poldrack-single-stim	s622	False	1
247.023	1.5	246.272	n/a	-1.0	2.59	columbia_card_task_fmri	n/a	n/a	-1.0	n/a	n/a	n/a	n/a	n/a	n/a	n/a	n/a	ITI	poldrack-single-stim	s622	False	0
248.865	2.367	251.232	-1.5131158106158105	draw_card	2.367	columbia_card_task_fmri	16.0	0.8	89.0	-70.0	0.2	10.0	1.0	2.0	2.0909497082869635	2.367	n/a	stim	poldrack-single-stim	s622	False	1
251.235	0.956	252.191	-3.424226921726922	end_round	0.956	columbia_card_task_fmri	16.0	0.7777777777777778	71.0	-70.0	0.2222222222222222	10.0	2.0	2.0	3.4445107900266194	0.956	1.0	stim	poldrack-single-stim	s622	False	1
252.948	1.5	252.197	n/a	-1.0	2.454	columbia_card_task_fmri	n/a	n/a	-1.0	n/a	n/a	n/a	n/a	n/a	n/a	n/a	n/a	ITI	poldrack-single-stim	s622	False	0
254.654	3.679	258.333	-2.229782477282477	draw_card	3.679	columbia_card_task_fmri	7.0	0.9166666666666666	89.0	-100.0	0.0833333333333333	12.0	1.0	1.0	-2.735580011313644	3.679	n/a	stim	poldrack-single-stim	s622	False	1
258.334	3.806	262.14	-3.04038853788854	end_round	3.806	columbia_card_task_fmri	7.0	0.9090909090909092	71.0	-100.0	0.0909090909090909	12.0	2.0	1.0	-1.548544450443103	3.806	1.0	stim	poldrack-single-stim	s622	False	1
262.898	1.5	262.147	n/a	-1.0	2.318	columbia_card_task_fmri	n/a	n/a	-1.0	n/a	n/a	n/a	n/a	n/a	n/a	n/a	n/a	ITI	poldrack-single-stim	s622	False	0
264.468	3.92	268.388	-1.9797824772824757	end_round	3.92	columbia_card_task_fmri	14.0	0.8333333333333334	71.0	-80.0	0.1666666666666666	12.0	1.0	2.0	2.7226556597504867	3.92	0.0	stim	poldrack-single-stim	s622	False	1
269.141	1.5	268.39	n/a	-1.0	2.25	columbia_card_task_fmri	n/a	n/a	-1.0	n/a	n/a	n/a	n/a	n/a	n/a	n/a	n/a	ITI	poldrack-single-stim	s622	False	0
270.644	3.509	274.153	-0.3131158106158111	draw_card	3.509	columbia_card_task_fmri	15.0	0.8333333333333334	89.0	-75.0	0.1666666666666666	12.0	1.0	2.0	1.2320058630502049	3.509	n/a	stim	poldrack-single-stim	s622	False	1
274.155	2.862	277.017	-1.6767521742521765	end_round	2.862	columbia_card_task_fmri	15.0	0.8181818181818181	71.0	-75.0	0.1818181818181818	12.0	2.0	2.0	2.4034515924828384	2.862	1.0	stim	poldrack-single-stim	s622	False	1
277.774	1.5	277.023	n/a	-1.0	2.658	columbia_card_task_fmri	n/a	n/a	-1.0	n/a	n/a	n/a	n/a	n/a	n/a	n/a	n/a	ITI	poldrack-single-stim	s622	False	0
279.685	4.212	283.897	-1.3131158106158112	draw_card	4.212	columbia_card_task_fmri	15.0	0.8	89.0	-65.0	0.2	15.0	1.0	3.0	-0.3089434222170837	4.212	n/a	stim	poldrack-single-stim	s622	False	1
283.899	1.715	285.614	-2.455972953472953	end_round	1.715	columbia_card_task_fmri	15.0	0.7857142857142857	71.0	-65.0	0.2142857142857142	15.0	2.0	3.0	0.5170902959909753	1.715	1.0	stim	poldrack-single-stim	s622	False	1
286.368	1.5	285.617	n/a	-1.0	2.454	columbia_card_task_fmri	n/a	n/a	-1.0	n/a	n/a	n/a	n/a	n/a	n/a	n/a	n/a	ITI	poldrack-single-stim	s622	False	0
288.075	4.456	292.531	-2.063115810615811	draw_card	4.456	columbia_card_task_fmri	14.0	0.8125	89.0	-70.0	0.1875	16.0	1.0	3.0	0.4772593358309009	4.456	n/a	stim	poldrack-single-stim	s622	False	1
292.533	1.44	293.973	-3.11311581061581	end_round	1.44	columbia_card_task_fmri	14.0	0.8	71.0	-70.0	0.2	16.0	2.0	3.0	1.2909836352225383	1.44	1.0	stim	poldrack-single-stim	s622	False	1
294.73	1.5	293.979	n/a	-1.0	2.386	columbia_card_task_fmri	n/a	n/a	-1.0	n/a	n/a	n/a	n/a	n/a	n/a	n/a	n/a	ITI	poldrack-single-stim	s622	False	0
296.368	2.306	298.674	-2.125615810615811	end_round	2.306	columbia_card_task_fmri	11.0	0.6875	71.0	-30.0	0.3125	16.0	1.0	5.0	-13.30388734047818	2.306	0.0	stim	poldrack-single-stim	s622	False	1
299.427	1.5	298.676	n/a	-1.0	2.59	columbia_card_task_fmri	n/a	n/a	-1.0	n/a	n/a	n/a	n/a	n/a	n/a	n/a	n/a	ITI	poldrack-single-stim	s622	False	0
301.27	3.516	304.786	2.686884189384189	draw_card	3.516	columbia_card_task_fmri	15.0	0.8666666666666667	89.0	-75.0	0.1333333333333333	15.0	1.0	2.0	-1.7147559510417842	3.516	n/a	stim	poldrack-single-stim	s622	False	1
304.789	1.127	305.916	1.829741332241333	end_round	1.127	columbia_card_task_fmri	15.0	0.8571428571428572	71.0	-75.0	0.1428571428571428	15.0	2.0	2.0	-0.8154792339169781	1.127	1.0	stim	poldrack-single-stim	s622	False	1
306.67	1.5	305.919	n/a	-1.0	2.318	columbia_card_task_fmri	n/a	n/a	-1.0	n/a	n/a	n/a	n/a	n/a	n/a	n/a	n/a	ITI	poldrack-single-stim	s622	False	0
308.241	3.258	311.499	4.420217522717524	draw_card	3.258	columbia_card_task_fmri	17.0	0.8666666666666667	89.0	-75.0	0.1333333333333333	15.0	1.0	2.0	-1.034921512353371	3.258	1.0	stim	poldrack-single-stim	s622	False	0
312.254	1.5	311.503	n/a	-1.0	2.59	columbia_card_task_fmri	n/a	n/a	-1.0	n/a	n/a	n/a	n/a	n/a	n/a	n/a	n/a	ITI	poldrack-single-stim	s622	False	0
314.096	3.577	317.673	-0.0006158106158111	draw_card	3.577	columbia_card_task_fmri	2.0	0.9375	89.0	-25.0	0.0625	16.0	1.0	1.0	-25.767319679952195	3.577	n/a	stim	poldrack-single-stim	s622	False	1
317.676	1.25	318.926	-0.1131158106158111	draw_card	1.25	columbia_card_task_fmri	2.0	0.9333333333333332	89.0	-25.0	0.0666666666666666	16.0	2.0	1.0	-25.56821739003606	1.25	n/a	stim	poldrack-single-stim	s622	False	1
318.929	1.226	320.155	-0.2416872391872395	draw_card	1.226	columbia_card_task_fmri	2.0	0.9285714285714286	89.0	-25.0	0.0714285714285714	16.0	3.0	1.0	-25.34986594824668	1.226	3.0	stim	poldrack-single-stim	s622	False	0
320.912	1.5	320.161	n/a	-1.0	2.386	columbia_card_task_fmri	n/a	n/a	-1.0	n/a	n/a	n/a	n/a	n/a	n/a	n/a	n/a	ITI	poldrack-single-stim	s622	False	0
322.551	3.202	325.753	2.186884189384189	draw_card	3.202	columbia_card_task_fmri	9.0	0.9375	89.0	-95.0	0.0625	16.0	1.0	1.0	-7.134136362249045	3.202	n/a	stim	poldrack-single-stim	s622	False	1
325.756	0.727	326.483	1.753550856050856	end_round	0.727	columbia_card_task_fmri	9.0	0.9333333333333332	71.0	-95.0	0.0666666666666666	16.0	2.0	1.0	-6.366427853844002	0.727	1.0	stim	poldrack-single-stim	s622	False	1
327.236	1.5	326.485	n/a	-1.0	2.318	columbia_card_task_fmri	n/a	n/a	-1.0	n/a	n/a	n/a	n/a	n/a	n/a	n/a	n/a	ITI	poldrack-single-stim	s622	False	0
328.807	3.719	332.526	3.749384189384189	draw_card	3.719	columbia_card_task_fmri	11.0	0.9375	89.0	-100.0	0.0625	16.0	1.0	1.0	-5.439828934268576	3.719	1.0	stim	poldrack-single-stim	s622	False	0
333.279	1.5	332.528	n/a	-1.0	2.318	columbia_card_task_fmri	n/a	n/a	-1.0	n/a	n/a	n/a	n/a	n/a	n/a	n/a	n/a	ITI	poldrack-single-stim	s622	False	0
334.849	8.714	343.563	4.311884189384189	end_round	8.714	columbia_card_task_fmri	16.0	0.875	71.0	-75.0	0.125	16.0	1.0	2.0	-2.213425320568181	8.714	0.0	stim	poldrack-single-stim	s622	False	1
344.319	1.5	343.568	n/a	-1.0	2.318	columbia_card_task_fmri	n/a	n/a	-1.0	n/a	n/a	n/a	n/a	n/a	n/a	n/a	n/a	ITI	poldrack-single-stim	s622	False	0
345.889	2.647	348.536	4.561884189384189	draw_card	2.647	columbia_card_task_fmri	17.0	0.875	89.0	-80.0	0.125	16.0	1.0	2.0	-0.2292125828424644	2.647	n/a	stim	poldrack-single-stim	s622	False	1
348.538	1.106	349.644	3.753550856050857	end_round	1.106	columbia_card_task_fmri	17.0	0.8666666666666667	71.0	-80.0	0.1333333333333333	16.0	2.0	2.0	0.6646708676491286	1.106	1.0	stim	poldrack-single-stim	s622	False	1
350.401	1.5	349.65	n/a	-1.0	2.386	columbia_card_task_fmri	n/a	n/a	-1.0	n/a	n/a	n/a	n/a	n/a	n/a	n/a	n/a	ITI	poldrack-single-stim	s622	False	0
363.047	4.867	367.914	-1.146449143949143	end_round	4.867	columbia_card_task_fmri	13.0	0.8333333333333334	71.0	-70.0	0.1666666666666666	6.0	1.0	1.0	-1.3766168590216914	4.867	0.0	stim	poldrack-single-stim	s622	False	1
368.671	1.5	367.92	n/a	-1.0	2.25	columbia_card_task_fmri	n/a	n/a	-1.0	n/a	n/a	n/a	n/a	n/a	n/a	n/a	n/a	ITI	poldrack-single-stim	s622	False	0
370.173	1.769	371.942	-1.146449143949143	end_round	1.769	columbia_card_task_fmri	15.0	0.8333333333333334	71.0	-80.0	0.1666666666666666	6.0	1.0	1.0	3.0953189271435946	1.769	0.0	stim	poldrack-single-stim	s622	False	1
372.695	1.5	371.944	n/a	-1.0	2.386	columbia_card_task_fmri	n/a	n/a	-1.0	n/a	n/a	n/a	n/a	n/a	n/a	n/a	n/a	ITI	poldrack-single-stim	s622	False	0
374.333	1.915	376.248	0.5202175227175228	draw_card	1.915	columbia_card_task_fmri	16.0	0.8333333333333334	89.0	-75.0	0.1666666666666666	6.0	1.0	1.0	1.6046677997168786	1.915	1.0	stim	poldrack-single-stim	s622	False	0
377.003	1.5	376.252	n/a	-1.0	2.59	columbia_card_task_fmri	n/a	n/a	-1.0	n/a	n/a	n/a	n/a	n/a	n/a	n/a	n/a	ITI	poldrack-single-stim	s622	False	0
378.845	1.399	380.244	1.6868841893841888	draw_card	1.399	columbia_card_task_fmri	21.0	0.75	89.0	-55.0	0.25	8.0	1.0	2.0	0.5999796125889958	1.399	n/a	stim	poldrack-single-stim	s622	False	1
380.247	1.574	381.821	-1.0274015249015247	end_round	1.574	columbia_card_task_fmri	21.0	0.7142857142857143	71.0	-55.0	0.2857142857142857	8.0	2.0	2.0	2.024252786920385	1.574	1.0	stim	poldrack-single-stim	s622	False	1
382.578	1.5	381.827	n/a	-1.0	2.658	columbia_card_task_fmri	n/a	n/a	-1.0	n/a	n/a	n/a	n/a	n/a	n/a	n/a	n/a	ITI	poldrack-single-stim	s622	False	0
384.488	1.667	386.155	2.936884189384189	draw_card	1.667	columbia_card_task_fmri	26.0	0.75	89.0	-65.0	0.25	8.0	1.0	2.0	7.094924618784376	1.667	n/a	stim	poldrack-single-stim	s622	False	1
386.158	1.366	387.524	-0.3131158106158075	draw_card	1.366	columbia_card_task_fmri	26.0	0.7142857142857143	89.0	-65.0	0.2857142857142857	8.0	2.0	2.0	8.800326721042637	1.366	n/a	stim	poldrack-single-stim	s622	False	1
387.528	0.894	388.422	-4.646449143949139	end_round	0.894	columbia_card_task_fmri	26.0	0.6666666666666667	71.0	-65.0	0.3333333333333333	8.0	3.0	2.0	10.588478825855326	0.894	2.0	stim	poldrack-single-stim	s622	False	1
389.176	1.5	388.425	n/a	-1.0	2.386	columbia_card_task_fmri	n/a	n/a	-1.0	n/a	n/a	n/a	n/a	n/a	n/a	n/a	n/a	ITI	poldrack-single-stim	s622	False	0
390.813	3.786	394.599	-1.9797824772824768	draw_card	3.786	columbia_card_task_fmri	15.0	0.7777777777777778	89.0	-60.0	0.2222222222222222	9.0	1.0	2.0	-1.1284249389186272	3.786	1.0	stim	poldrack-single-stim	s622	False	0
395.357	1.5	394.606	n/a	-1.0	2.386	columbia_card_task_fmri	n/a	n/a	-1.0	n/a	n/a	n/a	n/a	n/a	n/a	n/a	n/a	ITI	poldrack-single-stim	s622	False	0
396.995	3.834	400.829	2.38688418938419	draw_card	3.834	columbia_card_task_fmri	13.0	0.9	89.0	-90.0	0.1	10.0	1.0	1.0	-1.4088888926663614	3.834	n/a	stim	poldrack-single-stim	s622	False	1
400.833	2.464	403.297	1.2424397449397442	draw_card	2.464	columbia_card_task_fmri	13.0	0.8888888888888888	89.0	-90.0	0.1111111111111111	10.0	2.0	1.0	0.0608161736541461	2.464	n/a	stim	poldrack-single-stim	s622	False	1
403.3	2.269	405.569	-0.1881158106158111	draw_card	2.269	columbia_card_task_fmri	13.0	0.875	89.0	-90.0	0.125	10.0	3.0	1.0	1.7550118914397856	2.269	3.0	stim	poldrack-single-stim	s622	False	0
406.324	1.5	405.573	n/a	-1.0	2.25	columbia_card_task_fmri	n/a	n/a	-1.0	n/a	n/a	n/a	n/a	n/a	n/a	n/a	n/a	ITI	poldrack-single-stim	s622	False	0
407.828	1.583	409.411	3.686884189384189	draw_card	1.583	columbia_card_task_fmri	15.0	0.9	89.0	-95.0	0.1	10.0	1.0	1.0	0.6910101598461651	1.583	n/a	stim	poldrack-single-stim	s622	False	1
409.412	1.278	410.69	2.4646619671619656	draw_card	1.278	columbia_card_task_fmri	15.0	0.8888888888888888	89.0	-95.0	0.1111111111111111	10.0	2.0	1.0	2.260607572846609	1.278	n/a	stim	poldrack-single-stim	s622	False	1
410.693	2.172	412.865	0.9368841893841888	end_round	2.172	columbia_card_task_fmri	15.0	0.875	71.0	-95.0	0.125	10.0	3.0	1.0	4.069952716496616	2.172	2.0	stim	poldrack-single-stim	s622	False	1
413.618	1.5	412.867	n/a	-1.0	2.318	columbia_card_task_fmri	n/a	n/a	-1.0	n/a	n/a	n/a	n/a	n/a	n/a	n/a	n/a	ITI	poldrack-single-stim	s622	False	0
415.189	2.332	417.521	-0.5131158106158105	draw_card	2.332	columbia_card_task_fmri	16.0	0.8	89.0	-65.0	0.2	10.0	1.0	2.0	0.0910376667956782	2.332	n/a	stim	poldrack-single-stim	s622	False	1
417.526	0.681	418.207	-2.3131158106158094	end_round	0.681	columbia_card_task_fmri	16.0	0.7777777777777778	71.0	-65.0	0.2222222222222222	10.0	2.0	2.0	1.365896870675094	0.681	1.0	stim	poldrack-single-stim	s622	False	1
418.961	1.5	418.21	n/a	-1.0	2.25	columbia_card_task_fmri	n/a	n/a	-1.0	n/a	n/a	n/a	n/a	n/a	n/a	n/a	n/a	ITI	poldrack-single-stim	s622	False	0
420.463	2.394	422.857	-1.8131158106158112	draw_card	2.394	columbia_card_task_fmri	7.0	0.9166666666666666	89.0	-95.0	0.0833333333333333	12.0	1.0	1.0	-4.117425759304819	2.394	n/a	stim	poldrack-single-stim	s622	False	1
422.86	0.832	423.692	-2.5858430833430845	draw_card	0.832	columbia_card_task_fmri	7.0	0.9090909090909092	89.0	-95.0	0.0909090909090909	12.0	2.0	1.0	-2.985865273884638	0.832	2.0	stim	poldrack-single-stim	s622	False	0
424.449	1.5	423.698	n/a	-1.0	2.25	columbia_card_task_fmri	n/a	n/a	-1.0	n/a	n/a	n/a	n/a	n/a	n/a	n/a	n/a	ITI	poldrack-single-stim	s622	False	0
425.952	2.89	428.842	-1.146449143949143	draw_card	2.89	columbia_card_task_fmri	14.0	0.8333333333333334	89.0	-75.0	0.1666666666666666	12.0	1.0	2.0	0.8593442872491863	2.89	1.0	stim	poldrack-single-stim	s622	False	0
429.599	1.5	428.848	n/a	-1.0	2.386	columbia_card_task_fmri	n/a	n/a	-1.0	n/a	n/a	n/a	n/a	n/a	n/a	n/a	n/a	ITI	poldrack-single-stim	s622	False	0
431.237	2.383	433.62	0.5202175227175228	draw_card	2.383	columbia_card_task_fmri	15.0	0.8333333333333334	89.0	-70.0	0.1666666666666666	12.0	1.0	2.0	-0.6312981525934553	2.383	n/a	stim	poldrack-single-stim	s622	False	1
433.624	0.528	434.152	-0.767661265161268	end_round	0.528	columbia_card_task_fmri	15.0	0.8181818181818181	71.0	-70.0	0.1818181818181818	12.0	2.0	2.0	0.4750616176615381	0.528	1.0	stim	poldrack-single-stim	s622	False	1
434.905	1.5	434.154	n/a	-1.0	2.386	columbia_card_task_fmri	n/a	n/a	-1.0	n/a	n/a	n/a	n/a	n/a	n/a	n/a	n/a	ITI	poldrack-single-stim	s622	False	0
436.544	1.779	438.323	-1.5131158106158105	draw_card	1.779	columbia_card_task_fmri	16.0	0.8	89.0	-70.0	0.2	15.0	1.0	3.0	2.0909497082869635	1.779	n/a	stim	poldrack-single-stim	s622	False	1
438.326	0.525	438.851	-2.74168723918724	end_round	0.525	columbia_card_task_fmri	16.0	0.7857142857142857	71.0	-70.0	0.2142857142857142	15.0	2.0	3.0	2.9789415354778725	0.525	1.0	stim	poldrack-single-stim	s622	False	1
439.605	1.5	438.854	n/a	-1.0	2.726	columbia_card_task_fmri	n/a	n/a	-1.0	n/a	n/a	n/a	n/a	n/a	n/a	n/a	n/a	ITI	poldrack-single-stim	s622	False	0
441.585	2.997	444.582	-1.1256158106158112	end_round	2.997	columbia_card_task_fmri	14.0	0.8125	71.0	-65.0	0.1875	16.0	1.0	3.0	-1.4742079150223333	2.997	0.0	stim	poldrack-single-stim	s622	False	1
445.339	1.5	444.588	n/a	-1.0	2.454	columbia_card_task_fmri	n/a	n/a	-1.0	n/a	n/a	n/a	n/a	n/a	n/a	n/a	n/a	ITI	poldrack-single-stim	s622	False	0
447.045	2.445	449.49	-1.3756158106158112	draw_card	2.445	columbia_card_task_fmri	16.0	0.8125	89.0	-75.0	0.1875	16.0	1.0	3.0	3.2093309549083315	2.445	n/a	stim	poldrack-single-stim	s622	False	1
449.493	0.482	449.975	-2.5131158106158105	end_round	0.482	columbia_card_task_fmri	16.0	0.8	71.0	-75.0	0.2	16.0	2.0	3.0	4.090871414979581	0.482	1.0	stim	poldrack-single-stim	s622	False	1
450.734	1.5	449.983	n/a	-1.0	2.318	columbia_card_task_fmri	n/a	n/a	-1.0	n/a	n/a	n/a	n/a	n/a	n/a	n/a	n/a	ITI	poldrack-single-stim	s622	False	0
452.304	5.679	457.983	2.88688418938419	draw_card	5.679	columbia_card_task_fmri	16.0	0.8666666666666667	89.0	-80.0	0.1333333333333333	15.0	1.0	2.0	0.3247517184356638	5.679	n/a	stim	poldrack-single-stim	s622	False	1
457.985	0.509	458.494	1.972598475098477	end_round	0.509	columbia_card_task_fmri	16.0	0.8571428571428572	71.0	-80.0	0.1428571428571428	15.0	2.0	2.0	1.283986125859947	0.509	1.0	stim	poldrack-single-stim	s622	False	1
459.252	1.5	458.501	n/a	-1.0	2.318	columbia_card_task_fmri	n/a	n/a	-1.0	n/a	n/a	n/a	n/a	n/a	n/a	n/a	n/a	ITI	poldrack-single-stim	s622	False	0
460.822	1.753	462.575	3.753550856050857	draw_card	1.753	columbia_card_task_fmri	17.0	0.8666666666666667	89.0	-80.0	0.1333333333333333	15.0	1.0	2.0	0.6646708676491286	1.753	n/a	stim	poldrack-single-stim	s622	False	1
462.579	0.497	463.076	2.8297413322413347	draw_card	0.497	columbia_card_task_fmri	17.0	0.8571428571428572	89.0	-80.0	0.1428571428571428	15.0	2.0	2.0	1.6338981890762554	0.497	n/a	stim	poldrack-single-stim	s622	False	1
463.078	0.481	463.559	1.7638072663072657	end_round	0.481	columbia_card_task_fmri	17.0	0.8461538461538461	71.0	-80.0	0.1538461538461538	15.0	3.0	2.0	2.6886429646951626	0.481	2.0	stim	poldrack-single-stim	s622	False	1
464.313	1.5	463.562	n/a	-1.0	2.59	columbia_card_task_fmri	n/a	n/a	-1.0	n/a	n/a	n/a	n/a	n/a	n/a	n/a	n/a	ITI	poldrack-single-stim	s622	False	0
466.156	3.438	469.594	-0.3131158106158111	end_round	3.438	columbia_card_task_fmri	1.0	0.9375	71.0	-15.0	0.0625	16.0	1.0	1.0	-28.424855448037512	3.438	0.0	stim	poldrack-single-stim	s622	False	1
470.35	1.5	469.599	n/a	-1.0	2.726	columbia_card_task_fmri	n/a	n/a	-1.0	n/a	n/a	n/a	n/a	n/a	n/a	n/a	n/a	ITI	poldrack-single-stim	s622	False	0
472.33	3.776	476.106	2.811884189384189	draw_card	3.776	columbia_card_task_fmri	10.0	0.9375	89.0	-100.0	0.0625	16.0	1.0	1.0	-5.681873809224584	3.776	n/a	stim	poldrack-single-stim	s622	False	1
476.109	0.915	477.024	2.353550856050856	end_round	0.915	columbia_card_task_fmri	10.0	0.9333333333333332	71.0	-100.0	0.0666666666666666	16.0	2.0	1.0	-4.869867958522622	0.915	1.0	stim	poldrack-single-stim	s622	False	1
477.782	1.5	477.031	n/a	-1.0	2.522	columbia_card_task_fmri	n/a	n/a	-1.0	n/a	n/a	n/a	n/a	n/a	n/a	n/a	n/a	ITI	poldrack-single-stim	s622	False	0
479.558	9.555	489.113	3.436884189384189	draw_card	9.555	columbia_card_task_fmri	15.0	0.875	89.0	-75.0	0.125	16.0	1.0	2.0	-2.544126137666716	9.555	n/a	stim	poldrack-single-stim	s622	False	1
489.116	1.658	490.774	2.686884189384189	draw_card	1.658	columbia_card_task_fmri	15.0	0.8666666666666667	89.0	-75.0	0.1333333333333333	16.0	2.0	2.0	-1.7147559510417842	1.658	n/a	stim	poldrack-single-stim	s622	False	1
490.777	0.596	491.373	1.829741332241333	end_round	0.596	columbia_card_task_fmri	15.0	0.8571428571428572	71.0	-75.0	0.1428571428571428	16.0	3.0	2.0	-0.8154792339169781	0.596	2.0	stim	poldrack-single-stim	s622	False	1
492.127	1.5	491.376	n/a	-1.0	3.134	columbia_card_task_fmri	n/a	n/a	-1.0	n/a	n/a	n/a	n/a	n/a	n/a	n/a	n/a	ITI	poldrack-single-stim	s622	False	0
494.515	2.928	497.443	3.686884189384189	draw_card	2.928	columbia_card_task_fmri	16.0	0.875	89.0	-80.0	0.125	16.0	1.0	2.0	-0.5599155802595526	2.928	n/a	stim	poldrack-single-stim	s622	False	1
497.446	2.81	500.256	2.88688418938419	draw_card	2.81	columbia_card_task_fmri	16.0	0.8666666666666667	89.0	-80.0	0.1333333333333333	16.0	2.0	2.0	0.3247517184356638	2.81	n/a	stim	poldrack-single-stim	s622	False	1
500.26	0.587	500.847	1.972598475098477	end_round	0.587	columbia_card_task_fmri	16.0	0.8571428571428572	71.0	-80.0	0.1428571428571428	16.0	3.0	2.0	1.283986125859947	0.587	2.0	stim	poldrack-single-stim	s622	False	1
501.601	1.5	500.85	n/a	-1.0	2.386	columbia_card_task_fmri	n/a	n/a	-1.0	n/a	n/a	n/a	n/a	n/a	n/a	n/a	n/a	ITI	poldrack-single-stim	s622	False	0
503.24	5.067	508.307	0.8743841893841888	end_round	5.067	columbia_card_task_fmri	4.0	0.6875	71.0	-5.0	0.3125	16.0	1.0	5.0	-28.12712910426174	5.067	0.0	stim	poldrack-single-stim	s622	False	1
509.062	1.5	508.311	n/a	-1.0	2.386	columbia_card_task_fmri	n/a	n/a	-1.0	n/a	n/a	n/a	n/a	n/a	n/a	n/a	n/a	ITI	poldrack-single-stim	s622	False	0
510.7	5.905	516.605	-1.9797824772824757	draw_card	5.905	columbia_card_task_fmri	14.0	0.8333333333333334	89.0	-80.0	0.1666666666666666	6.0	1.0	1.0	2.7226556597504867	5.905	n/a	stim	poldrack-single-stim	s622	False	1
516.608	0.653	517.261	-5.11311581061581	end_round	0.653	columbia_card_task_fmri	14.0	0.8	71.0	-80.0	0.2	6.0	2.0	1.0	5.290828436734621	0.653	1.0	stim	poldrack-single-stim	s622	False	1
518.016	1.5	517.265	n/a	-1.0	2.318	columbia_card_task_fmri	n/a	n/a	-1.0	n/a	n/a	n/a	n/a	n/a	n/a	n/a	n/a	ITI	poldrack-single-stim	s622	False	0
519.587	2.21	521.797	-0.3131158106158111	draw_card	2.21	columbia_card_task_fmri	15.0	0.8333333333333334	89.0	-75.0	0.1666666666666666	6.0	1.0	1.0	1.2320058630502049	2.21	1.0	stim	poldrack-single-stim	s622	False	0
522.555	1.5	521.804	n/a	-1.0	2.318	columbia_card_task_fmri	n/a	n/a	-1.0	n/a	n/a	n/a	n/a	n/a	n/a	n/a	n/a	ITI	poldrack-single-stim	s622	False	0
524.127	1.635	525.762	1.353550856050857	draw_card	1.635	columbia_card_task_fmri	16.0	0.8333333333333334	89.0	-70.0	0.1666666666666666	6.0	1.0	1.0	-0.2586381490881635	1.635	n/a	stim	poldrack-single-stim	s622	False	1
525.764	1.895	527.659	-1.5131158106158105	draw_card	1.895	columbia_card_task_fmri	16.0	0.8	89.0	-70.0	0.2	6.0	2.0	1.0	2.0909497082869635	1.895	n/a	stim	poldrack-single-stim	s622	False	1
527.662	0.488	528.15	-5.813115810615811	end_round	0.488	columbia_card_task_fmri	16.0	0.75	71.0	-70.0	0.25	6.0	3.0	1.0	4.929933434206163	0.488	2.0	stim	poldrack-single-stim	s622	False	1
528.907	1.5	528.156	n/a	-1.0	2.862	columbia_card_task_fmri	n/a	n/a	-1.0	n/a	n/a	n/a	n/a	n/a	n/a	n/a	n/a	ITI	poldrack-single-stim	s622	False	0
531.022	2.921	533.943	1.9368841893841888	end_round	2.921	columbia_card_task_fmri	23.0	0.75	71.0	-60.0	0.25	8.0	1.0	2.0	3.6309429058747194	2.921	0.0	stim	poldrack-single-stim	s622	False	1
534.697	1.5	533.946	n/a	-1.0	2.726	columbia_card_task_fmri	n/a	n/a	-1.0	n/a	n/a	n/a	n/a	n/a	n/a	n/a	n/a	ITI	poldrack-single-stim	s622	False	0
536.675	1.91	538.585	2.436884189384189	draw_card	1.91	columbia_card_task_fmri	27.0	0.75	89.0	-70.0	0.25	8.0	1.0	2.0	9.692923881990538	1.91	n/a	stim	poldrack-single-stim	s622	False	1
538.588	0.715	539.303	-1.0274015249015265	end_round	0.715	columbia_card_task_fmri	27.0	0.7142857142857143	71.0	-70.0	0.2857142857142857	8.0	2.0	2.0	11.510776673578889	0.715	1.0	stim	poldrack-single-stim	s622	False	1
540.058	1.5	539.307	n/a	-1.0	2.25	columbia_card_task_fmri	n/a	n/a	-1.0	n/a	n/a	n/a	n/a	n/a	n/a	n/a	n/a	ITI	poldrack-single-stim	s622	False	0
541.561	2.462	544.023	-2.3131158106158094	end_round	2.462	columbia_card_task_fmri	16.0	0.7777777777777778	71.0	-65.0	0.2222222222222222	9.0	1.0	2.0	1.365896870675094	2.462	0.0	stim	poldrack-single-stim	s622	False	1
544.78	1.5	544.029	n/a	-1.0	2.318	columbia_card_task_fmri	n/a	n/a	-1.0	n/a	n/a	n/a	n/a	n/a	n/a	n/a	n/a	ITI	poldrack-single-stim	s622	False	0
546.351	2.138	548.489	2.88688418938419	draw_card	2.138	columbia_card_task_fmri	13.0	0.9	89.0	-85.0	0.1	10.0	1.0	1.0	-2.908807958803425	2.138	n/a	stim	poldrack-single-stim	s622	False	1
548.492	1.031	549.523	1.7979953004952995	draw_card	1.031	columbia_card_task_fmri	13.0	0.8888888888888888	89.0	-85.0	0.1111111111111111	10.0	2.0	1.0	-1.510454969434761	1.031	n/a	stim	poldrack-single-stim	s622	False	1
549.527	0.806	550.333	0.4368841893841889	end_round	0.806	columbia_card_task_fmri	13.0	0.875	71.0	-85.0	0.125	10.0	3.0	1.0	0.101490739377489	0.806	2.0	stim	poldrack-single-stim	s622	False	1
551.087	1.5	550.336	n/a	-1.0	2.454	columbia_card_task_fmri	n/a	n/a	-1.0	n/a	n/a	n/a	n/a	n/a	n/a	n/a	n/a	ITI	poldrack-single-stim	s622	False	0
552.794	2.167	554.961	-2.11311581061581	draw_card	2.167	columbia_card_task_fmri	14.0	0.8	89.0	-65.0	0.2	10.0	1.0	2.0	-0.7089240325054895	2.167	n/a	stim	poldrack-single-stim	s622	False	1
554.965	0.671	555.636	-3.8686713661713648	end_round	0.671	columbia_card_task_fmri	14.0	0.7777777777777778	71.0	-65.0	0.2222222222222222	10.0	2.0	2.0	0.5344543022410235	0.671	1.0	stim	poldrack-single-stim	s622	False	1
556.39	1.5	555.639	n/a	-1.0	2.522	columbia_card_task_fmri	n/a	n/a	-1.0	n/a	n/a	n/a	n/a	n/a	n/a	n/a	n/a	ITI	poldrack-single-stim	s622	False	0
558.166	5.274	563.44	-0.7131158106158098	draw_card	5.274	columbia_card_task_fmri	17.0	0.8	89.0	-70.0	0.2	10.0	1.0	2.0	2.490933329730268	5.274	n/a	stim	poldrack-single-stim	s622	False	1
563.444	0.445	563.889	-2.6464491439491438	end_round	0.445	columbia_card_task_fmri	17.0	0.7777777777777778	71.0	-70.0	0.2222222222222222	10.0	2.0	2.0	3.8602347411240174	0.445	1.0	stim	poldrack-single-stim	s622	False	1
564.644	1.5	563.893	n/a	-1.0	2.318	columbia_card_task_fmri	n/a	n/a	-1.0	n/a	n/a	n/a	n/a	n/a	n/a	n/a	n/a	ITI	poldrack-single-stim	s622	False	0
566.215	4.266	570.481	-1.9797824772824768	draw_card	4.266	columbia_card_task_fmri	13.0	0.8333333333333334	89.0	-75.0	0.1666666666666666	12.0	1.0	2.0	0.4866830846149597	4.266	n/a	stim	poldrack-single-stim	s622	False	1
570.485	3.011	573.496	-3.313115810615813	end_round	3.011	columbia_card_task_fmri	13.0	0.8181818181818181	71.0	-75.0	0.1818181818181818	12.0	2.0	2.0	1.6320944699253983	3.011	1.0	stim	poldrack-single-stim	s622	False	1
574.252	1.5	573.501	n/a	-1.0	2.522	columbia_card_task_fmri	n/a	n/a	-1.0	n/a	n/a	n/a	n/a	n/a	n/a	n/a	n/a	ITI	poldrack-single-stim	s622	False	0
576.027	2.736	578.763	-0.3131158106158093	draw_card	2.736	columbia_card_task_fmri	14.0	0.8333333333333334	89.0	-70.0	0.1666666666666666	12.0	1.0	2.0	-1.003957727731823	2.736	n/a	stim	poldrack-single-stim	s622	False	1
578.767	0.595	579.362	-1.5858430833430863	end_round	0.595	columbia_card_task_fmri	14.0	0.8181818181818181	71.0	-70.0	0.1818181818181818	12.0	2.0	2.0	0.0893848092560247	0.595	1.0	stim	poldrack-single-stim	s622	False	1
580.117	1.5	579.366	n/a	-1.0	2.998	columbia_card_task_fmri	n/a	n/a	-1.0	n/a	n/a	n/a	n/a	n/a	n/a	n/a	n/a	ITI	poldrack-single-stim	s622	False	0
582.369	2.366	584.735	-0.3131158106158093	draw_card	2.366	columbia_card_task_fmri	16.0	0.8333333333333334	89.0	-80.0	0.1666666666666666	12.0	1.0	2.0	3.4679825013700807	2.366	n/a	stim	poldrack-single-stim	s622	False	1
584.738	0.548	585.286	-1.767661265161268	end_round	0.548	columbia_card_task_fmri	16.0	0.8181818181818181	71.0	-80.0	0.1818181818181818	12.0	2.0	2.0	4.717530983022847	0.548	1.0	stim	poldrack-single-stim	s622	False	1
586.04	1.5	585.289	n/a	-1.0	2.318	columbia_card_task_fmri	n/a	n/a	-1.0	n/a	n/a	n/a	n/a	n/a	n/a	n/a	n/a	ITI	poldrack-single-stim	s622	False	0
587.612	4.041	591.653	-0.5131158106158105	draw_card	4.041	columbia_card_task_fmri	16.0	0.8	89.0	-65.0	0.2	15.0	1.0	3.0	0.0910376667956782	4.041	n/a	stim	poldrack-single-stim	s622	False	1
591.656	1.579	593.235	-1.670258667758667	draw_card	1.579	columbia_card_task_fmri	16.0	0.7857142857142857	89.0	-65.0	0.2142857142857142	15.0	2.0	3.0	0.927397764160304	1.579	n/a	stim	poldrack-single-stim	s622	False	1
593.239	2.184	595.423	-3.005423502923505	draw_card	2.184	columbia_card_task_fmri	16.0	0.7692307692307692	89.0	-65.0	0.2307692307692307	15.0	3.0	3.0	1.8182896762655572	2.184	n/a	stim	poldrack-single-stim	s622	False	1
595.427	1.015	596.442	-4.563115810615811	end_round	1.015	columbia_card_task_fmri	16.0	0.75	71.0	-65.0	0.25	15.0	4.0	3.0	2.764951178122054	1.015	3.0	stim	poldrack-single-stim	s622	False	1
597.197	1.5	596.446	n/a	-1.0	2.25	columbia_card_task_fmri	n/a	n/a	-1.0	n/a	n/a	n/a	n/a	n/a	n/a	n/a	n/a	ITI	poldrack-single-stim	s622	False	0
598.699	3.658	602.357	-2.188115810615811	draw_card	3.658	columbia_card_task_fmri	15.0	0.8125	89.0	-75.0	0.1875	16.0	1.0	3.0	2.819033914104594	3.658	n/a	stim	poldrack-single-stim	s622	False	1
602.361	0.741	603.102	-3.313115810615811	end_round	0.741	columbia_card_task_fmri	15.0	0.8	71.0	-75.0	0.2	16.0	2.0	3.0	3.6908863777404974	0.741	1.0	stim	poldrack-single-stim	s622	False	1
603.857	1.5	603.106	n/a	-1.0	2.454	columbia_card_task_fmri	n/a	n/a	-1.0	n/a	n/a	n/a	n/a	n/a	n/a	n/a	n/a	ITI	poldrack-single-stim	s622	False	0
605.563	1.567	607.13	-1.6256158106158112	end_round	1.567	columbia_card_task_fmri	14.0	0.6875	71.0	-35.0	0.3125	16.0	1.0	5.0	-9.59620916656506	1.567	0.0	stim	poldrack-single-stim	s622	False	1
607.888	1.5	607.137	n/a	-1.0	2.318	columbia_card_task_fmri	n/a	n/a	-1.0	n/a	n/a	n/a	n/a	n/a	n/a	n/a	n/a	ITI	poldrack-single-stim	s622	False	0
609.46	6.599	616.059	3.553550856050856	draw_card	6.599	columbia_card_task_fmri	16.0	0.8666666666666667	89.0	-75.0	0.1333333333333333	15.0	1.0	2.0	-1.3748389230553464	6.599	n/a	stim	poldrack-single-stim	s622	False	1
616.062	0.545	616.607	2.6868841893841906	end_round	0.545	columbia_card_task_fmri	16.0	0.8571428571428572	71.0	-75.0	0.1428571428571428	15.0	2.0	2.0	-0.4655692313711626	0.545	1.0	stim	poldrack-single-stim	s622	False	1
617.364	1.5	616.613	n/a	-1.0	2.318	columbia_card_task_fmri	n/a	n/a	-1.0	n/a	n/a	n/a	n/a	n/a	n/a	n/a	n/a	ITI	poldrack-single-stim	s622	False	0
618.936	2.325	621.261	4.2202175227175225	draw_card	2.325	columbia_card_task_fmri	16.0	0.8666666666666667	89.0	-70.0	0.1333333333333333	15.0	1.0	2.0	-3.0744199688506413	2.325	n/a	stim	poldrack-single-stim	s622	False	1
621.265	0.457	621.722	3.401169903669904	end_round	0.457	columbia_card_task_fmri	16.0	0.8571428571428572	71.0	-70.0	0.1428571428571428	15.0	2.0	2.0	-2.215115266838943	0.457	1.0	stim	poldrack-single-stim	s622	False	1
622.479	1.5	621.728	n/a	-1.0	2.59	columbia_card_task_fmri	n/a	n/a	-1.0	n/a	n/a	n/a	n/a	n/a	n/a	n/a	n/a	ITI	poldrack-single-stim	s622	False	0
624.322	1.991	626.313	1.5618841893841888	draw_card	1.991	columbia_card_task_fmri	8.0	0.9375	89.0	-90.0	0.0625	16.0	1.0	1.0	-8.58638591257559	1.991	n/a	stim	poldrack-single-stim	s622	False	1
626.316	1.565	627.881	1.1535508560508556	end_round	1.565	columbia_card_task_fmri	8.0	0.9333333333333332	71.0	-90.0	0.0666666666666666	16.0	2.0	1.0	-7.862975131114727	1.565	1.0	stim	poldrack-single-stim	s622	False	1
628.638	1.5	627.887	n/a	-1.0	2.25	columbia_card_task_fmri	n/a	n/a	-1.0	n/a	n/a	n/a	n/a	n/a	n/a	n/a	n/a	ITI	poldrack-single-stim	s622	False	0
630.14	1.163	631.303	3.124384189384189	draw_card	1.163	columbia_card_task_fmri	10.0	0.9375	89.0	-95.0	0.0625	16.0	1.0	1.0	-6.8920934461883085	1.163	n/a	stim	poldrack-single-stim	s622	False	1
631.306	2.246	633.552	2.6868841893841897	draw_card	2.246	columbia_card_task_fmri	10.0	0.9333333333333332	89.0	-95.0	0.0666666666666666	16.0	2.0	1.0	-6.11700202246881	2.246	n/a	stim	poldrack-single-stim	s622	False	1
633.556	2.042	635.598	2.1868841893841897	draw_card	2.042	columbia_card_task_fmri	10.0	0.9285714285714286	89.0	-95.0	0.0714285714285714	16.0	3.0	1.0	-5.267027990759448	2.042	n/a	stim	poldrack-single-stim	s622	False	1
635.601	1.392	636.993	1.6099611124611122	end_round	1.392	columbia_card_task_fmri	10.0	0.9230769230769232	71.0	-95.0	0.0769230769230769	16.0	4.0	1.0	-4.3294410252673	1.392	3.0	stim	poldrack-single-stim	s622	False	1
637.747	1.5	636.996	n/a	-1.0	2.25	columbia_card_task_fmri	n/a	n/a	-1.0	n/a	n/a	n/a	n/a	n/a	n/a	n/a	n/a	ITI	poldrack-single-stim	s622	False	0
639.251	3.495	642.746	4.061884189384189	draw_card	3.495	columbia_card_task_fmri	15.0	0.875	89.0	-70.0	0.125	16.0	1.0	2.0	-4.1976238366291625	3.495	n/a	stim	poldrack-single-stim	s622	False	1
642.75	1.818	644.568	3.353550856050855	draw_card	1.818	columbia_card_task_fmri	15.0	0.8666666666666667	89.0	-70.0	0.1333333333333333	16.0	2.0	2.0	-3.414334877527356	1.818	n/a	stim	poldrack-single-stim	s622	False	1
644.572	2.678	647.25	2.5440270465270465	end_round	2.678	columbia_card_task_fmri	15.0	0.8571428571428572	71.0	-70.0	0.1428571428571428	16.0	3.0	2.0	-2.565023210574669	2.678	2.0	stim	poldrack-single-stim	s622	False	1
648.009	1.5	647.258	n/a	-1.0	2.522	columbia_card_task_fmri	n/a	n/a	-1.0	n/a	n/a	n/a	n/a	n/a	n/a	n/a	n/a	ITI	poldrack-single-stim	s622	False	0
649.784	2.547	652.331	3.061884189384189	draw_card	2.547	columbia_card_task_fmri	16.0	0.875	89.0	-85.0	0.125	16.0	1.0	2.0	1.0936025583871825	2.547	n/a	stim	poldrack-single-stim	s622	False	1
652.336	1.164	653.5	2.220217522717522	draw_card	1.164	columbia_card_task_fmri	16.0	0.8666666666666667	89.0	-85.0	0.1333333333333333	16.0	2.0	2.0	2.024350530647574	1.164	n/a	stim	poldrack-single-stim	s622	False	1
653.503	1.417	654.92	1.2583127608127618	draw_card	1.417	columbia_card_task_fmri	16.0	0.8571428571428572	89.0	-85.0	0.1428571428571428	16.0	3.0	2.0	3.0335494205518785	1.417	n/a	stim	poldrack-single-stim	s622	False	1
654.923	0.978	655.901	0.1484226509226487	end_round	0.978	columbia_card_task_fmri	16.0	0.8461538461538461	71.0	-85.0	0.1538461538461538	16.0	4.0	2.0	4.131792344423808	0.978	3.0	stim	poldrack-single-stim	s622	False	1
656.655	1.5	655.904	n/a	-1.0	2.454	columbia_card_task_fmri	n/a	n/a	-1.0	n/a	n/a	n/a	n/a	n/a	n/a	n/a	n/a	ITI	poldrack-single-stim	s622	False	0
