duration	onset	block_duration	movement_onset	planning	condition	exp_stage	experiment_exp_id	key_press	problem_id	response_time	trial_id	trial_type	worker_id	junk
6.787	3.005	6.787	9.792	1	UA_with_intermediate	practice	ward_and_allport	71	0.0	6.787	to_hand	poldrack-single-stim	s623	False
0.1	9.793	0.526	10.319	0	UA_with_intermediate	practice	ward_and_allport	82	0.0	0.526	to_board	poldrack-single-stim	s623	False
0.1	10.32	1.105	11.425	0	UA_with_intermediate	practice	ward_and_allport	71	0.0	1.105	to_hand	poldrack-single-stim	s623	False
0.1	11.427	0.591	12.018	0	UA_with_intermediate	practice	ward_and_allport	89	0.0	0.591	to_board	poldrack-single-stim	s623	False
0.1	12.019	1.181	13.2	0	UA_with_intermediate	practice	ward_and_allport	82	0.0	1.181	to_hand	poldrack-single-stim	s623	False
0.1	13.201	0.342	13.543	0	UA_with_intermediate	practice	ward_and_allport	89	0.0	0.342	to_board	poldrack-single-stim	s623	False
1.0	13.548	2.5	13.547	0	UA_with_intermediate	practice	ward_and_allport	-1	0.0	n/a	feedback	poldrack-single-stim	s623	False
3.27	16.05	3.27	19.32	1	UA_with_intermediate	practice	ward_and_allport	71	1.0	3.27	to_hand	poldrack-single-stim	s623	False
0.1	19.321	0.613	19.934	0	UA_with_intermediate	practice	ward_and_allport	82	1.0	0.613	to_board	poldrack-single-stim	s623	False
0.1	19.936	3.258	23.194	0	UA_with_intermediate	practice	ward_and_allport	89	1.0	3.258	to_hand	poldrack-single-stim	s623	False
0.1	23.195	3.351	26.546	0	UA_with_intermediate	practice	ward_and_allport	82	1.0	3.351	to_board	poldrack-single-stim	s623	False
0.1	26.548	1.262	27.81	0	UA_with_intermediate	practice	ward_and_allport	89	1.0	1.262	to_hand	poldrack-single-stim	s623	False
0.1	27.811	0.435	28.246	0	UA_with_intermediate	practice	ward_and_allport	71	1.0	0.435	to_board	poldrack-single-stim	s623	False
0.1	28.248	1.666	29.914	0	UA_with_intermediate	practice	ward_and_allport	71	1.0	1.666	to_hand	poldrack-single-stim	s623	False
0.1	29.915	1.392	31.307	0	UA_with_intermediate	practice	ward_and_allport	71	1.0	1.392	to_board	poldrack-single-stim	s623	False
0.1	31.309	5.574	36.883	0	UA_with_intermediate	practice	ward_and_allport	82	1.0	5.574	to_hand	poldrack-single-stim	s623	False
0.1	36.883	1.266	38.149	0	UA_with_intermediate	practice	ward_and_allport	89	1.0	1.266	to_board	poldrack-single-stim	s623	False
0.1	38.15	1.104	39.254	0	UA_with_intermediate	practice	ward_and_allport	82	1.0	1.104	to_hand	poldrack-single-stim	s623	False
0.1	39.255	0.467	39.722	0	UA_with_intermediate	practice	ward_and_allport	71	1.0	0.467	to_board	poldrack-single-stim	s623	False
0.1	39.723	0.968	40.691	0	UA_with_intermediate	practice	ward_and_allport	89	1.0	0.968	to_hand	poldrack-single-stim	s623	False
0.1	40.692	0.356	41.048	0	UA_with_intermediate	practice	ward_and_allport	71	1.0	0.356	to_board	poldrack-single-stim	s623	False
0.1	41.05	5.332	46.382	0	UA_with_intermediate	practice	ward_and_allport	71	1.0	5.332	to_hand	poldrack-single-stim	s623	False
0.1	46.383	0.76	47.143	0	UA_with_intermediate	practice	ward_and_allport	82	1.0	0.76	to_board	poldrack-single-stim	s623	False
0.1	47.146	1.037	48.183	0	UA_with_intermediate	practice	ward_and_allport	71	1.0	1.037	to_hand	poldrack-single-stim	s623	False
0.1	48.183	0.456	48.639	0	UA_with_intermediate	practice	ward_and_allport	82	1.0	0.456	to_board	poldrack-single-stim	s623	False
0.1	48.642	1.634	50.276	0	UA_with_intermediate	practice	ward_and_allport	71	1.0	1.634	to_hand	poldrack-single-stim	s623	False
0.1	50.277	0.405	50.682	0	UA_with_intermediate	practice	ward_and_allport	89	1.0	0.405	to_board	poldrack-single-stim	s623	False
0.1	50.684	1.822	52.506	0	UA_with_intermediate	practice	ward_and_allport	82	1.0	1.822	to_hand	poldrack-single-stim	s623	False
0.1	52.507	1.042	53.549	0	UA_with_intermediate	practice	ward_and_allport	89	1.0	1.042	to_board	poldrack-single-stim	s623	False
0.1	53.552	0.851	54.403	0	UA_with_intermediate	practice	ward_and_allport	82	1.0	0.851	to_hand	poldrack-single-stim	s623	False
0.1	54.404	0.728	55.132	0	UA_with_intermediate	practice	ward_and_allport	89	1.0	0.728	to_board	poldrack-single-stim	s623	False
1.0	55.134	2.1	55.133	0	UA_with_intermediate	practice	ward_and_allport	-1	1.0	n/a	feedback	poldrack-single-stim	s623	False
3.058	57.236	3.058	60.294	1	UA_without_intermediate	practice	ward_and_allport	82	2.0	3.058	to_hand	poldrack-single-stim	s623	False
0.1	60.296	1.457	61.753	0	UA_without_intermediate	practice	ward_and_allport	89	2.0	1.457	to_board	poldrack-single-stim	s623	False
0.1	61.755	0.874	62.629	0	UA_without_intermediate	practice	ward_and_allport	71	2.0	0.874	to_hand	poldrack-single-stim	s623	False
0.1	62.631	0.361	62.992	0	UA_without_intermediate	practice	ward_and_allport	89	2.0	0.361	to_board	poldrack-single-stim	s623	False
0.1	62.994	0.9	63.894	0	UA_without_intermediate	practice	ward_and_allport	71	2.0	0.9	to_hand	poldrack-single-stim	s623	False
0.1	63.895	0.387	64.282	0	UA_without_intermediate	practice	ward_and_allport	89	2.0	0.387	to_board	poldrack-single-stim	s623	False
1.0	64.284	2.2	64.283	0	UA_without_intermediate	practice	ward_and_allport	-1	2.0	n/a	feedback	poldrack-single-stim	s623	False
5.19	66.487	5.19	71.677	1	UA_without_intermediate	practice	ward_and_allport	71	3.0	5.19	to_hand	poldrack-single-stim	s623	False
0.1	71.678	0.301	71.979	0	UA_without_intermediate	practice	ward_and_allport	89	3.0	0.301	to_board	poldrack-single-stim	s623	False
0.1	71.982	2.208	74.19	0	UA_without_intermediate	practice	ward_and_allport	82	3.0	2.208	to_hand	poldrack-single-stim	s623	False
0.1	74.191	0.298	74.489	0	UA_without_intermediate	practice	ward_and_allport	89	3.0	0.298	to_board	poldrack-single-stim	s623	False
0.1	74.491	0.621	75.112	0	UA_without_intermediate	practice	ward_and_allport	71	3.0	0.621	to_hand	poldrack-single-stim	s623	False
0.1	75.113	0.349	75.462	0	UA_without_intermediate	practice	ward_and_allport	89	3.0	0.349	to_board	poldrack-single-stim	s623	False
1.0	75.464	2.0	75.463	0	UA_without_intermediate	practice	ward_and_allport	-1	3.0	n/a	feedback	poldrack-single-stim	s623	False
7.783	79.469	7.783	87.252	1	PA_with_intermediate	test	ward_and_allport	82	0.0	7.783	to_hand	poldrack-single-stim	s623	False
0.1	87.253	2.564	89.817	0	PA_with_intermediate	test	ward_and_allport	89	0.0	2.564	to_board	poldrack-single-stim	s623	False
0.1	89.819	2.791	92.61	0	PA_with_intermediate	test	ward_and_allport	82	0.0	2.791	to_hand	poldrack-single-stim	s623	False
0.1	92.611	1.035	93.646	0	PA_with_intermediate	test	ward_and_allport	71	0.0	1.035	to_board	poldrack-single-stim	s623	False
0.1	93.648	2.463	96.111	0	PA_with_intermediate	test	ward_and_allport	89	0.0	2.463	to_hand	poldrack-single-stim	s623	False
0.1	96.112	0.474	96.586	0	PA_with_intermediate	test	ward_and_allport	71	0.0	0.474	to_board	poldrack-single-stim	s623	False
0.1	96.588	1.779	98.367	0	PA_with_intermediate	test	ward_and_allport	71	0.0	1.779	to_hand	poldrack-single-stim	s623	False
0.1	98.368	0.58	98.948	0	PA_with_intermediate	test	ward_and_allport	82	0.0	0.58	to_board	poldrack-single-stim	s623	False
0.1	98.95	0.832	99.782	0	PA_with_intermediate	test	ward_and_allport	71	0.0	0.832	to_hand	poldrack-single-stim	s623	False
0.1	99.783	0.425	100.208	0	PA_with_intermediate	test	ward_and_allport	89	0.0	0.425	to_board	poldrack-single-stim	s623	False
0.1	100.212	1.03	101.242	0	PA_with_intermediate	test	ward_and_allport	82	0.0	1.03	to_hand	poldrack-single-stim	s623	False
0.1	101.242	0.69	101.932	0	PA_with_intermediate	test	ward_and_allport	89	0.0	0.69	to_board	poldrack-single-stim	s623	False
1.0	101.936	4.176	101.935	0	PA_with_intermediate	test	ward_and_allport	-1	0.0	n/a	feedback	poldrack-single-stim	s623	False
5.519	106.115	5.519	111.634	1	PA_with_intermediate	test	ward_and_allport	82	1.0	5.519	to_hand	poldrack-single-stim	s623	False
0.1	111.635	0.397	112.032	0	PA_with_intermediate	test	ward_and_allport	89	1.0	0.397	to_board	poldrack-single-stim	s623	False
0.1	112.035	1.905	113.94	0	PA_with_intermediate	test	ward_and_allport	82	1.0	1.905	to_hand	poldrack-single-stim	s623	False
0.1	113.94	0.394	114.334	0	PA_with_intermediate	test	ward_and_allport	71	1.0	0.394	to_board	poldrack-single-stim	s623	False
0.1	114.338	2.099	116.437	0	PA_with_intermediate	test	ward_and_allport	89	1.0	2.099	to_hand	poldrack-single-stim	s623	False
0.1	116.439	0.37	116.809	0	PA_with_intermediate	test	ward_and_allport	71	1.0	0.37	to_board	poldrack-single-stim	s623	False
1.0	116.812	3.36	116.811	0	PA_with_intermediate	test	ward_and_allport	-1	1.0	n/a	feedback	poldrack-single-stim	s623	False
4.221	120.175	4.221	124.396	1	PA_with_intermediate	test	ward_and_allport	71	2.0	4.221	to_hand	poldrack-single-stim	s623	False
0.1	124.398	1.756	126.154	0	PA_with_intermediate	test	ward_and_allport	82	2.0	1.756	to_board	poldrack-single-stim	s623	False
0.1	126.156	0.732	126.888	0	PA_with_intermediate	test	ward_and_allport	71	2.0	0.732	to_hand	poldrack-single-stim	s623	False
0.1	126.89	2.262	129.152	0	PA_with_intermediate	test	ward_and_allport	89	2.0	2.262	to_board	poldrack-single-stim	s623	False
0.1	129.156	0.907	130.063	0	PA_with_intermediate	test	ward_and_allport	82	2.0	0.907	to_hand	poldrack-single-stim	s623	False
0.1	130.063	0.418	130.481	0	PA_with_intermediate	test	ward_and_allport	89	2.0	0.418	to_board	poldrack-single-stim	s623	False
1.0	130.484	2.0	130.483	0	PA_with_intermediate	test	ward_and_allport	-1	2.0	n/a	feedback	poldrack-single-stim	s623	False
4.508	132.488	4.508	136.996	1	PA_without_intermediate	test	ward_and_allport	82	3.0	4.508	to_hand	poldrack-single-stim	s623	False
0.1	136.997	0.676	137.673	0	PA_without_intermediate	test	ward_and_allport	89	3.0	0.676	to_board	poldrack-single-stim	s623	False
0.1	137.677	0.878	138.555	0	PA_without_intermediate	test	ward_and_allport	82	3.0	0.878	to_hand	poldrack-single-stim	s623	False
0.1	138.556	0.8	139.356	0	PA_without_intermediate	test	ward_and_allport	89	3.0	0.8	to_board	poldrack-single-stim	s623	False
0.1	139.36	1.867	141.227	0	PA_without_intermediate	test	ward_and_allport	82	3.0	1.867	to_hand	poldrack-single-stim	s623	False
0.1	141.228	0.313	141.541	0	PA_without_intermediate	test	ward_and_allport	71	3.0	0.313	to_board	poldrack-single-stim	s623	False
1.0	141.544	2.408	141.543	0	PA_without_intermediate	test	ward_and_allport	-1	3.0	n/a	feedback	poldrack-single-stim	s623	False
3.757	143.956	3.757	147.713	1	PA_with_intermediate	test	ward_and_allport	82	4.0	3.757	to_hand	poldrack-single-stim	s623	False
0.1	147.714	2.729	150.443	0	PA_with_intermediate	test	ward_and_allport	89	4.0	2.729	to_board	poldrack-single-stim	s623	False
0.1	150.446	0.835	151.281	0	PA_with_intermediate	test	ward_and_allport	82	4.0	0.835	to_hand	poldrack-single-stim	s623	False
0.1	151.282	0.472	151.754	0	PA_with_intermediate	test	ward_and_allport	71	4.0	0.472	to_board	poldrack-single-stim	s623	False
0.1	151.756	1.607	153.363	0	PA_with_intermediate	test	ward_and_allport	89	4.0	1.607	to_hand	poldrack-single-stim	s623	False
0.1	153.364	0.477	153.841	0	PA_with_intermediate	test	ward_and_allport	82	4.0	0.477	to_board	poldrack-single-stim	s623	False
1.0	153.845	2.816	153.844	0	PA_with_intermediate	test	ward_and_allport	-1	4.0	n/a	feedback	poldrack-single-stim	s623	False
5.617	156.665	5.617	162.282	1	PA_without_intermediate	test	ward_and_allport	82	5.0	5.617	to_hand	poldrack-single-stim	s623	False
0.1	162.283	0.382	162.665	0	PA_without_intermediate	test	ward_and_allport	71	5.0	0.382	to_board	poldrack-single-stim	s623	False
0.1	162.669	1.906	164.575	0	PA_without_intermediate	test	ward_and_allport	82	5.0	1.906	to_hand	poldrack-single-stim	s623	False
0.1	164.576	0.653	165.229	0	PA_without_intermediate	test	ward_and_allport	71	5.0	0.653	to_board	poldrack-single-stim	s623	False
0.1	165.235	1.773	167.008	0	PA_without_intermediate	test	ward_and_allport	82	5.0	1.773	to_hand	poldrack-single-stim	s623	False
0.1	167.009	0.37	167.379	0	PA_without_intermediate	test	ward_and_allport	89	5.0	0.37	to_board	poldrack-single-stim	s623	False
1.0	167.383	3.088	167.382	0	PA_without_intermediate	test	ward_and_allport	-1	5.0	n/a	feedback	poldrack-single-stim	s623	False
4.954	170.474	4.954	175.428	1	PA_without_intermediate	test	ward_and_allport	71	6.0	4.954	to_hand	poldrack-single-stim	s623	False
0.1	175.429	0.314	175.743	0	PA_without_intermediate	test	ward_and_allport	89	6.0	0.314	to_board	poldrack-single-stim	s623	False
0.1	175.746	1.401	177.147	0	PA_without_intermediate	test	ward_and_allport	71	6.0	1.401	to_hand	poldrack-single-stim	s623	False
0.1	177.148	0.306	177.454	0	PA_without_intermediate	test	ward_and_allport	82	6.0	0.306	to_board	poldrack-single-stim	s623	False
0.1	177.458	1.514	178.972	0	PA_without_intermediate	test	ward_and_allport	71	6.0	1.514	to_hand	poldrack-single-stim	s623	False
0.1	178.973	1.322	180.295	0	PA_without_intermediate	test	ward_and_allport	89	6.0	1.322	to_board	poldrack-single-stim	s623	False
1.0	180.3	2.136	180.299	0	PA_without_intermediate	test	ward_and_allport	-1	6.0	n/a	feedback	poldrack-single-stim	s623	False
1.729	182.439	1.729	184.168	1	PA_without_intermediate	test	ward_and_allport	82	7.0	1.729	to_hand	poldrack-single-stim	s623	False
0.1	184.17	0.453	184.623	0	PA_without_intermediate	test	ward_and_allport	71	7.0	0.453	to_board	poldrack-single-stim	s623	False
0.1	184.627	1.424	186.051	0	PA_without_intermediate	test	ward_and_allport	71	7.0	1.424	to_hand	poldrack-single-stim	s623	False
0.1	186.052	0.963	187.015	0	PA_without_intermediate	test	ward_and_allport	89	7.0	0.963	to_board	poldrack-single-stim	s623	False
0.1	187.019	2.589	189.608	0	PA_without_intermediate	test	ward_and_allport	82	7.0	2.589	to_hand	poldrack-single-stim	s623	False
0.1	189.609	0.229	189.838	0	PA_without_intermediate	test	ward_and_allport	71	7.0	0.229	to_board	poldrack-single-stim	s623	False
0.1	189.842	0.576	190.418	0	PA_without_intermediate	test	ward_and_allport	82	7.0	0.576	to_hand	poldrack-single-stim	s623	False
0.1	190.419	0.59	191.009	0	PA_without_intermediate	test	ward_and_allport	89	7.0	0.59	to_board	poldrack-single-stim	s623	False
1.0	191.014	7.168	191.013	0	PA_without_intermediate	test	ward_and_allport	-1	7.0	n/a	feedback	poldrack-single-stim	s623	False
4.223	198.187	4.223	202.41	1	PA_without_intermediate	test	ward_and_allport	89	8.0	4.223	to_hand	poldrack-single-stim	s623	False
0.1	202.411	2.09	204.501	0	PA_without_intermediate	test	ward_and_allport	71	8.0	2.09	to_board	poldrack-single-stim	s623	False
0.1	204.505	0.45	204.955	0	PA_without_intermediate	test	ward_and_allport	89	8.0	0.45	to_hand	poldrack-single-stim	s623	False
0.1	204.956	0.341	205.297	0	PA_without_intermediate	test	ward_and_allport	71	8.0	0.341	to_board	poldrack-single-stim	s623	False
0.1	205.301	0.726	206.027	0	PA_without_intermediate	test	ward_and_allport	89	8.0	0.726	to_hand	poldrack-single-stim	s623	False
0.1	206.028	0.338	206.366	0	PA_without_intermediate	test	ward_and_allport	82	8.0	0.338	to_board	poldrack-single-stim	s623	False
1.0	206.371	2.816	206.37	0	PA_without_intermediate	test	ward_and_allport	-1	8.0	n/a	feedback	poldrack-single-stim	s623	False
1.999	209.191	1.999	211.19	1	PA_with_intermediate	test	ward_and_allport	71	9.0	1.999	to_hand	poldrack-single-stim	s623	False
0.1	211.191	0.469	211.66	0	PA_with_intermediate	test	ward_and_allport	89	9.0	0.469	to_board	poldrack-single-stim	s623	False
0.1	211.664	0.657	212.321	0	PA_with_intermediate	test	ward_and_allport	71	9.0	0.657	to_hand	poldrack-single-stim	s623	False
0.1	212.322	1.351	213.673	0	PA_with_intermediate	test	ward_and_allport	82	9.0	1.351	to_board	poldrack-single-stim	s623	False
0.1	213.678	2.694	216.372	0	PA_with_intermediate	test	ward_and_allport	89	9.0	2.694	to_hand	poldrack-single-stim	s623	False
0.1	216.373	1.436	217.809	0	PA_with_intermediate	test	ward_and_allport	71	9.0	1.436	to_board	poldrack-single-stim	s623	False
0.1	217.814	0.42	218.234	0	PA_with_intermediate	test	ward_and_allport	82	9.0	0.42	to_hand	poldrack-single-stim	s623	False
0.1	218.234	0.358	218.592	0	PA_with_intermediate	test	ward_and_allport	89	9.0	0.358	to_board	poldrack-single-stim	s623	False
0.1	218.598	0.477	219.075	0	PA_with_intermediate	test	ward_and_allport	71	9.0	0.477	to_hand	poldrack-single-stim	s623	False
0.1	219.076	0.29	219.366	0	PA_with_intermediate	test	ward_and_allport	89	9.0	0.29	to_board	poldrack-single-stim	s623	False
1.0	219.371	2.952	219.37	0	PA_with_intermediate	test	ward_and_allport	-1	9.0	n/a	feedback	poldrack-single-stim	s623	False
3.948	222.327	3.948	226.275	1	PA_with_intermediate	test	ward_and_allport	89	10.0	3.948	to_hand	poldrack-single-stim	s623	False
0.1	226.276	0.438	226.714	0	PA_with_intermediate	test	ward_and_allport	71	10.0	0.438	to_board	poldrack-single-stim	s623	False
0.1	226.719	0.927	227.646	0	PA_with_intermediate	test	ward_and_allport	89	10.0	0.927	to_hand	poldrack-single-stim	s623	False
0.1	227.647	1.082	228.729	0	PA_with_intermediate	test	ward_and_allport	82	10.0	1.082	to_board	poldrack-single-stim	s623	False
0.1	228.732	0.897	229.629	0	PA_with_intermediate	test	ward_and_allport	89	10.0	0.897	to_hand	poldrack-single-stim	s623	False
0.1	229.631	0.944	230.575	0	PA_with_intermediate	test	ward_and_allport	89	10.0	0.944	to_board	poldrack-single-stim	s623	False
0.1	230.58	0.402	230.982	0	PA_with_intermediate	test	ward_and_allport	71	10.0	0.402	to_hand	poldrack-single-stim	s623	False
0.1	230.983	0.364	231.347	0	PA_with_intermediate	test	ward_and_allport	82	10.0	0.364	to_board	poldrack-single-stim	s623	False
1.0	231.352	2.136	231.351	0	PA_with_intermediate	test	ward_and_allport	-1	10.0	n/a	feedback	poldrack-single-stim	s623	False
2.204	233.495	2.204	235.699	1	PA_without_intermediate	test	ward_and_allport	89	11.0	2.204	to_hand	poldrack-single-stim	s623	False
0.1	235.7	1.516	237.216	0	PA_without_intermediate	test	ward_and_allport	82	11.0	1.516	to_board	poldrack-single-stim	s623	False
0.1	237.22	1.483	238.703	0	PA_without_intermediate	test	ward_and_allport	89	11.0	1.483	to_hand	poldrack-single-stim	s623	False
0.1	238.704	0.519	239.223	0	PA_without_intermediate	test	ward_and_allport	82	11.0	0.519	to_board	poldrack-single-stim	s623	False
0.1	239.229	2.367	241.596	0	PA_without_intermediate	test	ward_and_allport	82	11.0	2.367	to_hand	poldrack-single-stim	s623	False
0.1	241.596	0.153	241.749	0	PA_without_intermediate	test	ward_and_allport	71	11.0	0.153	to_board	poldrack-single-stim	s623	False
0.1	241.754	0.574	242.328	0	PA_without_intermediate	test	ward_and_allport	89	11.0	0.574	to_hand	poldrack-single-stim	s623	False
0.1	242.329	0.964	243.293	0	PA_without_intermediate	test	ward_and_allport	82	11.0	0.964	to_board	poldrack-single-stim	s623	False
1.0	243.298	2.68	243.297	0	PA_without_intermediate	test	ward_and_allport	-1	11.0	n/a	feedback	poldrack-single-stim	s623	False
3.487	245.984	3.487	249.471	1	PA_without_intermediate	test	ward_and_allport	71	12.0	3.487	to_hand	poldrack-single-stim	s623	False
0.1	249.472	0.876	250.348	0	PA_without_intermediate	test	ward_and_allport	89	12.0	0.876	to_board	poldrack-single-stim	s623	False
0.1	250.355	0.581	250.936	0	PA_without_intermediate	test	ward_and_allport	71	12.0	0.581	to_hand	poldrack-single-stim	s623	False
0.1	250.937	0.54	251.477	0	PA_without_intermediate	test	ward_and_allport	89	12.0	0.54	to_board	poldrack-single-stim	s623	False
0.1	251.483	1.328	252.811	0	PA_without_intermediate	test	ward_and_allport	71	12.0	1.328	to_hand	poldrack-single-stim	s623	False
0.1	252.812	0.424	253.236	0	PA_without_intermediate	test	ward_and_allport	82	12.0	0.424	to_board	poldrack-single-stim	s623	False
1.0	253.243	3.088	253.242	0	PA_without_intermediate	test	ward_and_allport	-1	12.0	n/a	feedback	poldrack-single-stim	s623	False
4.239	256.336	4.239	260.575	1	PA_with_intermediate	test	ward_and_allport	71	13.0	4.239	to_hand	poldrack-single-stim	s623	False
0.1	260.576	2.638	263.214	0	PA_with_intermediate	test	ward_and_allport	89	13.0	2.638	to_board	poldrack-single-stim	s623	False
0.1	263.221	0.424	263.645	0	PA_with_intermediate	test	ward_and_allport	71	13.0	0.424	to_hand	poldrack-single-stim	s623	False
0.1	263.646	0.459	264.105	0	PA_with_intermediate	test	ward_and_allport	82	13.0	0.459	to_board	poldrack-single-stim	s623	False
0.1	264.11	0.958	265.068	0	PA_with_intermediate	test	ward_and_allport	89	13.0	0.958	to_hand	poldrack-single-stim	s623	False
0.1	265.069	0.963	266.032	0	PA_with_intermediate	test	ward_and_allport	82	13.0	0.963	to_board	poldrack-single-stim	s623	False
1.0	266.04	2.0	266.039	0	PA_with_intermediate	test	ward_and_allport	-1	13.0	n/a	feedback	poldrack-single-stim	s623	False
3.862	268.047	3.862	271.909	1	PA_without_intermediate	test	ward_and_allport	82	14.0	3.862	to_hand	poldrack-single-stim	s623	False
0.1	271.91	0.392	272.302	0	PA_without_intermediate	test	ward_and_allport	71	14.0	0.392	to_board	poldrack-single-stim	s623	False
0.1	272.308	0.647	272.955	0	PA_without_intermediate	test	ward_and_allport	82	14.0	0.647	to_hand	poldrack-single-stim	s623	False
0.1	272.957	3.81	276.767	0	PA_without_intermediate	test	ward_and_allport	71	14.0	3.81	to_board	poldrack-single-stim	s623	False
0.1	276.773	1.046	277.819	0	PA_without_intermediate	test	ward_and_allport	82	14.0	1.046	to_hand	poldrack-single-stim	s623	False
0.1	277.821	0.127	277.948	0	PA_without_intermediate	test	ward_and_allport	89	14.0	0.127	to_board	poldrack-single-stim	s623	False
1.0	277.954	2.0	277.953	0	PA_without_intermediate	test	ward_and_allport	-1	14.0	n/a	feedback	poldrack-single-stim	s623	False
3.86	284.96	3.86	288.82	1	PA_without_intermediate	test	ward_and_allport	82	15.0	3.86	to_hand	poldrack-single-stim	s623	False
0.1	288.822	0.785	289.607	0	PA_without_intermediate	test	ward_and_allport	89	15.0	0.785	to_board	poldrack-single-stim	s623	False
0.1	289.612	0.491	290.103	0	PA_without_intermediate	test	ward_and_allport	82	15.0	0.491	to_hand	poldrack-single-stim	s623	False
0.1	290.103	0.422	290.525	0	PA_without_intermediate	test	ward_and_allport	89	15.0	0.422	to_board	poldrack-single-stim	s623	False
0.1	290.531	1.344	291.875	0	PA_without_intermediate	test	ward_and_allport	82	15.0	1.344	to_hand	poldrack-single-stim	s623	False
0.1	291.876	0.231	292.107	0	PA_without_intermediate	test	ward_and_allport	71	15.0	0.231	to_board	poldrack-single-stim	s623	False
1.0	292.116	2.0	292.115	0	PA_without_intermediate	test	ward_and_allport	-1	15.0	n/a	feedback	poldrack-single-stim	s623	False
2.071	294.122	2.071	296.193	1	PA_with_intermediate	test	ward_and_allport	71	16.0	2.071	to_hand	poldrack-single-stim	s623	False
0.1	296.195	2.923	299.118	0	PA_with_intermediate	test	ward_and_allport	89	16.0	2.923	to_board	poldrack-single-stim	s623	False
0.1	299.127	0.359	299.486	0	PA_with_intermediate	test	ward_and_allport	71	16.0	0.359	to_hand	poldrack-single-stim	s623	False
0.1	299.487	0.645	300.132	0	PA_with_intermediate	test	ward_and_allport	82	16.0	0.645	to_board	poldrack-single-stim	s623	False
0.1	300.139	0.4	300.539	0	PA_with_intermediate	test	ward_and_allport	89	16.0	0.4	to_hand	poldrack-single-stim	s623	False
0.1	300.54	1.187	301.727	0	PA_with_intermediate	test	ward_and_allport	82	16.0	1.187	to_board	poldrack-single-stim	s623	False
1.0	301.734	2.544	301.733	0	PA_with_intermediate	test	ward_and_allport	-1	16.0	n/a	feedback	poldrack-single-stim	s623	False
2.323	304.287	2.323	306.61	1	PA_without_intermediate	test	ward_and_allport	82	17.0	2.323	to_hand	poldrack-single-stim	s623	False
0.1	306.611	3.939	310.55	0	PA_without_intermediate	test	ward_and_allport	71	17.0	3.939	to_board	poldrack-single-stim	s623	False
0.1	310.556	1.107	311.663	0	PA_without_intermediate	test	ward_and_allport	82	17.0	1.107	to_hand	poldrack-single-stim	s623	False
0.1	311.665	0.439	312.104	0	PA_without_intermediate	test	ward_and_allport	89	17.0	0.439	to_board	poldrack-single-stim	s623	False
0.1	312.111	0.537	312.648	0	PA_without_intermediate	test	ward_and_allport	82	17.0	0.537	to_hand	poldrack-single-stim	s623	False
0.1	312.649	0.5	313.149	0	PA_without_intermediate	test	ward_and_allport	71	17.0	0.5	to_board	poldrack-single-stim	s623	False
1.0	313.156	2.272	313.155	0	PA_without_intermediate	test	ward_and_allport	-1	17.0	n/a	feedback	poldrack-single-stim	s623	False
1.581	315.435	1.581	317.016	1	PA_with_intermediate	test	ward_and_allport	82	18.0	1.581	to_hand	poldrack-single-stim	s623	False
0.1	317.017	4.209	321.226	0	PA_with_intermediate	test	ward_and_allport	89	18.0	4.209	to_board	poldrack-single-stim	s623	False
0.1	321.232	1.877	323.109	0	PA_with_intermediate	test	ward_and_allport	89	18.0	1.877	to_hand	poldrack-single-stim	s623	False
0.1	323.11	0.306	323.416	0	PA_with_intermediate	test	ward_and_allport	71	18.0	0.306	to_board	poldrack-single-stim	s623	False
0.1	323.423	0.881	324.304	0	PA_with_intermediate	test	ward_and_allport	82	18.0	0.881	to_hand	poldrack-single-stim	s623	False
0.1	324.305	0.314	324.619	0	PA_with_intermediate	test	ward_and_allport	89	18.0	0.314	to_board	poldrack-single-stim	s623	False
0.1	324.624	1.828	326.452	0	PA_with_intermediate	test	ward_and_allport	71	18.0	1.828	to_hand	poldrack-single-stim	s623	False
0.1	326.453	0.715	327.168	0	PA_with_intermediate	test	ward_and_allport	82	18.0	0.715	to_board	poldrack-single-stim	s623	False
1.0	327.175	4.04	327.174	0	PA_with_intermediate	test	ward_and_allport	-1	18.0	n/a	feedback	poldrack-single-stim	s623	False
1.362	331.222	1.362	332.584	1	PA_with_intermediate	test	ward_and_allport	89	19.0	1.362	to_hand	poldrack-single-stim	s623	False
0.1	332.585	4.689	337.274	0	PA_with_intermediate	test	ward_and_allport	71	19.0	4.689	to_board	poldrack-single-stim	s623	False
0.1	337.281	0.71	337.991	0	PA_with_intermediate	test	ward_and_allport	89	19.0	0.71	to_hand	poldrack-single-stim	s623	False
0.1	337.992	0.444	338.436	0	PA_with_intermediate	test	ward_and_allport	82	19.0	0.444	to_board	poldrack-single-stim	s623	False
0.1	338.443	1.729	340.172	0	PA_with_intermediate	test	ward_and_allport	71	19.0	1.729	to_hand	poldrack-single-stim	s623	False
0.1	340.173	0.219	340.392	0	PA_with_intermediate	test	ward_and_allport	89	19.0	0.219	to_board	poldrack-single-stim	s623	False
1.0	340.399	2.272	340.398	0	PA_with_intermediate	test	ward_and_allport	-1	19.0	n/a	feedback	poldrack-single-stim	s623	False
0.895	342.678	0.895	343.573	1	PA_with_intermediate	test	ward_and_allport	89	20.0	0.895	to_hand	poldrack-single-stim	s623	False
0.1	343.573	2.108	345.681	0	PA_with_intermediate	test	ward_and_allport	71	20.0	2.108	to_board	poldrack-single-stim	s623	False
0.1	345.688	0.469	346.157	0	PA_with_intermediate	test	ward_and_allport	89	20.0	0.469	to_hand	poldrack-single-stim	s623	False
0.1	346.159	0.483	346.642	0	PA_with_intermediate	test	ward_and_allport	82	20.0	0.483	to_board	poldrack-single-stim	s623	False
0.1	346.648	0.452	347.1	0	PA_with_intermediate	test	ward_and_allport	89	20.0	0.452	to_hand	poldrack-single-stim	s623	False
0.1	347.101	0.997	348.098	0	PA_with_intermediate	test	ward_and_allport	89	20.0	0.997	to_board	poldrack-single-stim	s623	False
0.1	348.105	0.332	348.437	0	PA_with_intermediate	test	ward_and_allport	71	20.0	0.332	to_hand	poldrack-single-stim	s623	False
0.1	348.438	0.382	348.82	0	PA_with_intermediate	test	ward_and_allport	82	20.0	0.382	to_board	poldrack-single-stim	s623	False
1.0	348.828	2.136	348.827	0	PA_with_intermediate	test	ward_and_allport	-1	20.0	n/a	feedback	poldrack-single-stim	s623	False
2.11	350.97	2.11	353.08	1	PA_with_intermediate	test	ward_and_allport	89	21.0	2.11	to_hand	poldrack-single-stim	s623	False
0.1	353.081	2.647	355.728	0	PA_with_intermediate	test	ward_and_allport	82	21.0	2.647	to_board	poldrack-single-stim	s623	False
0.1	355.736	0.635	356.371	0	PA_with_intermediate	test	ward_and_allport	89	21.0	0.635	to_hand	poldrack-single-stim	s623	False
0.1	356.372	0.605	356.977	0	PA_with_intermediate	test	ward_and_allport	71	21.0	0.605	to_board	poldrack-single-stim	s623	False
0.1	356.985	0.816	357.801	0	PA_with_intermediate	test	ward_and_allport	82	21.0	0.816	to_hand	poldrack-single-stim	s623	False
0.1	357.802	0.909	358.711	0	PA_with_intermediate	test	ward_and_allport	71	21.0	0.909	to_board	poldrack-single-stim	s623	False
1.0	358.718	2.0	358.717	0	PA_with_intermediate	test	ward_and_allport	-1	21.0	n/a	feedback	poldrack-single-stim	s623	False
2.664	360.726	2.664	363.39	1	PA_with_intermediate	test	ward_and_allport	71	22.0	2.664	to_hand	poldrack-single-stim	s623	False
0.1	363.39	4.71	368.1	0	PA_with_intermediate	test	ward_and_allport	89	22.0	4.71	to_board	poldrack-single-stim	s623	False
0.1	368.108	0.769	368.877	0	PA_with_intermediate	test	ward_and_allport	71	22.0	0.769	to_hand	poldrack-single-stim	s623	False
0.1	368.878	1.139	370.017	0	PA_with_intermediate	test	ward_and_allport	82	22.0	1.139	to_board	poldrack-single-stim	s623	False
0.1	370.025	0.435	370.46	0	PA_with_intermediate	test	ward_and_allport	89	22.0	0.435	to_hand	poldrack-single-stim	s623	False
0.1	370.462	0.243	370.705	0	PA_with_intermediate	test	ward_and_allport	71	22.0	0.243	to_board	poldrack-single-stim	s623	False
1.0	370.713	2.0	370.712	0	PA_with_intermediate	test	ward_and_allport	-1	22.0	n/a	feedback	poldrack-single-stim	s623	False
1.56	372.719	1.56	374.279	1	PA_without_intermediate	test	ward_and_allport	89	23.0	1.56	to_hand	poldrack-single-stim	s623	False
0.1	374.28	1.486	375.766	0	PA_without_intermediate	test	ward_and_allport	71	23.0	1.486	to_board	poldrack-single-stim	s623	False
0.1	375.773	1.22	376.993	0	PA_without_intermediate	test	ward_and_allport	89	23.0	1.22	to_hand	poldrack-single-stim	s623	False
0.1	376.994	0.361	377.355	0	PA_without_intermediate	test	ward_and_allport	82	23.0	0.361	to_board	poldrack-single-stim	s623	False
0.1	377.363	0.346	377.709	0	PA_without_intermediate	test	ward_and_allport	89	23.0	0.346	to_hand	poldrack-single-stim	s623	False
0.1	377.71	0.352	378.062	0	PA_without_intermediate	test	ward_and_allport	71	23.0	0.352	to_board	poldrack-single-stim	s623	False
1.0	378.069	2.408	378.068	0	PA_without_intermediate	test	ward_and_allport	-1	23.0	n/a	feedback	poldrack-single-stim	s623	False
2.031	380.484	2.031	382.515	1	PA_with_intermediate	test	ward_and_allport	89	24.0	2.031	to_hand	poldrack-single-stim	s623	False
0.1	382.516	2.027	384.543	0	PA_with_intermediate	test	ward_and_allport	82	24.0	2.027	to_board	poldrack-single-stim	s623	False
0.1	384.551	0.553	385.104	0	PA_with_intermediate	test	ward_and_allport	89	24.0	0.553	to_hand	poldrack-single-stim	s623	False
0.1	385.105	0.371	385.476	0	PA_with_intermediate	test	ward_and_allport	71	24.0	0.371	to_board	poldrack-single-stim	s623	False
0.1	385.483	0.714	386.197	0	PA_with_intermediate	test	ward_and_allport	82	24.0	0.714	to_hand	poldrack-single-stim	s623	False
0.1	386.198	0.917	387.115	0	PA_with_intermediate	test	ward_and_allport	71	24.0	0.917	to_board	poldrack-single-stim	s623	False
1.0	387.122	3.768	387.121	0	PA_with_intermediate	test	ward_and_allport	-1	24.0	n/a	feedback	poldrack-single-stim	s623	False
3.319	390.899	3.319	394.218	1	PA_with_intermediate	test	ward_and_allport	71	25.0	3.319	to_hand	poldrack-single-stim	s623	False
0.1	394.218	3.813	398.031	0	PA_with_intermediate	test	ward_and_allport	82	25.0	3.813	to_board	poldrack-single-stim	s623	False
0.1	398.039	0.565	398.604	0	PA_with_intermediate	test	ward_and_allport	71	25.0	0.565	to_hand	poldrack-single-stim	s623	False
0.1	398.606	0.302	398.908	0	PA_with_intermediate	test	ward_and_allport	89	25.0	0.302	to_board	poldrack-single-stim	s623	False
0.1	398.916	0.639	399.555	0	PA_with_intermediate	test	ward_and_allport	82	25.0	0.639	to_hand	poldrack-single-stim	s623	False
0.1	399.556	0.378	399.934	0	PA_with_intermediate	test	ward_and_allport	71	25.0	0.378	to_board	poldrack-single-stim	s623	False
1.0	399.942	2.68	399.941	0	PA_with_intermediate	test	ward_and_allport	-1	25.0	n/a	feedback	poldrack-single-stim	s623	False
1.637	402.629	1.637	404.266	1	PA_without_intermediate	test	ward_and_allport	71	26.0	1.637	to_hand	poldrack-single-stim	s623	False
0.1	404.267	2.182	406.449	0	PA_without_intermediate	test	ward_and_allport	89	26.0	2.182	to_board	poldrack-single-stim	s623	False
0.1	406.456	0.555	407.011	0	PA_without_intermediate	test	ward_and_allport	71	26.0	0.555	to_hand	poldrack-single-stim	s623	False
0.1	407.012	0.379	407.391	0	PA_without_intermediate	test	ward_and_allport	82	26.0	0.379	to_board	poldrack-single-stim	s623	False
0.1	407.398	0.453	407.851	0	PA_without_intermediate	test	ward_and_allport	71	26.0	0.453	to_hand	poldrack-single-stim	s623	False
0.1	407.852	0.365	408.217	0	PA_without_intermediate	test	ward_and_allport	89	26.0	0.365	to_board	poldrack-single-stim	s623	False
1.0	408.226	3.224	408.225	0	PA_without_intermediate	test	ward_and_allport	-1	26.0	n/a	feedback	poldrack-single-stim	s623	False
2.439	411.457	2.439	413.896	1	PA_without_intermediate	test	ward_and_allport	89	27.0	2.439	to_hand	poldrack-single-stim	s623	False
0.1	413.898	1.401	415.299	0	PA_without_intermediate	test	ward_and_allport	71	27.0	1.401	to_board	poldrack-single-stim	s623	False
0.1	415.308	0.417	415.725	0	PA_without_intermediate	test	ward_and_allport	89	27.0	0.417	to_hand	poldrack-single-stim	s623	False
0.1	415.726	0.438	416.164	0	PA_without_intermediate	test	ward_and_allport	71	27.0	0.438	to_board	poldrack-single-stim	s623	False
0.1	416.174	0.548	416.722	0	PA_without_intermediate	test	ward_and_allport	89	27.0	0.548	to_hand	poldrack-single-stim	s623	False
0.1	416.723	0.483	417.206	0	PA_without_intermediate	test	ward_and_allport	82	27.0	0.483	to_board	poldrack-single-stim	s623	False
1.0	417.215	3.36	417.214	0	PA_without_intermediate	test	ward_and_allport	-1	27.0	n/a	feedback	poldrack-single-stim	s623	False
2.217	420.583	2.217	422.8	1	PA_without_intermediate	test	ward_and_allport	71	28.0	2.217	to_hand	poldrack-single-stim	s623	False
0.1	422.801	0.685	423.486	0	PA_without_intermediate	test	ward_and_allport	82	28.0	0.685	to_board	poldrack-single-stim	s623	False
0.1	423.493	0.814	424.307	0	PA_without_intermediate	test	ward_and_allport	71	28.0	0.814	to_hand	poldrack-single-stim	s623	False
0.1	424.308	0.512	424.82	0	PA_without_intermediate	test	ward_and_allport	89	28.0	0.512	to_board	poldrack-single-stim	s623	False
0.1	424.829	0.737	425.566	0	PA_without_intermediate	test	ward_and_allport	71	28.0	0.737	to_hand	poldrack-single-stim	s623	False
0.1	425.567	0.456	426.023	0	PA_without_intermediate	test	ward_and_allport	82	28.0	0.456	to_board	poldrack-single-stim	s623	False
1.0	426.033	2.0	426.032	0	PA_without_intermediate	test	ward_and_allport	-1	28.0	n/a	feedback	poldrack-single-stim	s623	False
1.035	428.042	1.035	429.077	1	PA_without_intermediate	test	ward_and_allport	71	29.0	1.035	to_hand	poldrack-single-stim	s623	False
0.1	429.078	0.491	429.569	0	PA_without_intermediate	test	ward_and_allport	82	29.0	0.491	to_board	poldrack-single-stim	s623	False
0.1	429.579	0.75	430.329	0	PA_without_intermediate	test	ward_and_allport	71	29.0	0.75	to_hand	poldrack-single-stim	s623	False
0.1	430.33	0.326	430.656	0	PA_without_intermediate	test	ward_and_allport	89	29.0	0.326	to_board	poldrack-single-stim	s623	False
0.1	430.663	0.515	431.178	0	PA_without_intermediate	test	ward_and_allport	71	29.0	0.515	to_hand	poldrack-single-stim	s623	False
0.1	431.179	0.43	431.609	0	PA_without_intermediate	test	ward_and_allport	82	29.0	0.43	to_board	poldrack-single-stim	s623	False
1.0	431.616	2.408	431.615	0	PA_without_intermediate	test	ward_and_allport	-1	29.0	n/a	feedback	poldrack-single-stim	s623	False
2.183	439.032	2.183	441.215	1	PA_with_intermediate	test	ward_and_allport	71	30.0	2.183	to_hand	poldrack-single-stim	s623	False
0.1	441.216	1.893	443.109	0	PA_with_intermediate	test	ward_and_allport	89	30.0	1.893	to_board	poldrack-single-stim	s623	False
0.1	443.118	0.379	443.497	0	PA_with_intermediate	test	ward_and_allport	71	30.0	0.379	to_hand	poldrack-single-stim	s623	False
0.1	443.498	0.422	443.92	0	PA_with_intermediate	test	ward_and_allport	82	30.0	0.422	to_board	poldrack-single-stim	s623	False
0.1	443.931	0.715	444.646	0	PA_with_intermediate	test	ward_and_allport	89	30.0	0.715	to_hand	poldrack-single-stim	s623	False
0.1	444.647	0.237	444.884	0	PA_with_intermediate	test	ward_and_allport	71	30.0	0.237	to_board	poldrack-single-stim	s623	False
1.0	444.894	2.136	444.893	0	PA_with_intermediate	test	ward_and_allport	-1	30.0	n/a	feedback	poldrack-single-stim	s623	False
0.909	447.037	0.909	447.946	1	PA_without_intermediate	test	ward_and_allport	71	31.0	0.909	to_hand	poldrack-single-stim	s623	False
0.1	447.947	0.894	448.841	0	PA_without_intermediate	test	ward_and_allport	82	31.0	0.894	to_board	poldrack-single-stim	s623	False
0.1	448.848	0.347	449.195	0	PA_without_intermediate	test	ward_and_allport	71	31.0	0.347	to_hand	poldrack-single-stim	s623	False
0.1	449.196	0.501	449.697	0	PA_without_intermediate	test	ward_and_allport	82	31.0	0.501	to_board	poldrack-single-stim	s623	False
0.1	449.704	0.545	450.249	0	PA_without_intermediate	test	ward_and_allport	71	31.0	0.545	to_hand	poldrack-single-stim	s623	False
0.1	450.25	0.567	450.817	0	PA_without_intermediate	test	ward_and_allport	89	31.0	0.567	to_board	poldrack-single-stim	s623	False
1.0	450.823	5.128	450.822	0	PA_without_intermediate	test	ward_and_allport	-1	31.0	n/a	feedback	poldrack-single-stim	s623	False
1.006	455.957	1.006	456.963	1	PA_without_intermediate	test	ward_and_allport	71	32.0	1.006	to_hand	poldrack-single-stim	s623	False
0.1	456.965	1.177	458.142	0	PA_without_intermediate	test	ward_and_allport	89	32.0	1.177	to_board	poldrack-single-stim	s623	False
0.1	458.151	0.331	458.482	0	PA_without_intermediate	test	ward_and_allport	71	32.0	0.331	to_hand	poldrack-single-stim	s623	False
0.1	458.483	0.32	458.803	0	PA_without_intermediate	test	ward_and_allport	89	32.0	0.32	to_board	poldrack-single-stim	s623	False
0.1	458.813	1.006	459.819	0	PA_without_intermediate	test	ward_and_allport	71	32.0	1.006	to_hand	poldrack-single-stim	s623	False
0.1	459.82	0.349	460.169	0	PA_without_intermediate	test	ward_and_allport	82	32.0	0.349	to_board	poldrack-single-stim	s623	False
1.0	460.181	2.136	460.18	0	PA_without_intermediate	test	ward_and_allport	-1	32.0	n/a	feedback	poldrack-single-stim	s623	False
1.521	462.327	1.521	463.848	1	PA_without_intermediate	test	ward_and_allport	82	33.0	1.521	to_hand	poldrack-single-stim	s623	False
0.1	463.848	1.231	465.079	0	PA_without_intermediate	test	ward_and_allport	71	33.0	1.231	to_board	poldrack-single-stim	s623	False
0.1	465.086	0.787	465.873	0	PA_without_intermediate	test	ward_and_allport	82	33.0	0.787	to_hand	poldrack-single-stim	s623	False
0.1	465.875	0.362	466.237	0	PA_without_intermediate	test	ward_and_allport	89	33.0	0.362	to_board	poldrack-single-stim	s623	False
0.1	466.247	0.605	466.852	0	PA_without_intermediate	test	ward_and_allport	82	33.0	0.605	to_hand	poldrack-single-stim	s623	False
0.1	466.852	0.343	467.195	0	PA_without_intermediate	test	ward_and_allport	71	33.0	0.343	to_board	poldrack-single-stim	s623	False
1.0	467.202	5.264	467.201	0	PA_without_intermediate	test	ward_and_allport	-1	33.0	n/a	feedback	poldrack-single-stim	s623	False
2.199	472.477	2.199	474.676	1	PA_with_intermediate	test	ward_and_allport	82	34.0	2.199	to_hand	poldrack-single-stim	s623	False
0.1	474.677	2.624	477.301	0	PA_with_intermediate	test	ward_and_allport	71	34.0	2.624	to_board	poldrack-single-stim	s623	False
0.1	477.312	0.572	477.884	0	PA_with_intermediate	test	ward_and_allport	82	34.0	0.572	to_hand	poldrack-single-stim	s623	False
0.1	477.885	0.334	478.219	0	PA_with_intermediate	test	ward_and_allport	89	34.0	0.334	to_board	poldrack-single-stim	s623	False
0.1	478.23	0.538	478.768	0	PA_with_intermediate	test	ward_and_allport	71	34.0	0.538	to_hand	poldrack-single-stim	s623	False
0.1	478.769	0.806	479.575	0	PA_with_intermediate	test	ward_and_allport	82	34.0	0.806	to_board	poldrack-single-stim	s623	False
1.0	479.584	4.04	479.583	0	PA_with_intermediate	test	ward_and_allport	-1	34.0	n/a	feedback	poldrack-single-stim	s623	False
1.335	483.632	1.335	484.967	1	PA_with_intermediate	test	ward_and_allport	89	35.0	1.335	to_hand	poldrack-single-stim	s623	False
0.1	484.968	2.67	487.638	0	PA_with_intermediate	test	ward_and_allport	82	35.0	2.67	to_board	poldrack-single-stim	s623	False
0.1	487.649	0.351	488.0	0	PA_with_intermediate	test	ward_and_allport	89	35.0	0.351	to_hand	poldrack-single-stim	s623	False
0.1	488.001	0.325	488.326	0	PA_with_intermediate	test	ward_and_allport	71	35.0	0.325	to_board	poldrack-single-stim	s623	False
0.1	488.336	1.599	489.935	0	PA_with_intermediate	test	ward_and_allport	82	35.0	1.599	to_hand	poldrack-single-stim	s623	False
0.1	489.936	0.435	490.371	0	PA_with_intermediate	test	ward_and_allport	89	35.0	0.435	to_board	poldrack-single-stim	s623	False
1.0	490.382	2.136	490.381	0	PA_with_intermediate	test	ward_and_allport	-1	35.0	n/a	feedback	poldrack-single-stim	s623	False
3.399	492.527	3.399	495.926	1	PA_with_intermediate	test	ward_and_allport	82	36.0	3.399	to_hand	poldrack-single-stim	s623	False
0.1	495.928	1.836	497.764	0	PA_with_intermediate	test	ward_and_allport	71	36.0	1.836	to_board	poldrack-single-stim	s623	False
0.1	497.771	0.763	498.534	0	PA_with_intermediate	test	ward_and_allport	82	36.0	0.763	to_hand	poldrack-single-stim	s623	False
0.1	498.535	0.681	499.216	0	PA_with_intermediate	test	ward_and_allport	89	36.0	0.681	to_board	poldrack-single-stim	s623	False
0.1	499.226	0.361	499.587	0	PA_with_intermediate	test	ward_and_allport	71	36.0	0.361	to_hand	poldrack-single-stim	s623	False
0.1	499.588	0.399	499.987	0	PA_with_intermediate	test	ward_and_allport	89	36.0	0.399	to_board	poldrack-single-stim	s623	False
1.0	499.998	2.408	499.997	0	PA_with_intermediate	test	ward_and_allport	-1	36.0	n/a	feedback	poldrack-single-stim	s623	False
1.898	502.417	1.898	504.315	1	PA_without_intermediate	test	ward_and_allport	89	37.0	1.898	to_hand	poldrack-single-stim	s623	False
0.1	504.316	1.051	505.367	0	PA_without_intermediate	test	ward_and_allport	82	37.0	1.051	to_board	poldrack-single-stim	s623	False
0.1	505.375	0.63	506.005	0	PA_without_intermediate	test	ward_and_allport	89	37.0	0.63	to_hand	poldrack-single-stim	s623	False
0.1	506.006	0.822	506.828	0	PA_without_intermediate	test	ward_and_allport	71	37.0	0.822	to_board	poldrack-single-stim	s623	False
0.1	506.839	0.421	507.26	0	PA_without_intermediate	test	ward_and_allport	89	37.0	0.421	to_hand	poldrack-single-stim	s623	False
0.1	507.261	0.484	507.745	0	PA_without_intermediate	test	ward_and_allport	82	37.0	0.484	to_board	poldrack-single-stim	s623	False
1.0	507.754	2.68	507.753	0	PA_without_intermediate	test	ward_and_allport	-1	37.0	n/a	feedback	poldrack-single-stim	s623	False
2.588	510.442	2.588	513.03	1	PA_with_intermediate	test	ward_and_allport	82	38.0	2.588	to_hand	poldrack-single-stim	s623	False
0.1	513.031	1.573	514.604	0	PA_with_intermediate	test	ward_and_allport	89	38.0	1.573	to_board	poldrack-single-stim	s623	False
0.1	514.612	0.67	515.282	0	PA_with_intermediate	test	ward_and_allport	82	38.0	0.67	to_hand	poldrack-single-stim	s623	False
0.1	515.284	0.46	515.744	0	PA_with_intermediate	test	ward_and_allport	71	38.0	0.46	to_board	poldrack-single-stim	s623	False
0.1	515.754	0.352	516.106	0	PA_with_intermediate	test	ward_and_allport	89	38.0	0.352	to_hand	poldrack-single-stim	s623	False
0.1	516.107	0.261	516.368	0	PA_with_intermediate	test	ward_and_allport	71	38.0	0.261	to_board	poldrack-single-stim	s623	False
1.0	516.379	4.72	516.378	0	PA_with_intermediate	test	ward_and_allport	-1	38.0	n/a	feedback	poldrack-single-stim	s623	False
1.607	521.111	1.607	522.718	1	PA_without_intermediate	test	ward_and_allport	71	39.0	1.607	to_hand	poldrack-single-stim	s623	False
0.1	522.72	0.895	523.615	0	PA_without_intermediate	test	ward_and_allport	82	39.0	0.895	to_board	poldrack-single-stim	s623	False
0.1	523.623	0.32	523.943	0	PA_without_intermediate	test	ward_and_allport	71	39.0	0.32	to_hand	poldrack-single-stim	s623	False
0.1	523.945	0.33	524.275	0	PA_without_intermediate	test	ward_and_allport	82	39.0	0.33	to_board	poldrack-single-stim	s623	False
0.1	524.286	1.917	526.203	0	PA_without_intermediate	test	ward_and_allport	71	39.0	1.917	to_hand	poldrack-single-stim	s623	False
0.1	526.205	0.141	526.346	0	PA_without_intermediate	test	ward_and_allport	89	39.0	0.141	to_board	poldrack-single-stim	s623	False
1.0	526.357	3.224	526.356	0	PA_without_intermediate	test	ward_and_allport	-1	39.0	n/a	feedback	poldrack-single-stim	s623	False
2.511	529.592	2.511	532.103	1	PA_without_intermediate	test	ward_and_allport	82	40.0	2.511	to_hand	poldrack-single-stim	s623	False
0.1	532.104	1.076	533.18	0	PA_without_intermediate	test	ward_and_allport	89	40.0	1.076	to_board	poldrack-single-stim	s623	False
0.1	533.19	1.755	534.945	0	PA_without_intermediate	test	ward_and_allport	82	40.0	1.755	to_hand	poldrack-single-stim	s623	False
0.1	534.946	0.755	535.701	0	PA_without_intermediate	test	ward_and_allport	71	40.0	0.755	to_board	poldrack-single-stim	s623	False
0.1	535.712	0.627	536.339	0	PA_without_intermediate	test	ward_and_allport	82	40.0	0.627	to_hand	poldrack-single-stim	s623	False
0.1	536.34	0.27	536.61	0	PA_without_intermediate	test	ward_and_allport	89	40.0	0.27	to_board	poldrack-single-stim	s623	False
1.0	536.621	2.272	536.62	0	PA_without_intermediate	test	ward_and_allport	-1	40.0	n/a	feedback	poldrack-single-stim	s623	False
2.632	538.904	2.632	541.536	1	PA_with_intermediate	test	ward_and_allport	82	41.0	2.632	to_hand	poldrack-single-stim	s623	False
0.1	541.537	1.934	543.471	0	PA_with_intermediate	test	ward_and_allport	89	41.0	1.934	to_board	poldrack-single-stim	s623	False
0.1	543.479	0.432	543.911	0	PA_with_intermediate	test	ward_and_allport	82	41.0	0.432	to_hand	poldrack-single-stim	s623	False
0.1	543.912	0.42	544.332	0	PA_with_intermediate	test	ward_and_allport	71	41.0	0.42	to_board	poldrack-single-stim	s623	False
0.1	544.343	1.281	545.624	0	PA_with_intermediate	test	ward_and_allport	89	41.0	1.281	to_hand	poldrack-single-stim	s623	False
0.1	545.625	0.409	546.034	0	PA_with_intermediate	test	ward_and_allport	82	41.0	0.409	to_board	poldrack-single-stim	s623	False
1.0	546.049	3.632	546.048	0	PA_with_intermediate	test	ward_and_allport	-1	41.0	n/a	feedback	poldrack-single-stim	s623	False
13.464	549.697	13.464	563.161	1	PA_without_intermediate	test	ward_and_allport	89	42.0	13.464	to_hand	poldrack-single-stim	s623	False
0.1	563.162	0.865	564.027	0	PA_without_intermediate	test	ward_and_allport	71	42.0	0.865	to_board	poldrack-single-stim	s623	False
0.1	564.038	0.422	564.46	0	PA_without_intermediate	test	ward_and_allport	89	42.0	0.422	to_hand	poldrack-single-stim	s623	False
0.1	564.461	1.321	565.782	0	PA_without_intermediate	test	ward_and_allport	82	42.0	1.321	to_board	poldrack-single-stim	s623	False
0.1	565.794	1.858	567.652	0	PA_without_intermediate	test	ward_and_allport	89	42.0	1.858	to_hand	poldrack-single-stim	s623	False
0.1	567.654	1.123	568.777	0	PA_without_intermediate	test	ward_and_allport	71	42.0	1.123	to_board	poldrack-single-stim	s623	False
1.0	568.79	2.408	568.789	0	PA_without_intermediate	test	ward_and_allport	-1	42.0	n/a	feedback	poldrack-single-stim	s623	False
