onset	duration	movement_onset	CTI	block_duration	correct	correct_response	cue	cue_switch	experiment_exp_id	key_press	response_time	stim_color	stim_number	switch_type	task	task_switch	trial_id	trial_type	worker_id	first_trial_of_block	junk
4.407	1.0	4.406	0.9	2.272	False	89.0	Color	stay	twobytwo	-1.0	n/a	blue	1.0	cue_stay	color	stay	stim	poldrack-single-stim	s623	1	False
6.782	1.0	6.781	0.1	2.136	False	71.0	High-Low	n/a	twobytwo	-1.0	n/a	orange	6.0	task_switch	magnitude	switch	stim	poldrack-single-stim	s623	0	False
9.02	1.0	9.019	0.1	2.0	False	71.0	Magnitude	switch	twobytwo	-1.0	n/a	orange	7.0	cue_switch	magnitude	stay	stim	poldrack-single-stim	s623	0	False
11.124	1.0	11.123	0.1	2.0	False	89.0	Color	n/a	twobytwo	-1.0	n/a	blue	8.0	task_switch	color	switch	stim	poldrack-single-stim	s623	0	False
13.226	1.0	14.13	0.1	2.136	True	71.0	High-Low	n/a	twobytwo	71.0	0.804	blue	9.0	task_switch	magnitude	switch	stim	poldrack-single-stim	s623	0	False
15.465	1.0	16.706	0.1	2.0	True	89.0	Orange-Blue	n/a	twobytwo	89.0	1.141	blue	4.0	task_switch	color	switch	stim	poldrack-single-stim	s623	0	False
18.367	1.0	19.938	0.9	2.136	True	89.0	High-Low	n/a	twobytwo	89.0	0.671	orange	3.0	task_switch	magnitude	switch	stim	poldrack-single-stim	s623	0	False
20.606	1.0	21.448	0.1	2.408	True	71.0	High-Low	stay	twobytwo	71.0	0.742	orange	7.0	cue_stay	magnitude	stay	stim	poldrack-single-stim	s623	0	False
23.917	1.0	25.405	0.9	2.136	True	89.0	Orange-Blue	n/a	twobytwo	89.0	0.588	blue	7.0	task_switch	color	switch	stim	poldrack-single-stim	s623	0	False
26.157	1.0	26.915	0.1	2.0	True	71.0	Magnitude	n/a	twobytwo	71.0	0.658	orange	8.0	task_switch	magnitude	switch	stim	poldrack-single-stim	s623	0	False
29.059	1.0	30.315	0.9	2.136	True	71.0	Orange-Blue	n/a	twobytwo	71.0	0.356	orange	3.0	task_switch	color	switch	stim	poldrack-single-stim	s623	0	False
31.298	1.0	32.147	0.1	2.272	True	89.0	Orange-Blue	stay	twobytwo	89.0	0.749	blue	2.0	cue_stay	color	stay	stim	poldrack-single-stim	s623	0	False
33.673	1.0	34.436	0.1	2.0	True	89.0	Magnitude	n/a	twobytwo	89.0	0.663	blue	4.0	task_switch	magnitude	switch	stim	poldrack-single-stim	s623	0	False
35.775	1.0	36.97	0.1	2.408	True	89.0	Color	n/a	twobytwo	89.0	1.095	blue	3.0	task_switch	color	switch	stim	poldrack-single-stim	s623	0	False
38.286	1.0	38.931	0.1	2.0	True	89.0	Orange-Blue	switch	twobytwo	89.0	0.545	blue	2.0	cue_switch	color	stay	stim	poldrack-single-stim	s623	0	False
41.188	1.0	42.579	0.9	2.136	True	89.0	Magnitude	n/a	twobytwo	89.0	0.491	blue	3.0	task_switch	magnitude	switch	stim	poldrack-single-stim	s623	0	False
44.226	1.0	45.718	0.9	2.408	True	71.0	Color	n/a	twobytwo	71.0	0.592	orange	9.0	task_switch	color	switch	stim	poldrack-single-stim	s623	0	False
47.537	1.0	49.119	0.9	2.136	True	89.0	Magnitude	n/a	twobytwo	89.0	0.682	orange	3.0	task_switch	magnitude	switch	stim	poldrack-single-stim	s623	0	False
50.576	1.0	51.946	0.9	2.408	True	89.0	Orange-Blue	n/a	twobytwo	89.0	0.47	blue	6.0	task_switch	color	switch	stim	poldrack-single-stim	s623	0	False
53.086	1.0	53.904	0.1	2.136	True	89.0	Magnitude	n/a	twobytwo	89.0	0.718	orange	1.0	task_switch	magnitude	switch	stim	poldrack-single-stim	s623	0	False
56.125	1.0	57.487	0.9	2.0	False	89.0	High-Low	switch	twobytwo	71.0	0.462	blue	2.0	cue_switch	magnitude	stay	stim	poldrack-single-stim	s623	0	False
59.027	1.0	60.593	0.9	2.272	True	71.0	High-Low	stay	twobytwo	71.0	0.666	orange	7.0	cue_stay	magnitude	stay	stim	poldrack-single-stim	s623	0	False
61.402	1.0	62.702	0.1	2.0	False	71.0	Orange-Blue	n/a	twobytwo	89.0	1.2	orange	2.0	task_switch	color	switch	stim	poldrack-single-stim	s623	0	False
64.305	1.0	64.304	0.9	2.272	False	71.0	High-Low	n/a	twobytwo	-1.0	n/a	blue	7.0	task_switch	magnitude	switch	stim	poldrack-single-stim	s623	0	False
66.679	1.0	67.423	0.1	2.272	True	89.0	Magnitude	switch	twobytwo	89.0	0.644	blue	3.0	cue_switch	magnitude	stay	stim	poldrack-single-stim	s623	0	False
69.055	1.0	69.987	0.1	2.952	True	71.0	High-Low	switch	twobytwo	71.0	0.832	orange	9.0	cue_switch	magnitude	stay	stim	poldrack-single-stim	s623	0	False
72.109	1.0	72.95	0.1	2.68	True	89.0	High-Low	stay	twobytwo	89.0	0.741	blue	4.0	cue_stay	magnitude	stay	stim	poldrack-single-stim	s623	0	False
74.892	1.0	76.028	0.1	2.136	True	71.0	High-Low	stay	twobytwo	71.0	1.036	orange	6.0	cue_stay	magnitude	stay	stim	poldrack-single-stim	s623	0	False
77.13	1.0	77.84	0.1	2.272	True	89.0	High-Low	stay	twobytwo	89.0	0.61	orange	4.0	cue_stay	magnitude	stay	stim	poldrack-single-stim	s623	0	False
79.505	1.0	80.173	0.1	2.272	True	89.0	Magnitude	switch	twobytwo	89.0	0.568	blue	1.0	cue_switch	magnitude	stay	stim	poldrack-single-stim	s623	0	False
82.68	1.0	84.168	0.9	2.136	False	89.0	Orange-Blue	n/a	twobytwo	71.0	0.588	blue	8.0	task_switch	color	switch	stim	poldrack-single-stim	s623	0	False
84.919	1.0	86.278	0.1	2.408	False	71.0	Color	switch	twobytwo	89.0	1.259	orange	4.0	cue_switch	color	stay	stim	poldrack-single-stim	s623	0	False
88.23	1.0	89.992	0.9	2.136	False	71.0	Orange-Blue	switch	twobytwo	89.0	0.862	orange	8.0	cue_switch	color	stay	stim	poldrack-single-stim	s623	0	False
90.468	1.0	90.467	0.1	2.136	False	71.0	Color	switch	twobytwo	-1.0	n/a	orange	8.0	cue_switch	color	stay	stim	poldrack-single-stim	s623	0	False
92.707	1.0	92.706	0.1	2.0	False	71.0	Orange-Blue	switch	twobytwo	-1.0	n/a	orange	7.0	cue_switch	color	stay	stim	poldrack-single-stim	s623	0	False
94.81	1.0	94.809	0.1	2.0	False	71.0	Orange-Blue	stay	twobytwo	-1.0	n/a	orange	2.0	cue_stay	color	stay	stim	poldrack-single-stim	s623	0	False
97.712	1.0	97.711	0.9	2.0	False	71.0	Color	switch	twobytwo	-1.0	n/a	orange	3.0	cue_switch	color	stay	stim	poldrack-single-stim	s623	0	False
99.814	1.0	99.813	0.1	2.0	False	89.0	Orange-Blue	switch	twobytwo	-1.0	n/a	blue	4.0	cue_switch	color	stay	stim	poldrack-single-stim	s623	0	False
101.917	1.0	102.872	0.1	2.0	True	71.0	Color	switch	twobytwo	71.0	0.855	orange	6.0	cue_switch	color	stay	stim	poldrack-single-stim	s623	0	False
104.82	1.0	106.56	0.9	2.272	False	71.0	Orange-Blue	switch	twobytwo	89.0	0.84	orange	1.0	cue_switch	color	stay	stim	poldrack-single-stim	s623	0	False
107.195	1.0	108.106	0.1	2.408	True	89.0	Color	switch	twobytwo	89.0	0.811	blue	4.0	cue_switch	color	stay	stim	poldrack-single-stim	s623	0	False
110.505	1.0	111.819	0.9	2.0	True	89.0	Color	stay	twobytwo	89.0	0.414	blue	3.0	cue_stay	color	stay	stim	poldrack-single-stim	s623	0	False
113.408	1.0	114.844	0.9	2.136	True	89.0	Magnitude	n/a	twobytwo	89.0	0.536	orange	1.0	task_switch	magnitude	switch	stim	poldrack-single-stim	s623	0	False
116.446	1.0	117.868	0.9	2.0	True	71.0	High-Low	switch	twobytwo	71.0	0.522	blue	6.0	cue_switch	magnitude	stay	stim	poldrack-single-stim	s623	0	False
118.549	1.0	119.49	0.1	2.136	True	89.0	Color	n/a	twobytwo	89.0	0.841	blue	2.0	task_switch	color	switch	stim	poldrack-single-stim	s623	0	False
120.787	1.0	121.722	0.1	2.544	True	71.0	Magnitude	n/a	twobytwo	71.0	0.835	blue	6.0	task_switch	magnitude	switch	stim	poldrack-single-stim	s623	0	False
123.434	1.0	124.652	0.1	2.68	True	89.0	Color	n/a	twobytwo	89.0	1.118	blue	3.0	task_switch	color	switch	stim	poldrack-single-stim	s623	0	False
127.016	1.0	127.015	0.9	3.088	False	71.0	Orange-Blue	switch	twobytwo	-1.0	n/a	orange	6.0	cue_switch	color	stay	stim	poldrack-single-stim	s623	0	False
130.207	1.0	130.206	0.1	2.136	False	89.0	Color	switch	twobytwo	-1.0	n/a	blue	7.0	cue_switch	color	stay	stim	poldrack-single-stim	s623	0	False
132.445	1.0	132.444	0.1	2.544	False	89.0	Orange-Blue	switch	twobytwo	-1.0	n/a	blue	4.0	cue_switch	color	stay	stim	poldrack-single-stim	s623	0	False
135.892	1.0	137.396	0.9	2.0	True	89.0	Color	switch	twobytwo	89.0	0.604	blue	2.0	cue_switch	color	stay	stim	poldrack-single-stim	s623	0	False
137.994	1.0	137.993	0.1	2.136	False	89.0	Magnitude	n/a	twobytwo	-1.0	n/a	blue	4.0	task_switch	magnitude	switch	stim	poldrack-single-stim	s623	0	False
141.033	1.0	143.156	0.9	2.0	True	71.0	Orange-Blue	n/a	twobytwo	71.0	1.223	orange	8.0	task_switch	color	switch	stim	poldrack-single-stim	s623	0	False
143.935	1.0	145.444	0.9	2.408	True	89.0	Magnitude	n/a	twobytwo	89.0	0.609	orange	2.0	task_switch	magnitude	switch	stim	poldrack-single-stim	s623	0	False
146.446	1.0	147.183	0.1	2.0	True	71.0	High-Low	switch	twobytwo	71.0	0.637	orange	9.0	cue_switch	magnitude	stay	stim	poldrack-single-stim	s623	0	False
148.548	1.0	149.365	0.1	2.0	True	71.0	High-Low	stay	twobytwo	71.0	0.717	blue	8.0	cue_stay	magnitude	stay	stim	poldrack-single-stim	s623	0	False
150.65	1.0	150.649	0.1	2.0	False	89.0	Color	n/a	twobytwo	-1.0	n/a	blue	6.0	task_switch	color	switch	stim	poldrack-single-stim	s623	0	False
152.753	1.0	152.752	0.1	2.68	False	71.0	Color	stay	twobytwo	-1.0	n/a	orange	9.0	cue_stay	color	stay	stim	poldrack-single-stim	s623	0	False
155.535	1.0	155.534	0.1	2.272	False	89.0	Orange-Blue	switch	twobytwo	-1.0	n/a	blue	9.0	cue_switch	color	stay	stim	poldrack-single-stim	s623	0	False
157.91	1.0	159.083	0.1	2.408	True	89.0	Orange-Blue	stay	twobytwo	89.0	1.073	blue	4.0	cue_stay	color	stay	stim	poldrack-single-stim	s623	0	False
160.42	1.0	161.2	0.1	3.224	False	89.0	Orange-Blue	stay	twobytwo	71.0	0.68	blue	6.0	cue_stay	color	stay	stim	poldrack-single-stim	s623	0	False
163.747	1.0	165.079	0.1	2.408	True	71.0	High-Low	n/a	twobytwo	71.0	1.232	orange	7.0	task_switch	magnitude	switch	stim	poldrack-single-stim	s623	0	False
167.058	1.0	168.526	0.9	2.816	True	89.0	Color	n/a	twobytwo	89.0	0.568	blue	6.0	task_switch	color	switch	stim	poldrack-single-stim	s623	0	False
169.977	1.0	170.779	0.1	2.408	True	71.0	Magnitude	n/a	twobytwo	71.0	0.702	blue	9.0	task_switch	magnitude	switch	stim	poldrack-single-stim	s623	0	False
172.488	1.0	172.487	0.1	2.136	False	89.0	Orange-Blue	n/a	twobytwo	-1.0	n/a	blue	6.0	task_switch	color	switch	stim	poldrack-single-stim	s623	0	False
175.526	1.0	177.474	0.9	2.136	True	71.0	Orange-Blue	stay	twobytwo	71.0	1.048	orange	6.0	cue_stay	color	stay	stim	poldrack-single-stim	s623	0	False
177.765	1.0	178.514	0.1	2.0	False	71.0	Color	switch	twobytwo	89.0	0.649	orange	1.0	cue_switch	color	stay	stim	poldrack-single-stim	s623	0	False
179.867	1.0	180.663	0.1	2.0	True	71.0	Orange-Blue	switch	twobytwo	71.0	0.696	orange	6.0	cue_switch	color	stay	stim	poldrack-single-stim	s623	0	False
181.97	1.0	183.034	0.1	2.272	True	71.0	High-Low	n/a	twobytwo	71.0	0.964	blue	8.0	task_switch	magnitude	switch	stim	poldrack-single-stim	s623	0	False
184.345	1.0	185.315	0.1	2.408	True	71.0	Color	n/a	twobytwo	71.0	0.87	orange	3.0	task_switch	color	switch	stim	poldrack-single-stim	s623	0	False
187.656	1.0	189.589	0.9	2.0	True	89.0	Magnitude	n/a	twobytwo	89.0	1.033	blue	3.0	task_switch	magnitude	switch	stim	poldrack-single-stim	s623	0	False
190.559	1.0	192.097	0.9	2.136	True	71.0	High-Low	switch	twobytwo	71.0	0.638	blue	8.0	cue_switch	magnitude	stay	stim	poldrack-single-stim	s623	0	False
192.798	1.0	193.807	0.1	2.0	True	71.0	Orange-Blue	n/a	twobytwo	71.0	0.909	orange	9.0	task_switch	color	switch	stim	poldrack-single-stim	s623	0	False
195.7	1.0	197.413	0.9	2.408	True	71.0	Magnitude	n/a	twobytwo	71.0	0.813	orange	6.0	task_switch	magnitude	switch	stim	poldrack-single-stim	s623	0	False
198.211	1.0	198.962	0.1	2.272	True	89.0	High-Low	switch	twobytwo	89.0	0.651	orange	1.0	cue_switch	magnitude	stay	stim	poldrack-single-stim	s623	0	False
201.385	1.0	202.72	0.9	2.0	True	71.0	Color	n/a	twobytwo	71.0	0.435	orange	4.0	task_switch	color	switch	stim	poldrack-single-stim	s623	0	False
204.289	1.0	205.626	0.9	2.272	False	89.0	Orange-Blue	switch	twobytwo	71.0	0.437	blue	6.0	cue_switch	color	stay	stim	poldrack-single-stim	s623	0	False
207.463	1.0	209.262	0.9	2.0	True	89.0	Magnitude	n/a	twobytwo	89.0	0.899	orange	2.0	task_switch	magnitude	switch	stim	poldrack-single-stim	s623	0	False
209.566	1.0	210.744	0.1	2.0	False	89.0	Orange-Blue	n/a	twobytwo	71.0	1.078	blue	7.0	task_switch	color	switch	stim	poldrack-single-stim	s623	0	False
212.469	1.0	213.97	0.9	2.272	True	89.0	Orange-Blue	stay	twobytwo	89.0	0.601	blue	3.0	cue_stay	color	stay	stim	poldrack-single-stim	s623	0	False
229.147	1.0	230.503	0.9	2.136	True	89.0	Orange-Blue	stay	twobytwo	89.0	0.456	blue	1.0	cue_stay	color	stay	stim	poldrack-single-stim	s623	1	False
231.386	1.0	232.184	0.1	2.0	True	71.0	Magnitude	n/a	twobytwo	71.0	0.698	orange	6.0	task_switch	magnitude	switch	stim	poldrack-single-stim	s623	0	False
233.49	1.0	234.748	0.1	2.0	True	71.0	High-Low	switch	twobytwo	71.0	1.158	orange	7.0	cue_switch	magnitude	stay	stim	poldrack-single-stim	s623	0	False
235.593	1.0	236.574	0.1	2.0	True	89.0	Orange-Blue	n/a	twobytwo	89.0	0.881	blue	8.0	task_switch	color	switch	stim	poldrack-single-stim	s623	0	False
237.695	1.0	238.635	0.1	2.0	True	71.0	High-Low	n/a	twobytwo	71.0	0.84	blue	9.0	task_switch	magnitude	switch	stim	poldrack-single-stim	s623	0	False
239.798	1.0	240.734	0.1	2.0	True	89.0	Orange-Blue	n/a	twobytwo	89.0	0.836	blue	4.0	task_switch	color	switch	stim	poldrack-single-stim	s623	0	False
242.7	1.0	244.008	0.9	2.136	True	89.0	Magnitude	n/a	twobytwo	89.0	0.408	orange	3.0	task_switch	magnitude	switch	stim	poldrack-single-stim	s623	0	False
244.939	1.0	245.598	0.1	2.0	True	71.0	Magnitude	stay	twobytwo	71.0	0.559	orange	7.0	cue_stay	magnitude	stay	stim	poldrack-single-stim	s623	0	False
247.841	1.0	249.238	0.9	2.0	True	89.0	Orange-Blue	n/a	twobytwo	89.0	0.497	blue	7.0	task_switch	color	switch	stim	poldrack-single-stim	s623	0	False
249.944	1.0	250.637	0.1	2.136	True	71.0	High-Low	n/a	twobytwo	71.0	0.593	orange	8.0	task_switch	magnitude	switch	stim	poldrack-single-stim	s623	0	False
252.983	1.0	254.296	0.9	2.0	True	71.0	Orange-Blue	n/a	twobytwo	71.0	0.413	orange	3.0	task_switch	color	switch	stim	poldrack-single-stim	s623	0	False
255.086	1.0	255.909	0.1	2.136	True	89.0	Orange-Blue	stay	twobytwo	89.0	0.723	blue	2.0	cue_stay	color	stay	stim	poldrack-single-stim	s623	0	False
257.325	1.0	258.471	0.1	2.68	True	89.0	High-Low	n/a	twobytwo	89.0	1.046	blue	4.0	task_switch	magnitude	switch	stim	poldrack-single-stim	s623	0	False
260.107	1.0	260.928	0.1	2.272	True	89.0	Orange-Blue	n/a	twobytwo	89.0	0.721	blue	3.0	task_switch	color	switch	stim	poldrack-single-stim	s623	0	False
262.482	1.0	263.124	0.1	2.136	True	89.0	Color	switch	twobytwo	89.0	0.542	blue	2.0	cue_switch	color	stay	stim	poldrack-single-stim	s623	0	False
265.52	1.0	266.984	0.9	2.0	True	89.0	Magnitude	n/a	twobytwo	89.0	0.564	blue	3.0	task_switch	magnitude	switch	stim	poldrack-single-stim	s623	0	False
268.423	1.0	270.108	0.9	2.136	True	71.0	Color	n/a	twobytwo	71.0	0.785	orange	9.0	task_switch	color	switch	stim	poldrack-single-stim	s623	0	False
271.462	1.0	273.036	0.9	2.68	True	89.0	High-Low	n/a	twobytwo	89.0	0.674	orange	3.0	task_switch	magnitude	switch	stim	poldrack-single-stim	s623	0	False
275.045	1.0	276.791	0.9	2.272	False	89.0	Color	n/a	twobytwo	71.0	0.846	blue	6.0	task_switch	color	switch	stim	poldrack-single-stim	s623	0	False
277.419	1.0	278.357	0.1	2.0	True	89.0	High-Low	n/a	twobytwo	89.0	0.838	orange	1.0	task_switch	magnitude	switch	stim	poldrack-single-stim	s623	0	False
280.322	1.0	281.919	0.9	2.0	True	89.0	Magnitude	switch	twobytwo	89.0	0.697	blue	2.0	cue_switch	magnitude	stay	stim	poldrack-single-stim	s623	0	False
283.224	1.0	283.223	0.9	2.136	False	71.0	Magnitude	stay	twobytwo	-1.0	n/a	orange	7.0	cue_stay	magnitude	stay	stim	poldrack-single-stim	s623	0	False
285.464	1.0	286.922	0.1	2.0	True	71.0	Color	n/a	twobytwo	71.0	1.358	orange	2.0	task_switch	color	switch	stim	poldrack-single-stim	s623	0	False
288.366	1.0	289.952	0.9	2.0	True	71.0	High-Low	n/a	twobytwo	71.0	0.686	blue	7.0	task_switch	magnitude	switch	stim	poldrack-single-stim	s623	0	False
290.469	1.0	291.464	0.1	2.0	True	89.0	Magnitude	switch	twobytwo	89.0	0.895	blue	3.0	cue_switch	magnitude	stay	stim	poldrack-single-stim	s623	0	False
292.571	1.0	293.392	0.1	2.272	True	71.0	High-Low	switch	twobytwo	71.0	0.721	orange	9.0	cue_switch	magnitude	stay	stim	poldrack-single-stim	s623	0	False
294.946	1.0	296.267	0.1	2.408	True	89.0	High-Low	stay	twobytwo	89.0	1.221	blue	4.0	cue_stay	magnitude	stay	stim	poldrack-single-stim	s623	0	False
297.457	1.0	297.456	0.1	2.0	False	71.0	High-Low	stay	twobytwo	-1.0	n/a	orange	6.0	cue_stay	magnitude	stay	stim	poldrack-single-stim	s623	0	False
299.559	1.0	300.231	0.1	2.0	True	89.0	High-Low	stay	twobytwo	89.0	0.572	orange	4.0	cue_stay	magnitude	stay	stim	poldrack-single-stim	s623	0	False
301.662	1.0	303.355	0.1	2.0	False	89.0	Magnitude	switch	twobytwo	71.0	1.593	blue	1.0	cue_switch	magnitude	stay	stim	poldrack-single-stim	s623	0	False
304.565	1.0	307.514	0.9	2.272	False	89.0	Orange-Blue	n/a	twobytwo	71.0	2.049	blue	8.0	task_switch	color	switch	stim	poldrack-single-stim	s623	0	False
306.939	1.0	306.938	0.1	2.136	False	71.0	Color	switch	twobytwo	-1.0	n/a	orange	4.0	cue_switch	color	stay	stim	poldrack-single-stim	s623	0	False
309.978	1.0	309.977	0.9	2.0	False	71.0	Orange-Blue	switch	twobytwo	-1.0	n/a	orange	8.0	cue_switch	color	stay	stim	poldrack-single-stim	s623	0	False
312.08	1.0	312.079	0.1	2.544	False	71.0	Color	switch	twobytwo	-1.0	n/a	orange	8.0	cue_switch	color	stay	stim	poldrack-single-stim	s623	0	False
314.727	1.0	315.599	0.1	2.272	False	71.0	Orange-Blue	switch	twobytwo	89.0	0.772	orange	7.0	cue_switch	color	stay	stim	poldrack-single-stim	s623	0	False
317.101	1.0	317.62	0.1	2.272	True	71.0	Orange-Blue	stay	twobytwo	71.0	0.419	orange	2.0	cue_stay	color	stay	stim	poldrack-single-stim	s623	0	False
320.276	1.0	321.553	0.9	2.0	True	71.0	Color	switch	twobytwo	71.0	0.377	orange	3.0	cue_switch	color	stay	stim	poldrack-single-stim	s623	0	False
322.379	1.0	323.555	0.1	2.0	True	89.0	Orange-Blue	switch	twobytwo	89.0	1.076	blue	4.0	cue_switch	color	stay	stim	poldrack-single-stim	s623	0	False
324.482	1.0	325.427	0.1	2.136	True	71.0	Color	switch	twobytwo	71.0	0.845	orange	6.0	cue_switch	color	stay	stim	poldrack-single-stim	s623	0	False
327.52	1.0	327.519	0.9	2.0	False	71.0	Orange-Blue	switch	twobytwo	-1.0	n/a	orange	1.0	cue_switch	color	stay	stim	poldrack-single-stim	s623	0	False
329.623	1.0	330.291	0.1	2.136	False	89.0	Color	switch	twobytwo	71.0	0.568	blue	4.0	cue_switch	color	stay	stim	poldrack-single-stim	s623	0	False
332.662	1.0	332.661	0.9	2.272	False	89.0	Color	stay	twobytwo	-1.0	n/a	blue	3.0	cue_stay	color	stay	stim	poldrack-single-stim	s623	0	False
335.837	1.0	337.627	0.9	2.136	True	89.0	Magnitude	n/a	twobytwo	89.0	0.89	orange	1.0	task_switch	magnitude	switch	stim	poldrack-single-stim	s623	0	False
338.875	1.0	340.205	0.9	2.272	False	71.0	High-Low	switch	twobytwo	89.0	0.43	blue	6.0	cue_switch	magnitude	stay	stim	poldrack-single-stim	s623	0	False
341.25	1.0	342.186	0.1	2.0	False	89.0	Color	n/a	twobytwo	71.0	0.836	blue	2.0	task_switch	color	switch	stim	poldrack-single-stim	s623	0	False
343.353	1.0	344.056	0.1	2.816	False	71.0	High-Low	n/a	twobytwo	89.0	0.603	blue	6.0	task_switch	magnitude	switch	stim	poldrack-single-stim	s623	0	False
346.272	1.0	346.271	0.1	2.408	False	89.0	Orange-Blue	n/a	twobytwo	-1.0	n/a	blue	3.0	task_switch	color	switch	stim	poldrack-single-stim	s623	0	False
349.582	1.0	349.581	0.9	2.0	False	71.0	Color	switch	twobytwo	-1.0	n/a	orange	6.0	cue_switch	color	stay	stim	poldrack-single-stim	s623	0	False
351.686	1.0	353.058	0.1	2.544	False	89.0	Orange-Blue	switch	twobytwo	71.0	1.272	blue	7.0	cue_switch	color	stay	stim	poldrack-single-stim	s623	0	False
354.333	1.0	354.989	0.1	2.136	True	89.0	Color	switch	twobytwo	89.0	0.556	blue	4.0	cue_switch	color	stay	stim	poldrack-single-stim	s623	0	False
357.371	1.0	358.9	0.9	2.0	True	89.0	Orange-Blue	switch	twobytwo	89.0	0.629	blue	2.0	cue_switch	color	stay	stim	poldrack-single-stim	s623	0	False
359.473	1.0	360.094	0.1	2.0	True	89.0	High-Low	n/a	twobytwo	89.0	0.521	blue	4.0	task_switch	magnitude	switch	stim	poldrack-single-stim	s623	0	False
362.376	1.0	363.878	0.9	2.136	True	71.0	Orange-Blue	n/a	twobytwo	71.0	0.602	orange	8.0	task_switch	color	switch	stim	poldrack-single-stim	s623	0	False
365.414	1.0	366.998	0.9	2.136	True	89.0	Magnitude	n/a	twobytwo	89.0	0.684	orange	2.0	task_switch	magnitude	switch	stim	poldrack-single-stim	s623	0	False
367.653	1.0	368.475	0.1	2.272	True	71.0	High-Low	switch	twobytwo	71.0	0.722	orange	9.0	cue_switch	magnitude	stay	stim	poldrack-single-stim	s623	0	False
370.028	1.0	371.195	0.1	3.224	True	71.0	High-Low	stay	twobytwo	71.0	1.067	blue	8.0	cue_stay	magnitude	stay	stim	poldrack-single-stim	s623	0	False
373.354	1.0	374.958	0.1	2.0	True	89.0	Color	n/a	twobytwo	89.0	1.504	blue	6.0	task_switch	color	switch	stim	poldrack-single-stim	s623	0	False
375.457	1.0	376.193	0.1	2.0	True	71.0	Color	stay	twobytwo	71.0	0.636	orange	9.0	cue_stay	color	stay	stim	poldrack-single-stim	s623	0	False
377.56	1.0	378.561	0.1	2.272	False	89.0	Orange-Blue	switch	twobytwo	71.0	0.901	blue	9.0	cue_switch	color	stay	stim	poldrack-single-stim	s623	0	False
379.935	1.0	380.826	0.1	2.136	True	89.0	Orange-Blue	stay	twobytwo	89.0	0.791	blue	4.0	cue_stay	color	stay	stim	poldrack-single-stim	s623	0	False
382.174	1.0	382.173	0.1	2.0	False	89.0	Orange-Blue	stay	twobytwo	-1.0	n/a	blue	6.0	cue_stay	color	stay	stim	poldrack-single-stim	s623	0	False
384.277	1.0	384.276	0.1	2.0	False	71.0	High-Low	n/a	twobytwo	-1.0	n/a	orange	7.0	task_switch	magnitude	switch	stim	poldrack-single-stim	s623	0	False
387.179	1.0	388.686	0.9	2.0	False	89.0	Orange-Blue	n/a	twobytwo	71.0	0.607	blue	6.0	task_switch	color	switch	stim	poldrack-single-stim	s623	0	False
389.282	1.0	390.092	0.1	2.68	True	71.0	High-Low	n/a	twobytwo	71.0	0.71	blue	9.0	task_switch	magnitude	switch	stim	poldrack-single-stim	s623	0	False
392.066	1.0	392.801	0.1	2.0	False	89.0	Orange-Blue	n/a	twobytwo	71.0	0.635	blue	6.0	task_switch	color	switch	stim	poldrack-single-stim	s623	0	False
394.968	1.0	396.466	0.9	2.272	True	71.0	Orange-Blue	stay	twobytwo	71.0	0.598	orange	6.0	cue_stay	color	stay	stim	poldrack-single-stim	s623	0	False
397.343	1.0	397.711	0.1	2.0	True	71.0	Color	switch	twobytwo	71.0	0.268	orange	1.0	cue_switch	color	stay	stim	poldrack-single-stim	s623	0	False
399.446	1.0	400.269	0.1	2.272	True	71.0	Orange-Blue	switch	twobytwo	71.0	0.723	orange	6.0	cue_switch	color	stay	stim	poldrack-single-stim	s623	0	False
401.821	1.0	402.634	0.1	2.952	True	71.0	Magnitude	n/a	twobytwo	71.0	0.713	blue	8.0	task_switch	magnitude	switch	stim	poldrack-single-stim	s623	0	False
404.876	1.0	405.931	0.1	2.0	False	71.0	Orange-Blue	n/a	twobytwo	89.0	0.955	orange	3.0	task_switch	color	switch	stim	poldrack-single-stim	s623	0	False
407.778	1.0	409.943	0.9	2.0	True	89.0	High-Low	n/a	twobytwo	89.0	1.265	blue	3.0	task_switch	magnitude	switch	stim	poldrack-single-stim	s623	0	False
410.681	1.0	410.68	0.9	2.0	False	71.0	Magnitude	switch	twobytwo	-1.0	n/a	blue	8.0	cue_switch	magnitude	stay	stim	poldrack-single-stim	s623	0	False
412.783	1.0	413.602	0.1	2.0	True	71.0	Color	n/a	twobytwo	71.0	0.719	orange	9.0	task_switch	color	switch	stim	poldrack-single-stim	s623	0	False
415.687	1.0	416.999	0.9	2.136	False	71.0	High-Low	n/a	twobytwo	89.0	0.412	orange	6.0	task_switch	magnitude	switch	stim	poldrack-single-stim	s623	0	False
417.926	1.0	418.576	0.1	2.0	True	89.0	Magnitude	switch	twobytwo	89.0	0.55	orange	1.0	cue_switch	magnitude	stay	stim	poldrack-single-stim	s623	0	False
420.828	1.0	422.069	0.9	2.0	True	71.0	Orange-Blue	n/a	twobytwo	71.0	0.341	orange	4.0	task_switch	color	switch	stim	poldrack-single-stim	s623	0	False
423.73	1.0	425.068	0.9	2.0	True	89.0	Color	switch	twobytwo	89.0	0.438	blue	6.0	cue_switch	color	stay	stim	poldrack-single-stim	s623	0	False
426.633	1.0	427.949	0.9	2.272	True	89.0	Magnitude	n/a	twobytwo	89.0	0.416	orange	2.0	task_switch	magnitude	switch	stim	poldrack-single-stim	s623	0	False
429.008	1.0	429.784	0.1	2.136	False	89.0	Orange-Blue	n/a	twobytwo	71.0	0.676	blue	7.0	task_switch	color	switch	stim	poldrack-single-stim	s623	0	False
432.047	1.0	434.037	0.9	2.0	True	89.0	Orange-Blue	stay	twobytwo	89.0	1.09	blue	3.0	cue_stay	color	stay	stim	poldrack-single-stim	s623	0	False
448.454	1.0	450.047	0.9	2.136	True	89.0	Orange-Blue	stay	twobytwo	89.0	0.693	blue	1.0	cue_stay	color	stay	stim	poldrack-single-stim	s623	1	False
450.692	1.0	451.471	0.1	2.816	True	71.0	High-Low	n/a	twobytwo	71.0	0.679	orange	6.0	task_switch	magnitude	switch	stim	poldrack-single-stim	s623	0	False
453.611	1.0	454.549	0.1	2.408	False	71.0	Magnitude	switch	twobytwo	89.0	0.838	orange	7.0	cue_switch	magnitude	stay	stim	poldrack-single-stim	s623	0	False
456.122	1.0	457.992	0.1	2.0	False	89.0	Color	n/a	twobytwo	71.0	1.77	blue	8.0	task_switch	color	switch	stim	poldrack-single-stim	s623	0	False
458.225	1.0	458.722	0.1	2.136	True	71.0	Magnitude	n/a	twobytwo	71.0	0.397	blue	9.0	task_switch	magnitude	switch	stim	poldrack-single-stim	s623	0	False
460.463	1.0	461.023	0.1	2.136	False	89.0	Orange-Blue	n/a	twobytwo	71.0	0.46	blue	4.0	task_switch	color	switch	stim	poldrack-single-stim	s623	0	False
463.502	1.0	463.501	0.9	2.136	False	89.0	Magnitude	n/a	twobytwo	-1.0	n/a	orange	3.0	task_switch	magnitude	switch	stim	poldrack-single-stim	s623	0	False
465.74	1.0	465.739	0.1	2.544	False	71.0	Magnitude	stay	twobytwo	-1.0	n/a	orange	7.0	cue_stay	magnitude	stay	stim	poldrack-single-stim	s623	0	False
469.187	1.0	470.763	0.9	2.136	False	89.0	Color	n/a	twobytwo	71.0	0.676	blue	7.0	task_switch	color	switch	stim	poldrack-single-stim	s623	0	False
471.426	1.0	472.122	0.1	2.0	True	71.0	Magnitude	n/a	twobytwo	71.0	0.596	orange	8.0	task_switch	magnitude	switch	stim	poldrack-single-stim	s623	0	False
474.328	1.0	476.008	0.9	2.0	False	71.0	Orange-Blue	n/a	twobytwo	89.0	0.78	orange	3.0	task_switch	color	switch	stim	poldrack-single-stim	s623	0	False
476.432	1.0	477.218	0.1	2.0	True	89.0	Orange-Blue	stay	twobytwo	89.0	0.686	blue	2.0	cue_stay	color	stay	stim	poldrack-single-stim	s623	0	False
478.534	1.0	479.187	0.1	2.0	False	89.0	Magnitude	n/a	twobytwo	71.0	0.553	blue	4.0	task_switch	magnitude	switch	stim	poldrack-single-stim	s623	0	False
480.637	1.0	481.508	0.1	2.136	False	89.0	Color	n/a	twobytwo	71.0	0.771	blue	3.0	task_switch	color	switch	stim	poldrack-single-stim	s623	0	False
482.875	1.0	484.114	0.1	2.0	False	89.0	Orange-Blue	switch	twobytwo	71.0	1.139	blue	2.0	cue_switch	color	stay	stim	poldrack-single-stim	s623	0	False
485.778	1.0	487.488	0.9	2.0	True	89.0	High-Low	n/a	twobytwo	89.0	0.81	blue	3.0	task_switch	magnitude	switch	stim	poldrack-single-stim	s623	0	False
488.681	1.0	490.064	0.9	2.0	True	71.0	Color	n/a	twobytwo	71.0	0.483	orange	9.0	task_switch	color	switch	stim	poldrack-single-stim	s623	0	False
491.584	1.0	493.355	0.9	2.136	True	89.0	High-Low	n/a	twobytwo	89.0	0.871	orange	3.0	task_switch	magnitude	switch	stim	poldrack-single-stim	s623	0	False
494.622	1.0	496.307	0.9	2.136	False	89.0	Orange-Blue	n/a	twobytwo	71.0	0.785	blue	6.0	task_switch	color	switch	stim	poldrack-single-stim	s623	0	False
496.861	1.0	498.205	0.1	2.136	True	89.0	High-Low	n/a	twobytwo	89.0	1.244	orange	1.0	task_switch	magnitude	switch	stim	poldrack-single-stim	s623	0	False
499.9	1.0	499.899	0.9	2.136	False	89.0	Magnitude	switch	twobytwo	-1.0	n/a	blue	2.0	cue_switch	magnitude	stay	stim	poldrack-single-stim	s623	0	False
502.94	1.0	504.705	0.9	2.68	True	71.0	Magnitude	stay	twobytwo	71.0	0.865	orange	7.0	cue_stay	magnitude	stay	stim	poldrack-single-stim	s623	0	False
505.723	1.0	506.902	0.1	2.544	False	71.0	Color	n/a	twobytwo	89.0	1.079	orange	2.0	task_switch	color	switch	stim	poldrack-single-stim	s623	0	False
509.17	1.0	510.827	0.9	2.272	True	71.0	High-Low	n/a	twobytwo	71.0	0.757	blue	7.0	task_switch	magnitude	switch	stim	poldrack-single-stim	s623	0	False
511.545	1.0	512.662	0.1	2.272	False	89.0	Magnitude	switch	twobytwo	71.0	1.017	blue	3.0	cue_switch	magnitude	stay	stim	poldrack-single-stim	s623	0	False
513.919	1.0	514.787	0.1	2.408	False	71.0	High-Low	switch	twobytwo	89.0	0.768	orange	9.0	cue_switch	magnitude	stay	stim	poldrack-single-stim	s623	0	False
516.43	1.0	516.946	0.1	2.136	True	89.0	High-Low	stay	twobytwo	89.0	0.416	blue	4.0	cue_stay	magnitude	stay	stim	poldrack-single-stim	s623	0	False
518.67	1.0	519.025	0.1	2.272	False	71.0	High-Low	stay	twobytwo	89.0	0.255	orange	6.0	cue_stay	magnitude	stay	stim	poldrack-single-stim	s623	0	False
521.045	1.0	522.369	0.1	2.0	False	89.0	High-Low	stay	twobytwo	71.0	1.224	orange	4.0	cue_stay	magnitude	stay	stim	poldrack-single-stim	s623	0	False
523.147	1.0	523.945	0.1	2.136	True	89.0	Magnitude	switch	twobytwo	89.0	0.698	blue	1.0	cue_switch	magnitude	stay	stim	poldrack-single-stim	s623	0	False
526.186	1.0	527.602	0.9	2.272	True	89.0	Color	n/a	twobytwo	89.0	0.516	blue	8.0	task_switch	color	switch	stim	poldrack-single-stim	s623	0	False
528.561	1.0	529.406	0.1	2.0	True	71.0	Orange-Blue	switch	twobytwo	71.0	0.745	orange	4.0	cue_switch	color	stay	stim	poldrack-single-stim	s623	0	False
531.464	1.0	532.926	0.9	2.68	True	71.0	Color	switch	twobytwo	71.0	0.562	orange	8.0	cue_switch	color	stay	stim	poldrack-single-stim	s623	0	False
534.247	1.0	535.173	0.1	2.0	True	71.0	Orange-Blue	switch	twobytwo	71.0	0.826	orange	8.0	cue_switch	color	stay	stim	poldrack-single-stim	s623	0	False
536.35	1.0	536.349	0.1	2.0	False	71.0	Color	switch	twobytwo	-1.0	n/a	orange	7.0	cue_switch	color	stay	stim	poldrack-single-stim	s623	0	False
538.454	1.0	538.453	0.1	2.0	False	71.0	Color	stay	twobytwo	-1.0	n/a	orange	2.0	cue_stay	color	stay	stim	poldrack-single-stim	s623	0	False
541.357	1.0	541.356	0.9	2.272	False	71.0	Orange-Blue	switch	twobytwo	-1.0	n/a	orange	3.0	cue_switch	color	stay	stim	poldrack-single-stim	s623	0	False
543.732	1.0	543.731	0.1	2.0	False	89.0	Color	switch	twobytwo	-1.0	n/a	blue	4.0	cue_switch	color	stay	stim	poldrack-single-stim	s623	0	False
545.835	1.0	545.834	0.1	2.0	False	71.0	Orange-Blue	switch	twobytwo	-1.0	n/a	orange	6.0	cue_switch	color	stay	stim	poldrack-single-stim	s623	0	False
548.738	1.0	548.737	0.9	2.0	False	71.0	Color	switch	twobytwo	-1.0	n/a	orange	1.0	cue_switch	color	stay	stim	poldrack-single-stim	s623	0	False
550.84	1.0	552.28	0.1	2.68	True	89.0	Orange-Blue	switch	twobytwo	89.0	1.34	blue	4.0	cue_switch	color	stay	stim	poldrack-single-stim	s623	0	False
554.423	1.0	555.875	0.9	2.0	True	89.0	Orange-Blue	stay	twobytwo	89.0	0.552	blue	3.0	cue_stay	color	stay	stim	poldrack-single-stim	s623	0	False
557.326	1.0	558.93	0.9	2.136	True	89.0	High-Low	n/a	twobytwo	89.0	0.704	orange	1.0	task_switch	magnitude	switch	stim	poldrack-single-stim	s623	0	False
560.364	1.0	560.363	0.9	2.408	False	71.0	Magnitude	switch	twobytwo	-1.0	n/a	blue	6.0	cue_switch	magnitude	stay	stim	poldrack-single-stim	s623	0	False
562.875	1.0	563.615	0.1	2.136	False	89.0	Color	n/a	twobytwo	71.0	0.64	blue	2.0	task_switch	color	switch	stim	poldrack-single-stim	s623	0	False
565.114	1.0	565.113	0.1	2.0	False	71.0	Magnitude	n/a	twobytwo	-1.0	n/a	blue	6.0	task_switch	magnitude	switch	stim	poldrack-single-stim	s623	0	False
567.216	1.0	567.215	0.1	2.0	False	89.0	Orange-Blue	n/a	twobytwo	-1.0	n/a	blue	3.0	task_switch	color	switch	stim	poldrack-single-stim	s623	0	False
570.119	1.0	573.436	0.9	2.544	False	71.0	Color	switch	twobytwo	89.0	2.417	orange	6.0	cue_switch	color	stay	stim	poldrack-single-stim	s623	0	False
572.766	1.0	572.765	0.1	2.136	False	89.0	Orange-Blue	switch	twobytwo	-1.0	n/a	blue	7.0	cue_switch	color	stay	stim	poldrack-single-stim	s623	0	False
575.005	1.0	575.88	0.1	2.544	True	89.0	Color	switch	twobytwo	89.0	0.775	blue	4.0	cue_switch	color	stay	stim	poldrack-single-stim	s623	0	False
578.452	1.0	578.451	0.9	2.68	False	89.0	Orange-Blue	switch	twobytwo	-1.0	n/a	blue	2.0	cue_switch	color	stay	stim	poldrack-single-stim	s623	0	False
581.235	1.0	581.234	0.1	2.0	False	89.0	Magnitude	n/a	twobytwo	-1.0	n/a	blue	4.0	task_switch	magnitude	switch	stim	poldrack-single-stim	s623	0	False
584.138	1.0	584.137	0.9	2.272	False	71.0	Orange-Blue	n/a	twobytwo	-1.0	n/a	orange	8.0	task_switch	color	switch	stim	poldrack-single-stim	s623	0	False
587.313	1.0	587.312	0.9	3.088	False	89.0	Magnitude	n/a	twobytwo	-1.0	n/a	orange	2.0	task_switch	magnitude	switch	stim	poldrack-single-stim	s623	0	False
590.503	1.0	591.467	0.1	2.0	True	71.0	High-Low	switch	twobytwo	71.0	0.864	orange	9.0	cue_switch	magnitude	stay	stim	poldrack-single-stim	s623	0	False
592.607	1.0	594.173	0.1	2.136	True	71.0	High-Low	stay	twobytwo	71.0	1.466	blue	8.0	cue_stay	magnitude	stay	stim	poldrack-single-stim	s623	0	False
594.845	1.0	595.523	0.1	2.136	False	89.0	Orange-Blue	n/a	twobytwo	71.0	0.578	blue	6.0	task_switch	color	switch	stim	poldrack-single-stim	s623	0	False
597.084	1.0	597.74	0.1	2.0	True	71.0	Orange-Blue	stay	twobytwo	71.0	0.556	orange	9.0	cue_stay	color	stay	stim	poldrack-single-stim	s623	0	False
599.187	1.0	600.545	0.1	2.272	True	89.0	Color	switch	twobytwo	89.0	1.258	blue	9.0	cue_switch	color	stay	stim	poldrack-single-stim	s623	0	False
601.562	1.0	602.38	0.1	2.0	True	89.0	Color	stay	twobytwo	89.0	0.718	blue	4.0	cue_stay	color	stay	stim	poldrack-single-stim	s623	0	False
603.665	1.0	604.439	0.1	2.136	True	89.0	Color	stay	twobytwo	89.0	0.674	blue	6.0	cue_stay	color	stay	stim	poldrack-single-stim	s623	0	False
605.904	1.0	606.95	0.1	2.136	True	71.0	High-Low	n/a	twobytwo	71.0	0.946	orange	7.0	task_switch	magnitude	switch	stim	poldrack-single-stim	s623	0	False
608.943	1.0	610.759	0.9	2.544	True	89.0	Color	n/a	twobytwo	89.0	0.916	blue	6.0	task_switch	color	switch	stim	poldrack-single-stim	s623	0	False
611.589	1.0	611.588	0.1	2.0	False	71.0	High-Low	n/a	twobytwo	-1.0	n/a	blue	9.0	task_switch	magnitude	switch	stim	poldrack-single-stim	s623	0	False
613.693	1.0	613.692	0.1	2.136	False	89.0	Color	n/a	twobytwo	-1.0	n/a	blue	6.0	task_switch	color	switch	stim	poldrack-single-stim	s623	0	False
616.733	1.0	616.732	0.9	2.136	False	71.0	Color	stay	twobytwo	-1.0	n/a	orange	6.0	cue_stay	color	stay	stim	poldrack-single-stim	s623	0	False
618.971	1.0	618.97	0.1	2.136	False	71.0	Orange-Blue	switch	twobytwo	-1.0	n/a	orange	1.0	cue_switch	color	stay	stim	poldrack-single-stim	s623	0	False
621.21	1.0	621.209	0.1	2.0	False	71.0	Color	switch	twobytwo	-1.0	n/a	orange	6.0	cue_switch	color	stay	stim	poldrack-single-stim	s623	0	False
623.313	1.0	623.312	0.1	2.136	False	71.0	Magnitude	n/a	twobytwo	-1.0	n/a	blue	8.0	task_switch	magnitude	switch	stim	poldrack-single-stim	s623	0	False
625.552	1.0	626.349	0.1	2.0	False	71.0	Orange-Blue	n/a	twobytwo	89.0	0.697	orange	3.0	task_switch	color	switch	stim	poldrack-single-stim	s623	0	False
628.454	1.0	630.629	0.9	2.136	True	89.0	High-Low	n/a	twobytwo	89.0	1.275	blue	3.0	task_switch	magnitude	switch	stim	poldrack-single-stim	s623	0	False
631.493	1.0	632.793	0.9	2.816	True	71.0	Magnitude	switch	twobytwo	71.0	0.4	blue	8.0	cue_switch	magnitude	stay	stim	poldrack-single-stim	s623	0	False
634.412	1.0	634.411	0.1	2.136	False	71.0	Color	n/a	twobytwo	-1.0	n/a	orange	9.0	task_switch	color	switch	stim	poldrack-single-stim	s623	0	False
637.451	1.0	640.124	0.9	2.0	False	71.0	Magnitude	n/a	twobytwo	89.0	1.773	orange	6.0	task_switch	magnitude	switch	stim	poldrack-single-stim	s623	0	False
639.554	1.0	639.553	0.1	2.0	False	89.0	High-Low	switch	twobytwo	-1.0	n/a	orange	1.0	cue_switch	magnitude	stay	stim	poldrack-single-stim	s623	0	False
642.456	1.0	644.274	0.9	2.272	True	71.0	Orange-Blue	n/a	twobytwo	71.0	0.918	orange	4.0	task_switch	color	switch	stim	poldrack-single-stim	s623	0	False
645.631	1.0	645.63	0.9	2.0	False	89.0	Color	switch	twobytwo	-1.0	n/a	blue	6.0	cue_switch	color	stay	stim	poldrack-single-stim	s623	0	False
648.535	1.0	648.534	0.9	2.0	False	89.0	Magnitude	n/a	twobytwo	-1.0	n/a	orange	2.0	task_switch	magnitude	switch	stim	poldrack-single-stim	s623	0	False
650.639	1.0	650.638	0.1	2.0	False	89.0	Color	n/a	twobytwo	-1.0	n/a	blue	7.0	task_switch	color	switch	stim	poldrack-single-stim	s623	0	False
653.541	1.0	653.54	0.9	2.408	False	89.0	Color	stay	twobytwo	-1.0	n/a	blue	3.0	cue_stay	color	stay	stim	poldrack-single-stim	s623	0	False
