onset	duration	movement_onset	EV	action	block_duration	experiment_exp_id	gain_amount	gain_probability	key_press	loss_amount	loss_probability	num_cards	num_click_in_round	num_loss_cards	risk	response_time	total_cards	trial_id	trial_type	worker_id	junk	feedback
3.005	5.029	8.034	-1.087777330478379	draw_card	5.029	columbia_card_task_fmri	12.0	0.8333333333333334	89.0	-70.0	0.1666666666666666	6.0	1.0	1.0	-2.1311642286052006	5.029	1.0	stim	poldrack-single-stim	s624	False	0
8.786	1.5	8.035	n/a	-1.0	2.25	columbia_card_task_fmri	n/a	n/a	-1.0	n/a	n/a	n/a	n/a	n/a	n/a	n/a	n/a	ITI	poldrack-single-stim	s624	False	0
10.288	3.217	13.505	-0.2544439971450454	draw_card	3.217	columbia_card_task_fmri	14.0	0.8333333333333334	89.0	-75.0	0.1666666666666666	6.0	1.0	1.0	0.4771506098074525	3.217	n/a	stim	poldrack-single-stim	s624	False	1
13.506	2.52	16.026	-3.221110663811712	draw_card	2.52	columbia_card_task_fmri	14.0	0.8	89.0	-75.0	0.2	6.0	2.0	1.0	2.9084639608602885	2.52	n/a	stim	poldrack-single-stim	s624	False	1
16.027	1.379	17.406	-7.671110663811714	draw_card	1.379	columbia_card_task_fmri	14.0	0.75	89.0	-75.0	0.25	6.0	3.0	1.0	5.846235662819474	1.379	3.0	stim	poldrack-single-stim	s624	False	0
18.157	1.5	17.406	n/a	-1.0	2.386	columbia_card_task_fmri	n/a	n/a	-1.0	n/a	n/a	n/a	n/a	n/a	n/a	n/a	n/a	ITI	poldrack-single-stim	s624	False	0
19.795	2.768	22.563	1.412222669521621	draw_card	2.768	columbia_card_task_fmri	15.0	0.8333333333333334	89.0	-70.0	0.1666666666666666	6.0	1.0	1.0	-1.0133237051379922	2.768	n/a	stim	poldrack-single-stim	s624	False	1
22.567	1.132	23.699	-1.4211106638117132	draw_card	1.132	columbia_card_task_fmri	15.0	0.8	89.0	-70.0	0.2	6.0	2.0	1.0	1.3086854038515412	1.132	n/a	stim	poldrack-single-stim	s624	False	1
23.701	1.397	25.098	-5.671110663811714	draw_card	1.397	columbia_card_task_fmri	15.0	0.75	89.0	-70.0	0.25	6.0	3.0	1.0	4.114389421756407	1.397	3.0	stim	poldrack-single-stim	s624	False	0
25.849	1.5	25.098	n/a	-1.0	2.59	columbia_card_task_fmri	n/a	n/a	-1.0	n/a	n/a	n/a	n/a	n/a	n/a	n/a	n/a	ITI	poldrack-single-stim	s624	False	0
27.69	2.5	30.19	2.2455560028549546	draw_card	2.5	columbia_card_task_fmri	17.0	0.8333333333333334	89.0	-75.0	0.1666666666666666	6.0	1.0	1.0	1.5950199056987913	2.5	1.0	stim	poldrack-single-stim	s624	False	0
30.941	1.5	30.19	n/a	-1.0	2.658	columbia_card_task_fmri	n/a	n/a	-1.0	n/a	n/a	n/a	n/a	n/a	n/a	n/a	n/a	ITI	poldrack-single-stim	s624	False	0
32.85	2.071	34.921	3.5788893361882868	draw_card	2.071	columbia_card_task_fmri	24.0	0.75	89.0	-60.0	0.25	8.0	1.0	2.0	3.681430905070002	2.071	n/a	stim	poldrack-single-stim	s624	False	1
34.922	1.672	36.594	0.5788893361882868	draw_card	1.672	columbia_card_task_fmri	24.0	0.7142857142857143	89.0	-60.0	0.2857142857142857	8.0	2.0	2.0	5.255504795442256	1.672	2.0	stim	poldrack-single-stim	s624	False	0
37.346	1.5	36.595	n/a	-1.0	2.386	columbia_card_task_fmri	n/a	n/a	-1.0	n/a	n/a	n/a	n/a	n/a	n/a	n/a	n/a	ITI	poldrack-single-stim	s624	False	0
38.983	2.717	41.7	3.5788893361882868	draw_card	2.717	columbia_card_task_fmri	29.0	0.75	89.0	-75.0	0.25	8.0	1.0	2.0	12.34079919489701	2.717	n/a	stim	poldrack-single-stim	s624	False	1
41.702	1.034	42.736	-0.135396378097425	draw_card	1.034	columbia_card_task_fmri	29.0	0.7142857142857143	89.0	-75.0	0.2857142857142857	8.0	2.0	2.0	14.289734811454238	1.034	n/a	stim	poldrack-single-stim	s624	False	1
42.738	2.13	44.868	-5.087777330478378	end_round	2.13	columbia_card_task_fmri	29.0	0.6666666666666667	71.0	-75.0	0.3333333333333333	8.0	3.0	2.0	16.333245374404044	2.13	2.0	stim	poldrack-single-stim	s624	False	1
45.62	1.5	44.869	n/a	-1.0	2.386	columbia_card_task_fmri	n/a	n/a	-1.0	n/a	n/a	n/a	n/a	n/a	n/a	n/a	n/a	ITI	poldrack-single-stim	s624	False	0
47.257	2.231	49.488	-0.6433328860339329	draw_card	2.231	columbia_card_task_fmri	17.0	0.7777777777777778	89.0	-65.0	0.2222222222222222	9.0	1.0	2.0	1.3993284920803504	2.231	n/a	stim	poldrack-single-stim	s624	False	1
49.49	1.842	51.332	-2.921110663811713	draw_card	1.842	columbia_card_task_fmri	17.0	0.75	89.0	-65.0	0.25	9.0	2.0	2.0	2.815517835693697	1.842	2.0	stim	poldrack-single-stim	s624	False	0
52.084	1.5	51.333	n/a	-1.0	2.25	columbia_card_task_fmri	n/a	n/a	-1.0	n/a	n/a	n/a	n/a	n/a	n/a	n/a	n/a	ITI	poldrack-single-stim	s624	False	0
53.585	3.156	56.741	3.6788893361882864	draw_card	3.156	columbia_card_task_fmri	14.0	0.9	89.0	-95.0	0.1	10.0	1.0	1.0	0.0088812791055161	3.156	n/a	stim	poldrack-single-stim	s624	False	1
56.742	1.048	57.79	2.4677782250771743	draw_card	1.048	columbia_card_task_fmri	14.0	0.8888888888888888	89.0	-95.0	0.1111111111111111	10.0	2.0	1.0	1.5640438469976914	1.048	n/a	stim	poldrack-single-stim	s624	False	1
57.791	1.058	58.849	0.9538893361882868	draw_card	1.058	columbia_card_task_fmri	14.0	0.875	89.0	-95.0	0.125	10.0	3.0	1.0	3.356767045405917	1.058	n/a	stim	poldrack-single-stim	s624	False	1
58.85	1.363	60.213	-0.9925392352402844	draw_card	1.363	columbia_card_task_fmri	14.0	0.8571428571428572	89.0	-95.0	0.1428571428571428	10.0	4.0	1.0	5.450204901541589	1.363	n/a	stim	poldrack-single-stim	s624	False	1
60.215	1.231	61.446	-3.587777330478377	draw_card	1.231	columbia_card_task_fmri	14.0	0.8333333333333334	89.0	-95.0	0.1666666666666666	10.0	5.0	1.0	7.929783793061922	1.231	n/a	stim	poldrack-single-stim	s624	False	1
61.447	1.305	62.752	-7.221110663811713	end_round	1.305	columbia_card_task_fmri	14.0	0.8	71.0	-95.0	0.2	10.0	6.0	1.0	10.90760049867982	1.305	5.0	stim	poldrack-single-stim	s624	False	1
63.504	1.5	62.753	n/a	-1.0	2.318	columbia_card_task_fmri	n/a	n/a	-1.0	n/a	n/a	n/a	n/a	n/a	n/a	n/a	n/a	ITI	poldrack-single-stim	s624	False	0
65.073	3.165	68.238	-0.4211106638117132	draw_card	3.165	columbia_card_task_fmri	15.0	0.8	89.0	-65.0	0.2	10.0	1.0	2.0	-0.6910066592224524	3.165	n/a	stim	poldrack-single-stim	s624	False	1
68.24	1.683	69.923	-2.19888844158949	end_round	1.683	columbia_card_task_fmri	15.0	0.7777777777777778	71.0	-65.0	0.2222222222222222	10.0	2.0	2.0	0.5679719211888496	1.683	1.0	stim	poldrack-single-stim	s624	False	1
70.675	1.5	69.924	n/a	-1.0	2.25	columbia_card_task_fmri	n/a	n/a	-1.0	n/a	n/a	n/a	n/a	n/a	n/a	n/a	n/a	ITI	poldrack-single-stim	s624	False	0
72.177	2.193	74.37	1.1788893361882882	draw_card	2.193	columbia_card_task_fmri	17.0	0.8	89.0	-65.0	0.2	10.0	1.0	2.0	0.1088656606619693	2.193	n/a	stim	poldrack-single-stim	s624	False	1
74.372	0.837	75.209	-0.6433328860339329	draw_card	0.837	columbia_card_task_fmri	17.0	0.7777777777777778	89.0	-65.0	0.2222222222222222	10.0	2.0	2.0	1.3993284920803504	0.837	n/a	stim	poldrack-single-stim	s624	False	1
75.211	1.536	76.747	-2.921110663811713	draw_card	1.536	columbia_card_task_fmri	17.0	0.75	89.0	-65.0	0.25	10.0	3.0	2.0	2.815517835693697	1.536	n/a	stim	poldrack-single-stim	s624	False	1
76.749	1.098	77.847	-5.849682092383141	end_round	1.098	columbia_card_task_fmri	17.0	0.7142857142857143	71.0	-65.0	0.2857142857142857	10.0	4.0	2.0	4.352104568395788	1.098	3.0	stim	poldrack-single-stim	s624	False	1
78.599	1.5	77.848	n/a	-1.0	2.25	columbia_card_task_fmri	n/a	n/a	-1.0	n/a	n/a	n/a	n/a	n/a	n/a	n/a	n/a	ITI	poldrack-single-stim	s624	False	0
80.101	2.645	82.746	-0.2544439971450454	draw_card	2.645	columbia_card_task_fmri	13.0	0.8333333333333334	89.0	-70.0	0.1666666666666666	12.0	1.0	2.0	-1.7585522743142938	2.645	n/a	stim	poldrack-single-stim	s624	False	1
82.748	0.984	83.732	-1.5120197547208067	draw_card	0.984	columbia_card_task_fmri	13.0	0.8181818181818181	89.0	-70.0	0.1818181818181818	12.0	2.0	2.0	-0.6783562708550761	0.984	2.0	stim	poldrack-single-stim	s624	False	0
84.484	1.5	83.733	n/a	-1.0	2.386	columbia_card_task_fmri	n/a	n/a	-1.0	n/a	n/a	n/a	n/a	n/a	n/a	n/a	n/a	ITI	poldrack-single-stim	s624	False	0
86.121	2.038	88.159	-0.2544439971450454	draw_card	2.038	columbia_card_task_fmri	15.0	0.8333333333333334	89.0	-80.0	0.1666666666666666	12.0	1.0	2.0	2.712899601089724	2.038	n/a	stim	poldrack-single-stim	s624	False	1
88.16	0.523	88.683	-1.6938379365389884	draw_card	0.523	columbia_card_task_fmri	15.0	0.8181818181818181	89.0	-80.0	0.1818181818181818	12.0	2.0	2.0	3.9493180211188914	0.523	n/a	stim	poldrack-single-stim	s624	False	1
88.684	2.277	90.961	-3.421110663811713	draw_card	2.277	columbia_card_task_fmri	15.0	0.8	89.0	-80.0	0.2	12.0	3.0	2.0	5.308166754596556	2.277	n/a	stim	poldrack-single-stim	s624	False	1
90.963	1.332	92.295	-5.532221774922826	draw_card	1.332	columbia_card_task_fmri	15.0	0.7777777777777778	89.0	-80.0	0.2222222222222222	12.0	4.0	2.0	6.8032722614661765	1.332	n/a	stim	poldrack-single-stim	s624	False	1
92.297	1.23	93.527	-8.171110663811714	end_round	1.23	columbia_card_task_fmri	15.0	0.75	71.0	-80.0	0.25	12.0	5.0	2.0	8.44403731929632	1.23	4.0	stim	poldrack-single-stim	s624	False	1
94.278	1.5	93.527	n/a	-1.0	2.386	columbia_card_task_fmri	n/a	n/a	-1.0	n/a	n/a	n/a	n/a	n/a	n/a	n/a	n/a	ITI	poldrack-single-stim	s624	False	0
95.916	2.938	98.854	-1.2211106638117122	draw_card	2.938	columbia_card_task_fmri	14.0	0.8	89.0	-65.0	0.2	15.0	1.0	3.0	-1.0909403954586914	2.938	n/a	stim	poldrack-single-stim	s624	False	1
98.856	1.508	100.364	-2.3496820923831403	draw_card	1.508	columbia_card_task_fmri	14.0	0.7857142857142857	89.0	-65.0	0.2142857142857142	15.0	2.0	3.0	-0.2753274361516133	1.508	n/a	stim	poldrack-single-stim	s624	False	1
100.366	1.045	101.411	-3.651879894580945	draw_card	1.045	columbia_card_task_fmri	14.0	0.7692307692307692	89.0	-65.0	0.2307692307692307	15.0	3.0	3.0	0.5934697853971684	1.045	n/a	stim	poldrack-single-stim	s624	False	1
101.413	1.317	102.73	-5.171110663811714	draw_card	1.317	columbia_card_task_fmri	14.0	0.75	89.0	-65.0	0.25	15.0	4.0	3.0	1.516658894071604	1.317	n/a	stim	poldrack-single-stim	s624	False	1
102.732	1.147	103.879	-6.966565209266259	draw_card	1.147	columbia_card_task_fmri	14.0	0.7272727272727273	89.0	-65.0	0.2727272727272727	15.0	5.0	3.0	2.492099597574409	1.147	5.0	stim	poldrack-single-stim	s624	False	0
104.631	1.5	103.88	n/a	-1.0	2.726	columbia_card_task_fmri	n/a	n/a	-1.0	n/a	n/a	n/a	n/a	n/a	n/a	n/a	n/a	ITI	poldrack-single-stim	s624	False	0
106.61	2.48	109.09	-1.2961106638117132	draw_card	2.48	columbia_card_task_fmri	1.0	0.9375	89.0	-45.0	0.0625	16.0	1.0	1.0	-21.54637744359409	2.48	n/a	stim	poldrack-single-stim	s624	False	1
109.093	0.769	109.862	-1.4877773304783797	draw_card	0.769	columbia_card_task_fmri	1.0	0.9333333333333332	89.0	-45.0	0.0666666666666666	16.0	2.0	1.0	-21.20723305240734	0.769	n/a	stim	poldrack-single-stim	s624	False	1
109.864	0.662	110.526	-1.7068249495259988	draw_card	0.662	columbia_card_task_fmri	1.0	0.9285714285714286	89.0	-45.0	0.0714285714285714	16.0	3.0	1.0	-20.835295879374947	0.662	n/a	stim	poldrack-single-stim	s624	False	1
110.528	1.48	112.008	-1.959572202273252	draw_card	1.48	columbia_card_task_fmri	1.0	0.9230769230769232	89.0	-45.0	0.0769230769230769	16.0	4.0	1.0	-20.42499004643831	1.48	n/a	stim	poldrack-single-stim	s624	False	1
112.01	1.273	113.283	-2.2544439971450467	end_round	1.273	columbia_card_task_fmri	1.0	0.9166666666666666	71.0	-45.0	0.0833333333333333	16.0	5.0	1.0	-19.96934165663301	1.273	4.0	stim	poldrack-single-stim	s624	False	1
114.036	1.5	113.285	n/a	-1.0	2.454	columbia_card_task_fmri	n/a	n/a	-1.0	n/a	n/a	n/a	n/a	n/a	n/a	n/a	n/a	ITI	poldrack-single-stim	s624	False	0
115.742	1.662	117.404	-0.3586106638117132	draw_card	1.662	columbia_card_task_fmri	15.0	0.8125	89.0	-70.0	0.1875	16.0	1.0	3.0	0.4853595601940839	1.662	n/a	stim	poldrack-single-stim	s624	False	1
117.406	0.784	118.19	-1.4211106638117132	draw_card	0.784	columbia_card_task_fmri	15.0	0.8	89.0	-70.0	0.2	16.0	2.0	3.0	1.3086854038515412	0.784	n/a	stim	poldrack-single-stim	s624	False	1
118.192	1.039	119.231	-2.6353963780974285	draw_card	1.039	columbia_card_task_fmri	15.0	0.7857142857142857	89.0	-70.0	0.2142857142857142	16.0	3.0	3.0	2.186263195663983	1.039	n/a	stim	poldrack-single-stim	s624	False	1
119.233	1.696	120.929	-4.03649527919633	end_round	1.696	columbia_card_task_fmri	15.0	0.7692307692307692	71.0	-70.0	0.2307692307692307	16.0	4.0	3.0	3.121064781784682	1.696	3.0	stim	poldrack-single-stim	s624	False	1
121.682	1.5	120.931	n/a	-1.0	2.318	columbia_card_task_fmri	n/a	n/a	-1.0	n/a	n/a	n/a	n/a	n/a	n/a	n/a	n/a	ITI	poldrack-single-stim	s624	False	0
123.251	2.972	126.223	6.578889336188286	draw_card	2.972	columbia_card_task_fmri	30.0	0.7	89.0	-50.0	0.3	10.0	1.0	3.0	3.9689333817687498	2.972	1.0	stim	poldrack-single-stim	s624	False	0
126.976	1.5	126.225	n/a	-1.0	2.318	columbia_card_task_fmri	n/a	n/a	-1.0	n/a	n/a	n/a	n/a	n/a	n/a	n/a	n/a	ITI	poldrack-single-stim	s624	False	0
128.546	1.981	130.527	5.978889336188287	draw_card	1.981	columbia_card_task_fmri	17.0	0.8666666666666667	89.0	-70.0	0.1333333333333333	15.0	1.0	2.0	-3.116264126270938	1.981	n/a	stim	poldrack-single-stim	s624	False	1
130.529	0.804	131.333	5.150317907616859	draw_card	0.804	columbia_card_task_fmri	17.0	0.8571428571428572	89.0	-70.0	0.1428571428571428	15.0	2.0	2.0	-2.247080814529337	0.804	n/a	stim	poldrack-single-stim	s624	False	1
131.335	0.621	131.956	4.194273951572901	draw_card	0.621	columbia_card_task_fmri	17.0	0.8461538461538461	89.0	-70.0	0.1538461538461538	15.0	3.0	2.0	-1.3011994114508774	0.621	n/a	stim	poldrack-single-stim	s624	False	1
131.958	0.78	132.738	3.0788893361882885	draw_card	0.78	columbia_card_task_fmri	17.0	0.8333333333333334	89.0	-70.0	0.1666666666666666	15.0	4.0	2.0	-0.2680892788518036	0.78	n/a	stim	poldrack-single-stim	s624	False	1
132.741	1.136	133.877	1.7607075180064666	draw_card	1.136	columbia_card_task_fmri	17.0	0.8181818181818181	89.0	-70.0	0.1818181818181818	15.0	5.0	2.0	0.8641815703062434	1.136	n/a	stim	poldrack-single-stim	s624	False	1
133.88	1.145	135.025	0.1788893361882881	end_round	1.145	columbia_card_task_fmri	17.0	0.8	71.0	-70.0	0.2	15.0	6.0	2.0	2.108572137562476	1.145	5.0	stim	poldrack-single-stim	s624	False	1
135.777	1.5	135.026	n/a	-1.0	2.59	columbia_card_task_fmri	n/a	n/a	-1.0	n/a	n/a	n/a	n/a	n/a	n/a	n/a	n/a	ITI	poldrack-single-stim	s624	False	0
137.618	5.405	143.023	1.2038893361882868	draw_card	5.405	columbia_card_task_fmri	7.0	0.9375	89.0	-95.0	0.0625	16.0	1.0	1.0	-7.999188134857846	5.405	n/a	stim	poldrack-single-stim	s624	False	1
143.025	0.481	143.506	0.7788893361882869	draw_card	0.481	columbia_card_task_fmri	7.0	0.9333333333333332	89.0	-95.0	0.0666666666666666	16.0	2.0	1.0	-7.246387500188511	0.481	n/a	stim	poldrack-single-stim	s624	False	1
143.508	1.083	144.591	0.2931750504740011	draw_card	1.083	columbia_card_task_fmri	7.0	0.9285714285714286	89.0	-95.0	0.0714285714285714	16.0	3.0	1.0	-6.42084822670947	1.083	n/a	stim	poldrack-single-stim	s624	False	1
144.593	0.588	145.181	-0.2672645099655599	draw_card	0.588	columbia_card_task_fmri	7.0	0.9230769230769232	89.0	-95.0	0.0769230769230769	16.0	4.0	1.0	-5.510204132942469	0.588	n/a	stim	poldrack-single-stim	s624	False	1
145.183	0.667	145.85	-0.9211106638117132	draw_card	0.667	columbia_card_task_fmri	7.0	0.9166666666666666	89.0	-95.0	0.0833333333333333	16.0	5.0	1.0	-4.498988728948273	0.667	n/a	stim	poldrack-single-stim	s624	False	1
145.852	0.508	146.36	-1.6938379365389866	draw_card	0.508	columbia_card_task_fmri	7.0	0.9090909090909092	89.0	-95.0	0.0909090909090909	16.0	6.0	1.0	-3.3675904466166	0.508	n/a	stim	poldrack-single-stim	s624	False	1
146.362	0.919	147.281	-2.621110663811713	draw_card	0.919	columbia_card_task_fmri	7.0	0.9	89.0	-95.0	0.1	16.0	7.0	1.0	-2.0907671588432493	0.919	n/a	stim	poldrack-single-stim	s624	False	1
147.283	0.926	148.209	-3.754443997145047	draw_card	0.926	columbia_card_task_fmri	7.0	0.8888888888888888	89.0	-95.0	0.1111111111111111	16.0	8.0	1.0	-0.6355083101246137	0.926	n/a	stim	poldrack-single-stim	s624	False	1
148.211	0.976	149.187	-5.171110663811714	end_round	0.976	columbia_card_task_fmri	7.0	0.875	71.0	-95.0	0.125	16.0	9.0	1.0	1.0420535695482158	0.976	8.0	stim	poldrack-single-stim	s624	False	1
149.94	1.5	149.189	n/a	-1.0	2.726	columbia_card_task_fmri	n/a	n/a	-1.0	n/a	n/a	n/a	n/a	n/a	n/a	n/a	n/a	ITI	poldrack-single-stim	s624	False	0
151.919	2.628	154.547	2.7663893361882868	draw_card	2.628	columbia_card_task_fmri	9.0	0.9375	89.0	-100.0	0.0625	16.0	1.0	1.0	-6.305193572242629	2.628	n/a	stim	poldrack-single-stim	s624	False	1
154.55	0.372	154.922	2.31222266952162	draw_card	0.372	columbia_card_task_fmri	9.0	0.9333333333333332	89.0	-100.0	0.0666666666666666	16.0	2.0	1.0	-5.500703487330103	0.372	n/a	stim	poldrack-single-stim	s624	False	1
154.925	0.429	155.354	1.793175050474002	draw_card	0.429	columbia_card_task_fmri	9.0	0.9285714285714286	89.0	-100.0	0.0714285714285714	16.0	3.0	1.0	-4.61848207645555	0.429	n/a	stim	poldrack-single-stim	s624	False	1
155.356	0.319	155.675	1.1942739515729026	draw_card	0.319	columbia_card_task_fmri	9.0	0.9230769230769232	89.0	-100.0	0.0769230769230769	16.0	4.0	1.0	-3.645314421413058	0.319	n/a	stim	poldrack-single-stim	s624	False	1
155.678	0.377	156.055	0.4955560028549546	draw_card	0.377	columbia_card_task_fmri	9.0	0.9166666666666666	89.0	-100.0	0.0833333333333333	16.0	5.0	1.0	-2.5646725172850005	0.377	n/a	stim	poldrack-single-stim	s624	False	1
156.058	1.397	157.455	-0.3302015729026233	draw_card	1.397	columbia_card_task_fmri	9.0	0.9090909090909092	89.0	-100.0	0.0909090909090909	16.0	6.0	1.0	-1.355598800540477	1.397	6.0	stim	poldrack-single-stim	s624	False	0
158.208	1.5	157.457	n/a	-1.0	2.522	columbia_card_task_fmri	n/a	n/a	-1.0	n/a	n/a	n/a	n/a	n/a	n/a	n/a	n/a	ITI	poldrack-single-stim	s624	False	0
159.983	1.697	161.68	3.703889336188287	draw_card	1.697	columbia_card_task_fmri	15.0	0.875	89.0	-80.0	0.125	16.0	1.0	2.0	-1.2726129185549588	1.697	n/a	stim	poldrack-single-stim	s624	False	1
161.682	0.454	162.136	2.9122226695216207	draw_card	0.454	columbia_card_task_fmri	15.0	0.8666666666666667	89.0	-80.0	0.1333333333333333	16.0	2.0	2.0	-0.3972640302494312	0.454	n/a	stim	poldrack-single-stim	s624	False	1
162.139	0.495	162.634	2.0074607647597174	draw_card	0.495	columbia_card_task_fmri	15.0	0.8571428571428572	89.0	-80.0	0.1428571428571428	16.0	3.0	2.0	0.5518726701081675	0.495	n/a	stim	poldrack-single-stim	s624	False	1
162.637	0.915	163.552	0.96350472080367	draw_card	0.915	columbia_card_task_fmri	15.0	0.8461538461538461	89.0	-80.0	0.1538461538461538	16.0	4.0	2.0	1.584760881233947	0.915	n/a	stim	poldrack-single-stim	s624	False	1
163.555	1.379	164.934	-0.2544439971450454	draw_card	1.379	columbia_card_task_fmri	15.0	0.8333333333333334	89.0	-80.0	0.1666666666666666	16.0	5.0	2.0	2.712899601089724	1.379	5.0	stim	poldrack-single-stim	s624	False	0
165.687	1.5	164.936	n/a	-1.0	3.134	columbia_card_task_fmri	n/a	n/a	-1.0	n/a	n/a	n/a	n/a	n/a	n/a	n/a	n/a	ITI	poldrack-single-stim	s624	False	0
168.074	1.749	169.823	5.828889336188286	draw_card	1.749	columbia_card_task_fmri	16.0	0.875	89.0	-70.0	0.125	16.0	1.0	2.0	-4.248525187454241	1.749	n/a	stim	poldrack-single-stim	s624	False	1
169.826	0.372	170.198	5.11222266952162	draw_card	0.372	columbia_card_task_fmri	16.0	0.8666666666666667	89.0	-70.0	0.1333333333333333	16.0	2.0	2.0	-3.456132900506549	0.372	n/a	stim	poldrack-single-stim	s624	False	1
170.201	0.375	170.576	4.293175050474002	draw_card	0.375	columbia_card_task_fmri	16.0	0.8571428571428572	89.0	-70.0	0.1428571428571428	16.0	3.0	2.0	-2.596943940280081	0.375	n/a	stim	poldrack-single-stim	s624	False	1
170.578	1.07	171.648	3.348120105419055	draw_card	1.07	columbia_card_task_fmri	16.0	0.8461538461538461	89.0	-70.0	0.1538461538461538	16.0	4.0	2.0	-1.6619385706631211	1.07	n/a	stim	poldrack-single-stim	s624	False	1
171.654	1.062	172.716	2.2455560028549546	draw_card	1.062	columbia_card_task_fmri	16.0	0.8333333333333334	89.0	-70.0	0.1666666666666666	16.0	5.0	2.0	-0.6407071986023141	1.062	5.0	stim	poldrack-single-stim	s624	False	0
173.469	1.5	172.718	n/a	-1.0	2.386	columbia_card_task_fmri	n/a	n/a	-1.0	n/a	n/a	n/a	n/a	n/a	n/a	n/a	n/a	ITI	poldrack-single-stim	s624	False	0
175.108	3.078	178.186	7.141389336188286	draw_card	3.078	columbia_card_task_fmri	30.0	0.6875	89.0	-45.0	0.3125	16.0	1.0	5.0	2.0720076097701465	3.078	n/a	stim	poldrack-single-stim	s624	False	1
178.188	1.975	180.163	5.57888933618829	draw_card	1.975	columbia_card_task_fmri	30.0	0.6666666666666667	89.0	-45.0	0.3333333333333333	16.0	2.0	5.0	2.663835583908785	1.975	2.0	stim	poldrack-single-stim	s624	False	0
180.916	1.5	180.165	n/a	-1.0	2.386	columbia_card_task_fmri	n/a	n/a	-1.0	n/a	n/a	n/a	n/a	n/a	n/a	n/a	n/a	ITI	poldrack-single-stim	s624	False	0
182.554	1.982	184.536	-1.087777330478379	draw_card	1.982	columbia_card_task_fmri	13.0	0.8333333333333334	89.0	-75.0	0.1666666666666666	6.0	1.0	1.0	0.1045300059510339	1.982	n/a	stim	poldrack-single-stim	s624	False	1
184.54	0.908	185.448	-4.021110663811713	draw_card	0.908	columbia_card_task_fmri	13.0	0.8	89.0	-75.0	0.2	6.0	2.0	1.0	2.5085174346956904	0.908	n/a	stim	poldrack-single-stim	s624	False	1
185.45	1.737	187.187	-8.421110663811714	end_round	1.737	columbia_card_task_fmri	13.0	0.75	71.0	-75.0	0.25	6.0	3.0	1.0	5.413272359393311	1.737	2.0	stim	poldrack-single-stim	s624	False	1
187.939	1.5	187.188	n/a	-1.0	2.318	columbia_card_task_fmri	n/a	n/a	-1.0	n/a	n/a	n/a	n/a	n/a	n/a	n/a	n/a	ITI	poldrack-single-stim	s624	False	0
189.51	3.094	192.604	0.5788893361882885	draw_card	3.094	columbia_card_task_fmri	14.0	0.8333333333333334	89.0	-70.0	0.1666666666666666	6.0	1.0	1.0	-1.3859387480038308	3.094	n/a	stim	poldrack-single-stim	s624	False	1
192.607	0.977	193.584	-2.221110663811712	draw_card	0.977	columbia_card_task_fmri	14.0	0.8	89.0	-70.0	0.2	6.0	2.0	1.0	0.9087440591651514	0.977	n/a	stim	poldrack-single-stim	s624	False	1
193.587	1.056	194.643	-6.421110663811714	draw_card	1.056	columbia_card_task_fmri	14.0	0.75	89.0	-70.0	0.25	6.0	3.0	1.0	3.6814309050699943	1.056	n/a	stim	poldrack-single-stim	s624	False	1
194.646	0.897	195.543	-13.421110663811712	end_round	0.897	columbia_card_task_fmri	14.0	0.6666666666666667	71.0	-70.0	0.3333333333333333	6.0	4.0	1.0	6.905968589890343	0.897	3.0	stim	poldrack-single-stim	s624	False	1
196.296	1.5	195.545	n/a	-1.0	2.318	columbia_card_task_fmri	n/a	n/a	-1.0	n/a	n/a	n/a	n/a	n/a	n/a	n/a	n/a	ITI	poldrack-single-stim	s624	False	0
197.866	1.566	199.432	0.5788893361882885	draw_card	1.566	columbia_card_task_fmri	16.0	0.8333333333333334	89.0	-80.0	0.1666666666666666	6.0	1.0	1.0	3.0855283087550944	1.566	n/a	stim	poldrack-single-stim	s624	False	1
199.435	0.407	199.842	-2.6211106638117125	draw_card	0.407	columbia_card_task_fmri	16.0	0.8	89.0	-80.0	0.2	6.0	2.0	1.0	5.7081208314671485	0.407	n/a	stim	poldrack-single-stim	s624	False	1
199.844	0.983	200.827	-7.421110663811714	draw_card	0.983	columbia_card_task_fmri	16.0	0.75	89.0	-80.0	0.25	6.0	3.0	1.0	8.877007598147223	0.983	3.0	stim	poldrack-single-stim	s624	False	0
201.58	1.5	200.829	n/a	-1.0	2.862	columbia_card_task_fmri	n/a	n/a	-1.0	n/a	n/a	n/a	n/a	n/a	n/a	n/a	n/a	ITI	poldrack-single-stim	s624	False	0
203.694	4.619	208.313	3.0788893361882885	draw_card	4.619	columbia_card_task_fmri	17.0	0.8333333333333334	89.0	-70.0	0.1666666666666666	6.0	1.0	1.0	-0.2680892788518036	4.619	n/a	stim	poldrack-single-stim	s624	False	1
208.317	3.129	211.446	0.1788893361882881	draw_card	3.129	columbia_card_task_fmri	17.0	0.8	89.0	-70.0	0.2	6.0	2.0	1.0	2.108572137562476	3.129	n/a	stim	poldrack-single-stim	s624	False	1
211.449	1.393	212.842	-4.171110663811714	end_round	1.393	columbia_card_task_fmri	17.0	0.75	71.0	-70.0	0.25	6.0	3.0	1.0	4.98031019136527	1.393	2.0	stim	poldrack-single-stim	s624	False	1
213.595	1.5	212.844	n/a	-1.0	2.726	columbia_card_task_fmri	n/a	n/a	-1.0	n/a	n/a	n/a	n/a	n/a	n/a	n/a	n/a	ITI	poldrack-single-stim	s624	False	0
215.574	4.339	219.913	3.0788893361882868	draw_card	4.339	columbia_card_task_fmri	25.0	0.75	89.0	-65.0	0.25	8.0	1.0	2.0	6.279200063805639	4.339	n/a	stim	poldrack-single-stim	s624	False	1
219.916	2.063	221.979	-0.135396378097425	draw_card	2.063	columbia_card_task_fmri	25.0	0.7142857142857143	89.0	-65.0	0.2857142857142857	8.0	2.0	2.0	7.965734185533329	2.063	n/a	stim	poldrack-single-stim	s624	False	1
221.982	1.099	223.081	-4.42111066381171	end_round	1.099	columbia_card_task_fmri	25.0	0.6666666666666667	71.0	-65.0	0.3333333333333333	8.0	3.0	2.0	9.734113660972618	1.099	2.0	stim	poldrack-single-stim	s624	False	1
223.834	1.5	223.083	n/a	-1.0	2.25	columbia_card_task_fmri	n/a	n/a	-1.0	n/a	n/a	n/a	n/a	n/a	n/a	n/a	n/a	ITI	poldrack-single-stim	s624	False	0
225.336	2.369	227.705	3.0788893361882868	draw_card	2.369	columbia_card_task_fmri	30.0	0.75	89.0	-80.0	0.25	8.0	1.0	2.0	14.938672481623447	2.369	n/a	stim	poldrack-single-stim	s624	False	1
227.708	1.66	229.368	-0.8496820923831367	draw_card	1.66	columbia_card_task_fmri	30.0	0.7142857142857143	89.0	-80.0	0.2857142857142857	8.0	2.0	2.0	17.000064012124234	1.66	n/a	stim	poldrack-single-stim	s624	False	1
229.37	1.68	231.05	-6.087777330478374	draw_card	1.68	columbia_card_task_fmri	30.0	0.6666666666666667	89.0	-80.0	0.3333333333333333	8.0	3.0	2.0	19.16148609756243	1.68	3.0	stim	poldrack-single-stim	s624	False	0
231.804	1.5	231.053	n/a	-1.0	2.318	columbia_card_task_fmri	n/a	n/a	-1.0	n/a	n/a	n/a	n/a	n/a	n/a	n/a	n/a	ITI	poldrack-single-stim	s624	False	0
233.373	2.001	235.374	2.778889336188288	draw_card	2.001	columbia_card_task_fmri	13.0	0.9	89.0	-95.0	0.1	10.0	1.0	1.0	-0.2910712872404346	2.001	n/a	stim	poldrack-single-stim	s624	False	1
235.377	0.784	236.161	1.5788893361882868	draw_card	0.784	columbia_card_task_fmri	13.0	0.8888888888888888	89.0	-95.0	0.1111111111111111	10.0	2.0	1.0	1.249819447312298	0.784	n/a	stim	poldrack-single-stim	s624	False	1
236.164	1.129	237.293	0.0788893361882867	draw_card	1.129	columbia_card_task_fmri	13.0	0.875	89.0	-95.0	0.125	10.0	3.0	1.0	3.0260911610971206	1.129	n/a	stim	poldrack-single-stim	s624	False	1
237.296	1.017	238.313	-1.8496820923831403	draw_card	1.017	columbia_card_task_fmri	13.0	0.8571428571428572	89.0	-95.0	0.1428571428571428	10.0	4.0	1.0	5.100318463872831	1.017	n/a	stim	poldrack-single-stim	s624	False	1
238.316	1.463	239.779	-4.421110663811712	draw_card	1.463	columbia_card_task_fmri	13.0	0.8333333333333334	89.0	-95.0	0.1666666666666666	10.0	5.0	1.0	7.557143983354791	1.463	n/a	stim	poldrack-single-stim	s624	False	1
239.781	0.9	240.681	-8.021110663811713	end_round	0.9	columbia_card_task_fmri	13.0	0.8	71.0	-95.0	0.2	10.0	6.0	1.0	10.50763607761202	0.9	5.0	stim	poldrack-single-stim	s624	False	1
241.434	1.5	240.683	n/a	-1.0	2.454	columbia_card_task_fmri	n/a	n/a	-1.0	n/a	n/a	n/a	n/a	n/a	n/a	n/a	n/a	ITI	poldrack-single-stim	s624	False	0
243.142	1.711	244.853	4.178889336188286	draw_card	1.711	columbia_card_task_fmri	14.0	0.9	89.0	-90.0	0.1	10.0	1.0	1.0	-1.4908724330571062	1.711	n/a	stim	poldrack-single-stim	s624	False	1
244.856	0.825	245.681	3.0233337806327296	draw_card	0.825	columbia_card_task_fmri	14.0	0.8888888888888888	89.0	-90.0	0.1111111111111111	10.0	2.0	1.0	-0.0070694455666213	0.825	n/a	stim	poldrack-single-stim	s624	False	1
245.684	0.767	246.451	1.5788893361882868	draw_card	0.767	columbia_card_task_fmri	14.0	0.875	89.0	-90.0	0.125	10.0	3.0	1.0	1.7033958970710472	0.767	n/a	stim	poldrack-single-stim	s624	False	1
246.454	1.524	247.978	-0.2782535209545691	draw_card	1.524	columbia_card_task_fmri	14.0	0.8571428571428572	89.0	-90.0	0.1428571428571428	10.0	4.0	1.0	3.700780532609379	1.524	n/a	stim	poldrack-single-stim	s624	False	1
247.981	0.753	248.734	-2.7544439971450454	end_round	0.753	columbia_card_task_fmri	14.0	0.8333333333333334	71.0	-90.0	0.1666666666666666	10.0	5.0	1.0	6.066592086897771	0.753	4.0	stim	poldrack-single-stim	s624	False	1
249.487	1.5	248.736	n/a	-1.0	2.522	columbia_card_task_fmri	n/a	n/a	-1.0	n/a	n/a	n/a	n/a	n/a	n/a	n/a	n/a	ITI	poldrack-single-stim	s624	False	0
251.263	3.646	254.909	-0.6211106638117125	draw_card	3.646	columbia_card_task_fmri	16.0	0.8	89.0	-70.0	0.2	10.0	1.0	2.0	1.708628112321918	3.646	n/a	stim	poldrack-single-stim	s624	False	1
254.912	1.261	256.173	-2.532221774922824	draw_card	1.261	columbia_card_task_fmri	16.0	0.7777777777777778	89.0	-70.0	0.2222222222222222	10.0	2.0	2.0	3.062058771990941	1.261	2.0	stim	poldrack-single-stim	s624	False	0
256.926	1.5	256.175	n/a	-1.0	2.318	columbia_card_task_fmri	n/a	n/a	-1.0	n/a	n/a	n/a	n/a	n/a	n/a	n/a	n/a	ITI	poldrack-single-stim	s624	False	0
258.497	3.348	261.845	-1.337777330478379	draw_card	3.348	columbia_card_task_fmri	7.0	0.9166666666666666	89.0	-100.0	0.0833333333333333	12.0	1.0	1.0	-3.1173393851296467	3.348	n/a	stim	poldrack-single-stim	s624	False	1
261.848	0.492	262.34	-2.1483833910844417	draw_card	0.492	columbia_card_task_fmri	7.0	0.9090909090909092	89.0	-100.0	0.0909090909090909	12.0	2.0	1.0	-1.9304584533115907	0.492	n/a	stim	poldrack-single-stim	s624	False	1
262.344	0.83	263.174	-3.121110663811713	draw_card	0.83	columbia_card_task_fmri	7.0	0.9	89.0	-100.0	0.1	12.0	3.0	1.0	-0.5910229671902485	0.83	n/a	stim	poldrack-single-stim	s624	False	1
263.178	0.95	264.128	-4.309999552700603	draw_card	0.95	columbia_card_task_fmri	7.0	0.8888888888888888	89.0	-100.0	0.1111111111111111	12.0	4.0	1.0	0.9355958938114456	0.95	n/a	stim	poldrack-single-stim	s624	False	1
264.132	1.117	265.249	-5.796110663811714	draw_card	1.117	columbia_card_task_fmri	7.0	0.875	89.0	-100.0	0.125	12.0	5.0	1.0	2.695416080919536	1.117	n/a	stim	poldrack-single-stim	s624	False	1
265.252	0.979	266.231	-7.706824949525998	draw_card	0.979	columbia_card_task_fmri	7.0	0.8571428571428572	89.0	-100.0	0.1428571428571428	12.0	6.0	1.0	4.750432786226881	0.979	6.0	stim	poldrack-single-stim	s624	False	0
266.985	1.5	266.234	n/a	-1.0	2.522	columbia_card_task_fmri	n/a	n/a	-1.0	n/a	n/a	n/a	n/a	n/a	n/a	n/a	n/a	ITI	poldrack-single-stim	s624	False	0
268.761	2.117	270.878	-1.0877773304783775	draw_card	2.117	columbia_card_task_fmri	14.0	0.8333333333333334	89.0	-80.0	0.1666666666666666	12.0	1.0	2.0	2.340271941905165	2.117	n/a	stim	poldrack-single-stim	s624	False	1
270.881	0.457	271.338	-2.5120197547208067	draw_card	0.457	columbia_card_task_fmri	14.0	0.8181818181818181	89.0	-80.0	0.1818181818181818	12.0	2.0	2.0	3.5636720521181857	0.457	n/a	stim	poldrack-single-stim	s624	False	1
271.341	1.477	272.818	-4.221110663811713	draw_card	1.477	columbia_card_task_fmri	14.0	0.8	89.0	-80.0	0.2	12.0	3.0	2.0	4.908213654641976	1.477	3.0	stim	poldrack-single-stim	s624	False	0
273.571	1.5	272.82	n/a	-1.0	2.998	columbia_card_task_fmri	n/a	n/a	-1.0	n/a	n/a	n/a	n/a	n/a	n/a	n/a	n/a	ITI	poldrack-single-stim	s624	False	0
275.823	1.7	277.523	0.5788893361882868	draw_card	1.7	columbia_card_task_fmri	15.0	0.8333333333333334	89.0	-75.0	0.1666666666666666	12.0	1.0	2.0	0.8497724887623122	1.7	1.0	stim	poldrack-single-stim	s624	False	0
278.276	1.5	277.525	n/a	-1.0	2.318	columbia_card_task_fmri	n/a	n/a	-1.0	n/a	n/a	n/a	n/a	n/a	n/a	n/a	n/a	ITI	poldrack-single-stim	s624	False	0
279.848	2.332	282.18	-0.4211106638117132	draw_card	2.332	columbia_card_task_fmri	15.0	0.8	89.0	-65.0	0.2	15.0	1.0	3.0	-0.6910066592224524	2.332	1.0	stim	poldrack-single-stim	s624	False	0
282.934	1.5	282.183	n/a	-1.0	2.25	columbia_card_task_fmri	n/a	n/a	-1.0	n/a	n/a	n/a	n/a	n/a	n/a	n/a	n/a	ITI	poldrack-single-stim	s624	False	0
284.438	2.199	286.637	-1.1711106638117132	draw_card	2.199	columbia_card_task_fmri	14.0	0.8125	89.0	-70.0	0.1875	16.0	1.0	3.0	0.0951072957790089	2.199	n/a	stim	poldrack-single-stim	s624	False	1
286.639	1.614	288.253	-2.221110663811712	draw_card	1.614	columbia_card_task_fmri	14.0	0.8	89.0	-70.0	0.2	16.0	2.0	3.0	0.9087440591651514	1.614	n/a	stim	poldrack-single-stim	s624	False	1
288.256	0.947	289.203	-3.421110663811713	draw_card	0.947	columbia_card_task_fmri	14.0	0.7857142857142857	89.0	-70.0	0.2142857142857142	16.0	3.0	3.0	1.775994472210094	0.947	n/a	stim	poldrack-single-stim	s624	False	1
289.206	1.416	290.622	-4.805726048427099	end_round	1.416	columbia_card_task_fmri	14.0	0.7692307692307692	71.0	-70.0	0.2307692307692307	16.0	4.0	3.0	2.69979542527836	1.416	3.0	stim	poldrack-single-stim	s624	False	1
291.376	1.5	290.625	n/a	-1.0	2.454	columbia_card_task_fmri	n/a	n/a	-1.0	n/a	n/a	n/a	n/a	n/a	n/a	n/a	n/a	ITI	poldrack-single-stim	s624	False	0
293.083	3.478	296.561	-1.2336106638117132	draw_card	3.478	columbia_card_task_fmri	11.0	0.6875	89.0	-30.0	0.3125	16.0	1.0	5.0	-13.683418891183177	3.478	1.0	stim	poldrack-single-stim	s624	False	0
297.315	1.5	296.564	n/a	-1.0	2.318	columbia_card_task_fmri	n/a	n/a	-1.0	n/a	n/a	n/a	n/a	n/a	n/a	n/a	n/a	ITI	poldrack-single-stim	s624	False	0
298.887	1.92	300.807	3.5788893361882868	draw_card	1.92	columbia_card_task_fmri	15.0	0.8666666666666667	89.0	-75.0	0.1333333333333333	15.0	1.0	2.0	-2.096649024651061	1.92	n/a	stim	poldrack-single-stim	s624	False	1
300.811	0.698	301.509	2.721746479045431	draw_card	0.698	columbia_card_task_fmri	15.0	0.8571428571428572	89.0	-75.0	0.1428571428571428	15.0	2.0	2.0	-1.1974829087816443	0.698	n/a	stim	poldrack-single-stim	s624	False	1
301.513	1.375	302.888	1.73273549003444	draw_card	1.375	columbia_card_task_fmri	15.0	0.8461538461538461	89.0	-75.0	0.1538461538461538	15.0	3.0	2.0	-0.2189736620946263	1.375	n/a	stim	poldrack-single-stim	s624	False	1
302.891	1.103	303.994	0.5788893361882868	end_round	1.103	columbia_card_task_fmri	15.0	0.8333333333333334	71.0	-75.0	0.1666666666666666	15.0	4.0	2.0	0.8497724887623122	1.103	3.0	stim	poldrack-single-stim	s624	False	1
304.747	1.5	303.996	n/a	-1.0	2.318	columbia_card_task_fmri	n/a	n/a	-1.0	n/a	n/a	n/a	n/a	n/a	n/a	n/a	n/a	ITI	poldrack-single-stim	s624	False	0
306.319	1.439	307.758	5.312222669521621	draw_card	1.439	columbia_card_task_fmri	17.0	0.8666666666666667	89.0	-75.0	0.1333333333333333	15.0	1.0	2.0	-1.4168987847555847	1.439	n/a	stim	poldrack-single-stim	s624	False	1
307.762	0.437	308.199	4.436032193331146	draw_card	0.437	columbia_card_task_fmri	17.0	0.8571428571428572	89.0	-75.0	0.1428571428571428	15.0	2.0	2.0	-0.4977443278867426	0.437	n/a	stim	poldrack-single-stim	s624	False	1
308.203	1.404	309.607	3.425043182342133	draw_card	1.404	columbia_card_task_fmri	17.0	0.8461538461538461	89.0	-75.0	0.1538461538461538	15.0	3.0	2.0	0.5025166145009266	1.404	n/a	stim	poldrack-single-stim	s624	False	1
309.61	0.933	310.543	2.2455560028549546	end_round	0.933	columbia_card_task_fmri	17.0	0.8333333333333334	71.0	-75.0	0.1666666666666666	15.0	4.0	2.0	1.5950199056987913	0.933	3.0	stim	poldrack-single-stim	s624	False	1
311.297	1.5	310.546	n/a	-1.0	2.59	columbia_card_task_fmri	n/a	n/a	-1.0	n/a	n/a	n/a	n/a	n/a	n/a	n/a	n/a	ITI	poldrack-single-stim	s624	False	0
313.141	1.686	314.827	0.8913893361882868	draw_card	1.686	columbia_card_task_fmri	2.0	0.9375	89.0	-25.0	0.0625	16.0	1.0	1.0	-26.13499579472768	1.686	n/a	stim	poldrack-single-stim	s624	False	1
314.831	0.386	315.217	0.7788893361882867	draw_card	0.386	columbia_card_task_fmri	2.0	0.9333333333333332	89.0	-25.0	0.0666666666666666	16.0	2.0	1.0	-25.93642633169216	0.386	n/a	stim	poldrack-single-stim	s624	False	1
315.222	0.322	315.544	0.6503179076168584	draw_card	0.322	columbia_card_task_fmri	2.0	0.9285714285714286	89.0	-25.0	0.0714285714285714	16.0	3.0	1.0	-25.718624317372367	0.322	3.0	stim	poldrack-single-stim	s624	False	0
316.298	1.5	315.547	n/a	-1.0	2.25	columbia_card_task_fmri	n/a	n/a	-1.0	n/a	n/a	n/a	n/a	n/a	n/a	n/a	n/a	ITI	poldrack-single-stim	s624	False	0
317.801	2.176	319.977	3.0788893361882868	draw_card	2.176	columbia_card_task_fmri	9.0	0.9375	89.0	-95.0	0.0625	16.0	1.0	1.0	-7.515195670266866	2.176	1.0	stim	poldrack-single-stim	s624	False	0
320.731	1.5	319.98	n/a	-1.0	2.25	columbia_card_task_fmri	n/a	n/a	-1.0	n/a	n/a	n/a	n/a	n/a	n/a	n/a	n/a	ITI	poldrack-single-stim	s624	False	0
322.235	2.852	325.087	4.641389336188286	draw_card	2.852	columbia_card_task_fmri	11.0	0.9375	89.0	-100.0	0.0625	16.0	1.0	1.0	-5.82118503710862	2.852	n/a	stim	poldrack-single-stim	s624	False	1
325.089	0.725	325.814	4.178889336188288	draw_card	0.725	columbia_card_task_fmri	11.0	0.9333333333333332	89.0	-100.0	0.0666666666666666	16.0	2.0	1.0	-5.001926835992048	0.725	n/a	stim	poldrack-single-stim	s624	False	1
325.818	1.437	327.255	3.65031790761686	draw_card	1.437	columbia_card_task_fmri	11.0	0.9285714285714286	89.0	-100.0	0.0714285714285714	16.0	3.0	1.0	-4.103510836063709	1.437	n/a	stim	poldrack-single-stim	s624	False	1
327.26	1.121	328.381	3.0404277977267493	end_round	1.121	columbia_card_task_fmri	11.0	0.9230769230769232	71.0	-100.0	0.0769230769230769	16.0	4.0	1.0	-3.112479623774952	1.121	3.0	stim	poldrack-single-stim	s624	False	1
329.135	1.5	328.384	n/a	-1.0	2.522	columbia_card_task_fmri	n/a	n/a	-1.0	n/a	n/a	n/a	n/a	n/a	n/a	n/a	n/a	ITI	poldrack-single-stim	s624	False	0
330.911	1.918	332.829	5.203889336188286	draw_card	1.918	columbia_card_task_fmri	16.0	0.875	89.0	-75.0	0.125	16.0	1.0	2.0	-2.595254215121805	1.918	n/a	stim	poldrack-single-stim	s624	False	1
332.833	0.494	333.327	4.4455560028549534	draw_card	0.494	columbia_card_task_fmri	16.0	0.8666666666666667	89.0	-75.0	0.1333333333333333	16.0	2.0	2.0	-1.7567745585347936	0.494	n/a	stim	poldrack-single-stim	s624	False	1
333.331	1.14	334.471	3.5788893361882885	draw_card	1.14	columbia_card_task_fmri	16.0	0.8571428571428572	89.0	-75.0	0.1428571428571428	16.0	3.0	2.0	-0.8476142535137221	1.14	n/a	stim	poldrack-single-stim	s624	False	1
334.475	0.789	335.264	2.5788893361882868	draw_card	0.789	columbia_card_task_fmri	16.0	0.8461538461538461	89.0	-75.0	0.1538461538461538	16.0	4.0	2.0	0.1417708601490233	0.789	4.0	stim	poldrack-single-stim	s624	False	0
336.017	1.5	335.266	n/a	-1.0	2.454	columbia_card_task_fmri	n/a	n/a	-1.0	n/a	n/a	n/a	n/a	n/a	n/a	n/a	n/a	ITI	poldrack-single-stim	s624	False	0
337.725	1.439	339.164	5.453889336188286	draw_card	1.439	columbia_card_task_fmri	17.0	0.875	89.0	-80.0	0.125	16.0	1.0	2.0	-0.6112850238770733	1.439	n/a	stim	poldrack-single-stim	s624	False	1
339.168	0.525	339.693	4.6455560028549545	draw_card	0.525	columbia_card_task_fmri	17.0	0.8666666666666667	89.0	-80.0	0.1333333333333333	16.0	2.0	2.0	0.2824982840309786	0.525	n/a	stim	poldrack-single-stim	s624	False	1
339.697	0.437	340.134	3.7217464790454327	draw_card	0.437	columbia_card_task_fmri	17.0	0.8571428571428572	89.0	-80.0	0.1428571428571428	16.0	3.0	2.0	1.251622980922768	0.437	n/a	stim	poldrack-single-stim	s624	False	1
340.138	0.878	341.016	2.6558124131113634	draw_card	0.878	columbia_card_task_fmri	17.0	0.8461538461538461	89.0	-80.0	0.1538461538461538	16.0	4.0	2.0	2.306262534541652	0.878	n/a	stim	poldrack-single-stim	s624	False	1
341.021	0.651	341.672	1.4122226695216225	draw_card	0.651	columbia_card_task_fmri	17.0	0.8333333333333334	89.0	-80.0	0.1666666666666666	16.0	5.0	2.0	3.458158032482494	0.651	n/a	stim	poldrack-single-stim	s624	False	1
341.676	1.308	342.984	-0.0574743001753517	end_round	1.308	columbia_card_task_fmri	17.0	0.8181818181818181	71.0	-80.0	0.1818181818181818	16.0	6.0	2.0	4.720612967163589	1.308	5.0	stim	poldrack-single-stim	s624	False	1
343.738	1.5	342.987	n/a	-1.0	2.25	columbia_card_task_fmri	n/a	n/a	-1.0	n/a	n/a	n/a	n/a	n/a	n/a	n/a	n/a	ITI	poldrack-single-stim	s624	False	0
356.242	2.74	358.982	-0.2544439971450454	draw_card	2.74	columbia_card_task_fmri	13.0	0.8333333333333334	89.0	-70.0	0.1666666666666666	6.0	1.0	1.0	-1.7585522743142938	2.74	n/a	stim	poldrack-single-stim	s624	False	1
358.987	1.228	360.215	-3.021110663811713	draw_card	1.228	columbia_card_task_fmri	13.0	0.8	89.0	-70.0	0.2	6.0	2.0	1.0	0.5088041275414241	1.228	n/a	stim	poldrack-single-stim	s624	False	1
360.218	0.86	361.078	-7.171110663811714	end_round	0.86	columbia_card_task_fmri	13.0	0.75	71.0	-70.0	0.25	6.0	3.0	1.0	3.2484736938002	0.86	2.0	stim	poldrack-single-stim	s624	False	1
361.834	1.5	361.083	n/a	-1.0	2.454	columbia_card_task_fmri	n/a	n/a	-1.0	n/a	n/a	n/a	n/a	n/a	n/a	n/a	n/a	ITI	poldrack-single-stim	s624	False	0
363.541	2.302	365.843	-0.2544439971450454	draw_card	2.302	columbia_card_task_fmri	15.0	0.8333333333333334	89.0	-80.0	0.1666666666666666	6.0	1.0	1.0	2.712899601089724	2.302	n/a	stim	poldrack-single-stim	s624	False	1
365.847	1.627	367.474	-3.421110663811713	draw_card	1.627	columbia_card_task_fmri	15.0	0.8	89.0	-80.0	0.2	6.0	2.0	1.0	5.308166754596556	1.627	2.0	stim	poldrack-single-stim	s624	False	0
368.228	1.5	367.477	n/a	-1.0	2.454	columbia_card_task_fmri	n/a	n/a	-1.0	n/a	n/a	n/a	n/a	n/a	n/a	n/a	n/a	ITI	poldrack-single-stim	s624	False	0
369.935	3.047	372.982	1.412222669521621	draw_card	3.047	columbia_card_task_fmri	16.0	0.8333333333333334	89.0	-75.0	0.1666666666666666	6.0	1.0	1.0	1.2223956007918702	3.047	n/a	stim	poldrack-single-stim	s624	False	1
372.985	0.697	373.682	-1.6211106638117123	end_round	0.697	columbia_card_task_fmri	16.0	0.8	71.0	-75.0	0.2	6.0	2.0	1.0	3.70836053825564	0.697	1.0	stim	poldrack-single-stim	s624	False	1
374.436	1.5	373.685	n/a	-1.0	2.522	columbia_card_task_fmri	n/a	n/a	-1.0	n/a	n/a	n/a	n/a	n/a	n/a	n/a	n/a	ITI	poldrack-single-stim	s624	False	0
376.211	2.172	378.383	2.5788893361882868	draw_card	2.172	columbia_card_task_fmri	21.0	0.75	89.0	-55.0	0.25	8.0	1.0	2.0	0.2178140938200528	2.172	n/a	stim	poldrack-single-stim	s624	False	1
378.386	1.033	379.419	-0.1353963780974267	draw_card	1.033	columbia_card_task_fmri	21.0	0.7142857142857143	89.0	-55.0	0.2857142857142857	8.0	2.0	2.0	1.6419378833178229	1.033	2.0	stim	poldrack-single-stim	s624	False	0
380.174	1.5	379.423	n/a	-1.0	2.454	columbia_card_task_fmri	n/a	n/a	-1.0	n/a	n/a	n/a	n/a	n/a	n/a	n/a	n/a	ITI	poldrack-single-stim	s624	False	0
381.881	2.567	384.448	3.828889336188287	draw_card	2.567	columbia_card_task_fmri	26.0	0.75	89.0	-65.0	0.25	8.0	1.0	2.0	6.712165526176463	2.567	n/a	stim	poldrack-single-stim	s624	False	1
384.453	1.862	386.315	0.5788893361882903	draw_card	1.862	columbia_card_task_fmri	26.0	0.7142857142857143	89.0	-65.0	0.2857142857142857	8.0	2.0	2.0	8.417442856618827	1.862	n/a	stim	poldrack-single-stim	s624	False	1
386.32	1.523	387.843	-3.754443997145042	end_round	1.523	columbia_card_task_fmri	26.0	0.6666666666666667	71.0	-65.0	0.3333333333333333	8.0	3.0	2.0	10.205474788382944	1.523	2.0	stim	poldrack-single-stim	s624	False	1
388.597	1.5	387.846	n/a	-1.0	2.658	columbia_card_task_fmri	n/a	n/a	-1.0	n/a	n/a	n/a	n/a	n/a	n/a	n/a	n/a	ITI	poldrack-single-stim	s624	False	0
390.509	2.242	392.751	-1.087777330478379	draw_card	2.242	columbia_card_task_fmri	15.0	0.7777777777777778	89.0	-60.0	0.2222222222222222	9.0	1.0	2.0	-1.5103908484580977	2.242	n/a	stim	poldrack-single-stim	s624	False	1
392.755	0.892	393.647	-3.171110663811713	draw_card	0.892	columbia_card_task_fmri	15.0	0.75	89.0	-60.0	0.25	9.0	2.0	2.0	-0.2151307371908686	0.892	n/a	stim	poldrack-single-stim	s624	False	1
393.651	0.985	394.636	-5.849682092383141	end_round	0.985	columbia_card_task_fmri	15.0	0.7142857142857143	71.0	-60.0	0.2857142857142857	9.0	3.0	2.0	1.1902489883301683	0.985	2.0	stim	poldrack-single-stim	s624	False	1
395.39	1.5	394.639	n/a	-1.0	2.386	columbia_card_task_fmri	n/a	n/a	-1.0	n/a	n/a	n/a	n/a	n/a	n/a	n/a	n/a	ITI	poldrack-single-stim	s624	False	0
397.029	2.131	399.16	3.278889336188288	draw_card	2.131	columbia_card_task_fmri	13.0	0.9	89.0	-90.0	0.1	10.0	1.0	1.0	-1.7908203068555686	2.131	n/a	stim	poldrack-single-stim	s624	False	1
399.164	0.837	400.001	2.134444891743842	draw_card	0.837	columbia_card_task_fmri	13.0	0.8888888888888888	89.0	-90.0	0.1111111111111111	10.0	2.0	1.0	-0.3212893655757014	0.837	n/a	stim	poldrack-single-stim	s624	False	1
400.004	0.704	400.708	0.7038893361882868	draw_card	0.704	columbia_card_task_fmri	13.0	0.875	89.0	-90.0	0.125	10.0	3.0	1.0	1.372724269816615	0.704	n/a	stim	poldrack-single-stim	s624	False	1
400.711	0.93	401.641	-1.135396378097425	end_round	0.93	columbia_card_task_fmri	13.0	0.8571428571428572	71.0	-90.0	0.1428571428571428	10.0	4.0	1.0	3.3508981184927933	0.93	3.0	stim	poldrack-single-stim	s624	False	1
402.395	1.5	401.644	n/a	-1.0	2.522	columbia_card_task_fmri	n/a	n/a	-1.0	n/a	n/a	n/a	n/a	n/a	n/a	n/a	n/a	ITI	poldrack-single-stim	s624	False	0
404.17	1.819	405.989	4.578889336188286	draw_card	1.819	columbia_card_task_fmri	15.0	0.9	89.0	-95.0	0.1	10.0	1.0	1.0	0.3088347076807167	1.819	n/a	stim	poldrack-single-stim	s624	False	1
405.992	0.69	406.682	3.3566671139660635	draw_card	0.69	columbia_card_task_fmri	15.0	0.8888888888888888	89.0	-95.0	0.1111111111111111	10.0	2.0	1.0	1.878269069796417	0.69	n/a	stim	poldrack-single-stim	s624	False	1
406.686	0.83	407.516	1.8288893361882868	end_round	0.83	columbia_card_task_fmri	15.0	0.875	71.0	-95.0	0.125	10.0	3.0	1.0	3.687443711920693	0.83	2.0	stim	poldrack-single-stim	s624	False	1
408.27	1.5	407.519	n/a	-1.0	2.59	columbia_card_task_fmri	n/a	n/a	-1.0	n/a	n/a	n/a	n/a	n/a	n/a	n/a	n/a	ITI	poldrack-single-stim	s624	False	0
410.114	2.546	412.66	0.3788893361882874	draw_card	2.546	columbia_card_task_fmri	16.0	0.8	89.0	-65.0	0.2	10.0	1.0	2.0	-0.2910712872404346	2.546	n/a	stim	poldrack-single-stim	s624	False	1
412.665	1.001	413.666	-1.4211106638117117	draw_card	1.001	columbia_card_task_fmri	16.0	0.7777777777777778	89.0	-65.0	0.2222222222222222	10.0	2.0	2.0	0.983649448479234	1.001	n/a	stim	poldrack-single-stim	s624	False	1
413.672	1.272	414.944	-3.671110663811713	draw_card	1.272	columbia_card_task_fmri	16.0	0.75	89.0	-65.0	0.25	10.0	3.0	2.0	2.3825633808542364	1.272	3.0	stim	poldrack-single-stim	s624	False	0
415.7	1.5	414.949	n/a	-1.0	2.386	columbia_card_task_fmri	n/a	n/a	-1.0	n/a	n/a	n/a	n/a	n/a	n/a	n/a	n/a	ITI	poldrack-single-stim	s624	False	0
417.34	0.941	418.281	-0.9211106638117132	draw_card	0.941	columbia_card_task_fmri	7.0	0.9166666666666666	89.0	-95.0	0.0833333333333333	12.0	1.0	1.0	-4.498988728948273	0.941	n/a	stim	poldrack-single-stim	s624	False	1
418.285	1.986	420.271	-1.6938379365389866	end_round	1.986	columbia_card_task_fmri	7.0	0.9090909090909092	71.0	-95.0	0.0909090909090909	12.0	2.0	1.0	-3.3675904466166	1.986	1.0	stim	poldrack-single-stim	s624	False	1
421.025	1.5	420.274	n/a	-1.0	2.59	columbia_card_task_fmri	n/a	n/a	-1.0	n/a	n/a	n/a	n/a	n/a	n/a	n/a	n/a	ITI	poldrack-single-stim	s624	False	0
422.869	1.565	424.434	-0.2544439971450454	draw_card	1.565	columbia_card_task_fmri	14.0	0.8333333333333334	89.0	-75.0	0.1666666666666666	12.0	1.0	2.0	0.4771506098074525	1.565	n/a	stim	poldrack-single-stim	s624	False	1
424.439	0.41	424.849	-1.602928845629897	draw_card	0.41	columbia_card_task_fmri	14.0	0.8181818181818181	89.0	-75.0	0.1818181818181818	12.0	2.0	2.0	1.6354585988954042	0.41	2.0	stim	poldrack-single-stim	s624	False	0
425.603	1.5	424.852	n/a	-1.0	2.318	columbia_card_task_fmri	n/a	n/a	-1.0	n/a	n/a	n/a	n/a	n/a	n/a	n/a	n/a	ITI	poldrack-single-stim	s624	False	0
427.175	2.608	429.783	1.412222669521621	draw_card	2.608	columbia_card_task_fmri	15.0	0.8333333333333334	89.0	-70.0	0.1666666666666666	12.0	1.0	2.0	-1.0133237051379922	2.608	n/a	stim	poldrack-single-stim	s624	False	1
429.786	0.273	430.059	0.1243438816428299	draw_card	0.273	columbia_card_task_fmri	15.0	0.8181818181818181	89.0	-70.0	0.1818181818181818	12.0	2.0	2.0	0.0929098199108438	0.273	n/a	stim	poldrack-single-stim	s624	False	1
430.063	1.008	431.071	-1.4211106638117132	end_round	1.008	columbia_card_task_fmri	15.0	0.8	71.0	-70.0	0.2	12.0	3.0	2.0	1.3086854038515412	1.008	2.0	stim	poldrack-single-stim	s624	False	1
431.825	1.5	431.074	n/a	-1.0	2.25	columbia_card_task_fmri	n/a	n/a	-1.0	n/a	n/a	n/a	n/a	n/a	n/a	n/a	n/a	ITI	poldrack-single-stim	s624	False	0
433.329	2.807	436.136	-0.6211106638117125	draw_card	2.807	columbia_card_task_fmri	16.0	0.8	89.0	-70.0	0.2	15.0	1.0	3.0	1.708628112321918	2.807	1.0	stim	poldrack-single-stim	s624	False	0
436.89	1.5	436.139	n/a	-1.0	2.454	columbia_card_task_fmri	n/a	n/a	-1.0	n/a	n/a	n/a	n/a	n/a	n/a	n/a	n/a	ITI	poldrack-single-stim	s624	False	0
438.599	2.956	441.555	-0.2336106638117132	draw_card	2.956	columbia_card_task_fmri	14.0	0.8125	89.0	-65.0	0.1875	16.0	1.0	3.0	-1.8561312053006205	2.956	1.0	stim	poldrack-single-stim	s624	False	0
442.309	1.5	441.558	n/a	-1.0	3.27	columbia_card_task_fmri	n/a	n/a	-1.0	n/a	n/a	n/a	n/a	n/a	n/a	n/a	n/a	ITI	poldrack-single-stim	s624	False	0
444.834	1.766	446.6	-0.4836106638117132	draw_card	1.766	columbia_card_task_fmri	16.0	0.8125	89.0	-75.0	0.1875	16.0	1.0	3.0	2.826900884175913	1.766	1.0	stim	poldrack-single-stim	s624	False	0
447.354	1.5	446.603	n/a	-1.0	2.25	columbia_card_task_fmri	n/a	n/a	-1.0	n/a	n/a	n/a	n/a	n/a	n/a	n/a	n/a	ITI	poldrack-single-stim	s624	False	0
448.859	1.921	450.78	3.778889336188288	draw_card	1.921	columbia_card_task_fmri	16.0	0.8666666666666667	89.0	-80.0	0.1333333333333333	15.0	1.0	2.0	-0.0573834300309101	1.921	1.0	stim	poldrack-single-stim	s624	False	0
451.535	1.5	450.784	n/a	-1.0	2.25	columbia_card_task_fmri	n/a	n/a	-1.0	n/a	n/a	n/a	n/a	n/a	n/a	n/a	n/a	ITI	poldrack-single-stim	s624	False	0
453.038	2.496	455.534	4.6455560028549545	draw_card	2.496	columbia_card_task_fmri	17.0	0.8666666666666667	89.0	-80.0	0.1333333333333333	15.0	1.0	2.0	0.2824982840309786	2.496	n/a	stim	poldrack-single-stim	s624	False	1
455.538	0.984	456.522	3.7217464790454327	draw_card	0.984	columbia_card_task_fmri	17.0	0.8571428571428572	89.0	-80.0	0.1428571428571428	15.0	2.0	2.0	1.251622980922768	0.984	n/a	stim	poldrack-single-stim	s624	False	1
456.527	0.795	457.322	2.6558124131113634	draw_card	0.795	columbia_card_task_fmri	17.0	0.8461538461538461	89.0	-80.0	0.1538461538461538	15.0	3.0	2.0	2.306262534541652	0.795	n/a	stim	poldrack-single-stim	s624	False	1
457.326	1.876	459.202	1.4122226695216225	draw_card	1.876	columbia_card_task_fmri	17.0	0.8333333333333334	89.0	-80.0	0.1666666666666666	15.0	4.0	2.0	3.458158032482494	1.876	n/a	stim	poldrack-single-stim	s624	False	1
459.206	1.332	460.538	-0.0574743001753517	draw_card	1.332	columbia_card_task_fmri	17.0	0.8181818181818181	89.0	-80.0	0.1818181818181818	15.0	5.0	2.0	4.720612967163589	1.332	n/a	stim	poldrack-single-stim	s624	False	1
460.542	1.684	462.226	-1.821110663811712	end_round	1.684	columbia_card_task_fmri	17.0	0.8	71.0	-80.0	0.2	15.0	6.0	2.0	6.108075855046678	1.684	5.0	stim	poldrack-single-stim	s624	False	1
462.981	1.5	462.23	n/a	-1.0	2.318	columbia_card_task_fmri	n/a	n/a	-1.0	n/a	n/a	n/a	n/a	n/a	n/a	n/a	n/a	ITI	poldrack-single-stim	s624	False	0
464.553	3.111	467.664	0.5788893361882868	draw_card	3.111	columbia_card_task_fmri	1.0	0.9375	89.0	-15.0	0.0625	16.0	1.0	1.0	-28.780235108986627	3.111	n/a	stim	poldrack-single-stim	s624	False	1
467.669	0.958	468.627	0.5122226695216201	end_round	0.958	columbia_card_task_fmri	1.0	0.9333333333333332	71.0	-15.0	0.0666666666666666	16.0	2.0	1.0	-28.66337716554048	0.958	1.0	stim	poldrack-single-stim	s624	False	1
469.381	1.5	468.63	n/a	-1.0	2.726	columbia_card_task_fmri	n/a	n/a	-1.0	n/a	n/a	n/a	n/a	n/a	n/a	n/a	n/a	ITI	poldrack-single-stim	s624	False	0
471.362	4.481	475.843	3.703889336188287	draw_card	4.481	columbia_card_task_fmri	10.0	0.9375	89.0	-100.0	0.0625	16.0	1.0	1.0	-6.063189824414753	4.481	n/a	stim	poldrack-single-stim	s624	False	1
475.847	0.49	476.337	3.2455560028549537	draw_card	0.49	columbia_card_task_fmri	10.0	0.9333333333333332	89.0	-100.0	0.0666666666666666	16.0	2.0	1.0	-5.251315666039211	0.49	n/a	stim	poldrack-single-stim	s624	False	1
476.342	0.471	476.813	2.721746479045431	draw_card	0.471	columbia_card_task_fmri	10.0	0.9285714285714286	89.0	-100.0	0.0714285714285714	16.0	3.0	1.0	-4.360996944803205	0.471	n/a	stim	poldrack-single-stim	s624	False	1
476.817	0.583	477.4	2.117350874649826	draw_card	0.583	columbia_card_task_fmri	10.0	0.9230769230769232	89.0	-100.0	0.0769230769230769	16.0	4.0	1.0	-3.378897494784887	0.583	n/a	stim	poldrack-single-stim	s624	False	1
477.405	1.514	478.919	1.412222669521621	draw_card	1.514	columbia_card_task_fmri	10.0	0.9166666666666666	89.0	-100.0	0.0833333333333333	16.0	5.0	1.0	-2.2883376665179505	1.514	n/a	stim	poldrack-single-stim	s624	False	1
478.924	0.435	479.359	0.578889336188285	draw_card	0.435	columbia_card_task_fmri	10.0	0.9090909090909092	89.0	-100.0	0.0909090909090909	16.0	6.0	1.0	-1.0681676119314574	0.435	n/a	stim	poldrack-single-stim	s624	False	1
479.364	0.536	479.9	-0.4211106638117132	draw_card	0.536	columbia_card_task_fmri	10.0	0.9	89.0	-100.0	0.1	16.0	7.0	1.0	0.3088347076807167	0.536	n/a	stim	poldrack-single-stim	s624	False	1
479.904	1.199	481.103	-1.643332886033935	end_round	1.199	columbia_card_task_fmri	10.0	0.8888888888888888	71.0	-100.0	0.1111111111111111	16.0	8.0	1.0	1.878269069796417	1.199	7.0	stim	poldrack-single-stim	s624	False	1
481.858	1.5	481.107	n/a	-1.0	2.386	columbia_card_task_fmri	n/a	n/a	-1.0	n/a	n/a	n/a	n/a	n/a	n/a	n/a	n/a	ITI	poldrack-single-stim	s624	False	0
483.498	3.111	486.609	4.328889336188286	draw_card	3.111	columbia_card_task_fmri	15.0	0.875	89.0	-75.0	0.125	16.0	1.0	2.0	-2.9259112851814173	3.111	n/a	stim	poldrack-single-stim	s624	False	1
486.613	0.57	487.183	3.5788893361882868	draw_card	0.57	columbia_card_task_fmri	15.0	0.8666666666666667	89.0	-75.0	0.1333333333333333	16.0	2.0	2.0	-2.096649024651061	0.57	n/a	stim	poldrack-single-stim	s624	False	1
487.187	0.485	487.672	2.721746479045431	draw_card	0.485	columbia_card_task_fmri	15.0	0.8571428571428572	89.0	-75.0	0.1428571428571428	16.0	3.0	2.0	-1.1974829087816443	0.485	3.0	stim	poldrack-single-stim	s624	False	0
488.427	1.5	487.676	n/a	-1.0	2.318	columbia_card_task_fmri	n/a	n/a	-1.0	n/a	n/a	n/a	n/a	n/a	n/a	n/a	n/a	ITI	poldrack-single-stim	s624	False	0
489.999	2.112	492.111	4.578889336188286	draw_card	2.112	columbia_card_task_fmri	16.0	0.875	89.0	-80.0	0.125	16.0	1.0	2.0	-0.9419495436414528	2.112	n/a	stim	poldrack-single-stim	s624	False	1
492.115	0.333	492.448	3.778889336188288	draw_card	0.333	columbia_card_task_fmri	16.0	0.8666666666666667	89.0	-80.0	0.1333333333333333	16.0	2.0	2.0	-0.0573834300309101	0.333	n/a	stim	poldrack-single-stim	s624	False	1
492.452	0.367	492.819	2.864603621902575	draw_card	0.367	columbia_card_task_fmri	16.0	0.8571428571428572	89.0	-80.0	0.1428571428571428	16.0	3.0	2.0	0.901747284482795	0.367	n/a	stim	poldrack-single-stim	s624	False	1
492.824	0.473	493.297	1.8096585669575167	draw_card	0.473	columbia_card_task_fmri	16.0	0.8461538461538461	89.0	-80.0	0.1538461538461538	16.0	4.0	2.0	1.9455111831473104	0.473	n/a	stim	poldrack-single-stim	s624	False	1
493.303	1.166	494.469	0.5788893361882885	end_round	1.166	columbia_card_task_fmri	16.0	0.8333333333333334	71.0	-80.0	0.1666666666666666	16.0	5.0	2.0	3.0855283087550944	1.166	4.0	stim	poldrack-single-stim	s624	False	1
495.223	1.5	494.472	n/a	-1.0	2.25	columbia_card_task_fmri	n/a	n/a	-1.0	n/a	n/a	n/a	n/a	n/a	n/a	n/a	n/a	ITI	poldrack-single-stim	s624	False	0
496.728	3.313	500.041	1.7663893361882868	draw_card	3.313	columbia_card_task_fmri	4.0	0.6875	89.0	-5.0	0.3125	16.0	1.0	5.0	-28.48465637198589	3.313	1.0	stim	poldrack-single-stim	s624	False	0
500.797	1.5	500.046	n/a	-1.0	2.25	columbia_card_task_fmri	n/a	n/a	-1.0	n/a	n/a	n/a	n/a	n/a	n/a	n/a	n/a	ITI	poldrack-single-stim	s624	False	0
502.302	2.739	505.041	-1.0877773304783775	draw_card	2.739	columbia_card_task_fmri	14.0	0.8333333333333334	89.0	-80.0	0.1666666666666666	6.0	1.0	1.0	2.340271941905165	2.739	n/a	stim	poldrack-single-stim	s624	False	1
505.046	0.347	505.393	-4.221110663811713	draw_card	0.347	columbia_card_task_fmri	14.0	0.8	89.0	-80.0	0.2	6.0	2.0	1.0	4.908213654641976	0.347	2.0	stim	poldrack-single-stim	s624	False	0
506.147	1.5	505.396	n/a	-1.0	2.454	columbia_card_task_fmri	n/a	n/a	-1.0	n/a	n/a	n/a	n/a	n/a	n/a	n/a	n/a	ITI	poldrack-single-stim	s624	False	0
507.855	1.818	509.673	0.5788893361882868	draw_card	1.818	columbia_card_task_fmri	15.0	0.8333333333333334	89.0	-75.0	0.1666666666666666	6.0	1.0	1.0	0.8497724887623122	1.818	n/a	stim	poldrack-single-stim	s624	False	1
509.679	0.254	509.933	-2.421110663811713	draw_card	0.254	columbia_card_task_fmri	15.0	0.8	89.0	-75.0	0.2	6.0	2.0	1.0	3.30841167509935	0.254	n/a	stim	poldrack-single-stim	s624	False	1
509.938	0.531	510.469	-6.921110663811714	end_round	0.531	columbia_card_task_fmri	15.0	0.75	71.0	-75.0	0.25	6.0	3.0	1.0	6.279200063805639	0.531	2.0	stim	poldrack-single-stim	s624	False	1
511.224	1.5	510.473	n/a	-1.0	2.454	columbia_card_task_fmri	n/a	n/a	-1.0	n/a	n/a	n/a	n/a	n/a	n/a	n/a	n/a	ITI	poldrack-single-stim	s624	False	0
512.932	3.779	516.711	2.2455560028549546	draw_card	3.779	columbia_card_task_fmri	16.0	0.8333333333333334	89.0	-70.0	0.1666666666666666	6.0	1.0	1.0	-0.6407071986023141	3.779	n/a	stim	poldrack-single-stim	s624	False	1
516.716	0.18	516.896	-0.6211106638117125	draw_card	0.18	columbia_card_task_fmri	16.0	0.8	89.0	-70.0	0.2	6.0	2.0	1.0	1.708628112321918	0.18	n/a	stim	poldrack-single-stim	s624	False	1
516.901	0.568	517.469	-4.921110663811714	end_round	0.568	columbia_card_task_fmri	16.0	0.75	71.0	-70.0	0.25	6.0	3.0	1.0	4.547349198332853	0.568	2.0	stim	poldrack-single-stim	s624	False	1
518.225	1.5	517.474	n/a	-1.0	2.522	columbia_card_task_fmri	n/a	n/a	-1.0	n/a	n/a	n/a	n/a	n/a	n/a	n/a	n/a	ITI	poldrack-single-stim	s624	False	0
520.001	3.753	523.754	2.8288893361882868	draw_card	3.753	columbia_card_task_fmri	23.0	0.75	89.0	-60.0	0.25	8.0	1.0	2.0	3.2484736938002	3.753	n/a	stim	poldrack-single-stim	s624	False	1
523.759	0.611	524.37	-0.135396378097425	draw_card	0.611	columbia_card_task_fmri	23.0	0.7142857142857143	89.0	-60.0	0.2857142857142857	8.0	2.0	2.0	4.803804033385212	0.611	n/a	stim	poldrack-single-stim	s624	False	1
524.375	0.813	525.188	-4.087777330478378	end_round	0.813	columbia_card_task_fmri	23.0	0.6666666666666667	71.0	-60.0	0.3333333333333333	8.0	3.0	2.0	6.434615042021726	0.813	2.0	stim	poldrack-single-stim	s624	False	1
525.944	1.5	525.193	n/a	-1.0	2.386	columbia_card_task_fmri	n/a	n/a	-1.0	n/a	n/a	n/a	n/a	n/a	n/a	n/a	n/a	ITI	poldrack-single-stim	s624	False	0
527.585	2.455	530.04	3.3288893361882868	draw_card	2.455	columbia_card_task_fmri	27.0	0.75	89.0	-70.0	0.25	8.0	1.0	2.0	9.309978751574114	2.455	1.0	stim	poldrack-single-stim	s624	False	0
530.795	1.5	530.044	n/a	-1.0	2.454	columbia_card_task_fmri	n/a	n/a	-1.0	n/a	n/a	n/a	n/a	n/a	n/a	n/a	n/a	ITI	poldrack-single-stim	s624	False	0
532.505	1.675	534.18	-1.4211106638117117	draw_card	1.675	columbia_card_task_fmri	16.0	0.7777777777777778	89.0	-65.0	0.2222222222222222	9.0	1.0	2.0	0.983649448479234	1.675	1.0	stim	poldrack-single-stim	s624	False	0
534.936	1.5	534.185	n/a	-1.0	2.522	columbia_card_task_fmri	n/a	n/a	-1.0	n/a	n/a	n/a	n/a	n/a	n/a	n/a	n/a	ITI	poldrack-single-stim	s624	False	0
536.713	2.23	538.943	3.778889336188288	draw_card	2.23	columbia_card_task_fmri	13.0	0.9	89.0	-85.0	0.1	10.0	1.0	1.0	-3.290543723321445	2.23	n/a	stim	poldrack-single-stim	s624	False	1
538.948	0.785	539.733	2.690000447299397	draw_card	0.785	columbia_card_task_fmri	13.0	0.8888888888888888	89.0	-85.0	0.1111111111111111	10.0	2.0	1.0	-1.8923737367014477	0.785	n/a	stim	poldrack-single-stim	s624	False	1
539.739	2.014	541.753	1.3288893361882868	draw_card	2.014	columbia_card_task_fmri	13.0	0.875	89.0	-85.0	0.125	10.0	3.0	1.0	-0.2806193942969273	2.014	n/a	stim	poldrack-single-stim	s624	False	1
541.759	0.232	541.991	-0.4211106638117114	draw_card	0.232	columbia_card_task_fmri	13.0	0.8571428571428572	89.0	-85.0	0.1428571428571428	10.0	4.0	1.0	1.6014997263132074	0.232	n/a	stim	poldrack-single-stim	s624	False	1
541.996	1.339	543.335	-2.7544439971450454	end_round	1.339	columbia_card_task_fmri	13.0	0.8333333333333334	71.0	-85.0	0.1666666666666666	10.0	5.0	1.0	3.830788741175901	1.339	4.0	stim	poldrack-single-stim	s624	False	1
544.091	1.5	543.34	n/a	-1.0	2.522	columbia_card_task_fmri	n/a	n/a	-1.0	n/a	n/a	n/a	n/a	n/a	n/a	n/a	n/a	ITI	poldrack-single-stim	s624	False	0
545.868	2.495	548.363	-1.2211106638117122	end_round	2.495	columbia_card_task_fmri	14.0	0.8	71.0	-65.0	0.2	10.0	1.0	2.0	-1.0909403954586914	2.495	0.0	stim	poldrack-single-stim	s624	False	1
549.119	1.5	548.368	n/a	-1.0	2.59	columbia_card_task_fmri	n/a	n/a	-1.0	n/a	n/a	n/a	n/a	n/a	n/a	n/a	n/a	ITI	poldrack-single-stim	s624	False	0
550.965	2.013	552.978	0.1788893361882881	draw_card	2.013	columbia_card_task_fmri	17.0	0.8	89.0	-70.0	0.2	10.0	1.0	2.0	2.108572137562476	2.013	n/a	stim	poldrack-single-stim	s624	False	1
552.983	0.465	553.448	-1.7544439971450454	draw_card	0.465	columbia_card_task_fmri	17.0	0.7777777777777778	89.0	-70.0	0.2222222222222222	10.0	2.0	2.0	3.477744625211308	0.465	n/a	stim	poldrack-single-stim	s624	False	1
553.453	0.897	554.35	-4.171110663811714	end_round	0.897	columbia_card_task_fmri	17.0	0.75	71.0	-70.0	0.25	10.0	3.0	2.0	4.98031019136527	0.897	2.0	stim	poldrack-single-stim	s624	False	1
555.108	1.5	554.357	n/a	-1.0	2.454	columbia_card_task_fmri	n/a	n/a	-1.0	n/a	n/a	n/a	n/a	n/a	n/a	n/a	n/a	ITI	poldrack-single-stim	s624	False	0
556.818	4.502	561.32	-1.087777330478379	draw_card	4.502	columbia_card_task_fmri	13.0	0.8333333333333334	89.0	-75.0	0.1666666666666666	12.0	1.0	2.0	0.1045300059510339	4.502	n/a	stim	poldrack-single-stim	s624	False	1
561.326	1.246	562.572	-2.421110663811715	draw_card	1.246	columbia_card_task_fmri	13.0	0.8181818181818181	89.0	-75.0	0.1818181818181818	12.0	2.0	2.0	1.249819447312305	1.246	2.0	stim	poldrack-single-stim	s624	False	0
563.33	1.5	562.579	n/a	-1.0	2.318	columbia_card_task_fmri	n/a	n/a	-1.0	n/a	n/a	n/a	n/a	n/a	n/a	n/a	n/a	ITI	poldrack-single-stim	s624	False	0
564.903	1.886	566.789	0.5788893361882885	draw_card	1.886	columbia_card_task_fmri	14.0	0.8333333333333334	89.0	-70.0	0.1666666666666666	12.0	1.0	2.0	-1.3859387480038308	1.886	n/a	stim	poldrack-single-stim	s624	False	1
566.795	2.328	569.123	-0.6938379365389884	draw_card	2.328	columbia_card_task_fmri	14.0	0.8181818181818181	89.0	-70.0	0.1818181818181818	12.0	2.0	2.0	-0.2927239581840055	2.328	n/a	stim	poldrack-single-stim	s624	False	1
569.129	1.305	570.434	-2.221110663811712	draw_card	1.305	columbia_card_task_fmri	14.0	0.8	89.0	-70.0	0.2	12.0	3.0	2.0	0.9087440591651514	1.305	3.0	stim	poldrack-single-stim	s624	False	0
571.19	1.5	570.439	n/a	-1.0	2.25	columbia_card_task_fmri	n/a	n/a	-1.0	n/a	n/a	n/a	n/a	n/a	n/a	n/a	n/a	ITI	poldrack-single-stim	s624	False	0
572.695	1.764	574.459	0.5788893361882885	draw_card	1.764	columbia_card_task_fmri	16.0	0.8333333333333334	89.0	-80.0	0.1666666666666666	12.0	1.0	2.0	3.0855283087550944	1.764	1.0	stim	poldrack-single-stim	s624	False	0
575.216	1.5	574.465	n/a	-1.0	2.658	columbia_card_task_fmri	n/a	n/a	-1.0	n/a	n/a	n/a	n/a	n/a	n/a	n/a	n/a	ITI	poldrack-single-stim	s624	False	0
577.129	2.64	579.769	0.3788893361882874	draw_card	2.64	columbia_card_task_fmri	16.0	0.8	89.0	-65.0	0.2	15.0	1.0	3.0	-0.2910712872404346	2.64	n/a	stim	poldrack-single-stim	s624	False	1
579.775	0.823	580.598	-0.7782535209545691	draw_card	0.823	columbia_card_task_fmri	16.0	0.7857142857142857	89.0	-65.0	0.2142857142857142	15.0	2.0	3.0	0.5451967710666565	0.823	n/a	stim	poldrack-single-stim	s624	False	1
580.604	1.633	582.237	-2.113418356119406	end_round	1.633	columbia_card_task_fmri	16.0	0.7692307692307692	71.0	-65.0	0.2307692307692307	15.0	3.0	3.0	1.4359956040624695	1.633	2.0	stim	poldrack-single-stim	s624	False	1
582.992	1.5	582.241	n/a	-1.0	2.454	columbia_card_task_fmri	n/a	n/a	-1.0	n/a	n/a	n/a	n/a	n/a	n/a	n/a	n/a	ITI	poldrack-single-stim	s624	False	0
584.702	3.806	588.508	-1.2961106638117132	draw_card	3.806	columbia_card_task_fmri	15.0	0.8125	89.0	-75.0	0.1875	16.0	1.0	3.0	2.4366409148405666	3.806	n/a	stim	poldrack-single-stim	s624	False	1
588.514	0.421	588.935	-2.421110663811713	draw_card	0.421	columbia_card_task_fmri	15.0	0.8	89.0	-75.0	0.2	16.0	2.0	3.0	3.30841167509935	0.421	n/a	stim	poldrack-single-stim	s624	False	1
588.941	0.712	589.653	-3.706824949525998	draw_card	0.712	columbia_card_task_fmri	15.0	0.7857142857142857	89.0	-75.0	0.2142857142857142	16.0	3.0	3.0	4.237625869225894	0.712	n/a	stim	poldrack-single-stim	s624	False	1
589.659	0.825	590.484	-5.190341433042487	end_round	0.825	columbia_card_task_fmri	15.0	0.7692307692307692	71.0	-75.0	0.2307692307692307	16.0	4.0	3.0	5.227430123507631	0.825	3.0	stim	poldrack-single-stim	s624	False	1
591.24	1.5	590.489	n/a	-1.0	2.386	columbia_card_task_fmri	n/a	n/a	-1.0	n/a	n/a	n/a	n/a	n/a	n/a	n/a	n/a	ITI	poldrack-single-stim	s624	False	0
592.881	2.358	595.239	-0.7336106638117132	end_round	2.358	columbia_card_task_fmri	14.0	0.6875	71.0	-35.0	0.3125	16.0	1.0	5.0	-9.976758294846558	2.358	0.0	stim	poldrack-single-stim	s624	False	1
595.998	1.5	595.247	n/a	-1.0	2.59	columbia_card_task_fmri	n/a	n/a	-1.0	n/a	n/a	n/a	n/a	n/a	n/a	n/a	n/a	ITI	poldrack-single-stim	s624	False	0
597.843	2.469	600.312	4.4455560028549534	draw_card	2.469	columbia_card_task_fmri	16.0	0.8666666666666667	89.0	-75.0	0.1333333333333333	15.0	1.0	2.0	-1.7567745585347936	2.469	n/a	stim	poldrack-single-stim	s624	False	1
600.318	0.827	601.145	3.5788893361882885	draw_card	0.827	columbia_card_task_fmri	16.0	0.8571428571428572	89.0	-75.0	0.1428571428571428	15.0	2.0	2.0	-0.8476142535137221	0.827	n/a	stim	poldrack-single-stim	s624	False	1
601.151	1.104	602.255	2.5788893361882868	draw_card	1.104	columbia_card_task_fmri	16.0	0.8461538461538461	89.0	-75.0	0.1538461538461538	15.0	3.0	2.0	0.1417708601490233	1.104	n/a	stim	poldrack-single-stim	s624	False	1
602.261	1.313	603.574	1.412222669521621	draw_card	1.313	columbia_card_task_fmri	16.0	0.8333333333333334	89.0	-75.0	0.1666666666666666	15.0	4.0	2.0	1.2223956007918702	1.313	n/a	stim	poldrack-single-stim	s624	False	1
603.579	1.866	605.445	0.03343479073374	draw_card	1.866	columbia_card_task_fmri	16.0	0.8181818181818181	89.0	-75.0	0.1818181818181818	15.0	5.0	2.0	2.4067405577634844	1.866	n/a	stim	poldrack-single-stim	s624	False	1
605.45	2.304	607.754	-1.6211106638117123	end_round	2.304	columbia_card_task_fmri	16.0	0.8	71.0	-75.0	0.2	15.0	6.0	2.0	3.70836053825564	2.304	5.0	stim	poldrack-single-stim	s624	False	1
608.512	1.5	607.761	n/a	-1.0	2.318	columbia_card_task_fmri	n/a	n/a	-1.0	n/a	n/a	n/a	n/a	n/a	n/a	n/a	n/a	ITI	poldrack-single-stim	s624	False	0
610.087	3.105	613.192	5.11222266952162	draw_card	3.105	columbia_card_task_fmri	16.0	0.8666666666666667	89.0	-70.0	0.1333333333333333	15.0	1.0	2.0	-3.456132900506549	3.105	n/a	stim	poldrack-single-stim	s624	False	1
613.198	0.569	613.767	4.293175050474002	draw_card	0.569	columbia_card_task_fmri	16.0	0.8571428571428572	89.0	-70.0	0.1428571428571428	15.0	2.0	2.0	-2.596943940280081	0.569	2.0	stim	poldrack-single-stim	s624	False	0
614.523	1.5	613.772	n/a	-1.0	2.59	columbia_card_task_fmri	n/a	n/a	-1.0	n/a	n/a	n/a	n/a	n/a	n/a	n/a	n/a	ITI	poldrack-single-stim	s624	False	0
616.369	2.339	618.708	2.4538893361882868	draw_card	2.339	columbia_card_task_fmri	8.0	0.9375	89.0	-90.0	0.0625	16.0	1.0	1.0	-8.967157097019559	2.339	n/a	stim	poldrack-single-stim	s624	False	1
618.714	0.376	619.09	2.045556002854953	draw_card	0.376	columbia_card_task_fmri	8.0	0.9333333333333332	89.0	-90.0	0.0666666666666666	16.0	2.0	1.0	-8.243894116397072	0.376	n/a	stim	poldrack-single-stim	s624	False	1
619.096	0.414	619.51	1.5788893361882876	draw_card	0.414	columbia_card_task_fmri	8.0	0.9285714285714286	89.0	-90.0	0.0714285714285714	16.0	3.0	1.0	-7.450745486511668	0.414	n/a	stim	poldrack-single-stim	s624	False	1
619.516	0.42	619.936	1.0404277977267484	draw_card	0.42	columbia_card_task_fmri	8.0	0.9230769230769232	89.0	-90.0	0.0769230769230769	16.0	4.0	1.0	-6.575830020696454	0.42	n/a	stim	poldrack-single-stim	s624	False	1
619.942	1.171	621.113	0.4122226695216198	draw_card	1.171	columbia_card_task_fmri	8.0	0.9166666666666666	89.0	-90.0	0.0833333333333333	16.0	5.0	1.0	-5.604287811767197	1.171	n/a	stim	poldrack-single-stim	s624	False	1
621.118	0.486	621.604	-0.3302015729026224	draw_card	0.486	columbia_card_task_fmri	8.0	0.9090909090909092	89.0	-90.0	0.0909090909090909	16.0	6.0	1.0	-4.517276435064677	0.486	n/a	stim	poldrack-single-stim	s624	False	1
621.609	1.29	622.899	-1.221110663811713	draw_card	1.29	columbia_card_task_fmri	8.0	0.9	89.0	-90.0	0.1	16.0	7.0	1.0	-3.290543723321445	1.29	n/a	stim	poldrack-single-stim	s624	False	1
622.904	1.108	624.012	-2.3099995527006025	draw_card	1.108	columbia_card_task_fmri	8.0	0.8888888888888888	89.0	-90.0	0.1111111111111111	16.0	8.0	1.0	-1.8923737367014477	1.108	n/a	stim	poldrack-single-stim	s624	False	1
624.016	1.388	625.404	-3.671110663811713	end_round	1.388	columbia_card_task_fmri	8.0	0.875	71.0	-90.0	0.125	16.0	9.0	1.0	-0.2806193942969273	1.388	8.0	stim	poldrack-single-stim	s624	False	1
626.158	1.5	625.407	n/a	-1.0	2.386	columbia_card_task_fmri	n/a	n/a	-1.0	n/a	n/a	n/a	n/a	n/a	n/a	n/a	n/a	ITI	poldrack-single-stim	s624	False	0
627.799	3.218	631.017	4.016389336188286	draw_card	3.218	columbia_card_task_fmri	10.0	0.9375	89.0	-95.0	0.0625	16.0	1.0	1.0	-7.273197575081454	3.218	n/a	stim	poldrack-single-stim	s624	False	1
631.021	0.346	631.367	3.578889336188288	draw_card	0.346	columbia_card_task_fmri	10.0	0.9333333333333332	89.0	-95.0	0.0666666666666666	16.0	2.0	1.0	-6.4982441087706455	0.346	n/a	stim	poldrack-single-stim	s624	False	1
631.373	0.369	631.742	3.078889336188288	draw_card	0.369	columbia_card_task_fmri	10.0	0.9285714285714286	89.0	-95.0	0.0714285714285714	16.0	3.0	1.0	-5.648412274104903	0.369	n/a	stim	poldrack-single-stim	s624	False	1
631.748	0.389	632.137	2.50196625926521	draw_card	0.389	columbia_card_task_fmri	10.0	0.9230769230769232	89.0	-95.0	0.0769230769230769	16.0	4.0	1.0	-4.710972144684362	0.389	n/a	stim	poldrack-single-stim	s624	False	1
632.142	0.405	632.547	1.8288893361882868	draw_card	0.405	columbia_card_task_fmri	10.0	0.9166666666666666	89.0	-95.0	0.0833333333333333	16.0	5.0	1.0	-3.670002294874667	0.405	n/a	stim	poldrack-single-stim	s624	False	1
632.553	2.922	635.475	1.03343479073374	draw_card	2.922	columbia_card_task_fmri	10.0	0.9090909090909092	89.0	-95.0	0.0909090909090909	16.0	6.0	1.0	-2.505314300568031	2.922	n/a	stim	poldrack-single-stim	s624	False	1
635.479	1.273	636.752	0.0788893361882867	draw_card	1.273	columbia_card_task_fmri	10.0	0.9	89.0	-95.0	0.1	16.0	7.0	1.0	-1.190923566632474	1.273	n/a	stim	poldrack-single-stim	s624	False	1
636.757	1.028	637.785	-1.087777330478379	end_round	1.028	columbia_card_task_fmri	10.0	0.8888888888888888	71.0	-95.0	0.1111111111111111	16.0	8.0	1.0	0.3071514220410236	1.028	7.0	stim	poldrack-single-stim	s624	False	1
638.541	1.5	637.79	n/a	-1.0	2.318	columbia_card_task_fmri	n/a	n/a	-1.0	n/a	n/a	n/a	n/a	n/a	n/a	n/a	n/a	ITI	poldrack-single-stim	s624	False	0
640.114	1.847	641.961	4.953889336188286	draw_card	1.847	columbia_card_task_fmri	15.0	0.875	89.0	-70.0	0.125	16.0	1.0	2.0	-4.579174814906217	1.847	n/a	stim	poldrack-single-stim	s624	False	1
641.967	0.49	642.457	4.245556002854952	draw_card	0.49	columbia_card_task_fmri	15.0	0.8666666666666667	89.0	-70.0	0.1333333333333333	16.0	2.0	2.0	-3.7960001255559632	0.49	2.0	stim	poldrack-single-stim	s624	False	0
643.213	1.5	642.462	n/a	-1.0	2.318	columbia_card_task_fmri	n/a	n/a	-1.0	n/a	n/a	n/a	n/a	n/a	n/a	n/a	n/a	ITI	poldrack-single-stim	s624	False	0
644.787	2.67	647.457	3.953889336188287	draw_card	2.67	columbia_card_task_fmri	16.0	0.875	89.0	-85.0	0.125	16.0	1.0	2.0	0.7113838237919552	2.67	n/a	stim	poldrack-single-stim	s624	False	1
647.464	0.33	647.794	3.11222266952162	draw_card	0.33	columbia_card_task_fmri	16.0	0.8666666666666667	89.0	-85.0	0.1333333333333333	16.0	2.0	2.0	1.642035617218383	0.33	n/a	stim	poldrack-single-stim	s624	False	1
647.8	0.356	648.156	2.15031790761686	draw_card	0.356	columbia_card_task_fmri	16.0	0.8571428571428572	89.0	-85.0	0.1428571428571428	16.0	3.0	2.0	2.6511359447041443	0.356	n/a	stim	poldrack-single-stim	s624	False	1
648.163	0.8	648.963	1.0404277977267469	draw_card	0.8	columbia_card_task_fmri	16.0	0.8461538461538461	89.0	-85.0	0.1538461538461538	16.0	4.0	2.0	3.749277811638123	0.8	n/a	stim	poldrack-single-stim	s624	False	1
648.97	0.554	649.524	-0.2544439971450454	draw_card	0.554	columbia_card_task_fmri	16.0	0.8333333333333334	89.0	-85.0	0.1666666666666666	16.0	5.0	2.0	4.948686484559374	0.554	n/a	stim	poldrack-single-stim	s624	False	1
649.53	1.16	650.69	-1.7847470274480783	end_round	1.16	columbia_card_task_fmri	16.0	0.8181818181818181	71.0	-85.0	0.1818181818181818	16.0	6.0	2.0	6.263214057705497	1.16	5.0	stim	poldrack-single-stim	s624	False	1
651.446	1.5	650.695	n/a	-1.0	2.318	columbia_card_task_fmri	n/a	n/a	-1.0	n/a	n/a	n/a	n/a	n/a	n/a	n/a	n/a	ITI	poldrack-single-stim	s624	False	0
