onset	duration	movement_onset	CTI	block_duration	correct	correct_response	cue	cue_switch	experiment_exp_id	key_press	response_time	stim_color	stim_number	switch_type	task	task_switch	trial_id	trial_type	worker_id	first_trial_of_block	junk
4.408	1.0	6.065	0.9	2.136	True	89.0	Color	n/a	twobytwo	89.0	0.757	orange	7.0	task_switch	color	switch	stim	poldrack-single-stim	s624	1	False
6.648	1.0	7.303	0.1	2.68	True	71.0	Color	stay	twobytwo	71.0	0.555	blue	6.0	cue_stay	color	stay	stim	poldrack-single-stim	s624	0	False
9.431	1.0	10.235	0.1	2.544	True	71.0	Orange-Blue	switch	twobytwo	71.0	0.704	blue	4.0	cue_switch	color	stay	stim	poldrack-single-stim	s624	0	False
12.878	1.0	14.215	0.9	2.272	True	71.0	Color	switch	twobytwo	71.0	0.437	blue	9.0	cue_switch	color	stay	stim	poldrack-single-stim	s624	0	False
15.253	1.0	15.881	0.1	2.272	True	89.0	Orange-Blue	switch	twobytwo	89.0	0.528	orange	7.0	cue_switch	color	stay	stim	poldrack-single-stim	s624	0	False
18.428	1.0	19.757	0.9	2.408	True	89.0	High-Low	n/a	twobytwo	89.0	0.429	orange	2.0	task_switch	magnitude	switch	stim	poldrack-single-stim	s624	0	False
21.739	1.0	23.149	0.9	2.136	True	89.0	High-Low	stay	twobytwo	89.0	0.51	blue	1.0	cue_stay	magnitude	stay	stim	poldrack-single-stim	s624	0	False
24.777	1.0	26.131	0.9	2.272	True	89.0	Color	n/a	twobytwo	89.0	0.454	orange	4.0	task_switch	color	switch	stim	poldrack-single-stim	s624	0	False
27.952	1.0	29.216	0.9	2.0	True	89.0	Orange-Blue	switch	twobytwo	89.0	0.364	orange	3.0	cue_switch	color	stay	stim	poldrack-single-stim	s624	0	False
30.855	1.0	32.507	0.9	2.136	False	71.0	Color	switch	twobytwo	89.0	0.752	blue	1.0	cue_switch	color	stay	stim	poldrack-single-stim	s624	0	False
33.893	1.0	35.202	0.9	2.272	False	71.0	Color	stay	twobytwo	89.0	0.409	blue	7.0	cue_stay	color	stay	stim	poldrack-single-stim	s624	0	False
36.268	1.0	37.214	0.1	2.0	True	89.0	High-Low	n/a	twobytwo	89.0	0.846	blue	4.0	task_switch	magnitude	switch	stim	poldrack-single-stim	s624	0	False
38.371	1.0	39.173	0.1	2.68	False	71.0	Color	n/a	twobytwo	89.0	0.702	blue	1.0	task_switch	color	switch	stim	poldrack-single-stim	s624	0	False
41.954	1.0	43.273	0.9	2.0	True	89.0	Orange-Blue	switch	twobytwo	89.0	0.419	orange	1.0	cue_switch	color	stay	stim	poldrack-single-stim	s624	0	False
44.857	1.0	46.219	0.9	2.0	True	89.0	Magnitude	n/a	twobytwo	89.0	0.462	blue	2.0	task_switch	magnitude	switch	stim	poldrack-single-stim	s624	0	False
46.959	1.0	47.718	0.1	2.0	True	89.0	Magnitude	stay	twobytwo	89.0	0.659	blue	2.0	cue_stay	magnitude	stay	stim	poldrack-single-stim	s624	0	False
49.062	1.0	50.2	0.1	2.272	True	89.0	Orange-Blue	n/a	twobytwo	89.0	1.038	orange	4.0	task_switch	color	switch	stim	poldrack-single-stim	s624	0	False
51.436	1.0	52.164	0.1	2.0	True	89.0	High-Low	n/a	twobytwo	89.0	0.628	blue	2.0	task_switch	magnitude	switch	stim	poldrack-single-stim	s624	0	False
53.539	1.0	54.259	0.1	2.0	True	71.0	Color	n/a	twobytwo	71.0	0.62	blue	8.0	task_switch	color	switch	stim	poldrack-single-stim	s624	0	False
55.641	1.0	56.354	0.1	2.0	True	89.0	High-Low	n/a	twobytwo	89.0	0.613	orange	1.0	task_switch	magnitude	switch	stim	poldrack-single-stim	s624	0	False
58.544	1.0	59.9	0.9	2.68	True	89.0	High-Low	stay	twobytwo	89.0	0.456	blue	4.0	cue_stay	magnitude	stay	stim	poldrack-single-stim	s624	0	False
62.127	1.0	63.774	0.9	2.0	True	89.0	High-Low	stay	twobytwo	89.0	0.747	blue	3.0	cue_stay	magnitude	stay	stim	poldrack-single-stim	s624	0	False
65.03	1.0	66.452	0.9	2.136	True	71.0	Orange-Blue	n/a	twobytwo	71.0	0.522	blue	7.0	task_switch	color	switch	stim	poldrack-single-stim	s624	0	False
68.069	1.0	69.455	0.9	2.408	False	71.0	Color	switch	twobytwo	89.0	0.486	blue	3.0	cue_switch	color	stay	stim	poldrack-single-stim	s624	0	False
70.58	1.0	71.388	0.1	2.136	True	71.0	Color	stay	twobytwo	71.0	0.708	blue	2.0	cue_stay	color	stay	stim	poldrack-single-stim	s624	0	False
73.618	1.0	75.059	0.9	2.0	True	71.0	Color	stay	twobytwo	71.0	0.541	blue	4.0	cue_stay	color	stay	stim	poldrack-single-stim	s624	0	False
75.721	1.0	76.679	0.1	2.0	True	89.0	Magnitude	n/a	twobytwo	89.0	0.858	blue	3.0	task_switch	magnitude	switch	stim	poldrack-single-stim	s624	0	False
77.823	1.0	78.996	0.1	2.544	True	71.0	Color	n/a	twobytwo	71.0	1.073	blue	9.0	task_switch	color	switch	stim	poldrack-single-stim	s624	0	False
81.27	1.0	82.753	0.9	2.136	True	89.0	Color	stay	twobytwo	89.0	0.583	orange	4.0	cue_stay	color	stay	stim	poldrack-single-stim	s624	0	False
83.508	1.0	84.42	0.1	2.544	True	89.0	Color	stay	twobytwo	89.0	0.812	orange	6.0	cue_stay	color	stay	stim	poldrack-single-stim	s624	0	False
86.955	1.0	88.419	0.9	2.68	True	89.0	Magnitude	n/a	twobytwo	89.0	0.564	blue	4.0	task_switch	magnitude	switch	stim	poldrack-single-stim	s624	0	False
90.537	1.0	91.887	0.9	2.0	True	89.0	High-Low	switch	twobytwo	89.0	0.45	orange	1.0	cue_switch	magnitude	stay	stim	poldrack-single-stim	s624	0	False
93.44	1.0	94.743	0.9	2.272	True	71.0	Color	n/a	twobytwo	71.0	0.403	blue	4.0	task_switch	color	switch	stim	poldrack-single-stim	s624	0	False
95.814	1.0	96.629	0.1	3.088	True	71.0	High-Low	n/a	twobytwo	71.0	0.715	orange	9.0	task_switch	magnitude	switch	stim	poldrack-single-stim	s624	0	False
99.805	1.0	101.061	0.9	2.0	True	89.0	Color	n/a	twobytwo	89.0	0.356	orange	2.0	task_switch	color	switch	stim	poldrack-single-stim	s624	0	False
101.907	1.0	102.559	0.1	2.136	True	89.0	Color	stay	twobytwo	89.0	0.552	orange	3.0	cue_stay	color	stay	stim	poldrack-single-stim	s624	0	False
104.946	1.0	106.213	0.9	2.136	False	71.0	Magnitude	n/a	twobytwo	89.0	0.367	orange	8.0	task_switch	magnitude	switch	stim	poldrack-single-stim	s624	0	False
107.184	1.0	107.84	0.1	2.0	True	71.0	Magnitude	stay	twobytwo	71.0	0.556	blue	7.0	cue_stay	magnitude	stay	stim	poldrack-single-stim	s624	0	False
110.086	1.0	111.38	0.9	2.272	True	89.0	High-Low	switch	twobytwo	89.0	0.394	blue	2.0	cue_switch	magnitude	stay	stim	poldrack-single-stim	s624	0	False
113.262	1.0	114.508	0.9	2.0	True	71.0	Color	n/a	twobytwo	71.0	0.346	blue	3.0	task_switch	color	switch	stim	poldrack-single-stim	s624	0	False
116.164	1.0	117.577	0.9	2.136	True	89.0	Magnitude	n/a	twobytwo	89.0	0.513	orange	4.0	task_switch	magnitude	switch	stim	poldrack-single-stim	s624	0	False
118.403	1.0	119.299	0.1	2.136	False	89.0	Color	n/a	twobytwo	71.0	0.796	orange	7.0	task_switch	color	switch	stim	poldrack-single-stim	s624	0	False
121.441	1.0	123.136	0.9	2.544	True	71.0	Color	stay	twobytwo	71.0	0.795	blue	7.0	cue_stay	color	stay	stim	poldrack-single-stim	s624	0	False
124.088	1.0	125.185	0.1	2.0	True	89.0	Magnitude	n/a	twobytwo	89.0	0.997	blue	3.0	task_switch	magnitude	switch	stim	poldrack-single-stim	s624	0	False
126.99	1.0	128.369	0.9	2.136	True	89.0	Magnitude	stay	twobytwo	89.0	0.479	orange	3.0	cue_stay	magnitude	stay	stim	poldrack-single-stim	s624	0	False
129.229	1.0	130.072	0.1	2.136	False	89.0	Color	n/a	twobytwo	71.0	0.743	orange	7.0	task_switch	color	switch	stim	poldrack-single-stim	s624	0	False
132.268	1.0	133.644	0.9	2.136	False	71.0	High-Low	n/a	twobytwo	89.0	0.476	orange	7.0	task_switch	magnitude	switch	stim	poldrack-single-stim	s624	0	False
135.306	1.0	136.713	0.9	2.0	True	71.0	Color	n/a	twobytwo	71.0	0.507	blue	3.0	task_switch	color	switch	stim	poldrack-single-stim	s624	0	False
138.209	1.0	139.661	0.9	2.136	True	89.0	Magnitude	n/a	twobytwo	89.0	0.552	orange	4.0	task_switch	magnitude	switch	stim	poldrack-single-stim	s624	0	False
140.448	1.0	141.46	0.1	2.0	True	71.0	Magnitude	stay	twobytwo	71.0	0.912	blue	8.0	cue_stay	magnitude	stay	stim	poldrack-single-stim	s624	0	False
142.55	1.0	143.443	0.1	2.136	True	71.0	High-Low	switch	twobytwo	71.0	0.793	orange	6.0	cue_switch	magnitude	stay	stim	poldrack-single-stim	s624	0	False
144.789	1.0	145.976	0.1	2.816	True	89.0	Orange-Blue	n/a	twobytwo	89.0	1.087	orange	3.0	task_switch	color	switch	stim	poldrack-single-stim	s624	0	False
147.708	1.0	148.445	0.1	2.136	True	71.0	Orange-Blue	stay	twobytwo	71.0	0.637	blue	6.0	cue_stay	color	stay	stim	poldrack-single-stim	s624	0	False
149.947	1.0	150.821	0.1	2.0	True	71.0	Orange-Blue	stay	twobytwo	71.0	0.774	blue	6.0	cue_stay	color	stay	stim	poldrack-single-stim	s624	0	False
152.049	1.0	153.066	0.1	2.0	True	89.0	Magnitude	n/a	twobytwo	89.0	0.917	orange	3.0	task_switch	magnitude	switch	stim	poldrack-single-stim	s624	0	False
154.152	1.0	155.007	0.1	2.272	True	89.0	Magnitude	stay	twobytwo	89.0	0.755	orange	3.0	cue_stay	magnitude	stay	stim	poldrack-single-stim	s624	0	False
156.527	1.0	157.192	0.1	2.0	False	89.0	Orange-Blue	n/a	twobytwo	71.0	0.565	orange	6.0	task_switch	color	switch	stim	poldrack-single-stim	s624	0	False
159.429	1.0	161.163	0.9	2.0	True	71.0	Magnitude	n/a	twobytwo	71.0	0.834	blue	9.0	task_switch	magnitude	switch	stim	poldrack-single-stim	s624	0	False
161.532	1.0	162.747	0.1	2.0	True	89.0	Color	n/a	twobytwo	89.0	1.115	orange	9.0	task_switch	color	switch	stim	poldrack-single-stim	s624	0	False
164.435	1.0	165.901	0.9	2.408	True	71.0	Magnitude	n/a	twobytwo	71.0	0.566	blue	6.0	task_switch	magnitude	switch	stim	poldrack-single-stim	s624	0	False
167.746	1.0	169.061	0.9	2.272	True	89.0	Magnitude	stay	twobytwo	89.0	0.415	blue	3.0	cue_stay	magnitude	stay	stim	poldrack-single-stim	s624	0	False
170.12	1.0	171.523	0.1	2.136	False	71.0	Orange-Blue	n/a	twobytwo	89.0	1.303	blue	7.0	task_switch	color	switch	stim	poldrack-single-stim	s624	0	False
173.159	1.0	174.487	0.9	2.0	True	89.0	Color	switch	twobytwo	89.0	0.428	orange	3.0	cue_switch	color	stay	stim	poldrack-single-stim	s624	0	False
176.061	1.0	177.61	0.9	2.0	False	71.0	High-Low	n/a	twobytwo	89.0	0.649	orange	6.0	task_switch	magnitude	switch	stim	poldrack-single-stim	s624	0	False
178.166	1.0	179.255	0.1	2.136	True	89.0	Color	n/a	twobytwo	89.0	0.989	orange	6.0	task_switch	color	switch	stim	poldrack-single-stim	s624	0	False
181.204	1.0	182.927	0.9	2.0	True	71.0	High-Low	n/a	twobytwo	71.0	0.823	blue	9.0	task_switch	magnitude	switch	stim	poldrack-single-stim	s624	0	False
184.107	1.0	185.572	0.9	2.136	True	89.0	Color	n/a	twobytwo	89.0	0.565	orange	2.0	task_switch	color	switch	stim	poldrack-single-stim	s624	0	False
186.346	1.0	187.122	0.1	2.408	True	89.0	Color	stay	twobytwo	89.0	0.676	orange	4.0	cue_stay	color	stay	stim	poldrack-single-stim	s624	0	False
189.656	1.0	190.955	0.9	2.136	True	89.0	Magnitude	n/a	twobytwo	89.0	0.399	blue	4.0	task_switch	magnitude	switch	stim	poldrack-single-stim	s624	0	False
192.695	1.0	194.176	0.9	2.0	True	71.0	Color	n/a	twobytwo	71.0	0.581	blue	8.0	task_switch	color	switch	stim	poldrack-single-stim	s624	0	False
194.798	1.0	195.549	0.1	2.136	True	89.0	Magnitude	n/a	twobytwo	89.0	0.651	blue	2.0	task_switch	magnitude	switch	stim	poldrack-single-stim	s624	0	False
197.037	1.0	197.925	0.1	2.272	True	71.0	Magnitude	stay	twobytwo	71.0	0.788	blue	9.0	cue_stay	magnitude	stay	stim	poldrack-single-stim	s624	0	False
200.211	1.0	201.501	0.9	2.0	True	89.0	Orange-Blue	n/a	twobytwo	89.0	0.39	orange	8.0	task_switch	color	switch	stim	poldrack-single-stim	s624	0	False
203.114	1.0	204.81	0.9	2.408	False	71.0	High-Low	n/a	twobytwo	89.0	0.796	orange	7.0	task_switch	magnitude	switch	stim	poldrack-single-stim	s624	0	False
206.425	1.0	208.022	0.9	2.0	True	89.0	Magnitude	switch	twobytwo	89.0	0.697	blue	3.0	cue_switch	magnitude	stay	stim	poldrack-single-stim	s624	0	False
208.528	1.0	209.619	0.1	2.136	False	71.0	Color	n/a	twobytwo	89.0	0.991	blue	4.0	task_switch	color	switch	stim	poldrack-single-stim	s624	0	False
210.767	1.0	211.599	0.1	2.408	True	71.0	High-Low	n/a	twobytwo	71.0	0.732	orange	9.0	task_switch	magnitude	switch	stim	poldrack-single-stim	s624	0	False
213.277	1.0	214.45	0.1	2.136	True	89.0	Orange-Blue	n/a	twobytwo	89.0	1.073	orange	6.0	task_switch	color	switch	stim	poldrack-single-stim	s624	0	False
216.316	1.0	218.57	0.9	2.408	True	71.0	Magnitude	n/a	twobytwo	71.0	1.354	blue	8.0	task_switch	magnitude	switch	stim	poldrack-single-stim	s624	0	False
219.627	1.0	221.032	0.9	2.136	True	89.0	Color	n/a	twobytwo	89.0	0.505	orange	2.0	task_switch	color	switch	stim	poldrack-single-stim	s624	0	False
236.171	1.0	237.703	0.9	2.0	True	71.0	High-Low	n/a	twobytwo	71.0	0.632	orange	7.0	task_switch	magnitude	switch	stim	poldrack-single-stim	s624	1	False
238.273	1.0	238.996	0.1	2.272	True	71.0	High-Low	stay	twobytwo	71.0	0.623	blue	6.0	cue_stay	magnitude	stay	stim	poldrack-single-stim	s624	0	False
240.648	1.0	241.575	0.1	2.0	True	89.0	Magnitude	switch	twobytwo	89.0	0.827	blue	4.0	cue_switch	magnitude	stay	stim	poldrack-single-stim	s624	0	False
243.551	1.0	244.942	0.9	2.272	True	71.0	High-Low	switch	twobytwo	71.0	0.491	blue	9.0	cue_switch	magnitude	stay	stim	poldrack-single-stim	s624	0	False
245.926	1.0	246.594	0.1	2.272	True	71.0	Magnitude	switch	twobytwo	71.0	0.568	orange	7.0	cue_switch	magnitude	stay	stim	poldrack-single-stim	s624	0	False
249.101	1.0	250.351	0.9	2.952	True	89.0	Orange-Blue	n/a	twobytwo	89.0	0.35	orange	2.0	task_switch	color	switch	stim	poldrack-single-stim	s624	0	False
252.956	1.0	254.448	0.9	2.68	False	71.0	Orange-Blue	stay	twobytwo	89.0	0.592	blue	1.0	cue_stay	color	stay	stim	poldrack-single-stim	s624	0	False
256.539	1.0	257.871	0.9	2.136	True	89.0	High-Low	n/a	twobytwo	89.0	0.432	orange	4.0	task_switch	magnitude	switch	stim	poldrack-single-stim	s624	0	False
259.578	1.0	260.917	0.9	2.272	True	89.0	Magnitude	switch	twobytwo	89.0	0.439	orange	3.0	cue_switch	magnitude	stay	stim	poldrack-single-stim	s624	0	False
262.753	1.0	264.315	0.9	2.272	True	89.0	High-Low	switch	twobytwo	89.0	0.662	blue	1.0	cue_switch	magnitude	stay	stim	poldrack-single-stim	s624	0	False
265.928	1.0	267.76	0.9	2.136	True	71.0	High-Low	stay	twobytwo	71.0	0.932	blue	7.0	cue_stay	magnitude	stay	stim	poldrack-single-stim	s624	0	False
268.166	1.0	269.622	0.1	2.408	True	71.0	Orange-Blue	n/a	twobytwo	71.0	1.356	blue	4.0	task_switch	color	switch	stim	poldrack-single-stim	s624	0	False
270.677	1.0	271.4	0.1	2.136	True	89.0	High-Low	n/a	twobytwo	89.0	0.623	blue	1.0	task_switch	magnitude	switch	stim	poldrack-single-stim	s624	0	False
273.716	1.0	275.084	0.9	2.136	True	89.0	Magnitude	switch	twobytwo	89.0	0.468	orange	1.0	cue_switch	magnitude	stay	stim	poldrack-single-stim	s624	0	False
276.755	1.0	278.008	0.9	2.0	False	71.0	Color	n/a	twobytwo	89.0	0.353	blue	2.0	task_switch	color	switch	stim	poldrack-single-stim	s624	0	False
278.858	1.0	279.574	0.1	2.0	True	71.0	Color	stay	twobytwo	71.0	0.616	blue	2.0	cue_stay	color	stay	stim	poldrack-single-stim	s624	0	False
280.96	1.0	282.143	0.1	2.0	True	89.0	Magnitude	n/a	twobytwo	89.0	1.083	orange	4.0	task_switch	magnitude	switch	stim	poldrack-single-stim	s624	0	False
283.064	1.0	284.001	0.1	2.0	True	71.0	Color	n/a	twobytwo	71.0	0.837	blue	2.0	task_switch	color	switch	stim	poldrack-single-stim	s624	0	False
285.168	1.0	286.326	0.1	2.0	True	71.0	High-Low	n/a	twobytwo	71.0	1.058	blue	8.0	task_switch	magnitude	switch	stim	poldrack-single-stim	s624	0	False
287.271	1.0	287.996	0.1	2.272	True	89.0	Color	n/a	twobytwo	89.0	0.625	orange	1.0	task_switch	color	switch	stim	poldrack-single-stim	s624	0	False
290.447	1.0	291.892	0.9	2.408	True	71.0	Color	stay	twobytwo	71.0	0.545	blue	4.0	cue_stay	color	stay	stim	poldrack-single-stim	s624	0	False
293.757	1.0	295.353	0.9	2.0	True	71.0	Color	stay	twobytwo	71.0	0.696	blue	3.0	cue_stay	color	stay	stim	poldrack-single-stim	s624	0	False
296.661	1.0	298.049	0.9	2.136	True	71.0	Magnitude	n/a	twobytwo	71.0	0.488	blue	7.0	task_switch	magnitude	switch	stim	poldrack-single-stim	s624	0	False
299.7	1.0	301.321	0.9	2.0	True	89.0	High-Low	switch	twobytwo	89.0	0.721	blue	3.0	cue_switch	magnitude	stay	stim	poldrack-single-stim	s624	0	False
301.804	1.0	303.312	0.1	2.136	True	89.0	High-Low	stay	twobytwo	89.0	1.408	blue	2.0	cue_stay	magnitude	stay	stim	poldrack-single-stim	s624	0	False
304.843	1.0	306.2	0.9	2.544	True	89.0	High-Low	stay	twobytwo	89.0	0.457	blue	4.0	cue_stay	magnitude	stay	stim	poldrack-single-stim	s624	0	False
307.491	1.0	308.359	0.1	2.68	True	71.0	Orange-Blue	n/a	twobytwo	71.0	0.768	blue	3.0	task_switch	color	switch	stim	poldrack-single-stim	s624	0	False
310.274	1.0	311.202	0.1	3.088	True	71.0	High-Low	n/a	twobytwo	71.0	0.828	blue	9.0	task_switch	magnitude	switch	stim	poldrack-single-stim	s624	0	False
314.265	1.0	315.793	0.9	2.136	True	89.0	High-Low	stay	twobytwo	89.0	0.628	orange	4.0	cue_stay	magnitude	stay	stim	poldrack-single-stim	s624	0	False
316.503	1.0	317.389	0.1	2.544	False	71.0	High-Low	stay	twobytwo	89.0	0.786	orange	6.0	cue_stay	magnitude	stay	stim	poldrack-single-stim	s624	0	False
319.951	1.0	321.332	0.9	2.0	False	71.0	Orange-Blue	n/a	twobytwo	89.0	0.481	blue	4.0	task_switch	color	switch	stim	poldrack-single-stim	s624	0	False
322.854	1.0	324.394	0.9	2.136	True	89.0	Color	switch	twobytwo	89.0	0.64	orange	1.0	cue_switch	color	stay	stim	poldrack-single-stim	s624	0	False
325.893	1.0	327.316	0.9	2.0	False	89.0	High-Low	n/a	twobytwo	71.0	0.523	blue	4.0	task_switch	magnitude	switch	stim	poldrack-single-stim	s624	0	False
327.996	1.0	328.924	0.1	2.408	False	89.0	Orange-Blue	n/a	twobytwo	71.0	0.828	orange	9.0	task_switch	color	switch	stim	poldrack-single-stim	s624	0	False
331.306	1.0	332.604	0.9	2.0	True	89.0	Magnitude	n/a	twobytwo	89.0	0.398	orange	2.0	task_switch	magnitude	switch	stim	poldrack-single-stim	s624	0	False
333.409	1.0	334.122	0.1	2.0	True	89.0	Magnitude	stay	twobytwo	89.0	0.613	orange	3.0	cue_stay	magnitude	stay	stim	poldrack-single-stim	s624	0	False
336.311	1.0	337.904	0.9	2.0	False	89.0	Color	n/a	twobytwo	71.0	0.693	orange	8.0	task_switch	color	switch	stim	poldrack-single-stim	s624	0	False
338.414	1.0	339.383	0.1	2.68	True	71.0	Color	stay	twobytwo	71.0	0.869	blue	7.0	cue_stay	color	stay	stim	poldrack-single-stim	s624	0	False
341.998	1.0	344.249	0.9	2.272	True	71.0	Orange-Blue	switch	twobytwo	71.0	1.351	blue	2.0	cue_switch	color	stay	stim	poldrack-single-stim	s624	0	False
345.172	1.0	346.634	0.9	2.408	True	89.0	Magnitude	n/a	twobytwo	89.0	0.562	blue	3.0	task_switch	magnitude	switch	stim	poldrack-single-stim	s624	0	False
348.483	1.0	349.806	0.9	3.224	True	89.0	Color	n/a	twobytwo	89.0	0.423	orange	4.0	task_switch	color	switch	stim	poldrack-single-stim	s624	0	False
351.81	1.0	352.53	0.1	2.408	True	71.0	High-Low	n/a	twobytwo	71.0	0.62	orange	7.0	task_switch	magnitude	switch	stim	poldrack-single-stim	s624	0	False
355.12	1.0	356.429	0.9	2.816	True	71.0	High-Low	stay	twobytwo	71.0	0.409	blue	7.0	cue_stay	magnitude	stay	stim	poldrack-single-stim	s624	0	False
358.04	1.0	358.779	0.1	2.408	False	71.0	Color	n/a	twobytwo	89.0	0.639	blue	3.0	task_switch	color	switch	stim	poldrack-single-stim	s624	0	False
361.35	1.0	362.65	0.9	2.136	True	89.0	Color	stay	twobytwo	89.0	0.4	orange	3.0	cue_stay	color	stay	stim	poldrack-single-stim	s624	0	False
363.59	1.0	364.553	0.1	2.136	True	71.0	Magnitude	n/a	twobytwo	71.0	0.863	orange	7.0	task_switch	magnitude	switch	stim	poldrack-single-stim	s624	0	False
366.629	1.0	368.094	0.9	2.0	True	89.0	Color	n/a	twobytwo	89.0	0.565	orange	7.0	task_switch	color	switch	stim	poldrack-single-stim	s624	0	False
369.531	1.0	371.419	0.9	2.0	True	89.0	High-Low	n/a	twobytwo	89.0	0.988	blue	3.0	task_switch	magnitude	switch	stim	poldrack-single-stim	s624	0	False
372.434	1.0	374.437	0.9	2.272	False	89.0	Orange-Blue	n/a	twobytwo	71.0	1.103	orange	4.0	task_switch	color	switch	stim	poldrack-single-stim	s624	0	False
374.808	1.0	375.621	0.1	2.408	True	71.0	Orange-Blue	stay	twobytwo	71.0	0.713	blue	8.0	cue_stay	color	stay	stim	poldrack-single-stim	s624	0	False
377.319	1.0	378.391	0.1	2.0	True	89.0	Color	switch	twobytwo	89.0	0.972	orange	6.0	cue_switch	color	stay	stim	poldrack-single-stim	s624	0	False
379.422	1.0	380.473	0.1	2.136	True	89.0	High-Low	n/a	twobytwo	89.0	0.951	orange	3.0	task_switch	magnitude	switch	stim	poldrack-single-stim	s624	0	False
381.66	1.0	382.807	0.1	2.0	True	71.0	High-Low	stay	twobytwo	71.0	1.047	blue	6.0	cue_stay	magnitude	stay	stim	poldrack-single-stim	s624	0	False
383.763	1.0	384.562	0.1	2.408	True	71.0	High-Low	stay	twobytwo	71.0	0.699	blue	6.0	cue_stay	magnitude	stay	stim	poldrack-single-stim	s624	0	False
386.274	1.0	387.105	0.1	2.272	True	89.0	Color	n/a	twobytwo	89.0	0.731	orange	3.0	task_switch	color	switch	stim	poldrack-single-stim	s624	0	False
388.649	1.0	389.277	0.1	2.0	True	89.0	Color	stay	twobytwo	89.0	0.528	orange	3.0	cue_stay	color	stay	stim	poldrack-single-stim	s624	0	False
390.752	1.0	391.715	0.1	2.272	True	71.0	High-Low	n/a	twobytwo	71.0	0.863	orange	6.0	task_switch	magnitude	switch	stim	poldrack-single-stim	s624	0	False
393.926	1.0	395.424	0.9	2.0	True	71.0	Orange-Blue	n/a	twobytwo	71.0	0.598	blue	9.0	task_switch	color	switch	stim	poldrack-single-stim	s624	0	False
396.029	1.0	397.185	0.1	2.0	False	71.0	High-Low	n/a	twobytwo	89.0	1.056	orange	9.0	task_switch	magnitude	switch	stim	poldrack-single-stim	s624	0	False
398.931	1.0	400.917	0.9	2.272	True	71.0	Color	n/a	twobytwo	71.0	1.086	blue	6.0	task_switch	color	switch	stim	poldrack-single-stim	s624	0	False
402.106	1.0	403.559	0.9	2.136	False	71.0	Color	stay	twobytwo	89.0	0.553	blue	3.0	cue_stay	color	stay	stim	poldrack-single-stim	s624	0	False
404.344	1.0	404.343	0.1	2.0	False	71.0	Magnitude	n/a	twobytwo	-1.0	n/a	blue	7.0	task_switch	magnitude	switch	stim	poldrack-single-stim	s624	0	False
407.247	1.0	408.847	0.9	2.0	True	89.0	High-Low	switch	twobytwo	89.0	0.7	orange	3.0	cue_switch	magnitude	stay	stim	poldrack-single-stim	s624	0	False
410.15	1.0	411.902	0.9	2.0	True	89.0	Orange-Blue	n/a	twobytwo	89.0	0.852	orange	6.0	task_switch	color	switch	stim	poldrack-single-stim	s624	0	False
412.253	1.0	412.897	0.1	2.0	True	71.0	High-Low	n/a	twobytwo	71.0	0.544	orange	6.0	task_switch	magnitude	switch	stim	poldrack-single-stim	s624	0	False
415.155	1.0	416.516	0.9	2.0	True	71.0	Color	n/a	twobytwo	71.0	0.461	blue	9.0	task_switch	color	switch	stim	poldrack-single-stim	s624	0	False
418.059	1.0	419.569	0.9	2.136	True	89.0	Magnitude	n/a	twobytwo	89.0	0.61	orange	2.0	task_switch	magnitude	switch	stim	poldrack-single-stim	s624	0	False
420.297	1.0	421.044	0.1	2.0	True	89.0	Magnitude	stay	twobytwo	89.0	0.647	orange	4.0	cue_stay	magnitude	stay	stim	poldrack-single-stim	s624	0	False
423.2	1.0	424.693	0.9	2.0	True	71.0	Color	n/a	twobytwo	71.0	0.593	blue	4.0	task_switch	color	switch	stim	poldrack-single-stim	s624	0	False
426.102	1.0	427.468	0.9	2.136	True	71.0	Magnitude	n/a	twobytwo	71.0	0.466	blue	8.0	task_switch	magnitude	switch	stim	poldrack-single-stim	s624	0	False
428.341	1.0	429.413	0.1	2.0	True	71.0	Color	n/a	twobytwo	71.0	0.972	blue	2.0	task_switch	color	switch	stim	poldrack-single-stim	s624	0	False
430.444	1.0	431.16	0.1	2.136	True	71.0	Color	stay	twobytwo	71.0	0.616	blue	9.0	cue_stay	color	stay	stim	poldrack-single-stim	s624	0	False
433.482	1.0	435.207	0.9	2.68	False	71.0	Magnitude	n/a	twobytwo	89.0	0.825	orange	8.0	task_switch	magnitude	switch	stim	poldrack-single-stim	s624	0	False
437.065	1.0	438.386	0.9	2.272	True	89.0	Color	n/a	twobytwo	89.0	0.421	orange	7.0	task_switch	color	switch	stim	poldrack-single-stim	s624	0	False
440.24	1.0	441.713	0.9	2.136	True	71.0	Orange-Blue	switch	twobytwo	71.0	0.573	blue	3.0	cue_switch	color	stay	stim	poldrack-single-stim	s624	0	False
442.479	1.0	443.627	0.1	2.0	False	89.0	Magnitude	n/a	twobytwo	71.0	1.048	blue	4.0	task_switch	magnitude	switch	stim	poldrack-single-stim	s624	0	False
444.582	1.0	446.423	0.1	2.136	True	89.0	Orange-Blue	n/a	twobytwo	89.0	1.741	orange	9.0	task_switch	color	switch	stim	poldrack-single-stim	s624	0	False
446.82	1.0	447.769	0.1	2.68	True	71.0	High-Low	n/a	twobytwo	71.0	0.849	orange	6.0	task_switch	magnitude	switch	stim	poldrack-single-stim	s624	0	False
450.404	1.0	452.22	0.9	2.272	True	71.0	Color	n/a	twobytwo	71.0	0.916	blue	8.0	task_switch	color	switch	stim	poldrack-single-stim	s624	0	False
453.579	1.0	454.971	0.9	2.0	True	89.0	High-Low	n/a	twobytwo	89.0	0.492	orange	2.0	task_switch	magnitude	switch	stim	poldrack-single-stim	s624	0	False
469.988	1.0	471.393	0.9	2.0	True	71.0	High-Low	n/a	twobytwo	71.0	0.505	orange	7.0	task_switch	magnitude	switch	stim	poldrack-single-stim	s624	1	False
472.09	1.0	472.881	0.1	2.136	True	71.0	High-Low	stay	twobytwo	71.0	0.691	blue	6.0	cue_stay	magnitude	stay	stim	poldrack-single-stim	s624	0	False
474.329	1.0	474.995	0.1	2.0	True	89.0	Magnitude	switch	twobytwo	89.0	0.566	blue	4.0	cue_switch	magnitude	stay	stim	poldrack-single-stim	s624	0	False
477.231	1.0	478.532	0.9	2.0	True	71.0	High-Low	switch	twobytwo	71.0	0.401	blue	9.0	cue_switch	magnitude	stay	stim	poldrack-single-stim	s624	0	False
479.335	1.0	480.26	0.1	2.0	True	71.0	Magnitude	switch	twobytwo	71.0	0.825	orange	7.0	cue_switch	magnitude	stay	stim	poldrack-single-stim	s624	0	False
482.237	1.0	483.576	0.9	2.272	True	89.0	Color	n/a	twobytwo	89.0	0.439	orange	2.0	task_switch	color	switch	stim	poldrack-single-stim	s624	0	False
485.413	1.0	486.846	0.9	2.408	False	71.0	Color	stay	twobytwo	89.0	0.533	blue	1.0	cue_stay	color	stay	stim	poldrack-single-stim	s624	0	False
488.724	1.0	490.134	0.9	2.0	True	89.0	High-Low	n/a	twobytwo	89.0	0.51	orange	4.0	task_switch	magnitude	switch	stim	poldrack-single-stim	s624	0	False
491.626	1.0	493.159	0.9	2.0	True	89.0	Magnitude	switch	twobytwo	89.0	0.633	orange	3.0	cue_switch	magnitude	stay	stim	poldrack-single-stim	s624	0	False
494.529	1.0	496.35	0.9	2.0	True	89.0	High-Low	switch	twobytwo	89.0	0.921	blue	1.0	cue_switch	magnitude	stay	stim	poldrack-single-stim	s624	0	False
497.432	1.0	498.989	0.9	2.272	True	71.0	High-Low	stay	twobytwo	71.0	0.657	blue	7.0	cue_stay	magnitude	stay	stim	poldrack-single-stim	s624	0	False
499.806	1.0	501.032	0.1	2.136	True	71.0	Color	n/a	twobytwo	71.0	1.126	blue	4.0	task_switch	color	switch	stim	poldrack-single-stim	s624	0	False
502.045	1.0	502.958	0.1	2.0	True	89.0	High-Low	n/a	twobytwo	89.0	0.813	blue	1.0	task_switch	magnitude	switch	stim	poldrack-single-stim	s624	0	False
504.948	1.0	506.297	0.9	2.544	True	89.0	Magnitude	switch	twobytwo	89.0	0.449	orange	1.0	cue_switch	magnitude	stay	stim	poldrack-single-stim	s624	0	False
508.395	1.0	510.136	0.9	2.272	False	71.0	Orange-Blue	n/a	twobytwo	89.0	0.841	blue	2.0	task_switch	color	switch	stim	poldrack-single-stim	s624	0	False
510.77	1.0	511.586	0.1	2.272	True	71.0	Orange-Blue	stay	twobytwo	71.0	0.716	blue	2.0	cue_stay	color	stay	stim	poldrack-single-stim	s624	0	False
513.145	1.0	514.165	0.1	2.0	True	89.0	Magnitude	n/a	twobytwo	89.0	0.92	orange	4.0	task_switch	magnitude	switch	stim	poldrack-single-stim	s624	0	False
515.248	1.0	516.759	0.1	2.0	True	71.0	Color	n/a	twobytwo	71.0	1.411	blue	2.0	task_switch	color	switch	stim	poldrack-single-stim	s624	0	False
517.351	1.0	518.445	0.1	2.136	True	71.0	High-Low	n/a	twobytwo	71.0	0.994	blue	8.0	task_switch	magnitude	switch	stim	poldrack-single-stim	s624	0	False
519.59	1.0	520.544	0.1	2.0	True	89.0	Orange-Blue	n/a	twobytwo	89.0	0.854	orange	1.0	task_switch	color	switch	stim	poldrack-single-stim	s624	0	False
522.494	1.0	524.077	0.9	2.136	False	71.0	Orange-Blue	stay	twobytwo	89.0	0.683	blue	4.0	cue_stay	color	stay	stim	poldrack-single-stim	s624	0	False
525.533	1.0	527.076	0.9	2.272	True	71.0	Orange-Blue	stay	twobytwo	71.0	0.643	blue	3.0	cue_stay	color	stay	stim	poldrack-single-stim	s624	0	False
528.708	1.0	530.063	0.9	2.136	True	71.0	High-Low	n/a	twobytwo	71.0	0.455	blue	7.0	task_switch	magnitude	switch	stim	poldrack-single-stim	s624	0	False
531.747	1.0	533.32	0.9	2.272	True	89.0	Magnitude	switch	twobytwo	89.0	0.673	blue	3.0	cue_switch	magnitude	stay	stim	poldrack-single-stim	s624	0	False
534.122	1.0	535.897	0.1	2.0	False	89.0	Magnitude	stay	twobytwo	71.0	1.675	blue	2.0	cue_stay	magnitude	stay	stim	poldrack-single-stim	s624	0	False
537.025	1.0	538.114	0.9	2.816	True	89.0	Magnitude	stay	twobytwo	89.0	0.189	blue	4.0	cue_stay	magnitude	stay	stim	poldrack-single-stim	s624	0	False
539.944	1.0	540.95	0.1	2.408	True	71.0	Color	n/a	twobytwo	71.0	0.906	blue	3.0	task_switch	color	switch	stim	poldrack-single-stim	s624	0	False
542.455	1.0	543.372	0.1	2.0	True	71.0	High-Low	n/a	twobytwo	71.0	0.817	blue	9.0	task_switch	magnitude	switch	stim	poldrack-single-stim	s624	0	False
545.358	1.0	547.54	0.9	2.544	True	89.0	High-Low	stay	twobytwo	89.0	1.282	orange	4.0	cue_stay	magnitude	stay	stim	poldrack-single-stim	s624	0	False
548.005	1.0	548.99	0.1	2.136	True	71.0	High-Low	stay	twobytwo	71.0	0.885	orange	6.0	cue_stay	magnitude	stay	stim	poldrack-single-stim	s624	0	False
551.045	1.0	552.468	0.9	2.0	False	71.0	Orange-Blue	n/a	twobytwo	89.0	0.523	blue	4.0	task_switch	color	switch	stim	poldrack-single-stim	s624	0	False
553.948	1.0	555.282	0.9	2.0	True	89.0	Color	switch	twobytwo	89.0	0.434	orange	1.0	cue_switch	color	stay	stim	poldrack-single-stim	s624	0	False
556.851	1.0	559.364	0.9	2.136	True	89.0	Magnitude	n/a	twobytwo	89.0	1.613	blue	4.0	task_switch	magnitude	switch	stim	poldrack-single-stim	s624	0	False
559.089	1.0	560.429	0.1	2.136	True	89.0	Color	n/a	twobytwo	89.0	1.24	orange	9.0	task_switch	color	switch	stim	poldrack-single-stim	s624	0	False
562.129	1.0	563.765	0.9	2.272	True	89.0	High-Low	n/a	twobytwo	89.0	0.736	orange	2.0	task_switch	magnitude	switch	stim	poldrack-single-stim	s624	0	False
564.504	1.0	566.298	0.1	3.224	True	89.0	High-Low	stay	twobytwo	89.0	1.694	orange	3.0	cue_stay	magnitude	stay	stim	poldrack-single-stim	s624	0	False
568.63	1.0	570.567	0.9	2.0	True	89.0	Orange-Blue	n/a	twobytwo	89.0	1.037	orange	8.0	task_switch	color	switch	stim	poldrack-single-stim	s624	0	False
570.733	1.0	571.78	0.1	2.0	True	71.0	Orange-Blue	stay	twobytwo	71.0	0.947	blue	7.0	cue_stay	color	stay	stim	poldrack-single-stim	s624	0	False
573.636	1.0	575.447	0.9	2.272	True	71.0	Color	switch	twobytwo	71.0	0.911	blue	2.0	cue_switch	color	stay	stim	poldrack-single-stim	s624	0	False
576.811	1.0	578.516	0.9	2.136	False	89.0	High-Low	n/a	twobytwo	71.0	0.805	blue	3.0	task_switch	magnitude	switch	stim	poldrack-single-stim	s624	0	False
579.851	1.0	581.848	0.9	2.0	True	89.0	Color	n/a	twobytwo	89.0	1.097	orange	4.0	task_switch	color	switch	stim	poldrack-single-stim	s624	0	False
581.957	1.0	582.918	0.1	2.0	True	71.0	Magnitude	n/a	twobytwo	71.0	0.861	orange	7.0	task_switch	magnitude	switch	stim	poldrack-single-stim	s624	0	False
584.86	1.0	586.52	0.9	2.0	True	71.0	Magnitude	stay	twobytwo	71.0	0.76	blue	7.0	cue_stay	magnitude	stay	stim	poldrack-single-stim	s624	0	False
586.963	1.0	588.085	0.1	2.68	True	71.0	Orange-Blue	n/a	twobytwo	71.0	1.022	blue	3.0	task_switch	color	switch	stim	poldrack-single-stim	s624	0	False
590.545	1.0	591.967	0.9	2.0	True	89.0	Orange-Blue	stay	twobytwo	89.0	0.522	orange	3.0	cue_stay	color	stay	stim	poldrack-single-stim	s624	0	False
592.648	1.0	593.565	0.1	2.272	True	71.0	High-Low	n/a	twobytwo	71.0	0.817	orange	7.0	task_switch	magnitude	switch	stim	poldrack-single-stim	s624	0	False
595.823	1.0	598.545	0.9	2.0	True	89.0	Color	n/a	twobytwo	89.0	1.822	orange	7.0	task_switch	color	switch	stim	poldrack-single-stim	s624	0	False
598.726	1.0	600.205	0.9	2.272	True	89.0	High-Low	n/a	twobytwo	89.0	0.579	blue	3.0	task_switch	magnitude	switch	stim	poldrack-single-stim	s624	0	False
601.901	1.0	603.403	0.9	2.952	True	89.0	Orange-Blue	n/a	twobytwo	89.0	0.602	orange	4.0	task_switch	color	switch	stim	poldrack-single-stim	s624	0	False
604.956	1.0	605.867	0.1	2.0	True	71.0	Orange-Blue	stay	twobytwo	71.0	0.811	blue	8.0	cue_stay	color	stay	stim	poldrack-single-stim	s624	0	False
607.059	1.0	608.41	0.1	2.0	True	89.0	Color	switch	twobytwo	89.0	1.251	orange	6.0	cue_switch	color	stay	stim	poldrack-single-stim	s624	0	False
609.162	1.0	610.347	0.1	2.0	True	89.0	High-Low	n/a	twobytwo	89.0	1.085	orange	3.0	task_switch	magnitude	switch	stim	poldrack-single-stim	s624	0	False
611.264	1.0	612.318	0.1	2.0	True	71.0	High-Low	stay	twobytwo	71.0	0.954	blue	6.0	cue_stay	magnitude	stay	stim	poldrack-single-stim	s624	0	False
613.367	1.0	614.146	0.1	2.136	True	71.0	High-Low	stay	twobytwo	71.0	0.679	blue	6.0	cue_stay	magnitude	stay	stim	poldrack-single-stim	s624	0	False
615.606	1.0	616.598	0.1	2.0	False	89.0	Orange-Blue	n/a	twobytwo	71.0	0.892	orange	3.0	task_switch	color	switch	stim	poldrack-single-stim	s624	0	False
617.708	1.0	618.31	0.1	2.0	True	89.0	Orange-Blue	stay	twobytwo	89.0	0.502	orange	3.0	cue_stay	color	stay	stim	poldrack-single-stim	s624	0	False
619.811	1.0	620.647	0.1	2.0	False	71.0	High-Low	n/a	twobytwo	89.0	0.736	orange	6.0	task_switch	magnitude	switch	stim	poldrack-single-stim	s624	0	False
622.714	1.0	624.133	0.9	2.272	True	71.0	Color	n/a	twobytwo	71.0	0.519	blue	9.0	task_switch	color	switch	stim	poldrack-single-stim	s624	0	False
625.089	1.0	626.121	0.1	2.136	True	71.0	High-Low	n/a	twobytwo	71.0	0.932	orange	9.0	task_switch	magnitude	switch	stim	poldrack-single-stim	s624	0	False
628.128	1.0	629.778	0.9	2.0	True	71.0	Color	n/a	twobytwo	71.0	0.75	blue	6.0	task_switch	color	switch	stim	poldrack-single-stim	s624	0	False
631.031	1.0	632.525	0.9	2.136	True	71.0	Color	stay	twobytwo	71.0	0.594	blue	3.0	cue_stay	color	stay	stim	poldrack-single-stim	s624	0	False
633.27	1.0	634.147	0.1	2.816	True	71.0	Magnitude	n/a	twobytwo	71.0	0.777	blue	7.0	task_switch	magnitude	switch	stim	poldrack-single-stim	s624	0	False
636.989	1.0	638.372	0.9	2.408	True	89.0	High-Low	switch	twobytwo	89.0	0.483	orange	3.0	cue_switch	magnitude	stay	stim	poldrack-single-stim	s624	0	False
640.301	1.0	642.229	0.9	2.0	False	89.0	Orange-Blue	n/a	twobytwo	71.0	1.028	orange	6.0	task_switch	color	switch	stim	poldrack-single-stim	s624	0	False
642.403	1.0	643.303	0.1	2.136	False	71.0	Magnitude	n/a	twobytwo	89.0	0.8	orange	6.0	task_switch	magnitude	switch	stim	poldrack-single-stim	s624	0	False
645.442	1.0	646.762	0.9	2.136	True	71.0	Color	n/a	twobytwo	71.0	0.42	blue	9.0	task_switch	color	switch	stim	poldrack-single-stim	s624	0	False
648.481	1.0	650.239	0.9	2.136	True	89.0	Magnitude	n/a	twobytwo	89.0	0.858	orange	2.0	task_switch	magnitude	switch	stim	poldrack-single-stim	s624	0	False
650.72	1.0	651.547	0.1	2.544	True	89.0	Magnitude	stay	twobytwo	89.0	0.727	orange	4.0	cue_stay	magnitude	stay	stim	poldrack-single-stim	s624	0	False
654.167	1.0	655.747	0.9	2.136	False	71.0	Color	n/a	twobytwo	89.0	0.68	blue	4.0	task_switch	color	switch	stim	poldrack-single-stim	s624	0	False
657.206	1.0	658.789	0.9	2.0	True	71.0	High-Low	n/a	twobytwo	71.0	0.683	blue	8.0	task_switch	magnitude	switch	stim	poldrack-single-stim	s624	0	False
659.309	1.0	660.159	0.1	2.0	False	71.0	Color	n/a	twobytwo	89.0	0.75	blue	2.0	task_switch	color	switch	stim	poldrack-single-stim	s624	0	False
661.412	1.0	661.411	0.1	2.0	False	71.0	Color	stay	twobytwo	-1.0	n/a	blue	9.0	cue_stay	color	stay	stim	poldrack-single-stim	s624	0	False
664.315	1.0	666.011	0.9	2.0	False	71.0	Magnitude	n/a	twobytwo	89.0	0.796	orange	8.0	task_switch	magnitude	switch	stim	poldrack-single-stim	s624	0	False
667.218	1.0	668.491	0.9	2.136	True	89.0	Color	n/a	twobytwo	89.0	0.373	orange	7.0	task_switch	color	switch	stim	poldrack-single-stim	s624	0	False
670.257	1.0	671.802	0.9	2.0	False	71.0	Orange-Blue	switch	twobytwo	89.0	0.645	blue	3.0	cue_switch	color	stay	stim	poldrack-single-stim	s624	0	False
672.359	1.0	673.558	0.1	2.0	False	89.0	High-Low	n/a	twobytwo	71.0	1.099	blue	4.0	task_switch	magnitude	switch	stim	poldrack-single-stim	s624	0	False
674.462	1.0	675.588	0.1	2.0	True	89.0	Color	n/a	twobytwo	89.0	1.026	orange	9.0	task_switch	color	switch	stim	poldrack-single-stim	s624	0	False
676.565	1.0	677.688	0.1	2.136	True	71.0	Magnitude	n/a	twobytwo	71.0	1.023	orange	6.0	task_switch	magnitude	switch	stim	poldrack-single-stim	s624	0	False
679.604	1.0	681.099	0.9	2.136	True	71.0	Orange-Blue	n/a	twobytwo	71.0	0.595	blue	8.0	task_switch	color	switch	stim	poldrack-single-stim	s624	0	False
682.642	1.0	684.12	0.9	2.136	True	89.0	Magnitude	n/a	twobytwo	89.0	0.578	orange	2.0	task_switch	magnitude	switch	stim	poldrack-single-stim	s624	0	False
