duration	onset	block_duration	movement_onset	planning	condition	exp_stage	experiment_exp_id	key_press	problem_id	response_time	trial_id	trial_type	worker_id	junk
3.861	3.005	3.861	6.866	1	UA_with_intermediate	practice	ward_and_allport	71	0.0	3.861	to_hand	poldrack-single-stim	s624	False
0.1	6.868	0.218	7.086	0	UA_with_intermediate	practice	ward_and_allport	82	0.0	0.218	to_board	poldrack-single-stim	s624	False
0.1	7.088	0.305	7.393	0	UA_with_intermediate	practice	ward_and_allport	71	0.0	0.305	to_hand	poldrack-single-stim	s624	False
0.1	7.394	0.33	7.724	0	UA_with_intermediate	practice	ward_and_allport	89	0.0	0.33	to_board	poldrack-single-stim	s624	False
0.1	7.726	0.657	8.383	0	UA_with_intermediate	practice	ward_and_allport	82	0.0	0.657	to_hand	poldrack-single-stim	s624	False
0.1	8.384	0.222	8.606	0	UA_with_intermediate	practice	ward_and_allport	89	0.0	0.222	to_board	poldrack-single-stim	s624	False
1.0	8.61	2.5	8.609	0	UA_with_intermediate	practice	ward_and_allport	-1	0.0	n/a	feedback	poldrack-single-stim	s624	False
3.854	11.111	3.854	14.965	1	UA_with_intermediate	practice	ward_and_allport	89	1.0	3.854	to_hand	poldrack-single-stim	s624	False
0.1	14.967	0.224	15.191	0	UA_with_intermediate	practice	ward_and_allport	82	1.0	0.224	to_board	poldrack-single-stim	s624	False
0.1	15.194	0.305	15.499	0	UA_with_intermediate	practice	ward_and_allport	71	1.0	0.305	to_hand	poldrack-single-stim	s624	False
0.1	15.5	0.275	15.775	0	UA_with_intermediate	practice	ward_and_allport	89	1.0	0.275	to_board	poldrack-single-stim	s624	False
0.1	15.777	0.459	16.236	0	UA_with_intermediate	practice	ward_and_allport	82	1.0	0.459	to_hand	poldrack-single-stim	s624	False
0.1	16.238	0.198	16.436	0	UA_with_intermediate	practice	ward_and_allport	89	1.0	0.198	to_board	poldrack-single-stim	s624	False
1.0	16.438	2.1	16.437	0	UA_with_intermediate	practice	ward_and_allport	-1	1.0	n/a	feedback	poldrack-single-stim	s624	False
6.51	18.539	6.51	25.049	1	UA_without_intermediate	practice	ward_and_allport	71	2.0	6.51	to_hand	poldrack-single-stim	s624	False
0.1	25.05	0.255	25.305	0	UA_without_intermediate	practice	ward_and_allport	89	2.0	0.255	to_board	poldrack-single-stim	s624	False
0.1	25.306	0.871	26.177	0	UA_without_intermediate	practice	ward_and_allport	71	2.0	0.871	to_hand	poldrack-single-stim	s624	False
0.1	26.179	0.482	26.661	0	UA_without_intermediate	practice	ward_and_allport	82	2.0	0.482	to_board	poldrack-single-stim	s624	False
0.1	26.662	0.568	27.23	0	UA_without_intermediate	practice	ward_and_allport	82	2.0	0.568	to_hand	poldrack-single-stim	s624	False
0.1	27.231	0.314	27.545	0	UA_without_intermediate	practice	ward_and_allport	89	2.0	0.314	to_board	poldrack-single-stim	s624	False
0.1	27.547	0.462	28.009	0	UA_without_intermediate	practice	ward_and_allport	82	2.0	0.462	to_hand	poldrack-single-stim	s624	False
0.1	28.011	0.34	28.351	0	UA_without_intermediate	practice	ward_and_allport	71	2.0	0.34	to_board	poldrack-single-stim	s624	False
0.1	28.353	0.681	29.034	0	UA_without_intermediate	practice	ward_and_allport	89	2.0	0.681	to_hand	poldrack-single-stim	s624	False
0.1	29.034	0.909	29.943	0	UA_without_intermediate	practice	ward_and_allport	82	2.0	0.909	to_board	poldrack-single-stim	s624	False
0.1	29.945	0.336	30.281	0	UA_without_intermediate	practice	ward_and_allport	89	2.0	0.336	to_hand	poldrack-single-stim	s624	False
0.1	30.283	0.273	30.556	0	UA_without_intermediate	practice	ward_and_allport	71	2.0	0.273	to_board	poldrack-single-stim	s624	False
0.1	30.558	0.311	30.869	0	UA_without_intermediate	practice	ward_and_allport	82	2.0	0.311	to_hand	poldrack-single-stim	s624	False
0.1	30.869	0.245	31.114	0	UA_without_intermediate	practice	ward_and_allport	71	2.0	0.245	to_board	poldrack-single-stim	s624	False
0.1	31.116	1.676	32.792	0	UA_without_intermediate	practice	ward_and_allport	71	2.0	1.676	to_hand	poldrack-single-stim	s624	False
0.1	32.794	0.275	33.069	0	UA_without_intermediate	practice	ward_and_allport	82	2.0	0.275	to_board	poldrack-single-stim	s624	False
0.1	33.071	1.556	34.627	0	UA_without_intermediate	practice	ward_and_allport	71	2.0	1.556	to_hand	poldrack-single-stim	s624	False
0.1	34.628	0.447	35.075	0	UA_without_intermediate	practice	ward_and_allport	82	2.0	0.447	to_board	poldrack-single-stim	s624	False
0.1	35.077	0.878	35.955	0	UA_without_intermediate	practice	ward_and_allport	71	2.0	0.878	to_hand	poldrack-single-stim	s624	False
0.1	35.956	0.52	36.476	0	UA_without_intermediate	practice	ward_and_allport	89	2.0	0.52	to_board	poldrack-single-stim	s624	False
0.1	36.478	1.166	37.644	0	UA_without_intermediate	practice	ward_and_allport	82	2.0	1.166	to_hand	poldrack-single-stim	s624	False
0.1	37.645	0.357	38.002	0	UA_without_intermediate	practice	ward_and_allport	89	2.0	0.357	to_board	poldrack-single-stim	s624	False
0.1	38.005	0.528	38.533	0	UA_without_intermediate	practice	ward_and_allport	82	2.0	0.528	to_hand	poldrack-single-stim	s624	False
0.1	38.534	0.296	38.83	0	UA_without_intermediate	practice	ward_and_allport	89	2.0	0.296	to_board	poldrack-single-stim	s624	False
1.0	38.832	2.2	38.831	0	UA_without_intermediate	practice	ward_and_allport	-1	2.0	n/a	feedback	poldrack-single-stim	s624	False
3.936	41.034	3.936	44.97	1	UA_without_intermediate	practice	ward_and_allport	71	3.0	3.936	to_hand	poldrack-single-stim	s624	False
0.1	44.972	0.175	45.147	0	UA_without_intermediate	practice	ward_and_allport	89	3.0	0.175	to_board	poldrack-single-stim	s624	False
0.1	45.151	0.278	45.429	0	UA_without_intermediate	practice	ward_and_allport	82	3.0	0.278	to_hand	poldrack-single-stim	s624	False
0.1	45.43	0.399	45.829	0	UA_without_intermediate	practice	ward_and_allport	89	3.0	0.399	to_board	poldrack-single-stim	s624	False
0.1	45.832	0.487	46.319	0	UA_without_intermediate	practice	ward_and_allport	71	3.0	0.487	to_hand	poldrack-single-stim	s624	False
0.1	46.321	0.203	46.524	0	UA_without_intermediate	practice	ward_and_allport	89	3.0	0.203	to_board	poldrack-single-stim	s624	False
1.0	46.527	2.0	46.526	0	UA_without_intermediate	practice	ward_and_allport	-1	3.0	n/a	feedback	poldrack-single-stim	s624	False
5.123	50.53	5.123	55.653	1	PA_with_intermediate	test	ward_and_allport	89	0.0	5.123	to_hand	poldrack-single-stim	s624	False
0.1	55.654	0.206	55.86	0	PA_with_intermediate	test	ward_and_allport	82	0.0	0.206	to_board	poldrack-single-stim	s624	False
0.1	55.862	1.228	57.09	0	PA_with_intermediate	test	ward_and_allport	89	0.0	1.228	to_hand	poldrack-single-stim	s624	False
0.1	57.092	0.284	57.376	0	PA_with_intermediate	test	ward_and_allport	71	0.0	0.284	to_board	poldrack-single-stim	s624	False
0.1	57.379	0.333	57.712	0	PA_with_intermediate	test	ward_and_allport	82	0.0	0.333	to_hand	poldrack-single-stim	s624	False
0.1	57.713	0.354	58.067	0	PA_with_intermediate	test	ward_and_allport	71	0.0	0.354	to_board	poldrack-single-stim	s624	False
1.0	58.07	2.408	58.069	0	PA_with_intermediate	test	ward_and_allport	-1	0.0	n/a	feedback	poldrack-single-stim	s624	False
4.785	60.481	4.785	65.266	1	PA_without_intermediate	test	ward_and_allport	82	1.0	4.785	to_hand	poldrack-single-stim	s624	False
0.1	65.267	0.254	65.521	0	PA_without_intermediate	test	ward_and_allport	71	1.0	0.254	to_board	poldrack-single-stim	s624	False
0.1	65.524	0.465	65.989	0	PA_without_intermediate	test	ward_and_allport	82	1.0	0.465	to_hand	poldrack-single-stim	s624	False
0.1	65.99	0.209	66.199	0	PA_without_intermediate	test	ward_and_allport	89	1.0	0.209	to_board	poldrack-single-stim	s624	False
0.1	66.202	0.667	66.869	0	PA_without_intermediate	test	ward_and_allport	82	1.0	0.667	to_hand	poldrack-single-stim	s624	False
0.1	66.87	0.192	67.062	0	PA_without_intermediate	test	ward_and_allport	71	1.0	0.192	to_board	poldrack-single-stim	s624	False
1.0	67.065	2.68	67.064	0	PA_without_intermediate	test	ward_and_allport	-1	1.0	n/a	feedback	poldrack-single-stim	s624	False
6.091	69.747	6.091	75.838	1	PA_with_intermediate	test	ward_and_allport	82	2.0	6.091	to_hand	poldrack-single-stim	s624	False
0.1	75.839	0.28	76.119	0	PA_with_intermediate	test	ward_and_allport	71	2.0	0.28	to_board	poldrack-single-stim	s624	False
0.1	76.123	0.372	76.495	0	PA_with_intermediate	test	ward_and_allport	82	2.0	0.372	to_hand	poldrack-single-stim	s624	False
0.1	76.497	0.247	76.744	0	PA_with_intermediate	test	ward_and_allport	89	2.0	0.247	to_board	poldrack-single-stim	s624	False
0.1	76.746	0.295	77.041	0	PA_with_intermediate	test	ward_and_allport	71	2.0	0.295	to_hand	poldrack-single-stim	s624	False
0.1	77.043	0.227	77.27	0	PA_with_intermediate	test	ward_and_allport	89	2.0	0.227	to_board	poldrack-single-stim	s624	False
1.0	77.274	4.72	77.273	0	PA_with_intermediate	test	ward_and_allport	-1	2.0	n/a	feedback	poldrack-single-stim	s624	False
3.582	81.996	3.582	85.578	1	PA_without_intermediate	test	ward_and_allport	89	3.0	3.582	to_hand	poldrack-single-stim	s624	False
0.1	85.579	0.205	85.784	0	PA_without_intermediate	test	ward_and_allport	71	3.0	0.205	to_board	poldrack-single-stim	s624	False
0.1	85.788	0.424	86.212	0	PA_without_intermediate	test	ward_and_allport	89	3.0	0.424	to_hand	poldrack-single-stim	s624	False
0.1	86.212	0.25	86.462	0	PA_without_intermediate	test	ward_and_allport	71	3.0	0.25	to_board	poldrack-single-stim	s624	False
0.1	86.465	0.445	86.91	0	PA_without_intermediate	test	ward_and_allport	71	3.0	0.445	to_hand	poldrack-single-stim	s624	False
0.1	86.911	0.053	86.964	0	PA_without_intermediate	test	ward_and_allport	89	3.0	0.053	to_board	poldrack-single-stim	s624	False
0.1	86.967	0.783	87.75	0	PA_without_intermediate	test	ward_and_allport	89	3.0	0.783	to_hand	poldrack-single-stim	s624	False
0.1	87.752	0.16	87.912	0	PA_without_intermediate	test	ward_and_allport	71	3.0	0.16	to_board	poldrack-single-stim	s624	False
0.1	87.915	0.31	88.225	0	PA_without_intermediate	test	ward_and_allport	89	3.0	0.31	to_hand	poldrack-single-stim	s624	False
0.1	88.226	0.204	88.43	0	PA_without_intermediate	test	ward_and_allport	82	3.0	0.204	to_board	poldrack-single-stim	s624	False
1.0	88.433	3.224	88.432	0	PA_without_intermediate	test	ward_and_allport	-1	3.0	n/a	feedback	poldrack-single-stim	s624	False
4.966	91.66	4.966	96.626	1	PA_without_intermediate	test	ward_and_allport	82	4.0	4.966	to_hand	poldrack-single-stim	s624	False
0.1	96.627	0.237	96.864	0	PA_without_intermediate	test	ward_and_allport	89	4.0	0.237	to_board	poldrack-single-stim	s624	False
0.1	96.868	1.121	97.989	0	PA_without_intermediate	test	ward_and_allport	82	4.0	1.121	to_hand	poldrack-single-stim	s624	False
0.1	97.99	0.25	98.24	0	PA_without_intermediate	test	ward_and_allport	71	4.0	0.25	to_board	poldrack-single-stim	s624	False
0.1	98.243	0.365	98.608	0	PA_without_intermediate	test	ward_and_allport	82	4.0	0.365	to_hand	poldrack-single-stim	s624	False
0.1	98.609	0.26	98.869	0	PA_without_intermediate	test	ward_and_allport	89	4.0	0.26	to_board	poldrack-single-stim	s624	False
1.0	98.872	2.272	98.871	0	PA_without_intermediate	test	ward_and_allport	-1	4.0	n/a	feedback	poldrack-single-stim	s624	False
4.678	101.149	4.678	105.827	1	PA_with_intermediate	test	ward_and_allport	82	5.0	4.678	to_hand	poldrack-single-stim	s624	False
0.1	105.828	0.241	106.069	0	PA_with_intermediate	test	ward_and_allport	71	5.0	0.241	to_board	poldrack-single-stim	s624	False
0.1	106.072	0.381	106.453	0	PA_with_intermediate	test	ward_and_allport	82	5.0	0.381	to_hand	poldrack-single-stim	s624	False
0.1	106.454	0.262	106.716	0	PA_with_intermediate	test	ward_and_allport	89	5.0	0.262	to_board	poldrack-single-stim	s624	False
0.1	106.72	0.634	107.354	0	PA_with_intermediate	test	ward_and_allport	71	5.0	0.634	to_hand	poldrack-single-stim	s624	False
0.1	107.355	0.26	107.615	0	PA_with_intermediate	test	ward_and_allport	82	5.0	0.26	to_board	poldrack-single-stim	s624	False
1.0	107.619	3.632	107.618	0	PA_with_intermediate	test	ward_and_allport	-1	5.0	n/a	feedback	poldrack-single-stim	s624	False
5.162	111.254	5.162	116.416	1	PA_without_intermediate	test	ward_and_allport	89	6.0	5.162	to_hand	poldrack-single-stim	s624	False
0.1	116.418	0.204	116.622	0	PA_without_intermediate	test	ward_and_allport	82	6.0	0.204	to_board	poldrack-single-stim	s624	False
0.1	116.626	0.625	117.251	0	PA_without_intermediate	test	ward_and_allport	89	6.0	0.625	to_hand	poldrack-single-stim	s624	False
0.1	117.252	0.315	117.567	0	PA_without_intermediate	test	ward_and_allport	82	6.0	0.315	to_board	poldrack-single-stim	s624	False
0.1	117.57	0.269	117.839	0	PA_without_intermediate	test	ward_and_allport	89	6.0	0.269	to_hand	poldrack-single-stim	s624	False
0.1	117.84	0.189	118.029	0	PA_without_intermediate	test	ward_and_allport	71	6.0	0.189	to_board	poldrack-single-stim	s624	False
1.0	118.033	2.408	118.032	0	PA_without_intermediate	test	ward_and_allport	-1	6.0	n/a	feedback	poldrack-single-stim	s624	False
4.082	120.445	4.082	124.527	1	PA_without_intermediate	test	ward_and_allport	82	7.0	4.082	to_hand	poldrack-single-stim	s624	False
0.1	124.528	0.253	124.781	0	PA_without_intermediate	test	ward_and_allport	71	7.0	0.253	to_board	poldrack-single-stim	s624	False
0.1	124.784	0.238	125.022	0	PA_without_intermediate	test	ward_and_allport	82	7.0	0.238	to_hand	poldrack-single-stim	s624	False
0.1	125.023	0.205	125.228	0	PA_without_intermediate	test	ward_and_allport	71	7.0	0.205	to_board	poldrack-single-stim	s624	False
0.1	125.233	0.557	125.79	0	PA_without_intermediate	test	ward_and_allport	82	7.0	0.557	to_hand	poldrack-single-stim	s624	False
0.1	125.791	0.139	125.93	0	PA_without_intermediate	test	ward_and_allport	89	7.0	0.139	to_board	poldrack-single-stim	s624	False
1.0	125.934	2.0	125.933	0	PA_without_intermediate	test	ward_and_allport	-1	7.0	n/a	feedback	poldrack-single-stim	s624	False
3.371	127.939	3.371	131.31	1	PA_with_intermediate	test	ward_and_allport	82	8.0	3.371	to_hand	poldrack-single-stim	s624	False
0.1	131.31	0.202	131.512	0	PA_with_intermediate	test	ward_and_allport	71	8.0	0.202	to_board	poldrack-single-stim	s624	False
0.1	131.517	0.291	131.808	0	PA_with_intermediate	test	ward_and_allport	82	8.0	0.291	to_hand	poldrack-single-stim	s624	False
0.1	131.809	0.241	132.05	0	PA_with_intermediate	test	ward_and_allport	89	8.0	0.241	to_board	poldrack-single-stim	s624	False
0.1	132.054	0.499	132.553	0	PA_with_intermediate	test	ward_and_allport	71	8.0	0.499	to_hand	poldrack-single-stim	s624	False
0.1	132.555	0.239	132.794	0	PA_with_intermediate	test	ward_and_allport	82	8.0	0.239	to_board	poldrack-single-stim	s624	False
1.0	132.799	2.0	132.798	0	PA_with_intermediate	test	ward_and_allport	-1	8.0	n/a	feedback	poldrack-single-stim	s624	False
4.276	134.803	4.276	139.079	1	PA_with_intermediate	test	ward_and_allport	71	9.0	4.276	to_hand	poldrack-single-stim	s624	False
0.1	139.081	0.167	139.248	0	PA_with_intermediate	test	ward_and_allport	89	9.0	0.167	to_board	poldrack-single-stim	s624	False
0.1	139.253	0.332	139.585	0	PA_with_intermediate	test	ward_and_allport	71	9.0	0.332	to_hand	poldrack-single-stim	s624	False
0.1	139.586	0.249	139.835	0	PA_with_intermediate	test	ward_and_allport	82	9.0	0.249	to_board	poldrack-single-stim	s624	False
0.1	139.839	0.384	140.223	0	PA_with_intermediate	test	ward_and_allport	89	9.0	0.384	to_hand	poldrack-single-stim	s624	False
0.1	140.224	0.22	140.444	0	PA_with_intermediate	test	ward_and_allport	71	9.0	0.22	to_board	poldrack-single-stim	s624	False
1.0	140.449	2.0	140.448	0	PA_with_intermediate	test	ward_and_allport	-1	9.0	n/a	feedback	poldrack-single-stim	s624	False
4.23	142.453	4.23	146.683	1	PA_with_intermediate	test	ward_and_allport	82	10.0	4.23	to_hand	poldrack-single-stim	s624	False
0.1	146.685	0.225	146.91	0	PA_with_intermediate	test	ward_and_allport	89	10.0	0.225	to_board	poldrack-single-stim	s624	False
0.1	146.914	0.378	147.292	0	PA_with_intermediate	test	ward_and_allport	82	10.0	0.378	to_hand	poldrack-single-stim	s624	False
0.1	147.293	0.175	147.468	0	PA_with_intermediate	test	ward_and_allport	71	10.0	0.175	to_board	poldrack-single-stim	s624	False
0.1	147.472	0.31	147.782	0	PA_with_intermediate	test	ward_and_allport	89	10.0	0.31	to_hand	poldrack-single-stim	s624	False
0.1	147.783	0.244	148.027	0	PA_with_intermediate	test	ward_and_allport	82	10.0	0.244	to_board	poldrack-single-stim	s624	False
1.0	148.031	2.408	148.03	0	PA_with_intermediate	test	ward_and_allport	-1	10.0	n/a	feedback	poldrack-single-stim	s624	False
3.839	150.444	3.839	154.283	1	PA_without_intermediate	test	ward_and_allport	89	11.0	3.839	to_hand	poldrack-single-stim	s624	False
0.1	154.284	0.162	154.446	0	PA_without_intermediate	test	ward_and_allport	71	11.0	0.162	to_board	poldrack-single-stim	s624	False
0.1	154.451	0.25	154.701	0	PA_without_intermediate	test	ward_and_allport	89	11.0	0.25	to_hand	poldrack-single-stim	s624	False
0.1	154.702	0.245	154.947	0	PA_without_intermediate	test	ward_and_allport	71	11.0	0.245	to_board	poldrack-single-stim	s624	False
0.1	154.952	0.348	155.3	0	PA_without_intermediate	test	ward_and_allport	89	11.0	0.348	to_hand	poldrack-single-stim	s624	False
0.1	155.301	0.189	155.49	0	PA_without_intermediate	test	ward_and_allport	82	11.0	0.189	to_board	poldrack-single-stim	s624	False
1.0	155.496	2.816	155.495	0	PA_without_intermediate	test	ward_and_allport	-1	11.0	n/a	feedback	poldrack-single-stim	s624	False
3.682	158.316	3.682	161.998	1	PA_with_intermediate	test	ward_and_allport	71	12.0	3.682	to_hand	poldrack-single-stim	s624	False
0.1	162.0	0.187	162.187	0	PA_with_intermediate	test	ward_and_allport	82	12.0	0.187	to_board	poldrack-single-stim	s624	False
0.1	162.195	0.311	162.506	0	PA_with_intermediate	test	ward_and_allport	71	12.0	0.311	to_hand	poldrack-single-stim	s624	False
0.1	162.507	0.205	162.712	0	PA_with_intermediate	test	ward_and_allport	89	12.0	0.205	to_board	poldrack-single-stim	s624	False
0.1	162.716	0.254	162.97	0	PA_with_intermediate	test	ward_and_allport	82	12.0	0.254	to_hand	poldrack-single-stim	s624	False
0.1	162.971	0.208	163.179	0	PA_with_intermediate	test	ward_and_allport	71	12.0	0.208	to_board	poldrack-single-stim	s624	False
0.1	163.183	0.059	163.242	0	PA_with_intermediate	test	ward_and_allport	89	12.0	0.059	to_hand	poldrack-single-stim	s624	False
0.1	163.243	1.474	164.717	0	PA_with_intermediate	test	ward_and_allport	89	12.0	1.474	to_board	poldrack-single-stim	s624	False
0.1	164.721	0.452	165.173	0	PA_with_intermediate	test	ward_and_allport	71	12.0	0.452	to_hand	poldrack-single-stim	s624	False
0.1	165.174	0.199	165.373	0	PA_with_intermediate	test	ward_and_allport	89	12.0	0.199	to_board	poldrack-single-stim	s624	False
1.0	165.38	4.176	165.379	0	PA_with_intermediate	test	ward_and_allport	-1	12.0	n/a	feedback	poldrack-single-stim	s624	False
3.38	169.561	3.38	172.941	1	PA_with_intermediate	test	ward_and_allport	89	13.0	3.38	to_hand	poldrack-single-stim	s624	False
0.1	172.941	0.184	173.125	0	PA_with_intermediate	test	ward_and_allport	82	13.0	0.184	to_board	poldrack-single-stim	s624	False
0.1	173.13	0.202	173.332	0	PA_with_intermediate	test	ward_and_allport	89	13.0	0.202	to_hand	poldrack-single-stim	s624	False
0.1	173.333	0.181	173.514	0	PA_with_intermediate	test	ward_and_allport	71	13.0	0.181	to_board	poldrack-single-stim	s624	False
0.1	173.519	0.564	174.083	0	PA_with_intermediate	test	ward_and_allport	82	13.0	0.564	to_hand	poldrack-single-stim	s624	False
0.1	174.083	0.138	174.221	0	PA_with_intermediate	test	ward_and_allport	89	13.0	0.138	to_board	poldrack-single-stim	s624	False
1.0	174.226	3.36	174.225	0	PA_with_intermediate	test	ward_and_allport	-1	13.0	n/a	feedback	poldrack-single-stim	s624	False
4.545	177.591	4.545	182.136	1	PA_with_intermediate	test	ward_and_allport	82	14.0	4.545	to_hand	poldrack-single-stim	s624	False
0.1	182.137	0.255	182.392	0	PA_with_intermediate	test	ward_and_allport	71	14.0	0.255	to_board	poldrack-single-stim	s624	False
0.1	182.398	0.225	182.623	0	PA_with_intermediate	test	ward_and_allport	82	14.0	0.225	to_hand	poldrack-single-stim	s624	False
0.1	182.624	0.251	182.875	0	PA_with_intermediate	test	ward_and_allport	89	14.0	0.251	to_board	poldrack-single-stim	s624	False
0.1	182.88	0.258	183.138	0	PA_with_intermediate	test	ward_and_allport	71	14.0	0.258	to_hand	poldrack-single-stim	s624	False
0.1	183.139	0.209	183.348	0	PA_with_intermediate	test	ward_and_allport	89	14.0	0.209	to_board	poldrack-single-stim	s624	False
1.0	183.353	2.0	183.352	0	PA_with_intermediate	test	ward_and_allport	-1	14.0	n/a	feedback	poldrack-single-stim	s624	False
6.657	190.359	6.657	197.016	1	PA_without_intermediate	test	ward_and_allport	82	15.0	6.657	to_hand	poldrack-single-stim	s624	False
0.1	197.018	0.185	197.203	0	PA_without_intermediate	test	ward_and_allport	89	15.0	0.185	to_board	poldrack-single-stim	s624	False
0.1	197.207	0.338	197.545	0	PA_without_intermediate	test	ward_and_allport	82	15.0	0.338	to_hand	poldrack-single-stim	s624	False
0.1	197.547	0.199	197.746	0	PA_without_intermediate	test	ward_and_allport	89	15.0	0.199	to_board	poldrack-single-stim	s624	False
0.1	197.75	0.604	198.354	0	PA_without_intermediate	test	ward_and_allport	82	15.0	0.604	to_hand	poldrack-single-stim	s624	False
0.1	198.356	0.158	198.514	0	PA_without_intermediate	test	ward_and_allport	71	15.0	0.158	to_board	poldrack-single-stim	s624	False
1.0	198.52	2.408	198.519	0	PA_without_intermediate	test	ward_and_allport	-1	15.0	n/a	feedback	poldrack-single-stim	s624	False
7.712	200.933	7.712	208.645	1	PA_with_intermediate	test	ward_and_allport	71	16.0	7.712	to_hand	poldrack-single-stim	s624	False
0.1	208.646	0.147	208.793	0	PA_with_intermediate	test	ward_and_allport	89	16.0	0.147	to_board	poldrack-single-stim	s624	False
0.1	208.798	0.467	209.265	0	PA_with_intermediate	test	ward_and_allport	71	16.0	0.467	to_hand	poldrack-single-stim	s624	False
0.1	209.266	0.202	209.468	0	PA_with_intermediate	test	ward_and_allport	82	16.0	0.202	to_board	poldrack-single-stim	s624	False
0.1	209.473	0.279	209.752	0	PA_with_intermediate	test	ward_and_allport	89	16.0	0.279	to_hand	poldrack-single-stim	s624	False
0.1	209.754	0.165	209.919	0	PA_with_intermediate	test	ward_and_allport	71	16.0	0.165	to_board	poldrack-single-stim	s624	False
1.0	209.924	2.816	209.923	0	PA_with_intermediate	test	ward_and_allport	-1	16.0	n/a	feedback	poldrack-single-stim	s624	False
3.313	212.745	3.313	216.058	1	PA_without_intermediate	test	ward_and_allport	71	17.0	3.313	to_hand	poldrack-single-stim	s624	False
0.1	216.059	0.16	216.219	0	PA_without_intermediate	test	ward_and_allport	89	17.0	0.16	to_board	poldrack-single-stim	s624	False
0.1	216.225	0.293	216.518	0	PA_without_intermediate	test	ward_and_allport	71	17.0	0.293	to_hand	poldrack-single-stim	s624	False
0.1	216.519	0.19	216.709	0	PA_without_intermediate	test	ward_and_allport	82	17.0	0.19	to_board	poldrack-single-stim	s624	False
0.1	216.716	0.272	216.988	0	PA_without_intermediate	test	ward_and_allport	71	17.0	0.272	to_hand	poldrack-single-stim	s624	False
0.1	216.989	0.165	217.154	0	PA_without_intermediate	test	ward_and_allport	89	17.0	0.165	to_board	poldrack-single-stim	s624	False
1.0	217.161	3.088	217.16	0	PA_without_intermediate	test	ward_and_allport	-1	17.0	n/a	feedback	poldrack-single-stim	s624	False
3.791	220.254	3.791	224.045	1	PA_without_intermediate	test	ward_and_allport	82	18.0	3.791	to_hand	poldrack-single-stim	s624	False
0.1	224.046	0.251	224.297	0	PA_without_intermediate	test	ward_and_allport	71	18.0	0.251	to_board	poldrack-single-stim	s624	False
0.1	224.303	0.266	224.569	0	PA_without_intermediate	test	ward_and_allport	82	18.0	0.266	to_hand	poldrack-single-stim	s624	False
0.1	224.57	0.199	224.769	0	PA_without_intermediate	test	ward_and_allport	89	18.0	0.199	to_board	poldrack-single-stim	s624	False
0.1	224.775	0.257	225.032	0	PA_without_intermediate	test	ward_and_allport	82	18.0	0.257	to_hand	poldrack-single-stim	s624	False
0.1	225.033	0.206	225.239	0	PA_without_intermediate	test	ward_and_allport	71	18.0	0.206	to_board	poldrack-single-stim	s624	False
1.0	225.246	2.136	225.245	0	PA_without_intermediate	test	ward_and_allport	-1	18.0	n/a	feedback	poldrack-single-stim	s624	False
3.066	227.388	3.066	230.454	1	PA_without_intermediate	test	ward_and_allport	89	19.0	3.066	to_hand	poldrack-single-stim	s624	False
0.1	230.455	0.15	230.605	0	PA_without_intermediate	test	ward_and_allport	82	19.0	0.15	to_board	poldrack-single-stim	s624	False
0.1	230.612	0.591	231.203	0	PA_without_intermediate	test	ward_and_allport	89	19.0	0.591	to_hand	poldrack-single-stim	s624	False
0.1	231.203	0.136	231.339	0	PA_without_intermediate	test	ward_and_allport	71	19.0	0.136	to_board	poldrack-single-stim	s624	False
0.1	231.345	0.362	231.707	0	PA_without_intermediate	test	ward_and_allport	89	19.0	0.362	to_hand	poldrack-single-stim	s624	False
0.1	231.709	0.188	231.897	0	PA_without_intermediate	test	ward_and_allport	89	19.0	0.188	to_board	poldrack-single-stim	s624	False
0.1	231.906	0.154	232.06	0	PA_without_intermediate	test	ward_and_allport	82	19.0	0.154	to_hand	poldrack-single-stim	s624	False
0.1	232.061	0.979	233.04	0	PA_without_intermediate	test	ward_and_allport	82	19.0	0.979	to_board	poldrack-single-stim	s624	False
0.1	233.047	0.336	233.383	0	PA_without_intermediate	test	ward_and_allport	89	19.0	0.336	to_hand	poldrack-single-stim	s624	False
0.1	233.385	0.255	233.64	0	PA_without_intermediate	test	ward_and_allport	82	19.0	0.255	to_board	poldrack-single-stim	s624	False
1.0	233.647	7.168	233.646	0	PA_without_intermediate	test	ward_and_allport	-1	19.0	n/a	feedback	poldrack-single-stim	s624	False
3.452	240.822	3.452	244.274	1	PA_without_intermediate	test	ward_and_allport	71	20.0	3.452	to_hand	poldrack-single-stim	s624	False
0.1	244.275	0.204	244.479	0	PA_without_intermediate	test	ward_and_allport	82	20.0	0.204	to_board	poldrack-single-stim	s624	False
0.1	244.486	0.509	244.995	0	PA_without_intermediate	test	ward_and_allport	71	20.0	0.509	to_hand	poldrack-single-stim	s624	False
0.1	244.996	0.19	245.186	0	PA_without_intermediate	test	ward_and_allport	82	20.0	0.19	to_board	poldrack-single-stim	s624	False
0.1	245.193	0.411	245.604	0	PA_without_intermediate	test	ward_and_allport	71	20.0	0.411	to_hand	poldrack-single-stim	s624	False
0.1	245.605	0.396	246.001	0	PA_without_intermediate	test	ward_and_allport	89	20.0	0.396	to_board	poldrack-single-stim	s624	False
1.0	246.008	2.816	246.007	0	PA_without_intermediate	test	ward_and_allport	-1	20.0	n/a	feedback	poldrack-single-stim	s624	False
4.012	248.831	4.012	252.843	1	PA_with_intermediate	test	ward_and_allport	71	21.0	4.012	to_hand	poldrack-single-stim	s624	False
0.1	252.844	0.179	253.023	0	PA_with_intermediate	test	ward_and_allport	82	21.0	0.179	to_board	poldrack-single-stim	s624	False
0.1	253.03	0.147	253.177	0	PA_with_intermediate	test	ward_and_allport	71	21.0	0.147	to_hand	poldrack-single-stim	s624	False
0.1	253.178	0.235	253.413	0	PA_with_intermediate	test	ward_and_allport	89	21.0	0.235	to_board	poldrack-single-stim	s624	False
0.1	253.42	0.346	253.766	0	PA_with_intermediate	test	ward_and_allport	82	21.0	0.346	to_hand	poldrack-single-stim	s624	False
0.1	253.767	0.228	253.995	0	PA_with_intermediate	test	ward_and_allport	71	21.0	0.228	to_board	poldrack-single-stim	s624	False
1.0	254.003	2.952	254.002	0	PA_with_intermediate	test	ward_and_allport	-1	21.0	n/a	feedback	poldrack-single-stim	s624	False
2.832	256.962	2.832	259.794	1	PA_with_intermediate	test	ward_and_allport	71	22.0	2.832	to_hand	poldrack-single-stim	s624	False
0.1	259.794	0.215	260.009	0	PA_with_intermediate	test	ward_and_allport	82	22.0	0.215	to_board	poldrack-single-stim	s624	False
0.1	260.016	0.216	260.232	0	PA_with_intermediate	test	ward_and_allport	71	22.0	0.216	to_hand	poldrack-single-stim	s624	False
0.1	260.233	0.276	260.509	0	PA_with_intermediate	test	ward_and_allport	89	22.0	0.276	to_board	poldrack-single-stim	s624	False
0.1	260.517	0.371	260.888	0	PA_with_intermediate	test	ward_and_allport	82	22.0	0.371	to_hand	poldrack-single-stim	s624	False
0.1	260.889	0.208	261.097	0	PA_with_intermediate	test	ward_and_allport	89	22.0	0.208	to_board	poldrack-single-stim	s624	False
1.0	261.104	2.136	261.103	0	PA_with_intermediate	test	ward_and_allport	-1	22.0	n/a	feedback	poldrack-single-stim	s624	False
3.725	263.247	3.725	266.972	1	PA_without_intermediate	test	ward_and_allport	89	23.0	3.725	to_hand	poldrack-single-stim	s624	False
0.1	266.974	0.174	267.148	0	PA_without_intermediate	test	ward_and_allport	82	23.0	0.174	to_board	poldrack-single-stim	s624	False
0.1	267.155	0.187	267.342	0	PA_without_intermediate	test	ward_and_allport	89	23.0	0.187	to_hand	poldrack-single-stim	s624	False
0.1	267.342	0.164	267.506	0	PA_without_intermediate	test	ward_and_allport	71	23.0	0.164	to_board	poldrack-single-stim	s624	False
0.1	267.513	0.408	267.921	0	PA_without_intermediate	test	ward_and_allport	89	23.0	0.408	to_hand	poldrack-single-stim	s624	False
0.1	267.923	0.188	268.111	0	PA_without_intermediate	test	ward_and_allport	82	23.0	0.188	to_board	poldrack-single-stim	s624	False
1.0	268.119	2.68	268.118	0	PA_without_intermediate	test	ward_and_allport	-1	23.0	n/a	feedback	poldrack-single-stim	s624	False
2.168	270.806	2.168	272.974	1	PA_without_intermediate	test	ward_and_allport	89	24.0	2.168	to_hand	poldrack-single-stim	s624	False
0.1	272.975	0.186	273.161	0	PA_without_intermediate	test	ward_and_allport	82	24.0	0.186	to_board	poldrack-single-stim	s624	False
0.1	273.168	0.222	273.39	0	PA_without_intermediate	test	ward_and_allport	89	24.0	0.222	to_hand	poldrack-single-stim	s624	False
0.1	273.392	0.277	273.669	0	PA_without_intermediate	test	ward_and_allport	82	24.0	0.277	to_board	poldrack-single-stim	s624	False
0.1	273.678	0.395	274.073	0	PA_without_intermediate	test	ward_and_allport	89	24.0	0.395	to_hand	poldrack-single-stim	s624	False
0.1	274.075	0.196	274.271	0	PA_without_intermediate	test	ward_and_allport	71	24.0	0.196	to_board	poldrack-single-stim	s624	False
1.0	274.279	3.088	274.278	0	PA_without_intermediate	test	ward_and_allport	-1	24.0	n/a	feedback	poldrack-single-stim	s624	False
3.902	277.373	3.902	281.275	1	PA_with_intermediate	test	ward_and_allport	71	25.0	3.902	to_hand	poldrack-single-stim	s624	False
0.1	281.276	0.197	281.473	0	PA_with_intermediate	test	ward_and_allport	82	25.0	0.197	to_board	poldrack-single-stim	s624	False
0.1	281.481	0.257	281.738	0	PA_with_intermediate	test	ward_and_allport	71	25.0	0.257	to_hand	poldrack-single-stim	s624	False
0.1	281.739	0.244	281.983	0	PA_with_intermediate	test	ward_and_allport	89	25.0	0.244	to_board	poldrack-single-stim	s624	False
0.1	281.99	0.285	282.275	0	PA_with_intermediate	test	ward_and_allport	82	25.0	0.285	to_hand	poldrack-single-stim	s624	False
0.1	282.276	0.187	282.463	0	PA_with_intermediate	test	ward_and_allport	71	25.0	0.187	to_board	poldrack-single-stim	s624	False
1.0	282.472	2.0	282.471	0	PA_with_intermediate	test	ward_and_allport	-1	25.0	n/a	feedback	poldrack-single-stim	s624	False
3.261	284.481	3.261	287.742	1	PA_without_intermediate	test	ward_and_allport	82	26.0	3.261	to_hand	poldrack-single-stim	s624	False
0.1	287.742	0.156	287.898	0	PA_without_intermediate	test	ward_and_allport	71	26.0	0.156	to_board	poldrack-single-stim	s624	False
0.1	287.906	0.322	288.228	0	PA_without_intermediate	test	ward_and_allport	82	26.0	0.322	to_hand	poldrack-single-stim	s624	False
0.1	288.23	0.17	288.4	0	PA_without_intermediate	test	ward_and_allport	71	26.0	0.17	to_board	poldrack-single-stim	s624	False
0.1	288.406	0.616	289.022	0	PA_without_intermediate	test	ward_and_allport	82	26.0	0.616	to_hand	poldrack-single-stim	s624	False
0.1	289.023	0.183	289.206	0	PA_without_intermediate	test	ward_and_allport	89	26.0	0.183	to_board	poldrack-single-stim	s624	False
1.0	289.214	2.0	289.213	0	PA_without_intermediate	test	ward_and_allport	-1	26.0	n/a	feedback	poldrack-single-stim	s624	False
2.816	291.223	2.816	294.039	1	PA_without_intermediate	test	ward_and_allport	71	27.0	2.816	to_hand	poldrack-single-stim	s624	False
0.1	294.04	0.136	294.176	0	PA_without_intermediate	test	ward_and_allport	89	27.0	0.136	to_board	poldrack-single-stim	s624	False
0.1	294.183	0.298	294.481	0	PA_without_intermediate	test	ward_and_allport	71	27.0	0.298	to_hand	poldrack-single-stim	s624	False
0.1	294.482	0.145	294.627	0	PA_without_intermediate	test	ward_and_allport	89	27.0	0.145	to_board	poldrack-single-stim	s624	False
0.1	294.635	0.397	295.032	0	PA_without_intermediate	test	ward_and_allport	71	27.0	0.397	to_hand	poldrack-single-stim	s624	False
0.1	295.033	0.269	295.302	0	PA_without_intermediate	test	ward_and_allport	82	27.0	0.269	to_board	poldrack-single-stim	s624	False
1.0	295.311	2.0	295.31	0	PA_without_intermediate	test	ward_and_allport	-1	27.0	n/a	feedback	poldrack-single-stim	s624	False
4.702	297.319	4.702	302.021	1	PA_with_intermediate	test	ward_and_allport	89	28.0	4.702	to_hand	poldrack-single-stim	s624	False
0.1	302.022	0.173	302.195	0	PA_with_intermediate	test	ward_and_allport	71	28.0	0.173	to_board	poldrack-single-stim	s624	False
0.1	302.204	0.35	302.554	0	PA_with_intermediate	test	ward_and_allport	89	28.0	0.35	to_hand	poldrack-single-stim	s624	False
0.1	302.555	0.339	302.894	0	PA_with_intermediate	test	ward_and_allport	82	28.0	0.339	to_board	poldrack-single-stim	s624	False
0.1	302.904	0.529	303.433	0	PA_with_intermediate	test	ward_and_allport	71	28.0	0.529	to_hand	poldrack-single-stim	s624	False
0.1	303.435	0.215	303.65	0	PA_with_intermediate	test	ward_and_allport	89	28.0	0.215	to_board	poldrack-single-stim	s624	False
1.0	303.659	2.544	303.658	0	PA_with_intermediate	test	ward_and_allport	-1	28.0	n/a	feedback	poldrack-single-stim	s624	False
4.524	306.212	4.524	310.736	1	PA_without_intermediate	test	ward_and_allport	71	29.0	4.524	to_hand	poldrack-single-stim	s624	False
0.1	310.737	0.423	311.16	0	PA_without_intermediate	test	ward_and_allport	82	29.0	0.423	to_board	poldrack-single-stim	s624	False
0.1	311.169	0.244	311.413	0	PA_without_intermediate	test	ward_and_allport	71	29.0	0.244	to_hand	poldrack-single-stim	s624	False
0.1	311.414	0.195	311.609	0	PA_without_intermediate	test	ward_and_allport	82	29.0	0.195	to_board	poldrack-single-stim	s624	False
0.1	311.621	0.427	312.048	0	PA_without_intermediate	test	ward_and_allport	71	29.0	0.427	to_hand	poldrack-single-stim	s624	False
0.1	312.049	0.162	312.211	0	PA_without_intermediate	test	ward_and_allport	89	29.0	0.162	to_board	poldrack-single-stim	s624	False
1.0	312.22	2.272	312.219	0	PA_without_intermediate	test	ward_and_allport	-1	29.0	n/a	feedback	poldrack-single-stim	s624	False
3.386	319.5	3.386	322.886	1	PA_with_intermediate	test	ward_and_allport	71	30.0	3.386	to_hand	poldrack-single-stim	s624	False
0.1	322.887	0.13	323.017	0	PA_with_intermediate	test	ward_and_allport	89	30.0	0.13	to_board	poldrack-single-stim	s624	False
0.1	323.026	0.298	323.324	0	PA_with_intermediate	test	ward_and_allport	71	30.0	0.298	to_hand	poldrack-single-stim	s624	False
0.1	323.325	0.195	323.52	0	PA_with_intermediate	test	ward_and_allport	82	30.0	0.195	to_board	poldrack-single-stim	s624	False
0.1	323.53	0.257	323.787	0	PA_with_intermediate	test	ward_and_allport	89	30.0	0.257	to_hand	poldrack-single-stim	s624	False
0.1	323.788	0.222	324.01	0	PA_with_intermediate	test	ward_and_allport	82	30.0	0.222	to_board	poldrack-single-stim	s624	False
1.0	324.02	4.04	324.019	0	PA_with_intermediate	test	ward_and_allport	-1	30.0	n/a	feedback	poldrack-single-stim	s624	False
3.297	328.069	3.297	331.366	1	PA_with_intermediate	test	ward_and_allport	89	31.0	3.297	to_hand	poldrack-single-stim	s624	False
0.1	331.367	0.157	331.524	0	PA_with_intermediate	test	ward_and_allport	82	31.0	0.157	to_board	poldrack-single-stim	s624	False
0.1	331.531	0.306	331.837	0	PA_with_intermediate	test	ward_and_allport	89	31.0	0.306	to_hand	poldrack-single-stim	s624	False
0.1	331.838	0.185	332.023	0	PA_with_intermediate	test	ward_and_allport	71	31.0	0.185	to_board	poldrack-single-stim	s624	False
0.1	332.033	0.315	332.348	0	PA_with_intermediate	test	ward_and_allport	82	31.0	0.315	to_hand	poldrack-single-stim	s624	False
0.1	332.349	0.722	333.071	0	PA_with_intermediate	test	ward_and_allport	89	31.0	0.722	to_board	poldrack-single-stim	s624	False
1.0	333.08	2.272	333.079	0	PA_with_intermediate	test	ward_and_allport	-1	31.0	n/a	feedback	poldrack-single-stim	s624	False
6.727	335.36	6.727	342.087	1	PA_with_intermediate	test	ward_and_allport	89	32.0	6.727	to_hand	poldrack-single-stim	s624	False
0.1	342.088	0.142	342.23	0	PA_with_intermediate	test	ward_and_allport	71	32.0	0.142	to_board	poldrack-single-stim	s624	False
0.1	342.236	0.155	342.391	0	PA_with_intermediate	test	ward_and_allport	89	32.0	0.155	to_hand	poldrack-single-stim	s624	False
0.1	342.392	0.278	342.67	0	PA_with_intermediate	test	ward_and_allport	82	32.0	0.278	to_board	poldrack-single-stim	s624	False
0.1	342.679	0.254	342.933	0	PA_with_intermediate	test	ward_and_allport	89	32.0	0.254	to_hand	poldrack-single-stim	s624	False
0.1	342.934	0.652	343.586	0	PA_with_intermediate	test	ward_and_allport	89	32.0	0.652	to_board	poldrack-single-stim	s624	False
0.1	343.596	0.426	344.022	0	PA_with_intermediate	test	ward_and_allport	71	32.0	0.426	to_hand	poldrack-single-stim	s624	False
0.1	344.023	0.184	344.207	0	PA_with_intermediate	test	ward_and_allport	82	32.0	0.184	to_board	poldrack-single-stim	s624	False
1.0	344.217	2.136	344.216	0	PA_with_intermediate	test	ward_and_allport	-1	32.0	n/a	feedback	poldrack-single-stim	s624	False
3.741	346.363	3.741	350.104	1	PA_with_intermediate	test	ward_and_allport	89	33.0	3.741	to_hand	poldrack-single-stim	s624	False
0.1	350.106	0.151	350.257	0	PA_with_intermediate	test	ward_and_allport	71	33.0	0.151	to_board	poldrack-single-stim	s624	False
0.1	350.264	0.149	350.413	0	PA_with_intermediate	test	ward_and_allport	89	33.0	0.149	to_hand	poldrack-single-stim	s624	False
0.1	350.414	0.199	350.613	0	PA_with_intermediate	test	ward_and_allport	82	33.0	0.199	to_board	poldrack-single-stim	s624	False
0.1	350.624	0.37	350.994	0	PA_with_intermediate	test	ward_and_allport	71	33.0	0.37	to_hand	poldrack-single-stim	s624	False
0.1	350.995	0.129	351.124	0	PA_with_intermediate	test	ward_and_allport	89	33.0	0.129	to_board	poldrack-single-stim	s624	False
1.0	351.133	2.0	351.132	0	PA_with_intermediate	test	ward_and_allport	-1	33.0	n/a	feedback	poldrack-single-stim	s624	False
3.569	353.14	3.569	356.709	1	PA_with_intermediate	test	ward_and_allport	71	34.0	3.569	to_hand	poldrack-single-stim	s624	False
0.1	356.71	0.163	356.873	0	PA_with_intermediate	test	ward_and_allport	89	34.0	0.163	to_board	poldrack-single-stim	s624	False
0.1	356.88	0.238	357.118	0	PA_with_intermediate	test	ward_and_allport	71	34.0	0.238	to_hand	poldrack-single-stim	s624	False
0.1	357.12	0.208	357.328	0	PA_with_intermediate	test	ward_and_allport	82	34.0	0.208	to_board	poldrack-single-stim	s624	False
0.1	357.338	0.307	357.645	0	PA_with_intermediate	test	ward_and_allport	89	34.0	0.307	to_hand	poldrack-single-stim	s624	False
0.1	357.647	0.222	357.869	0	PA_with_intermediate	test	ward_and_allport	82	34.0	0.222	to_board	poldrack-single-stim	s624	False
1.0	357.879	2.0	357.878	0	PA_with_intermediate	test	ward_and_allport	-1	34.0	n/a	feedback	poldrack-single-stim	s624	False
4.065	359.893	4.065	363.958	1	PA_without_intermediate	test	ward_and_allport	71	35.0	4.065	to_hand	poldrack-single-stim	s624	False
0.1	363.959	0.204	364.163	0	PA_without_intermediate	test	ward_and_allport	82	35.0	0.204	to_board	poldrack-single-stim	s624	False
0.1	364.17	0.222	364.392	0	PA_without_intermediate	test	ward_and_allport	71	35.0	0.222	to_hand	poldrack-single-stim	s624	False
0.1	364.393	0.174	364.567	0	PA_without_intermediate	test	ward_and_allport	89	35.0	0.174	to_board	poldrack-single-stim	s624	False
0.1	364.577	0.206	364.783	0	PA_without_intermediate	test	ward_and_allport	71	35.0	0.206	to_hand	poldrack-single-stim	s624	False
0.1	364.784	0.192	364.976	0	PA_without_intermediate	test	ward_and_allport	82	35.0	0.192	to_board	poldrack-single-stim	s624	False
1.0	364.985	2.408	364.984	0	PA_without_intermediate	test	ward_and_allport	-1	35.0	n/a	feedback	poldrack-single-stim	s624	False
4.511	367.4	4.511	371.911	1	PA_with_intermediate	test	ward_and_allport	82	36.0	4.511	to_hand	poldrack-single-stim	s624	False
0.1	371.912	0.282	372.194	0	PA_with_intermediate	test	ward_and_allport	89	36.0	0.282	to_board	poldrack-single-stim	s624	False
0.1	372.202	0.625	372.827	0	PA_with_intermediate	test	ward_and_allport	82	36.0	0.625	to_hand	poldrack-single-stim	s624	False
0.1	372.827	0.333	373.16	0	PA_with_intermediate	test	ward_and_allport	71	36.0	0.333	to_board	poldrack-single-stim	s624	False
0.1	373.17	0.532	373.702	0	PA_with_intermediate	test	ward_and_allport	89	36.0	0.532	to_hand	poldrack-single-stim	s624	False
0.1	373.703	0.169	373.872	0	PA_with_intermediate	test	ward_and_allport	71	36.0	0.169	to_board	poldrack-single-stim	s624	False
1.0	373.883	3.768	373.882	0	PA_with_intermediate	test	ward_and_allport	-1	36.0	n/a	feedback	poldrack-single-stim	s624	False
3.663	377.66	3.663	381.323	1	PA_with_intermediate	test	ward_and_allport	89	37.0	3.663	to_hand	poldrack-single-stim	s624	False
0.1	381.325	0.174	381.499	0	PA_with_intermediate	test	ward_and_allport	82	37.0	0.174	to_board	poldrack-single-stim	s624	False
0.1	381.508	0.187	381.695	0	PA_with_intermediate	test	ward_and_allport	89	37.0	0.187	to_hand	poldrack-single-stim	s624	False
0.1	381.696	0.188	381.884	0	PA_with_intermediate	test	ward_and_allport	71	37.0	0.188	to_board	poldrack-single-stim	s624	False
0.1	381.894	0.289	382.183	0	PA_with_intermediate	test	ward_and_allport	82	37.0	0.289	to_hand	poldrack-single-stim	s624	False
0.1	382.184	0.163	382.347	0	PA_with_intermediate	test	ward_and_allport	71	37.0	0.163	to_board	poldrack-single-stim	s624	False
1.0	382.358	2.68	382.357	0	PA_with_intermediate	test	ward_and_allport	-1	37.0	n/a	feedback	poldrack-single-stim	s624	False
2.696	385.047	2.696	387.743	1	PA_without_intermediate	test	ward_and_allport	89	38.0	2.696	to_hand	poldrack-single-stim	s624	False
0.1	387.744	0.133	387.877	0	PA_without_intermediate	test	ward_and_allport	71	38.0	0.133	to_board	poldrack-single-stim	s624	False
0.1	387.884	0.253	388.137	0	PA_without_intermediate	test	ward_and_allport	89	38.0	0.253	to_hand	poldrack-single-stim	s624	False
0.1	388.138	0.297	388.435	0	PA_without_intermediate	test	ward_and_allport	82	38.0	0.297	to_board	poldrack-single-stim	s624	False
0.1	388.444	0.341	388.785	0	PA_without_intermediate	test	ward_and_allport	89	38.0	0.341	to_hand	poldrack-single-stim	s624	False
0.1	388.787	0.288	389.075	0	PA_without_intermediate	test	ward_and_allport	71	38.0	0.288	to_board	poldrack-single-stim	s624	False
1.0	389.084	3.224	389.083	0	PA_without_intermediate	test	ward_and_allport	-1	38.0	n/a	feedback	poldrack-single-stim	s624	False
2.57	392.316	2.57	394.886	1	PA_without_intermediate	test	ward_and_allport	71	39.0	2.57	to_hand	poldrack-single-stim	s624	False
0.1	394.887	0.136	395.023	0	PA_without_intermediate	test	ward_and_allport	89	39.0	0.136	to_board	poldrack-single-stim	s624	False
0.1	395.031	0.225	395.256	0	PA_without_intermediate	test	ward_and_allport	71	39.0	0.225	to_hand	poldrack-single-stim	s624	False
0.1	395.257	0.205	395.462	0	PA_without_intermediate	test	ward_and_allport	71	39.0	0.205	to_board	poldrack-single-stim	s624	False
0.1	395.471	0.578	396.049	0	PA_without_intermediate	test	ward_and_allport	71	39.0	0.578	to_hand	poldrack-single-stim	s624	False
0.1	396.05	0.205	396.255	0	PA_without_intermediate	test	ward_and_allport	82	39.0	0.205	to_board	poldrack-single-stim	s624	False
0.1	396.265	0.252	396.517	0	PA_without_intermediate	test	ward_and_allport	71	39.0	0.252	to_hand	poldrack-single-stim	s624	False
0.1	396.519	0.181	396.7	0	PA_without_intermediate	test	ward_and_allport	89	39.0	0.181	to_board	poldrack-single-stim	s624	False
1.0	396.709	3.36	396.708	0	PA_without_intermediate	test	ward_and_allport	-1	39.0	n/a	feedback	poldrack-single-stim	s624	False
3.301	400.076	3.301	403.377	1	PA_without_intermediate	test	ward_and_allport	71	40.0	3.301	to_hand	poldrack-single-stim	s624	False
0.1	403.378	0.242	403.62	0	PA_without_intermediate	test	ward_and_allport	82	40.0	0.242	to_board	poldrack-single-stim	s624	False
0.1	403.627	0.243	403.87	0	PA_without_intermediate	test	ward_and_allport	71	40.0	0.243	to_hand	poldrack-single-stim	s624	False
0.1	403.872	0.16	404.032	0	PA_without_intermediate	test	ward_and_allport	89	40.0	0.16	to_board	poldrack-single-stim	s624	False
0.1	404.041	0.307	404.348	0	PA_without_intermediate	test	ward_and_allport	71	40.0	0.307	to_hand	poldrack-single-stim	s624	False
0.1	404.349	0.189	404.538	0	PA_without_intermediate	test	ward_and_allport	82	40.0	0.189	to_board	poldrack-single-stim	s624	False
1.0	404.55	2.0	404.549	0	PA_without_intermediate	test	ward_and_allport	-1	40.0	n/a	feedback	poldrack-single-stim	s624	False
2.813	406.56	2.813	409.373	1	PA_without_intermediate	test	ward_and_allport	82	41.0	2.813	to_hand	poldrack-single-stim	s624	False
0.1	409.375	0.123	409.498	0	PA_without_intermediate	test	ward_and_allport	89	41.0	0.123	to_board	poldrack-single-stim	s624	False
0.1	409.51	0.677	410.187	0	PA_without_intermediate	test	ward_and_allport	82	41.0	0.677	to_hand	poldrack-single-stim	s624	False
0.1	410.188	0.156	410.344	0	PA_without_intermediate	test	ward_and_allport	89	41.0	0.156	to_board	poldrack-single-stim	s624	False
0.1	410.352	0.398	410.75	0	PA_without_intermediate	test	ward_and_allport	82	41.0	0.398	to_hand	poldrack-single-stim	s624	False
0.1	410.752	0.145	410.897	0	PA_without_intermediate	test	ward_and_allport	71	41.0	0.145	to_board	poldrack-single-stim	s624	False
1.0	410.905	2.408	410.904	0	PA_without_intermediate	test	ward_and_allport	-1	41.0	n/a	feedback	poldrack-single-stim	s624	False
3.811	413.322	3.811	417.133	1	PA_with_intermediate	test	ward_and_allport	89	42.0	3.811	to_hand	poldrack-single-stim	s624	False
0.1	417.134	0.15	417.284	0	PA_with_intermediate	test	ward_and_allport	71	42.0	0.15	to_board	poldrack-single-stim	s624	False
0.1	417.293	0.304	417.597	0	PA_with_intermediate	test	ward_and_allport	89	42.0	0.304	to_hand	poldrack-single-stim	s624	False
0.1	417.597	0.185	417.782	0	PA_with_intermediate	test	ward_and_allport	82	42.0	0.185	to_board	poldrack-single-stim	s624	False
0.1	417.793	0.304	418.097	0	PA_with_intermediate	test	ward_and_allport	71	42.0	0.304	to_hand	poldrack-single-stim	s624	False
0.1	418.098	0.203	418.301	0	PA_with_intermediate	test	ward_and_allport	82	42.0	0.203	to_board	poldrack-single-stim	s624	False
1.0	418.311	2.136	418.31	0	PA_with_intermediate	test	ward_and_allport	-1	42.0	n/a	feedback	poldrack-single-stim	s624	False
3.175	420.455	3.175	423.63	1	PA_without_intermediate	test	ward_and_allport	89	43.0	3.175	to_hand	poldrack-single-stim	s624	False
0.1	423.631	0.143	423.774	0	PA_without_intermediate	test	ward_and_allport	71	43.0	0.143	to_board	poldrack-single-stim	s624	False
0.1	423.782	0.389	424.171	0	PA_without_intermediate	test	ward_and_allport	89	43.0	0.389	to_hand	poldrack-single-stim	s624	False
0.1	424.172	0.138	424.31	0	PA_without_intermediate	test	ward_and_allport	82	43.0	0.138	to_board	poldrack-single-stim	s624	False
0.1	424.321	0.387	424.708	0	PA_without_intermediate	test	ward_and_allport	89	43.0	0.387	to_hand	poldrack-single-stim	s624	False
0.1	424.71	0.149	424.859	0	PA_without_intermediate	test	ward_and_allport	71	43.0	0.149	to_board	poldrack-single-stim	s624	False
1.0	424.869	5.128	424.868	0	PA_without_intermediate	test	ward_and_allport	-1	43.0	n/a	feedback	poldrack-single-stim	s624	False
3.198	430.006	3.198	433.204	1	PA_without_intermediate	test	ward_and_allport	71	44.0	3.198	to_hand	poldrack-single-stim	s624	False
0.1	433.206	0.128	433.334	0	PA_without_intermediate	test	ward_and_allport	89	44.0	0.128	to_board	poldrack-single-stim	s624	False
0.1	433.344	0.182	433.526	0	PA_without_intermediate	test	ward_and_allport	71	44.0	0.182	to_hand	poldrack-single-stim	s624	False
0.1	433.528	0.156	433.684	0	PA_without_intermediate	test	ward_and_allport	89	44.0	0.156	to_board	poldrack-single-stim	s624	False
0.1	433.698	0.514	434.212	0	PA_without_intermediate	test	ward_and_allport	71	44.0	0.514	to_hand	poldrack-single-stim	s624	False
0.1	434.212	0.175	434.387	0	PA_without_intermediate	test	ward_and_allport	82	44.0	0.175	to_board	poldrack-single-stim	s624	False
1.0	434.397	2.136	434.396	0	PA_without_intermediate	test	ward_and_allport	-1	44.0	n/a	feedback	poldrack-single-stim	s624	False
2.978	441.545	2.978	444.523	1	PA_without_intermediate	test	ward_and_allport	82	45.0	2.978	to_hand	poldrack-single-stim	s624	False
0.1	444.525	0.308	444.833	0	PA_without_intermediate	test	ward_and_allport	89	45.0	0.308	to_board	poldrack-single-stim	s624	False
0.1	444.845	0.696	445.541	0	PA_without_intermediate	test	ward_and_allport	82	45.0	0.696	to_hand	poldrack-single-stim	s624	False
0.1	445.542	0.21	445.752	0	PA_without_intermediate	test	ward_and_allport	71	45.0	0.21	to_board	poldrack-single-stim	s624	False
0.1	445.764	0.389	446.153	0	PA_without_intermediate	test	ward_and_allport	82	45.0	0.389	to_hand	poldrack-single-stim	s624	False
0.1	446.154	0.173	446.327	0	PA_without_intermediate	test	ward_and_allport	71	45.0	0.173	to_board	poldrack-single-stim	s624	False
0.1	446.34	0.046	446.386	0	PA_without_intermediate	test	ward_and_allport	89	45.0	0.046	to_hand	poldrack-single-stim	s624	False
0.1	446.387	0.943	447.33	0	PA_without_intermediate	test	ward_and_allport	89	45.0	0.943	to_board	poldrack-single-stim	s624	False
0.1	447.341	0.355	447.696	0	PA_without_intermediate	test	ward_and_allport	71	45.0	0.355	to_hand	poldrack-single-stim	s624	False
0.1	447.697	0.169	447.866	0	PA_without_intermediate	test	ward_and_allport	89	45.0	0.169	to_board	poldrack-single-stim	s624	False
1.0	447.878	5.264	447.877	0	PA_without_intermediate	test	ward_and_allport	-1	45.0	n/a	feedback	poldrack-single-stim	s624	False
4.099	453.152	4.099	457.251	1	PA_with_intermediate	test	ward_and_allport	82	46.0	4.099	to_hand	poldrack-single-stim	s624	False
0.1	457.252	0.146	457.398	0	PA_with_intermediate	test	ward_and_allport	89	46.0	0.146	to_board	poldrack-single-stim	s624	False
0.1	457.409	0.587	457.996	0	PA_with_intermediate	test	ward_and_allport	82	46.0	0.587	to_hand	poldrack-single-stim	s624	False
0.1	457.997	0.281	458.278	0	PA_with_intermediate	test	ward_and_allport	71	46.0	0.281	to_board	poldrack-single-stim	s624	False
0.1	458.29	0.355	458.645	0	PA_with_intermediate	test	ward_and_allport	89	46.0	0.355	to_hand	poldrack-single-stim	s624	False
0.1	458.646	0.243	458.889	0	PA_with_intermediate	test	ward_and_allport	71	46.0	0.243	to_board	poldrack-single-stim	s624	False
1.0	458.9	4.04	458.899	0	PA_with_intermediate	test	ward_and_allport	-1	46.0	n/a	feedback	poldrack-single-stim	s624	False
4.007	462.949	4.007	466.956	1	PA_with_intermediate	test	ward_and_allport	82	47.0	4.007	to_hand	poldrack-single-stim	s624	False
0.1	466.957	0.156	467.113	0	PA_with_intermediate	test	ward_and_allport	89	47.0	0.156	to_board	poldrack-single-stim	s624	False
0.1	467.123	0.57	467.693	0	PA_with_intermediate	test	ward_and_allport	82	47.0	0.57	to_hand	poldrack-single-stim	s624	False
0.1	467.694	0.177	467.871	0	PA_with_intermediate	test	ward_and_allport	71	47.0	0.177	to_board	poldrack-single-stim	s624	False
0.1	467.884	0.267	468.151	0	PA_with_intermediate	test	ward_and_allport	89	47.0	0.267	to_hand	poldrack-single-stim	s624	False
0.1	468.152	0.249	468.401	0	PA_with_intermediate	test	ward_and_allport	82	47.0	0.249	to_board	poldrack-single-stim	s624	False
1.0	468.414	2.136	468.413	0	PA_with_intermediate	test	ward_and_allport	-1	47.0	n/a	feedback	poldrack-single-stim	s624	False
