onset	duration	movement_onset	EV	action	block_duration	experiment_exp_id	gain_amount	gain_probability	key_press	loss_amount	loss_probability	num_cards	num_click_in_round	num_loss_cards	risk	response_time	total_cards	trial_id	trial_type	worker_id	junk	feedback
3.006	4.491	7.497	0.2257025900717491	draw_card	4.491	columbia_card_task_fmri	12.0	0.8333333333333334	89.0	-70.0	0.1666666666666666	6.0	1.0	1.0	-2.286933126061612	4.491	n/a	stim	poldrack-single-stim	s625	False	1
7.499	1.377	8.876	-2.507630743261584	draw_card	1.377	columbia_card_task_fmri	12.0	0.8	89.0	-70.0	0.2	6.0	2.0	1.0	-0.0505201979252873	1.377	n/a	stim	poldrack-single-stim	s625	False	1
8.878	1.371	10.249	-6.607630743261585	draw_card	1.371	columbia_card_task_fmri	12.0	0.75	89.0	-70.0	0.25	6.0	3.0	1.0	2.6523690819328536	1.371	n/a	stim	poldrack-single-stim	s625	False	1
10.25	1.709	11.959	-13.440964076594916	draw_card	1.709	columbia_card_task_fmri	12.0	0.6666666666666667	89.0	-70.0	0.3333333333333333	6.0	4.0	1.0	5.796399387810126	1.709	4.0	stim	poldrack-single-stim	s625	False	0
12.711	1.5	11.96	n/a	-1.0	2.454	columbia_card_task_fmri	n/a	n/a	-1.0	n/a	n/a	n/a	n/a	n/a	n/a	n/a	n/a	ITI	poldrack-single-stim	s625	False	0
14.417	1.708	16.125	1.059035923405083	draw_card	1.708	columbia_card_task_fmri	14.0	0.8333333333333334	89.0	-75.0	0.1666666666666666	6.0	1.0	1.0	0.3172167342641572	1.708	n/a	stim	poldrack-single-stim	s625	False	1
16.126	2.319	18.445	-1.907630743261584	draw_card	2.319	columbia_card_task_fmri	14.0	0.8	89.0	-75.0	0.2	6.0	2.0	1.0	2.7451961300398864	2.319	n/a	stim	poldrack-single-stim	s625	False	1
18.45	2.22	20.67	-6.357630743261585	draw_card	2.22	columbia_card_task_fmri	14.0	0.75	89.0	-75.0	0.25	6.0	3.0	1.0	5.679499573816713	2.22	n/a	stim	poldrack-single-stim	s625	False	1
20.672	2.351	23.023	-13.77429740992825	end_round	2.351	columbia_card_task_fmri	14.0	0.6666666666666667	71.0	-75.0	0.3333333333333333	6.0	4.0	1.0	9.09259387585815	2.351	3.0	stim	poldrack-single-stim	s625	False	1
23.775	1.5	23.024	n/a	-1.0	2.454	columbia_card_task_fmri	n/a	n/a	-1.0	n/a	n/a	n/a	n/a	n/a	n/a	n/a	n/a	ITI	poldrack-single-stim	s625	False	0
25.48	1.21	26.69	2.725702590071749	draw_card	1.21	columbia_card_task_fmri	15.0	0.8333333333333334	89.0	-70.0	0.1666666666666666	6.0	1.0	1.0	-1.1709613483305823	1.21	n/a	stim	poldrack-single-stim	s625	False	1
26.691	1.103	27.794	-0.1076307432615848	draw_card	1.103	columbia_card_task_fmri	15.0	0.8	89.0	-70.0	0.2	6.0	2.0	1.0	1.1475577488432762	1.103	n/a	stim	poldrack-single-stim	s625	False	1
27.795	1.054	28.849	-4.357630743261585	draw_card	1.054	columbia_card_task_fmri	15.0	0.75	89.0	-70.0	0.25	6.0	3.0	1.0	3.949631045059754	1.054	n/a	stim	poldrack-single-stim	s625	False	1
28.85	1.027	29.877	-11.440964076594916	draw_card	1.027	columbia_card_task_fmri	15.0	0.6666666666666667	89.0	-70.0	0.3333333333333333	6.0	4.0	1.0	7.208980936082739	1.027	n/a	stim	poldrack-single-stim	s625	False	1
29.878	0.983	30.861	-25.607630743261584	end_round	0.983	columbia_card_task_fmri	15.0	0.5	71.0	-70.0	0.5	6.0	5.0	1.0	9.637045075839405	0.983	4.0	stim	poldrack-single-stim	s625	False	1
31.613	1.5	30.862	n/a	-1.0	2.522	columbia_card_task_fmri	n/a	n/a	-1.0	n/a	n/a	n/a	n/a	n/a	n/a	n/a	n/a	ITI	poldrack-single-stim	s625	False	0
33.386	1.27	34.656	3.559035923405083	draw_card	1.27	columbia_card_task_fmri	17.0	0.8333333333333334	89.0	-75.0	0.1666666666666666	6.0	1.0	1.0	1.4334945517584643	1.27	n/a	stim	poldrack-single-stim	s625	False	1
34.658	2.917	37.575	0.4923692567384166	draw_card	2.917	columbia_card_task_fmri	17.0	0.8	89.0	-75.0	0.2	6.0	2.0	1.0	3.943559405315249	2.917	n/a	stim	poldrack-single-stim	s625	False	1
37.576	1.382	38.958	-4.107630743261585	draw_card	1.382	columbia_card_task_fmri	17.0	0.75	89.0	-75.0	0.25	6.0	3.0	1.0	6.977025284163865	1.382	3.0	stim	poldrack-single-stim	s625	False	0
39.709	1.5	38.958	n/a	-1.0	2.386	columbia_card_task_fmri	n/a	n/a	-1.0	n/a	n/a	n/a	n/a	n/a	n/a	n/a	n/a	ITI	poldrack-single-stim	s625	False	0
41.347	1.033	42.38	4.892369256738415	draw_card	1.033	columbia_card_task_fmri	24.0	0.75	89.0	-60.0	0.25	8.0	1.0	2.0	3.517196322980382	1.033	n/a	stim	poldrack-single-stim	s625	False	1
42.382	1.402	43.784	1.8923692567384152	draw_card	1.402	columbia_card_task_fmri	24.0	0.7142857142857143	89.0	-60.0	0.2857142857142857	8.0	2.0	2.0	5.089423052922477	1.402	n/a	stim	poldrack-single-stim	s625	False	1
43.786	1.936	45.722	-2.107630743261585	draw_card	1.936	columbia_card_task_fmri	24.0	0.6666666666666667	89.0	-60.0	0.3333333333333333	8.0	3.0	2.0	6.738107489731661	1.936	3.0	stim	poldrack-single-stim	s625	False	0
46.474	1.5	45.723	n/a	-1.0	2.454	columbia_card_task_fmri	n/a	n/a	-1.0	n/a	n/a	n/a	n/a	n/a	n/a	n/a	n/a	ITI	poldrack-single-stim	s625	False	0
48.179	0.39	48.569	4.892369256738415	draw_card	0.39	columbia_card_task_fmri	29.0	0.75	89.0	-75.0	0.25	8.0	1.0	2.0	12.167999392919434	0.39	n/a	stim	poldrack-single-stim	s625	False	1
48.57	1.393	49.963	1.1780835424527034	draw_card	1.393	columbia_card_task_fmri	29.0	0.7142857142857143	89.0	-75.0	0.2857142857142857	8.0	2.0	2.0	14.115441969516752	1.393	n/a	stim	poldrack-single-stim	s625	False	1
49.965	0.437	50.402	-3.77429740992825	draw_card	0.437	columbia_card_task_fmri	29.0	0.6666666666666667	89.0	-75.0	0.3333333333333333	8.0	3.0	2.0	16.157514383160738	0.437	n/a	stim	poldrack-single-stim	s625	False	1
50.403	0.844	51.247	-10.707630743261586	draw_card	0.844	columbia_card_task_fmri	29.0	0.6	89.0	-75.0	0.4	8.0	4.0	2.0	18.079453662620036	0.844	n/a	stim	poldrack-single-stim	s625	False	1
51.248	1.934	53.182	-21.107630743261584	end_round	1.934	columbia_card_task_fmri	29.0	0.5	71.0	-75.0	0.5	8.0	5.0	2.0	19.129357692527897	1.934	4.0	stim	poldrack-single-stim	s625	False	1
53.934	1.5	53.183	n/a	-1.0	2.522	columbia_card_task_fmri	n/a	n/a	-1.0	n/a	n/a	n/a	n/a	n/a	n/a	n/a	n/a	ITI	poldrack-single-stim	s625	False	0
55.707	0.456	56.163	0.6701470345161955	draw_card	0.456	columbia_card_task_fmri	17.0	0.7777777777777778	89.0	-65.0	0.2222222222222222	9.0	1.0	2.0	1.238074218978305	0.456	n/a	stim	poldrack-single-stim	s625	False	1
56.166	1.591	57.757	-1.6076307432615848	draw_card	1.591	columbia_card_task_fmri	17.0	0.75	89.0	-65.0	0.25	9.0	2.0	2.0	2.6523690819328536	1.591	n/a	stim	poldrack-single-stim	s625	False	1
57.758	0.251	58.009	-4.536202171833012	draw_card	0.251	columbia_card_task_fmri	17.0	0.7142857142857143	89.0	-65.0	0.2857142857142857	9.0	3.0	2.0	4.18706379997753	0.251	n/a	stim	poldrack-single-stim	s625	False	1
58.01	0.517	58.527	-8.440964076594915	draw_card	0.517	columbia_card_task_fmri	17.0	0.6666666666666667	89.0	-65.0	0.3333333333333333	9.0	4.0	2.0	5.796399387810126	0.517	n/a	stim	poldrack-single-stim	s625	False	1
58.529	2.206	60.735	-13.907630743261585	draw_card	2.206	columbia_card_task_fmri	17.0	0.6	89.0	-65.0	0.4	9.0	5.0	2.0	7.31111490275277	2.206	n/a	stim	poldrack-single-stim	s625	False	1
60.737	0.762	61.499	-22.107630743261584	end_round	0.762	columbia_card_task_fmri	17.0	0.5	71.0	-65.0	0.5	9.0	6.0	2.0	8.138584049506676	0.762	5.0	stim	poldrack-single-stim	s625	False	1
62.251	1.5	61.5	n/a	-1.0	2.522	columbia_card_task_fmri	n/a	n/a	-1.0	n/a	n/a	n/a	n/a	n/a	n/a	n/a	n/a	ITI	poldrack-single-stim	s625	False	0
64.025	0.512	64.537	4.992369256738415	draw_card	0.512	columbia_card_task_fmri	14.0	0.9	89.0	-95.0	0.1	10.0	1.0	1.0	-0.1503536748905602	0.512	n/a	stim	poldrack-single-stim	s625	False	1
64.539	0.879	65.418	3.7812581456273024	draw_card	0.879	columbia_card_task_fmri	14.0	0.8888888888888888	89.0	-95.0	0.1111111111111111	10.0	2.0	1.0	1.4025611966618143	0.879	n/a	stim	poldrack-single-stim	s625	False	1
65.42	0.328	65.748	2.267369256738415	draw_card	0.328	columbia_card_task_fmri	14.0	0.875	89.0	-95.0	0.125	10.0	3.0	1.0	3.1929334813406385	0.328	n/a	stim	poldrack-single-stim	s625	False	1
65.75	0.232	65.982	0.320940685309844	draw_card	0.232	columbia_card_task_fmri	14.0	0.8571428571428572	89.0	-95.0	0.1428571428571428	10.0	4.0	1.0	5.28390525643033	0.232	n/a	stim	poldrack-single-stim	s625	False	1
65.984	1.449	67.433	-2.2742974099282494	draw_card	1.449	columbia_card_task_fmri	14.0	0.8333333333333334	89.0	-95.0	0.1666666666666666	10.0	5.0	1.0	7.760891469528374	1.449	n/a	stim	poldrack-single-stim	s625	False	1
67.435	1.774	69.209	-5.907630743261584	draw_card	1.774	columbia_card_task_fmri	14.0	0.8	89.0	-95.0	0.2	10.0	6.0	1.0	10.73598369809126	1.774	6.0	stim	poldrack-single-stim	s625	False	0
69.961	1.5	69.21	n/a	-1.0	2.59	columbia_card_task_fmri	n/a	n/a	-1.0	n/a	n/a	n/a	n/a	n/a	n/a	n/a	n/a	ITI	poldrack-single-stim	s625	False	0
71.803	0.315	72.118	0.8923692567384152	draw_card	0.315	columbia_card_task_fmri	15.0	0.8	89.0	-65.0	0.2	10.0	1.0	2.0	-0.8491589471471599	0.315	n/a	stim	poldrack-single-stim	s625	False	1
72.12	0.259	72.379	-0.8854085210393616	draw_card	0.259	columbia_card_task_fmri	15.0	0.7777777777777778	89.0	-65.0	0.2222222222222222	10.0	2.0	2.0	0.4079047624469467	0.259	n/a	stim	poldrack-single-stim	s625	False	1
72.382	0.224	72.606	-3.107630743261585	draw_card	0.224	columbia_card_task_fmri	15.0	0.75	89.0	-65.0	0.25	10.0	3.0	2.0	1.7876016185034445	0.224	n/a	stim	poldrack-single-stim	s625	False	1
72.608	1.508	74.116	-5.964773600404439	draw_card	1.508	columbia_card_task_fmri	15.0	0.7142857142857143	89.0	-65.0	0.2857142857142857	10.0	4.0	2.0	3.284761864547072	1.508	n/a	stim	poldrack-single-stim	s625	False	1
74.118	1.13	75.248	-9.774297409928248	draw_card	1.13	columbia_card_task_fmri	15.0	0.6666666666666667	89.0	-65.0	0.3333333333333333	10.0	5.0	2.0	4.854746231640441	1.13	5.0	stim	poldrack-single-stim	s625	False	0
76.002	1.5	75.251	n/a	-1.0	2.454	columbia_card_task_fmri	n/a	n/a	-1.0	n/a	n/a	n/a	n/a	n/a	n/a	n/a	n/a	ITI	poldrack-single-stim	s625	False	0
77.707	0.292	77.999	2.4923692567384164	draw_card	0.292	columbia_card_task_fmri	17.0	0.8	89.0	-65.0	0.2	10.0	1.0	2.0	-0.0505201979252873	0.292	n/a	stim	poldrack-single-stim	s625	False	1
78.001	0.276	78.277	0.6701470345161955	draw_card	0.276	columbia_card_task_fmri	17.0	0.7777777777777778	89.0	-65.0	0.2222222222222222	10.0	2.0	2.0	1.238074218978305	0.276	n/a	stim	poldrack-single-stim	s625	False	1
78.279	0.27	78.549	-1.6076307432615848	draw_card	0.27	columbia_card_task_fmri	17.0	0.75	89.0	-65.0	0.25	10.0	3.0	2.0	2.6523690819328536	0.27	n/a	stim	poldrack-single-stim	s625	False	1
78.55	0.409	78.959	-4.536202171833012	draw_card	0.409	columbia_card_task_fmri	17.0	0.7142857142857143	89.0	-65.0	0.2857142857142857	10.0	4.0	2.0	4.18706379997753	0.409	4.0	stim	poldrack-single-stim	s625	False	0
79.711	1.5	78.96	n/a	-1.0	2.318	columbia_card_task_fmri	n/a	n/a	-1.0	n/a	n/a	n/a	n/a	n/a	n/a	n/a	n/a	ITI	poldrack-single-stim	s625	False	0
81.281	0.349	81.63	1.059035923405083	draw_card	0.349	columbia_card_task_fmri	13.0	0.8333333333333334	89.0	-70.0	0.1666666666666666	12.0	1.0	2.0	-1.9149590512661447	0.349	n/a	stim	poldrack-single-stim	s625	False	1
81.632	0.359	81.991	-0.1985398341706783	draw_card	0.359	columbia_card_task_fmri	13.0	0.8181818181818181	89.0	-70.0	0.1818181818181818	12.0	2.0	2.0	-0.8365285468817092	0.359	n/a	stim	poldrack-single-stim	s625	False	1
81.993	0.353	82.346	-1.7076307432615845	draw_card	0.353	columbia_card_task_fmri	13.0	0.8	89.0	-70.0	0.2	12.0	3.0	2.0	0.3488237168505108	0.353	3.0	stim	poldrack-single-stim	s625	False	0
83.099	1.5	82.348	n/a	-1.0	2.25	columbia_card_task_fmri	n/a	n/a	-1.0	n/a	n/a	n/a	n/a	n/a	n/a	n/a	n/a	ITI	poldrack-single-stim	s625	False	0
84.601	0.378	84.979	1.059035923405083	draw_card	0.378	columbia_card_task_fmri	15.0	0.8333333333333334	89.0	-80.0	0.1666666666666666	12.0	1.0	2.0	2.5498830404171717	0.378	1.0	stim	poldrack-single-stim	s625	False	0
85.732	1.5	84.981	n/a	-1.0	2.658	columbia_card_task_fmri	n/a	n/a	-1.0	n/a	n/a	n/a	n/a	n/a	n/a	n/a	n/a	ITI	poldrack-single-stim	s625	False	0
87.642	0.512	88.154	0.0923692567384162	draw_card	0.512	columbia_card_task_fmri	14.0	0.8	89.0	-65.0	0.2	15.0	1.0	3.0	-1.2484525433857456	0.512	n/a	stim	poldrack-single-stim	s625	False	1
88.157	1.835	89.992	-1.036202171833012	draw_card	1.835	columbia_card_task_fmri	14.0	0.7857142857142857	89.0	-65.0	0.2142857142857142	15.0	2.0	3.0	-0.434128367673658	1.835	2.0	stim	poldrack-single-stim	s625	False	0
90.744	1.5	89.993	n/a	-1.0	2.454	columbia_card_task_fmri	n/a	n/a	-1.0	n/a	n/a	n/a	n/a	n/a	n/a	n/a	n/a	ITI	poldrack-single-stim	s625	False	0
92.451	0.306	92.757	0.0173692567384151	draw_card	0.306	columbia_card_task_fmri	1.0	0.9375	89.0	-45.0	0.0625	16.0	1.0	1.0	-21.61057720563544	0.306	n/a	stim	poldrack-single-stim	s625	False	1
92.759	3.86	96.619	-0.1742974099282512	draw_card	3.86	columbia_card_task_fmri	1.0	0.9333333333333332	89.0	-45.0	0.0666666666666666	16.0	2.0	1.0	-21.275649610695357	3.86	n/a	stim	poldrack-single-stim	s625	False	1
96.621	0.582	97.203	-0.3933450289758704	draw_card	0.582	columbia_card_task_fmri	1.0	0.9285714285714286	89.0	-45.0	0.0714285714285714	16.0	3.0	1.0	-20.90806456487297	0.582	n/a	stim	poldrack-single-stim	s625	False	1
97.205	0.734	97.939	-0.6460922817231232	draw_card	0.734	columbia_card_task_fmri	1.0	0.9230769230769232	89.0	-45.0	0.0769230769230769	16.0	4.0	1.0	-20.502258784207346	0.734	n/a	stim	poldrack-single-stim	s625	False	1
97.942	0.868	98.81	-0.9409640765949184	draw_card	0.868	columbia_card_task_fmri	1.0	0.9166666666666666	89.0	-45.0	0.0833333333333333	16.0	5.0	1.0	-20.051272916362244	0.868	5.0	stim	poldrack-single-stim	s625	False	0
99.563	1.5	98.812	n/a	-1.0	2.386	columbia_card_task_fmri	n/a	n/a	-1.0	n/a	n/a	n/a	n/a	n/a	n/a	n/a	n/a	ITI	poldrack-single-stim	s625	False	0
101.2	0.904	102.104	0.9548692567384152	draw_card	0.904	columbia_card_task_fmri	15.0	0.8125	89.0	-70.0	0.1875	16.0	1.0	3.0	0.3254136078246716	0.904	n/a	stim	poldrack-single-stim	s625	False	1
102.107	0.575	102.682	-0.1076307432615848	draw_card	0.575	columbia_card_task_fmri	15.0	0.8	89.0	-70.0	0.2	16.0	2.0	3.0	1.1475577488432762	0.575	n/a	stim	poldrack-single-stim	s625	False	1
102.685	0.297	102.982	-1.3219164575473	draw_card	0.297	columbia_card_task_fmri	15.0	0.7857142857142857	89.0	-70.0	0.2142857142857142	16.0	3.0	3.0	2.023937263372929	0.297	3.0	stim	poldrack-single-stim	s625	False	0
103.735	1.5	102.984	n/a	-1.0	2.59	columbia_card_task_fmri	n/a	n/a	-1.0	n/a	n/a	n/a	n/a	n/a	n/a	n/a	n/a	ITI	poldrack-single-stim	s625	False	0
105.576	0.184	105.76	7.892369256738415	draw_card	0.184	columbia_card_task_fmri	30.0	0.7	89.0	-50.0	0.3	10.0	1.0	3.0	3.804349600896245	0.184	1.0	stim	poldrack-single-stim	s625	False	0
106.513	1.5	105.762	n/a	-1.0	2.318	columbia_card_task_fmri	n/a	n/a	-1.0	n/a	n/a	n/a	n/a	n/a	n/a	n/a	n/a	ITI	poldrack-single-stim	s625	False	0
108.083	1.534	109.617	7.292369256738415	draw_card	1.534	columbia_card_task_fmri	17.0	0.8666666666666667	89.0	-70.0	0.1333333333333333	15.0	1.0	2.0	-3.270269421453232	1.534	n/a	stim	poldrack-single-stim	s625	False	1
109.62	0.455	110.075	6.463797828166988	draw_card	0.455	columbia_card_task_fmri	17.0	0.8571428571428572	89.0	-70.0	0.1428571428571428	15.0	2.0	2.0	-2.4026480973048017	0.455	n/a	stim	poldrack-single-stim	s625	False	1
110.078	1.085	111.163	5.50775387212303	end_round	1.085	columbia_card_task_fmri	17.0	0.8461538461538461	71.0	-70.0	0.1538461538461538	15.0	3.0	2.0	-1.4583684905301697	1.085	2.0	stim	poldrack-single-stim	s625	False	1
111.915	1.5	111.164	n/a	-1.0	2.59	columbia_card_task_fmri	n/a	n/a	-1.0	n/a	n/a	n/a	n/a	n/a	n/a	n/a	n/a	ITI	poldrack-single-stim	s625	False	0
113.758	0.472	114.23	2.517369256738415	draw_card	0.472	columbia_card_task_fmri	7.0	0.9375	89.0	-95.0	0.0625	16.0	1.0	1.0	-8.142381862663669	0.472	n/a	stim	poldrack-single-stim	s625	False	1
114.233	1.11	115.343	2.092369256738415	draw_card	1.11	columbia_card_task_fmri	7.0	0.9333333333333332	89.0	-95.0	0.0666666666666666	16.0	2.0	1.0	-7.39151757190551	1.11	n/a	stim	poldrack-single-stim	s625	False	1
115.346	0.397	115.743	1.6066549710241296	draw_card	0.397	columbia_card_task_fmri	7.0	0.9285714285714286	89.0	-95.0	0.0714285714285714	16.0	3.0	1.0	-6.567974648603666	0.397	n/a	stim	poldrack-single-stim	s625	False	1
115.746	0.438	116.184	1.0462154105845685	draw_card	0.438	columbia_card_task_fmri	7.0	0.9230769230769232	89.0	-95.0	0.0769230769230769	16.0	4.0	1.0	-5.659392549559065	0.438	n/a	stim	poldrack-single-stim	s625	False	1
116.187	0.369	116.556	0.3923692567384151	draw_card	0.369	columbia_card_task_fmri	7.0	0.9166666666666666	89.0	-95.0	0.0833333333333333	16.0	5.0	1.0	-4.650311297895115	0.369	n/a	stim	poldrack-single-stim	s625	False	1
116.559	1.028	117.587	-0.3803580159888582	draw_card	1.028	columbia_card_task_fmri	7.0	0.9090909090909092	89.0	-95.0	0.0909090909090909	16.0	6.0	1.0	-3.52112688198547	1.028	n/a	stim	poldrack-single-stim	s625	False	1
117.59	2.638	120.228	-1.307630743261585	end_round	2.638	columbia_card_task_fmri	7.0	0.9	71.0	-95.0	0.1	16.0	7.0	1.0	-2.246605961331113	2.638	6.0	stim	poldrack-single-stim	s625	False	1
120.981	1.5	120.23	n/a	-1.0	2.386	columbia_card_task_fmri	n/a	n/a	-1.0	n/a	n/a	n/a	n/a	n/a	n/a	n/a	n/a	ITI	poldrack-single-stim	s625	False	0
122.62	4.901	127.521	4.079869256738415	draw_card	4.901	columbia_card_task_fmri	9.0	0.9375	89.0	-100.0	0.0625	16.0	1.0	1.0	-6.452589735422823	4.901	n/a	stim	poldrack-single-stim	s625	False	1
127.524	1.897	129.421	3.625702590071748	draw_card	1.897	columbia_card_task_fmri	9.0	0.9333333333333332	89.0	-100.0	0.0666666666666666	16.0	2.0	1.0	-5.649912691051501	1.897	n/a	stim	poldrack-single-stim	s625	False	1
129.424	2.509	131.933	3.1066549710241302	draw_card	2.509	columbia_card_task_fmri	9.0	0.9285714285714286	89.0	-100.0	0.0714285714285714	16.0	3.0	1.0	-4.769560441182541	2.509	n/a	stim	poldrack-single-stim	s625	False	1
131.935	2.204	134.139	2.507753872123031	draw_card	2.204	columbia_card_task_fmri	9.0	0.9230769230769232	89.0	-100.0	0.0769230769230769	16.0	4.0	1.0	-3.798323342617305	2.204	n/a	stim	poldrack-single-stim	s625	False	1
134.142	3.092	137.234	1.809035923405083	end_round	3.092	columbia_card_task_fmri	9.0	0.9166666666666666	71.0	-100.0	0.0833333333333333	16.0	5.0	1.0	-2.7196794839077576	3.092	4.0	stim	poldrack-single-stim	s625	False	1
137.987	1.5	137.236	n/a	-1.0	2.318	columbia_card_task_fmri	n/a	n/a	-1.0	n/a	n/a	n/a	n/a	n/a	n/a	n/a	n/a	ITI	poldrack-single-stim	s625	False	0
139.556	2.603	142.159	5.017369256738415	draw_card	2.603	columbia_card_task_fmri	15.0	0.875	89.0	-80.0	0.125	16.0	1.0	2.0	-1.429828909748565	2.603	n/a	stim	poldrack-single-stim	s625	False	1
142.161	0.347	142.508	4.225702590071749	draw_card	0.347	columbia_card_task_fmri	15.0	0.8666666666666667	89.0	-80.0	0.1333333333333333	16.0	2.0	2.0	-0.5558764131269385	0.347	n/a	stim	poldrack-single-stim	s625	False	1
142.512	0.365	142.877	3.320940685309845	draw_card	0.365	columbia_card_task_fmri	15.0	0.8571428571428572	89.0	-80.0	0.1428571428571428	16.0	3.0	2.0	0.3918290845546295	0.365	n/a	stim	poldrack-single-stim	s625	False	1
142.879	1.074	143.953	2.276984641353798	draw_card	1.074	columbia_card_task_fmri	15.0	0.8461538461538461	89.0	-80.0	0.1538461538461538	16.0	4.0	2.0	1.4232496618585984	1.074	n/a	stim	poldrack-single-stim	s625	False	1
143.955	1.384	145.339	1.059035923405083	end_round	1.384	columbia_card_task_fmri	15.0	0.8333333333333334	71.0	-80.0	0.1666666666666666	16.0	5.0	2.0	2.5498830404171717	1.384	4.0	stim	poldrack-single-stim	s625	False	1
146.094	1.5	145.343	n/a	-1.0	2.318	columbia_card_task_fmri	n/a	n/a	-1.0	n/a	n/a	n/a	n/a	n/a	n/a	n/a	n/a	ITI	poldrack-single-stim	s625	False	0
147.666	0.538	148.204	7.142369256738415	draw_card	0.538	columbia_card_task_fmri	16.0	0.875	89.0	-70.0	0.125	16.0	1.0	2.0	-4.400352983073468	0.538	n/a	stim	poldrack-single-stim	s625	False	1
148.207	1.627	149.834	6.425702590071748	draw_card	1.627	columbia_card_task_fmri	16.0	0.8666666666666667	89.0	-70.0	0.1333333333333333	16.0	2.0	2.0	-3.60950224168268	1.627	2.0	stim	poldrack-single-stim	s625	False	0
150.587	1.5	149.836	n/a	-1.0	2.318	columbia_card_task_fmri	n/a	n/a	-1.0	n/a	n/a	n/a	n/a	n/a	n/a	n/a	n/a	ITI	poldrack-single-stim	s625	False	0
152.158	3.318	155.476	8.454869256738416	draw_card	3.318	columbia_card_task_fmri	30.0	0.6875	89.0	-45.0	0.3125	16.0	1.0	5.0	1.9098342681131653	3.318	n/a	stim	poldrack-single-stim	s625	False	1
155.478	2.127	157.605	6.8923692567384185	draw_card	2.127	columbia_card_task_fmri	30.0	0.6666666666666667	89.0	-45.0	0.3333333333333333	16.0	2.0	5.0	2.500882498235228	2.127	2.0	stim	poldrack-single-stim	s625	False	0
158.359	1.5	157.608	n/a	-1.0	2.386	columbia_card_task_fmri	n/a	n/a	-1.0	n/a	n/a	n/a	n/a	n/a	n/a	n/a	n/a	ITI	poldrack-single-stim	s625	False	0
159.997	1.123	161.12	0.2257025900717491	draw_card	1.123	columbia_card_task_fmri	13.0	0.8333333333333334	89.0	-75.0	0.1666666666666666	6.0	1.0	1.0	-0.0548493279509116	1.123	n/a	stim	poldrack-single-stim	s625	False	1
161.123	0.537	161.66	-2.7076307432615847	draw_card	0.537	columbia_card_task_fmri	13.0	0.8	89.0	-75.0	0.2	6.0	2.0	1.0	2.345766451169375	0.537	2.0	stim	poldrack-single-stim	s625	False	0
162.413	1.5	161.662	n/a	-1.0	2.25	columbia_card_task_fmri	n/a	n/a	-1.0	n/a	n/a	n/a	n/a	n/a	n/a	n/a	n/a	ITI	poldrack-single-stim	s625	False	0
163.915	0.137	164.052	1.892369256738417	draw_card	0.137	columbia_card_task_fmri	14.0	0.8333333333333334	89.0	-70.0	0.1666666666666666	6.0	1.0	1.0	-1.542968262769211	0.137	n/a	stim	poldrack-single-stim	s625	False	1
164.054	2.788	166.842	-0.9076307432615838	draw_card	2.788	columbia_card_task_fmri	14.0	0.8	89.0	-70.0	0.2	6.0	2.0	1.0	0.7481832151997665	2.788	n/a	stim	poldrack-single-stim	s625	False	1
166.845	1.877	168.722	-5.107630743261585	draw_card	1.877	columbia_card_task_fmri	14.0	0.75	89.0	-70.0	0.25	6.0	3.0	1.0	3.517196322980382	1.877	3.0	stim	poldrack-single-stim	s625	False	0
169.475	1.5	168.724	n/a	-1.0	2.386	columbia_card_task_fmri	n/a	n/a	-1.0	n/a	n/a	n/a	n/a	n/a	n/a	n/a	n/a	ITI	poldrack-single-stim	s625	False	0
171.114	0.341	171.455	1.892369256738417	draw_card	0.341	columbia_card_task_fmri	16.0	0.8333333333333334	89.0	-80.0	0.1666666666666666	6.0	1.0	1.0	2.922035342114583	0.341	1.0	stim	poldrack-single-stim	s625	False	0
172.208	1.5	171.457	n/a	-1.0	2.59	columbia_card_task_fmri	n/a	n/a	-1.0	n/a	n/a	n/a	n/a	n/a	n/a	n/a	n/a	ITI	poldrack-single-stim	s625	False	0
174.052	0.46	174.512	4.392369256738417	draw_card	0.46	columbia_card_task_fmri	17.0	0.8333333333333334	89.0	-70.0	0.1666666666666666	6.0	1.0	1.0	-0.4269013581427572	0.46	n/a	stim	poldrack-single-stim	s625	False	1
174.515	0.488	175.003	1.4923692567384166	draw_card	0.488	columbia_card_task_fmri	17.0	0.8	89.0	-70.0	0.2	6.0	2.0	1.0	1.9463498544573736	0.488	n/a	stim	poldrack-single-stim	s625	False	1
175.006	0.638	175.644	-2.857630743261585	draw_card	0.638	columbia_card_task_fmri	17.0	0.75	89.0	-70.0	0.25	6.0	3.0	1.0	4.814540273151344	0.638	3.0	stim	poldrack-single-stim	s625	False	0
176.396	1.5	175.645	n/a	-1.0	2.658	columbia_card_task_fmri	n/a	n/a	-1.0	n/a	n/a	n/a	n/a	n/a	n/a	n/a	n/a	ITI	poldrack-single-stim	s625	False	0
178.308	0.353	178.661	4.392369256738415	draw_card	0.353	columbia_card_task_fmri	25.0	0.75	89.0	-65.0	0.25	8.0	1.0	2.0	6.111996960703841	0.353	1.0	stim	poldrack-single-stim	s625	False	0
179.414	1.5	178.663	n/a	-1.0	2.386	columbia_card_task_fmri	n/a	n/a	-1.0	n/a	n/a	n/a	n/a	n/a	n/a	n/a	n/a	ITI	poldrack-single-stim	s625	False	0
181.053	0.338	181.391	4.392369256738415	draw_card	0.338	columbia_card_task_fmri	30.0	0.75	89.0	-80.0	0.25	8.0	1.0	2.0	14.763909584481816	0.338	n/a	stim	poldrack-single-stim	s625	False	1
181.395	0.53	181.925	0.4637978281669916	draw_card	0.53	columbia_card_task_fmri	30.0	0.7142857142857143	89.0	-80.0	0.2857142857142857	8.0	2.0	2.0	16.82388930576932	0.53	n/a	stim	poldrack-single-stim	s625	False	1
181.929	0.579	182.508	-4.774297409928246	end_round	0.579	columbia_card_task_fmri	30.0	0.6666666666666667	71.0	-80.0	0.3333333333333333	8.0	3.0	2.0	18.98395150253262	0.579	2.0	stim	poldrack-single-stim	s625	False	1
183.261	1.5	182.51	n/a	-1.0	2.386	columbia_card_task_fmri	n/a	n/a	-1.0	n/a	n/a	n/a	n/a	n/a	n/a	n/a	n/a	ITI	poldrack-single-stim	s625	False	0
184.901	0.35	185.251	4.092369256738416	draw_card	0.35	columbia_card_task_fmri	13.0	0.9	89.0	-95.0	0.1	10.0	1.0	1.0	-0.4498479538852464	0.35	n/a	stim	poldrack-single-stim	s625	False	1
185.253	0.461	185.714	2.892369256738415	draw_card	0.461	columbia_card_task_fmri	13.0	0.8888888888888888	89.0	-95.0	0.1111111111111111	10.0	2.0	1.0	1.088774382756725	0.461	n/a	stim	poldrack-single-stim	s625	False	1
185.717	0.398	186.115	1.3923692567384152	draw_card	0.398	columbia_card_task_fmri	13.0	0.875	89.0	-95.0	0.125	10.0	3.0	1.0	2.862673519909833	0.398	3.0	stim	poldrack-single-stim	s625	False	0
186.869	1.5	186.118	n/a	-1.0	2.25	columbia_card_task_fmri	n/a	n/a	-1.0	n/a	n/a	n/a	n/a	n/a	n/a	n/a	n/a	ITI	poldrack-single-stim	s625	False	0
188.372	0.43	188.802	5.492369256738415	draw_card	0.43	columbia_card_task_fmri	14.0	0.9	89.0	-90.0	0.1	10.0	1.0	1.0	-1.647728075891585	0.43	n/a	stim	poldrack-single-stim	s625	False	1
188.806	0.423	189.229	4.336813701182858	draw_card	0.423	columbia_card_task_fmri	14.0	0.8888888888888888	89.0	-90.0	0.1111111111111111	10.0	2.0	1.0	-0.1662802402394447	0.423	n/a	stim	poldrack-single-stim	s625	False	1
189.232	0.491	189.723	2.892369256738415	draw_card	0.491	columbia_card_task_fmri	14.0	0.875	89.0	-90.0	0.125	10.0	3.0	1.0	1.5417217399539211	0.491	n/a	stim	poldrack-single-stim	s625	False	1
189.727	0.791	190.518	1.0352263995955593	end_round	0.791	columbia_card_task_fmri	14.0	0.8571428571428572	71.0	-90.0	0.1428571428571428	10.0	4.0	1.0	3.5365222757459094	0.791	3.0	stim	poldrack-single-stim	s625	False	1
191.271	1.5	190.52	n/a	-1.0	2.318	columbia_card_task_fmri	n/a	n/a	-1.0	n/a	n/a	n/a	n/a	n/a	n/a	n/a	n/a	ITI	poldrack-single-stim	s625	False	0
192.841	0.47	193.311	0.6923692567384159	draw_card	0.47	columbia_card_task_fmri	16.0	0.8	89.0	-70.0	0.2	10.0	1.0	2.0	1.54694679490472	0.47	n/a	stim	poldrack-single-stim	s625	False	1
193.314	0.41	193.724	-1.2187418543726956	draw_card	0.41	columbia_card_task_fmri	16.0	0.7777777777777778	89.0	-70.0	0.2222222222222222	10.0	2.0	2.0	2.898595518732371	0.41	n/a	stim	poldrack-single-stim	s625	False	1
193.728	1.033	194.761	-3.607630743261585	end_round	1.033	columbia_card_task_fmri	16.0	0.75	71.0	-70.0	0.25	10.0	3.0	2.0	4.3820791822518	1.033	2.0	stim	poldrack-single-stim	s625	False	1
195.515	1.5	194.764	n/a	-1.0	2.25	columbia_card_task_fmri	n/a	n/a	-1.0	n/a	n/a	n/a	n/a	n/a	n/a	n/a	n/a	ITI	poldrack-single-stim	s625	False	0
197.018	0.402	197.42	-0.0242974099282509	draw_card	0.402	columbia_card_task_fmri	7.0	0.9166666666666666	89.0	-100.0	0.0833333333333333	12.0	1.0	1.0	-3.271342691295331	0.402	n/a	stim	poldrack-single-stim	s625	False	1
197.422	0.313	197.735	-0.8349034705343132	draw_card	0.313	columbia_card_task_fmri	7.0	0.9090909090909092	89.0	-100.0	0.0909090909090909	12.0	2.0	1.0	-2.086572856643801	0.313	n/a	stim	poldrack-single-stim	s625	False	1
197.738	0.259	197.997	-1.807630743261585	draw_card	0.259	columbia_card_task_fmri	7.0	0.9	89.0	-100.0	0.1	12.0	3.0	1.0	-0.7493328044862864	0.259	n/a	stim	poldrack-single-stim	s625	False	1
198.001	0.752	198.753	-2.9965196321504743	end_round	0.752	columbia_card_task_fmri	7.0	0.8888888888888888	71.0	-100.0	0.1111111111111111	12.0	4.0	1.0	0.7749965732165762	0.752	3.0	stim	poldrack-single-stim	s625	False	1
199.506	1.5	198.755	n/a	-1.0	2.25	columbia_card_task_fmri	n/a	n/a	-1.0	n/a	n/a	n/a	n/a	n/a	n/a	n/a	n/a	ITI	poldrack-single-stim	s625	False	0
201.01	0.535	201.545	0.2257025900717508	draw_card	0.535	columbia_card_task_fmri	14.0	0.8333333333333334	89.0	-80.0	0.1666666666666666	12.0	1.0	2.0	2.177741899551414	0.535	n/a	stim	poldrack-single-stim	s625	False	1
201.548	0.282	201.83	-1.1985398341706783	draw_card	0.282	columbia_card_task_fmri	14.0	0.8181818181818181	89.0	-80.0	0.1818181818181818	12.0	2.0	2.0	3.399582094860726	0.282	n/a	stim	poldrack-single-stim	s625	False	1
201.833	0.211	202.044	-2.907630743261584	draw_card	0.211	columbia_card_task_fmri	14.0	0.8	89.0	-80.0	0.2	12.0	3.0	2.0	4.742526182527591	0.211	n/a	stim	poldrack-single-stim	s625	False	1
202.047	1.298	203.345	-4.996519632150474	draw_card	1.298	columbia_card_task_fmri	14.0	0.7777777777777778	89.0	-80.0	0.2222222222222222	12.0	4.0	2.0	6.220259289549681	1.298	4.0	stim	poldrack-single-stim	s625	False	0
204.098	1.5	203.347	n/a	-1.0	2.386	columbia_card_task_fmri	n/a	n/a	-1.0	n/a	n/a	n/a	n/a	n/a	n/a	n/a	n/a	ITI	poldrack-single-stim	s625	False	0
205.739	0.38	206.119	1.8923692567384152	draw_card	0.38	columbia_card_task_fmri	15.0	0.8333333333333334	89.0	-75.0	0.1666666666666666	12.0	1.0	2.0	0.6892963622778012	0.38	n/a	stim	poldrack-single-stim	s625	False	1
206.122	0.238	206.36	0.5287328931020501	draw_card	0.238	columbia_card_task_fmri	15.0	0.8181818181818181	89.0	-75.0	0.1818181818181818	12.0	2.0	2.0	1.8589939532234183	0.238	2.0	stim	poldrack-single-stim	s625	False	0
207.114	1.5	206.363	n/a	-1.0	2.386	columbia_card_task_fmri	n/a	n/a	-1.0	n/a	n/a	n/a	n/a	n/a	n/a	n/a	n/a	ITI	poldrack-single-stim	s625	False	0
208.754	0.286	209.04	0.8923692567384152	draw_card	0.286	columbia_card_task_fmri	15.0	0.8	89.0	-65.0	0.2	15.0	1.0	3.0	-0.8491589471471599	0.286	1.0	stim	poldrack-single-stim	s625	False	0
209.794	1.5	209.043	n/a	-1.0	2.726	columbia_card_task_fmri	n/a	n/a	-1.0	n/a	n/a	n/a	n/a	n/a	n/a	n/a	n/a	ITI	poldrack-single-stim	s625	False	0
211.774	1.298	213.072	0.1423692567384151	draw_card	1.298	columbia_card_task_fmri	14.0	0.8125	89.0	-70.0	0.1875	16.0	1.0	3.0	-0.0642578520403347	1.298	n/a	stim	poldrack-single-stim	s625	False	1
213.076	0.332	213.408	-0.9076307432615838	draw_card	0.332	columbia_card_task_fmri	14.0	0.8	89.0	-70.0	0.2	16.0	2.0	3.0	0.7481832151997665	0.332	n/a	stim	poldrack-single-stim	s625	False	1
213.411	0.339	213.75	-2.107630743261585	draw_card	0.339	columbia_card_task_fmri	14.0	0.7857142857142857	89.0	-70.0	0.2142857142857142	16.0	3.0	3.0	1.6142211575129082	0.339	n/a	stim	poldrack-single-stim	s625	False	1
213.754	1.657	215.411	-3.49224612787697	draw_card	1.657	columbia_card_task_fmri	14.0	0.7692307692307692	89.0	-70.0	0.2307692307692307	16.0	4.0	3.0	2.5367958005233437	1.657	n/a	stim	poldrack-single-stim	s625	False	1
215.413	1.34	216.753	-5.107630743261585	draw_card	1.34	columbia_card_task_fmri	14.0	0.75	89.0	-70.0	0.25	16.0	5.0	3.0	3.517196322980382	1.34	n/a	stim	poldrack-single-stim	s625	False	1
216.756	1.154	217.91	-7.016721652352493	draw_card	1.154	columbia_card_task_fmri	14.0	0.7272727272727273	89.0	-70.0	0.2727272727272727	16.0	6.0	3.0	4.553155881741581	1.154	n/a	stim	poldrack-single-stim	s625	False	1
217.915	1.725	219.64	-9.307630743261583	end_round	1.725	columbia_card_task_fmri	14.0	0.7	71.0	-70.0	0.3	16.0	7.0	3.0	5.635058550394618	1.725	6.0	stim	poldrack-single-stim	s625	False	1
220.394	1.5	219.643	n/a	-1.0	2.454	columbia_card_task_fmri	n/a	n/a	-1.0	n/a	n/a	n/a	n/a	n/a	n/a	n/a	n/a	ITI	poldrack-single-stim	s625	False	0
222.102	0.392	222.494	0.0798692567384151	draw_card	0.392	columbia_card_task_fmri	11.0	0.6875	89.0	-30.0	0.3125	16.0	1.0	5.0	-13.807069403196806	0.392	n/a	stim	poldrack-single-stim	s625	False	1
222.498	1.002	223.5	-0.7742974099282509	draw_card	1.002	columbia_card_task_fmri	11.0	0.6666666666666667	89.0	-30.0	0.3333333333333333	16.0	2.0	5.0	-13.48505861127666	1.002	n/a	stim	poldrack-single-stim	s625	False	1
223.503	0.527	224.03	-1.750487886118729	draw_card	0.527	columbia_card_task_fmri	11.0	0.6428571428571428	89.0	-30.0	0.3571428571428571	16.0	3.0	5.0	-13.168678029699016	0.527	n/a	stim	poldrack-single-stim	s625	False	1
224.034	1.246	225.28	-2.8768615124923533	end_round	1.246	columbia_card_task_fmri	11.0	0.6153846153846154	71.0	-30.0	0.3846153846153846	16.0	4.0	5.0	-12.868824932136352	1.246	3.0	stim	poldrack-single-stim	s625	False	1
226.034	1.5	225.283	n/a	-1.0	2.318	columbia_card_task_fmri	n/a	n/a	-1.0	n/a	n/a	n/a	n/a	n/a	n/a	n/a	n/a	ITI	poldrack-single-stim	s625	False	0
227.605	0.355	227.96	4.892369256738415	draw_card	0.355	columbia_card_task_fmri	15.0	0.8666666666666667	89.0	-75.0	0.1333333333333333	15.0	1.0	2.0	-2.252477660326516	0.355	n/a	stim	poldrack-single-stim	s625	False	1
227.964	0.581	228.545	4.035226399595559	draw_card	0.581	columbia_card_task_fmri	15.0	0.8571428571428572	89.0	-75.0	0.1428571428571428	15.0	2.0	2.0	-1.3548217877620417	0.581	n/a	stim	poldrack-single-stim	s625	False	1
228.548	0.384	228.932	3.046215410584568	draw_card	0.384	columbia_card_task_fmri	15.0	0.8461538461538461	89.0	-75.0	0.1538461538461538	15.0	3.0	2.0	-0.3778612553115223	0.384	n/a	stim	poldrack-single-stim	s625	False	1
228.936	1.858	230.794	1.8923692567384152	draw_card	1.858	columbia_card_task_fmri	15.0	0.8333333333333334	89.0	-75.0	0.1666666666666666	15.0	4.0	2.0	0.6892963622778012	1.858	n/a	stim	poldrack-single-stim	s625	False	1
230.798	0.707	231.505	0.5287328931020501	end_round	0.707	columbia_card_task_fmri	15.0	0.8181818181818181	71.0	-75.0	0.1818181818181818	15.0	5.0	2.0	1.8589939532234183	0.707	4.0	stim	poldrack-single-stim	s625	False	1
232.258	1.5	231.507	n/a	-1.0	2.318	columbia_card_task_fmri	n/a	n/a	-1.0	n/a	n/a	n/a	n/a	n/a	n/a	n/a	n/a	ITI	poldrack-single-stim	s625	False	0
233.83	0.944	234.774	6.625702590071749	draw_card	0.944	columbia_card_task_fmri	17.0	0.8666666666666667	89.0	-75.0	0.1333333333333333	15.0	1.0	2.0	-1.5738771206995956	0.944	n/a	stim	poldrack-single-stim	s625	False	1
234.778	1.448	236.226	5.749512113881274	draw_card	1.448	columbia_card_task_fmri	17.0	0.8571428571428572	89.0	-75.0	0.1428571428571428	15.0	2.0	2.0	-0.6562002689055646	1.448	n/a	stim	poldrack-single-stim	s625	False	1
236.23	1.673	237.903	4.738523102892262	draw_card	1.673	columbia_card_task_fmri	17.0	0.8461538461538461	89.0	-75.0	0.1538461538461538	15.0	3.0	2.0	0.3425454402962842	1.673	n/a	stim	poldrack-single-stim	s625	False	1
237.908	3.79	241.698	3.559035923405083	draw_card	3.79	columbia_card_task_fmri	17.0	0.8333333333333334	89.0	-75.0	0.1666666666666666	15.0	4.0	2.0	1.4334945517584643	3.79	n/a	stim	poldrack-single-stim	s625	False	1
241.702	0.487	242.189	2.1650965294656865	end_round	0.487	columbia_card_task_fmri	17.0	0.8181818181818181	71.0	-75.0	0.1818181818181818	15.0	5.0	2.0	2.629264267209116	0.487	4.0	stim	poldrack-single-stim	s625	False	1
242.943	1.5	242.192	n/a	-1.0	2.59	columbia_card_task_fmri	n/a	n/a	-1.0	n/a	n/a	n/a	n/a	n/a	n/a	n/a	n/a	ITI	poldrack-single-stim	s625	False	0
244.786	1.136	245.922	2.204869256738415	draw_card	1.136	columbia_card_task_fmri	2.0	0.9375	89.0	-25.0	0.0625	16.0	1.0	1.0	-26.100954765899736	1.136	n/a	stim	poldrack-single-stim	s625	False	1
245.925	0.393	246.318	2.092369256738415	draw_card	0.393	columbia_card_task_fmri	2.0	0.9333333333333332	89.0	-25.0	0.0666666666666666	16.0	2.0	1.0	-25.9092753636882	0.393	n/a	stim	poldrack-single-stim	s625	False	1
246.322	0.515	246.837	1.9637978281669868	draw_card	0.515	columbia_card_task_fmri	2.0	0.9285714285714286	89.0	-25.0	0.0714285714285714	16.0	3.0	1.0	-25.69860166559741	0.515	n/a	stim	poldrack-single-stim	s625	False	1
246.841	1.636	248.477	1.8154461798153383	draw_card	1.636	columbia_card_task_fmri	2.0	0.9230769230769232	89.0	-25.0	0.0769230769230769	16.0	4.0	1.0	-25.46568418186891	1.636	n/a	stim	poldrack-single-stim	s625	False	1
248.481	1.401	249.882	1.6423692567384154	end_round	1.401	columbia_card_task_fmri	2.0	0.9166666666666666	71.0	-25.0	0.0833333333333333	16.0	5.0	1.0	-25.206456439753723	1.401	4.0	stim	poldrack-single-stim	s625	False	1
250.637	1.5	249.886	n/a	-1.0	2.726	columbia_card_task_fmri	n/a	n/a	-1.0	n/a	n/a	n/a	n/a	n/a	n/a	n/a	n/a	ITI	poldrack-single-stim	s625	False	0
252.616	0.31	252.926	4.392369256738415	draw_card	0.31	columbia_card_task_fmri	9.0	0.9375	89.0	-95.0	0.0625	16.0	1.0	1.0	-7.659647555736047	0.31	n/a	stim	poldrack-single-stim	s625	False	1
252.93	0.336	253.266	3.959035923405082	draw_card	0.336	columbia_card_task_fmri	9.0	0.9333333333333332	89.0	-95.0	0.0666666666666666	16.0	2.0	1.0	-6.893977773204224	0.336	n/a	stim	poldrack-single-stim	s625	False	1
253.27	0.299	253.569	3.463797828166987	draw_card	0.299	columbia_card_task_fmri	9.0	0.9285714285714286	89.0	-95.0	0.0714285714285714	16.0	3.0	1.0	-6.054201706341882	0.299	n/a	stim	poldrack-single-stim	s625	False	1
253.573	0.295	253.868	2.892369256738415	draw_card	0.295	columbia_card_task_fmri	9.0	0.9230769230769232	89.0	-95.0	0.0769230769230769	16.0	4.0	1.0	-5.127716206421077	0.295	n/a	stim	poldrack-single-stim	s625	False	1
253.872	0.52	254.392	2.225702590071749	draw_card	0.52	columbia_card_task_fmri	9.0	0.9166666666666666	89.0	-95.0	0.0833333333333333	16.0	5.0	1.0	-4.098757880302301	0.52	n/a	stim	poldrack-single-stim	s625	False	1
254.396	0.612	255.008	1.43782380219296	draw_card	0.612	columbia_card_task_fmri	9.0	0.9090909090909092	89.0	-95.0	0.0909090909090909	16.0	6.0	1.0	-2.9473379997521363	0.612	n/a	stim	poldrack-single-stim	s625	False	1
255.013	0.626	255.639	0.4923692567384148	draw_card	0.626	columbia_card_task_fmri	9.0	0.9	89.0	-95.0	0.1	16.0	7.0	1.0	-1.6477280758915889	0.626	7.0	stim	poldrack-single-stim	s625	False	0
256.394	1.5	255.643	n/a	-1.0	2.522	columbia_card_task_fmri	n/a	n/a	-1.0	n/a	n/a	n/a	n/a	n/a	n/a	n/a	n/a	ITI	poldrack-single-stim	s625	False	0
258.171	0.332	258.503	5.954869256738415	draw_card	0.332	columbia_card_task_fmri	11.0	0.9375	89.0	-100.0	0.0625	16.0	1.0	1.0	-5.969684950734553	0.332	n/a	stim	poldrack-single-stim	s625	False	1
258.507	0.274	258.781	5.492369256738416	draw_card	0.274	columbia_card_task_fmri	11.0	0.9333333333333332	89.0	-100.0	0.0666666666666666	16.0	2.0	1.0	-5.152207382074959	0.274	n/a	stim	poldrack-single-stim	s625	False	1
258.784	0.21	258.994	4.963797828166988	draw_card	0.21	columbia_card_task_fmri	11.0	0.9285714285714286	89.0	-100.0	0.0714285714285714	16.0	3.0	1.0	-4.255627115920298	0.21	n/a	stim	poldrack-single-stim	s625	False	1
258.998	0.236	259.234	4.3539077182768775	draw_card	0.236	columbia_card_task_fmri	11.0	0.9230769230769232	89.0	-100.0	0.0769230769230769	16.0	4.0	1.0	-3.266491918392923	0.236	n/a	stim	poldrack-single-stim	s625	False	1
259.237	0.536	259.773	3.642369256738415	end_round	0.536	columbia_card_task_fmri	11.0	0.9166666666666666	71.0	-100.0	0.0833333333333333	16.0	5.0	1.0	-2.167976478931891	0.536	4.0	stim	poldrack-single-stim	s625	False	1
260.527	1.5	259.776	n/a	-1.0	3.134	columbia_card_task_fmri	n/a	n/a	-1.0	n/a	n/a	n/a	n/a	n/a	n/a	n/a	n/a	ITI	poldrack-single-stim	s625	False	0
262.915	0.475	263.39	6.517369256738415	draw_card	0.475	columbia_card_task_fmri	16.0	0.875	89.0	-75.0	0.125	16.0	1.0	2.0	-2.7502066050877225	0.475	n/a	stim	poldrack-single-stim	s625	False	1
263.394	0.279	263.673	5.759035923405082	draw_card	0.279	columbia_card_task_fmri	16.0	0.8666666666666667	89.0	-75.0	0.1333333333333333	16.0	2.0	2.0	-1.9131843420502648	0.279	n/a	stim	poldrack-single-stim	s625	False	1
263.677	0.217	263.894	4.892369256738417	draw_card	0.217	columbia_card_task_fmri	16.0	0.8571428571428572	89.0	-75.0	0.1428571428571428	16.0	3.0	2.0	-1.0055177834908875	0.217	n/a	stim	poldrack-single-stim	s625	False	1
263.898	0.192	264.09	3.892369256738415	draw_card	0.192	columbia_card_task_fmri	16.0	0.8461538461538461	89.0	-75.0	0.1538461538461538	16.0	4.0	2.0	-0.0176644611266922	0.192	n/a	stim	poldrack-single-stim	s625	False	1
264.094	0.7	264.794	2.725702590071749	end_round	0.7	columbia_card_task_fmri	16.0	0.8333333333333334	71.0	-75.0	0.1666666666666666	16.0	5.0	2.0	1.061389110277453	0.7	4.0	stim	poldrack-single-stim	s625	False	1
265.548	1.5	264.797	n/a	-1.0	2.386	columbia_card_task_fmri	n/a	n/a	-1.0	n/a	n/a	n/a	n/a	n/a	n/a	n/a	n/a	ITI	poldrack-single-stim	s625	False	0
267.189	0.336	267.525	6.767369256738415	draw_card	0.336	columbia_card_task_fmri	17.0	0.875	89.0	-80.0	0.125	16.0	1.0	2.0	-0.7695630123677333	0.336	n/a	stim	poldrack-single-stim	s625	False	1
267.529	0.277	267.806	5.959035923405083	draw_card	0.277	columbia_card_task_fmri	17.0	0.8666666666666667	89.0	-80.0	0.1333333333333333	16.0	2.0	2.0	0.122852534293699	0.277	2.0	stim	poldrack-single-stim	s625	False	0
268.56	1.5	267.809	n/a	-1.0	2.386	columbia_card_task_fmri	n/a	n/a	-1.0	n/a	n/a	n/a	n/a	n/a	n/a	n/a	n/a	ITI	poldrack-single-stim	s625	False	0
281.2	1.051	282.251	1.059035923405083	draw_card	1.051	columbia_card_task_fmri	13.0	0.8333333333333334	89.0	-70.0	0.1666666666666666	6.0	1.0	1.0	-1.9149590512661447	1.051	n/a	stim	poldrack-single-stim	s625	False	1
282.255	0.355	282.61	-1.7076307432615845	draw_card	0.355	columbia_card_task_fmri	13.0	0.8	89.0	-70.0	0.2	6.0	2.0	1.0	0.3488237168505108	0.355	n/a	stim	poldrack-single-stim	s625	False	1
282.614	1.213	283.827	-5.857630743261585	draw_card	1.213	columbia_card_task_fmri	13.0	0.75	89.0	-70.0	0.25	6.0	3.0	1.0	3.0847754995802177	1.213	n/a	stim	poldrack-single-stim	s625	False	1
283.832	0.691	284.523	-12.774297409928248	end_round	0.691	columbia_card_task_fmri	13.0	0.6666666666666667	71.0	-70.0	0.3333333333333333	6.0	4.0	1.0	6.26724681821598	0.691	3.0	stim	poldrack-single-stim	s625	False	1
285.277	1.5	284.526	n/a	-1.0	2.318	columbia_card_task_fmri	n/a	n/a	-1.0	n/a	n/a	n/a	n/a	n/a	n/a	n/a	n/a	ITI	poldrack-single-stim	s625	False	0
286.849	1.545	288.394	1.059035923405083	draw_card	1.545	columbia_card_task_fmri	15.0	0.8333333333333334	89.0	-80.0	0.1666666666666666	6.0	1.0	1.0	2.5498830404171717	1.545	n/a	stim	poldrack-single-stim	s625	False	1
288.398	0.93	289.328	-2.107630743261585	draw_card	0.93	columbia_card_task_fmri	15.0	0.8	89.0	-80.0	0.2	6.0	2.0	1.0	5.142025854467732	0.93	n/a	stim	poldrack-single-stim	s625	False	1
289.333	0.697	290.03	-6.857630743261585	draw_card	0.697	columbia_card_task_fmri	15.0	0.75	89.0	-80.0	0.25	6.0	3.0	1.0	8.27464635787036	0.697	n/a	stim	poldrack-single-stim	s625	False	1
290.034	0.599	290.633	-14.774297409928248	draw_card	0.599	columbia_card_task_fmri	15.0	0.6666666666666667	89.0	-80.0	0.3333333333333333	6.0	4.0	1.0	11.918329437759551	0.599	4.0	stim	poldrack-single-stim	s625	False	0
291.388	1.5	290.637	n/a	-1.0	2.318	columbia_card_task_fmri	n/a	n/a	-1.0	n/a	n/a	n/a	n/a	n/a	n/a	n/a	n/a	ITI	poldrack-single-stim	s625	False	0
292.959	0.391	293.35	2.725702590071749	draw_card	0.391	columbia_card_task_fmri	16.0	0.8333333333333334	89.0	-75.0	0.1666666666666666	6.0	1.0	1.0	1.061389110277453	0.391	n/a	stim	poldrack-single-stim	s625	False	1
293.355	0.276	293.631	-0.3076307432615841	draw_card	0.276	columbia_card_task_fmri	16.0	0.8	89.0	-75.0	0.2	6.0	2.0	1.0	3.5440930139055453	0.276	n/a	stim	poldrack-single-stim	s625	False	1
293.635	0.254	293.889	-4.857630743261585	draw_card	0.254	columbia_card_task_fmri	16.0	0.75	89.0	-75.0	0.25	6.0	3.0	1.0	6.544505653427791	0.254	n/a	stim	poldrack-single-stim	s625	False	1
293.893	0.838	294.731	-12.440964076594916	end_round	0.838	columbia_card_task_fmri	16.0	0.6666666666666667	71.0	-75.0	0.3333333333333333	6.0	4.0	1.0	10.034466350087122	0.838	3.0	stim	poldrack-single-stim	s625	False	1
295.486	1.5	294.735	n/a	-1.0	2.862	columbia_card_task_fmri	n/a	n/a	-1.0	n/a	n/a	n/a	n/a	n/a	n/a	n/a	n/a	ITI	poldrack-single-stim	s625	False	0
297.601	0.767	298.368	3.892369256738415	draw_card	0.767	columbia_card_task_fmri	21.0	0.75	89.0	-55.0	0.25	8.0	1.0	2.0	0.0582648428145446	0.767	n/a	stim	poldrack-single-stim	s625	False	1
298.372	0.256	298.628	1.1780835424527016	draw_card	0.256	columbia_card_task_fmri	21.0	0.7142857142857143	89.0	-55.0	0.2857142857142857	8.0	2.0	2.0	1.4803479946611515	0.256	n/a	stim	poldrack-single-stim	s625	False	1
298.633	0.221	298.854	-2.4409640765949154	draw_card	0.221	columbia_card_task_fmri	21.0	0.6666666666666667	89.0	-55.0	0.3333333333333333	8.0	3.0	2.0	2.971622062201177	0.221	n/a	stim	poldrack-single-stim	s625	False	1
298.857	0.312	299.169	-7.507630743261585	draw_card	0.312	columbia_card_task_fmri	21.0	0.6	89.0	-55.0	0.4	8.0	4.0	2.0	4.375239736644168	0.312	n/a	stim	poldrack-single-stim	s625	False	1
299.173	0.511	299.684	-15.107630743261584	end_round	0.511	columbia_card_task_fmri	21.0	0.5	71.0	-55.0	0.5	8.0	5.0	2.0	5.142025854467732	0.511	4.0	stim	poldrack-single-stim	s625	False	1
300.438	1.5	299.687	n/a	-1.0	2.726	columbia_card_task_fmri	n/a	n/a	-1.0	n/a	n/a	n/a	n/a	n/a	n/a	n/a	n/a	ITI	poldrack-single-stim	s625	False	0
302.418	0.281	302.699	5.142369256738415	draw_card	0.281	columbia_card_task_fmri	26.0	0.75	89.0	-65.0	0.25	8.0	1.0	2.0	6.544505653427791	0.281	1.0	stim	poldrack-single-stim	s625	False	0
303.453	1.5	302.702	n/a	-1.0	2.25	columbia_card_task_fmri	n/a	n/a	-1.0	n/a	n/a	n/a	n/a	n/a	n/a	n/a	n/a	ITI	poldrack-single-stim	s625	False	0
304.957	0.358	305.315	0.2257025900717491	draw_card	0.358	columbia_card_task_fmri	15.0	0.7777777777777778	89.0	-60.0	0.2222222222222222	9.0	1.0	2.0	-1.6672140211287283	0.358	n/a	stim	poldrack-single-stim	s625	False	1
305.319	0.204	305.523	-1.8576307432615848	draw_card	0.204	columbia_card_task_fmri	15.0	0.75	89.0	-60.0	0.25	9.0	2.0	2.0	-0.3740242291892457	0.204	n/a	stim	poldrack-single-stim	s625	False	1
305.528	0.369	305.897	-4.536202171833012	draw_card	0.369	columbia_card_task_fmri	15.0	0.7142857142857143	89.0	-60.0	0.2857142857142857	9.0	3.0	2.0	1.0292877941616467	0.369	3.0	stim	poldrack-single-stim	s625	False	0
306.651	1.5	305.9	n/a	-1.0	2.318	columbia_card_task_fmri	n/a	n/a	-1.0	n/a	n/a	n/a	n/a	n/a	n/a	n/a	n/a	ITI	poldrack-single-stim	s625	False	0
308.223	0.0	308.223	4.592369256738416	draw_card	0.0	columbia_card_task_fmri	13.0	0.9	89.0	-90.0	0.1	10.0	1.0	1.0	-1.9471724504985737	0.0	n/a	stim	poldrack-single-stim	s625	False	1
308.227	0.251	308.478	3.4479248122939703	draw_card	0.251	columbia_card_task_fmri	13.0	0.8888888888888888	89.0	-90.0	0.1111111111111111	10.0	2.0	1.0	-0.4800193932814238	0.251	n/a	stim	poldrack-single-stim	s625	False	1
308.482	0.204	308.686	2.017369256738415	draw_card	0.204	columbia_card_task_fmri	13.0	0.875	89.0	-90.0	0.125	10.0	3.0	1.0	1.2115070900812128	0.204	n/a	stim	poldrack-single-stim	s625	False	1
308.691	0.606	309.297	0.1780835424527034	end_round	0.606	columbia_card_task_fmri	13.0	0.8571428571428572	71.0	-90.0	0.1428571428571428	10.0	4.0	1.0	3.187071869950721	0.606	3.0	stim	poldrack-single-stim	s625	False	1
310.05	1.5	309.299	n/a	-1.0	2.454	columbia_card_task_fmri	n/a	n/a	-1.0	n/a	n/a	n/a	n/a	n/a	n/a	n/a	n/a	ITI	poldrack-single-stim	s625	False	0
311.758	0.441	312.199	5.892369256738415	draw_card	0.441	columbia_card_task_fmri	15.0	0.9	89.0	-95.0	0.1	10.0	1.0	1.0	0.1491497762142941	0.441	n/a	stim	poldrack-single-stim	s625	False	1
312.203	0.377	312.58	4.670147034516192	draw_card	0.377	columbia_card_task_fmri	15.0	0.8888888888888888	89.0	-95.0	0.1111111111111111	10.0	2.0	1.0	1.7163567701021307	0.377	n/a	stim	poldrack-single-stim	s625	False	1
312.585	0.36	312.945	3.142369256738415	draw_card	0.36	columbia_card_task_fmri	15.0	0.875	89.0	-95.0	0.125	10.0	3.0	1.0	3.523201770313328	0.36	n/a	stim	poldrack-single-stim	s625	False	1
312.948	0.819	313.767	1.1780835424527016	draw_card	0.819	columbia_card_task_fmri	15.0	0.8571428571428572	89.0	-95.0	0.1428571428571428	10.0	4.0	1.0	5.633406380404459	0.819	4.0	stim	poldrack-single-stim	s625	False	0
314.521	1.5	313.77	n/a	-1.0	2.522	columbia_card_task_fmri	n/a	n/a	-1.0	n/a	n/a	n/a	n/a	n/a	n/a	n/a	n/a	ITI	poldrack-single-stim	s625	False	0
316.297	0.271	316.568	1.692369256738416	draw_card	0.271	columbia_card_task_fmri	16.0	0.8	89.0	-65.0	0.2	10.0	1.0	2.0	-0.4498479538852464	0.271	n/a	stim	poldrack-single-stim	s625	False	1
316.571	0.328	316.899	-0.107630743261583	draw_card	0.328	columbia_card_task_fmri	16.0	0.7777777777777778	89.0	-65.0	0.2222222222222222	10.0	2.0	2.0	0.8229814236210089	0.328	2.0	stim	poldrack-single-stim	s625	False	0
317.653	1.5	316.902	n/a	-1.0	2.318	columbia_card_task_fmri	n/a	n/a	-1.0	n/a	n/a	n/a	n/a	n/a	n/a	n/a	n/a	ITI	poldrack-single-stim	s625	False	0
319.226	0.085	319.311	0.3923692567384151	draw_card	0.085	columbia_card_task_fmri	7.0	0.9166666666666666	89.0	-95.0	0.0833333333333333	12.0	1.0	1.0	-4.650311297895115	0.085	n/a	stim	poldrack-single-stim	s625	False	1
319.315	0.576	319.891	-0.3803580159888582	draw_card	0.576	columbia_card_task_fmri	7.0	0.9090909090909092	89.0	-95.0	0.0909090909090909	12.0	2.0	1.0	-3.52112688198547	0.576	n/a	stim	poldrack-single-stim	s625	False	1
319.896	2.042	321.938	-1.307630743261585	end_round	2.042	columbia_card_task_fmri	7.0	0.9	71.0	-95.0	0.1	12.0	3.0	1.0	-2.246605961331113	2.042	2.0	stim	poldrack-single-stim	s625	False	1
322.692	1.5	321.941	n/a	-1.0	2.522	columbia_card_task_fmri	n/a	n/a	-1.0	n/a	n/a	n/a	n/a	n/a	n/a	n/a	n/a	ITI	poldrack-single-stim	s625	False	0
324.469	0.453	324.922	1.059035923405083	draw_card	0.453	columbia_card_task_fmri	14.0	0.8333333333333334	89.0	-75.0	0.1666666666666666	12.0	1.0	2.0	0.3172167342641572	0.453	n/a	stim	poldrack-single-stim	s625	False	1
324.927	1.836	326.763	-0.2894489250797682	draw_card	1.836	columbia_card_task_fmri	14.0	0.8181818181818181	89.0	-75.0	0.1818181818181818	12.0	2.0	2.0	1.4738776118858183	1.836	2.0	stim	poldrack-single-stim	s625	False	0
327.518	1.5	326.767	n/a	-1.0	2.998	columbia_card_task_fmri	n/a	n/a	-1.0	n/a	n/a	n/a	n/a	n/a	n/a	n/a	n/a	ITI	poldrack-single-stim	s625	False	0
329.77	0.369	330.139	2.725702590071749	draw_card	0.369	columbia_card_task_fmri	15.0	0.8333333333333334	89.0	-70.0	0.1666666666666666	12.0	1.0	2.0	-1.1709613483305823	0.369	n/a	stim	poldrack-single-stim	s625	False	1
330.143	0.335	330.478	1.4378238021929584	draw_card	0.335	columbia_card_task_fmri	15.0	0.8181818181818181	89.0	-70.0	0.1818181818181818	12.0	2.0	2.0	-0.0664520183939103	0.335	n/a	stim	poldrack-single-stim	s625	False	1
330.482	0.952	331.434	-0.1076307432615848	draw_card	0.952	columbia_card_task_fmri	15.0	0.8	89.0	-70.0	0.2	12.0	3.0	2.0	1.1475577488432762	0.952	n/a	stim	poldrack-single-stim	s625	False	1
331.438	0.818	332.256	-1.996519632150474	end_round	0.818	columbia_card_task_fmri	15.0	0.7777777777777778	71.0	-70.0	0.2222222222222222	12.0	4.0	2.0	2.483443732617665	0.818	3.0	stim	poldrack-single-stim	s625	False	1
333.011	1.5	332.26	n/a	-1.0	2.318	columbia_card_task_fmri	n/a	n/a	-1.0	n/a	n/a	n/a	n/a	n/a	n/a	n/a	n/a	ITI	poldrack-single-stim	s625	False	0
334.584	0.389	334.973	0.6923692567384159	draw_card	0.389	columbia_card_task_fmri	16.0	0.8	89.0	-70.0	0.2	15.0	1.0	3.0	1.54694679490472	0.389	n/a	stim	poldrack-single-stim	s625	False	1
334.977	0.383	335.36	-0.5362021718330137	draw_card	0.383	columbia_card_task_fmri	16.0	0.7857142857142857	89.0	-70.0	0.2142857142857142	15.0	2.0	3.0	2.433667519702233	0.383	n/a	stim	poldrack-single-stim	s625	False	1
335.364	1.113	336.477	-1.9537845894154315	draw_card	1.113	columbia_card_task_fmri	16.0	0.7692307692307692	89.0	-70.0	0.2307692307692307	15.0	3.0	3.0	3.3782717806828657	1.113	n/a	stim	poldrack-single-stim	s625	False	1
336.481	0.607	337.088	-3.607630743261585	end_round	0.607	columbia_card_task_fmri	16.0	0.75	71.0	-70.0	0.25	15.0	4.0	3.0	4.3820791822518	0.607	3.0	stim	poldrack-single-stim	s625	False	1
337.841	1.5	337.09	n/a	-1.0	2.25	columbia_card_task_fmri	n/a	n/a	-1.0	n/a	n/a	n/a	n/a	n/a	n/a	n/a	n/a	ITI	poldrack-single-stim	s625	False	0
339.346	0.45	339.796	1.0798692567384152	draw_card	0.45	columbia_card_task_fmri	14.0	0.8125	89.0	-65.0	0.1875	16.0	1.0	3.0	-2.012372421466189	0.45	n/a	stim	poldrack-single-stim	s625	False	1
339.8	0.401	340.201	0.0923692567384162	draw_card	0.401	columbia_card_task_fmri	14.0	0.8	89.0	-65.0	0.2	16.0	2.0	3.0	-1.2484525433857456	0.401	n/a	stim	poldrack-single-stim	s625	False	1
340.207	1.346	341.553	-1.036202171833012	draw_card	1.346	columbia_card_task_fmri	14.0	0.7857142857142857	89.0	-65.0	0.2142857142857142	16.0	3.0	3.0	-0.434128367673658	1.346	n/a	stim	poldrack-single-stim	s625	False	1
341.557	0.545	342.102	-2.338399974030817	end_round	0.545	columbia_card_task_fmri	14.0	0.7692307692307692	71.0	-65.0	0.2307692307692307	16.0	4.0	3.0	0.4333653381790228	0.545	3.0	stim	poldrack-single-stim	s625	False	1
342.856	1.5	342.105	n/a	-1.0	2.454	columbia_card_task_fmri	n/a	n/a	-1.0	n/a	n/a	n/a	n/a	n/a	n/a	n/a	n/a	ITI	poldrack-single-stim	s625	False	0
344.565	0.394	344.959	0.8298692567384152	draw_card	0.394	columbia_card_task_fmri	16.0	0.8125	89.0	-75.0	0.1875	16.0	1.0	3.0	2.663737513709279	0.394	n/a	stim	poldrack-single-stim	s625	False	1
344.964	0.65	345.614	-0.3076307432615841	draw_card	0.65	columbia_card_task_fmri	16.0	0.8	89.0	-75.0	0.2	16.0	2.0	3.0	3.5440930139055453	0.65	2.0	stim	poldrack-single-stim	s625	False	0
346.369	1.5	345.618	n/a	-1.0	2.318	columbia_card_task_fmri	n/a	n/a	-1.0	n/a	n/a	n/a	n/a	n/a	n/a	n/a	n/a	ITI	poldrack-single-stim	s625	False	0
347.941	0.126	348.067	5.092369256738416	draw_card	0.126	columbia_card_task_fmri	16.0	0.8666666666666667	89.0	-80.0	0.1333333333333333	15.0	1.0	2.0	-0.2165178636553406	0.126	n/a	stim	poldrack-single-stim	s625	False	1
348.071	0.351	348.422	4.178083542452703	draw_card	0.351	columbia_card_task_fmri	16.0	0.8571428571428572	89.0	-80.0	0.1428571428571428	15.0	2.0	2.0	0.7411964764403791	0.351	n/a	stim	poldrack-single-stim	s625	False	1
348.427	0.297	348.724	3.123138487507645	draw_card	0.297	columbia_card_task_fmri	16.0	0.8461538461538461	89.0	-80.0	0.1538461538461538	15.0	3.0	2.0	1.783507951728815	0.297	n/a	stim	poldrack-single-stim	s625	False	1
348.728	0.377	349.105	1.892369256738417	end_round	0.377	columbia_card_task_fmri	16.0	0.8333333333333334	71.0	-80.0	0.1666666666666666	15.0	4.0	2.0	2.922035342114583	0.377	3.0	stim	poldrack-single-stim	s625	False	1
349.862	1.5	349.111	n/a	-1.0	2.318	columbia_card_task_fmri	n/a	n/a	-1.0	n/a	n/a	n/a	n/a	n/a	n/a	n/a	n/a	ITI	poldrack-single-stim	s625	False	0
351.433	0.365	351.798	5.959035923405083	draw_card	0.365	columbia_card_task_fmri	17.0	0.8666666666666667	89.0	-80.0	0.1333333333333333	15.0	1.0	2.0	0.122852534293699	0.365	n/a	stim	poldrack-single-stim	s625	False	1
351.803	0.32	352.123	5.035226399595561	draw_card	0.32	columbia_card_task_fmri	17.0	0.8571428571428572	89.0	-80.0	0.1428571428571428	15.0	2.0	2.0	1.090575381718736	0.32	n/a	stim	poldrack-single-stim	s625	False	1
352.128	0.316	352.444	3.969292333661492	draw_card	0.316	columbia_card_task_fmri	17.0	0.8461538461538461	89.0	-80.0	0.1538461538461538	15.0	3.0	2.0	2.1437774111389274	0.316	3.0	stim	poldrack-single-stim	s625	False	0
353.198	1.5	352.447	n/a	-1.0	2.59	columbia_card_task_fmri	n/a	n/a	-1.0	n/a	n/a	n/a	n/a	n/a	n/a	n/a	n/a	ITI	poldrack-single-stim	s625	False	0
355.041	0.312	355.353	1.8923692567384152	draw_card	0.312	columbia_card_task_fmri	1.0	0.9375	89.0	-15.0	0.0625	16.0	1.0	1.0	-28.59448866678875	0.312	n/a	stim	poldrack-single-stim	s625	False	1
355.357	0.313	355.67	1.8257025900717485	draw_card	0.313	columbia_card_task_fmri	1.0	0.9333333333333332	89.0	-15.0	0.0666666666666666	16.0	2.0	1.0	-28.488057258982952	0.313	n/a	stim	poldrack-single-stim	s625	False	1
355.675	0.548	356.223	1.7495121138812724	draw_card	0.548	columbia_card_task_fmri	1.0	0.9285714285714286	89.0	-15.0	0.0714285714285714	16.0	3.0	1.0	-28.37067854530728	0.548	n/a	stim	poldrack-single-stim	s625	False	1
356.228	3.16	359.388	1.6616000259691843	end_round	3.16	columbia_card_task_fmri	1.0	0.9230769230769232	71.0	-15.0	0.0769230769230769	16.0	4.0	1.0	-28.24045529652664	3.16	3.0	stim	poldrack-single-stim	s625	False	1
360.143	1.5	359.392	n/a	-1.0	2.25	columbia_card_task_fmri	n/a	n/a	-1.0	n/a	n/a	n/a	n/a	n/a	n/a	n/a	n/a	ITI	poldrack-single-stim	s625	False	0
361.647	0.393	362.04	5.017369256738415	draw_card	0.393	columbia_card_task_fmri	10.0	0.9375	89.0	-100.0	0.0625	16.0	1.0	1.0	-6.21114285916973	0.393	n/a	stim	poldrack-single-stim	s625	False	1
362.046	0.276	362.322	4.559035923405082	draw_card	0.276	columbia_card_task_fmri	10.0	0.9333333333333332	89.0	-100.0	0.0666666666666666	16.0	2.0	1.0	-5.40106539175812	0.276	n/a	stim	poldrack-single-stim	s625	False	1
362.327	0.469	362.796	4.035226399595559	draw_card	0.469	columbia_card_task_fmri	10.0	0.9285714285714286	89.0	-100.0	0.0714285714285714	16.0	3.0	1.0	-4.5125989676901455	0.469	n/a	stim	poldrack-single-stim	s625	False	1
362.801	0.843	363.644	3.430830795199954	draw_card	0.843	columbia_card_task_fmri	10.0	0.9230769230769232	89.0	-100.0	0.0769230769230769	16.0	4.0	1.0	-3.532412647947716	0.843	n/a	stim	poldrack-single-stim	s625	False	1
363.649	0.523	364.172	2.725702590071749	draw_card	0.523	columbia_card_task_fmri	10.0	0.9166666666666666	89.0	-100.0	0.0833333333333333	16.0	5.0	1.0	-2.443832820972059	0.523	n/a	stim	poldrack-single-stim	s625	False	1
364.178	0.32	364.498	1.8923692567384132	draw_card	0.32	columbia_card_task_fmri	10.0	0.9090909090909092	89.0	-100.0	0.0909090909090909	16.0	6.0	1.0	-1.2257166439373854	0.32	n/a	stim	poldrack-single-stim	s625	False	1
364.504	0.396	364.9	0.8923692567384152	draw_card	0.396	columbia_card_task_fmri	10.0	0.9	89.0	-100.0	0.1	16.0	7.0	1.0	0.1491497762142941	0.396	n/a	stim	poldrack-single-stim	s625	False	1
364.904	0.737	365.641	-0.3298529654838062	draw_card	0.737	columbia_card_task_fmri	10.0	0.8888888888888888	89.0	-100.0	0.1111111111111111	16.0	8.0	1.0	1.7163567701021307	0.737	n/a	stim	poldrack-single-stim	s625	False	1
365.645	0.787	366.432	-1.8576307432615848	draw_card	0.787	columbia_card_task_fmri	10.0	0.875	89.0	-100.0	0.125	16.0	9.0	1.0	3.523201770313328	0.787	9.0	stim	poldrack-single-stim	s625	False	0
367.187	1.5	366.436	n/a	-1.0	2.25	columbia_card_task_fmri	n/a	n/a	-1.0	n/a	n/a	n/a	n/a	n/a	n/a	n/a	n/a	ITI	poldrack-single-stim	s625	False	0
368.691	0.58	369.271	5.642369256738415	draw_card	0.58	columbia_card_task_fmri	15.0	0.875	89.0	-75.0	0.125	16.0	1.0	2.0	-3.080266437607275	0.58	n/a	stim	poldrack-single-stim	s625	False	1
369.276	0.241	369.517	4.892369256738415	draw_card	0.241	columbia_card_task_fmri	15.0	0.8666666666666667	89.0	-75.0	0.1333333333333333	16.0	2.0	2.0	-2.252477660326516	0.241	2.0	stim	poldrack-single-stim	s625	False	0
370.271	1.5	369.52	n/a	-1.0	2.522	columbia_card_task_fmri	n/a	n/a	-1.0	n/a	n/a	n/a	n/a	n/a	n/a	n/a	n/a	ITI	poldrack-single-stim	s625	False	0
372.047	0.374	372.421	5.892369256738415	draw_card	0.374	columbia_card_task_fmri	16.0	0.875	89.0	-80.0	0.125	16.0	1.0	2.0	-1.0997020486503928	0.374	n/a	stim	poldrack-single-stim	s625	False	1
372.426	0.272	372.698	5.092369256738416	draw_card	0.272	columbia_card_task_fmri	16.0	0.8666666666666667	89.0	-80.0	0.1333333333333333	16.0	2.0	2.0	-0.2165178636553406	0.272	n/a	stim	poldrack-single-stim	s625	False	1
372.704	0.209	372.913	4.178083542452703	draw_card	0.209	columbia_card_task_fmri	16.0	0.8571428571428572	89.0	-80.0	0.1428571428571428	16.0	3.0	2.0	0.7411964764403791	0.209	n/a	stim	poldrack-single-stim	s625	False	1
372.918	0.472	373.39	3.123138487507645	draw_card	0.472	columbia_card_task_fmri	16.0	0.8461538461538461	89.0	-80.0	0.1538461538461538	16.0	4.0	2.0	1.783507951728815	0.472	n/a	stim	poldrack-single-stim	s625	False	1
373.395	0.501	373.896	1.892369256738417	end_round	0.501	columbia_card_task_fmri	16.0	0.8333333333333334	71.0	-80.0	0.1666666666666666	16.0	5.0	2.0	2.922035342114583	0.501	4.0	stim	poldrack-single-stim	s625	False	1
374.65	1.5	373.899	n/a	-1.0	2.454	columbia_card_task_fmri	n/a	n/a	-1.0	n/a	n/a	n/a	n/a	n/a	n/a	n/a	n/a	ITI	poldrack-single-stim	s625	False	0
376.359	0.329	376.688	3.079869256738415	draw_card	0.329	columbia_card_task_fmri	4.0	0.6875	89.0	-5.0	0.3125	16.0	1.0	5.0	-28.324299506304943	0.329	1.0	stim	poldrack-single-stim	s625	False	0
377.444	1.5	376.693	n/a	-1.0	2.25	columbia_card_task_fmri	n/a	n/a	-1.0	n/a	n/a	n/a	n/a	n/a	n/a	n/a	n/a	ITI	poldrack-single-stim	s625	False	0
378.948	0.517	379.465	0.2257025900717508	draw_card	0.517	columbia_card_task_fmri	14.0	0.8333333333333334	89.0	-80.0	0.1666666666666666	6.0	1.0	1.0	2.177741899551414	0.517	1.0	stim	poldrack-single-stim	s625	False	0
380.221	1.5	379.47	n/a	-1.0	2.454	columbia_card_task_fmri	n/a	n/a	-1.0	n/a	n/a	n/a	n/a	n/a	n/a	n/a	n/a	ITI	poldrack-single-stim	s625	False	0
381.93	0.329	382.259	1.8923692567384152	draw_card	0.329	columbia_card_task_fmri	15.0	0.8333333333333334	89.0	-75.0	0.1666666666666666	6.0	1.0	1.0	0.6892963622778012	0.329	n/a	stim	poldrack-single-stim	s625	False	1
382.264	0.568	382.832	-1.1076307432615848	draw_card	0.568	columbia_card_task_fmri	15.0	0.8	89.0	-75.0	0.2	6.0	2.0	1.0	3.1446384562190843	0.568	n/a	stim	poldrack-single-stim	s625	False	1
382.838	0.668	383.506	-5.607630743261585	draw_card	0.668	columbia_card_task_fmri	15.0	0.75	89.0	-75.0	0.25	6.0	3.0	1.0	6.111996960703841	0.668	n/a	stim	poldrack-single-stim	s625	False	1
383.511	0.419	383.93	-13.107630743261582	draw_card	0.419	columbia_card_task_fmri	15.0	0.6666666666666667	89.0	-75.0	0.3333333333333333	6.0	4.0	1.0	9.563524917570852	0.419	n/a	stim	poldrack-single-stim	s625	False	1
383.935	1.616	385.551	-28.107630743261584	end_round	1.616	columbia_card_task_fmri	15.0	0.5	71.0	-75.0	0.5	6.0	5.0	1.0	12.134707798214826	1.616	4.0	stim	poldrack-single-stim	s625	False	1
386.306	1.5	385.555	n/a	-1.0	2.454	columbia_card_task_fmri	n/a	n/a	-1.0	n/a	n/a	n/a	n/a	n/a	n/a	n/a	n/a	ITI	poldrack-single-stim	s625	False	0
388.015	0.347	388.362	3.559035923405083	draw_card	0.347	columbia_card_task_fmri	16.0	0.8333333333333334	89.0	-70.0	0.1666666666666666	6.0	1.0	1.0	-0.7989388684939343	0.347	1.0	stim	poldrack-single-stim	s625	False	0
389.117	1.5	388.366	n/a	-1.0	2.522	columbia_card_task_fmri	n/a	n/a	-1.0	n/a	n/a	n/a	n/a	n/a	n/a	n/a	n/a	ITI	poldrack-single-stim	s625	False	0
390.894	0.266	391.16	4.142369256738415	draw_card	0.266	columbia_card_task_fmri	23.0	0.75	89.0	-60.0	0.25	8.0	1.0	2.0	3.0847754995802177	0.266	n/a	stim	poldrack-single-stim	s625	False	1
391.166	0.38	391.546	1.1780835424527034	draw_card	0.38	columbia_card_task_fmri	23.0	0.7142857142857143	89.0	-60.0	0.2857142857142857	8.0	2.0	2.0	4.638236520061227	0.38	n/a	stim	poldrack-single-stim	s625	False	1
391.551	0.338	391.889	-2.7742974099282494	draw_card	0.338	columbia_card_task_fmri	23.0	0.6666666666666667	89.0	-60.0	0.3333333333333333	8.0	3.0	2.0	6.26724681821598	0.338	n/a	stim	poldrack-single-stim	s625	False	1
391.896	1.377	393.273	-8.307630743261585	draw_card	1.377	columbia_card_task_fmri	23.0	0.6	89.0	-60.0	0.4	8.0	4.0	2.0	7.800476720461624	1.377	n/a	stim	poldrack-single-stim	s625	False	1
393.278	0.476	393.754	-16.607630743261584	end_round	0.476	columbia_card_task_fmri	23.0	0.5	71.0	-60.0	0.5	8.0	5.0	2.0	8.638058716217735	0.476	4.0	stim	poldrack-single-stim	s625	False	1
394.508	1.5	393.757	n/a	-1.0	2.454	columbia_card_task_fmri	n/a	n/a	-1.0	n/a	n/a	n/a	n/a	n/a	n/a	n/a	n/a	ITI	poldrack-single-stim	s625	False	0
396.217	0.472	396.689	4.642369256738415	draw_card	0.472	columbia_card_task_fmri	27.0	0.75	89.0	-70.0	0.25	8.0	1.0	2.0	9.13977569307999	0.472	n/a	stim	poldrack-single-stim	s625	False	1
396.693	0.615	397.308	1.1780835424527	draw_card	0.615	columbia_card_task_fmri	27.0	0.7142857142857143	89.0	-70.0	0.2857142857142857	8.0	2.0	2.0	10.955910974719451	0.615	2.0	stim	poldrack-single-stim	s625	False	0
398.062	1.5	397.311	n/a	-1.0	2.658	columbia_card_task_fmri	n/a	n/a	-1.0	n/a	n/a	n/a	n/a	n/a	n/a	n/a	n/a	ITI	poldrack-single-stim	s625	False	0
399.974	0.074	400.048	-0.107630743261583	draw_card	0.074	columbia_card_task_fmri	16.0	0.7777777777777778	89.0	-65.0	0.2222222222222222	9.0	1.0	2.0	0.8229814236210089	0.074	n/a	stim	poldrack-single-stim	s625	False	1
400.053	0.269	400.322	-2.357630743261585	draw_card	0.269	columbia_card_task_fmri	16.0	0.75	89.0	-65.0	0.25	9.0	2.0	2.0	2.219977602063828	0.269	n/a	stim	poldrack-single-stim	s625	False	1
400.328	0.319	400.647	-5.250487886118726	draw_card	0.319	columbia_card_task_fmri	16.0	0.7142857142857143	89.0	-65.0	0.2857142857142857	9.0	3.0	2.0	3.7359054029156766	0.319	n/a	stim	poldrack-single-stim	s625	False	1
400.652	0.649	401.301	-9.10763074326158	end_round	0.649	columbia_card_task_fmri	16.0	0.6666666666666667	71.0	-65.0	0.3333333333333333	9.0	4.0	2.0	5.3255656877455735	0.649	3.0	stim	poldrack-single-stim	s625	False	1
402.056	1.5	401.305	n/a	-1.0	2.386	columbia_card_task_fmri	n/a	n/a	-1.0	n/a	n/a	n/a	n/a	n/a	n/a	n/a	n/a	ITI	poldrack-single-stim	s625	False	0
403.696	0.28	403.976	5.092369256738416	draw_card	0.28	columbia_card_task_fmri	13.0	0.9	89.0	-85.0	0.1	10.0	1.0	1.0	-3.4442247420750505	0.28	n/a	stim	poldrack-single-stim	s625	False	1
403.981	0.256	404.237	4.003480367849526	draw_card	0.256	columbia_card_task_fmri	13.0	0.8888888888888888	89.0	-85.0	0.1111111111111111	10.0	2.0	1.0	-2.0485531942197994	0.256	n/a	stim	poldrack-single-stim	s625	False	1
404.241	0.227	404.468	2.642369256738415	draw_card	0.227	columbia_card_task_fmri	13.0	0.875	89.0	-85.0	0.125	10.0	3.0	1.0	-0.439412172324225	0.227	n/a	stim	poldrack-single-stim	s625	False	1
404.473	0.294	404.767	0.8923692567384169	draw_card	0.294	columbia_card_task_fmri	13.0	0.8571428571428572	89.0	-85.0	0.1428571428571428	10.0	4.0	1.0	1.4399654490256069	0.294	n/a	stim	poldrack-single-stim	s625	False	1
404.77	0.449	405.219	-1.440964076594917	end_round	0.449	columbia_card_task_fmri	13.0	0.8333333333333334	71.0	-85.0	0.1666666666666666	10.0	5.0	1.0	3.666372065117656	0.449	4.0	stim	poldrack-single-stim	s625	False	1
405.973	1.5	405.222	n/a	-1.0	2.522	columbia_card_task_fmri	n/a	n/a	-1.0	n/a	n/a	n/a	n/a	n/a	n/a	n/a	n/a	ITI	poldrack-single-stim	s625	False	0
407.749	0.296	408.045	0.0923692567384162	draw_card	0.296	columbia_card_task_fmri	14.0	0.8	89.0	-65.0	0.2	10.0	1.0	2.0	-1.2484525433857456	0.296	n/a	stim	poldrack-single-stim	s625	False	1
408.049	0.24	408.289	-1.6631862988171384	draw_card	0.24	columbia_card_task_fmri	14.0	0.7777777777777778	89.0	-65.0	0.2222222222222222	10.0	2.0	2.0	-0.0071551538433851	0.24	n/a	stim	poldrack-single-stim	s625	False	1
408.293	0.217	408.51	-3.857630743261585	draw_card	0.217	columbia_card_task_fmri	14.0	0.75	89.0	-65.0	0.25	10.0	3.0	2.0	1.3552417179567584	0.217	n/a	stim	poldrack-single-stim	s625	False	1
408.515	0.2	408.715	-6.6790593146901545	draw_card	0.2	columbia_card_task_fmri	14.0	0.7142857142857143	89.0	-65.0	0.2857142857142857	10.0	4.0	2.0	2.833633747572968	0.2	n/a	stim	poldrack-single-stim	s625	False	1
408.719	0.731	409.45	-10.440964076594916	draw_card	0.731	columbia_card_task_fmri	14.0	0.6666666666666667	89.0	-65.0	0.3333333333333333	10.0	5.0	2.0	4.383941559037119	0.731	n/a	stim	poldrack-single-stim	s625	False	1
409.454	0.425	409.879	-15.707630743261586	end_round	0.425	columbia_card_task_fmri	14.0	0.6	71.0	-65.0	0.4	10.0	6.0	2.0	5.843110745623271	0.425	5.0	stim	poldrack-single-stim	s625	False	1
410.635	1.5	409.884	n/a	-1.0	2.59	columbia_card_task_fmri	n/a	n/a	-1.0	n/a	n/a	n/a	n/a	n/a	n/a	n/a	n/a	ITI	poldrack-single-stim	s625	False	0
412.479	0.416	412.895	1.4923692567384166	draw_card	0.416	columbia_card_task_fmri	17.0	0.8	89.0	-70.0	0.2	10.0	1.0	2.0	1.9463498544573736	0.416	1.0	stim	poldrack-single-stim	s625	False	0
413.649	1.5	412.898	n/a	-1.0	2.386	columbia_card_task_fmri	n/a	n/a	-1.0	n/a	n/a	n/a	n/a	n/a	n/a	n/a	n/a	ITI	poldrack-single-stim	s625	False	0
415.289	0.305	415.594	0.2257025900717491	draw_card	0.305	columbia_card_task_fmri	13.0	0.8333333333333334	89.0	-75.0	0.1666666666666666	12.0	1.0	2.0	-0.0548493279509116	0.305	n/a	stim	poldrack-single-stim	s625	False	1
415.6	0.202	415.802	-1.1076307432615866	end_round	0.202	columbia_card_task_fmri	13.0	0.8181818181818181	71.0	-75.0	0.1818181818181818	12.0	2.0	2.0	1.088774382756725	0.202	1.0	stim	poldrack-single-stim	s625	False	1
416.558	1.5	415.807	n/a	-1.0	2.59	columbia_card_task_fmri	n/a	n/a	-1.0	n/a	n/a	n/a	n/a	n/a	n/a	n/a	n/a	ITI	poldrack-single-stim	s625	False	0
418.402	0.298	418.7	1.892369256738417	draw_card	0.298	columbia_card_task_fmri	14.0	0.8333333333333334	89.0	-70.0	0.1666666666666666	12.0	1.0	2.0	-1.542968262769211	0.298	n/a	stim	poldrack-single-stim	s625	False	1
418.706	0.274	418.98	0.61964198401114	draw_card	0.274	columbia_card_task_fmri	14.0	0.8181818181818181	89.0	-70.0	0.1818181818181818	12.0	2.0	2.0	-0.4514980763203837	0.274	n/a	stim	poldrack-single-stim	s625	False	1
418.985	0.24	419.225	-0.9076307432615838	draw_card	0.24	columbia_card_task_fmri	14.0	0.8	89.0	-70.0	0.2	12.0	3.0	2.0	0.7481832151997665	0.24	n/a	stim	poldrack-single-stim	s625	False	1
419.229	0.357	419.586	-2.774297409928251	draw_card	0.357	columbia_card_task_fmri	14.0	0.7777777777777778	89.0	-70.0	0.2222222222222222	12.0	4.0	2.0	2.068305914294882	0.357	n/a	stim	poldrack-single-stim	s625	False	1
419.59	0.835	420.425	-5.107630743261585	end_round	0.835	columbia_card_task_fmri	14.0	0.75	71.0	-70.0	0.25	12.0	5.0	2.0	3.517196322980382	0.835	4.0	stim	poldrack-single-stim	s625	False	1
421.18	1.5	420.429	n/a	-1.0	2.318	columbia_card_task_fmri	n/a	n/a	-1.0	n/a	n/a	n/a	n/a	n/a	n/a	n/a	n/a	ITI	poldrack-single-stim	s625	False	0
422.753	0.374	423.127	1.892369256738417	draw_card	0.374	columbia_card_task_fmri	16.0	0.8333333333333334	89.0	-80.0	0.1666666666666666	12.0	1.0	2.0	2.922035342114583	0.374	n/a	stim	poldrack-single-stim	s625	False	1
423.131	0.271	423.402	0.4378238021929583	draw_card	0.271	columbia_card_task_fmri	16.0	0.8181818181818181	89.0	-80.0	0.1818181818181818	12.0	2.0	2.0	4.169944474564183	0.271	n/a	stim	poldrack-single-stim	s625	False	1
423.406	0.242	423.648	-1.307630743261584	draw_card	0.242	columbia_card_task_fmri	16.0	0.8	89.0	-80.0	0.2	12.0	3.0	2.0	5.541535930765413	0.242	n/a	stim	poldrack-single-stim	s625	False	1
423.653	0.208	423.861	-3.440964076594919	draw_card	0.208	columbia_card_task_fmri	16.0	0.7777777777777778	89.0	-80.0	0.2222222222222222	12.0	4.0	2.0	7.050785816138408	0.208	n/a	stim	poldrack-single-stim	s625	False	1
423.866	0.657	424.523	-6.107630743261585	end_round	0.657	columbia_card_task_fmri	16.0	0.75	71.0	-80.0	0.25	12.0	5.0	2.0	8.707206365691981	0.657	4.0	stim	poldrack-single-stim	s625	False	1
425.278	1.5	424.527	n/a	-1.0	2.25	columbia_card_task_fmri	n/a	n/a	-1.0	n/a	n/a	n/a	n/a	n/a	n/a	n/a	n/a	ITI	poldrack-single-stim	s625	False	0
426.783	0.108	426.891	1.692369256738416	draw_card	0.108	columbia_card_task_fmri	16.0	0.8	89.0	-65.0	0.2	15.0	1.0	3.0	-0.4498479538852464	0.108	n/a	stim	poldrack-single-stim	s625	False	1
426.895	0.231	427.126	0.5352263995955593	draw_card	0.231	columbia_card_task_fmri	16.0	0.7857142857142857	89.0	-65.0	0.2142857142857142	15.0	2.0	3.0	0.3851629673228771	0.231	n/a	stim	poldrack-single-stim	s625	False	1
427.131	0.184	427.315	-0.7999384355692782	draw_card	0.184	columbia_card_task_fmri	16.0	0.7692307692307692	89.0	-65.0	0.2307692307692307	15.0	3.0	3.0	1.274690301818154	0.184	n/a	stim	poldrack-single-stim	s625	False	1
427.32	0.208	427.528	-2.357630743261585	draw_card	0.208	columbia_card_task_fmri	16.0	0.75	89.0	-65.0	0.25	15.0	4.0	3.0	2.219977602063828	0.208	n/a	stim	poldrack-single-stim	s625	False	1
427.533	0.483	428.016	-4.198539834170675	draw_card	0.483	columbia_card_task_fmri	16.0	0.7272727272727273	89.0	-65.0	0.2727272727272727	15.0	5.0	3.0	3.2188397072889074	0.483	n/a	stim	poldrack-single-stim	s625	False	1
428.021	0.454	428.475	-6.407630743261586	draw_card	0.454	columbia_card_task_fmri	16.0	0.7	89.0	-65.0	0.3	15.0	6.0	3.0	4.262005385964734	0.454	n/a	stim	poldrack-single-stim	s625	False	1
428.48	0.494	428.974	-9.10763074326158	end_round	0.494	columbia_card_task_fmri	16.0	0.6666666666666667	71.0	-65.0	0.3333333333333333	15.0	7.0	3.0	5.3255656877455735	0.494	6.0	stim	poldrack-single-stim	s625	False	1
429.73	1.5	428.979	n/a	-1.0	2.454	columbia_card_task_fmri	n/a	n/a	-1.0	n/a	n/a	n/a	n/a	n/a	n/a	n/a	n/a	ITI	poldrack-single-stim	s625	False	0
431.438	1.036	432.474	0.0173692567384151	draw_card	1.036	columbia_card_task_fmri	15.0	0.8125	89.0	-75.0	0.1875	16.0	1.0	3.0	2.273984061671719	1.036	n/a	stim	poldrack-single-stim	s625	False	1
432.48	0.281	432.761	-1.1076307432615848	draw_card	0.281	columbia_card_task_fmri	15.0	0.8	89.0	-75.0	0.2	16.0	2.0	3.0	3.1446384562190843	0.281	n/a	stim	poldrack-single-stim	s625	False	1
432.764	0.223	432.987	-2.3933450289758698	draw_card	0.223	columbia_card_task_fmri	15.0	0.7857142857142857	89.0	-75.0	0.2142857142857142	16.0	3.0	3.0	4.072720641861295	0.223	3.0	stim	poldrack-single-stim	s625	False	0
433.742	1.5	432.991	n/a	-1.0	3.27	columbia_card_task_fmri	n/a	n/a	-1.0	n/a	n/a	n/a	n/a	n/a	n/a	n/a	n/a	ITI	poldrack-single-stim	s625	False	0
436.266	0.338	436.604	0.5798692567384152	draw_card	0.338	columbia_card_task_fmri	14.0	0.6875	89.0	-35.0	0.3125	16.0	1.0	5.0	-10.114256726832224	0.338	n/a	stim	poldrack-single-stim	s625	False	1
436.609	0.209	436.818	-0.440964076594917	draw_card	0.209	columbia_card_task_fmri	14.0	0.6666666666666667	89.0	-35.0	0.3333333333333333	16.0	2.0	5.0	-9.72885620372347	0.209	2.0	stim	poldrack-single-stim	s625	False	0
437.574	1.5	436.823	n/a	-1.0	2.25	columbia_card_task_fmri	n/a	n/a	-1.0	n/a	n/a	n/a	n/a	n/a	n/a	n/a	n/a	ITI	poldrack-single-stim	s625	False	0
439.079	0.661	439.74	5.759035923405082	draw_card	0.661	columbia_card_task_fmri	16.0	0.8666666666666667	89.0	-75.0	0.1333333333333333	15.0	1.0	2.0	-1.9131843420502648	0.661	n/a	stim	poldrack-single-stim	s625	False	1
439.746	0.249	439.995	4.892369256738417	draw_card	0.249	columbia_card_task_fmri	16.0	0.8571428571428572	89.0	-75.0	0.1428571428571428	15.0	2.0	2.0	-1.0055177834908875	0.249	n/a	stim	poldrack-single-stim	s625	False	1
440.0	0.197	440.197	3.892369256738415	draw_card	0.197	columbia_card_task_fmri	16.0	0.8461538461538461	89.0	-75.0	0.1538461538461538	15.0	3.0	2.0	-0.0176644611266922	0.197	n/a	stim	poldrack-single-stim	s625	False	1
440.202	0.209	440.411	2.725702590071749	draw_card	0.209	columbia_card_task_fmri	16.0	0.8333333333333334	89.0	-75.0	0.1666666666666666	15.0	4.0	2.0	1.061389110277453	0.209	n/a	stim	poldrack-single-stim	s625	False	1
440.417	0.201	440.618	1.3469147112838684	draw_card	0.201	columbia_card_task_fmri	16.0	0.8181818181818181	89.0	-75.0	0.1818181818181818	15.0	5.0	2.0	2.244122975773003	0.201	n/a	stim	poldrack-single-stim	s625	False	1
440.623	0.75	441.373	-0.3076307432615841	draw_card	0.75	columbia_card_task_fmri	16.0	0.8	89.0	-75.0	0.2	15.0	6.0	2.0	3.5440930139055453	0.75	n/a	stim	poldrack-single-stim	s625	False	1
441.379	0.357	441.736	-2.3298529654838047	draw_card	0.357	columbia_card_task_fmri	16.0	0.7777777777777778	89.0	-75.0	0.2222222222222222	15.0	7.0	2.0	4.974547891851486	0.357	7.0	stim	poldrack-single-stim	s625	False	0
442.49	1.5	441.739	n/a	-1.0	2.25	columbia_card_task_fmri	n/a	n/a	-1.0	n/a	n/a	n/a	n/a	n/a	n/a	n/a	n/a	ITI	poldrack-single-stim	s625	False	0
443.995	1.011	445.006	6.425702590071748	draw_card	1.011	columbia_card_task_fmri	16.0	0.8666666666666667	89.0	-70.0	0.1333333333333333	15.0	1.0	2.0	-3.60950224168268	1.011	n/a	stim	poldrack-single-stim	s625	False	1
445.01	0.434	445.444	5.60665497102413	draw_card	0.434	columbia_card_task_fmri	16.0	0.8571428571428572	89.0	-70.0	0.1428571428571428	15.0	2.0	2.0	-2.751893311507132	0.434	n/a	stim	poldrack-single-stim	s625	False	1
445.451	0.237	445.688	4.661600025969183	draw_card	0.237	columbia_card_task_fmri	16.0	0.8461538461538461	89.0	-70.0	0.1538461538461538	15.0	3.0	2.0	-1.8185082475816152	0.237	n/a	stim	poldrack-single-stim	s625	False	1
445.693	0.255	445.948	3.559035923405083	draw_card	0.255	columbia_card_task_fmri	16.0	0.8333333333333334	89.0	-70.0	0.1666666666666666	15.0	4.0	2.0	-0.7989388684939343	0.255	n/a	stim	poldrack-single-stim	s625	False	1
445.953	0.481	446.434	2.2560056203747765	draw_card	0.481	columbia_card_task_fmri	16.0	0.8181818181818181	89.0	-70.0	0.1818181818181818	15.0	5.0	2.0	0.3186090849480152	0.481	n/a	stim	poldrack-single-stim	s625	False	1
446.439	0.489	446.928	0.6923692567384159	end_round	0.489	columbia_card_task_fmri	16.0	0.8	71.0	-70.0	0.2	15.0	6.0	2.0	1.54694679490472	0.489	5.0	stim	poldrack-single-stim	s625	False	1
447.683	1.5	446.932	n/a	-1.0	2.318	columbia_card_task_fmri	n/a	n/a	-1.0	n/a	n/a	n/a	n/a	n/a	n/a	n/a	n/a	ITI	poldrack-single-stim	s625	False	0
449.256	0.178	449.434	3.767369256738415	draw_card	0.178	columbia_card_task_fmri	8.0	0.9375	89.0	-90.0	0.0625	16.0	1.0	1.0	-9.107681223409324	0.178	1.0	stim	poldrack-single-stim	s625	False	0
450.19	1.5	449.439	n/a	-1.0	2.726	columbia_card_task_fmri	n/a	n/a	-1.0	n/a	n/a	n/a	n/a	n/a	n/a	n/a	n/a	ITI	poldrack-single-stim	s625	False	0
452.171	0.645	452.816	5.329869256738415	draw_card	0.645	columbia_card_task_fmri	10.0	0.9375	89.0	-95.0	0.0625	16.0	1.0	1.0	-7.418260648087003	0.645	n/a	stim	poldrack-single-stim	s625	False	1
452.822	0.515	453.337	4.892369256738416	draw_card	0.515	columbia_card_task_fmri	10.0	0.9333333333333332	89.0	-95.0	0.0666666666666666	16.0	2.0	1.0	-6.645188694810525	0.515	n/a	stim	poldrack-single-stim	s625	False	1
453.344	0.459	453.803	4.392369256738416	draw_card	0.459	columbia_card_task_fmri	10.0	0.9285714285714286	89.0	-95.0	0.0714285714285714	16.0	3.0	1.0	-5.797296649854783	0.459	n/a	stim	poldrack-single-stim	s625	False	1
453.81	0.408	454.218	3.8154461798153374	draw_card	0.408	columbia_card_task_fmri	10.0	0.9230769230769232	89.0	-95.0	0.0769230769230769	16.0	4.0	1.0	-4.861860063449672	0.408	n/a	stim	poldrack-single-stim	s625	False	1
454.224	0.396	454.62	3.142369256738415	draw_card	0.396	columbia_card_task_fmri	10.0	0.9166666666666666	89.0	-95.0	0.0833333333333333	16.0	5.0	1.0	-3.822963836313271	0.396	n/a	stim	poldrack-single-stim	s625	False	1
454.625	0.676	455.301	2.346914711283868	end_round	0.676	columbia_card_task_fmri	10.0	0.9090909090909092	71.0	-95.0	0.0909090909090909	16.0	6.0	1.0	-2.660426884215898	0.676	5.0	stim	poldrack-single-stim	s625	False	1
456.056	1.5	455.305	n/a	-1.0	2.386	columbia_card_task_fmri	n/a	n/a	-1.0	n/a	n/a	n/a	n/a	n/a	n/a	n/a	n/a	ITI	poldrack-single-stim	s625	False	0
457.697	0.282	457.979	6.267369256738415	draw_card	0.282	columbia_card_task_fmri	15.0	0.875	89.0	-70.0	0.125	16.0	1.0	2.0	-4.730333738848021	0.282	1.0	stim	poldrack-single-stim	s625	False	0
458.735	1.5	457.984	n/a	-1.0	2.318	columbia_card_task_fmri	n/a	n/a	-1.0	n/a	n/a	n/a	n/a	n/a	n/a	n/a	n/a	ITI	poldrack-single-stim	s625	False	0
460.308	0.08	460.388	5.267369256738415	draw_card	0.08	columbia_card_task_fmri	16.0	0.875	89.0	-85.0	0.125	16.0	1.0	2.0	0.5511076758672004	0.08	n/a	stim	poldrack-single-stim	s625	False	1
460.393	0.28	460.673	4.425702590071748	draw_card	0.28	columbia_card_task_fmri	16.0	0.8666666666666667	89.0	-85.0	0.1333333333333333	16.0	2.0	2.0	1.4804455943144177	0.28	n/a	stim	poldrack-single-stim	s625	False	1
460.677	0.224	460.901	3.463797828166988	draw_card	0.224	columbia_card_task_fmri	16.0	0.8571428571428572	89.0	-85.0	0.1428571428571428	16.0	3.0	2.0	2.488199317434088	0.224	n/a	stim	poldrack-single-stim	s625	False	1
460.905	0.194	461.099	2.353907718276875	draw_card	0.194	columbia_card_task_fmri	16.0	0.8461538461538461	89.0	-85.0	0.1538461538461538	16.0	4.0	2.0	3.5849603273498545	0.194	n/a	stim	poldrack-single-stim	s625	False	1
461.104	0.268	461.372	1.059035923405083	draw_card	0.268	columbia_card_task_fmri	16.0	0.8333333333333334	89.0	-85.0	0.1666666666666666	16.0	5.0	2.0	4.782952690868122	0.268	5.0	stim	poldrack-single-stim	s625	False	0
462.127	1.5	461.376	n/a	-1.0	2.25	columbia_card_task_fmri	n/a	n/a	-1.0	n/a	n/a	n/a	n/a	n/a	n/a	n/a	n/a	ITI	poldrack-single-stim	s625	False	0
