duration	onset	block_duration	movement_onset	planning	condition	exp_stage	experiment_exp_id	key_press	problem_id	response_time	trial_id	trial_type	worker_id	junk
5.126	3.015	5.126	8.141	1	UA_with_intermediate	practice	ward_and_allport	71	0.0	5.126	to_hand	poldrack-single-stim	s626	False
0.1	8.143	1.898	10.041	0	UA_with_intermediate	practice	ward_and_allport	82	0.0	1.898	to_board	poldrack-single-stim	s626	False
0.1	10.043	0.476	10.519	0	UA_with_intermediate	practice	ward_and_allport	71	0.0	0.476	to_hand	poldrack-single-stim	s626	False
0.1	10.52	0.334	10.854	0	UA_with_intermediate	practice	ward_and_allport	89	0.0	0.334	to_board	poldrack-single-stim	s626	False
0.1	10.855	0.902	11.757	0	UA_with_intermediate	practice	ward_and_allport	82	0.0	0.902	to_hand	poldrack-single-stim	s626	False
0.1	11.759	0.375	12.134	0	UA_with_intermediate	practice	ward_and_allport	89	0.0	0.375	to_board	poldrack-single-stim	s626	False
1.0	12.143	2.5	12.142	0	UA_with_intermediate	practice	ward_and_allport	-1	0.0	n/a	feedback	poldrack-single-stim	s626	False
3.822	14.644	3.822	18.466	1	UA_with_intermediate	practice	ward_and_allport	89	1.0	3.822	to_hand	poldrack-single-stim	s626	False
0.1	18.467	0.616	19.083	0	UA_with_intermediate	practice	ward_and_allport	82	1.0	0.616	to_board	poldrack-single-stim	s626	False
0.1	19.085	0.391	19.476	0	UA_with_intermediate	practice	ward_and_allport	71	1.0	0.391	to_hand	poldrack-single-stim	s626	False
0.1	19.477	0.318	19.795	0	UA_with_intermediate	practice	ward_and_allport	89	1.0	0.318	to_board	poldrack-single-stim	s626	False
0.1	19.795	0.451	20.246	0	UA_with_intermediate	practice	ward_and_allport	82	1.0	0.451	to_hand	poldrack-single-stim	s626	False
0.1	20.247	0.29	20.537	0	UA_with_intermediate	practice	ward_and_allport	89	1.0	0.29	to_board	poldrack-single-stim	s626	False
1.0	20.543	2.1	20.542	0	UA_with_intermediate	practice	ward_and_allport	-1	1.0	n/a	feedback	poldrack-single-stim	s626	False
2.814	22.645	2.814	25.459	1	UA_without_intermediate	practice	ward_and_allport	82	2.0	2.814	to_hand	poldrack-single-stim	s626	False
0.1	25.459	0.428	25.887	0	UA_without_intermediate	practice	ward_and_allport	89	2.0	0.428	to_board	poldrack-single-stim	s626	False
0.1	25.889	1.521	27.41	0	UA_without_intermediate	practice	ward_and_allport	71	2.0	1.521	to_hand	poldrack-single-stim	s626	False
0.1	27.411	0.542	27.953	0	UA_without_intermediate	practice	ward_and_allport	82	2.0	0.542	to_board	poldrack-single-stim	s626	False
0.1	27.955	0.361	28.316	0	UA_without_intermediate	practice	ward_and_allport	71	2.0	0.361	to_hand	poldrack-single-stim	s626	False
0.1	28.317	0.285	28.602	0	UA_without_intermediate	practice	ward_and_allport	89	2.0	0.285	to_board	poldrack-single-stim	s626	False
0.1	28.604	0.307	28.911	0	UA_without_intermediate	practice	ward_and_allport	82	2.0	0.307	to_hand	poldrack-single-stim	s626	False
0.1	28.912	0.242	29.154	0	UA_without_intermediate	practice	ward_and_allport	89	2.0	0.242	to_board	poldrack-single-stim	s626	False
0.1	29.156	6.119	35.275	0	UA_without_intermediate	practice	ward_and_allport	89	2.0	6.119	to_hand	poldrack-single-stim	s626	False
0.1	35.276	2.132	37.408	0	UA_without_intermediate	practice	ward_and_allport	82	2.0	2.132	to_board	poldrack-single-stim	s626	False
0.1	37.41	0.529	37.939	0	UA_without_intermediate	practice	ward_and_allport	89	2.0	0.529	to_hand	poldrack-single-stim	s626	False
0.1	37.941	0.889	38.83	0	UA_without_intermediate	practice	ward_and_allport	71	2.0	0.889	to_board	poldrack-single-stim	s626	False
0.1	38.832	1.111	39.943	0	UA_without_intermediate	practice	ward_and_allport	82	2.0	1.111	to_hand	poldrack-single-stim	s626	False
0.1	39.943	0.28	40.223	0	UA_without_intermediate	practice	ward_and_allport	89	2.0	0.28	to_board	poldrack-single-stim	s626	False
0.1	40.225	0.298	40.523	0	UA_without_intermediate	practice	ward_and_allport	71	2.0	0.298	to_hand	poldrack-single-stim	s626	False
0.1	40.523	0.223	40.746	0	UA_without_intermediate	practice	ward_and_allport	89	2.0	0.223	to_board	poldrack-single-stim	s626	False
1.0	40.753	2.2	40.752	0	UA_without_intermediate	practice	ward_and_allport	-1	2.0	n/a	feedback	poldrack-single-stim	s626	False
2.43	42.954	2.43	45.384	1	UA_without_intermediate	practice	ward_and_allport	71	3.0	2.43	to_hand	poldrack-single-stim	s626	False
0.1	45.386	1.131	46.517	0	UA_without_intermediate	practice	ward_and_allport	89	3.0	1.131	to_board	poldrack-single-stim	s626	False
0.1	46.518	1.018	47.536	0	UA_without_intermediate	practice	ward_and_allport	82	3.0	1.018	to_hand	poldrack-single-stim	s626	False
0.1	47.537	0.635	48.172	0	UA_without_intermediate	practice	ward_and_allport	89	3.0	0.635	to_board	poldrack-single-stim	s626	False
0.1	48.174	0.354	48.528	0	UA_without_intermediate	practice	ward_and_allport	71	3.0	0.354	to_hand	poldrack-single-stim	s626	False
0.1	48.529	0.277	48.806	0	UA_without_intermediate	practice	ward_and_allport	89	3.0	0.277	to_board	poldrack-single-stim	s626	False
1.0	48.809	2.0	48.808	0	UA_without_intermediate	practice	ward_and_allport	-1	3.0	n/a	feedback	poldrack-single-stim	s626	False
4.76	52.818	4.76	57.578	1	PA_without_intermediate	test	ward_and_allport	89	0.0	4.76	to_hand	poldrack-single-stim	s626	False
0.1	57.58	0.31	57.89	0	PA_without_intermediate	test	ward_and_allport	82	0.0	0.31	to_board	poldrack-single-stim	s626	False
0.1	57.893	1.558	59.451	0	PA_without_intermediate	test	ward_and_allport	89	0.0	1.558	to_hand	poldrack-single-stim	s626	False
0.1	59.452	0.388	59.84	0	PA_without_intermediate	test	ward_and_allport	71	0.0	0.388	to_board	poldrack-single-stim	s626	False
0.1	59.843	1.375	61.218	0	PA_without_intermediate	test	ward_and_allport	89	0.0	1.375	to_hand	poldrack-single-stim	s626	False
0.1	61.219	0.405	61.624	0	PA_without_intermediate	test	ward_and_allport	82	0.0	0.405	to_board	poldrack-single-stim	s626	False
1.0	61.626	3.088	61.625	0	PA_without_intermediate	test	ward_and_allport	-1	0.0	n/a	feedback	poldrack-single-stim	s626	False
4.322	64.716	4.322	69.038	1	PA_with_intermediate	test	ward_and_allport	82	1.0	4.322	to_hand	poldrack-single-stim	s626	False
0.1	69.039	0.411	69.45	0	PA_with_intermediate	test	ward_and_allport	71	1.0	0.411	to_board	poldrack-single-stim	s626	False
0.1	69.453	1.024	70.477	0	PA_with_intermediate	test	ward_and_allport	82	1.0	1.024	to_hand	poldrack-single-stim	s626	False
0.1	70.477	0.318	70.795	0	PA_with_intermediate	test	ward_and_allport	89	1.0	0.318	to_board	poldrack-single-stim	s626	False
0.1	70.798	1.328	72.126	0	PA_with_intermediate	test	ward_and_allport	71	1.0	1.328	to_hand	poldrack-single-stim	s626	False
0.1	72.126	0.867	72.993	0	PA_with_intermediate	test	ward_and_allport	82	1.0	0.867	to_board	poldrack-single-stim	s626	False
1.0	72.997	2.0	72.996	0	PA_with_intermediate	test	ward_and_allport	-1	1.0	n/a	feedback	poldrack-single-stim	s626	False
2.333	74.999	2.333	77.332	1	PA_without_intermediate	test	ward_and_allport	71	2.0	2.333	to_hand	poldrack-single-stim	s626	False
0.1	77.333	0.409	77.742	0	PA_without_intermediate	test	ward_and_allport	82	2.0	0.409	to_board	poldrack-single-stim	s626	False
0.1	77.744	1.149	78.893	0	PA_without_intermediate	test	ward_and_allport	71	2.0	1.149	to_hand	poldrack-single-stim	s626	False
0.1	78.894	0.312	79.206	0	PA_without_intermediate	test	ward_and_allport	89	2.0	0.312	to_board	poldrack-single-stim	s626	False
0.1	79.208	0.96	80.168	0	PA_without_intermediate	test	ward_and_allport	71	2.0	0.96	to_hand	poldrack-single-stim	s626	False
0.1	80.17	0.775	80.945	0	PA_without_intermediate	test	ward_and_allport	82	2.0	0.775	to_board	poldrack-single-stim	s626	False
1.0	80.949	2.0	80.948	0	PA_without_intermediate	test	ward_and_allport	-1	2.0	n/a	feedback	poldrack-single-stim	s626	False
2.515	82.952	2.515	85.467	1	PA_without_intermediate	test	ward_and_allport	82	3.0	2.515	to_hand	poldrack-single-stim	s626	False
0.1	85.468	0.273	85.741	0	PA_without_intermediate	test	ward_and_allport	89	3.0	0.273	to_board	poldrack-single-stim	s626	False
0.1	85.742	1.885	87.627	0	PA_without_intermediate	test	ward_and_allport	82	3.0	1.885	to_hand	poldrack-single-stim	s626	False
0.1	87.627	0.314	87.941	0	PA_without_intermediate	test	ward_and_allport	89	3.0	0.314	to_board	poldrack-single-stim	s626	False
0.1	87.944	2.096	90.04	0	PA_without_intermediate	test	ward_and_allport	82	3.0	2.096	to_hand	poldrack-single-stim	s626	False
0.1	90.04	0.227	90.267	0	PA_without_intermediate	test	ward_and_allport	71	3.0	0.227	to_board	poldrack-single-stim	s626	False
1.0	90.272	2.0	90.271	0	PA_without_intermediate	test	ward_and_allport	-1	3.0	n/a	feedback	poldrack-single-stim	s626	False
3.607	92.275	3.607	95.882	1	PA_with_intermediate	test	ward_and_allport	89	4.0	3.607	to_hand	poldrack-single-stim	s626	False
0.1	95.884	0.668	96.552	0	PA_with_intermediate	test	ward_and_allport	82	4.0	0.668	to_board	poldrack-single-stim	s626	False
0.1	96.556	0.928	97.484	0	PA_with_intermediate	test	ward_and_allport	89	4.0	0.928	to_hand	poldrack-single-stim	s626	False
0.1	97.485	0.325	97.81	0	PA_with_intermediate	test	ward_and_allport	71	4.0	0.325	to_board	poldrack-single-stim	s626	False
0.1	97.812	1.208	99.02	0	PA_with_intermediate	test	ward_and_allport	82	4.0	1.208	to_hand	poldrack-single-stim	s626	False
0.1	99.021	0.268	99.289	0	PA_with_intermediate	test	ward_and_allport	89	4.0	0.268	to_board	poldrack-single-stim	s626	False
1.0	99.296	2.544	99.295	0	PA_with_intermediate	test	ward_and_allport	-1	4.0	n/a	feedback	poldrack-single-stim	s626	False
3.349	101.842	3.349	105.191	1	PA_without_intermediate	test	ward_and_allport	89	5.0	3.349	to_hand	poldrack-single-stim	s626	False
0.1	105.192	1.187	106.379	0	PA_without_intermediate	test	ward_and_allport	71	5.0	1.187	to_board	poldrack-single-stim	s626	False
0.1	106.383	0.797	107.18	0	PA_without_intermediate	test	ward_and_allport	89	5.0	0.797	to_hand	poldrack-single-stim	s626	False
0.1	107.18	0.703	107.883	0	PA_without_intermediate	test	ward_and_allport	71	5.0	0.703	to_board	poldrack-single-stim	s626	False
0.1	107.886	0.52	108.406	0	PA_without_intermediate	test	ward_and_allport	89	5.0	0.52	to_hand	poldrack-single-stim	s626	False
0.1	108.407	0.388	108.795	0	PA_without_intermediate	test	ward_and_allport	82	5.0	0.388	to_board	poldrack-single-stim	s626	False
1.0	108.801	2.272	108.8	0	PA_without_intermediate	test	ward_and_allport	-1	5.0	n/a	feedback	poldrack-single-stim	s626	False
2.014	111.075	2.014	113.089	1	PA_with_intermediate	test	ward_and_allport	89	6.0	2.014	to_hand	poldrack-single-stim	s626	False
0.1	113.091	1.593	114.684	0	PA_with_intermediate	test	ward_and_allport	71	6.0	1.593	to_board	poldrack-single-stim	s626	False
0.1	114.686	0.376	115.062	0	PA_with_intermediate	test	ward_and_allport	89	6.0	0.376	to_hand	poldrack-single-stim	s626	False
0.1	115.064	0.356	115.42	0	PA_with_intermediate	test	ward_and_allport	82	6.0	0.356	to_board	poldrack-single-stim	s626	False
0.1	115.422	1.429	116.851	0	PA_with_intermediate	test	ward_and_allport	71	6.0	1.429	to_hand	poldrack-single-stim	s626	False
0.1	116.853	0.437	117.29	0	PA_with_intermediate	test	ward_and_allport	89	6.0	0.437	to_board	poldrack-single-stim	s626	False
1.0	117.294	4.04	117.293	0	PA_with_intermediate	test	ward_and_allport	-1	6.0	n/a	feedback	poldrack-single-stim	s626	False
3.439	121.338	3.439	124.777	1	PA_with_intermediate	test	ward_and_allport	82	7.0	3.439	to_hand	poldrack-single-stim	s626	False
0.1	124.778	1.412	126.19	0	PA_with_intermediate	test	ward_and_allport	89	7.0	1.412	to_board	poldrack-single-stim	s626	False
0.1	126.193	1.841	128.034	0	PA_with_intermediate	test	ward_and_allport	82	7.0	1.841	to_hand	poldrack-single-stim	s626	False
0.1	128.034	0.304	128.338	0	PA_with_intermediate	test	ward_and_allport	71	7.0	0.304	to_board	poldrack-single-stim	s626	False
0.1	128.342	0.469	128.811	0	PA_with_intermediate	test	ward_and_allport	89	7.0	0.469	to_hand	poldrack-single-stim	s626	False
0.1	128.812	0.293	129.105	0	PA_with_intermediate	test	ward_and_allport	82	7.0	0.293	to_board	poldrack-single-stim	s626	False
1.0	129.111	2.272	129.11	0	PA_with_intermediate	test	ward_and_allport	-1	7.0	n/a	feedback	poldrack-single-stim	s626	False
2.198	131.385	2.198	133.583	1	PA_with_intermediate	test	ward_and_allport	89	8.0	2.198	to_hand	poldrack-single-stim	s626	False
0.1	133.585	0.354	133.939	0	PA_with_intermediate	test	ward_and_allport	82	8.0	0.354	to_board	poldrack-single-stim	s626	False
0.1	133.942	1.618	135.56	0	PA_with_intermediate	test	ward_and_allport	89	8.0	1.618	to_hand	poldrack-single-stim	s626	False
0.1	135.562	1.108	136.67	0	PA_with_intermediate	test	ward_and_allport	71	8.0	1.108	to_board	poldrack-single-stim	s626	False
0.1	136.672	0.729	137.401	0	PA_with_intermediate	test	ward_and_allport	82	8.0	0.729	to_hand	poldrack-single-stim	s626	False
0.1	137.402	0.366	137.768	0	PA_with_intermediate	test	ward_and_allport	71	8.0	0.366	to_board	poldrack-single-stim	s626	False
1.0	137.775	2.136	137.774	0	PA_with_intermediate	test	ward_and_allport	-1	8.0	n/a	feedback	poldrack-single-stim	s626	False
2.253	139.915	2.253	142.168	1	PA_with_intermediate	test	ward_and_allport	89	9.0	2.253	to_hand	poldrack-single-stim	s626	False
0.1	142.168	0.38	142.548	0	PA_with_intermediate	test	ward_and_allport	71	9.0	0.38	to_board	poldrack-single-stim	s626	False
0.1	142.551	1.505	144.056	0	PA_with_intermediate	test	ward_and_allport	89	9.0	1.505	to_hand	poldrack-single-stim	s626	False
0.1	144.057	0.421	144.478	0	PA_with_intermediate	test	ward_and_allport	82	9.0	0.421	to_board	poldrack-single-stim	s626	False
0.1	144.482	1.387	145.869	0	PA_with_intermediate	test	ward_and_allport	71	9.0	1.387	to_hand	poldrack-single-stim	s626	False
0.1	145.87	0.495	146.365	0	PA_with_intermediate	test	ward_and_allport	82	9.0	0.495	to_board	poldrack-single-stim	s626	False
1.0	146.37	2.0	146.369	0	PA_with_intermediate	test	ward_and_allport	-1	9.0	n/a	feedback	poldrack-single-stim	s626	False
1.637	148.374	1.637	150.011	1	PA_with_intermediate	test	ward_and_allport	89	10.0	1.637	to_hand	poldrack-single-stim	s626	False
0.1	150.012	0.418	150.43	0	PA_with_intermediate	test	ward_and_allport	71	10.0	0.418	to_board	poldrack-single-stim	s626	False
0.1	150.434	1.06	151.494	0	PA_with_intermediate	test	ward_and_allport	89	10.0	1.06	to_hand	poldrack-single-stim	s626	False
0.1	151.494	0.3	151.794	0	PA_with_intermediate	test	ward_and_allport	82	10.0	0.3	to_board	poldrack-single-stim	s626	False
0.1	151.799	0.743	152.542	0	PA_with_intermediate	test	ward_and_allport	71	10.0	0.743	to_hand	poldrack-single-stim	s626	False
0.1	152.543	0.266	152.809	0	PA_with_intermediate	test	ward_and_allport	89	10.0	0.266	to_board	poldrack-single-stim	s626	False
1.0	152.818	2.0	152.817	0	PA_with_intermediate	test	ward_and_allport	-1	10.0	n/a	feedback	poldrack-single-stim	s626	False
2.592	154.822	2.592	157.414	1	PA_without_intermediate	test	ward_and_allport	71	11.0	2.592	to_hand	poldrack-single-stim	s626	False
0.1	157.414	0.449	157.863	0	PA_without_intermediate	test	ward_and_allport	89	11.0	0.449	to_board	poldrack-single-stim	s626	False
0.1	157.868	0.353	158.221	0	PA_without_intermediate	test	ward_and_allport	71	11.0	0.353	to_hand	poldrack-single-stim	s626	False
0.1	158.222	0.324	158.546	0	PA_without_intermediate	test	ward_and_allport	89	11.0	0.324	to_board	poldrack-single-stim	s626	False
0.1	158.55	0.795	159.345	0	PA_without_intermediate	test	ward_and_allport	71	11.0	0.795	to_hand	poldrack-single-stim	s626	False
0.1	159.347	0.281	159.628	0	PA_without_intermediate	test	ward_and_allport	82	11.0	0.281	to_board	poldrack-single-stim	s626	False
1.0	159.637	2.408	159.636	0	PA_without_intermediate	test	ward_and_allport	-1	11.0	n/a	feedback	poldrack-single-stim	s626	False
2.291	162.048	2.291	164.339	1	PA_with_intermediate	test	ward_and_allport	89	12.0	2.291	to_hand	poldrack-single-stim	s626	False
0.1	164.34	0.299	164.639	0	PA_with_intermediate	test	ward_and_allport	71	12.0	0.299	to_board	poldrack-single-stim	s626	False
0.1	164.644	0.275	164.919	0	PA_with_intermediate	test	ward_and_allport	89	12.0	0.275	to_hand	poldrack-single-stim	s626	False
0.1	164.92	0.41	165.33	0	PA_with_intermediate	test	ward_and_allport	82	12.0	0.41	to_board	poldrack-single-stim	s626	False
0.1	165.334	0.784	166.118	0	PA_with_intermediate	test	ward_and_allport	71	12.0	0.784	to_hand	poldrack-single-stim	s626	False
0.1	166.12	0.342	166.462	0	PA_with_intermediate	test	ward_and_allport	82	12.0	0.342	to_board	poldrack-single-stim	s626	False
1.0	166.469	3.768	166.468	0	PA_with_intermediate	test	ward_and_allport	-1	12.0	n/a	feedback	poldrack-single-stim	s626	False
1.948	170.24	1.948	172.188	1	PA_with_intermediate	test	ward_and_allport	71	13.0	1.948	to_hand	poldrack-single-stim	s626	False
0.1	172.189	0.35	172.539	0	PA_with_intermediate	test	ward_and_allport	82	13.0	0.35	to_board	poldrack-single-stim	s626	False
0.1	172.543	0.314	172.857	0	PA_with_intermediate	test	ward_and_allport	71	13.0	0.314	to_hand	poldrack-single-stim	s626	False
0.1	172.859	0.327	173.186	0	PA_with_intermediate	test	ward_and_allport	89	13.0	0.327	to_board	poldrack-single-stim	s626	False
0.1	173.189	0.336	173.525	0	PA_with_intermediate	test	ward_and_allport	82	13.0	0.336	to_hand	poldrack-single-stim	s626	False
0.1	173.527	0.269	173.796	0	PA_with_intermediate	test	ward_and_allport	89	13.0	0.269	to_board	poldrack-single-stim	s626	False
1.0	173.803	2.68	173.802	0	PA_with_intermediate	test	ward_and_allport	-1	13.0	n/a	feedback	poldrack-single-stim	s626	False
1.793	176.486	1.793	178.279	1	PA_without_intermediate	test	ward_and_allport	71	14.0	1.793	to_hand	poldrack-single-stim	s626	False
0.1	178.281	0.422	178.703	0	PA_without_intermediate	test	ward_and_allport	82	14.0	0.422	to_board	poldrack-single-stim	s626	False
0.1	178.707	0.299	179.006	0	PA_without_intermediate	test	ward_and_allport	71	14.0	0.299	to_hand	poldrack-single-stim	s626	False
0.1	179.007	0.367	179.374	0	PA_without_intermediate	test	ward_and_allport	82	14.0	0.367	to_board	poldrack-single-stim	s626	False
0.1	179.378	0.337	179.715	0	PA_without_intermediate	test	ward_and_allport	71	14.0	0.337	to_hand	poldrack-single-stim	s626	False
0.1	179.717	0.247	179.964	0	PA_without_intermediate	test	ward_and_allport	89	14.0	0.247	to_board	poldrack-single-stim	s626	False
1.0	179.968	3.224	179.967	0	PA_without_intermediate	test	ward_and_allport	-1	14.0	n/a	feedback	poldrack-single-stim	s626	False
2.29	188.202	2.29	190.492	1	PA_without_intermediate	test	ward_and_allport	89	15.0	2.29	to_hand	poldrack-single-stim	s626	False
0.1	190.492	0.44	190.932	0	PA_without_intermediate	test	ward_and_allport	82	15.0	0.44	to_board	poldrack-single-stim	s626	False
0.1	190.936	1.033	191.969	0	PA_without_intermediate	test	ward_and_allport	89	15.0	1.033	to_hand	poldrack-single-stim	s626	False
0.1	191.97	0.246	192.216	0	PA_without_intermediate	test	ward_and_allport	71	15.0	0.246	to_board	poldrack-single-stim	s626	False
0.1	192.221	0.56	192.781	0	PA_without_intermediate	test	ward_and_allport	89	15.0	0.56	to_hand	poldrack-single-stim	s626	False
0.1	192.781	0.305	193.086	0	PA_without_intermediate	test	ward_and_allport	82	15.0	0.305	to_board	poldrack-single-stim	s626	False
1.0	193.091	3.36	193.09	0	PA_without_intermediate	test	ward_and_allport	-1	15.0	n/a	feedback	poldrack-single-stim	s626	False
2.414	196.456	2.414	198.87	1	PA_without_intermediate	test	ward_and_allport	71	16.0	2.414	to_hand	poldrack-single-stim	s626	False
0.1	198.871	0.457	199.328	0	PA_without_intermediate	test	ward_and_allport	82	16.0	0.457	to_board	poldrack-single-stim	s626	False
0.1	199.332	0.331	199.663	0	PA_without_intermediate	test	ward_and_allport	71	16.0	0.331	to_hand	poldrack-single-stim	s626	False
0.1	199.665	0.302	199.967	0	PA_without_intermediate	test	ward_and_allport	82	16.0	0.302	to_board	poldrack-single-stim	s626	False
0.1	199.971	0.245	200.216	0	PA_without_intermediate	test	ward_and_allport	71	16.0	0.245	to_hand	poldrack-single-stim	s626	False
0.1	200.217	0.228	200.445	0	PA_without_intermediate	test	ward_and_allport	89	16.0	0.228	to_board	poldrack-single-stim	s626	False
1.0	200.451	2.0	200.45	0	PA_without_intermediate	test	ward_and_allport	-1	16.0	n/a	feedback	poldrack-single-stim	s626	False
1.885	202.456	1.885	204.341	1	PA_without_intermediate	test	ward_and_allport	89	17.0	1.885	to_hand	poldrack-single-stim	s626	False
0.1	204.341	0.295	204.636	0	PA_without_intermediate	test	ward_and_allport	82	17.0	0.295	to_board	poldrack-single-stim	s626	False
0.1	204.64	0.711	205.351	0	PA_without_intermediate	test	ward_and_allport	89	17.0	0.711	to_hand	poldrack-single-stim	s626	False
0.1	205.352	0.241	205.593	0	PA_without_intermediate	test	ward_and_allport	82	17.0	0.241	to_board	poldrack-single-stim	s626	False
0.1	205.598	0.667	206.265	0	PA_without_intermediate	test	ward_and_allport	89	17.0	0.667	to_hand	poldrack-single-stim	s626	False
0.1	206.267	0.32	206.587	0	PA_without_intermediate	test	ward_and_allport	71	17.0	0.32	to_board	poldrack-single-stim	s626	False
1.0	206.593	2.408	206.592	0	PA_without_intermediate	test	ward_and_allport	-1	17.0	n/a	feedback	poldrack-single-stim	s626	False
1.959	209.006	1.959	210.965	1	PA_with_intermediate	test	ward_and_allport	89	18.0	1.959	to_hand	poldrack-single-stim	s626	False
0.1	210.966	0.255	211.221	0	PA_with_intermediate	test	ward_and_allport	82	18.0	0.255	to_board	poldrack-single-stim	s626	False
0.1	211.226	0.528	211.754	0	PA_with_intermediate	test	ward_and_allport	89	18.0	0.528	to_hand	poldrack-single-stim	s626	False
0.1	211.755	0.251	212.006	0	PA_with_intermediate	test	ward_and_allport	71	18.0	0.251	to_board	poldrack-single-stim	s626	False
0.1	212.01	0.975	212.985	0	PA_with_intermediate	test	ward_and_allport	82	18.0	0.975	to_hand	poldrack-single-stim	s626	False
0.1	212.986	0.288	213.274	0	PA_with_intermediate	test	ward_and_allport	71	18.0	0.288	to_board	poldrack-single-stim	s626	False
1.0	213.281	2.136	213.28	0	PA_with_intermediate	test	ward_and_allport	-1	18.0	n/a	feedback	poldrack-single-stim	s626	False
2.828	215.422	2.828	218.25	1	PA_without_intermediate	test	ward_and_allport	89	19.0	2.828	to_hand	poldrack-single-stim	s626	False
0.1	218.251	0.273	218.524	0	PA_without_intermediate	test	ward_and_allport	71	19.0	0.273	to_board	poldrack-single-stim	s626	False
0.1	218.529	0.498	219.027	0	PA_without_intermediate	test	ward_and_allport	89	19.0	0.498	to_hand	poldrack-single-stim	s626	False
0.1	219.028	0.311	219.339	0	PA_without_intermediate	test	ward_and_allport	82	19.0	0.311	to_board	poldrack-single-stim	s626	False
0.1	219.345	0.529	219.874	0	PA_without_intermediate	test	ward_and_allport	71	19.0	0.529	to_hand	poldrack-single-stim	s626	False
0.1	219.875	1.011	220.886	0	PA_without_intermediate	test	ward_and_allport	71	19.0	1.011	to_board	poldrack-single-stim	s626	False
0.1	220.891	1.385	222.276	0	PA_without_intermediate	test	ward_and_allport	89	19.0	1.385	to_hand	poldrack-single-stim	s626	False
0.1	222.278	0.252	222.53	0	PA_without_intermediate	test	ward_and_allport	71	19.0	0.252	to_board	poldrack-single-stim	s626	False
1.0	222.54	5.128	222.539	0	PA_without_intermediate	test	ward_and_allport	-1	19.0	n/a	feedback	poldrack-single-stim	s626	False
2.174	227.673	2.174	229.847	1	PA_without_intermediate	test	ward_and_allport	71	20.0	2.174	to_hand	poldrack-single-stim	s626	False
0.1	229.848	0.304	230.152	0	PA_without_intermediate	test	ward_and_allport	89	20.0	0.304	to_board	poldrack-single-stim	s626	False
0.1	230.157	0.222	230.379	0	PA_without_intermediate	test	ward_and_allport	71	20.0	0.222	to_hand	poldrack-single-stim	s626	False
0.1	230.381	0.296	230.677	0	PA_without_intermediate	test	ward_and_allport	82	20.0	0.296	to_board	poldrack-single-stim	s626	False
0.1	230.683	0.918	231.601	0	PA_without_intermediate	test	ward_and_allport	71	20.0	0.918	to_hand	poldrack-single-stim	s626	False
0.1	231.603	0.292	231.895	0	PA_without_intermediate	test	ward_and_allport	89	20.0	0.292	to_board	poldrack-single-stim	s626	False
1.0	231.906	2.136	231.905	0	PA_without_intermediate	test	ward_and_allport	-1	20.0	n/a	feedback	poldrack-single-stim	s626	False
2.258	234.047	2.258	236.305	1	PA_without_intermediate	test	ward_and_allport	71	21.0	2.258	to_hand	poldrack-single-stim	s626	False
0.1	236.307	0.418	236.725	0	PA_without_intermediate	test	ward_and_allport	82	21.0	0.418	to_board	poldrack-single-stim	s626	False
0.1	236.731	0.332	237.063	0	PA_without_intermediate	test	ward_and_allport	71	21.0	0.332	to_hand	poldrack-single-stim	s626	False
0.1	237.065	0.289	237.354	0	PA_without_intermediate	test	ward_and_allport	89	21.0	0.289	to_board	poldrack-single-stim	s626	False
0.1	237.358	0.28	237.638	0	PA_without_intermediate	test	ward_and_allport	71	21.0	0.28	to_hand	poldrack-single-stim	s626	False
0.1	237.639	0.287	237.926	0	PA_without_intermediate	test	ward_and_allport	82	21.0	0.287	to_board	poldrack-single-stim	s626	False
1.0	237.938	5.264	237.937	0	PA_without_intermediate	test	ward_and_allport	-1	21.0	n/a	feedback	poldrack-single-stim	s626	False
3.974	243.209	3.974	247.183	1	PA_with_intermediate	test	ward_and_allport	71	22.0	3.974	to_hand	poldrack-single-stim	s626	False
0.1	247.183	0.252	247.435	0	PA_with_intermediate	test	ward_and_allport	89	22.0	0.252	to_board	poldrack-single-stim	s626	False
0.1	247.441	0.232	247.673	0	PA_with_intermediate	test	ward_and_allport	71	22.0	0.232	to_hand	poldrack-single-stim	s626	False
0.1	247.674	0.256	247.93	0	PA_with_intermediate	test	ward_and_allport	82	22.0	0.256	to_board	poldrack-single-stim	s626	False
0.1	247.936	0.232	248.168	0	PA_with_intermediate	test	ward_and_allport	89	22.0	0.232	to_hand	poldrack-single-stim	s626	False
0.1	248.169	0.241	248.41	0	PA_with_intermediate	test	ward_and_allport	71	22.0	0.241	to_board	poldrack-single-stim	s626	False
1.0	248.421	4.04	248.42	0	PA_with_intermediate	test	ward_and_allport	-1	22.0	n/a	feedback	poldrack-single-stim	s626	False
3.634	252.468	3.634	256.102	1	PA_with_intermediate	test	ward_and_allport	82	23.0	3.634	to_hand	poldrack-single-stim	s626	False
0.1	256.102	0.253	256.355	0	PA_with_intermediate	test	ward_and_allport	89	23.0	0.253	to_board	poldrack-single-stim	s626	False
0.1	256.361	1.035	257.396	0	PA_with_intermediate	test	ward_and_allport	82	23.0	1.035	to_hand	poldrack-single-stim	s626	False
0.1	257.397	0.257	257.654	0	PA_with_intermediate	test	ward_and_allport	71	23.0	0.257	to_board	poldrack-single-stim	s626	False
0.1	257.66	0.6	258.26	0	PA_with_intermediate	test	ward_and_allport	89	23.0	0.6	to_hand	poldrack-single-stim	s626	False
0.1	258.261	0.233	258.494	0	PA_with_intermediate	test	ward_and_allport	82	23.0	0.233	to_board	poldrack-single-stim	s626	False
1.0	258.504	2.136	258.503	0	PA_with_intermediate	test	ward_and_allport	-1	23.0	n/a	feedback	poldrack-single-stim	s626	False
3.051	260.645	3.051	263.696	1	PA_with_intermediate	test	ward_and_allport	89	24.0	3.051	to_hand	poldrack-single-stim	s626	False
0.1	263.697	0.253	263.95	0	PA_with_intermediate	test	ward_and_allport	82	24.0	0.253	to_board	poldrack-single-stim	s626	False
0.1	263.956	0.212	264.168	0	PA_with_intermediate	test	ward_and_allport	89	24.0	0.212	to_hand	poldrack-single-stim	s626	False
0.1	264.169	0.262	264.431	0	PA_with_intermediate	test	ward_and_allport	71	24.0	0.262	to_board	poldrack-single-stim	s626	False
0.1	264.437	0.324	264.761	0	PA_with_intermediate	test	ward_and_allport	82	24.0	0.324	to_hand	poldrack-single-stim	s626	False
0.1	264.763	0.223	264.986	0	PA_with_intermediate	test	ward_and_allport	89	24.0	0.223	to_board	poldrack-single-stim	s626	False
1.0	264.995	2.408	264.994	0	PA_with_intermediate	test	ward_and_allport	-1	24.0	n/a	feedback	poldrack-single-stim	s626	False
1.802	267.409	1.802	269.211	1	PA_without_intermediate	test	ward_and_allport	89	25.0	1.802	to_hand	poldrack-single-stim	s626	False
0.1	269.211	0.269	269.48	0	PA_without_intermediate	test	ward_and_allport	71	25.0	0.269	to_board	poldrack-single-stim	s626	False
0.1	269.487	0.485	269.972	0	PA_without_intermediate	test	ward_and_allport	89	25.0	0.485	to_hand	poldrack-single-stim	s626	False
0.1	269.972	0.377	270.349	0	PA_without_intermediate	test	ward_and_allport	82	25.0	0.377	to_board	poldrack-single-stim	s626	False
0.1	270.356	2.093	272.449	0	PA_without_intermediate	test	ward_and_allport	89	25.0	2.093	to_hand	poldrack-single-stim	s626	False
0.1	272.45	0.476	272.926	0	PA_without_intermediate	test	ward_and_allport	71	25.0	0.476	to_board	poldrack-single-stim	s626	False
1.0	272.937	2.68	272.936	0	PA_without_intermediate	test	ward_and_allport	-1	25.0	n/a	feedback	poldrack-single-stim	s626	False
3.281	275.622	3.281	278.903	1	PA_with_intermediate	test	ward_and_allport	82	26.0	3.281	to_hand	poldrack-single-stim	s626	False
0.1	278.904	0.311	279.215	0	PA_with_intermediate	test	ward_and_allport	71	26.0	0.311	to_board	poldrack-single-stim	s626	False
0.1	279.222	0.288	279.51	0	PA_with_intermediate	test	ward_and_allport	82	26.0	0.288	to_hand	poldrack-single-stim	s626	False
0.1	279.511	0.237	279.748	0	PA_with_intermediate	test	ward_and_allport	89	26.0	0.237	to_board	poldrack-single-stim	s626	False
0.1	279.754	0.439	280.193	0	PA_with_intermediate	test	ward_and_allport	71	26.0	0.439	to_hand	poldrack-single-stim	s626	False
0.1	280.195	0.339	280.534	0	PA_with_intermediate	test	ward_and_allport	82	26.0	0.339	to_board	poldrack-single-stim	s626	False
1.0	280.545	4.72	280.544	0	PA_with_intermediate	test	ward_and_allport	-1	26.0	n/a	feedback	poldrack-single-stim	s626	False
1.67	285.272	1.67	286.942	1	PA_without_intermediate	test	ward_and_allport	89	27.0	1.67	to_hand	poldrack-single-stim	s626	False
0.1	286.942	0.257	287.199	0	PA_without_intermediate	test	ward_and_allport	71	27.0	0.257	to_board	poldrack-single-stim	s626	False
0.1	287.205	0.235	287.44	0	PA_without_intermediate	test	ward_and_allport	89	27.0	0.235	to_hand	poldrack-single-stim	s626	False
0.1	287.442	0.28	287.722	0	PA_without_intermediate	test	ward_and_allport	71	27.0	0.28	to_board	poldrack-single-stim	s626	False
0.1	287.729	0.293	288.022	0	PA_without_intermediate	test	ward_and_allport	89	27.0	0.293	to_hand	poldrack-single-stim	s626	False
0.1	288.022	0.497	288.519	0	PA_without_intermediate	test	ward_and_allport	82	27.0	0.497	to_board	poldrack-single-stim	s626	False
1.0	288.527	3.224	288.526	0	PA_without_intermediate	test	ward_and_allport	-1	27.0	n/a	feedback	poldrack-single-stim	s626	False
2.799	291.758	2.799	294.557	1	PA_without_intermediate	test	ward_and_allport	71	28.0	2.799	to_hand	poldrack-single-stim	s626	False
0.1	294.557	0.286	294.843	0	PA_without_intermediate	test	ward_and_allport	89	28.0	0.286	to_board	poldrack-single-stim	s626	False
0.1	294.85	0.431	295.281	0	PA_without_intermediate	test	ward_and_allport	71	28.0	0.431	to_hand	poldrack-single-stim	s626	False
0.1	295.282	0.23	295.512	0	PA_without_intermediate	test	ward_and_allport	89	28.0	0.23	to_board	poldrack-single-stim	s626	False
0.1	295.518	0.3	295.818	0	PA_without_intermediate	test	ward_and_allport	71	28.0	0.3	to_hand	poldrack-single-stim	s626	False
0.1	295.82	0.262	296.082	0	PA_without_intermediate	test	ward_and_allport	82	28.0	0.262	to_board	poldrack-single-stim	s626	False
1.0	296.092	2.272	296.091	0	PA_without_intermediate	test	ward_and_allport	-1	28.0	n/a	feedback	poldrack-single-stim	s626	False
2.897	298.371	2.897	301.268	1	PA_with_intermediate	test	ward_and_allport	82	29.0	2.897	to_hand	poldrack-single-stim	s626	False
0.1	301.268	0.243	301.511	0	PA_with_intermediate	test	ward_and_allport	89	29.0	0.243	to_board	poldrack-single-stim	s626	False
0.1	301.518	0.406	301.924	0	PA_with_intermediate	test	ward_and_allport	82	29.0	0.406	to_hand	poldrack-single-stim	s626	False
0.1	301.925	0.274	302.199	0	PA_with_intermediate	test	ward_and_allport	71	29.0	0.274	to_board	poldrack-single-stim	s626	False
0.1	302.206	0.385	302.591	0	PA_with_intermediate	test	ward_and_allport	89	29.0	0.385	to_hand	poldrack-single-stim	s626	False
0.1	302.592	0.542	303.134	0	PA_with_intermediate	test	ward_and_allport	71	29.0	0.542	to_board	poldrack-single-stim	s626	False
1.0	303.143	3.632	303.142	0	PA_with_intermediate	test	ward_and_allport	-1	29.0	n/a	feedback	poldrack-single-stim	s626	False
2.94	311.785	2.94	314.725	1	PA_without_intermediate	test	ward_and_allport	82	30.0	2.94	to_hand	poldrack-single-stim	s626	False
0.1	314.726	0.222	314.948	0	PA_without_intermediate	test	ward_and_allport	89	30.0	0.222	to_board	poldrack-single-stim	s626	False
0.1	314.956	0.259	315.215	0	PA_without_intermediate	test	ward_and_allport	82	30.0	0.259	to_hand	poldrack-single-stim	s626	False
0.1	315.216	0.273	315.489	0	PA_without_intermediate	test	ward_and_allport	71	30.0	0.273	to_board	poldrack-single-stim	s626	False
0.1	315.497	0.612	316.109	0	PA_without_intermediate	test	ward_and_allport	82	30.0	0.612	to_hand	poldrack-single-stim	s626	False
0.1	316.11	0.228	316.338	0	PA_without_intermediate	test	ward_and_allport	89	30.0	0.228	to_board	poldrack-single-stim	s626	False
1.0	316.346	2.408	316.345	0	PA_without_intermediate	test	ward_and_allport	-1	30.0	n/a	feedback	poldrack-single-stim	s626	False
2.141	318.76	2.141	320.901	1	PA_without_intermediate	test	ward_and_allport	82	31.0	2.141	to_hand	poldrack-single-stim	s626	False
0.1	320.902	0.452	321.354	0	PA_without_intermediate	test	ward_and_allport	71	31.0	0.452	to_board	poldrack-single-stim	s626	False
0.1	321.361	0.686	322.047	0	PA_without_intermediate	test	ward_and_allport	82	31.0	0.686	to_hand	poldrack-single-stim	s626	False
0.1	322.049	0.268	322.317	0	PA_without_intermediate	test	ward_and_allport	89	31.0	0.268	to_board	poldrack-single-stim	s626	False
0.1	322.324	0.744	323.068	0	PA_without_intermediate	test	ward_and_allport	82	31.0	0.744	to_hand	poldrack-single-stim	s626	False
0.1	323.069	0.235	323.304	0	PA_without_intermediate	test	ward_and_allport	71	31.0	0.235	to_board	poldrack-single-stim	s626	False
1.0	323.315	2.0	323.314	0	PA_without_intermediate	test	ward_and_allport	-1	31.0	n/a	feedback	poldrack-single-stim	s626	False
3.136	325.322	3.136	328.458	1	PA_with_intermediate	test	ward_and_allport	71	32.0	3.136	to_hand	poldrack-single-stim	s626	False
0.1	328.458	0.223	328.681	0	PA_with_intermediate	test	ward_and_allport	89	32.0	0.223	to_board	poldrack-single-stim	s626	False
0.1	328.689	0.196	328.885	0	PA_with_intermediate	test	ward_and_allport	71	32.0	0.196	to_hand	poldrack-single-stim	s626	False
0.1	328.887	0.266	329.153	0	PA_with_intermediate	test	ward_and_allport	82	32.0	0.266	to_board	poldrack-single-stim	s626	False
0.1	329.161	0.274	329.435	0	PA_with_intermediate	test	ward_and_allport	89	32.0	0.274	to_hand	poldrack-single-stim	s626	False
0.1	329.436	0.227	329.663	0	PA_with_intermediate	test	ward_and_allport	71	32.0	0.227	to_board	poldrack-single-stim	s626	False
1.0	329.672	2.0	329.671	0	PA_with_intermediate	test	ward_and_allport	-1	32.0	n/a	feedback	poldrack-single-stim	s626	False
2.273	331.679	2.273	333.952	1	PA_with_intermediate	test	ward_and_allport	71	33.0	2.273	to_hand	poldrack-single-stim	s626	False
0.1	333.953	0.314	334.267	0	PA_with_intermediate	test	ward_and_allport	89	33.0	0.314	to_board	poldrack-single-stim	s626	False
0.1	334.272	0.255	334.527	0	PA_with_intermediate	test	ward_and_allport	71	33.0	0.255	to_hand	poldrack-single-stim	s626	False
0.1	334.529	0.329	334.858	0	PA_with_intermediate	test	ward_and_allport	82	33.0	0.329	to_board	poldrack-single-stim	s626	False
0.1	334.864	0.285	335.149	0	PA_with_intermediate	test	ward_and_allport	89	33.0	0.285	to_hand	poldrack-single-stim	s626	False
0.1	335.149	0.315	335.464	0	PA_with_intermediate	test	ward_and_allport	82	33.0	0.315	to_board	poldrack-single-stim	s626	False
1.0	335.475	2.0	335.474	0	PA_with_intermediate	test	ward_and_allport	-1	33.0	n/a	feedback	poldrack-single-stim	s626	False
2.947	337.481	2.947	340.428	1	PA_with_intermediate	test	ward_and_allport	82	34.0	2.947	to_hand	poldrack-single-stim	s626	False
0.1	340.429	0.286	340.715	0	PA_with_intermediate	test	ward_and_allport	71	34.0	0.286	to_board	poldrack-single-stim	s626	False
0.1	340.72	0.328	341.048	0	PA_with_intermediate	test	ward_and_allport	82	34.0	0.328	to_hand	poldrack-single-stim	s626	False
0.1	341.049	0.346	341.395	0	PA_with_intermediate	test	ward_and_allport	89	34.0	0.346	to_board	poldrack-single-stim	s626	False
0.1	341.403	0.265	341.668	0	PA_with_intermediate	test	ward_and_allport	71	34.0	0.265	to_hand	poldrack-single-stim	s626	False
0.1	341.669	0.223	341.892	0	PA_with_intermediate	test	ward_and_allport	89	34.0	0.223	to_board	poldrack-single-stim	s626	False
1.0	341.904	2.408	341.903	0	PA_with_intermediate	test	ward_and_allport	-1	34.0	n/a	feedback	poldrack-single-stim	s626	False
1.529	344.32	1.529	345.849	1	PA_without_intermediate	test	ward_and_allport	71	35.0	1.529	to_hand	poldrack-single-stim	s626	False
0.1	345.851	0.408	346.259	0	PA_without_intermediate	test	ward_and_allport	89	35.0	0.408	to_board	poldrack-single-stim	s626	False
0.1	346.265	0.256	346.521	0	PA_without_intermediate	test	ward_and_allport	71	35.0	0.256	to_hand	poldrack-single-stim	s626	False
0.1	346.522	0.526	347.048	0	PA_without_intermediate	test	ward_and_allport	82	35.0	0.526	to_board	poldrack-single-stim	s626	False
0.1	347.054	0.34	347.394	0	PA_without_intermediate	test	ward_and_allport	71	35.0	0.34	to_hand	poldrack-single-stim	s626	False
0.1	347.395	0.733	348.128	0	PA_without_intermediate	test	ward_and_allport	89	35.0	0.733	to_board	poldrack-single-stim	s626	False
1.0	348.137	2.816	348.136	0	PA_without_intermediate	test	ward_and_allport	-1	35.0	n/a	feedback	poldrack-single-stim	s626	False
1.701	350.959	1.701	352.66	1	PA_with_intermediate	test	ward_and_allport	71	36.0	1.701	to_hand	poldrack-single-stim	s626	False
0.1	352.661	0.249	352.91	0	PA_with_intermediate	test	ward_and_allport	89	36.0	0.249	to_board	poldrack-single-stim	s626	False
0.1	352.917	0.169	353.086	0	PA_with_intermediate	test	ward_and_allport	71	36.0	0.169	to_hand	poldrack-single-stim	s626	False
0.1	353.087	0.293	353.38	0	PA_with_intermediate	test	ward_and_allport	82	36.0	0.293	to_board	poldrack-single-stim	s626	False
0.1	353.386	0.231	353.617	0	PA_with_intermediate	test	ward_and_allport	89	36.0	0.231	to_hand	poldrack-single-stim	s626	False
0.1	353.617	0.209	353.826	0	PA_with_intermediate	test	ward_and_allport	82	36.0	0.209	to_board	poldrack-single-stim	s626	False
1.0	353.833	4.176	353.832	0	PA_with_intermediate	test	ward_and_allport	-1	36.0	n/a	feedback	poldrack-single-stim	s626	False
2.627	358.015	2.627	360.642	1	PA_with_intermediate	test	ward_and_allport	82	37.0	2.627	to_hand	poldrack-single-stim	s626	False
0.1	360.643	0.191	360.834	0	PA_with_intermediate	test	ward_and_allport	71	37.0	0.191	to_board	poldrack-single-stim	s626	False
0.1	360.84	0.236	361.076	0	PA_with_intermediate	test	ward_and_allport	82	37.0	0.236	to_hand	poldrack-single-stim	s626	False
0.1	361.076	0.265	361.341	0	PA_with_intermediate	test	ward_and_allport	89	37.0	0.265	to_board	poldrack-single-stim	s626	False
0.1	361.351	0.265	361.616	0	PA_with_intermediate	test	ward_and_allport	71	37.0	0.265	to_hand	poldrack-single-stim	s626	False
0.1	361.617	0.171	361.788	0	PA_with_intermediate	test	ward_and_allport	89	37.0	0.171	to_board	poldrack-single-stim	s626	False
1.0	361.799	3.36	361.798	0	PA_with_intermediate	test	ward_and_allport	-1	37.0	n/a	feedback	poldrack-single-stim	s626	False
2.436	365.166	2.436	367.602	1	PA_with_intermediate	test	ward_and_allport	82	38.0	2.436	to_hand	poldrack-single-stim	s626	False
0.1	367.602	0.168	367.77	0	PA_with_intermediate	test	ward_and_allport	89	38.0	0.168	to_board	poldrack-single-stim	s626	False
0.1	367.778	0.278	368.056	0	PA_with_intermediate	test	ward_and_allport	82	38.0	0.278	to_hand	poldrack-single-stim	s626	False
0.1	368.058	0.242	368.3	0	PA_with_intermediate	test	ward_and_allport	71	38.0	0.242	to_board	poldrack-single-stim	s626	False
0.1	368.31	0.255	368.565	0	PA_with_intermediate	test	ward_and_allport	89	38.0	0.255	to_hand	poldrack-single-stim	s626	False
0.1	368.566	0.244	368.81	0	PA_with_intermediate	test	ward_and_allport	71	38.0	0.244	to_board	poldrack-single-stim	s626	False
1.0	368.82	2.0	368.819	0	PA_with_intermediate	test	ward_and_allport	-1	38.0	n/a	feedback	poldrack-single-stim	s626	False
2.708	370.826	2.708	373.534	1	PA_without_intermediate	test	ward_and_allport	89	39.0	2.708	to_hand	poldrack-single-stim	s626	False
0.1	373.535	0.244	373.779	0	PA_without_intermediate	test	ward_and_allport	82	39.0	0.244	to_board	poldrack-single-stim	s626	False
0.1	373.784	1.422	375.206	0	PA_without_intermediate	test	ward_and_allport	89	39.0	1.422	to_hand	poldrack-single-stim	s626	False
0.1	375.207	0.307	375.514	0	PA_without_intermediate	test	ward_and_allport	82	39.0	0.307	to_board	poldrack-single-stim	s626	False
0.1	375.521	0.452	375.973	0	PA_without_intermediate	test	ward_and_allport	82	39.0	0.452	to_hand	poldrack-single-stim	s626	False
0.1	375.973	0.727	376.7	0	PA_without_intermediate	test	ward_and_allport	82	39.0	0.727	to_board	poldrack-single-stim	s626	False
0.1	376.71	0.853	377.563	0	PA_without_intermediate	test	ward_and_allport	89	39.0	0.853	to_hand	poldrack-single-stim	s626	False
0.1	377.563	0.215	377.778	0	PA_without_intermediate	test	ward_and_allport	71	39.0	0.215	to_board	poldrack-single-stim	s626	False
1.0	377.788	2.408	377.787	0	PA_without_intermediate	test	ward_and_allport	-1	39.0	n/a	feedback	poldrack-single-stim	s626	False
1.956	380.203	1.956	382.159	1	PA_with_intermediate	test	ward_and_allport	71	40.0	1.956	to_hand	poldrack-single-stim	s626	False
0.1	382.161	0.25	382.411	0	PA_with_intermediate	test	ward_and_allport	82	40.0	0.25	to_board	poldrack-single-stim	s626	False
0.1	382.417	0.767	383.184	0	PA_with_intermediate	test	ward_and_allport	71	40.0	0.767	to_hand	poldrack-single-stim	s626	False
0.1	383.184	0.262	383.446	0	PA_with_intermediate	test	ward_and_allport	89	40.0	0.262	to_board	poldrack-single-stim	s626	False
0.1	383.453	0.338	383.791	0	PA_with_intermediate	test	ward_and_allport	82	40.0	0.338	to_hand	poldrack-single-stim	s626	False
0.1	383.792	0.247	384.039	0	PA_with_intermediate	test	ward_and_allport	89	40.0	0.247	to_board	poldrack-single-stim	s626	False
1.0	384.047	2.816	384.046	0	PA_with_intermediate	test	ward_and_allport	-1	40.0	n/a	feedback	poldrack-single-stim	s626	False
4.027	386.871	4.027	390.898	1	PA_without_intermediate	test	ward_and_allport	82	41.0	4.027	to_hand	poldrack-single-stim	s626	False
0.1	390.899	0.291	391.19	0	PA_without_intermediate	test	ward_and_allport	71	41.0	0.291	to_board	poldrack-single-stim	s626	False
0.1	391.196	0.793	391.989	0	PA_without_intermediate	test	ward_and_allport	82	41.0	0.793	to_hand	poldrack-single-stim	s626	False
0.1	391.99	0.212	392.202	0	PA_without_intermediate	test	ward_and_allport	89	41.0	0.212	to_board	poldrack-single-stim	s626	False
0.1	392.211	0.524	392.735	0	PA_without_intermediate	test	ward_and_allport	82	41.0	0.524	to_hand	poldrack-single-stim	s626	False
0.1	392.737	0.256	392.993	0	PA_without_intermediate	test	ward_and_allport	71	41.0	0.256	to_board	poldrack-single-stim	s626	False
1.0	393.008	3.088	393.007	0	PA_without_intermediate	test	ward_and_allport	-1	41.0	n/a	feedback	poldrack-single-stim	s626	False
2.772	396.103	2.772	398.875	1	PA_without_intermediate	test	ward_and_allport	82	42.0	2.772	to_hand	poldrack-single-stim	s626	False
0.1	398.877	0.317	399.194	0	PA_without_intermediate	test	ward_and_allport	71	42.0	0.317	to_board	poldrack-single-stim	s626	False
0.1	399.204	0.315	399.519	0	PA_without_intermediate	test	ward_and_allport	82	42.0	0.315	to_hand	poldrack-single-stim	s626	False
0.1	399.519	0.307	399.826	0	PA_without_intermediate	test	ward_and_allport	71	42.0	0.307	to_board	poldrack-single-stim	s626	False
0.1	399.835	0.359	400.194	0	PA_without_intermediate	test	ward_and_allport	82	42.0	0.359	to_hand	poldrack-single-stim	s626	False
0.1	400.195	0.208	400.403	0	PA_without_intermediate	test	ward_and_allport	89	42.0	0.208	to_board	poldrack-single-stim	s626	False
1.0	400.413	2.136	400.412	0	PA_without_intermediate	test	ward_and_allport	-1	42.0	n/a	feedback	poldrack-single-stim	s626	False
2.634	402.556	2.634	405.19	1	PA_without_intermediate	test	ward_and_allport	82	43.0	2.634	to_hand	poldrack-single-stim	s626	False
0.1	405.191	0.532	405.723	0	PA_without_intermediate	test	ward_and_allport	71	43.0	0.532	to_board	poldrack-single-stim	s626	False
0.1	405.729	0.355	406.084	0	PA_without_intermediate	test	ward_and_allport	82	43.0	0.355	to_hand	poldrack-single-stim	s626	False
0.1	406.085	0.26	406.345	0	PA_without_intermediate	test	ward_and_allport	71	43.0	0.26	to_board	poldrack-single-stim	s626	False
0.1	406.353	0.231	406.584	0	PA_without_intermediate	test	ward_and_allport	82	43.0	0.231	to_hand	poldrack-single-stim	s626	False
0.1	406.584	0.18	406.764	0	PA_without_intermediate	test	ward_and_allport	89	43.0	0.18	to_board	poldrack-single-stim	s626	False
1.0	406.774	7.168	406.773	0	PA_without_intermediate	test	ward_and_allport	-1	43.0	n/a	feedback	poldrack-single-stim	s626	False
3.074	413.949	3.074	417.023	1	PA_without_intermediate	test	ward_and_allport	82	44.0	3.074	to_hand	poldrack-single-stim	s626	False
0.1	417.025	0.281	417.306	0	PA_without_intermediate	test	ward_and_allport	89	44.0	0.281	to_board	poldrack-single-stim	s626	False
0.1	417.315	0.26	417.575	0	PA_without_intermediate	test	ward_and_allport	82	44.0	0.26	to_hand	poldrack-single-stim	s626	False
0.1	417.575	0.202	417.777	0	PA_without_intermediate	test	ward_and_allport	71	44.0	0.202	to_board	poldrack-single-stim	s626	False
0.1	417.787	0.291	418.078	0	PA_without_intermediate	test	ward_and_allport	82	44.0	0.291	to_hand	poldrack-single-stim	s626	False
0.1	418.079	0.207	418.286	0	PA_without_intermediate	test	ward_and_allport	89	44.0	0.207	to_board	poldrack-single-stim	s626	False
1.0	418.298	2.816	418.297	0	PA_without_intermediate	test	ward_and_allport	-1	44.0	n/a	feedback	poldrack-single-stim	s626	False
2.861	426.126	2.861	428.987	1	PA_with_intermediate	test	ward_and_allport	71	45.0	2.861	to_hand	poldrack-single-stim	s626	False
0.1	428.988	0.321	429.309	0	PA_with_intermediate	test	ward_and_allport	82	45.0	0.321	to_board	poldrack-single-stim	s626	False
0.1	429.319	0.312	429.631	0	PA_with_intermediate	test	ward_and_allport	71	45.0	0.312	to_hand	poldrack-single-stim	s626	False
0.1	429.633	0.267	429.9	0	PA_with_intermediate	test	ward_and_allport	89	45.0	0.267	to_board	poldrack-single-stim	s626	False
0.1	429.91	0.281	430.191	0	PA_with_intermediate	test	ward_and_allport	82	45.0	0.281	to_hand	poldrack-single-stim	s626	False
0.1	430.191	0.238	430.429	0	PA_with_intermediate	test	ward_and_allport	71	45.0	0.238	to_board	poldrack-single-stim	s626	False
1.0	430.441	2.952	430.44	0	PA_with_intermediate	test	ward_and_allport	-1	45.0	n/a	feedback	poldrack-single-stim	s626	False
2.856	433.402	2.856	436.258	1	PA_with_intermediate	test	ward_and_allport	71	46.0	2.856	to_hand	poldrack-single-stim	s626	False
0.1	436.258	0.348	436.606	0	PA_with_intermediate	test	ward_and_allport	82	46.0	0.348	to_board	poldrack-single-stim	s626	False
0.1	436.615	0.268	436.883	0	PA_with_intermediate	test	ward_and_allport	71	46.0	0.268	to_hand	poldrack-single-stim	s626	False
0.1	436.884	0.297	437.181	0	PA_with_intermediate	test	ward_and_allport	89	46.0	0.297	to_board	poldrack-single-stim	s626	False
0.1	437.19	0.284	437.474	0	PA_with_intermediate	test	ward_and_allport	82	46.0	0.284	to_hand	poldrack-single-stim	s626	False
0.1	437.475	0.214	437.689	0	PA_with_intermediate	test	ward_and_allport	71	46.0	0.214	to_board	poldrack-single-stim	s626	False
1.0	437.7	2.136	437.699	0	PA_with_intermediate	test	ward_and_allport	-1	46.0	n/a	feedback	poldrack-single-stim	s626	False
1.455	439.846	1.455	441.301	1	PA_without_intermediate	test	ward_and_allport	82	47.0	1.455	to_hand	poldrack-single-stim	s626	False
0.1	441.301	0.203	441.504	0	PA_without_intermediate	test	ward_and_allport	89	47.0	0.203	to_board	poldrack-single-stim	s626	False
0.1	441.514	0.231	441.745	0	PA_without_intermediate	test	ward_and_allport	82	47.0	0.231	to_hand	poldrack-single-stim	s626	False
0.1	441.746	0.377	442.123	0	PA_without_intermediate	test	ward_and_allport	89	47.0	0.377	to_board	poldrack-single-stim	s626	False
0.1	442.131	1.074	443.205	0	PA_without_intermediate	test	ward_and_allport	82	47.0	1.074	to_hand	poldrack-single-stim	s626	False
0.1	443.206	0.158	443.364	0	PA_without_intermediate	test	ward_and_allport	71	47.0	0.158	to_board	poldrack-single-stim	s626	False
1.0	443.375	2.68	443.374	0	PA_without_intermediate	test	ward_and_allport	-1	47.0	n/a	feedback	poldrack-single-stim	s626	False
