onset	duration	movement_onset	EV	action	block_duration	experiment_exp_id	gain_amount	gain_probability	key_press	loss_amount	loss_probability	num_cards	num_click_in_round	num_loss_cards	risk	response_time	total_cards	trial_id	trial_type	worker_id	junk	feedback
3.013	5.224	8.237	0.4641748335908171	draw_card	5.224	columbia_card_task_fmri	12.0	0.8333333333333334	89.0	-70.0	0.1666666666666666	6.0	1.0	1.0	-3.816310679951158	5.224	n/a	stim	poldrack-single-stim	s626	False	1
8.239	1.678	9.917	-2.2691584997425154	draw_card	1.678	columbia_card_task_fmri	12.0	0.8	89.0	-70.0	0.2	6.0	2.0	1.0	-1.5809634824796817	1.678	n/a	stim	poldrack-single-stim	s626	False	1
9.918	1.893	11.811	-6.369158499742516	draw_card	1.893	columbia_card_task_fmri	12.0	0.75	89.0	-70.0	0.25	6.0	3.0	1.0	1.1208165840650182	1.893	n/a	stim	poldrack-single-stim	s626	False	1
11.812	1.231	13.043	-13.202491833075849	end_round	1.231	columbia_card_task_fmri	12.0	0.6666666666666667	71.0	-70.0	0.3333333333333333	6.0	4.0	1.0	4.263751466588587	1.231	3.0	stim	poldrack-single-stim	s626	False	1
13.796	1.5	13.045	n/a	-1.0	2.454	columbia_card_task_fmri	n/a	n/a	-1.0	n/a	n/a	n/a	n/a	n/a	n/a	n/a	n/a	ITI	poldrack-single-stim	s626	False	0
15.5	2.016	17.516	1.297508166924151	draw_card	2.016	columbia_card_task_fmri	14.0	0.8333333333333334	89.0	-75.0	0.1666666666666666	6.0	1.0	1.0	-1.2133880630288445	2.016	n/a	stim	poldrack-single-stim	s626	False	1
17.517	1.581	19.098	-1.6691584997425155	draw_card	1.581	columbia_card_task_fmri	14.0	0.8	89.0	-75.0	0.2	6.0	2.0	1.0	1.2136085234020155	1.581	n/a	stim	poldrack-single-stim	s626	False	1
19.102	0.455	19.557	-6.119158499742516	draw_card	0.455	columbia_card_task_fmri	14.0	0.75	89.0	-75.0	0.25	6.0	3.0	1.0	4.146889188271807	0.455	3.0	stim	poldrack-single-stim	s626	False	0
20.313	1.5	19.562	n/a	-1.0	2.454	columbia_card_task_fmri	n/a	n/a	-1.0	n/a	n/a	n/a	n/a	n/a	n/a	n/a	n/a	ITI	poldrack-single-stim	s626	False	0
22.018	3.067	25.085	2.964174833590817	draw_card	3.067	columbia_card_task_fmri	15.0	0.8333333333333334	89.0	-70.0	0.1666666666666666	6.0	1.0	1.0	-2.700889465594092	3.067	n/a	stim	poldrack-single-stim	s626	False	1
25.086	0.848	25.934	0.1308415002574832	draw_card	0.848	columbia_card_task_fmri	15.0	0.8	89.0	-70.0	0.2	6.0	2.0	1.0	-0.3833989173880852	0.848	n/a	stim	poldrack-single-stim	s626	False	1
25.936	1.43	27.366	-4.119158499742516	draw_card	1.43	columbia_card_task_fmri	15.0	0.75	89.0	-70.0	0.25	6.0	3.0	1.0	2.4176039265849383	1.43	n/a	stim	poldrack-single-stim	s626	False	1
27.367	0.962	28.329	-11.202491833075849	end_round	0.962	columbia_card_task_fmri	15.0	0.6666666666666667	71.0	-70.0	0.3333333333333333	6.0	4.0	1.0	5.675896731165999	0.962	3.0	stim	poldrack-single-stim	s626	False	1
29.085	1.5	28.334	n/a	-1.0	2.522	columbia_card_task_fmri	n/a	n/a	-1.0	n/a	n/a	n/a	n/a	n/a	n/a	n/a	n/a	ITI	poldrack-single-stim	s626	False	0
30.859	3.232	34.091	3.797508166924151	draw_card	3.232	columbia_card_task_fmri	17.0	0.8333333333333334	89.0	-75.0	0.1666666666666666	6.0	1.0	1.0	-0.097579347749459	3.232	n/a	stim	poldrack-single-stim	s626	False	1
34.093	1.912	36.005	0.7308415002574846	draw_card	1.912	columbia_card_task_fmri	17.0	0.8	89.0	-75.0	0.2	6.0	2.0	1.0	2.411534430434209	1.912	n/a	stim	poldrack-single-stim	s626	False	1
36.006	0.506	36.512	-3.869158499742517	draw_card	0.506	columbia_card_task_fmri	17.0	0.75	89.0	-75.0	0.25	6.0	3.0	1.0	5.444010600235551	0.506	n/a	stim	poldrack-single-stim	s626	False	1
36.513	1.835	38.348	-11.535825166409182	draw_card	1.835	columbia_card_task_fmri	17.0	0.6666666666666667	89.0	-75.0	0.3333333333333333	6.0	4.0	1.0	8.971425904808235	1.835	4.0	stim	poldrack-single-stim	s626	False	0
39.102	1.5	38.351	n/a	-1.0	2.454	columbia_card_task_fmri	n/a	n/a	-1.0	n/a	n/a	n/a	n/a	n/a	n/a	n/a	n/a	ITI	poldrack-single-stim	s626	False	0
40.808	2.903	43.711	5.130841500257484	draw_card	2.903	columbia_card_task_fmri	24.0	0.75	89.0	-60.0	0.25	8.0	1.0	2.0	1.98532366190598	2.903	n/a	stim	poldrack-single-stim	s626	False	1
43.712	1.476	45.188	2.130841500257483	draw_card	1.476	columbia_card_task_fmri	24.0	0.7142857142857143	89.0	-60.0	0.2857142857142857	8.0	2.0	2.0	3.557005660421801	1.476	2.0	stim	poldrack-single-stim	s626	False	0
45.945	1.5	45.194	n/a	-1.0	2.658	columbia_card_task_fmri	n/a	n/a	-1.0	n/a	n/a	n/a	n/a	n/a	n/a	n/a	n/a	ITI	poldrack-single-stim	s626	False	0
47.853	0.979	48.832	5.130841500257484	draw_card	0.979	columbia_card_task_fmri	29.0	0.75	89.0	-75.0	0.25	8.0	1.0	2.0	10.633599995775576	0.979	1.0	stim	poldrack-single-stim	s626	False	0
49.588	1.5	48.837	n/a	-1.0	2.386	columbia_card_task_fmri	n/a	n/a	-1.0	n/a	n/a	n/a	n/a	n/a	n/a	n/a	n/a	ITI	poldrack-single-stim	s626	False	0
51.224	3.941	55.165	0.9086192780352635	draw_card	3.941	columbia_card_task_fmri	17.0	0.7777777777777778	89.0	-65.0	0.2222222222222222	9.0	1.0	2.0	-0.2929197710275915	3.941	n/a	stim	poldrack-single-stim	s626	False	1
55.167	1.791	56.958	-1.3691584997425168	draw_card	1.791	columbia_card_task_fmri	17.0	0.75	89.0	-65.0	0.25	9.0	2.0	2.0	1.1208165840650182	1.791	n/a	stim	poldrack-single-stim	s626	False	1
56.96	1.317	58.277	-4.297729928313943	draw_card	1.317	columbia_card_task_fmri	17.0	0.7142857142857143	89.0	-65.0	0.2857142857142857	9.0	3.0	2.0	2.6549534058298008	1.317	n/a	stim	poldrack-single-stim	s626	False	1
58.277	6.328	64.605	-8.202491833075847	draw_card	6.328	columbia_card_task_fmri	17.0	0.6666666666666667	89.0	-65.0	0.3333333333333333	9.0	4.0	2.0	4.263751466588587	6.328	4.0	stim	poldrack-single-stim	s626	False	0
65.361	1.5	64.61	n/a	-1.0	2.522	columbia_card_task_fmri	n/a	n/a	-1.0	n/a	n/a	n/a	n/a	n/a	n/a	n/a	n/a	ITI	poldrack-single-stim	s626	False	0
67.135	0.724	67.859	5.230841500257483	draw_card	0.724	columbia_card_task_fmri	14.0	0.9	89.0	-95.0	0.1	10.0	1.0	1.0	-1.6807524863516932	0.724	n/a	stim	poldrack-single-stim	s626	False	1
67.861	2.469	70.33	4.019730389146371	draw_card	2.469	columbia_card_task_fmri	14.0	0.8888888888888888	89.0	-95.0	0.1111111111111111	10.0	2.0	1.0	-0.1285001144685011	2.469	n/a	stim	poldrack-single-stim	s626	False	1
70.332	0.545	70.877	2.505841500257483	draw_card	0.545	columbia_card_task_fmri	14.0	0.875	89.0	-95.0	0.125	10.0	3.0	1.0	1.6611790672812887	0.545	n/a	stim	poldrack-single-stim	s626	False	1
70.879	0.561	71.44	0.559412928828912	draw_card	0.561	columbia_card_task_fmri	14.0	0.8571428571428572	89.0	-95.0	0.1428571428571428	10.0	4.0	1.0	3.751423597133112	0.561	n/a	stim	poldrack-single-stim	s626	False	1
71.442	0.893	72.335	-2.035825166409181	draw_card	0.893	columbia_card_task_fmri	14.0	0.8333333333333334	89.0	-95.0	0.1666666666666666	10.0	5.0	1.0	6.227645034922503	0.893	n/a	stim	poldrack-single-stim	s626	False	1
72.336	2.198	74.534	-5.669158499742515	draw_card	2.198	columbia_card_task_fmri	14.0	0.8	89.0	-95.0	0.2	10.0	6.0	1.0	9.201933406908893	2.198	n/a	stim	poldrack-single-stim	s626	False	1
74.535	1.78	76.315	-11.119158499742516	end_round	1.78	columbia_card_task_fmri	14.0	0.75	71.0	-95.0	0.25	10.0	7.0	1.0	12.796354705865724	1.78	6.0	stim	poldrack-single-stim	s626	False	1
77.069	1.5	76.318	n/a	-1.0	2.59	columbia_card_task_fmri	n/a	n/a	-1.0	n/a	n/a	n/a	n/a	n/a	n/a	n/a	n/a	ITI	poldrack-single-stim	s626	False	0
78.911	1.617	80.528	1.1308415002574832	draw_card	1.617	columbia_card_task_fmri	15.0	0.8	89.0	-65.0	0.2	10.0	1.0	2.0	-2.3792387095718723	1.617	n/a	stim	poldrack-single-stim	s626	False	1
80.53	1.399	81.929	-0.6469362775202936	draw_card	1.399	columbia_card_task_fmri	15.0	0.7777777777777778	89.0	-65.0	0.2222222222222222	10.0	2.0	2.0	-1.122739317927106	1.399	n/a	stim	poldrack-single-stim	s626	False	1
81.929	0.489	82.418	-2.869158499742517	draw_card	0.489	columbia_card_task_fmri	15.0	0.75	89.0	-65.0	0.25	10.0	3.0	2.0	0.2563852129632948	0.489	n/a	stim	poldrack-single-stim	s626	False	1
82.42	1.203	83.623	-5.7263013568853705	draw_card	1.203	columbia_card_task_fmri	15.0	0.7142857142857143	89.0	-65.0	0.2857142857142857	10.0	4.0	2.0	1.7529737490195316	1.203	4.0	stim	poldrack-single-stim	s626	False	0
84.378	1.5	83.627	n/a	-1.0	2.386	columbia_card_task_fmri	n/a	n/a	-1.0	n/a	n/a	n/a	n/a	n/a	n/a	n/a	n/a	ITI	poldrack-single-stim	s626	False	0
86.016	2.444	88.46	2.7308415002574846	draw_card	2.444	columbia_card_task_fmri	17.0	0.8	89.0	-65.0	0.2	10.0	1.0	2.0	-1.5809634824796817	2.444	n/a	stim	poldrack-single-stim	s626	False	1
88.462	1.141	89.603	0.9086192780352635	draw_card	1.141	columbia_card_task_fmri	17.0	0.7777777777777778	89.0	-65.0	0.2222222222222222	10.0	2.0	2.0	-0.2929197710275915	1.141	n/a	stim	poldrack-single-stim	s626	False	1
89.604	1.941	91.545	-1.3691584997425168	draw_card	1.941	columbia_card_task_fmri	17.0	0.75	89.0	-65.0	0.25	10.0	3.0	2.0	1.1208165840650182	1.941	n/a	stim	poldrack-single-stim	s626	False	1
91.547	2.891	94.438	-4.297729928313943	draw_card	2.891	columbia_card_task_fmri	17.0	0.7142857142857143	89.0	-65.0	0.2857142857142857	10.0	4.0	2.0	2.6549534058298008	2.891	n/a	stim	poldrack-single-stim	s626	False	1
94.44	2.053	96.493	-8.202491833075847	end_round	2.053	columbia_card_task_fmri	17.0	0.6666666666666667	71.0	-65.0	0.3333333333333333	10.0	5.0	2.0	4.263751466588587	2.053	4.0	stim	poldrack-single-stim	s626	False	1
97.247	1.5	96.496	n/a	-1.0	2.59	columbia_card_task_fmri	n/a	n/a	-1.0	n/a	n/a	n/a	n/a	n/a	n/a	n/a	n/a	ITI	poldrack-single-stim	s626	False	0
99.088	2.036	101.124	1.297508166924151	draw_card	2.036	columbia_card_task_fmri	13.0	0.8333333333333334	89.0	-70.0	0.1666666666666666	12.0	1.0	2.0	-3.4445245205498445	2.036	n/a	stim	poldrack-single-stim	s626	False	1
101.126	2.041	103.167	0.0399324093483897	draw_card	2.041	columbia_card_task_fmri	13.0	0.8181818181818181	89.0	-70.0	0.1818181818181818	12.0	2.0	2.0	-2.3666141991898257	2.041	n/a	stim	poldrack-single-stim	s626	False	1
103.168	0.469	103.637	-1.4691584997425164	draw_card	0.469	columbia_card_task_fmri	13.0	0.8	89.0	-70.0	0.2	12.0	3.0	2.0	-1.1817947958599788	0.469	n/a	stim	poldrack-single-stim	s626	False	1
103.64	0.898	104.538	-3.313602944186961	draw_card	0.898	columbia_card_task_fmri	13.0	0.7777777777777778	89.0	-70.0	0.2222222222222222	12.0	4.0	2.0	0.1220199132113677	0.898	n/a	stim	poldrack-single-stim	s626	False	1
104.54	1.262	105.802	-5.619158499742516	draw_card	1.262	columbia_card_task_fmri	13.0	0.75	89.0	-70.0	0.25	12.0	5.0	2.0	1.5530610004821952	1.262	n/a	stim	poldrack-single-stim	s626	False	1
105.803	2.43	108.233	-8.58344421402823	end_round	2.43	columbia_card_task_fmri	13.0	0.7142857142857143	71.0	-70.0	0.2857142857142857	12.0	6.0	2.0	3.1059707853392737	2.43	5.0	stim	poldrack-single-stim	s626	False	1
108.986	1.5	108.235	n/a	-1.0	2.318	columbia_card_task_fmri	n/a	n/a	-1.0	n/a	n/a	n/a	n/a	n/a	n/a	n/a	n/a	ITI	poldrack-single-stim	s626	False	0
110.556	3.588	114.144	1.297508166924151	draw_card	3.588	columbia_card_task_fmri	15.0	0.8333333333333334	89.0	-80.0	0.1666666666666666	12.0	1.0	2.0	1.0183695179240289	3.588	n/a	stim	poldrack-single-stim	s626	False	1
114.146	0.456	114.602	-0.1418857724697919	draw_card	0.456	columbia_card_task_fmri	15.0	0.8181818181818181	89.0	-80.0	0.1818181818181818	12.0	2.0	2.0	2.2527892329317183	0.456	n/a	stim	poldrack-single-stim	s626	False	1
114.604	1.395	115.999	-1.8691584997425168	draw_card	1.395	columbia_card_task_fmri	15.0	0.8	89.0	-80.0	0.2	12.0	3.0	2.0	3.6095910145415786	1.395	3.0	stim	poldrack-single-stim	s626	False	0
116.756	1.5	116.005	n/a	-1.0	2.25	columbia_card_task_fmri	n/a	n/a	-1.0	n/a	n/a	n/a	n/a	n/a	n/a	n/a	n/a	ITI	poldrack-single-stim	s626	False	0
118.258	4.169	122.427	0.3308415002574842	draw_card	4.169	columbia_card_task_fmri	14.0	0.8	89.0	-65.0	0.2	15.0	1.0	3.0	-2.778343683673306	4.169	n/a	stim	poldrack-single-stim	s626	False	1
122.428	0.738	123.166	-0.7977299283139438	draw_card	0.738	columbia_card_task_fmri	14.0	0.7857142857142857	89.0	-65.0	0.2142857142857142	15.0	2.0	3.0	-1.9643992728140347	0.738	n/a	stim	poldrack-single-stim	s626	False	1
123.169	1.276	124.445	-2.0999277305117485	draw_card	1.276	columbia_card_task_fmri	14.0	0.7692307692307692	89.0	-65.0	0.2307692307692307	15.0	3.0	3.0	-1.0972897324836095	1.276	3.0	stim	poldrack-single-stim	s626	False	0
125.202	1.5	124.451	n/a	-1.0	2.454	columbia_card_task_fmri	n/a	n/a	-1.0	n/a	n/a	n/a	n/a	n/a	n/a	n/a	n/a	ITI	poldrack-single-stim	s626	False	0
126.907	4.522	131.429	0.2558415002574832	end_round	4.522	columbia_card_task_fmri	1.0	0.9375	71.0	-45.0	0.0625	16.0	1.0	1.0	-23.113224780203943	4.522	0.0	stim	poldrack-single-stim	s626	False	1
132.184	1.5	131.433	n/a	-1.0	3.27	columbia_card_task_fmri	n/a	n/a	-1.0	n/a	n/a	n/a	n/a	n/a	n/a	n/a	n/a	ITI	poldrack-single-stim	s626	False	0
134.706	2.819	137.525	1.1933415002574832	draw_card	2.819	columbia_card_task_fmri	15.0	0.8125	89.0	-70.0	0.1875	16.0	1.0	3.0	-1.205194748893554	2.819	1.0	stim	poldrack-single-stim	s626	False	0
138.282	1.5	137.531	n/a	-1.0	2.25	columbia_card_task_fmri	n/a	n/a	-1.0	n/a	n/a	n/a	n/a	n/a	n/a	n/a	n/a	ITI	poldrack-single-stim	s626	False	0
139.784	3.021	142.805	8.130841500257484	draw_card	3.021	columbia_card_task_fmri	30.0	0.7	89.0	-50.0	0.3	10.0	1.0	3.0	2.2723739684730617	3.021	n/a	stim	poldrack-single-stim	s626	False	1
142.807	1.85	144.657	5.464174833590823	draw_card	1.85	columbia_card_task_fmri	30.0	0.6666666666666667	89.0	-50.0	0.3333333333333333	10.0	2.0	3.0	3.32240726922182	1.85	2.0	stim	poldrack-single-stim	s626	False	0
145.412	1.5	144.661	n/a	-1.0	2.25	columbia_card_task_fmri	n/a	n/a	-1.0	n/a	n/a	n/a	n/a	n/a	n/a	n/a	n/a	ITI	poldrack-single-stim	s626	False	0
146.914	0.896	147.81	7.530841500257484	draw_card	0.896	columbia_card_task_fmri	17.0	0.8666666666666667	89.0	-70.0	0.1333333333333333	15.0	1.0	2.0	-4.799127508624441	0.896	1.0	stim	poldrack-single-stim	s626	False	0
148.562	1.5	147.811	n/a	-1.0	2.318	columbia_card_task_fmri	n/a	n/a	-1.0	n/a	n/a	n/a	n/a	n/a	n/a	n/a	n/a	ITI	poldrack-single-stim	s626	False	0
150.132	1.746	151.878	2.755841500257483	draw_card	1.746	columbia_card_task_fmri	7.0	0.9375	89.0	-95.0	0.0625	16.0	1.0	1.0	-9.668058184530466	1.746	1.0	stim	poldrack-single-stim	s626	False	0
152.633	1.5	151.882	n/a	-1.0	2.726	columbia_card_task_fmri	n/a	n/a	-1.0	n/a	n/a	n/a	n/a	n/a	n/a	n/a	n/a	ITI	poldrack-single-stim	s626	False	0
154.611	2.144	156.755	4.318341500257484	end_round	2.144	columbia_card_task_fmri	9.0	0.9375	71.0	-100.0	0.0625	16.0	1.0	1.0	-7.979502210967436	2.144	0.0	stim	poldrack-single-stim	s626	False	1
157.51	1.5	156.759	n/a	-1.0	2.386	columbia_card_task_fmri	n/a	n/a	-1.0	n/a	n/a	n/a	n/a	n/a	n/a	n/a	n/a	ITI	poldrack-single-stim	s626	False	0
159.149	1.267	160.416	5.255841500257484	draw_card	1.267	columbia_card_task_fmri	15.0	0.875	89.0	-80.0	0.125	16.0	1.0	2.0	-2.959632790196572	1.267	1.0	stim	poldrack-single-stim	s626	False	0
161.169	1.5	160.418	n/a	-1.0	2.318	columbia_card_task_fmri	n/a	n/a	-1.0	n/a	n/a	n/a	n/a	n/a	n/a	n/a	n/a	ITI	poldrack-single-stim	s626	False	0
162.739	1.026	163.765	7.380841500257484	end_round	1.026	columbia_card_task_fmri	16.0	0.875	71.0	-70.0	0.125	16.0	1.0	2.0	-5.928569856718923	1.026	0.0	stim	poldrack-single-stim	s626	False	1
164.522	1.5	163.771	n/a	-1.0	2.25	columbia_card_task_fmri	n/a	n/a	-1.0	n/a	n/a	n/a	n/a	n/a	n/a	n/a	n/a	ITI	poldrack-single-stim	s626	False	0
166.025	2.615	168.64	8.693341500257484	draw_card	2.615	columbia_card_task_fmri	30.0	0.6875	89.0	-45.0	0.3125	16.0	1.0	5.0	0.3785693441803275	2.615	n/a	stim	poldrack-single-stim	s626	False	1
168.643	4.813	173.456	7.130841500257487	draw_card	4.813	columbia_card_task_fmri	30.0	0.6666666666666667	89.0	-45.0	0.3333333333333333	16.0	2.0	5.0	0.9693876903011258	4.813	2.0	stim	poldrack-single-stim	s626	False	0
174.208	1.5	173.457	n/a	-1.0	2.25	columbia_card_task_fmri	n/a	n/a	-1.0	n/a	n/a	n/a	n/a	n/a	n/a	n/a	n/a	ITI	poldrack-single-stim	s626	False	0
175.71	2.426	178.136	0.4641748335908171	draw_card	2.426	columbia_card_task_fmri	13.0	0.8333333333333334	89.0	-75.0	0.1666666666666666	6.0	1.0	1.0	-1.585290689598807	2.426	n/a	stim	poldrack-single-stim	s626	False	1
178.139	1.823	179.962	-2.4691584997425164	end_round	1.823	columbia_card_task_fmri	13.0	0.8	71.0	-75.0	0.2	6.0	2.0	1.0	0.8143312288588049	1.823	1.0	stim	poldrack-single-stim	s626	False	1
180.719	1.5	179.968	n/a	-1.0	2.454	columbia_card_task_fmri	n/a	n/a	-1.0	n/a	n/a	n/a	n/a	n/a	n/a	n/a	n/a	ITI	poldrack-single-stim	s626	False	0
182.424	3.866	186.29	2.130841500257485	draw_card	3.866	columbia_card_task_fmri	14.0	0.8333333333333334	89.0	-70.0	0.1666666666666666	6.0	1.0	1.0	-3.0727172012996604	3.866	n/a	stim	poldrack-single-stim	s626	False	1
186.292	1.088	187.38	-0.6691584997425157	draw_card	1.088	columbia_card_task_fmri	14.0	0.8	89.0	-70.0	0.2	6.0	2.0	1.0	-0.7826063762681912	1.088	n/a	stim	poldrack-single-stim	s626	False	1
187.381	2.558	189.939	-4.869158499742516	draw_card	2.558	columbia_card_task_fmri	14.0	0.75	89.0	-70.0	0.25	6.0	3.0	1.0	1.98532366190598	2.558	n/a	stim	poldrack-single-stim	s626	False	1
189.942	0.849	190.791	-11.869158499742516	end_round	0.849	columbia_card_task_fmri	14.0	0.6666666666666667	71.0	-70.0	0.3333333333333333	6.0	4.0	1.0	5.205165263616479	0.849	3.0	stim	poldrack-single-stim	s626	False	1
191.546	1.5	190.795	n/a	-1.0	2.454	columbia_card_task_fmri	n/a	n/a	-1.0	n/a	n/a	n/a	n/a	n/a	n/a	n/a	n/a	ITI	poldrack-single-stim	s626	False	0
193.251	1.607	194.858	2.130841500257485	draw_card	1.607	columbia_card_task_fmri	16.0	0.8333333333333334	89.0	-80.0	0.1666666666666666	6.0	1.0	1.0	1.3903813550174815	1.607	n/a	stim	poldrack-single-stim	s626	False	1
194.86	1.042	195.902	-1.069158499742516	draw_card	1.042	columbia_card_task_fmri	16.0	0.8	89.0	-80.0	0.2	6.0	2.0	1.0	4.008970137856394	1.042	n/a	stim	poldrack-single-stim	s626	False	1
195.905	1.384	197.289	-5.869158499742516	draw_card	1.384	columbia_card_task_fmri	16.0	0.75	89.0	-80.0	0.25	6.0	3.0	1.0	7.173691780192897	1.384	3.0	stim	poldrack-single-stim	s626	False	0
198.044	1.5	197.293	n/a	-1.0	2.522	columbia_card_task_fmri	n/a	n/a	-1.0	n/a	n/a	n/a	n/a	n/a	n/a	n/a	n/a	ITI	poldrack-single-stim	s626	False	0
199.819	0.491	200.31	4.630841500257485	draw_card	0.491	columbia_card_task_fmri	17.0	0.8333333333333334	89.0	-70.0	0.1666666666666666	6.0	1.0	1.0	-1.9571755484451288	0.491	n/a	stim	poldrack-single-stim	s626	False	1
200.312	1.284	201.596	1.7308415002574846	draw_card	1.284	columbia_card_task_fmri	17.0	0.8	89.0	-70.0	0.2	6.0	2.0	1.0	0.4150705021998959	1.284	n/a	stim	poldrack-single-stim	s626	False	1
201.599	2.65	204.249	-2.619158499742517	draw_card	2.65	columbia_card_task_fmri	17.0	0.75	89.0	-70.0	0.25	6.0	3.0	1.0	3.282214845623855	2.65	n/a	stim	poldrack-single-stim	s626	False	1
204.253	1.688	205.941	-9.869158499742516	end_round	1.688	columbia_card_task_fmri	17.0	0.6666666666666667	71.0	-70.0	0.3333333333333333	6.0	4.0	1.0	6.617405988139801	1.688	3.0	stim	poldrack-single-stim	s626	False	1
206.697	1.5	205.946	n/a	-1.0	2.386	columbia_card_task_fmri	n/a	n/a	-1.0	n/a	n/a	n/a	n/a	n/a	n/a	n/a	n/a	ITI	poldrack-single-stim	s626	False	0
208.336	0.883	209.219	4.630841500257484	draw_card	0.883	columbia_card_task_fmri	25.0	0.75	89.0	-65.0	0.25	8.0	1.0	2.0	4.579248826165077	0.883	n/a	stim	poldrack-single-stim	s626	False	1
209.221	1.81	211.031	1.4165557859717717	draw_card	1.81	columbia_card_task_fmri	25.0	0.7142857142857143	89.0	-65.0	0.2857142857142857	8.0	2.0	2.0	6.263549754654093	1.81	n/a	stim	poldrack-single-stim	s626	False	1
211.033	2.069	213.102	-2.869158499742513	draw_card	2.069	columbia_card_task_fmri	25.0	0.6666666666666667	89.0	-65.0	0.3333333333333333	8.0	3.0	2.0	8.029777978198233	2.069	3.0	stim	poldrack-single-stim	s626	False	0
213.856	1.5	213.105	n/a	-1.0	2.454	columbia_card_task_fmri	n/a	n/a	-1.0	n/a	n/a	n/a	n/a	n/a	n/a	n/a	n/a	ITI	poldrack-single-stim	s626	False	0
215.561	2.536	218.097	4.630841500257484	draw_card	2.536	columbia_card_task_fmri	30.0	0.75	89.0	-80.0	0.25	8.0	1.0	2.0	13.228930796210811	2.536	n/a	stim	poldrack-single-stim	s626	False	1
218.099	1.529	219.628	0.7022700716860597	draw_card	1.529	columbia_card_task_fmri	30.0	0.7142857142857143	89.0	-80.0	0.2857142857142857	8.0	2.0	2.0	15.288493776176352	1.529	n/a	stim	poldrack-single-stim	s626	False	1
219.631	2.144	221.775	-4.535825166409177	draw_card	2.144	columbia_card_task_fmri	30.0	0.6666666666666667	89.0	-80.0	0.3333333333333333	8.0	3.0	2.0	17.44815451415122	2.144	n/a	stim	poldrack-single-stim	s626	False	1
221.778	1.837	223.615	-11.869158499742516	end_round	1.837	columbia_card_task_fmri	30.0	0.6	71.0	-80.0	0.4	8.0	4.0	2.0	19.480780866874998	1.837	3.0	stim	poldrack-single-stim	s626	False	1
224.37	1.5	223.619	n/a	-1.0	2.522	columbia_card_task_fmri	n/a	n/a	-1.0	n/a	n/a	n/a	n/a	n/a	n/a	n/a	n/a	ITI	poldrack-single-stim	s626	False	0
226.143	1.051	227.194	4.330841500257485	draw_card	1.051	columbia_card_task_fmri	13.0	0.9	89.0	-95.0	0.1	10.0	1.0	1.0	-1.9801117083675592	1.051	n/a	stim	poldrack-single-stim	s626	False	1
227.197	0.425	227.622	3.130841500257483	draw_card	0.425	columbia_card_task_fmri	13.0	0.8888888888888888	89.0	-95.0	0.1111111111111111	10.0	2.0	1.0	-0.4421579382127447	0.425	2.0	stim	poldrack-single-stim	s626	False	0
228.375	1.5	227.624	n/a	-1.0	2.522	columbia_card_task_fmri	n/a	n/a	-1.0	n/a	n/a	n/a	n/a	n/a	n/a	n/a	n/a	ITI	poldrack-single-stim	s626	False	0
230.15	0.748	230.898	5.730841500257483	draw_card	0.748	columbia_card_task_fmri	14.0	0.9	89.0	-90.0	0.1	10.0	1.0	1.0	-3.17742578733575	0.748	1.0	stim	poldrack-single-stim	s626	False	0
231.651	1.5	230.9	n/a	-1.0	2.59	columbia_card_task_fmri	n/a	n/a	-1.0	n/a	n/a	n/a	n/a	n/a	n/a	n/a	n/a	ITI	poldrack-single-stim	s626	False	0
233.494	3.776	237.27	0.930841500257484	draw_card	3.776	columbia_card_task_fmri	16.0	0.8	89.0	-70.0	0.2	10.0	1.0	2.0	0.0158269192030502	3.776	n/a	stim	poldrack-single-stim	s626	False	1
237.272	0.849	238.121	-0.9802696108536276	draw_card	0.849	columbia_card_task_fmri	16.0	0.7777777777777778	89.0	-70.0	0.2222222222222222	10.0	2.0	2.0	1.3669502926084576	0.849	n/a	stim	poldrack-single-stim	s626	False	1
238.123	1.438	239.561	-3.369158499742517	draw_card	1.438	columbia_card_task_fmri	16.0	0.75	89.0	-70.0	0.25	10.0	3.0	2.0	2.8499011824918554	1.438	n/a	stim	poldrack-single-stim	s626	False	1
239.564	3.796	243.36	-6.440587071171088	end_round	3.796	columbia_card_task_fmri	16.0	0.7142857142857143	71.0	-70.0	0.2857142857142857	10.0	4.0	2.0	4.459125463583284	3.796	3.0	stim	poldrack-single-stim	s626	False	1
244.113	1.5	243.362	n/a	-1.0	2.454	columbia_card_task_fmri	n/a	n/a	-1.0	n/a	n/a	n/a	n/a	n/a	n/a	n/a	n/a	ITI	poldrack-single-stim	s626	False	0
245.819	2.939	248.758	0.2141748335908171	end_round	2.939	columbia_card_task_fmri	7.0	0.9166666666666666	71.0	-100.0	0.0833333333333333	12.0	1.0	1.0	-4.800200192671401	2.939	0.0	stim	poldrack-single-stim	s626	False	1
249.513	1.5	248.762	n/a	-1.0	2.318	columbia_card_task_fmri	n/a	n/a	-1.0	n/a	n/a	n/a	n/a	n/a	n/a	n/a	n/a	ITI	poldrack-single-stim	s626	False	0
251.084	1.889	252.973	0.4641748335908189	draw_card	1.889	columbia_card_task_fmri	14.0	0.8333333333333334	89.0	-80.0	0.1666666666666666	12.0	1.0	2.0	0.6463718156409968	1.889	n/a	stim	poldrack-single-stim	s626	False	1
252.976	0.479	253.455	-0.9600675906516104	draw_card	0.479	columbia_card_task_fmri	14.0	0.8181818181818181	89.0	-80.0	0.1818181818181818	12.0	2.0	2.0	1.8677520794743288	0.479	n/a	stim	poldrack-single-stim	s626	False	1
253.457	1.053	254.51	-2.669158499742516	draw_card	1.053	columbia_card_task_fmri	14.0	0.8	89.0	-80.0	0.2	12.0	3.0	2.0	3.210225069973241	1.053	n/a	stim	poldrack-single-stim	s626	False	1
254.513	1.085	255.598	-4.758047388631406	draw_card	1.085	columbia_card_task_fmri	14.0	0.7777777777777778	89.0	-80.0	0.2222222222222222	12.0	4.0	2.0	4.687477150162657	1.085	4.0	stim	poldrack-single-stim	s626	False	0
256.355	1.5	255.604	n/a	-1.0	2.25	columbia_card_task_fmri	n/a	n/a	-1.0	n/a	n/a	n/a	n/a	n/a	n/a	n/a	n/a	ITI	poldrack-single-stim	s626	False	0
257.858	1.129	258.987	2.130841500257483	draw_card	1.129	columbia_card_task_fmri	15.0	0.8333333333333334	89.0	-75.0	0.1666666666666666	12.0	1.0	2.0	-0.8414682585713535	1.129	n/a	stim	poldrack-single-stim	s626	False	1
258.989	3.001	261.99	0.7672051366211181	draw_card	3.001	columbia_card_task_fmri	15.0	0.8181818181818181	89.0	-75.0	0.1818181818181818	12.0	2.0	2.0	0.3277491681628675	3.001	2.0	stim	poldrack-single-stim	s626	False	0
262.747	1.5	261.996	n/a	-1.0	2.658	columbia_card_task_fmri	n/a	n/a	-1.0	n/a	n/a	n/a	n/a	n/a	n/a	n/a	n/a	ITI	poldrack-single-stim	s626	False	0
264.658	2.484	267.142	1.1308415002574832	draw_card	2.484	columbia_card_task_fmri	15.0	0.8	89.0	-65.0	0.2	15.0	1.0	3.0	-2.3792387095718723	2.484	n/a	stim	poldrack-single-stim	s626	False	1
267.145	1.053	268.198	-0.0120156425996591	draw_card	1.053	columbia_card_task_fmri	15.0	0.7857142857142857	89.0	-65.0	0.2142857142857142	15.0	2.0	3.0	-1.554946017408028	1.053	n/a	stim	poldrack-single-stim	s626	False	1
268.201	3.364	271.565	-1.3306969612809805	draw_card	3.364	columbia_card_task_fmri	15.0	0.7692307692307692	89.0	-65.0	0.2307692307692307	15.0	3.0	3.0	-0.6768146944002567	3.364	n/a	stim	poldrack-single-stim	s626	False	1
271.568	2.095	273.663	-2.869158499742517	draw_card	2.095	columbia_card_task_fmri	15.0	0.75	89.0	-65.0	0.25	15.0	4.0	3.0	0.2563852129632948	2.095	4.0	stim	poldrack-single-stim	s626	False	0
274.418	1.5	273.667	n/a	-1.0	2.454	columbia_card_task_fmri	n/a	n/a	-1.0	n/a	n/a	n/a	n/a	n/a	n/a	n/a	n/a	ITI	poldrack-single-stim	s626	False	0
276.124	3.787	279.911	0.3808415002574832	draw_card	3.787	columbia_card_task_fmri	14.0	0.8125	89.0	-70.0	0.1875	16.0	1.0	3.0	-1.5946950328771052	3.787	n/a	stim	poldrack-single-stim	s626	False	1
279.914	2.039	281.953	-0.6691584997425157	draw_card	2.039	columbia_card_task_fmri	14.0	0.8	89.0	-70.0	0.2	16.0	2.0	3.0	-0.7826063762681912	2.039	2.0	stim	poldrack-single-stim	s626	False	0
282.71	1.5	281.959	n/a	-1.0	2.386	columbia_card_task_fmri	n/a	n/a	-1.0	n/a	n/a	n/a	n/a	n/a	n/a	n/a	n/a	ITI	poldrack-single-stim	s626	False	0
284.349	5.576	289.925	0.3183415002574832	draw_card	5.576	columbia_card_task_fmri	11.0	0.6875	89.0	-30.0	0.3125	16.0	1.0	5.0	-15.32700857712556	5.576	1.0	stim	poldrack-single-stim	s626	False	0
290.683	1.5	289.932	n/a	-1.0	2.59	columbia_card_task_fmri	n/a	n/a	-1.0	n/a	n/a	n/a	n/a	n/a	n/a	n/a	n/a	ITI	poldrack-single-stim	s626	False	0
292.525	6.823	299.348	5.130841500257484	draw_card	6.823	columbia_card_task_fmri	15.0	0.8666666666666667	89.0	-75.0	0.1333333333333333	15.0	1.0	2.0	-3.7818728120869487	6.823	n/a	stim	poldrack-single-stim	s626	False	1
299.351	1.583	300.934	4.273698643114628	draw_card	1.583	columbia_card_task_fmri	15.0	0.8571428571428572	89.0	-75.0	0.1428571428571428	15.0	2.0	2.0	-2.884661875572497	1.583	2.0	stim	poldrack-single-stim	s626	False	0
301.691	1.5	300.94	n/a	-1.0	2.318	columbia_card_task_fmri	n/a	n/a	-1.0	n/a	n/a	n/a	n/a	n/a	n/a	n/a	n/a	ITI	poldrack-single-stim	s626	False	0
303.261	1.755	305.016	6.864174833590818	draw_card	1.755	columbia_card_task_fmri	17.0	0.8666666666666667	89.0	-75.0	0.1333333333333333	15.0	1.0	2.0	-3.103610980534832	1.755	n/a	stim	poldrack-single-stim	s626	False	1
305.02	0.427	305.447	5.987984357400343	draw_card	0.427	columbia_card_task_fmri	17.0	0.8571428571428572	89.0	-75.0	0.1428571428571428	15.0	2.0	2.0	-2.186369510161704	0.427	n/a	stim	poldrack-single-stim	s626	False	1
305.45	2.968	308.418	4.97699534641133	draw_card	2.968	columbia_card_task_fmri	17.0	0.8461538461538461	89.0	-75.0	0.1538461538461538	15.0	3.0	2.0	-1.1880703501161562	2.968	n/a	stim	poldrack-single-stim	s626	False	1
308.42	3.741	312.161	3.797508166924151	end_round	3.741	columbia_card_task_fmri	17.0	0.8333333333333334	71.0	-75.0	0.1666666666666666	15.0	4.0	2.0	-0.097579347749459	3.741	3.0	stim	poldrack-single-stim	s626	False	1
312.918	1.5	312.167	n/a	-1.0	2.59	columbia_card_task_fmri	n/a	n/a	-1.0	n/a	n/a	n/a	n/a	n/a	n/a	n/a	n/a	ITI	poldrack-single-stim	s626	False	0
314.761	2.78	317.541	2.443341500257483	draw_card	2.78	columbia_card_task_fmri	2.0	0.9375	89.0	-25.0	0.0625	16.0	1.0	1.0	-27.57585414819571	2.78	n/a	stim	poldrack-single-stim	s626	False	1
317.544	0.428	317.972	2.330841500257483	draw_card	0.428	columbia_card_task_fmri	2.0	0.9333333333333332	89.0	-25.0	0.0666666666666666	16.0	2.0	1.0	-27.386077756283257	0.428	2.0	stim	poldrack-single-stim	s626	False	0
318.728	1.5	317.977	n/a	-1.0	2.386	columbia_card_task_fmri	n/a	n/a	-1.0	n/a	n/a	n/a	n/a	n/a	n/a	n/a	n/a	ITI	poldrack-single-stim	s626	False	0
320.368	3.111	323.479	4.630841500257484	end_round	3.111	columbia_card_task_fmri	9.0	0.9375	71.0	-95.0	0.0625	16.0	1.0	1.0	-9.185693883766437	3.111	0.0	stim	poldrack-single-stim	s626	False	1
324.232	1.5	323.481	n/a	-1.0	2.318	columbia_card_task_fmri	n/a	n/a	-1.0	n/a	n/a	n/a	n/a	n/a	n/a	n/a	n/a	ITI	poldrack-single-stim	s626	False	0
325.802	4.163	329.965	6.193341500257484	end_round	4.163	columbia_card_task_fmri	11.0	0.9375	71.0	-100.0	0.0625	16.0	1.0	1.0	-7.496922225037402	4.163	0.0	stim	poldrack-single-stim	s626	False	1
330.72	1.5	329.969	n/a	-1.0	2.318	columbia_card_task_fmri	n/a	n/a	-1.0	n/a	n/a	n/a	n/a	n/a	n/a	n/a	n/a	ITI	poldrack-single-stim	s626	False	0
332.291	1.769	334.06	6.755841500257484	draw_card	1.769	columbia_card_task_fmri	16.0	0.875	89.0	-75.0	0.125	16.0	1.0	2.0	-4.279343643089579	1.769	n/a	stim	poldrack-single-stim	s626	False	1
334.063	2.719	336.782	5.997508166924151	draw_card	2.719	columbia_card_task_fmri	16.0	0.8666666666666667	89.0	-75.0	0.1333333333333333	16.0	2.0	2.0	-3.4427506970849286	2.719	n/a	stim	poldrack-single-stim	s626	False	1
336.785	1.246	338.031	5.130841500257485	draw_card	1.246	columbia_card_task_fmri	16.0	0.8571428571428572	89.0	-75.0	0.1428571428571428	16.0	3.0	2.0	-2.535524245738582	1.246	n/a	stim	poldrack-single-stim	s626	False	1
338.035	3.318	341.353	4.130841500257484	end_round	3.318	columbia_card_task_fmri	16.0	0.8461538461538461	71.0	-75.0	0.1538461538461538	16.0	4.0	2.0	-1.548122323003227	3.318	3.0	stim	poldrack-single-stim	s626	False	1
342.109	1.5	341.358	n/a	-1.0	2.318	columbia_card_task_fmri	n/a	n/a	-1.0	n/a	n/a	n/a	n/a	n/a	n/a	n/a	n/a	ITI	poldrack-single-stim	s626	False	0
343.68	2.487	346.167	7.005841500257484	draw_card	2.487	columbia_card_task_fmri	17.0	0.875	89.0	-80.0	0.125	16.0	1.0	2.0	-2.299679815148714	2.487	n/a	stim	poldrack-single-stim	s626	False	1
346.169	0.543	346.712	6.197508166924152	draw_card	0.543	columbia_card_task_fmri	17.0	0.8666666666666667	89.0	-80.0	0.1333333333333333	16.0	2.0	2.0	-1.4076673446427534	0.543	n/a	stim	poldrack-single-stim	s626	False	1
346.715	2.166	348.881	5.2736986431146295	draw_card	2.166	columbia_card_task_fmri	17.0	0.8571428571428572	89.0	-80.0	0.1428571428571428	16.0	3.0	2.0	-0.4403576863879195	2.166	n/a	stim	poldrack-single-stim	s626	False	1
348.884	1.234	350.118	4.20776457718056	draw_card	1.234	columbia_card_task_fmri	17.0	0.8461538461538461	89.0	-80.0	0.1538461538461538	16.0	4.0	2.0	0.612420570145396	1.234	n/a	stim	poldrack-single-stim	s626	False	1
350.122	1.87	351.992	2.964174833590819	draw_card	1.87	columbia_card_task_fmri	17.0	0.8333333333333334	89.0	-80.0	0.1666666666666666	16.0	5.0	2.0	1.7624068912998323	1.87	n/a	stim	poldrack-single-stim	s626	False	1
351.994	1.054	353.048	1.4944778638938447	draw_card	1.054	columbia_card_task_fmri	17.0	0.8181818181818181	89.0	-80.0	0.1818181818181818	16.0	6.0	2.0	3.0229041067492872	1.054	6.0	stim	poldrack-single-stim	s626	False	0
353.805	1.5	353.054	n/a	-1.0	2.386	columbia_card_task_fmri	n/a	n/a	-1.0	n/a	n/a	n/a	n/a	n/a	n/a	n/a	n/a	ITI	poldrack-single-stim	s626	False	0
366.445	2.243	368.688	1.297508166924151	draw_card	2.243	columbia_card_task_fmri	13.0	0.8333333333333334	89.0	-70.0	0.1666666666666666	6.0	1.0	1.0	-3.4445245205498445	2.243	n/a	stim	poldrack-single-stim	s626	False	1
368.692	1.305	369.997	-1.4691584997425164	draw_card	1.305	columbia_card_task_fmri	13.0	0.8	89.0	-70.0	0.2	6.0	2.0	1.0	-1.1817947958599788	1.305	n/a	stim	poldrack-single-stim	s626	False	1
370.0	1.634	371.634	-5.619158499742516	end_round	1.634	columbia_card_task_fmri	13.0	0.75	71.0	-70.0	0.25	6.0	3.0	1.0	1.5530610004821952	1.634	2.0	stim	poldrack-single-stim	s626	False	1
372.391	1.5	371.64	n/a	-1.0	2.25	columbia_card_task_fmri	n/a	n/a	-1.0	n/a	n/a	n/a	n/a	n/a	n/a	n/a	n/a	ITI	poldrack-single-stim	s626	False	0
373.894	1.522	375.416	1.297508166924151	draw_card	1.522	columbia_card_task_fmri	15.0	0.8333333333333334	89.0	-80.0	0.1666666666666666	6.0	1.0	1.0	1.0183695179240289	1.522	n/a	stim	poldrack-single-stim	s626	False	1
375.419	2.133	377.552	-1.8691584997425168	draw_card	2.133	columbia_card_task_fmri	15.0	0.8	89.0	-80.0	0.2	6.0	2.0	1.0	3.6095910145415786	2.133	n/a	stim	poldrack-single-stim	s626	False	1
377.555	1.657	379.212	-6.619158499742516	end_round	1.657	columbia_card_task_fmri	15.0	0.75	71.0	-80.0	0.25	6.0	3.0	1.0	6.7412528154489735	1.657	2.0	stim	poldrack-single-stim	s626	False	1
379.967	1.5	379.216	n/a	-1.0	2.386	columbia_card_task_fmri	n/a	n/a	-1.0	n/a	n/a	n/a	n/a	n/a	n/a	n/a	n/a	ITI	poldrack-single-stim	s626	False	0
381.605	0.717	382.322	2.964174833590817	draw_card	0.717	columbia_card_task_fmri	16.0	0.8333333333333334	89.0	-75.0	0.1666666666666666	6.0	1.0	1.0	-0.4695318402659865	0.717	n/a	stim	poldrack-single-stim	s626	False	1
382.326	0.998	383.324	-0.069158499742516	draw_card	0.998	columbia_card_task_fmri	16.0	0.8	89.0	-75.0	0.2	6.0	2.0	1.0	2.012210639017418	0.998	n/a	stim	poldrack-single-stim	s626	False	1
383.327	0.844	384.171	-4.619158499742516	draw_card	0.844	columbia_card_task_fmri	16.0	0.75	89.0	-75.0	0.25	6.0	3.0	1.0	5.011622785367898	0.844	n/a	stim	poldrack-single-stim	s626	False	1
384.174	0.96	385.134	-12.202491833075849	end_round	0.96	columbia_card_task_fmri	16.0	0.6666666666666667	71.0	-75.0	0.3333333333333333	6.0	4.0	1.0	8.500595573530788	0.96	3.0	stim	poldrack-single-stim	s626	False	1
385.891	1.5	385.14	n/a	-1.0	2.59	columbia_card_task_fmri	n/a	n/a	-1.0	n/a	n/a	n/a	n/a	n/a	n/a	n/a	n/a	ITI	poldrack-single-stim	s626	False	0
387.735	2.865	390.6	4.130841500257484	draw_card	2.865	columbia_card_task_fmri	21.0	0.75	89.0	-55.0	0.25	8.0	1.0	2.0	-1.472226596015588	2.865	n/a	stim	poldrack-single-stim	s626	False	1
390.603	0.761	391.364	1.4165557859717697	draw_card	0.761	columbia_card_task_fmri	21.0	0.7142857142857143	89.0	-55.0	0.2857142857142857	8.0	2.0	2.0	-0.0507449288218637	0.761	2.0	stim	poldrack-single-stim	s626	False	0
392.117	1.5	391.366	n/a	-1.0	2.658	columbia_card_task_fmri	n/a	n/a	-1.0	n/a	n/a	n/a	n/a	n/a	n/a	n/a	n/a	ITI	poldrack-single-stim	s626	False	0
394.027	2.099	396.126	5.380841500257484	draw_card	2.099	columbia_card_task_fmri	26.0	0.75	89.0	-65.0	0.25	8.0	1.0	2.0	5.011622785367898	2.099	n/a	stim	poldrack-single-stim	s626	False	1
396.128	2.298	398.426	2.1308415002574868	draw_card	2.298	columbia_card_task_fmri	26.0	0.7142857142857143	89.0	-65.0	0.2857142857142857	8.0	2.0	2.0	6.7146913519515365	2.298	n/a	stim	poldrack-single-stim	s626	False	1
398.43	2.101	400.531	-2.2024918330758454	draw_card	2.101	columbia_card_task_fmri	26.0	0.6666666666666667	89.0	-65.0	0.3333333333333333	8.0	3.0	2.0	8.500595573530788	2.101	n/a	stim	poldrack-single-stim	s626	False	1
400.535	1.524	402.059	-8.269158499742517	draw_card	1.524	columbia_card_task_fmri	26.0	0.6	89.0	-65.0	0.4	8.0	4.0	2.0	10.181503266344947	1.524	n/a	stim	poldrack-single-stim	s626	False	1
402.062	2.051	404.113	-17.369158499742518	end_round	2.051	columbia_card_task_fmri	26.0	0.5	71.0	-65.0	0.5	8.0	5.0	2.0	11.099762791713845	2.051	4.0	stim	poldrack-single-stim	s626	False	1
404.869	1.5	404.118	n/a	-1.0	2.386	columbia_card_task_fmri	n/a	n/a	-1.0	n/a	n/a	n/a	n/a	n/a	n/a	n/a	n/a	ITI	poldrack-single-stim	s626	False	0
406.507	3.465	409.972	0.4641748335908171	draw_card	3.465	columbia_card_task_fmri	15.0	0.7777777777777778	89.0	-60.0	0.2222222222222222	9.0	1.0	2.0	-3.19690216616063	3.465	n/a	stim	poldrack-single-stim	s626	False	1
409.976	1.331	411.307	-1.6191584997425168	draw_card	1.331	columbia_card_task_fmri	15.0	0.75	89.0	-60.0	0.25	9.0	2.0	2.0	-1.904322411324856	1.331	n/a	stim	poldrack-single-stim	s626	False	1
411.31	2.298	413.608	-4.297729928313943	draw_card	2.298	columbia_card_task_fmri	15.0	0.7142857142857143	89.0	-60.0	0.2857142857142857	9.0	3.0	2.0	-0.5016198044937354	2.298	n/a	stim	poldrack-single-stim	s626	False	1
413.611	6.46	420.071	-7.869158499742515	draw_card	6.46	columbia_card_task_fmri	15.0	0.6666666666666667	89.0	-60.0	0.3333333333333333	9.0	4.0	2.0	0.9693876903011328	6.46	n/a	stim	poldrack-single-stim	s626	False	1
420.075	1.742	421.817	-12.869158499742516	draw_card	1.742	columbia_card_task_fmri	15.0	0.6	89.0	-60.0	0.4	9.0	5.0	2.0	2.3539771314268947	1.742	5.0	stim	poldrack-single-stim	s626	False	0
422.571	1.5	421.82	n/a	-1.0	2.386	columbia_card_task_fmri	n/a	n/a	-1.0	n/a	n/a	n/a	n/a	n/a	n/a	n/a	n/a	ITI	poldrack-single-stim	s626	False	0
424.211	0.807	425.018	4.830841500257485	draw_card	0.807	columbia_card_task_fmri	13.0	0.9	89.0	-90.0	0.1	10.0	1.0	1.0	-3.476721824552918	0.807	n/a	stim	poldrack-single-stim	s626	False	1
425.021	0.406	425.427	3.686397055813039	draw_card	0.406	columbia_card_task_fmri	13.0	0.8888888888888888	89.0	-90.0	0.1111111111111111	10.0	2.0	1.0	-2.010269403713565	0.406	2.0	stim	poldrack-single-stim	s626	False	0
426.185	1.5	425.434	n/a	-1.0	2.25	columbia_card_task_fmri	n/a	n/a	-1.0	n/a	n/a	n/a	n/a	n/a	n/a	n/a	n/a	ITI	poldrack-single-stim	s626	False	0
427.688	1.806	429.494	6.130841500257484	draw_card	1.806	columbia_card_task_fmri	15.0	0.9	89.0	-95.0	0.1	10.0	1.0	1.0	-1.381381650453612	1.806	n/a	stim	poldrack-single-stim	s626	False	1
429.496	0.792	430.288	4.90861927803526	end_round	0.792	columbia_card_task_fmri	15.0	0.8888888888888888	71.0	-95.0	0.1111111111111111	10.0	2.0	1.0	0.1851688020640693	0.792	1.0	stim	poldrack-single-stim	s626	False	1
431.045	1.5	430.294	n/a	-1.0	2.318	columbia_card_task_fmri	n/a	n/a	-1.0	n/a	n/a	n/a	n/a	n/a	n/a	n/a	n/a	ITI	poldrack-single-stim	s626	False	0
432.617	1.5	434.117	1.930841500257484	draw_card	1.5	columbia_card_task_fmri	16.0	0.8	89.0	-65.0	0.2	10.0	1.0	2.0	-1.9801117083675663	1.5	n/a	stim	poldrack-single-stim	s626	False	1
434.12	1.552	435.672	0.1308415002574849	draw_card	1.552	columbia_card_task_fmri	16.0	0.7777777777777778	89.0	-65.0	0.2222222222222222	10.0	2.0	2.0	-0.707839759943802	1.552	n/a	stim	poldrack-single-stim	s626	False	1
435.674	2.092	437.766	-2.119158499742517	draw_card	2.092	columbia_card_task_fmri	16.0	0.75	89.0	-65.0	0.25	10.0	3.0	2.0	0.6885910859550961	2.092	n/a	stim	poldrack-single-stim	s626	False	1
437.771	0.553	438.324	-5.012015642599657	end_round	0.553	columbia_card_task_fmri	16.0	0.7142857142857143	71.0	-65.0	0.2857142857142857	10.0	4.0	2.0	2.2039541677269554	0.553	3.0	stim	poldrack-single-stim	s626	False	1
439.081	1.5	438.33	n/a	-1.0	2.25	columbia_card_task_fmri	n/a	n/a	-1.0	n/a	n/a	n/a	n/a	n/a	n/a	n/a	n/a	ITI	poldrack-single-stim	s626	False	0
440.585	1.475	442.06	0.6308415002574832	end_round	1.475	columbia_card_task_fmri	7.0	0.9166666666666666	71.0	-95.0	0.0833333333333333	12.0	1.0	1.0	-6.178379423161509	1.475	0.0	stim	poldrack-single-stim	s626	False	1
442.815	1.5	442.064	n/a	-1.0	2.25	columbia_card_task_fmri	n/a	n/a	-1.0	n/a	n/a	n/a	n/a	n/a	n/a	n/a	n/a	ITI	poldrack-single-stim	s626	False	0
444.317	1.373	445.69	1.297508166924151	draw_card	1.373	columbia_card_task_fmri	14.0	0.8333333333333334	89.0	-75.0	0.1666666666666666	12.0	1.0	2.0	-1.2133880630288445	1.373	1.0	stim	poldrack-single-stim	s626	False	0
446.444	1.5	445.693	n/a	-1.0	2.386	columbia_card_task_fmri	n/a	n/a	-1.0	n/a	n/a	n/a	n/a	n/a	n/a	n/a	n/a	ITI	poldrack-single-stim	s626	False	0
448.083	2.895	450.978	2.964174833590817	draw_card	2.895	columbia_card_task_fmri	15.0	0.8333333333333334	89.0	-70.0	0.1666666666666666	12.0	1.0	2.0	-2.700889465594092	2.895	n/a	stim	poldrack-single-stim	s626	False	1
450.982	0.975	451.957	1.6762960457120264	draw_card	0.975	columbia_card_task_fmri	15.0	0.8181818181818181	89.0	-70.0	0.1818181818181818	12.0	2.0	2.0	-1.5968882238774782	0.975	n/a	stim	poldrack-single-stim	s626	False	1
451.961	1.965	453.926	0.1308415002574832	draw_card	1.965	columbia_card_task_fmri	15.0	0.8	89.0	-70.0	0.2	12.0	3.0	2.0	-0.3833989173880852	1.965	3.0	stim	poldrack-single-stim	s626	False	0
454.679	1.5	453.928	n/a	-1.0	2.386	columbia_card_task_fmri	n/a	n/a	-1.0	n/a	n/a	n/a	n/a	n/a	n/a	n/a	n/a	ITI	poldrack-single-stim	s626	False	0
456.319	2.211	458.53	0.930841500257484	draw_card	2.211	columbia_card_task_fmri	16.0	0.8	89.0	-70.0	0.2	15.0	1.0	3.0	0.0158269192030502	2.211	1.0	stim	poldrack-single-stim	s626	False	0
459.283	1.5	458.532	n/a	-1.0	2.726	columbia_card_task_fmri	n/a	n/a	-1.0	n/a	n/a	n/a	n/a	n/a	n/a	n/a	n/a	ITI	poldrack-single-stim	s626	False	0
461.263	1.52	462.783	1.3183415002574832	draw_card	1.52	columbia_card_task_fmri	14.0	0.8125	89.0	-65.0	0.1875	16.0	1.0	3.0	-3.541889116104379	1.52	n/a	stim	poldrack-single-stim	s626	False	1
462.787	0.432	463.219	0.3308415002574842	draw_card	0.432	columbia_card_task_fmri	14.0	0.8	89.0	-65.0	0.2	16.0	2.0	3.0	-2.778343683673306	0.432	2.0	stim	poldrack-single-stim	s626	False	0
463.977	1.5	463.226	n/a	-1.0	2.454	columbia_card_task_fmri	n/a	n/a	-1.0	n/a	n/a	n/a	n/a	n/a	n/a	n/a	n/a	ITI	poldrack-single-stim	s626	False	0
465.684	1.843	467.527	1.0683415002574832	draw_card	1.843	columbia_card_task_fmri	16.0	0.8125	89.0	-75.0	0.1875	16.0	1.0	3.0	1.1321807062654656	1.843	n/a	stim	poldrack-single-stim	s626	False	1
467.53	1.32	468.85	-0.069158499742516	draw_card	1.32	columbia_card_task_fmri	16.0	0.8	89.0	-75.0	0.2	16.0	2.0	3.0	2.012210639017418	1.32	n/a	stim	poldrack-single-stim	s626	False	1
468.853	2.247	471.1	-1.369158499742515	draw_card	2.247	columbia_card_task_fmri	16.0	0.7857142857142857	89.0	-75.0	0.2142857142857142	16.0	3.0	3.0	2.9503022323893475	2.247	n/a	stim	poldrack-single-stim	s626	False	1
471.104	0.671	471.775	-2.8691584997425204	end_round	0.671	columbia_card_task_fmri	16.0	0.7692307692307692	71.0	-75.0	0.2307692307692307	16.0	4.0	3.0	3.949640578557052	0.671	3.0	stim	poldrack-single-stim	s626	False	1
472.534	1.5	471.783	n/a	-1.0	2.318	columbia_card_task_fmri	n/a	n/a	-1.0	n/a	n/a	n/a	n/a	n/a	n/a	n/a	n/a	ITI	poldrack-single-stim	s626	False	0
474.105	1.264	475.369	5.330841500257485	draw_card	1.264	columbia_card_task_fmri	16.0	0.8666666666666667	89.0	-80.0	0.1333333333333333	15.0	1.0	2.0	-1.746887051198577	1.264	n/a	stim	poldrack-single-stim	s626	False	1
475.374	1.582	476.956	4.416555785971772	draw_card	1.582	columbia_card_task_fmri	16.0	0.8571428571428572	89.0	-80.0	0.1428571428571428	15.0	2.0	2.0	-0.7895901569097674	1.582	2.0	stim	poldrack-single-stim	s626	False	0
477.712	1.5	476.961	n/a	-1.0	2.318	columbia_card_task_fmri	n/a	n/a	-1.0	n/a	n/a	n/a	n/a	n/a	n/a	n/a	n/a	ITI	poldrack-single-stim	s626	False	0
479.284	0.371	479.655	6.197508166924152	draw_card	0.371	columbia_card_task_fmri	17.0	0.8666666666666667	89.0	-80.0	0.1333333333333333	15.0	1.0	2.0	-1.4076673446427534	0.371	n/a	stim	poldrack-single-stim	s626	False	1
479.658	0.781	480.439	5.2736986431146295	draw_card	0.781	columbia_card_task_fmri	17.0	0.8571428571428572	89.0	-80.0	0.1428571428571428	15.0	2.0	2.0	-0.4403576863879195	0.781	n/a	stim	poldrack-single-stim	s626	False	1
480.443	2.792	483.235	4.20776457718056	draw_card	2.792	columbia_card_task_fmri	17.0	0.8461538461538461	89.0	-80.0	0.1538461538461538	15.0	3.0	2.0	0.612420570145396	2.792	3.0	stim	poldrack-single-stim	s626	False	0
483.991	1.5	483.24	n/a	-1.0	2.59	columbia_card_task_fmri	n/a	n/a	-1.0	n/a	n/a	n/a	n/a	n/a	n/a	n/a	n/a	ITI	poldrack-single-stim	s626	False	0
485.835	2.224	488.059	2.130841500257483	end_round	2.224	columbia_card_task_fmri	1.0	0.9375	71.0	-15.0	0.0625	16.0	1.0	1.0	-30.029643189154324	2.224	0.0	stim	poldrack-single-stim	s626	False	1
488.815	1.5	488.064	n/a	-1.0	2.726	columbia_card_task_fmri	n/a	n/a	-1.0	n/a	n/a	n/a	n/a	n/a	n/a	n/a	n/a	ITI	poldrack-single-stim	s626	False	0
490.794	2.609	493.403	5.255841500257484	end_round	2.609	columbia_card_task_fmri	10.0	0.9375	71.0	-100.0	0.0625	16.0	1.0	1.0	-7.738219197839868	2.609	0.0	stim	poldrack-single-stim	s626	False	1
494.161	1.5	493.41	n/a	-1.0	2.522	columbia_card_task_fmri	n/a	n/a	-1.0	n/a	n/a	n/a	n/a	n/a	n/a	n/a	n/a	ITI	poldrack-single-stim	s626	False	0
495.937	1.607	497.544	5.880841500257484	draw_card	1.607	columbia_card_task_fmri	15.0	0.875	89.0	-75.0	0.125	16.0	1.0	2.0	-4.609227565339669	1.607	n/a	stim	poldrack-single-stim	s626	False	1
497.547	0.786	498.333	5.130841500257484	draw_card	0.786	columbia_card_task_fmri	15.0	0.8666666666666667	89.0	-75.0	0.1333333333333333	16.0	2.0	2.0	-3.7818728120869487	0.786	n/a	stim	poldrack-single-stim	s626	False	1
498.337	2.287	500.624	4.273698643114628	draw_card	2.287	columbia_card_task_fmri	15.0	0.8571428571428572	89.0	-75.0	0.1428571428571428	16.0	3.0	2.0	-2.884661875572497	2.287	n/a	stim	poldrack-single-stim	s626	False	1
500.627	3.045	503.672	3.2846876541036365	end_round	3.045	columbia_card_task_fmri	15.0	0.8461538461538461	71.0	-75.0	0.1538461538461538	16.0	4.0	2.0	-1.9081576991039952	3.045	3.0	stim	poldrack-single-stim	s626	False	1
504.429	1.5	503.678	n/a	-1.0	3.134	columbia_card_task_fmri	n/a	n/a	-1.0	n/a	n/a	n/a	n/a	n/a	n/a	n/a	n/a	ITI	poldrack-single-stim	s626	False	0
506.815	0.737	507.552	6.130841500257484	draw_card	0.737	columbia_card_task_fmri	16.0	0.875	89.0	-80.0	0.125	16.0	1.0	2.0	-2.629664010259365	0.737	n/a	stim	poldrack-single-stim	s626	False	1
507.556	2.3	509.856	5.330841500257485	draw_card	2.3	columbia_card_task_fmri	16.0	0.8666666666666667	89.0	-80.0	0.1333333333333333	16.0	2.0	2.0	-1.746887051198577	2.3	n/a	stim	poldrack-single-stim	s626	False	1
509.859	1.284	511.143	4.416555785971772	draw_card	1.284	columbia_card_task_fmri	16.0	0.8571428571428572	89.0	-80.0	0.1428571428571428	16.0	3.0	2.0	-0.7895901569097674	1.284	n/a	stim	poldrack-single-stim	s626	False	1
511.147	3.21	514.357	3.361610731026713	end_round	3.21	columbia_card_task_fmri	16.0	0.8461538461538461	71.0	-80.0	0.1538461538461538	16.0	4.0	2.0	0.2522931770214569	3.21	3.0	stim	poldrack-single-stim	s626	False	1
515.113	1.5	514.362	n/a	-1.0	2.386	columbia_card_task_fmri	n/a	n/a	-1.0	n/a	n/a	n/a	n/a	n/a	n/a	n/a	n/a	ITI	poldrack-single-stim	s626	False	0
516.753	3.184	519.937	3.318341500257483	draw_card	3.184	columbia_card_task_fmri	4.0	0.6875	89.0	-5.0	0.3125	16.0	1.0	5.0	-29.76578795272895	3.184	n/a	stim	poldrack-single-stim	s626	False	1
519.941	1.096	521.037	3.130841500257484	draw_card	1.096	columbia_card_task_fmri	4.0	0.6666666666666667	89.0	-5.0	0.3333333333333333	16.0	2.0	5.0	-29.702423206945767	1.096	2.0	stim	poldrack-single-stim	s626	False	0
521.793	1.5	521.042	n/a	-1.0	2.386	columbia_card_task_fmri	n/a	n/a	-1.0	n/a	n/a	n/a	n/a	n/a	n/a	n/a	n/a	ITI	poldrack-single-stim	s626	False	0
523.433	1.688	525.121	0.4641748335908189	draw_card	1.688	columbia_card_task_fmri	14.0	0.8333333333333334	89.0	-80.0	0.1666666666666666	6.0	1.0	1.0	0.6463718156409968	1.688	n/a	stim	poldrack-single-stim	s626	False	1
525.125	1.186	526.311	-2.669158499742516	draw_card	1.186	columbia_card_task_fmri	14.0	0.8	89.0	-80.0	0.2	6.0	2.0	1.0	3.210225069973241	1.186	n/a	stim	poldrack-single-stim	s626	False	1
526.314	1.629	527.943	-7.369158499742516	end_round	1.629	columbia_card_task_fmri	14.0	0.75	71.0	-80.0	0.25	6.0	3.0	1.0	6.3088260331109325	1.629	2.0	stim	poldrack-single-stim	s626	False	1
528.702	1.5	527.951	n/a	-1.0	2.318	columbia_card_task_fmri	n/a	n/a	-1.0	n/a	n/a	n/a	n/a	n/a	n/a	n/a	n/a	ITI	poldrack-single-stim	s626	False	0
530.272	3.152	533.424	2.130841500257483	draw_card	3.152	columbia_card_task_fmri	15.0	0.8333333333333334	89.0	-75.0	0.1666666666666666	6.0	1.0	1.0	-0.8414682585713535	3.152	n/a	stim	poldrack-single-stim	s626	False	1
533.429	0.389	533.818	-0.8691584997425168	draw_card	0.389	columbia_card_task_fmri	15.0	0.8	89.0	-75.0	0.2	6.0	2.0	1.0	1.61290183552768	0.389	n/a	stim	poldrack-single-stim	s626	False	1
533.822	0.647	534.469	-5.369158499742516	draw_card	0.647	columbia_card_task_fmri	15.0	0.75	89.0	-75.0	0.25	6.0	3.0	1.0	4.579248826165077	0.647	n/a	stim	poldrack-single-stim	s626	False	1
534.473	3.145	537.618	-12.869158499742516	end_round	3.145	columbia_card_task_fmri	15.0	0.6666666666666667	71.0	-75.0	0.3333333333333333	6.0	4.0	1.0	8.029777978198233	3.145	3.0	stim	poldrack-single-stim	s626	False	1
538.371	1.5	537.62	n/a	-1.0	2.318	columbia_card_task_fmri	n/a	n/a	-1.0	n/a	n/a	n/a	n/a	n/a	n/a	n/a	n/a	ITI	poldrack-single-stim	s626	False	0
539.943	2.218	542.161	3.797508166924151	draw_card	2.218	columbia_card_task_fmri	16.0	0.8333333333333334	89.0	-70.0	0.1666666666666666	6.0	1.0	1.0	-2.32904202244493	2.218	n/a	stim	poldrack-single-stim	s626	False	1
542.165	0.489	542.654	0.930841500257484	draw_card	0.489	columbia_card_task_fmri	16.0	0.8	89.0	-70.0	0.2	6.0	2.0	1.0	0.0158269192030502	0.489	n/a	stim	poldrack-single-stim	s626	False	1
542.658	0.588	543.246	-3.369158499742517	draw_card	0.588	columbia_card_task_fmri	16.0	0.75	89.0	-70.0	0.25	6.0	3.0	1.0	2.8499011824918554	0.588	n/a	stim	poldrack-single-stim	s626	False	1
543.25	2.948	546.198	-10.53582516640918	draw_card	2.948	columbia_card_task_fmri	16.0	0.6666666666666667	89.0	-70.0	0.3333333333333333	6.0	4.0	1.0	6.14664381838498	2.948	n/a	stim	poldrack-single-stim	s626	False	1
546.202	0.76	546.962	-24.86915849974252	end_round	0.76	columbia_card_task_fmri	16.0	0.5	71.0	-70.0	0.5	6.0	5.0	1.0	8.602658644955767	0.76	4.0	stim	poldrack-single-stim	s626	False	1
547.716	1.5	546.965	n/a	-1.0	2.862	columbia_card_task_fmri	n/a	n/a	-1.0	n/a	n/a	n/a	n/a	n/a	n/a	n/a	n/a	ITI	poldrack-single-stim	s626	False	0
549.831	2.206	552.037	4.380841500257484	draw_card	2.206	columbia_card_task_fmri	23.0	0.75	89.0	-60.0	0.25	8.0	1.0	2.0	1.5530610004821952	2.206	n/a	stim	poldrack-single-stim	s626	False	1
552.04	0.497	552.537	1.4165557859717717	draw_card	0.497	columbia_card_task_fmri	23.0	0.7142857142857143	89.0	-60.0	0.2857142857142857	8.0	2.0	2.0	3.105970785339281	0.497	n/a	stim	poldrack-single-stim	s626	False	1
552.541	0.463	553.004	-2.535825166409181	draw_card	0.463	columbia_card_task_fmri	23.0	0.6666666666666667	89.0	-60.0	0.3333333333333333	8.0	3.0	2.0	4.734449978662539	0.463	n/a	stim	poldrack-single-stim	s626	False	1
553.008	1.774	554.782	-8.069158499742517	end_round	1.774	columbia_card_task_fmri	23.0	0.6	71.0	-60.0	0.4	8.0	4.0	2.0	6.267218819094289	1.774	3.0	stim	poldrack-single-stim	s626	False	1
555.538	1.5	554.787	n/a	-1.0	2.726	columbia_card_task_fmri	n/a	n/a	-1.0	n/a	n/a	n/a	n/a	n/a	n/a	n/a	n/a	ITI	poldrack-single-stim	s626	False	0
557.516	2.442	559.958	4.880841500257484	draw_card	2.442	columbia_card_task_fmri	27.0	0.75	89.0	-70.0	0.25	8.0	1.0	2.0	7.60614255154978	2.442	n/a	stim	poldrack-single-stim	s626	False	1
559.963	0.759	560.722	1.416555785971768	draw_card	0.759	columbia_card_task_fmri	27.0	0.7142857142857143	89.0	-70.0	0.2857142857142857	8.0	2.0	2.0	9.421805587159838	0.759	n/a	stim	poldrack-single-stim	s626	False	1
560.727	2.06	562.787	-3.2024918330758454	draw_card	2.06	columbia_card_task_fmri	27.0	0.6666666666666667	89.0	-70.0	0.3333333333333333	8.0	3.0	2.0	11.325754845385326	2.06	3.0	stim	poldrack-single-stim	s626	False	0
563.543	1.5	562.792	n/a	-1.0	2.25	columbia_card_task_fmri	n/a	n/a	-1.0	n/a	n/a	n/a	n/a	n/a	n/a	n/a	n/a	ITI	poldrack-single-stim	s626	False	0
565.047	2.577	567.624	0.1308415002574849	draw_card	2.577	columbia_card_task_fmri	16.0	0.7777777777777778	89.0	-65.0	0.2222222222222222	9.0	1.0	2.0	-0.707839759943802	2.577	n/a	stim	poldrack-single-stim	s626	False	1
567.627	1.151	568.778	-2.119158499742517	draw_card	1.151	columbia_card_task_fmri	16.0	0.75	89.0	-65.0	0.25	9.0	2.0	2.0	0.6885910859550961	1.151	n/a	stim	poldrack-single-stim	s626	False	1
568.782	1.1	569.882	-5.012015642599657	draw_card	1.1	columbia_card_task_fmri	16.0	0.7142857142857143	89.0	-65.0	0.2857142857142857	9.0	3.0	2.0	2.2039541677269554	1.1	3.0	stim	poldrack-single-stim	s626	False	0
570.64	1.5	569.889	n/a	-1.0	2.318	columbia_card_task_fmri	n/a	n/a	-1.0	n/a	n/a	n/a	n/a	n/a	n/a	n/a	n/a	ITI	poldrack-single-stim	s626	False	0
572.21	2.83	575.04	5.330841500257485	draw_card	2.83	columbia_card_task_fmri	13.0	0.9	89.0	-85.0	0.1	10.0	1.0	1.0	-4.9729873270107205	2.83	n/a	stim	poldrack-single-stim	s626	False	1
575.044	1.516	576.56	4.241952611368594	end_round	1.516	columbia_card_task_fmri	13.0	0.8888888888888888	71.0	-85.0	0.1111111111111111	10.0	2.0	1.0	-3.5780516948570917	1.516	1.0	stim	poldrack-single-stim	s626	False	1
577.32	1.5	576.569	n/a	-1.0	2.454	columbia_card_task_fmri	n/a	n/a	-1.0	n/a	n/a	n/a	n/a	n/a	n/a	n/a	n/a	ITI	poldrack-single-stim	s626	False	0
579.027	2.53	581.557	0.3308415002574842	draw_card	2.53	columbia_card_task_fmri	14.0	0.8	89.0	-65.0	0.2	10.0	1.0	2.0	-2.778343683673306	2.53	n/a	stim	poldrack-single-stim	s626	False	1
581.56	0.794	582.354	-1.4247140552980704	draw_card	0.794	columbia_card_task_fmri	14.0	0.7777777777777778	89.0	-65.0	0.2222222222222222	10.0	2.0	2.0	-1.537617672311626	0.794	n/a	stim	poldrack-single-stim	s626	False	1
582.358	1.803	584.161	-3.619158499742517	draw_card	1.803	columbia_card_task_fmri	14.0	0.75	89.0	-65.0	0.25	10.0	3.0	2.0	-0.1758002924803463	1.803	n/a	stim	poldrack-single-stim	s626	False	1
584.165	3.613	587.778	-6.440587071171086	end_round	3.613	columbia_card_task_fmri	14.0	0.7142857142857143	71.0	-65.0	0.2857142857142857	10.0	4.0	2.0	1.3020128618761646	3.613	3.0	stim	poldrack-single-stim	s626	False	1
588.538	1.5	587.787	n/a	-1.0	2.522	columbia_card_task_fmri	n/a	n/a	-1.0	n/a	n/a	n/a	n/a	n/a	n/a	n/a	n/a	ITI	poldrack-single-stim	s626	False	0
590.314	2.638	592.952	1.7308415002574846	draw_card	2.638	columbia_card_task_fmri	17.0	0.8	89.0	-70.0	0.2	10.0	1.0	2.0	0.4150705021998959	2.638	n/a	stim	poldrack-single-stim	s626	False	1
592.956	0.337	593.293	-0.2024918330758489	draw_card	0.337	columbia_card_task_fmri	17.0	0.7777777777777778	89.0	-70.0	0.2222222222222222	10.0	2.0	2.0	1.7819620695375349	0.337	n/a	stim	poldrack-single-stim	s626	False	1
593.297	1.317	594.614	-2.619158499742517	draw_card	1.317	columbia_card_task_fmri	17.0	0.75	89.0	-70.0	0.25	10.0	3.0	2.0	3.282214845623855	1.317	n/a	stim	poldrack-single-stim	s626	False	1
594.618	2.264	596.882	-5.726301356885374	draw_card	2.264	columbia_card_task_fmri	17.0	0.7142857142857143	89.0	-70.0	0.2857142857142857	10.0	4.0	2.0	4.910209244471233	2.264	n/a	stim	poldrack-single-stim	s626	False	1
596.886	3.411	600.297	-9.869158499742516	draw_card	3.411	columbia_card_task_fmri	17.0	0.6666666666666667	89.0	-70.0	0.3333333333333333	10.0	5.0	2.0	6.617405988139801	3.411	n/a	stim	poldrack-single-stim	s626	False	1
600.302	2.408	602.71	-15.669158499742515	end_round	2.408	columbia_card_task_fmri	17.0	0.6	71.0	-70.0	0.4	10.0	6.0	2.0	8.224248629724727	2.408	5.0	stim	poldrack-single-stim	s626	False	1
603.467	1.5	602.716	n/a	-1.0	2.318	columbia_card_task_fmri	n/a	n/a	-1.0	n/a	n/a	n/a	n/a	n/a	n/a	n/a	n/a	ITI	poldrack-single-stim	s626	False	0
605.039	3.125	608.164	0.4641748335908171	draw_card	3.125	columbia_card_task_fmri	13.0	0.8333333333333334	89.0	-75.0	0.1666666666666666	12.0	1.0	2.0	-1.585290689598807	3.125	n/a	stim	poldrack-single-stim	s626	False	1
608.168	1.094	609.262	-0.8691584997425186	draw_card	1.094	columbia_card_task_fmri	13.0	0.8181818181818181	89.0	-75.0	0.1818181818181818	12.0	2.0	2.0	-0.4421579382127518	1.094	n/a	stim	poldrack-single-stim	s626	False	1
609.266	1.381	610.647	-2.4691584997425164	draw_card	1.381	columbia_card_task_fmri	13.0	0.8	89.0	-75.0	0.2	12.0	3.0	2.0	0.8143312288588049	1.381	n/a	stim	poldrack-single-stim	s626	False	1
610.651	0.851	611.502	-4.42471405529807	draw_card	0.851	columbia_card_task_fmri	13.0	0.7777777777777778	89.0	-75.0	0.2222222222222222	12.0	4.0	2.0	2.196990347946702	0.851	n/a	stim	poldrack-single-stim	s626	False	1
611.506	2.09	613.596	-6.869158499742516	draw_card	2.09	columbia_card_task_fmri	13.0	0.75	89.0	-75.0	0.25	12.0	5.0	2.0	3.714544358417783	2.09	5.0	stim	poldrack-single-stim	s626	False	0
614.352	1.5	613.601	n/a	-1.0	2.522	columbia_card_task_fmri	n/a	n/a	-1.0	n/a	n/a	n/a	n/a	n/a	n/a	n/a	n/a	ITI	poldrack-single-stim	s626	False	0
616.128	0.56	616.688	2.130841500257485	draw_card	0.56	columbia_card_task_fmri	14.0	0.8333333333333334	89.0	-70.0	0.1666666666666666	12.0	1.0	2.0	-3.0727172012996604	0.56	n/a	stim	poldrack-single-stim	s626	False	1
616.693	1.815	618.508	0.858114227530208	draw_card	1.815	columbia_card_task_fmri	14.0	0.8181818181818181	89.0	-70.0	0.1818181818181818	12.0	2.0	2.0	-1.9817610797796088	1.815	n/a	stim	poldrack-single-stim	s626	False	1
618.511	1.447	619.958	-0.6691584997425157	draw_card	1.447	columbia_card_task_fmri	14.0	0.8	89.0	-70.0	0.2	12.0	3.0	2.0	-0.7826063762681912	1.447	n/a	stim	poldrack-single-stim	s626	False	1
619.963	0.701	620.664	-2.535825166409183	end_round	0.701	columbia_card_task_fmri	14.0	0.7777777777777778	71.0	-70.0	0.2222222222222222	12.0	4.0	2.0	0.5369785920255481	0.701	3.0	stim	poldrack-single-stim	s626	False	1
621.423	1.5	620.672	n/a	-1.0	2.998	columbia_card_task_fmri	n/a	n/a	-1.0	n/a	n/a	n/a	n/a	n/a	n/a	n/a	n/a	ITI	poldrack-single-stim	s626	False	0
623.674	6.303	629.977	2.130841500257485	draw_card	6.303	columbia_card_task_fmri	16.0	0.8333333333333334	89.0	-80.0	0.1666666666666666	12.0	1.0	2.0	1.3903813550174815	6.303	n/a	stim	poldrack-single-stim	s626	False	1
629.982	0.575	630.557	0.6762960457120264	draw_card	0.575	columbia_card_task_fmri	16.0	0.8181818181818181	89.0	-80.0	0.1818181818181818	12.0	2.0	2.0	2.637840049079884	0.575	n/a	stim	poldrack-single-stim	s626	False	1
630.56	0.423	630.983	-1.069158499742516	draw_card	0.423	columbia_card_task_fmri	16.0	0.8	89.0	-80.0	0.2	12.0	3.0	2.0	4.008970137856394	0.423	3.0	stim	poldrack-single-stim	s626	False	0
631.741	1.5	630.99	n/a	-1.0	2.318	columbia_card_task_fmri	n/a	n/a	-1.0	n/a	n/a	n/a	n/a	n/a	n/a	n/a	n/a	ITI	poldrack-single-stim	s626	False	0
633.312	0.559	633.871	1.930841500257484	draw_card	0.559	columbia_card_task_fmri	16.0	0.8	89.0	-65.0	0.2	15.0	1.0	3.0	-1.9801117083675663	0.559	1.0	stim	poldrack-single-stim	s626	False	0
634.63	1.5	633.879	n/a	-1.0	2.25	columbia_card_task_fmri	n/a	n/a	-1.0	n/a	n/a	n/a	n/a	n/a	n/a	n/a	n/a	ITI	poldrack-single-stim	s626	False	0
636.134	2.041	638.175	0.2558415002574832	draw_card	2.041	columbia_card_task_fmri	15.0	0.8125	89.0	-75.0	0.1875	16.0	1.0	3.0	0.7425765912906428	2.041	1.0	stim	poldrack-single-stim	s626	False	0
638.933	1.5	638.182	n/a	-1.0	2.454	columbia_card_task_fmri	n/a	n/a	-1.0	n/a	n/a	n/a	n/a	n/a	n/a	n/a	n/a	ITI	poldrack-single-stim	s626	False	0
640.642	1.62	642.262	0.8183415002574832	draw_card	1.62	columbia_card_task_fmri	14.0	0.6875	89.0	-35.0	0.3125	16.0	1.0	5.0	-11.638259077390362	1.62	1.0	stim	poldrack-single-stim	s626	False	0
643.021	1.5	642.27	n/a	-1.0	2.318	columbia_card_task_fmri	n/a	n/a	-1.0	n/a	n/a	n/a	n/a	n/a	n/a	n/a	n/a	ITI	poldrack-single-stim	s626	False	0
644.594	1.564	646.158	5.997508166924151	draw_card	1.564	columbia_card_task_fmri	16.0	0.8666666666666667	89.0	-75.0	0.1333333333333333	15.0	1.0	2.0	-3.4427506970849286	1.564	n/a	stim	poldrack-single-stim	s626	False	1
646.163	3.628	649.791	5.130841500257485	draw_card	3.628	columbia_card_task_fmri	16.0	0.8571428571428572	89.0	-75.0	0.1428571428571428	15.0	2.0	2.0	-2.535524245738582	3.628	2.0	stim	poldrack-single-stim	s626	False	0
650.547	1.5	649.796	n/a	-1.0	2.318	columbia_card_task_fmri	n/a	n/a	-1.0	n/a	n/a	n/a	n/a	n/a	n/a	n/a	n/a	ITI	poldrack-single-stim	s626	False	0
652.121	0.625	652.746	6.664174833590817	draw_card	0.625	columbia_card_task_fmri	16.0	0.8666666666666667	89.0	-70.0	0.1333333333333333	15.0	1.0	2.0	-5.138173038703165	0.625	1.0	stim	poldrack-single-stim	s626	False	0
653.506	1.5	652.755	n/a	-1.0	2.59	columbia_card_task_fmri	n/a	n/a	-1.0	n/a	n/a	n/a	n/a	n/a	n/a	n/a	n/a	ITI	poldrack-single-stim	s626	False	0
655.35	3.071	658.421	4.005841500257484	end_round	3.071	columbia_card_task_fmri	8.0	0.9375	71.0	-90.0	0.0625	16.0	1.0	1.0	-10.632572697259237	3.071	0.0	stim	poldrack-single-stim	s626	False	1
659.18	1.5	658.429	n/a	-1.0	2.25	columbia_card_task_fmri	n/a	n/a	-1.0	n/a	n/a	n/a	n/a	n/a	n/a	n/a	n/a	ITI	poldrack-single-stim	s626	False	0
660.685	3.1	663.785	5.568341500257484	end_round	3.1	columbia_card_task_fmri	10.0	0.9375	71.0	-95.0	0.0625	16.0	1.0	1.0	-8.944486743564404	3.1	0.0	stim	poldrack-single-stim	s626	False	1
664.541	1.5	663.79	n/a	-1.0	2.25	columbia_card_task_fmri	n/a	n/a	-1.0	n/a	n/a	n/a	n/a	n/a	n/a	n/a	n/a	ITI	poldrack-single-stim	s626	False	0
666.046	1.698	667.744	6.505841500257484	draw_card	1.698	columbia_card_task_fmri	15.0	0.875	89.0	-70.0	0.125	16.0	1.0	2.0	-6.258353686111512	1.698	n/a	stim	poldrack-single-stim	s626	False	1
667.749	1.101	668.85	5.79750816692415	draw_card	1.101	columbia_card_task_fmri	15.0	0.8666666666666667	89.0	-70.0	0.1333333333333333	16.0	2.0	2.0	-5.477197732616098	1.101	n/a	stim	poldrack-single-stim	s626	False	1
668.855	0.749	669.604	4.987984357400341	draw_card	0.749	columbia_card_task_fmri	15.0	0.8571428571428572	89.0	-70.0	0.1428571428571428	16.0	3.0	2.0	-4.630072410564221	0.749	n/a	stim	poldrack-single-stim	s626	False	1
669.61	1.114	670.724	4.053918423334405	draw_card	1.114	columbia_card_task_fmri	15.0	0.8461538461538461	89.0	-70.0	0.1538461538461538	16.0	4.0	2.0	-3.7080652195561896	1.114	n/a	stim	poldrack-single-stim	s626	False	1
670.729	1.81	672.539	2.964174833590817	draw_card	1.81	columbia_card_task_fmri	15.0	0.8333333333333334	89.0	-70.0	0.1666666666666666	16.0	5.0	2.0	-2.700889465594092	1.81	n/a	stim	poldrack-single-stim	s626	False	1
672.544	1.904	674.448	1.6762960457120264	draw_card	1.904	columbia_card_task_fmri	15.0	0.8181818181818181	89.0	-70.0	0.1818181818181818	16.0	6.0	2.0	-1.5968882238774782	1.904	6.0	stim	poldrack-single-stim	s626	False	0
675.208	1.5	674.457	n/a	-1.0	2.522	columbia_card_task_fmri	n/a	n/a	-1.0	n/a	n/a	n/a	n/a	n/a	n/a	n/a	n/a	ITI	poldrack-single-stim	s626	False	0
676.984	1.808	678.792	5.505841500257484	draw_card	1.808	columbia_card_task_fmri	16.0	0.875	89.0	-85.0	0.125	16.0	1.0	2.0	-0.979598001939138	1.808	n/a	stim	poldrack-single-stim	s626	False	1
678.797	1.466	680.263	4.664174833590817	draw_card	1.466	columbia_card_task_fmri	16.0	0.8666666666666667	89.0	-85.0	0.1333333333333333	16.0	2.0	2.0	-0.0506473687430499	1.466	n/a	stim	poldrack-single-stim	s626	False	1
680.268	0.803	681.071	3.702270071686056	draw_card	0.803	columbia_card_task_fmri	16.0	0.8571428571428572	89.0	-85.0	0.1428571428571428	16.0	3.0	2.0	0.956709361968187	0.803	3.0	stim	poldrack-single-stim	s626	False	0
681.831	1.5	681.08	n/a	-1.0	2.454	columbia_card_task_fmri	n/a	n/a	-1.0	n/a	n/a	n/a	n/a	n/a	n/a	n/a	n/a	ITI	poldrack-single-stim	s626	False	0
