duration	onset	block_duration	movement_onset	planning	condition	exp_stage	experiment_exp_id	key_press	problem_id	response_time	trial_id	trial_type	worker_id	junk
3.728	3.01	3.728	6.738	1	UA_with_intermediate	practice	ward_and_allport	71	0.0	3.728	to_hand	poldrack-single-stim	s627	False
0.1	6.739	0.685	7.424	0	UA_with_intermediate	practice	ward_and_allport	82	0.0	0.685	to_board	poldrack-single-stim	s627	False
0.1	7.425	0.665	8.09	0	UA_with_intermediate	practice	ward_and_allport	71	0.0	0.665	to_hand	poldrack-single-stim	s627	False
0.1	8.09	0.554	8.644	0	UA_with_intermediate	practice	ward_and_allport	89	0.0	0.554	to_board	poldrack-single-stim	s627	False
0.1	8.646	0.579	9.225	0	UA_with_intermediate	practice	ward_and_allport	82	0.0	0.579	to_hand	poldrack-single-stim	s627	False
0.1	9.227	0.4	9.627	0	UA_with_intermediate	practice	ward_and_allport	89	0.0	0.4	to_board	poldrack-single-stim	s627	False
1.0	9.632	2.5	9.631	0	UA_with_intermediate	practice	ward_and_allport	-1	0.0	n/a	feedback	poldrack-single-stim	s627	False
3.759	12.134	3.759	15.893	1	UA_with_intermediate	practice	ward_and_allport	89	1.0	3.759	to_hand	poldrack-single-stim	s627	False
0.1	15.894	1.01	16.904	0	UA_with_intermediate	practice	ward_and_allport	82	1.0	1.01	to_board	poldrack-single-stim	s627	False
0.1	16.905	0.571	17.476	0	UA_with_intermediate	practice	ward_and_allport	71	1.0	0.571	to_hand	poldrack-single-stim	s627	False
0.1	17.477	0.487	17.964	0	UA_with_intermediate	practice	ward_and_allport	89	1.0	0.487	to_board	poldrack-single-stim	s627	False
0.1	17.966	0.816	18.782	0	UA_with_intermediate	practice	ward_and_allport	82	1.0	0.816	to_hand	poldrack-single-stim	s627	False
0.1	18.784	0.473	19.257	0	UA_with_intermediate	practice	ward_and_allport	89	1.0	0.473	to_board	poldrack-single-stim	s627	False
1.0	19.259	2.1	19.258	0	UA_with_intermediate	practice	ward_and_allport	-1	1.0	n/a	feedback	poldrack-single-stim	s627	False
2.09	21.361	2.09	23.451	1	UA_without_intermediate	practice	ward_and_allport	82	2.0	2.09	to_hand	poldrack-single-stim	s627	False
0.1	23.451	0.72	24.171	0	UA_without_intermediate	practice	ward_and_allport	89	2.0	0.72	to_board	poldrack-single-stim	s627	False
0.1	24.173	0.527	24.7	0	UA_without_intermediate	practice	ward_and_allport	71	2.0	0.527	to_hand	poldrack-single-stim	s627	False
0.1	24.701	0.411	25.112	0	UA_without_intermediate	practice	ward_and_allport	89	2.0	0.411	to_board	poldrack-single-stim	s627	False
0.1	25.113	0.958	26.071	0	UA_without_intermediate	practice	ward_and_allport	71	2.0	0.958	to_hand	poldrack-single-stim	s627	False
0.1	26.071	0.297	26.368	0	UA_without_intermediate	practice	ward_and_allport	89	2.0	0.297	to_board	poldrack-single-stim	s627	False
1.0	26.37	2.2	26.369	0	UA_without_intermediate	practice	ward_and_allport	-1	2.0	n/a	feedback	poldrack-single-stim	s627	False
1.931	28.572	1.931	30.503	1	UA_without_intermediate	practice	ward_and_allport	71	3.0	1.931	to_hand	poldrack-single-stim	s627	False
0.1	30.506	0.775	31.281	0	UA_without_intermediate	practice	ward_and_allport	89	3.0	0.775	to_board	poldrack-single-stim	s627	False
0.1	31.282	0.511	31.793	0	UA_without_intermediate	practice	ward_and_allport	82	3.0	0.511	to_hand	poldrack-single-stim	s627	False
0.1	31.794	0.411	32.205	0	UA_without_intermediate	practice	ward_and_allport	89	3.0	0.411	to_board	poldrack-single-stim	s627	False
0.1	32.208	0.485	32.693	0	UA_without_intermediate	practice	ward_and_allport	71	3.0	0.485	to_hand	poldrack-single-stim	s627	False
0.1	32.693	0.275	32.968	0	UA_without_intermediate	practice	ward_and_allport	89	3.0	0.275	to_board	poldrack-single-stim	s627	False
1.0	32.974	2.0	32.973	0	UA_without_intermediate	practice	ward_and_allport	-1	3.0	n/a	feedback	poldrack-single-stim	s627	False
2.806	36.984	2.806	39.79	1	PA_with_intermediate	test	ward_and_allport	71	0.0	2.806	to_hand	poldrack-single-stim	s627	False
0.1	39.791	2.542	42.333	0	PA_with_intermediate	test	ward_and_allport	89	0.0	2.542	to_board	poldrack-single-stim	s627	False
0.1	42.335	0.714	43.049	0	PA_with_intermediate	test	ward_and_allport	71	0.0	0.714	to_hand	poldrack-single-stim	s627	False
0.1	43.05	0.612	43.662	0	PA_with_intermediate	test	ward_and_allport	82	0.0	0.612	to_board	poldrack-single-stim	s627	False
0.1	43.664	0.575	44.239	0	PA_with_intermediate	test	ward_and_allport	89	0.0	0.575	to_hand	poldrack-single-stim	s627	False
0.1	44.24	0.408	44.648	0	PA_with_intermediate	test	ward_and_allport	82	0.0	0.408	to_board	poldrack-single-stim	s627	False
1.0	44.653	2.408	44.652	0	PA_with_intermediate	test	ward_and_allport	-1	0.0	n/a	feedback	poldrack-single-stim	s627	False
2.514	47.062	2.514	49.576	1	PA_without_intermediate	test	ward_and_allport	89	1.0	2.514	to_hand	poldrack-single-stim	s627	False
0.1	49.578	0.837	50.415	0	PA_without_intermediate	test	ward_and_allport	82	1.0	0.837	to_board	poldrack-single-stim	s627	False
0.1	50.418	0.536	50.954	0	PA_without_intermediate	test	ward_and_allport	89	1.0	0.536	to_hand	poldrack-single-stim	s627	False
0.1	50.956	0.549	51.505	0	PA_without_intermediate	test	ward_and_allport	82	1.0	0.549	to_board	poldrack-single-stim	s627	False
0.1	51.506	0.777	52.283	0	PA_without_intermediate	test	ward_and_allport	89	1.0	0.777	to_hand	poldrack-single-stim	s627	False
0.1	52.284	0.501	52.785	0	PA_without_intermediate	test	ward_and_allport	71	1.0	0.501	to_board	poldrack-single-stim	s627	False
1.0	52.79	2.68	52.789	0	PA_without_intermediate	test	ward_and_allport	-1	1.0	n/a	feedback	poldrack-single-stim	s627	False
4.069	55.474	4.069	59.543	1	PA_with_intermediate	test	ward_and_allport	82	2.0	4.069	to_hand	poldrack-single-stim	s627	False
0.1	59.544	0.607	60.151	0	PA_with_intermediate	test	ward_and_allport	71	2.0	0.607	to_board	poldrack-single-stim	s627	False
0.1	60.152	0.939	61.091	0	PA_with_intermediate	test	ward_and_allport	82	2.0	0.939	to_hand	poldrack-single-stim	s627	False
0.1	61.092	0.578	61.67	0	PA_with_intermediate	test	ward_and_allport	89	2.0	0.578	to_board	poldrack-single-stim	s627	False
0.1	61.672	0.49	62.162	0	PA_with_intermediate	test	ward_and_allport	71	2.0	0.49	to_hand	poldrack-single-stim	s627	False
0.1	62.163	0.447	62.61	0	PA_with_intermediate	test	ward_and_allport	82	2.0	0.447	to_board	poldrack-single-stim	s627	False
1.0	62.614	4.72	62.613	0	PA_with_intermediate	test	ward_and_allport	-1	2.0	n/a	feedback	poldrack-single-stim	s627	False
2.772	67.336	2.772	70.108	1	PA_without_intermediate	test	ward_and_allport	71	3.0	2.772	to_hand	poldrack-single-stim	s627	False
0.1	70.108	0.445	70.553	0	PA_without_intermediate	test	ward_and_allport	89	3.0	0.445	to_board	poldrack-single-stim	s627	False
0.1	70.555	0.474	71.029	0	PA_without_intermediate	test	ward_and_allport	71	3.0	0.474	to_hand	poldrack-single-stim	s627	False
0.1	71.03	0.502	71.532	0	PA_without_intermediate	test	ward_and_allport	82	3.0	0.502	to_board	poldrack-single-stim	s627	False
0.1	71.534	0.405	71.939	0	PA_without_intermediate	test	ward_and_allport	71	3.0	0.405	to_hand	poldrack-single-stim	s627	False
0.1	71.94	0.37	72.31	0	PA_without_intermediate	test	ward_and_allport	89	3.0	0.37	to_board	poldrack-single-stim	s627	False
1.0	72.313	3.224	72.312	0	PA_without_intermediate	test	ward_and_allport	-1	3.0	n/a	feedback	poldrack-single-stim	s627	False
2.321	75.54	2.321	77.861	1	PA_without_intermediate	test	ward_and_allport	82	4.0	2.321	to_hand	poldrack-single-stim	s627	False
0.1	77.862	0.45	78.312	0	PA_without_intermediate	test	ward_and_allport	89	4.0	0.45	to_board	poldrack-single-stim	s627	False
0.1	78.314	0.445	78.759	0	PA_without_intermediate	test	ward_and_allport	82	4.0	0.445	to_hand	poldrack-single-stim	s627	False
0.1	78.76	0.32	79.08	0	PA_without_intermediate	test	ward_and_allport	89	4.0	0.32	to_board	poldrack-single-stim	s627	False
0.1	79.082	0.862	79.944	0	PA_without_intermediate	test	ward_and_allport	82	4.0	0.862	to_hand	poldrack-single-stim	s627	False
0.1	79.945	0.332	80.277	0	PA_without_intermediate	test	ward_and_allport	71	4.0	0.332	to_board	poldrack-single-stim	s627	False
1.0	80.283	2.272	80.282	0	PA_without_intermediate	test	ward_and_allport	-1	4.0	n/a	feedback	poldrack-single-stim	s627	False
3.901	82.558	3.901	86.459	1	PA_with_intermediate	test	ward_and_allport	89	5.0	3.901	to_hand	poldrack-single-stim	s627	False
0.1	86.46	0.52	86.98	0	PA_with_intermediate	test	ward_and_allport	71	5.0	0.52	to_board	poldrack-single-stim	s627	False
0.1	86.983	0.385	87.368	0	PA_with_intermediate	test	ward_and_allport	89	5.0	0.385	to_hand	poldrack-single-stim	s627	False
0.1	87.368	0.447	87.815	0	PA_with_intermediate	test	ward_and_allport	82	5.0	0.447	to_board	poldrack-single-stim	s627	False
0.1	87.818	0.366	88.184	0	PA_with_intermediate	test	ward_and_allport	71	5.0	0.366	to_hand	poldrack-single-stim	s627	False
0.1	88.185	0.363	88.548	0	PA_with_intermediate	test	ward_and_allport	82	5.0	0.363	to_board	poldrack-single-stim	s627	False
1.0	88.556	3.632	88.555	0	PA_with_intermediate	test	ward_and_allport	-1	5.0	n/a	feedback	poldrack-single-stim	s627	False
3.876	92.189	3.876	96.065	1	PA_without_intermediate	test	ward_and_allport	82	6.0	3.876	to_hand	poldrack-single-stim	s627	False
0.1	96.066	0.497	96.563	0	PA_without_intermediate	test	ward_and_allport	71	6.0	0.497	to_board	poldrack-single-stim	s627	False
0.1	96.565	0.675	97.24	0	PA_without_intermediate	test	ward_and_allport	82	6.0	0.675	to_hand	poldrack-single-stim	s627	False
0.1	97.241	1.237	98.478	0	PA_without_intermediate	test	ward_and_allport	71	6.0	1.237	to_board	poldrack-single-stim	s627	False
0.1	98.48	0.446	98.926	0	PA_without_intermediate	test	ward_and_allport	82	6.0	0.446	to_hand	poldrack-single-stim	s627	False
0.1	98.927	0.368	99.295	0	PA_without_intermediate	test	ward_and_allport	89	6.0	0.368	to_board	poldrack-single-stim	s627	False
1.0	99.3	2.408	99.299	0	PA_without_intermediate	test	ward_and_allport	-1	6.0	n/a	feedback	poldrack-single-stim	s627	False
2.552	101.71	2.552	104.262	1	PA_without_intermediate	test	ward_and_allport	89	7.0	2.552	to_hand	poldrack-single-stim	s627	False
0.1	104.264	0.463	104.727	0	PA_without_intermediate	test	ward_and_allport	71	7.0	0.463	to_board	poldrack-single-stim	s627	False
0.1	104.729	0.492	105.221	0	PA_without_intermediate	test	ward_and_allport	89	7.0	0.492	to_hand	poldrack-single-stim	s627	False
0.1	105.223	0.507	105.73	0	PA_without_intermediate	test	ward_and_allport	82	7.0	0.507	to_board	poldrack-single-stim	s627	False
0.1	105.732	0.403	106.135	0	PA_without_intermediate	test	ward_and_allport	89	7.0	0.403	to_hand	poldrack-single-stim	s627	False
0.1	106.136	0.363	106.499	0	PA_without_intermediate	test	ward_and_allport	71	7.0	0.363	to_board	poldrack-single-stim	s627	False
1.0	106.503	2.0	106.502	0	PA_without_intermediate	test	ward_and_allport	-1	7.0	n/a	feedback	poldrack-single-stim	s627	False
3.201	108.506	3.201	111.707	1	PA_with_intermediate	test	ward_and_allport	82	8.0	3.201	to_hand	poldrack-single-stim	s627	False
0.1	111.708	1.028	112.736	0	PA_with_intermediate	test	ward_and_allport	71	8.0	1.028	to_board	poldrack-single-stim	s627	False
0.1	112.739	0.446	113.185	0	PA_with_intermediate	test	ward_and_allport	82	8.0	0.446	to_hand	poldrack-single-stim	s627	False
0.1	113.186	0.416	113.602	0	PA_with_intermediate	test	ward_and_allport	89	8.0	0.416	to_board	poldrack-single-stim	s627	False
0.1	113.605	0.429	114.034	0	PA_with_intermediate	test	ward_and_allport	71	8.0	0.429	to_hand	poldrack-single-stim	s627	False
0.1	114.036	0.471	114.507	0	PA_with_intermediate	test	ward_and_allport	82	8.0	0.471	to_board	poldrack-single-stim	s627	False
1.0	114.514	2.0	114.513	0	PA_with_intermediate	test	ward_and_allport	-1	8.0	n/a	feedback	poldrack-single-stim	s627	False
2.331	116.517	2.331	118.848	1	PA_with_intermediate	test	ward_and_allport	71	9.0	2.331	to_hand	poldrack-single-stim	s627	False
0.1	118.849	0.467	119.316	0	PA_with_intermediate	test	ward_and_allport	82	9.0	0.467	to_board	poldrack-single-stim	s627	False
0.1	119.319	0.388	119.707	0	PA_with_intermediate	test	ward_and_allport	71	9.0	0.388	to_hand	poldrack-single-stim	s627	False
0.1	119.709	0.445	120.154	0	PA_with_intermediate	test	ward_and_allport	89	9.0	0.445	to_board	poldrack-single-stim	s627	False
0.1	120.157	0.498	120.655	0	PA_with_intermediate	test	ward_and_allport	82	9.0	0.498	to_hand	poldrack-single-stim	s627	False
0.1	120.655	0.468	121.123	0	PA_with_intermediate	test	ward_and_allport	71	9.0	0.468	to_board	poldrack-single-stim	s627	False
1.0	121.131	2.0	121.13	0	PA_with_intermediate	test	ward_and_allport	-1	9.0	n/a	feedback	poldrack-single-stim	s627	False
2.093	123.135	2.093	125.228	1	PA_with_intermediate	test	ward_and_allport	71	10.0	2.093	to_hand	poldrack-single-stim	s627	False
0.1	125.229	0.433	125.662	0	PA_with_intermediate	test	ward_and_allport	89	10.0	0.433	to_board	poldrack-single-stim	s627	False
0.1	125.664	0.35	126.014	0	PA_with_intermediate	test	ward_and_allport	71	10.0	0.35	to_hand	poldrack-single-stim	s627	False
0.1	126.015	0.358	126.373	0	PA_with_intermediate	test	ward_and_allport	82	10.0	0.358	to_board	poldrack-single-stim	s627	False
0.1	126.377	0.379	126.756	0	PA_with_intermediate	test	ward_and_allport	89	10.0	0.379	to_hand	poldrack-single-stim	s627	False
0.1	126.756	0.378	127.134	0	PA_with_intermediate	test	ward_and_allport	71	10.0	0.378	to_board	poldrack-single-stim	s627	False
1.0	127.142	2.408	127.141	0	PA_with_intermediate	test	ward_and_allport	-1	10.0	n/a	feedback	poldrack-single-stim	s627	False
3.111	129.553	3.111	132.664	1	PA_without_intermediate	test	ward_and_allport	71	11.0	3.111	to_hand	poldrack-single-stim	s627	False
0.1	132.664	0.824	133.488	0	PA_without_intermediate	test	ward_and_allport	82	11.0	0.824	to_board	poldrack-single-stim	s627	False
0.1	133.492	0.701	134.193	0	PA_without_intermediate	test	ward_and_allport	71	11.0	0.701	to_hand	poldrack-single-stim	s627	False
0.1	134.194	0.358	134.552	0	PA_without_intermediate	test	ward_and_allport	89	11.0	0.358	to_board	poldrack-single-stim	s627	False
0.1	134.554	0.387	134.941	0	PA_without_intermediate	test	ward_and_allport	71	11.0	0.387	to_hand	poldrack-single-stim	s627	False
0.1	134.942	0.338	135.28	0	PA_without_intermediate	test	ward_and_allport	82	11.0	0.338	to_board	poldrack-single-stim	s627	False
1.0	135.288	2.816	135.287	0	PA_without_intermediate	test	ward_and_allport	-1	11.0	n/a	feedback	poldrack-single-stim	s627	False
1.968	138.108	1.968	140.076	1	PA_with_intermediate	test	ward_and_allport	71	12.0	1.968	to_hand	poldrack-single-stim	s627	False
0.1	140.077	0.551	140.628	0	PA_with_intermediate	test	ward_and_allport	82	12.0	0.551	to_board	poldrack-single-stim	s627	False
0.1	140.632	0.352	140.984	0	PA_with_intermediate	test	ward_and_allport	71	12.0	0.352	to_hand	poldrack-single-stim	s627	False
0.1	140.985	0.348	141.333	0	PA_with_intermediate	test	ward_and_allport	89	12.0	0.348	to_board	poldrack-single-stim	s627	False
0.1	141.337	0.438	141.775	0	PA_with_intermediate	test	ward_and_allport	82	12.0	0.438	to_hand	poldrack-single-stim	s627	False
0.1	141.776	0.945	142.721	0	PA_with_intermediate	test	ward_and_allport	89	12.0	0.945	to_board	poldrack-single-stim	s627	False
1.0	142.726	4.176	142.725	0	PA_with_intermediate	test	ward_and_allport	-1	12.0	n/a	feedback	poldrack-single-stim	s627	False
3.78	146.907	3.78	150.687	1	PA_with_intermediate	test	ward_and_allport	89	13.0	3.78	to_hand	poldrack-single-stim	s627	False
0.1	150.688	0.587	151.275	0	PA_with_intermediate	test	ward_and_allport	82	13.0	0.587	to_board	poldrack-single-stim	s627	False
0.1	151.279	0.943	152.222	0	PA_with_intermediate	test	ward_and_allport	89	13.0	0.943	to_hand	poldrack-single-stim	s627	False
0.1	152.223	0.495	152.718	0	PA_with_intermediate	test	ward_and_allport	71	13.0	0.495	to_board	poldrack-single-stim	s627	False
0.1	152.722	0.418	153.14	0	PA_with_intermediate	test	ward_and_allport	82	13.0	0.418	to_hand	poldrack-single-stim	s627	False
0.1	153.141	0.445	153.586	0	PA_with_intermediate	test	ward_and_allport	71	13.0	0.445	to_board	poldrack-single-stim	s627	False
1.0	153.593	3.36	153.592	0	PA_with_intermediate	test	ward_and_allport	-1	13.0	n/a	feedback	poldrack-single-stim	s627	False
2.175	156.956	2.175	159.131	1	PA_with_intermediate	test	ward_and_allport	89	14.0	2.175	to_hand	poldrack-single-stim	s627	False
0.1	159.132	0.524	159.656	0	PA_with_intermediate	test	ward_and_allport	71	14.0	0.524	to_board	poldrack-single-stim	s627	False
0.1	159.66	0.449	160.109	0	PA_with_intermediate	test	ward_and_allport	89	14.0	0.449	to_hand	poldrack-single-stim	s627	False
0.1	160.11	0.47	160.58	0	PA_with_intermediate	test	ward_and_allport	82	14.0	0.47	to_board	poldrack-single-stim	s627	False
0.1	160.583	0.39	160.973	0	PA_with_intermediate	test	ward_and_allport	71	14.0	0.39	to_hand	poldrack-single-stim	s627	False
0.1	160.975	0.299	161.274	0	PA_with_intermediate	test	ward_and_allport	89	14.0	0.299	to_board	poldrack-single-stim	s627	False
1.0	161.278	2.0	161.277	0	PA_with_intermediate	test	ward_and_allport	-1	14.0	n/a	feedback	poldrack-single-stim	s627	False
3.109	168.285	3.109	171.394	1	PA_without_intermediate	test	ward_and_allport	89	15.0	3.109	to_hand	poldrack-single-stim	s627	False
0.1	171.396	0.494	171.89	0	PA_without_intermediate	test	ward_and_allport	82	15.0	0.494	to_board	poldrack-single-stim	s627	False
0.1	171.896	0.424	172.32	0	PA_without_intermediate	test	ward_and_allport	89	15.0	0.424	to_hand	poldrack-single-stim	s627	False
0.1	172.32	0.382	172.702	0	PA_without_intermediate	test	ward_and_allport	71	15.0	0.382	to_board	poldrack-single-stim	s627	False
0.1	172.707	0.447	173.154	0	PA_without_intermediate	test	ward_and_allport	89	15.0	0.447	to_hand	poldrack-single-stim	s627	False
0.1	173.155	0.39	173.545	0	PA_without_intermediate	test	ward_and_allport	82	15.0	0.39	to_board	poldrack-single-stim	s627	False
1.0	173.551	2.408	173.55	0	PA_without_intermediate	test	ward_and_allport	-1	15.0	n/a	feedback	poldrack-single-stim	s627	False
2.432	175.964	2.432	178.396	1	PA_with_intermediate	test	ward_and_allport	89	16.0	2.432	to_hand	poldrack-single-stim	s627	False
0.1	178.397	0.526	178.923	0	PA_with_intermediate	test	ward_and_allport	71	16.0	0.526	to_board	poldrack-single-stim	s627	False
0.1	178.927	0.391	179.318	0	PA_with_intermediate	test	ward_and_allport	89	16.0	0.391	to_hand	poldrack-single-stim	s627	False
0.1	179.319	0.375	179.694	0	PA_with_intermediate	test	ward_and_allport	82	16.0	0.375	to_board	poldrack-single-stim	s627	False
0.1	179.698	0.418	180.116	0	PA_with_intermediate	test	ward_and_allport	71	16.0	0.418	to_hand	poldrack-single-stim	s627	False
0.1	180.117	0.332	180.449	0	PA_with_intermediate	test	ward_and_allport	82	16.0	0.332	to_board	poldrack-single-stim	s627	False
1.0	180.457	2.816	180.456	0	PA_with_intermediate	test	ward_and_allport	-1	16.0	n/a	feedback	poldrack-single-stim	s627	False
2.89	183.276	2.89	186.166	1	PA_without_intermediate	test	ward_and_allport	82	17.0	2.89	to_hand	poldrack-single-stim	s627	False
0.1	186.168	0.494	186.662	0	PA_without_intermediate	test	ward_and_allport	89	17.0	0.494	to_board	poldrack-single-stim	s627	False
0.1	186.666	0.389	187.055	0	PA_without_intermediate	test	ward_and_allport	82	17.0	0.389	to_hand	poldrack-single-stim	s627	False
0.1	187.057	0.639	187.696	0	PA_without_intermediate	test	ward_and_allport	89	17.0	0.639	to_board	poldrack-single-stim	s627	False
0.1	187.7	0.766	188.466	0	PA_without_intermediate	test	ward_and_allport	82	17.0	0.766	to_hand	poldrack-single-stim	s627	False
0.1	188.467	0.336	188.803	0	PA_without_intermediate	test	ward_and_allport	71	17.0	0.336	to_board	poldrack-single-stim	s627	False
1.0	188.809	3.088	188.808	0	PA_without_intermediate	test	ward_and_allport	-1	17.0	n/a	feedback	poldrack-single-stim	s627	False
2.595	191.901	2.595	194.496	1	PA_without_intermediate	test	ward_and_allport	82	18.0	2.595	to_hand	poldrack-single-stim	s627	False
0.1	194.496	0.606	195.102	0	PA_without_intermediate	test	ward_and_allport	89	18.0	0.606	to_board	poldrack-single-stim	s627	False
0.1	195.106	1.086	196.192	0	PA_without_intermediate	test	ward_and_allport	82	18.0	1.086	to_hand	poldrack-single-stim	s627	False
0.1	196.194	0.473	196.667	0	PA_without_intermediate	test	ward_and_allport	71	18.0	0.473	to_board	poldrack-single-stim	s627	False
0.1	196.671	0.945	197.616	0	PA_without_intermediate	test	ward_and_allport	82	18.0	0.945	to_hand	poldrack-single-stim	s627	False
0.1	197.617	0.357	197.974	0	PA_without_intermediate	test	ward_and_allport	89	18.0	0.357	to_board	poldrack-single-stim	s627	False
1.0	197.98	2.136	197.979	0	PA_without_intermediate	test	ward_and_allport	-1	18.0	n/a	feedback	poldrack-single-stim	s627	False
1.899	200.12	1.899	202.019	1	PA_without_intermediate	test	ward_and_allport	71	19.0	1.899	to_hand	poldrack-single-stim	s627	False
0.1	202.02	0.551	202.571	0	PA_without_intermediate	test	ward_and_allport	89	19.0	0.551	to_board	poldrack-single-stim	s627	False
0.1	202.576	0.64	203.216	0	PA_without_intermediate	test	ward_and_allport	71	19.0	0.64	to_hand	poldrack-single-stim	s627	False
0.1	203.216	0.433	203.649	0	PA_without_intermediate	test	ward_and_allport	82	19.0	0.433	to_board	poldrack-single-stim	s627	False
0.1	203.653	0.419	204.072	0	PA_without_intermediate	test	ward_and_allport	71	19.0	0.419	to_hand	poldrack-single-stim	s627	False
0.1	204.074	0.273	204.347	0	PA_without_intermediate	test	ward_and_allport	89	19.0	0.273	to_board	poldrack-single-stim	s627	False
1.0	204.357	7.168	204.356	0	PA_without_intermediate	test	ward_and_allport	-1	19.0	n/a	feedback	poldrack-single-stim	s627	False
2.853	211.529	2.853	214.382	1	PA_without_intermediate	test	ward_and_allport	71	20.0	2.853	to_hand	poldrack-single-stim	s627	False
0.1	214.383	0.665	215.048	0	PA_without_intermediate	test	ward_and_allport	82	20.0	0.665	to_board	poldrack-single-stim	s627	False
0.1	215.052	0.51	215.562	0	PA_without_intermediate	test	ward_and_allport	71	20.0	0.51	to_hand	poldrack-single-stim	s627	False
0.1	215.564	0.384	215.948	0	PA_without_intermediate	test	ward_and_allport	89	20.0	0.384	to_board	poldrack-single-stim	s627	False
0.1	215.953	0.401	216.354	0	PA_without_intermediate	test	ward_and_allport	71	20.0	0.401	to_hand	poldrack-single-stim	s627	False
0.1	216.355	0.276	216.631	0	PA_without_intermediate	test	ward_and_allport	82	20.0	0.276	to_board	poldrack-single-stim	s627	False
1.0	216.64	2.816	216.639	0	PA_without_intermediate	test	ward_and_allport	-1	20.0	n/a	feedback	poldrack-single-stim	s627	False
2.253	219.46	2.253	221.713	1	PA_with_intermediate	test	ward_and_allport	71	21.0	2.253	to_hand	poldrack-single-stim	s627	False
0.1	221.713	0.442	222.155	0	PA_with_intermediate	test	ward_and_allport	89	21.0	0.442	to_board	poldrack-single-stim	s627	False
0.1	222.161	0.411	222.572	0	PA_with_intermediate	test	ward_and_allport	71	21.0	0.411	to_hand	poldrack-single-stim	s627	False
0.1	222.572	0.336	222.908	0	PA_with_intermediate	test	ward_and_allport	82	21.0	0.336	to_board	poldrack-single-stim	s627	False
0.1	222.914	0.838	223.752	0	PA_with_intermediate	test	ward_and_allport	89	21.0	0.838	to_hand	poldrack-single-stim	s627	False
0.1	223.752	0.417	224.169	0	PA_with_intermediate	test	ward_and_allport	82	21.0	0.417	to_board	poldrack-single-stim	s627	False
1.0	224.177	2.952	224.176	0	PA_with_intermediate	test	ward_and_allport	-1	21.0	n/a	feedback	poldrack-single-stim	s627	False
2.691	227.135	2.691	229.826	1	PA_with_intermediate	test	ward_and_allport	71	22.0	2.691	to_hand	poldrack-single-stim	s627	False
0.1	229.826	0.384	230.21	0	PA_with_intermediate	test	ward_and_allport	82	22.0	0.384	to_board	poldrack-single-stim	s627	False
0.1	230.216	0.393	230.609	0	PA_with_intermediate	test	ward_and_allport	71	22.0	0.393	to_hand	poldrack-single-stim	s627	False
0.1	230.609	0.352	230.961	0	PA_with_intermediate	test	ward_and_allport	89	22.0	0.352	to_board	poldrack-single-stim	s627	False
0.1	230.967	0.431	231.398	0	PA_with_intermediate	test	ward_and_allport	82	22.0	0.431	to_hand	poldrack-single-stim	s627	False
0.1	231.398	0.283	231.681	0	PA_with_intermediate	test	ward_and_allport	89	22.0	0.283	to_board	poldrack-single-stim	s627	False
1.0	231.688	2.136	231.687	0	PA_with_intermediate	test	ward_and_allport	-1	22.0	n/a	feedback	poldrack-single-stim	s627	False
2.222	233.83	2.222	236.052	1	PA_without_intermediate	test	ward_and_allport	82	23.0	2.222	to_hand	poldrack-single-stim	s627	False
0.1	236.054	0.432	236.486	0	PA_without_intermediate	test	ward_and_allport	89	23.0	0.432	to_board	poldrack-single-stim	s627	False
0.1	236.491	0.497	236.988	0	PA_without_intermediate	test	ward_and_allport	82	23.0	0.497	to_hand	poldrack-single-stim	s627	False
0.1	236.989	0.775	237.764	0	PA_without_intermediate	test	ward_and_allport	71	23.0	0.775	to_board	poldrack-single-stim	s627	False
0.1	237.77	1.986	239.756	0	PA_without_intermediate	test	ward_and_allport	82	23.0	1.986	to_hand	poldrack-single-stim	s627	False
0.1	239.757	0.288	240.045	0	PA_without_intermediate	test	ward_and_allport	89	23.0	0.288	to_board	poldrack-single-stim	s627	False
1.0	240.051	2.68	240.05	0	PA_without_intermediate	test	ward_and_allport	-1	23.0	n/a	feedback	poldrack-single-stim	s627	False
2.46	242.737	2.46	245.197	1	PA_without_intermediate	test	ward_and_allport	71	24.0	2.46	to_hand	poldrack-single-stim	s627	False
0.1	245.198	0.344	245.542	0	PA_without_intermediate	test	ward_and_allport	89	24.0	0.344	to_board	poldrack-single-stim	s627	False
0.1	245.548	0.352	245.9	0	PA_without_intermediate	test	ward_and_allport	71	24.0	0.352	to_hand	poldrack-single-stim	s627	False
0.1	245.9	0.298	246.198	0	PA_without_intermediate	test	ward_and_allport	89	24.0	0.298	to_board	poldrack-single-stim	s627	False
0.1	246.204	0.398	246.602	0	PA_without_intermediate	test	ward_and_allport	71	24.0	0.398	to_hand	poldrack-single-stim	s627	False
0.1	246.603	0.313	246.916	0	PA_without_intermediate	test	ward_and_allport	82	24.0	0.313	to_board	poldrack-single-stim	s627	False
1.0	246.923	3.088	246.922	0	PA_without_intermediate	test	ward_and_allport	-1	24.0	n/a	feedback	poldrack-single-stim	s627	False
2.019	250.017	2.019	252.036	1	PA_with_intermediate	test	ward_and_allport	82	25.0	2.019	to_hand	poldrack-single-stim	s627	False
0.1	252.037	0.91	252.947	0	PA_with_intermediate	test	ward_and_allport	89	25.0	0.91	to_board	poldrack-single-stim	s627	False
0.1	252.953	0.895	253.848	0	PA_with_intermediate	test	ward_and_allport	82	25.0	0.895	to_hand	poldrack-single-stim	s627	False
0.1	253.849	0.827	254.676	0	PA_with_intermediate	test	ward_and_allport	71	25.0	0.827	to_board	poldrack-single-stim	s627	False
0.1	254.682	0.414	255.096	0	PA_with_intermediate	test	ward_and_allport	89	25.0	0.414	to_hand	poldrack-single-stim	s627	False
0.1	255.097	0.362	255.459	0	PA_with_intermediate	test	ward_and_allport	82	25.0	0.362	to_board	poldrack-single-stim	s627	False
1.0	255.467	2.0	255.466	0	PA_with_intermediate	test	ward_and_allport	-1	25.0	n/a	feedback	poldrack-single-stim	s627	False
3.473	257.473	3.473	260.946	1	PA_without_intermediate	test	ward_and_allport	89	26.0	3.473	to_hand	poldrack-single-stim	s627	False
0.1	260.947	0.539	261.486	0	PA_without_intermediate	test	ward_and_allport	82	26.0	0.539	to_board	poldrack-single-stim	s627	False
0.1	261.492	0.487	261.979	0	PA_without_intermediate	test	ward_and_allport	89	26.0	0.487	to_hand	poldrack-single-stim	s627	False
0.1	261.98	0.617	262.597	0	PA_without_intermediate	test	ward_and_allport	82	26.0	0.617	to_board	poldrack-single-stim	s627	False
0.1	262.603	0.481	263.084	0	PA_without_intermediate	test	ward_and_allport	89	26.0	0.481	to_hand	poldrack-single-stim	s627	False
0.1	263.085	0.367	263.452	0	PA_without_intermediate	test	ward_and_allport	71	26.0	0.367	to_board	poldrack-single-stim	s627	False
1.0	263.462	2.0	263.461	0	PA_without_intermediate	test	ward_and_allport	-1	26.0	n/a	feedback	poldrack-single-stim	s627	False
1.974	265.468	1.974	267.442	1	PA_without_intermediate	test	ward_and_allport	82	27.0	1.974	to_hand	poldrack-single-stim	s627	False
0.1	267.444	0.707	268.151	0	PA_without_intermediate	test	ward_and_allport	71	27.0	0.707	to_board	poldrack-single-stim	s627	False
0.1	268.157	0.606	268.763	0	PA_without_intermediate	test	ward_and_allport	82	27.0	0.606	to_hand	poldrack-single-stim	s627	False
0.1	268.764	0.397	269.161	0	PA_without_intermediate	test	ward_and_allport	71	27.0	0.397	to_board	poldrack-single-stim	s627	False
0.1	269.168	0.392	269.56	0	PA_without_intermediate	test	ward_and_allport	82	27.0	0.392	to_hand	poldrack-single-stim	s627	False
0.1	269.56	0.283	269.843	0	PA_without_intermediate	test	ward_and_allport	89	27.0	0.283	to_board	poldrack-single-stim	s627	False
1.0	269.852	2.0	269.851	0	PA_without_intermediate	test	ward_and_allport	-1	27.0	n/a	feedback	poldrack-single-stim	s627	False
1.809	271.858	1.809	273.667	1	PA_with_intermediate	test	ward_and_allport	82	28.0	1.809	to_hand	poldrack-single-stim	s627	False
0.1	273.668	2.273	275.941	0	PA_with_intermediate	test	ward_and_allport	89	28.0	2.273	to_board	poldrack-single-stim	s627	False
0.1	275.946	0.514	276.46	0	PA_with_intermediate	test	ward_and_allport	82	28.0	0.514	to_hand	poldrack-single-stim	s627	False
0.1	276.462	0.454	276.916	0	PA_with_intermediate	test	ward_and_allport	71	28.0	0.454	to_board	poldrack-single-stim	s627	False
0.1	276.923	0.388	277.311	0	PA_with_intermediate	test	ward_and_allport	89	28.0	0.388	to_hand	poldrack-single-stim	s627	False
0.1	277.312	0.515	277.827	0	PA_with_intermediate	test	ward_and_allport	71	28.0	0.515	to_board	poldrack-single-stim	s627	False
1.0	277.836	2.544	277.835	0	PA_with_intermediate	test	ward_and_allport	-1	28.0	n/a	feedback	poldrack-single-stim	s627	False
2.161	280.387	2.161	282.548	1	PA_without_intermediate	test	ward_and_allport	89	29.0	2.161	to_hand	poldrack-single-stim	s627	False
0.1	282.549	0.435	282.984	0	PA_without_intermediate	test	ward_and_allport	71	29.0	0.435	to_board	poldrack-single-stim	s627	False
0.1	282.991	0.338	283.329	0	PA_without_intermediate	test	ward_and_allport	89	29.0	0.338	to_hand	poldrack-single-stim	s627	False
0.1	283.331	0.368	283.699	0	PA_without_intermediate	test	ward_and_allport	82	29.0	0.368	to_board	poldrack-single-stim	s627	False
0.1	283.704	0.411	284.115	0	PA_without_intermediate	test	ward_and_allport	89	29.0	0.411	to_hand	poldrack-single-stim	s627	False
0.1	284.117	0.356	284.473	0	PA_without_intermediate	test	ward_and_allport	71	29.0	0.356	to_board	poldrack-single-stim	s627	False
1.0	284.483	2.272	284.482	0	PA_without_intermediate	test	ward_and_allport	-1	29.0	n/a	feedback	poldrack-single-stim	s627	False
2.666	291.766	2.666	294.432	1	PA_with_intermediate	test	ward_and_allport	82	30.0	2.666	to_hand	poldrack-single-stim	s627	False
0.1	294.433	0.434	294.867	0	PA_with_intermediate	test	ward_and_allport	71	30.0	0.434	to_board	poldrack-single-stim	s627	False
0.1	294.873	0.362	295.235	0	PA_with_intermediate	test	ward_and_allport	82	30.0	0.362	to_hand	poldrack-single-stim	s627	False
0.1	295.237	0.334	295.571	0	PA_with_intermediate	test	ward_and_allport	89	30.0	0.334	to_board	poldrack-single-stim	s627	False
0.1	295.576	0.345	295.921	0	PA_with_intermediate	test	ward_and_allport	71	30.0	0.345	to_hand	poldrack-single-stim	s627	False
0.1	295.922	0.263	296.185	0	PA_with_intermediate	test	ward_and_allport	89	30.0	0.263	to_board	poldrack-single-stim	s627	False
1.0	296.196	4.04	296.195	0	PA_with_intermediate	test	ward_and_allport	-1	30.0	n/a	feedback	poldrack-single-stim	s627	False
2.974	300.244	2.974	303.218	1	PA_with_intermediate	test	ward_and_allport	89	31.0	2.974	to_hand	poldrack-single-stim	s627	False
0.1	303.219	1.007	304.226	0	PA_with_intermediate	test	ward_and_allport	82	31.0	1.007	to_board	poldrack-single-stim	s627	False
0.1	304.233	0.452	304.685	0	PA_with_intermediate	test	ward_and_allport	89	31.0	0.452	to_hand	poldrack-single-stim	s627	False
0.1	304.686	0.386	305.072	0	PA_with_intermediate	test	ward_and_allport	71	31.0	0.386	to_board	poldrack-single-stim	s627	False
0.1	305.079	0.356	305.435	0	PA_with_intermediate	test	ward_and_allport	82	31.0	0.356	to_hand	poldrack-single-stim	s627	False
0.1	305.436	0.261	305.697	0	PA_with_intermediate	test	ward_and_allport	89	31.0	0.261	to_board	poldrack-single-stim	s627	False
1.0	305.709	2.272	305.708	0	PA_with_intermediate	test	ward_and_allport	-1	31.0	n/a	feedback	poldrack-single-stim	s627	False
2.354	307.988	2.354	310.342	1	PA_with_intermediate	test	ward_and_allport	89	32.0	2.354	to_hand	poldrack-single-stim	s627	False
0.1	310.343	0.762	311.105	0	PA_with_intermediate	test	ward_and_allport	71	32.0	0.762	to_board	poldrack-single-stim	s627	False
0.1	311.112	0.327	311.439	0	PA_with_intermediate	test	ward_and_allport	89	32.0	0.327	to_hand	poldrack-single-stim	s627	False
0.1	311.441	0.327	311.768	0	PA_with_intermediate	test	ward_and_allport	82	32.0	0.327	to_board	poldrack-single-stim	s627	False
0.1	311.775	0.337	312.112	0	PA_with_intermediate	test	ward_and_allport	71	32.0	0.337	to_hand	poldrack-single-stim	s627	False
0.1	312.113	0.241	312.354	0	PA_with_intermediate	test	ward_and_allport	89	32.0	0.241	to_board	poldrack-single-stim	s627	False
1.0	312.362	2.136	312.361	0	PA_with_intermediate	test	ward_and_allport	-1	32.0	n/a	feedback	poldrack-single-stim	s627	False
2.381	314.505	2.381	316.886	1	PA_with_intermediate	test	ward_and_allport	89	33.0	2.381	to_hand	poldrack-single-stim	s627	False
0.1	316.887	0.431	317.318	0	PA_with_intermediate	test	ward_and_allport	82	33.0	0.431	to_board	poldrack-single-stim	s627	False
0.1	317.325	0.327	317.652	0	PA_with_intermediate	test	ward_and_allport	89	33.0	0.327	to_hand	poldrack-single-stim	s627	False
0.1	317.653	0.653	318.306	0	PA_with_intermediate	test	ward_and_allport	71	33.0	0.653	to_board	poldrack-single-stim	s627	False
0.1	318.313	0.369	318.682	0	PA_with_intermediate	test	ward_and_allport	82	33.0	0.369	to_hand	poldrack-single-stim	s627	False
0.1	318.682	0.356	319.038	0	PA_with_intermediate	test	ward_and_allport	71	33.0	0.356	to_board	poldrack-single-stim	s627	False
1.0	319.048	2.0	319.047	0	PA_with_intermediate	test	ward_and_allport	-1	33.0	n/a	feedback	poldrack-single-stim	s627	False
3.136	321.056	3.136	324.192	1	PA_with_intermediate	test	ward_and_allport	89	34.0	3.136	to_hand	poldrack-single-stim	s627	False
0.1	324.193	0.375	324.568	0	PA_with_intermediate	test	ward_and_allport	82	34.0	0.375	to_board	poldrack-single-stim	s627	False
0.1	324.576	0.378	324.954	0	PA_with_intermediate	test	ward_and_allport	89	34.0	0.378	to_hand	poldrack-single-stim	s627	False
0.1	324.955	0.318	325.273	0	PA_with_intermediate	test	ward_and_allport	71	34.0	0.318	to_board	poldrack-single-stim	s627	False
0.1	325.282	0.338	325.62	0	PA_with_intermediate	test	ward_and_allport	82	34.0	0.338	to_hand	poldrack-single-stim	s627	False
0.1	325.621	0.294	325.915	0	PA_with_intermediate	test	ward_and_allport	89	34.0	0.294	to_board	poldrack-single-stim	s627	False
1.0	325.928	2.0	325.927	0	PA_with_intermediate	test	ward_and_allport	-1	34.0	n/a	feedback	poldrack-single-stim	s627	False
2.196	327.934	2.196	330.13	1	PA_without_intermediate	test	ward_and_allport	89	35.0	2.196	to_hand	poldrack-single-stim	s627	False
0.1	330.131	0.376	330.507	0	PA_without_intermediate	test	ward_and_allport	71	35.0	0.376	to_board	poldrack-single-stim	s627	False
0.1	330.512	0.294	330.806	0	PA_without_intermediate	test	ward_and_allport	89	35.0	0.294	to_hand	poldrack-single-stim	s627	False
0.1	330.808	0.295	331.103	0	PA_without_intermediate	test	ward_and_allport	71	35.0	0.295	to_board	poldrack-single-stim	s627	False
0.1	331.109	0.319	331.428	0	PA_without_intermediate	test	ward_and_allport	89	35.0	0.319	to_hand	poldrack-single-stim	s627	False
0.1	331.428	0.349	331.777	0	PA_without_intermediate	test	ward_and_allport	82	35.0	0.349	to_board	poldrack-single-stim	s627	False
1.0	331.785	2.408	331.784	0	PA_without_intermediate	test	ward_and_allport	-1	35.0	n/a	feedback	poldrack-single-stim	s627	False
2.612	334.198	2.612	336.81	1	PA_with_intermediate	test	ward_and_allport	82	36.0	2.612	to_hand	poldrack-single-stim	s627	False
0.1	336.811	0.309	337.12	0	PA_with_intermediate	test	ward_and_allport	89	36.0	0.309	to_board	poldrack-single-stim	s627	False
0.1	337.125	0.39	337.515	0	PA_with_intermediate	test	ward_and_allport	82	36.0	0.39	to_hand	poldrack-single-stim	s627	False
0.1	337.516	0.367	337.883	0	PA_with_intermediate	test	ward_and_allport	71	36.0	0.367	to_board	poldrack-single-stim	s627	False
0.1	337.892	0.337	338.229	0	PA_with_intermediate	test	ward_and_allport	89	36.0	0.337	to_hand	poldrack-single-stim	s627	False
0.1	338.229	0.326	338.555	0	PA_with_intermediate	test	ward_and_allport	82	36.0	0.326	to_board	poldrack-single-stim	s627	False
1.0	338.571	3.768	338.57	0	PA_with_intermediate	test	ward_and_allport	-1	36.0	n/a	feedback	poldrack-single-stim	s627	False
2.239	342.346	2.239	344.585	1	PA_with_intermediate	test	ward_and_allport	82	37.0	2.239	to_hand	poldrack-single-stim	s627	False
0.1	344.586	0.45	345.036	0	PA_with_intermediate	test	ward_and_allport	71	37.0	0.45	to_board	poldrack-single-stim	s627	False
0.1	345.041	0.331	345.372	0	PA_with_intermediate	test	ward_and_allport	82	37.0	0.331	to_hand	poldrack-single-stim	s627	False
0.1	345.374	0.372	345.746	0	PA_with_intermediate	test	ward_and_allport	89	37.0	0.372	to_board	poldrack-single-stim	s627	False
0.1	345.754	0.514	346.268	0	PA_with_intermediate	test	ward_and_allport	71	37.0	0.514	to_hand	poldrack-single-stim	s627	False
0.1	346.269	0.305	346.574	0	PA_with_intermediate	test	ward_and_allport	89	37.0	0.305	to_board	poldrack-single-stim	s627	False
1.0	346.587	2.68	346.586	0	PA_with_intermediate	test	ward_and_allport	-1	37.0	n/a	feedback	poldrack-single-stim	s627	False
2.722	349.275	2.722	351.997	1	PA_without_intermediate	test	ward_and_allport	71	38.0	2.722	to_hand	poldrack-single-stim	s627	False
0.1	351.999	0.337	352.336	0	PA_without_intermediate	test	ward_and_allport	82	38.0	0.337	to_board	poldrack-single-stim	s627	False
0.1	352.342	0.699	353.041	0	PA_without_intermediate	test	ward_and_allport	71	38.0	0.699	to_hand	poldrack-single-stim	s627	False
0.1	353.042	0.316	353.358	0	PA_without_intermediate	test	ward_and_allport	82	38.0	0.316	to_board	poldrack-single-stim	s627	False
0.1	353.365	0.698	354.063	0	PA_without_intermediate	test	ward_and_allport	71	38.0	0.698	to_hand	poldrack-single-stim	s627	False
0.1	354.064	0.24	354.304	0	PA_without_intermediate	test	ward_and_allport	89	38.0	0.24	to_board	poldrack-single-stim	s627	False
1.0	354.316	3.224	354.315	0	PA_without_intermediate	test	ward_and_allport	-1	38.0	n/a	feedback	poldrack-single-stim	s627	False
1.122	357.547	1.122	358.669	1	PA_without_intermediate	test	ward_and_allport	71	39.0	1.122	to_hand	poldrack-single-stim	s627	False
0.1	358.671	0.399	359.07	0	PA_without_intermediate	test	ward_and_allport	82	39.0	0.399	to_board	poldrack-single-stim	s627	False
0.1	359.076	0.301	359.377	0	PA_without_intermediate	test	ward_and_allport	71	39.0	0.301	to_hand	poldrack-single-stim	s627	False
0.1	359.377	0.412	359.789	0	PA_without_intermediate	test	ward_and_allport	82	39.0	0.412	to_board	poldrack-single-stim	s627	False
0.1	359.796	0.588	360.384	0	PA_without_intermediate	test	ward_and_allport	71	39.0	0.588	to_hand	poldrack-single-stim	s627	False
0.1	360.384	0.242	360.626	0	PA_without_intermediate	test	ward_and_allport	89	39.0	0.242	to_board	poldrack-single-stim	s627	False
1.0	360.633	3.36	360.632	0	PA_without_intermediate	test	ward_and_allport	-1	39.0	n/a	feedback	poldrack-single-stim	s627	False
2.346	363.999	2.346	366.345	1	PA_without_intermediate	test	ward_and_allport	89	40.0	2.346	to_hand	poldrack-single-stim	s627	False
0.1	366.346	0.399	366.745	0	PA_without_intermediate	test	ward_and_allport	71	40.0	0.399	to_board	poldrack-single-stim	s627	False
0.1	366.752	0.497	367.249	0	PA_without_intermediate	test	ward_and_allport	89	40.0	0.497	to_hand	poldrack-single-stim	s627	False
0.1	367.251	0.364	367.615	0	PA_without_intermediate	test	ward_and_allport	71	40.0	0.364	to_board	poldrack-single-stim	s627	False
0.1	367.623	0.311	367.934	0	PA_without_intermediate	test	ward_and_allport	89	40.0	0.311	to_hand	poldrack-single-stim	s627	False
0.1	367.934	0.257	368.191	0	PA_without_intermediate	test	ward_and_allport	82	40.0	0.257	to_board	poldrack-single-stim	s627	False
1.0	368.204	2.0	368.203	0	PA_without_intermediate	test	ward_and_allport	-1	40.0	n/a	feedback	poldrack-single-stim	s627	False
2.878	370.21	2.878	373.088	1	PA_without_intermediate	test	ward_and_allport	82	41.0	2.878	to_hand	poldrack-single-stim	s627	False
0.1	373.09	0.507	373.597	0	PA_without_intermediate	test	ward_and_allport	71	41.0	0.507	to_board	poldrack-single-stim	s627	False
0.1	373.603	0.434	374.037	0	PA_without_intermediate	test	ward_and_allport	82	41.0	0.434	to_hand	poldrack-single-stim	s627	False
0.1	374.039	0.374	374.413	0	PA_without_intermediate	test	ward_and_allport	89	41.0	0.374	to_board	poldrack-single-stim	s627	False
0.1	374.422	0.525	374.947	0	PA_without_intermediate	test	ward_and_allport	82	41.0	0.525	to_hand	poldrack-single-stim	s627	False
0.1	374.948	0.406	375.354	0	PA_without_intermediate	test	ward_and_allport	71	41.0	0.406	to_board	poldrack-single-stim	s627	False
1.0	375.367	2.408	375.366	0	PA_without_intermediate	test	ward_and_allport	-1	41.0	n/a	feedback	poldrack-single-stim	s627	False
1.943	377.782	1.943	379.725	1	PA_with_intermediate	test	ward_and_allport	71	42.0	1.943	to_hand	poldrack-single-stim	s627	False
0.1	379.726	0.367	380.093	0	PA_with_intermediate	test	ward_and_allport	89	42.0	0.367	to_board	poldrack-single-stim	s627	False
0.1	380.099	0.281	380.38	0	PA_with_intermediate	test	ward_and_allport	71	42.0	0.281	to_hand	poldrack-single-stim	s627	False
0.1	380.38	0.355	380.735	0	PA_with_intermediate	test	ward_and_allport	82	42.0	0.355	to_board	poldrack-single-stim	s627	False
0.1	380.742	0.339	381.081	0	PA_with_intermediate	test	ward_and_allport	89	42.0	0.339	to_hand	poldrack-single-stim	s627	False
0.1	381.082	0.309	381.391	0	PA_with_intermediate	test	ward_and_allport	71	42.0	0.309	to_board	poldrack-single-stim	s627	False
1.0	381.399	2.136	381.398	0	PA_with_intermediate	test	ward_and_allport	-1	42.0	n/a	feedback	poldrack-single-stim	s627	False
1.454	383.542	1.454	384.996	1	PA_without_intermediate	test	ward_and_allport	71	43.0	1.454	to_hand	poldrack-single-stim	s627	False
0.1	384.997	0.417	385.414	0	PA_without_intermediate	test	ward_and_allport	89	43.0	0.417	to_board	poldrack-single-stim	s627	False
0.1	385.42	0.362	385.782	0	PA_without_intermediate	test	ward_and_allport	71	43.0	0.362	to_hand	poldrack-single-stim	s627	False
0.1	385.782	0.327	386.109	0	PA_without_intermediate	test	ward_and_allport	89	43.0	0.327	to_board	poldrack-single-stim	s627	False
0.1	386.116	0.373	386.489	0	PA_without_intermediate	test	ward_and_allport	71	43.0	0.373	to_hand	poldrack-single-stim	s627	False
0.1	386.491	0.296	386.787	0	PA_without_intermediate	test	ward_and_allport	82	43.0	0.296	to_board	poldrack-single-stim	s627	False
1.0	386.797	5.128	386.796	0	PA_without_intermediate	test	ward_and_allport	-1	43.0	n/a	feedback	poldrack-single-stim	s627	False
1.493	391.93	1.493	393.423	1	PA_without_intermediate	test	ward_and_allport	89	44.0	1.493	to_hand	poldrack-single-stim	s627	False
0.1	393.424	0.489	393.913	0	PA_without_intermediate	test	ward_and_allport	82	44.0	0.489	to_board	poldrack-single-stim	s627	False
0.1	393.922	0.788	394.71	0	PA_without_intermediate	test	ward_and_allport	89	44.0	0.788	to_hand	poldrack-single-stim	s627	False
0.1	394.711	0.361	395.072	0	PA_without_intermediate	test	ward_and_allport	71	44.0	0.361	to_board	poldrack-single-stim	s627	False
0.1	395.081	0.306	395.387	0	PA_without_intermediate	test	ward_and_allport	89	44.0	0.306	to_hand	poldrack-single-stim	s627	False
0.1	395.388	0.333	395.721	0	PA_without_intermediate	test	ward_and_allport	82	44.0	0.333	to_board	poldrack-single-stim	s627	False
1.0	395.736	2.136	395.735	0	PA_without_intermediate	test	ward_and_allport	-1	44.0	n/a	feedback	poldrack-single-stim	s627	False
1.458	402.88	1.458	404.338	1	PA_without_intermediate	test	ward_and_allport	82	45.0	1.458	to_hand	poldrack-single-stim	s627	False
0.1	404.339	0.474	404.813	0	PA_without_intermediate	test	ward_and_allport	71	45.0	0.474	to_board	poldrack-single-stim	s627	False
0.1	404.822	0.595	405.417	0	PA_without_intermediate	test	ward_and_allport	82	45.0	0.595	to_hand	poldrack-single-stim	s627	False
0.1	405.418	0.414	405.832	0	PA_without_intermediate	test	ward_and_allport	89	45.0	0.414	to_board	poldrack-single-stim	s627	False
0.1	405.842	0.415	406.257	0	PA_without_intermediate	test	ward_and_allport	82	45.0	0.415	to_hand	poldrack-single-stim	s627	False
0.1	406.258	0.32	406.578	0	PA_without_intermediate	test	ward_and_allport	71	45.0	0.32	to_board	poldrack-single-stim	s627	False
1.0	406.592	5.264	406.591	0	PA_without_intermediate	test	ward_and_allport	-1	45.0	n/a	feedback	poldrack-single-stim	s627	False
2.501	411.866	2.501	414.367	1	PA_with_intermediate	test	ward_and_allport	71	46.0	2.501	to_hand	poldrack-single-stim	s627	False
0.1	414.368	0.385	414.753	0	PA_with_intermediate	test	ward_and_allport	82	46.0	0.385	to_board	poldrack-single-stim	s627	False
0.1	414.763	0.32	415.083	0	PA_with_intermediate	test	ward_and_allport	71	46.0	0.32	to_hand	poldrack-single-stim	s627	False
0.1	415.085	0.348	415.433	0	PA_with_intermediate	test	ward_and_allport	89	46.0	0.348	to_board	poldrack-single-stim	s627	False
0.1	415.443	0.555	415.998	0	PA_with_intermediate	test	ward_and_allport	82	46.0	0.555	to_hand	poldrack-single-stim	s627	False
0.1	415.999	0.333	416.332	0	PA_with_intermediate	test	ward_and_allport	71	46.0	0.333	to_board	poldrack-single-stim	s627	False
1.0	416.344	4.04	416.343	0	PA_with_intermediate	test	ward_and_allport	-1	46.0	n/a	feedback	poldrack-single-stim	s627	False
1.441	420.391	1.441	421.832	1	PA_with_intermediate	test	ward_and_allport	82	47.0	1.441	to_hand	poldrack-single-stim	s627	False
0.1	421.833	0.511	422.344	0	PA_with_intermediate	test	ward_and_allport	89	47.0	0.511	to_board	poldrack-single-stim	s627	False
0.1	422.351	0.561	422.912	0	PA_with_intermediate	test	ward_and_allport	82	47.0	0.561	to_hand	poldrack-single-stim	s627	False
0.1	422.914	0.422	423.336	0	PA_with_intermediate	test	ward_and_allport	71	47.0	0.422	to_board	poldrack-single-stim	s627	False
0.1	423.346	0.312	423.658	0	PA_with_intermediate	test	ward_and_allport	89	47.0	0.312	to_hand	poldrack-single-stim	s627	False
0.1	423.66	0.333	423.993	0	PA_with_intermediate	test	ward_and_allport	71	47.0	0.333	to_board	poldrack-single-stim	s627	False
1.0	424.008	2.136	424.007	0	PA_with_intermediate	test	ward_and_allport	-1	47.0	n/a	feedback	poldrack-single-stim	s627	False
